Timestamp,linacce_x,linacce_y,linacce_z,gyro_x,gyro_y,gyro_z,X-magnetometer,Y-magnetometer,Z-magnetometer,Yaw, worldXAccel,worldYAccel,worldZAccel,worldXgyro,worldYgyro,worldZgyro
20231225 03:49:16,0.045697,0.028414,-0.255251,-0.158883,-0.349349,-0.305042,20.115532,44.906296,-16.589607,-23.34855,-0.04541772,0.024668278,-0.22508033,-0.25828034,-0.3479828,-0.3373586
20231225 03:49:16,-0.084074,0.221844,-0.271753,-0.164210,-0.241749,-0.294389,19.303654,44.467781,-16.569054,-22.432331,-0.17475702,0.22153883,-0.12530261,-0.26014245,-0.24101594,-0.28122625
20231225 03:49:16,-0.202048,0.395033,-0.143881,-0.123727,-0.127757,-0.240056,19.675922,45.057037,-16.201912,-22.425032,-0.23997241,0.39557365,0.089990504,-0.20277004,-0.12764403,-0.20707816
20231225 03:49:16,-0.288738,0.442488,0.014028,-0.047022,-0.037202,-0.161220,19.729710,45.627151,-16.238579,-22.136244,-0.26430607,0.4419616,0.27219722,-0.10225737,-0.037174154,-0.13518554
20231225 03:49:16,-0.304968,0.391864,0.034335,0.038206,0.029915,-0.083450,19.472954,44.947411,-16.196770,-22.174713,-0.27323255,0.39182594,0.2757836,0.0062870663,0.029923001,-0.07522583
20231225 03:49:16,-0.251320,0.242743,-0.007038,0.107454,0.071463,-0.028052,19.844833,45.728554,-16.110085,-22.298483,-0.23823619,0.2431943,0.16683608,0.09128941,0.071249045,-0.03588026
20231225 03:49:16,-0.220552,0.102056,-0.102535,0.151133,0.085313,0.002843,19.754417,45.162136,-16.609901,-22.451105,-0.24202138,0.10320601,0.02229815,0.14333704,0.08436856,-0.018122122
20231225 03:49:16,-0.154784,0.012671,-0.240289,0.156460,0.085313,0.014562,19.773117,44.968399,-16.061165,-22.779848,-0.22694057,0.0136281,-0.15141952,0.1525763,0.08318099,-0.009273287
20231225 03:49:16,-0.076526,-0.015809,-0.293243,0.126630,0.071463,0.011366,19.403038,45.129219,-16.075356,-22.355127,-0.17092198,-0.016235868,-0.2352276,0.12344179,0.06960264,-0.0071742265
20231225 03:49:16,-0.059874,-0.014096,-0.254005,0.071232,0.045895,-0.000353,19.260635,44.934647,-16.465981,-22.214787,-0.14192136,-0.01452869,-0.20630634,0.06718883,0.04488801,-0.007938707
20231225 03:49:16,-0.071807,-0.018864,-0.191240,0.004115,0.005412,-0.014202,19.357445,45.037895,-16.605736,-22.314825,-0.13119543,-0.018781878,-0.14990866,-7.884097E-4,0.0052570812,-0.011821331
20231225 03:49:16,-0.056205,-0.050586,-0.108051,-0.049153,-0.031876,-0.032313,19.260635,44.934647,-16.465981,-22.231842,-0.08862818,-0.050299082,-0.094310425,-0.057165816,-0.03130751,-0.023644755
20231225 03:49:16,-0.088578,-0.087010,-0.072639,-0.075786,-0.059575,-0.047228,19.861343,44.784740,-15.914345,-22.992031,-0.107830785,-0.08600889,-0.066614956,-0.08733349,-0.058640253,-0.038510397
20231225 03:49:16,-0.091467,-0.078545,-0.052544,-0.077917,-0.069163,-0.056816,19.666958,44.962017,-16.195793,-22.641027,-0.10392111,-0.077558495,-0.044812474,-0.09244559,-0.068377145,-0.04952067
20231225 03:49:16,-0.103805,-0.046880,-0.068213,-0.058741,-0.056379,-0.053620,19.330551,44.752838,-16.587395,-22.274218,-0.12067467,-0.046025075,-0.04210068,-0.073354885,-0.05594882,-0.04762461
20231225 03:49:16,-0.081105,0.017525,-0.094604,-0.026780,-0.024418,-0.037640,19.560799,44.955639,-16.330391,-22.538548,-0.10811873,0.01820115,-0.048660733,-0.03800939,-0.02422408,-0.03253805
20231225 03:49:16,-0.058629,0.070731,-0.133767,0.010507,0.013934,-0.021660,19.330933,44.560951,-16.306923,-22.529041,-0.10009237,0.07090021,-0.07083514,0.002621748,0.013610609,-0.017363254
20231225 03:49:16,-0.033538,0.112849,-0.131048,0.042467,0.051222,-0.008876,19.499847,45.232468,-16.215111,-22.51105,-0.0756841,0.1125233,-0.061580446,0.03721539,0.05026412,-0.003885141
20231225 03:49:16,-0.018272,0.125368,-0.122817,0.063774,0.065071,0.003908,19.260635,44.934647,-16.465981,-22.374447,-0.05821469,0.12475856,-0.055612113,0.061773207,0.063697755,0.0048324093
20231225 03:49:16,-0.005677,0.085756,-0.144587,0.066970,0.068267,0.004974,19.093910,45.013206,-16.204842,-22.170725,-0.05441591,0.084784016,-0.09338793,0.06509845,0.066939935,0.005481655
20231225 03:49:16,-0.003611,0.053879,-0.177952,0.041402,0.054418,0.002843,19.790661,45.350327,-16.353874,-22.716537,-0.063811496,0.052683994,-0.13347776,0.040264502,0.053623863,0.008066275
20231225 03:49:16,0.013014,0.023842,-0.162183,0.006246,0.034176,-0.008876,19.393688,45.226089,-16.349709,-22.414745,-0.042859633,0.022252608,-0.13683613,0.0031188603,0.033958156,0.0024076942
20231225 03:49:16,0.056247,0.047248,-0.119441,-0.029976,0.015000,-0.018464,19.515972,44.480541,-16.299828,-22.880272,0.012631144,0.044876285,-0.10534784,-0.03434145,0.015546625,-3.0323677E-4
20231225 03:49:16,0.057247,0.047457,-0.059370,-0.059806,0.001150,-0.030183,19.420967,45.319256,-16.087578,-22.524044,0.034307264,0.045359623,-0.053832833,-0.06646884,0.0024465153,-0.0056431387
20231225 03:49:16,0.043013,0.014418,-0.077136,-0.066198,0.007542,-0.044032,19.676304,44.865150,-15.921425,-22.969406,0.015055042,0.012613878,-0.07597521,-0.07699928,0.008837727,-0.0134457555
20231225 03:49:16,0.038344,-0.020409,-0.089761,-0.043826,0.057614,-0.057882,19.500229,45.040581,-15.934639,-22.696959,0.0061436556,-0.022129178,-0.09827459,-0.060072377,0.058171786,-0.014820017
20231225 03:49:16,0.051191,-0.002987,-0.091835,0.005180,0.132188,-0.057882,19.509579,44.943710,-15.660286,-22.812363,0.017441874,-0.0051980377,-0.09800246,-0.01326721,0.1314564,-0.00371724
20231225 03:49:16,0.087624,0.037614,-0.154011,0.068036,0.224873,-0.055751,19.606388,45.046959,-15.800026,-22.864202,0.030326162,0.033762995,-0.1495258,0.04717037,0.22242248,0.010683179
20231225 03:49:16,0.058467,0.060097,-0.153964,0.115976,0.312232,-0.051490,19.772732,45.160286,-16.341652,-22.7542,0.0028984286,0.05799057,-0.13155532,0.09356046,0.30970463,0.029364955
20231225 03:49:16,0.032412,0.059405,-0.069610,0.144741,0.362303,-0.044032,19.694233,45.055187,-15.933662,-22.591227,0.0071615875,0.058850884,-0.049968064,0.12256527,0.36074367,0.043759506
20231225 03:49:16,-0.108454,0.014257,0.120520,0.140479,0.362303,-0.039771,19.675537,45.248924,-16.482368,-22.065025,-0.06283654,0.013093363,0.14620052,0.11861648,0.36348498,0.047536224
20231225 03:49:16,-0.160590,-0.017550,0.266699,0.121303,0.306905,-0.041901,19.815369,44.885307,-16.725182,-22.15786,-0.066656545,-0.021430911,0.27914843,0.09989482,0.30896196,0.034052305
20231225 03:49:16,-0.196411,-0.100969,0.388913,0.089343,0.220612,-0.051490,19.976467,44.886139,-15.785851,-22.346218,-0.064669125,-0.107939705,0.36654133,0.067274824,0.22284886,0.006589208
20231225 03:49:16,-0.234510,-0.132375,0.375737,0.052056,0.131123,-0.065339,20.045616,45.088104,-16.468193,-22.176374,-0.1035894,-0.14097798,0.3565602,0.027856397,0.13285562,-0.026807318
20231225 03:49:16,-0.227816,-0.114665,0.390096,0.016899,0.036307,-0.077058,19.791813,44.774658,-15.512459,-22.148882,-0.09008753,-0.12398456,0.37424427,-0.008950556,0.037410725,-0.06005829
20231225 03:49:16,-0.222708,-0.012478,0.281884,-0.023584,-0.048921,-0.075993,19.878891,45.166664,-16.207039,-22.001423,-0.118067116,-0.020268433,0.31544998,-0.046744145,-0.04883805,-0.076170504
20231225 03:49:16,-0.167795,0.014604,0.164766,-0.060871,-0.095796,-0.070666,19.800011,45.253456,-16.079506,-22.088463,-0.10294254,0.01110377,0.20526128,-0.080507874,-0.096335575,-0.07522461
20231225 03:49:16,-0.082149,0.046445,0.117383,-0.081113,-0.111777,-0.063208,19.606007,45.238846,-16.080482,-22.127111,-0.038152583,0.04592312,0.14645687,-0.09743249,-0.112022445,-0.067669496
20231225 03:49:16,0.014902,0.046277,0.060749,-0.080048,-0.107515,-0.057882,19.766338,45.623455,-15.702095,-22.352585,0.034497246,0.046301913,0.06449559,-0.094979085,-0.10729249,-0.06205885
20231225 03:49:16,0.051138,0.040092,0.058924,-0.060871,-0.087274,-0.053620,19.773499,44.776512,-15.780708,-22.82712,0.06785845,0.039760504,0.04908976,-0.07547581,-0.086814724,-0.05854554
20231225 03:49:16,0.113055,-0.034997,0.052155,-0.031042,-0.067032,-0.052555,19.851997,44.881607,-16.188698,-22.90087,0.1236635,-0.03643462,-0.003990054,-0.046715774,-0.066825315,-0.06045358
20231225 03:49:16,0.163783,-0.098425,0.005527,0.005180,-0.052117,-0.060012,19.712547,45.053337,-15.665413,-22.877226,0.15613,-0.1018934,-0.08410484,-0.0147817265,-0.05265557,-0.073201865
20231225 03:49:16,0.191611,-0.131143,-0.041462,0.041402,-0.039333,-0.074927,19.376144,44.844158,-16.057014,-22.548878,0.16683054,-0.13532193,-0.14602485,0.014544584,-0.040696878,-0.093161
20231225 03:49:16,0.166078,-0.076620,-0.098417,0.064840,-0.037202,-0.091973,19.342087,45.406048,-15.960060,-22.17718,0.12359409,-0.07945156,-0.16839519,0.030436955,-0.03857377,-0.11511317
20231225 03:49:16,0.080255,-0.017721,-0.158458,0.073363,-0.038268,-0.101561,19.421349,45.127369,-15.807121,-22.228771,0.021430999,-0.018553898,-0.17155105,0.034289863,-0.038933475,-0.1269934
20231225 03:49:16,0.031301,0.027875,-0.177002,0.064840,-0.051052,-0.102626,19.730095,45.435265,-15.958107,-22.360823,-0.032400858,0.027503628,-0.15438585,0.024873942,-0.051445268,-0.12977171
20231225 03:49:16,0.018491,0.086396,-0.188711,0.052056,-0.061705,-0.098365,18.990707,45.373131,-15.425529,-21.568567,-0.050207734,0.086675435,-0.14086507,0.0135772005,-0.061427537,-0.12522249
20231225 03:49:16,-0.045598,0.168998,-0.259892,0.016899,-0.080882,-0.088777,19.517776,45.422508,-16.227333,-21.936089,-0.1366,0.16926102,-0.14951022,-0.01611422,-0.0806328,-0.111080855
20231225 03:49:16,-0.074155,0.175037,-0.267966,-0.057675,-0.098992,-0.067470,19.800011,45.253456,-16.079506,-22.32639,-0.16529438,0.17515148,-0.1429055,-0.07782327,-0.09912177,-0.07280097
20231225 03:49:16,-0.075391,0.128933,-0.235040,-0.106681,-0.109646,-0.057882,19.306225,45.025970,-15.935616,-21.919186,-0.15372685,0.12899199,-0.13236712,-0.120056845,-0.11003147,-0.0508783
20231225 03:49:16,-0.084979,0.097224,-0.137966,-0.142903,-0.120299,-0.053620,19.466175,45.602467,-15.837685,-21.963167,-0.12766366,0.09721962,-0.056315526,-0.15262517,-0.12031448,-0.039104935
20231225 03:49:16,-0.045814,0.102006,-0.059993,-0.159949,-0.125626,-0.052555,19.148083,45.391441,-15.961037,-21.728802,-0.06351892,0.10203771,-0.0012145564,-0.16833875,-0.12543757,-0.03487853
20231225 03:49:16,-0.045495,0.103291,0.030669,-0.162079,-0.124561,-0.050424,19.368599,45.882996,-16.258873,-21.729094,-0.032372423,0.10337961,0.078189656,-0.16965045,-0.12433533,-0.032616973
20231225 03:49:16,-0.052232,0.116337,0.112614,-0.152491,-0.123495,-0.048294,19.342087,45.406048,-15.960060,-21.939856,-0.011555836,0.11654596,0.15687591,-0.15996467,-0.1231879,-0.03482539
20231225 03:49:16,-0.065956,0.066550,0.195925,-0.135446,-0.126692,-0.053620,19.360401,45.404198,-15.691826,-21.985502,0.0023007095,0.066789255,0.21678737,-0.14562784,-0.12648283,-0.047115505
20231225 03:49:16,-0.070088,0.060812,0.212338,-0.114139,-0.126692,-0.062143,19.184326,45.579628,-15.705025,-21.777199,0.0041733608,0.06137796,0.23055968,-0.12844263,-0.12632869,-0.061064225
20231225 03:49:16,-0.047577,0.126400,0.212588,-0.090701,-0.110711,-0.069601,19.114410,45.761436,-15.583611,-21.669676,0.025731485,0.1269903,0.24621087,-0.108821765,-0.11038854,-0.06956433
20231225 03:49:16,-0.070904,0.150922,0.232416,-0.075786,-0.100058,-0.070666,18.689392,45.927803,-16.402519,-20.975481,0.010136619,0.15097575,0.2792219,-0.0949333,-0.1000398,-0.07093579
20231225 03:49:16,-0.133699,0.164977,0.274284,-0.022519,-0.049986,-0.064274,19.043728,46.327026,-16.023140,-21.097326,-0.035933755,0.16343391,0.34175277,-0.04237637,-0.0499853,-0.06613662
20231225 03:49:16,-0.171873,0.145611,0.288291,-0.002277,-0.031876,-0.056816,18.892361,46.037437,-16.407661,-20.868425,-0.06816531,0.14205022,0.35990503,-0.02069047,-0.03164444,-0.060109973
20231225 03:49:16,-0.304376,0.106357,0.300734,0.050990,0.017130,-0.017398,18.883781,45.750526,-16.121071,-20.826164,-0.19224264,0.09737605,0.3998777,0.042553432,0.018378757,-0.02603751
20231225 03:49:16,-0.306442,0.004791,0.295281,0.078689,0.033111,0.009235,19.007484,46.138832,-16.279167,-20.85383,-0.19885243,-0.0028650356,0.3595097,0.07742651,0.034539063,-0.00519896
20231225 03:49:16,-0.277404,-0.107079,0.302420,0.103192,0.036307,0.025215,18.972008,45.566868,-15.974236,-21.157852,-0.17054594,-0.11269788,0.31685066,0.10577091,0.03772956,0.003139099
20231225 03:49:16,-0.213808,-0.165107,0.279594,0.127695,0.028849,0.028412,18.989937,45.756905,-15.986473,-21.223347,-0.11910362,-0.16786632,0.2559707,0.13023588,0.029935066,-0.0032835566
20231225 03:49:16,-0.137912,-0.217191,0.215352,0.155394,0.020327,0.029477,19.219799,46.151596,-16.009941,-21.424097,-0.065520965,-0.21781051,0.1574026,0.15696661,0.020764416,-0.014146125
20231225 03:49:16,-0.047128,-0.216540,0.117670,0.179897,0.016065,0.026281,19.129002,45.777065,-16.790230,-21.547722,-0.008287393,-0.21604747,0.04317814,0.17910184,0.015092187,-0.027557721
20231225 03:49:16,0.010950,-0.161592,-0.013256,0.201204,0.012869,0.017758,19.113644,46.145214,-16.144554,-21.527796,0.005559744,-0.1617205,-0.07129598,0.1960825,0.011165421,-0.045339324
20231225 03:49:16,0.004410,-0.092681,-0.183578,0.211858,0.021392,0.017758,18.986984,45.390610,-16.900383,-21.58246,-0.058232594,-0.093263716,-0.19421399,0.20543645,0.01968042,-0.048731703
20231225 03:49:16,-0.001281,-0.075319,-0.332185,0.202270,0.030980,0.028412,19.138733,45.488304,-16.235405,-21.73258,-0.11497137,-0.075993925,-0.3157328,0.19985206,0.029893715,-0.033601195
20231225 03:49:16,-0.012182,-0.069783,-0.356965,0.182028,0.038437,0.035869,18.889790,45.479248,-17.041115,-21.47686,-0.13709739,-0.0710531,-0.33063874,0.18317486,0.036670975,-0.019532971
20231225 03:49:17,0.040597,0.008384,-0.419205,0.145806,0.038437,0.044392,19.208263,45.498386,-16.637276,-21.872042,-0.11155327,0.006079038,-0.37500265,0.15221682,0.036954876,-1.4450774E-4
20231225 03:49:17,0.046519,0.019324,-0.431458,0.104258,0.029915,0.053980,19.147697,45.583328,-16.241508,-21.841066,-0.11065729,0.016787427,-0.38394678,0.116799556,0.028910853,0.019927617
20231225 03:49:17,0.091596,0.050903,-0.354944,0.056317,0.019261,0.058241,19.181370,45.213329,-16.618935,-22.091278,-0.041057594,0.046824425,-0.3220129,0.07355201,0.018649558,0.037014533
20231225 03:49:17,0.136934,0.034137,-0.297935,0.011572,0.005412,0.053980,19.384724,45.131065,-16.343605,-22.46475,0.023639366,0.028458279,-0.2936952,0.02987067,0.0056086713,0.04455477
20231225 03:49:17,0.194501,0.007566,-0.241048,-0.031042,-0.019091,0.041196,19.005680,45.196869,-16.351662,-22.141638,0.09828745,-2.4013035E-4,-0.27443093,-0.014918636,-0.017809937,0.03984711
20231225 03:49:17,0.244885,-0.016966,-0.219560,-0.070459,-0.030810,0.022019,19.093525,45.205101,-16.485298,-22.372478,0.15469965,-0.028477138,-0.28069866,-0.059058566,-0.028004838,0.03224695
20231225 03:49:17,0.289588,-0.056428,-0.192401,-0.098159,-0.024418,-0.003549,18.856884,45.465469,-16.102730,-22.180601,0.20511433,-0.07120838,-0.2867859,-0.09377422,-0.02040253,0.02196556
20231225 03:49:17,0.368626,-0.067698,-0.119070,-0.104551,0.000085,-0.030183,19.102489,45.300117,-16.491417,-22.604803,0.30617112,-0.08764632,-0.25176296,-0.10860156,0.004657521,0.008867115
20231225 03:49:17,0.380311,-0.078970,-0.081818,-0.102420,0.019261,-0.045098,19.226963,45.304649,-16.088554,-22.789347,0.32978082,-0.099310055,-0.22695963,-0.111238725,0.02355305,0.0020528324
20231225 03:49:17,0.379687,-0.085378,0.036033,-0.084309,0.069333,-0.066404,19.041924,45.385056,-16.095650,-22.408335,0.3697195,-0.100772865,-0.12197346,-0.10022559,0.071860604,-0.005839821
20231225 03:49:17,0.324830,-0.126492,0.115244,-0.057675,0.103424,-0.084515,19.032574,45.481926,-16.370003,-22.265974,0.34294388,-0.13745761,-0.04694573,-0.08007551,0.10447886,-0.018797874
20231225 03:49:17,0.219121,-0.251725,0.265564,-0.028911,0.121535,-0.105822,19.314808,45.312874,-16.222206,-22.38454,0.2869651,-0.2550914,0.07660541,-0.05849523,0.12137367,-0.04044007
20231225 03:49:17,0.184481,-0.282229,0.315310,-0.006539,0.120469,-0.124999,19.102489,45.300117,-16.491417,-22.08526,0.26803198,-0.2840831,0.12265703,-0.042624302,0.11970726,-0.06538206
20231225 03:49:17,0.098466,-0.320172,0.422998,0.015834,0.091705,-0.158024,19.120033,45.682045,-16.784111,-21.694366,0.21835396,-0.31979302,0.23314162,-0.031414457,0.090990774,-0.11254919
20231225 03:49:17,0.064092,-0.282647,0.460089,0.020095,0.073594,-0.167613,19.271404,45.971634,-16.399590,-21.760036,0.19835787,-0.2818138,0.2884014,-0.030916415,0.07285246,-0.12849686
20231225 03:49:17,0.067408,-0.216246,0.524027,0.028618,0.035241,-0.183593,19.041924,45.385056,-16.095650,-21.707815,0.22240025,-0.21563388,0.3674046,-0.028211547,0.034707163,-0.15881167
20231225 03:49:17,0.003899,-0.156629,0.535083,0.043533,0.000085,-0.191050,18.917835,45.188637,-16.218040,-21.50391,0.16873825,-0.15672718,0.4177576,-0.01750147,1.457833E-4,-0.18248394
20231225 03:49:17,-0.071381,-0.087420,0.516918,0.064840,-0.028680,-0.186789,18.829990,45.180412,-16.084389,-21.34282,0.09342895,-0.088618234,0.4495007,0.0034390837,-0.028051436,-0.19543952
20231225 03:49:17,-0.081413,-0.092673,0.483013,0.094669,-0.043594,-0.172939,18.883396,45.942413,-16.401543,-21.00012,0.07384165,-0.09465954,0.42224264,0.036009792,-0.042337473,-0.19779065
20231225 03:49:17,-0.102085,-0.112330,0.376621,0.124499,-0.038268,-0.152698,18.574654,45.634518,-16.250557,-20.733906,0.02186855,-0.115125574,0.32871214,0.07037784,-0.036098987,-0.1875551
20231225 03:49:17,-0.142912,-0.140745,0.273129,0.175636,-0.004176,-0.123933,18.769039,45.457237,-15.969109,-21.07981,-0.04849112,-0.14314929,0.23899792,0.12731364,-0.0019401342,-0.1667723
20231225 03:49:17,-0.108981,-0.140577,0.271394,0.191616,0.005412,-0.116476,18.619476,46.109615,-16.281120,-20.620947,-0.016704842,-0.14282203,0.22851023,0.14473492,0.008014009,-0.16237588
20231225 03:49:17,-0.101509,-0.184565,0.208749,0.236361,0.020327,-0.097300,18.732029,45.652828,-16.786064,-20.82964,-0.029292256,-0.18653831,0.15499999,0.19317962,0.023443813,-0.15440449
20231225 03:49:17,-0.107593,-0.201077,0.184846,0.249145,0.022457,-0.091973,18.680813,45.640900,-16.115944,-20.837755,-0.042163454,-0.20331848,0.13024372,0.20673284,0.026185071,-0.15331957
20231225 03:49:17,-0.105420,-0.259176,0.088501,0.269387,0.013934,-0.085581,18.760075,45.362221,-15.962990,-21.082026,-0.0706951,-0.2607141,0.023521718,0.22798319,0.017366877,-0.15683267
20231225 03:49:17,-0.042856,-0.251069,-0.055222,0.289628,0.004346,-0.084515,18.917065,45.572418,-16.778984,-21.153393,-0.058160074,-0.25121126,-0.119918086,0.24534035,0.0063544246,-0.16873363
20231225 03:49:17,0.010493,-0.203359,-0.202631,0.304543,-0.006307,-0.091973,18.774666,45.377846,-17.169609,-21.04529,-0.059607223,-0.20292133,-0.24969596,0.2541945,-0.004575379,-0.18767035
20231225 03:49:17,-0.021555,-0.163425,-0.266961,0.302412,-0.009503,-0.094104,18.626251,45.454559,-16.640205,-20.93853,-0.11312928,-0.16302106,-0.28082296,0.2505143,-0.007766252,-0.19116524
20231225 03:49:17,0.019126,-0.126559,-0.382326,0.284301,-0.009503,-0.095169,18.668507,45.371468,-17.304207,-21.065504,-0.12047682,-0.12683469,-0.38196862,0.2306559,-0.010031677,-0.18877383
20231225 03:49:17,0.037630,-0.029145,-0.470436,0.254472,-0.010569,-0.091973,18.352985,45.718628,-16.794136,-20.635336,-0.13950855,-0.028944109,-0.43235338,0.2022201,-0.010308856,-0.17776616
20231225 03:49:17,0.029814,-0.055692,-0.520270,0.212923,-0.010569,-0.087711,19.002724,44.830566,-17.265587,-21.535536,-0.16742156,-0.055166718,-0.47876284,0.16450009,-0.010025968,-0.15907963
20231225 03:49:17,0.014881,-0.058698,-0.587288,0.156460,-0.010569,-0.085581,18.641994,44.894524,-17.005409,-21.17282,-0.2064442,-0.058080487,-0.5328891,0.112943545,-0.010101291,-0.13620436
20231225 03:49:17,0.014341,-0.080023,-0.563017,0.097866,-0.008438,-0.091973,18.926033,45.667435,-16.785088,-21.323505,-0.19780628,-0.08067535,-0.5185968,0.056252055,-0.008802263,-0.11895547
20231225 03:49:17,0.022173,-0.059669,-0.460146,0.030749,-0.007373,-0.116476,18.289848,45.245380,-17.031822,-20.686062,-0.15174077,-0.05927162,-0.4269934,-0.015109556,-0.0072237863,-0.11496628
20231225 03:49:17,0.007097,-0.046298,-0.436766,0.011572,-0.004176,-0.126064,18.616905,45.551430,-16.914558,-20.84844,-0.15763108,-0.045247935,-0.39611843,-0.0366941,-0.003819485,-0.11488573
20231225 03:49:17,-0.120691,0.037765,-0.270526,-0.015061,0.002216,-0.140979,18.562347,45.365089,-17.438835,-20.505333,-0.21400066,0.037568267,-0.17696391,-0.067087725,0.0029698224,-0.11591504
20231225 03:49:17,-0.202527,0.095611,-0.185580,-0.031042,0.000085,-0.146306,18.210968,45.332169,-16.904289,-19.943056,-0.25915825,0.09161391,-0.05395762,-0.08442265,0.0010001652,-0.11529792
20231225 03:49:17,-0.286321,0.196395,-0.072401,-0.032107,-0.002046,-0.137783,18.398193,46.001839,-16.544228,-19.786526,-0.29538155,0.18608534,0.108377114,-0.082449146,-0.0010491549,-0.10803459
20231225 03:49:17,-0.345717,0.271871,0.029375,-0.026780,-0.006307,-0.118607,18.272301,44.863453,-16.739113,-19.915522,-0.312321,0.25582972,0.24486586,-0.070503406,-0.0052847015,-0.094387144
20231225 03:49:17,-0.364768,0.349972,0.068303,-0.007604,-0.003111,-0.097300,18.317123,45.338551,-16.769676,-19.692755,-0.31619167,0.33049706,0.31041235,-0.044944756,-0.0014787738,-0.08229865
20231225 03:49:17,-0.398234,0.329458,0.090197,0.017964,0.007542,-0.054686,18.132088,45.418961,-16.776772,-19.43496,-0.33922532,0.30723217,0.33365124,-0.0047303364,0.009571678,-0.052189298
20231225 03:49:17,-0.398348,0.299797,0.101645,0.024357,0.010738,-0.037640,18.680042,46.024673,-16.676888,-19.775011,-0.3343917,0.27661985,0.33603537,0.00765933,0.012790172,-0.038741678
20231225 03:49:17,-0.444064,0.247217,0.112768,0.036075,0.010738,-0.008876,18.034893,45.507599,-16.917488,-19.258722,-0.37270823,0.22198948,0.34316853,0.029742839,0.012735553,-0.018232005
20231225 03:49:17,-0.395826,0.223028,0.135702,0.043533,-0.002046,0.017758,18.386658,45.348629,-17.171562,-19.666172,-0.3191601,0.20060962,0.33800298,0.04704698,-2.6879084E-4,-0.0017052423
20231225 03:49:17,-0.360005,0.198591,0.146654,0.048860,-0.021222,0.041196,18.483852,45.259987,-17.030846,-19.922983,-0.28120297,0.17958847,0.3267157,0.061202593,-0.019768592,0.010617513
20231225 03:49:17,-0.242513,0.146611,0.139002,0.056317,-0.043594,0.072091,18.483467,45.451874,-17.311302,-19.988981,-0.17474028,0.13556305,0.25861543,0.07990089,-0.04256928,0.027816419
20231225 03:49:17,-0.201023,0.138032,0.131705,0.070166,-0.062771,0.078483,18.695786,45.464638,-17.042091,-20.531776,-0.13911182,0.13186459,0.23410404,0.09488363,-0.0618136,0.021754757
20231225 03:49:17,-0.123032,0.063518,0.093917,0.079755,-0.072359,0.078483,18.616905,45.551430,-16.914558,-20.540113,-0.080117345,0.060352948,0.14789706,0.10367188,-0.071389146,0.0152249485
20231225 03:49:17,-0.062329,-0.009208,-0.008929,0.099996,-0.090470,0.078483,18.369114,44.966702,-16.878853,-20.587397,-0.06111043,-0.0101324525,0.0124563705,0.12260312,-0.08937778,0.0014095008
20231225 03:49:17,-0.013347,-0.016181,-0.149595,0.109584,-0.101123,0.079548,18.095844,45.230770,-17.032799,-20.567093,-0.06966189,-0.016248124,-0.12950505,0.13164438,-0.10122825,-0.0060127825
20231225 03:49:17,0.097615,0.007267,-0.292295,0.105323,-0.104319,0.080614,18.298813,45.340401,-17.037926,-20.858425,-0.02361928,0.005795349,-0.28722084,0.12807794,-0.10479146,-0.0057433173
20231225 03:49:17,0.187809,0.035807,-0.411516,0.078689,-0.103254,0.077418,18.474888,45.164970,-17.024727,-21.348934,0.008985609,0.029522862,-0.41439348,0.10221207,-0.10400979,3.8042665E-4
20231225 03:49:17,0.224510,0.045352,-0.501377,0.030749,-0.101123,0.074221,18.429676,44.881760,-17.274620,-21.383904,0.007453367,0.037521657,-0.5024448,0.056901366,-0.10108045,0.01738827
20231225 03:49:17,0.216243,0.059883,-0.501987,-0.033172,-0.093666,0.075287,18.313786,45.164139,-17.964073,-21.193102,-0.001462698,0.049750123,-0.49560076,-0.0013173595,-0.0921015,0.046555568
20231225 03:49:17,0.272691,0.079811,-0.414862,-0.096028,-0.081947,0.073156,18.711143,45.096489,-17.687752,-21.74478,0.0893112,0.067565985,-0.43417662,-0.060642347,-0.07845546,0.07221419
20231225 03:49:17,0.284523,-0.018178,-0.326564,-0.145034,-0.069163,0.058241,18.122353,45.707718,-17.331596,-20.965258,0.14168325,-0.030014751,-0.39522368,-0.11355504,-0.06433354,0.081702106
20231225 03:49:17,0.248458,-0.126685,-0.239447,-0.182321,-0.046790,0.032673,18.174339,45.335869,-17.440788,-21.055277,0.1437914,-0.13510343,-0.34065115,-0.15859845,-0.041939862,0.078726105
20231225 03:49:17,0.171162,-0.206886,-0.067212,-0.200432,-0.019091,-0.005680,18.262569,45.152210,-17.293938,-21.007633,0.1357268,-0.2097118,-0.18812664,-0.18986402,-0.016208054,0.058718923
20231225 03:49:17,0.073029,-0.199721,0.179764,-0.186582,0.001150,-0.045098,18.395622,45.443649,-17.177666,-20.778896,0.13032253,-0.19973351,0.06613135,-0.19070125,0.00145635,0.025034748
20231225 03:49:17,-0.058107,-0.142542,0.279210,-0.147165,0.022457,-0.081319,18.201618,45.429039,-17.178642,-20.262917,0.04278749,-0.14462323,0.21953869,-0.16631855,0.020931333,-0.013344698
20231225 03:49:17,-0.209770,-0.080696,0.312576,-0.069394,0.074659,-0.104757,18.265141,45.710396,-16.660500,-19.915064,-0.087416135,-0.09079661,0.3226301,-0.102271006,0.07366269,-0.044445734
20231225 03:49:17,-0.383556,-0.014938,0.313926,-0.042760,0.090639,-0.104757,18.016579,45.509449,-17.185738,-19.276875,-0.24800918,-0.03869421,0.40797898,-0.078541815,0.09036881,-0.049439587
20231225 03:49:17,-0.537446,0.030703,0.276764,0.004115,0.110881,-0.095169,18.113773,45.420807,-17.045021,-19.035976,-0.40256906,-0.011027902,0.44710243,-0.03315203,0.11325784,-0.051666148
20231225 03:49:17,-0.633106,0.092768,0.208971,0.039271,0.118339,-0.063208,18.149246,45.992775,-17.349937,-18.595936,-0.513651,0.039462566,0.4459597,0.00964766,0.12273331,-0.035140585
20231225 03:49:17,-0.666659,0.193691,0.093709,0.052056,0.115142,-0.009941,18.246441,45.904137,-17.209221,-18.854662,-0.5850878,0.1442693,0.39594162,0.040922996,0.11871008,0.0056537995
20231225 03:49:17,-0.517769,0.294416,-0.088116,0.050990,0.108750,0.050784,18.519325,45.831955,-17.335762,-19.53506,-0.5167963,0.26907513,0.21947378,0.06448072,0.11008309,0.057097506
20231225 03:49:17,-0.298262,0.327921,-0.255233,0.026487,0.113012,0.107247,18.086880,45.135750,-17.026680,-19.92866,-0.38017228,0.32245275,0.0035657585,0.06618817,0.11235456,0.11668714
20231225 03:49:17,-0.026740,0.249815,-0.394526,-0.019323,0.135384,0.140273,18.043472,45.794510,-17.204079,-20.171207,-0.18210877,0.25044665,-0.25003237,0.037875526,0.13503039,0.17129698
20231225 03:49:17,0.163488,0.134993,-0.398504,-0.080048,0.164149,0.146665,18.686821,45.369621,-17.035973,-21.288544,-0.0018515736,0.13214172,-0.36038733,-0.016897969,0.16536032,0.21194497
20231225 03:49:17,0.248898,-0.000834,-0.248489,-0.138642,0.173737,0.124293,18.650578,45.181427,-17.291985,-21.335075,0.14199445,-0.004810008,-0.30617937,-0.0834336,0.17587501,0.21704787
20231225 03:49:17,0.248925,-0.150488,-0.003469,-0.178060,0.152430,0.087006,18.837803,45.851097,-16.931923,-21.268663,0.2322265,-0.15276086,-0.13947254,-0.13705876,0.15433384,0.18904853
20231225 03:49:17,0.219221,-0.218916,0.238766,-0.187648,0.098097,0.047588,18.766087,45.090942,-16.883018,-21.365784,0.28564903,-0.21934998,0.061998412,-0.16120753,0.0987526,0.13765565
20231225 03:49:17,0.179014,-0.198726,0.386797,-0.161014,0.024588,0.015627,18.511513,45.161270,-16.488228,-21.13053,0.2976812,-0.19886805,0.21275516,-0.14651844,0.025158022,0.07587239
20231225 03:49:17,0.166812,-0.111056,0.318168,-0.108812,-0.029745,0.002843,18.529060,45.543198,-16.780937,-20.996521,0.26988345,-0.11126158,0.18003583,-0.10056121,-0.029229678,0.03166888
20231225 03:49:17,0.188995,0.067342,0.115581,-0.051283,-0.042529,0.011366,18.784397,45.089088,-16.614784,-21.496922,0.2186265,0.06642728,0.05226068,-0.04346269,-0.042170428,0.014463019
20231225 03:49:17,0.238316,0.309290,-0.235082,0.010507,0.026719,0.058241,18.741379,45.555958,-16.511696,-21.432371,0.12632301,0.3053481,-0.1920874,0.032997962,0.026887054,0.054476067
20231225 03:49:17,0.241281,0.337072,-0.306550,0.016899,0.071463,0.079548,18.741379,45.555958,-16.511696,-21.379786,0.09752373,0.33381772,-0.24645433,0.047977306,0.07161799,0.084669985
20231225 03:49:17,0.152900,0.343790,-0.402225,0.006246,0.169475,0.118966,18.635220,45.549576,-16.646324,-21.02301,-0.017651513,0.34415334,-0.29192382,0.05241829,0.1694252,0.15556204
20231225 03:49:17,0.039847,0.170093,-0.198853,-0.024649,0.234461,0.145600,18.838570,45.467316,-16.370979,-20.90174,-0.036655575,0.17229135,-0.13100165,0.028386021,0.23286325,0.21353023
20231225 03:49:17,-0.124200,-0.059133,0.123162,-0.058741,0.232331,0.154123,19.111839,45.203247,-16.217064,-20.95778,-0.074794486,-0.065073654,0.1301816,-0.006445553,0.22811718,0.23355375
20231225 03:49:17,-0.235316,-0.184745,0.476372,-0.080048,0.163083,0.154123,18.926800,45.283657,-16.224159,-20.620108,-0.06741105,-0.20107974,0.4361911,-0.02866169,0.15742034,0.21670562
20231225 03:49:17,-0.231399,-0.160263,0.681094,-0.072590,0.049091,0.156253,18.996330,45.293739,-16.626030,-20.724197,4.2027235E-4,-0.17711306,0.6238393,-0.019449033,0.044442948,0.17814264
20231225 03:49:17,-0.101044,-0.109127,0.634175,-0.040630,-0.068097,0.160515,18.996330,45.293739,-16.626030,-21.046976,0.118784465,-0.11599059,0.5544803,0.016190685,-0.07014142,0.13171346
20231225 03:49:17,0.031182,0.011255,0.333783,-0.015061,-0.136280,0.169037,19.084560,45.110077,-16.479179,-21.482912,0.1464702,0.010409592,0.2836743,0.045770887,-0.1369778,0.10582689
20231225 03:49:17,0.142034,0.049828,-0.017703,-0.006539,-0.141606,0.177560,19.348480,44.942879,-16.599632,-22.016876,0.1261762,0.04966276,-0.048982654,0.057717945,-0.14152315,0.106411055
20231225 03:49:17,0.187650,-0.014187,-0.242452,-0.017192,-0.100058,0.181822,19.102489,45.300117,-16.491417,-21.728872,0.08690455,-0.015630675,-0.28284428,0.049726877,-0.09960601,0.12911595
20231225 03:49:17,0.170460,-0.012094,-0.281751,-0.037434,-0.045725,0.186083,19.435558,45.334885,-17.294197,-21.961906,0.057404198,-0.013791104,-0.30940366,0.032055754,-0.045059595,0.15851928
20231225 03:49:17,0.150820,-0.027239,-0.136683,-0.054479,-0.013765,0.188214,19.154861,44.736382,-16.320122,-21.98862,0.092397764,-0.027958414,-0.18158141,0.015909582,-0.013317403,0.1776754
20231225 03:49:17,0.117104,-0.052800,-0.006344,-0.060871,-0.013765,0.187148,19.126812,45.026985,-17.143196,-21.650843,0.10768008,-0.052785918,-0.064324565,0.0076364093,-0.013780399,0.1794979
20231225 03:49:17,0.104893,-0.079403,0.069514,-0.070459,-0.037202,0.183952,19.233356,44.841476,-16.728111,-21.937431,0.12236659,-0.0795653,-0.003476996,-0.002755195,-0.03691908,0.17141616
20231225 03:49:17,0.116439,-0.095307,0.105872,-0.087505,-0.072359,0.179691,19.154095,45.120159,-16.881065,-21.834633,0.1451636,-0.09586094,0.019694448,-0.021683302,-0.07127527,0.16125323
20231225 03:49:17,0.195761,-0.071052,0.148158,-0.104551,-0.109646,0.167972,19.242706,44.744610,-16.453758,-22.373924,0.23388648,-0.07373042,0.03712724,-0.042212423,-0.10650255,0.14229551
20231225 03:49:17,0.273219,-0.090775,0.094636,-0.117335,-0.133084,0.149861,19.488312,44.579262,-16.842430,-22.888891,0.28811538,-0.0980412,-0.043420017,-0.06133011,-0.12778386,0.120848455
20231225 03:49:17,0.341168,-0.123434,0.103227,-0.119465,-0.136280,0.121097,19.357830,44.846008,-16.325264,-22.8083,0.3544867,-0.13426569,-0.068963364,-0.07409336,-0.13036773,0.0952144
20231225 03:49:17,0.321555,-0.162853,0.137822,-0.102420,-0.127757,0.084875,19.330551,44.752838,-16.587395,-22.69098,0.3472204,-0.17123249,-0.0451003,-0.070167184,-0.12360167,0.0611184
20231225 03:49:17,0.240903,-0.182493,0.132360,-0.068329,-0.104319,0.058241,19.093525,45.205101,-16.485298,-22.11421,0.26954353,-0.18690236,-0.028178535,-0.046249483,-0.10225993,0.03630969
20231225 03:49:17,0.138507,-0.129325,0.218055,-0.028911,-0.088339,0.042261,19.639679,44.868847,-16.457909,-22.688015,0.20190874,-0.13035075,0.097147144,-0.013873951,-0.08759192,0.014178023
20231225 03:49:17,0.108035,-0.059209,0.258758,0.007311,-0.087274,0.033738,18.896950,44.632301,-17.119728,-21.918392,0.18896228,-0.05943856,0.16845602,0.017803721,-0.08718331,-0.003679933
20231225 03:49:17,0.120751,-0.003162,0.167468,0.033945,-0.090470,0.034804,19.348480,44.942879,-16.599632,-22.369228,0.17049852,-0.004249034,0.10340613,0.043167334,-0.09083912,-0.013661971
20231225 03:49:17,0.145098,0.029209,0.075967,0.040337,-0.078751,0.039065,19.303654,44.467781,-16.569054,-22.63091,0.16271153,0.026456006,0.02577702,0.050719682,-0.07933267,-0.008642763
20231225 03:49:18,0.179398,0.034386,0.071495,0.037141,-0.069163,0.040130,19.305843,45.217857,-16.216087,-22.44725,0.19339132,0.030242782,0.012077209,0.04805683,-0.06973609,-0.0028620884
20231225 03:49:18,0.187926,0.061424,0.061833,0.030749,-0.060640,0.036934,19.357830,44.846008,-16.325264,-22.734417,0.19841066,0.056145176,0.010346081,0.040954296,-0.061146766,-7.3106214E-4
20231225 03:49:18,0.235062,0.041157,0.101970,0.027553,-0.045725,0.032673,19.515205,44.864319,-16.860771,-22.895937,0.25628674,0.034169525,0.02258315,0.0364978,-0.046242233,0.0021037068
20231225 03:49:18,0.245273,-0.049509,0.110758,0.024357,-0.026549,0.023085,19.242321,44.936501,-16.734230,-22.595795,0.26759148,-0.056690674,-0.0041280836,0.030364674,-0.027095487,0.0022707824
20231225 03:49:18,0.248390,-0.117074,0.102822,0.024357,0.001150,0.003908,19.163826,44.831398,-16.326241,-22.645079,0.26682818,-0.12495062,-0.034492314,0.024303587,2.8752367E-4,-0.0041710595
20231225 03:49:18,0.204571,-0.200167,0.125582,0.026487,0.022457,-0.022725,19.311852,44.946579,-17.136116,-22.478355,0.232039,-0.2046384,-0.027837262,0.018066082,0.021488288,-0.020215925
20231225 03:49:18,0.119561,-0.279559,0.166936,0.024357,0.035241,-0.051490,19.305458,45.409744,-16.496544,-22.089195,0.16423438,-0.28048256,0.009867817,0.0072875805,0.0346287,-0.040328294
20231225 03:49:18,-0.040423,-0.336203,0.273750,0.022226,0.027784,-0.074927,19.268833,45.413445,-17.033043,-21.700094,0.045641933,-0.33612657,0.13616887,-0.0018836726,0.0277563,-0.06330327
20231225 03:49:18,-0.141382,-0.290178,0.340985,0.028618,-0.002046,-0.090907,19.040386,46.152611,-17.217537,-21.029829,-0.028380461,-0.29163447,0.24738175,-9.1348216E-4,-0.0017085109,-0.09024146
20231225 03:49:18,-0.179525,-0.257565,0.360046,0.043533,-0.040398,-0.095169,18.979439,46.429443,-17.102242,-20.854954,-0.055326425,-0.25957844,0.28910246,0.011151595,-0.03988973,-0.11179209
20231225 03:49:18,-0.137532,-0.137408,0.303774,0.075493,-0.074489,-0.095169,19.153709,45.312046,-17.161537,-21.603382,-0.02965556,-0.13708954,0.26424077,0.039828114,-0.07463126,-0.1343278
20231225 03:49:18,-0.085069,-0.012896,0.157268,0.115976,-0.091535,-0.093038,19.164093,46.540920,-17.375618,-21.230932,-0.024328295,-0.011976017,0.1627798,0.07560754,-0.09249533,-0.15301168
20231225 03:49:18,-0.015613,0.105472,-0.044195,0.156460,-0.079816,-0.084515,19.223625,45.130234,-17.282936,-21.910872,-0.030370858,0.10544777,0.0042179488,0.11405568,-0.081687436,-0.15818942
20231225 03:49:18,-0.047600,0.216206,-0.219809,0.194812,-0.031876,-0.062143,18.887600,44.729172,-17.394081,-21.647236,-0.12952009,0.21588682,-0.09582479,0.15462883,-0.033373203,-0.1404805
20231225 03:49:18,-0.052777,0.344249,-0.311395,0.200139,-0.014830,-0.053620,19.198532,45.787144,-17.192101,-21.5217,-0.17236243,0.3440117,-0.12870333,0.16203225,-0.015464417,-0.13067406
20231225 03:49:18,-0.126595,0.398062,-0.379611,0.201204,0.015000,-0.029117,18.887985,44.537277,-17.113609,-21.507719,-0.27104527,0.39827165,-0.13776493,0.17189689,0.016085064,-0.10161858
20231225 03:49:18,-0.171365,0.408584,-0.411423,0.189485,0.035241,0.002843,18.633030,44.799500,-16.999290,-21.091553,-0.3256336,0.408668,-0.14645648,0.17407174,0.036802255,-0.06320062
20231225 03:49:18,-0.182016,0.385017,-0.374496,0.167113,0.035241,0.038000,18.870056,44.347240,-17.101387,-21.522,-0.31957504,0.3849006,-0.11536853,0.16803724,0.03625947,-0.023749039
20231225 03:49:18,-0.163516,0.349694,-0.343872,0.141545,0.019261,0.067829,18.527256,44.601234,-16.853432,-21.21867,-0.28934276,0.34967086,-0.11092582,0.15687414,0.019495461,0.0067068934
20231225 03:49:18,-0.043796,0.336426,-0.359401,0.114911,0.001150,0.089136,18.835999,44.909130,-17.004433,-21.602507,-0.18629573,0.3356423,-0.17385368,0.14135653,6.5750844E-4,0.028864559
20231225 03:49:18,0.019998,0.339926,-0.401489,0.088277,0.000085,0.100855,18.234257,43.733299,-17.067635,-21.600986,-0.14616023,0.3368704,-0.23406059,0.122175,-5.410921E-4,0.04869101
20231225 03:49:18,0.040072,0.371807,-0.446296,0.056317,0.025653,0.108313,18.772861,44.435883,-17.242104,-21.768541,-0.14651814,0.36926702,-0.26835817,0.09622177,0.025578512,0.07691056
20231225 03:49:18,-0.003641,0.321203,-0.408792,0.021160,0.065071,0.113639,18.676052,44.332634,-17.102364,-21.568806,-0.16856231,0.32051665,-0.23808974,0.0655389,0.06518314,0.10988556
20231225 03:49:18,-0.152338,0.227357,-0.276266,-0.013996,0.099162,0.116835,18.860706,44.444111,-17.375755,-21.247976,-0.24881393,0.226819,-0.10239081,0.031771902,0.09826059,0.13894011
20231225 03:49:18,-0.348131,0.076732,-0.066890,-0.040630,0.108750,0.114705,19.082375,44.360001,-16.832161,-21.047909,-0.3495225,0.06423538,0.09540242,0.002633512,0.10533708,0.15082148
20231225 03:49:18,-0.545090,-0.019632,0.218639,-0.051283,0.074659,0.121097,19.055096,44.266830,-17.094292,-20.70899,-0.43224198,-0.052193925,0.3776124,-0.0066636726,0.06950413,0.14878383
20231225 03:49:18,-0.636934,-0.007563,0.416514,-0.035303,-0.003111,0.133881,19.567192,44.492470,-16.969963,-21.089594,-0.4477554,-0.05188123,0.58682144,0.0144905,-0.007907913,0.12826458
20231225 03:49:18,-0.638405,0.080378,0.363414,0.000919,-0.085143,0.162645,19.309666,44.196503,-17.489082,-20.909363,-0.45905015,0.039805066,0.5794071,0.063083194,-0.088329755,0.11246514
20231225 03:49:18,-0.550395,0.220264,0.031169,0.029683,-0.111777,0.210586,19.257679,44.568348,-17.379906,-20.936794,-0.49723834,0.19583015,0.316782,0.11255337,-0.11427366,0.13220681
20231225 03:49:18,-0.436165,0.305980,-0.303886,0.038206,-0.087274,0.267049,19.230400,44.475182,-17.642036,-21.228016,-0.52641654,0.29718184,0.021912456,0.14561221,-0.08960185,0.1824528
20231225 03:49:18,-0.263424,0.269645,-0.533862,0.017964,-0.022287,0.314990,19.097733,43.991852,-17.477837,-21.688189,-0.46168315,0.26933837,-0.25251234,0.14637873,-0.023885854,0.2517336
20231225 03:49:18,-0.178691,0.150928,-0.550353,-0.017192,0.053352,0.337362,19.769390,44.985878,-17.536034,-22.217455,-0.38190848,0.15108316,-0.34490234,0.117538,0.052918814,0.31219256
20231225 03:49:18,-0.139314,-0.012237,-0.376376,-0.051283,0.105554,0.333101,19.813183,44.135231,-17.078163,-22.560034,-0.26952863,-0.01215234,-0.27495363,0.07627128,0.10423988,0.3421361
20231225 03:49:18,-0.181628,-0.117794,-0.060151,-0.072590,0.095966,0.314990,19.944431,43.484703,-17.034386,-22.917038,-0.19072452,-0.11927127,-0.030033458,0.043868206,0.09416229,0.33189654
20231225 03:49:18,-0.156054,-0.106331,0.169788,-0.073656,0.033111,0.291552,20.128704,43.788071,-17.588234,-23.11253,-0.08529827,-0.10625139,0.16253026,0.035108954,0.033177223,0.28893575
20231225 03:49:18,-0.060594,-0.012605,0.107404,-0.059806,-0.024418,0.274507,20.023312,43.397911,-17.161903,-23.434168,-0.016688526,-0.011634893,0.109298766,0.045716252,-0.022831846,0.24712062
20231225 03:49:18,-0.034388,0.059395,-0.139876,-0.052349,-0.024418,0.272376,20.104763,43.869312,-16.655983,-23.514639,-0.085200265,0.059052274,-0.08328581,0.056313884,-0.022086687,0.24168156
20231225 03:49:18,-0.035488,0.111039,-0.342759,-0.068329,0.033111,0.280899,20.401970,43.524002,-17.434319,-23.769115,-0.16380064,0.10986492,-0.2347186,0.04484772,0.0351259,0.27593374
20231225 03:49:18,-0.052372,0.002965,-0.316194,-0.102420,0.098097,0.285160,20.278648,42.943802,-16.995766,-23.866226,-0.16529065,0.002444441,-0.2483382,0.010251991,0.09962892,0.31705892
20231225 03:49:18,-0.129663,-0.164166,-0.130388,-0.135446,0.150299,0.270246,20.623638,43.439896,-16.890739,-23.7372,-0.1659717,-0.16467753,-0.13013256,-0.035551287,0.14883511,0.33561563
20231225 03:49:18,-0.231262,-0.311419,0.228738,-0.146099,0.167345,0.242546,20.870392,42.698875,-16.438011,-24.170414,-0.1432013,-0.31661198,0.15151522,-0.060913324,0.16343825,0.32145756
20231225 03:49:18,-0.289443,-0.293130,0.534261,-0.120531,0.134319,0.221240,21.100258,43.093559,-16.461479,-24.255665,-0.1007597,-0.30054718,0.44026512,-0.043735847,0.13120104,0.28200048
20231225 03:49:18,-0.264740,-0.138691,0.613329,-0.061937,0.086378,0.218043,20.703285,42.969322,-16.457314,-24.010601,-0.04552503,-0.14363533,0.56315047,0.013677213,0.08494371,0.24159354
20231225 03:49:18,-0.175564,-0.042060,0.449880,0.004115,0.077855,0.228697,20.676388,42.684265,-16.438988,-24.260773,-0.005918309,-0.043075312,0.42952186,0.08426917,0.07761378,0.22364853
20231225 03:49:18,-0.102103,0.065778,0.206569,0.057382,0.117273,0.246808,20.807640,42.033737,-16.395210,-24.900335,-0.019356258,0.06694224,0.23750222,0.14392884,0.117522,0.23335041
20231225 03:49:18,-0.023895,0.087012,-0.014524,0.089343,0.190782,0.263853,21.010609,42.143368,-16.400352,-25.101389,-0.027275667,0.08715627,0.030861434,0.18040037,0.19089317,0.26490045
20231225 03:49:18,0.014892,0.011077,-0.023050,0.098931,0.267487,0.268115,21.407581,42.267605,-16.404503,-25.528296,0.0057239765,0.010803809,-0.020288983,0.1893571,0.2675087,0.29829678
20231225 03:49:18,-0.004923,-0.080832,0.129703,0.099996,0.306905,0.259592,21.292458,42.166206,-16.532997,-25.278038,0.039435007,-0.08061457,0.07949317,0.18291302,0.30687743,0.30984068
20231225 03:49:18,-0.078318,-0.175899,0.338880,0.108519,0.294121,0.240416,21.240471,42.538055,-16.423820,-24.851362,0.039041147,-0.17713016,0.24632803,0.18154648,0.29426378,0.28633398
20231225 03:49:18,-0.092808,-0.170913,0.415082,0.121303,0.230200,0.221240,21.679699,42.579201,-17.091988,-25.16473,0.052264564,-0.17246,0.31658316,0.18798578,0.23046845,0.24012852
20231225 03:49:18,-0.098792,-0.122614,0.388732,0.138349,0.154560,0.210586,21.750381,42.013615,-16.652443,-25.681265,0.04324007,-0.122872874,0.31298476,0.20312215,0.1546239,0.19227904
20231225 03:49:18,0.031046,0.022677,0.176690,0.154329,0.106620,0.218043,21.592621,42.187195,-16.397423,-25.760138,0.094451554,0.023127194,0.14542592,0.22466196,0.105842434,0.168179
20231225 03:49:18,0.145543,0.128652,-0.099753,0.162852,0.108750,0.237220,21.865891,41.923126,-16.243477,-26.572086,0.096984,0.12335953,-0.08564219,0.24335098,0.10694157,0.17722204
20231225 03:49:18,0.320215,0.144801,-0.333534,0.159656,0.165214,0.260657,21.820679,41.639915,-16.493385,-26.902327,0.1662009,0.12601113,-0.33900467,0.25190577,0.16310337,0.21987188
20231225 03:49:18,0.421347,0.071457,-0.357747,0.142610,0.237658,0.277703,21.865891,41.923126,-16.243477,-27.026411,0.25296956,0.04347279,-0.42626193,0.24314845,0.23600972,0.27317172
20231225 03:49:18,0.507717,-0.027416,-0.275693,0.121303,0.297317,0.277703,22.042347,41.555809,-15.949821,-27.574862,0.36915785,-0.062464558,-0.4267561,0.22202945,0.29615548,0.31161684
20231225 03:49:18,0.531249,-0.179709,-0.051732,0.102127,0.329277,0.260657,22.269638,41.392307,-16.606728,-27.689726,0.4767264,-0.20832714,-0.30580822,0.19257715,0.32846862,0.32443625
20231225 03:49:18,0.502922,-0.329958,0.215178,0.088277,0.322885,0.229762,22.358253,41.016762,-16.179420,-27.84209,0.54063,-0.3483693,-0.13211374,0.16414769,0.3221934,0.30488425
20231225 03:49:18,0.418085,-0.398755,0.406240,0.088277,0.282402,0.194606,22.110075,40.623917,-16.424187,-27.590195,0.5210685,-0.40856048,0.03254673,0.14921862,0.28138638,0.25915003
20231225 03:49:18,0.371999,-0.423842,0.449808,0.095735,0.231265,0.164776,22.763805,41.427902,-16.470161,-27.70241,0.49284905,-0.4300076,0.07059005,0.14599572,0.23000333,0.20902549
20231225 03:49:18,0.299466,-0.414135,0.429339,0.103192,0.189717,0.149861,22.400122,41.125557,-17.123909,-27.22371,0.41986787,-0.4173053,0.08428258,0.14778407,0.18855146,0.17443043
20231225 03:49:18,0.213214,-0.369437,0.383520,0.101062,0.162018,0.149861,22.516012,40.843178,-16.434471,-27.448088,0.32571554,-0.37060404,0.090278,0.14566913,0.16124956,0.16275738
20231225 03:49:18,0.170945,-0.363009,0.355069,0.096800,0.141776,0.165841,22.446098,41.024990,-16.313057,-27.222992,0.27654928,-0.3635303,0.08528185,0.14643273,0.14131384,0.16879511
20231225 03:49:18,0.172015,-0.363081,0.348054,0.087212,0.125796,0.183952,22.991480,41.072517,-16.846611,-27.675755,0.27429032,-0.36365902,0.07615475,0.14272575,0.12550926,0.18100744
20231225 03:49:18,0.187640,-0.440361,0.338329,0.076559,0.114077,0.202063,22.533558,41.225105,-16.727165,-27.325596,0.2833576,-0.4416838,0.033022523,0.13807754,0.11389615,0.19505937
20231225 03:49:18,0.307815,-0.496863,0.416110,0.074428,0.100228,0.204194,22.754074,41.716663,-17.024986,-27.440866,0.41744575,-0.50131786,0.03769526,0.13507238,0.099979304,0.19300981
20231225 03:49:18,0.349021,-0.545139,0.487975,0.087212,0.076790,0.183952,22.674158,40.477707,-16.409035,-28.18913,0.4763509,-0.5510113,0.05693093,0.14030834,0.07584731,0.16199017
20231225 03:49:18,0.394886,-0.537507,0.516498,0.117042,0.037372,0.154123,22.964972,40.595570,-16.547798,-28.540888,0.52967316,-0.5458032,0.06342578,0.15983972,0.034761086,0.108915195
20231225 03:49:18,0.418231,-0.514329,0.408449,0.153264,-0.004176,0.125358,22.610250,40.388237,-17.207664,-28.204765,0.52040565,-0.5249655,-0.024006486,0.18537088,-0.008564628,0.053378873
20231225 03:49:18,0.408012,-0.421305,0.204172,0.185224,-0.040398,0.099790,22.673773,40.669594,-16.689507,-28.19023,0.44690537,-0.43429092,-0.15585731,0.20744221,-0.046327315,0.0022096708
20231225 03:49:18,0.431489,-0.308564,-0.050158,0.199074,-0.060640,0.078483,22.470804,40.559971,-16.684380,-28.139833,0.38004887,-0.32829788,-0.33108294,0.2129096,-0.06810947,-0.033012763
20231225 03:49:18,0.451409,-0.257734,-0.268890,0.196943,-0.075555,0.061437,22.637531,40.481407,-16.945518,-28.40237,0.316069,-0.28434333,-0.49997878,0.2042596,-0.083796695,-0.055604383
20231225 03:49:18,0.451389,-0.138302,-0.441713,0.185224,-0.081947,0.047588,22.522022,40.571899,-17.354485,-28.257486,0.24419676,-0.1707154,-0.59314907,0.18750355,-0.09031456,-0.06832608
20231225 03:49:18,0.453671,-0.107199,-0.555491,0.161786,-0.089404,0.031608,22.231592,40.262150,-16.935249,-28.261217,0.19422495,-0.1446286,-0.675616,0.15894844,-0.09728389,-0.07742859
20231225 03:49:18,0.458061,-0.046371,-0.599531,0.137283,-0.096862,0.014562,22.567999,40.471333,-16.543648,-28.664864,0.17630692,-0.08814737,-0.68656135,0.12898733,-0.104249164,-0.08624623
20231225 03:49:18,0.457503,0.049075,-0.624830,0.113846,-0.108581,-0.001418,22.416632,40.181740,-16.928154,-28.642298,0.15913537,0.005173402,-0.6672932,0.100093625,-0.11510862,-0.09569656
20231225 03:49:18,0.432838,0.119057,-0.645715,0.089343,-0.114973,-0.014202,22.018890,40.441280,-17.484947,-27.912205,0.12385666,0.078919426,-0.6493315,0.072133005,-0.119991004,-0.097844385
20231225 03:49:18,0.387626,0.133072,-0.598539,0.065905,-0.113907,-0.025921,22.028622,40.152519,-16.930107,-28.185436,0.101148665,0.09591619,-0.5852362,0.045766994,-0.11800777,-0.097363666
20231225 03:49:18,0.367262,0.191569,-0.571926,0.045663,-0.107515,-0.031248,22.089575,39.875694,-17.045418,-28.209581,0.09244515,0.16047367,-0.5307137,0.025499608,-0.11028297,-0.09035626
20231225 03:49:18,0.343751,0.212831,-0.522872,0.029683,-0.097927,-0.036575,21.685825,40.406513,-16.682167,-27.644156,0.09327394,0.18244909,-0.47626203,0.00891538,-0.10016055,-0.083060294
20231225 03:49:18,0.293136,0.220984,-0.456255,0.016899,-0.081947,-0.044032,21.746391,40.321571,-17.077934,-27.55843,0.07714632,0.19736041,-0.39799902,-0.0050979313,-0.08356839,-0.07685855
20231225 03:49:18,0.221372,0.185046,-0.379403,0.007311,-0.065967,-0.050424,21.401020,40.017376,-17.463432,-27.040794,0.045192912,0.1702823,-0.32322857,-0.015607802,-0.06703965,-0.07106663
20231225 03:49:18,0.128856,0.171819,-0.297041,-0.000146,-0.051052,-0.054686,21.130322,40.839630,-16.983894,-26.183157,-0.0034906194,0.16482404,-0.22696824,-0.023358876,-0.051678948,-0.06512384
20231225 03:49:18,0.022847,0.152611,-0.240024,-0.008669,-0.037202,-0.056816,21.633068,41.162140,-17.133934,-26.247904,-0.07667345,0.15067372,-0.14413555,-0.031469785,-0.037445143,-0.05791118
20231225 03:49:18,-0.054024,0.146044,-0.111084,-0.011865,-0.028680,-0.054686,21.297817,40.377293,-16.684120,-26.152212,-0.09392473,0.14607154,-0.010465592,-0.03305576,-0.028758705,-0.051651128
20231225 03:49:18,-0.145694,0.106811,-0.055273,-0.015061,-0.024418,-0.053620,21.315361,40.759220,-16.976814,-25.704344,-0.1557681,0.106468275,0.055146348,-0.03523963,-0.02439447,-0.047947537
20231225 03:49:18,-0.238061,0.096972,0.006886,-0.013996,-0.025483,-0.048294,21.518715,40.676960,-16.701485,-25.814611,-0.21594556,0.0943008,0.13951635,-0.032003034,-0.025403658,-0.044432957
20231225 03:49:18,-0.298583,0.117998,0.037101,-0.020388,-0.032941,-0.037640,21.280922,41.513000,-17.160332,-24.997875,-0.25979105,0.11336992,0.1956042,-0.033492,-0.0329957,-0.035923894
20231225 03:49:18,-0.352331,0.098971,0.033429,-0.028911,-0.040398,-0.026987,21.008423,41.393288,-16.753319,-24.683619,-0.311485,0.09100714,0.20489477,-0.036834374,-0.040762093,-0.02662758
20231225 03:49:18,-0.410793,0.062492,0.057570,-0.047022,-0.042529,-0.014202,21.272724,41.034199,-16.593269,-25.007116,-0.35579395,0.050315037,0.23383358,-0.048307765,-0.04365179,-0.009867557
20231225 03:49:18,-0.433424,0.054319,0.123396,-0.069394,-0.046790,-0.001418,20.751663,40.713543,-16.711510,-24.611273,-0.3525518,0.041455727,0.29199865,-0.06401888,-0.04859196,0.0076904288
20231225 03:49:18,-0.411893,0.029316,0.222686,-0.082178,-0.060640,0.002843,21.051441,40.926422,-16.856377,-24.912174,-0.296421,0.018236453,0.3549586,-0.07436222,-0.062455293,0.010042635
20231225 03:49:18,-0.356579,0.043473,0.284481,-0.077917,-0.072359,0.003908,20.920578,41.385059,-16.619682,-24.72069,-0.22163248,0.035128847,0.39158505,-0.07002661,-0.07374482,0.0049910317
20231225 03:49:18,-0.343412,0.047006,0.298151,-0.059806,-0.074489,0.004974,20.778557,40.998600,-16.729851,-24.795185,-0.20386371,0.040222704,0.39949334,-0.052929934,-0.07537889,-0.0018661288
20231225 03:49:18,-0.283207,0.067353,0.284180,-0.026780,-0.073424,0.002843,20.753849,41.463619,-16.358528,-24.710085,-0.15255174,0.06281512,0.373173,-0.023285314,-0.07373428,-0.01565805
20231225 03:49:18,-0.261163,0.072641,0.203296,0.010507,-0.055313,0.000712,20.893684,41.100002,-16.601341,-25.012789,-0.1615919,0.069286674,0.29972607,0.010179843,-0.05521168,-0.025038572
20231225 03:49:18,-0.275648,0.147807,0.122516,0.043533,-0.031876,0.003908,20.592751,41.462791,-17.297874,-24.30376,-0.20491207,0.1434191,0.2679992,0.041672025,-0.03131595,-0.026103392
20231225 03:49:18,-0.294959,0.192955,0.077518,0.064840,-0.013765,0.013497,21.157600,40.932800,-16.721779,-25.193644,-0.24022995,0.1876764,0.25805303,0.064888194,-0.012822635,-0.0202614
20231225 03:49:18,-0.293879,0.197759,0.036248,0.081885,-0.005242,0.028412,20.717609,41.275433,-16.614540,-24.690504,-0.25482705,0.19396225,0.22504744,0.08639056,-0.004397319,-0.011709975
20231225 03:49:18,-0.217055,0.189252,-0.051020,0.089343,0.000085,0.038000,20.824535,40.898037,-15.918999,-25.280712,-0.21934767,0.18814051,0.12075548,0.097066194,4.9722596E-4,-0.00532306
20231225 03:49:19,-0.165144,0.208877,-0.124919,0.084016,0.001150,0.043326,20.903030,41.003132,-16.326988,-25.389614,-0.20197786,0.20896953,0.047224633,0.09441708,0.0010951557,0.001262214
20231225 03:49:19,-0.126160,0.193542,-0.178848,0.070166,0.002216,0.046522,21.175529,41.122841,-16.734001,-25.605944,-0.18885621,0.19369781,-0.018056884,0.083169274,0.0020413694,0.009797722
20231225 03:49:19,-0.099719,0.198796,-0.227816,0.044598,0.000085,0.052915,21.308586,41.414280,-16.617729,-25.745714,-0.18520264,0.1987457,-0.06617874,0.06265488,-7.7062985E-5,0.024644129
20231225 03:49:19,-0.064864,0.161322,-0.213012,0.017964,-0.003111,0.061437,21.378502,41.232468,-16.739143,-25.97008,-0.14600094,0.16092202,-0.083377026,0.04167237,-0.0029907036,0.041676614
20231225 03:49:19,-0.005197,0.098707,-0.201941,-0.007604,-0.011634,0.063568,21.572887,41.055187,-16.457695,-26.359812,-0.08593859,0.09745979,-0.12324686,0.018731125,-0.011108359,0.050430693
20231225 03:49:19,0.038837,0.024893,-0.128210,-0.022519,-0.015895,0.058241,21.263374,41.131073,-16.867638,-26.1065,-0.015402425,0.022731964,-0.11101457,0.002481563,-0.014801279,0.05052954
20231225 03:49:19,0.069914,0.002982,-0.084368,-0.024649,-0.021222,0.049718,21.448414,41.050659,-16.860542,-26.399809,0.030455086,2.8010452E-4,-0.09598512,-0.0029875003,-0.020041646,0.04202072
20231225 03:49:19,0.048154,0.035801,-0.057868,-0.021453,-0.020157,0.044392,21.546375,40.578243,-16.158867,-26.81182,0.021465862,0.034073118,-0.05175156,-0.0021900777,-0.019196328,0.036549017
20231225 03:49:19,0.053501,0.041892,-0.064548,-0.013996,-0.005242,0.043326,21.732834,41.631687,-16.359764,-26.38678,0.02373359,0.040255077,-0.057270065,0.0043696407,-0.004585735,0.03903861
20231225 03:49:19,0.020270,0.030777,-0.082935,-0.012931,0.020327,0.047588,21.494392,40.950092,-16.049690,-26.529406,-0.014190499,0.029618738,-0.06352513,0.007287858,0.021008225,0.0525287
20231225 03:49:19,0.022600,-0.006430,-0.027647,-0.017192,0.036307,0.053980,21.317932,41.317410,-16.343376,-26.094522,0.009928843,-0.007111042,-0.034295127,0.005601991,0.037096173,0.066035904
20231225 03:49:19,0.004514,-0.044779,0.031228,-0.023584,0.038437,0.058241,21.572887,41.055187,-16.457695,-26.472422,0.015732946,-0.04459523,0.005658347,8.0982596E-4,0.039406016,0.07302198
20231225 03:49:19,0.043152,-0.145777,0.110065,-0.032107,0.021392,0.057176,21.810295,40.411041,-16.279320,-27.066113,0.080094256,-0.14571147,0.013156682,-0.008113489,0.022528209,0.06826597
20231225 03:49:19,0.070001,-0.156897,0.163655,-0.036368,-0.013765,0.052915,21.412941,40.478695,-16.555611,-26.722895,0.12426109,-0.15694246,0.04402642,-0.01414925,-0.012166942,0.05167993
20231225 03:49:19,0.156958,-0.122394,0.142907,-0.038499,-0.055313,0.048653,22.058090,40.995770,-16.315010,-27.419788,0.1973253,-0.12604845,0.00607951,-0.018176474,-0.05304777,0.030928105
20231225 03:49:19,0.227229,-0.109862,0.087128,-0.035303,-0.081947,0.044392,21.952316,40.797501,-16.169151,-27.70779,0.2409592,-0.11935147,-0.06237308,-0.017480588,-0.07912275,0.014542848
20231225 03:49:19,0.334884,-0.097846,-0.017238,-0.031042,-0.077686,0.035869,21.934002,40.799347,-16.437401,-27.871181,0.29999417,-0.118254684,-0.18519634,-0.016823778,-0.074746974,0.0076962207
20231225 03:49:19,0.416205,-0.062937,-0.043871,-0.018257,-0.052117,0.023085,21.879829,40.421120,-16.681190,-28.094727,0.36502892,-0.09130791,-0.22421956,-0.009350477,-0.050149795,0.0032192003
20231225 03:49:19,0.433038,-0.041738,-0.053058,-0.001212,-0.016961,0.008170,21.889175,40.324249,-16.406822,-28.214445,0.3775521,-0.071967706,-0.22905484,0.0015646818,-0.016606824,-2.8591743E-4
20231225 03:49:19,0.382361,-0.034116,-0.049731,0.013703,0.024588,-0.005680,22.310472,40.175362,-17.062782,-28.433361,0.33316502,-0.057357542,-0.20220686,0.011067078,0.023610549,9.3595916E-4
20231225 03:49:19,0.258556,-0.070402,0.006130,0.026487,0.053352,-0.017398,22.462223,40.273060,-16.397789,-28.30802,0.2399854,-0.08134465,-0.12474994,0.018776713,0.051844448,-9.0702996E-4
20231225 03:49:19,0.134803,-0.079001,0.118120,0.032879,0.060810,-0.026987,22.453259,40.178040,-16.391670,-28.047781,0.16832405,-0.081565164,0.011533216,0.021074597,0.059464168,-0.007928007
20231225 03:49:19,-0.019676,-0.099548,0.169211,0.035010,0.048026,-0.030183,22.347099,40.171661,-16.526283,-27.611742,0.044751577,-0.098060206,0.10357694,0.021407982,0.047230747,-0.017329011
20231225 03:49:19,-0.071095,-0.070379,0.236222,0.036075,0.025653,-0.029117,22.301891,39.888454,-16.776192,-27.592611,0.022268288,-0.06808209,0.19051866,0.022668676,0.024993006,-0.026434846
20231225 03:49:19,-0.074044,-0.074955,0.212355,0.044598,0.005412,-0.028052,22.522789,40.188122,-16.793556,-27.630686,0.010886915,-0.073005,0.16996217,0.030800214,0.0047323033,-0.037476454
20231225 03:49:19,-0.099915,-0.051670,0.149107,0.053121,-0.005242,-0.023791,22.240940,40.165279,-16.660896,-27.43823,-0.03566258,-0.049267378,0.13847326,0.03996377,-0.0061746733,-0.04204658
20231225 03:49:19,-0.033969,-0.017859,0.061146,0.064840,-0.002046,-0.022725,22.292543,39.985325,-17.050560,-27.59402,-0.007417541,-0.016756468,0.055560164,0.05072278,-0.0034103193,-0.044822887
20231225 03:49:19,-0.063351,0.040078,-0.020049,0.077624,0.013934,-0.019529,22.583742,39.911289,-16.908836,-27.915958,-0.06579637,0.04095639,0.026306516,0.06342649,0.01253663,-0.04089341
20231225 03:49:19,-0.026688,0.057987,-0.082935,0.088277,0.036307,-0.013137,21.904919,39.764214,-16.772026,-27.297167,-0.057445817,0.057823595,-0.03235285,0.07574572,0.034819547,-0.031028781
20231225 03:49:19,-0.050331,0.072635,-0.128162,0.088277,0.057614,-0.008876,22.468618,39.809895,-17.037346,-27.809988,-0.09750882,0.07252197,-0.05220227,0.0774751,0.056168605,-0.018440586
20231225 03:49:19,-0.081812,0.073109,-0.113346,0.078689,0.067202,-0.009941,22.583742,39.911289,-16.908836,-27.82666,-0.1203167,0.07349279,-0.027292937,0.06828126,0.066167936,-0.0112419
20231225 03:49:19,-0.088347,0.122065,-0.101624,0.069101,0.067202,-0.008876,22.565428,39.913139,-17.177086,-27.692436,-0.12165946,0.12248071,0.005819313,0.05971262,0.06647517,-0.0069606192
20231225 03:49:19,-0.095092,0.111734,-0.111842,0.059513,0.054418,-0.004614,22.344913,39.421585,-16.879250,-27.700949,-0.13235104,0.11204182,-0.0037583932,0.052507382,0.053985942,-0.0051714894
20231225 03:49:19,-0.124360,0.121392,-0.176659,0.044598,0.040568,0.002843,22.211090,39.513924,-17.556465,-27.363472,-0.18602106,0.12168648,-0.04045642,0.041890346,0.04027344,7.815829E-4
20231225 03:49:19,-0.107369,0.084997,-0.219654,0.026487,0.028849,0.010301,22.299704,39.138378,-17.129158,-27.814032,-0.18835753,0.08506413,-0.09622,0.028503139,0.028633628,0.009565601
20231225 03:49:19,-0.061306,0.050999,-0.279105,-0.000146,0.017130,0.017758,22.431990,39.813591,-17.573830,-27.508223,-0.1709578,0.050383136,-0.17863044,0.0072786305,0.017206486,0.021607444
20231225 03:49:19,-0.047755,0.003489,-0.298426,-0.032107,0.008608,0.025215,22.598715,39.735027,-17.834999,-27.650879,-0.16583547,0.0027217371,-0.22008069,-0.01892009,0.008993183,0.037175238
20231225 03:49:19,-0.049590,-0.011997,-0.238112,-0.063002,-0.000980,0.031608,22.256300,39.797131,-17.306557,-27.50632,-0.14148645,-0.012785919,-0.17832012,-0.04490781,1.1816896E-4,0.050651133
20231225 03:49:19,0.020651,-0.031681,-0.146956,-0.082178,-0.012699,0.035869,22.352726,40.092274,-17.726784,-27.55207,-0.040357415,-0.033489104,-0.14104345,-0.060990855,-0.01060441,0.056734428
20231225 03:49:19,0.057726,-0.004624,-0.088528,-0.092832,-0.022287,0.035869,21.814503,39.197792,-17.271828,-27.705076,0.017729469,-0.007399111,-0.09684077,-0.07120445,-0.01914415,0.05653964
20231225 03:49:19,0.162289,-0.074347,-0.114410,-0.094962,-0.013765,0.029477,21.841396,39.482853,-17.290169,-27.759954,0.10341712,-0.081938,-0.18856925,-0.07605842,-0.009856543,0.055286918
20231225 03:49:19,0.176738,-0.109559,-0.099479,-0.091766,0.012869,0.015627,22.168455,39.788902,-17.172935,-27.981258,0.12285537,-0.11753367,-0.19676457,-0.07839001,0.016487537,0.053781345
20231225 03:49:19,0.182223,-0.170678,-0.061158,-0.088570,0.039503,-0.001418,22.237602,39.990871,-17.855293,-27.886086,0.14293759,-0.17862777,-0.19278106,-0.081918426,0.04290871,0.04939178
20231225 03:49:19,0.173771,-0.192979,-0.002009,-0.084309,0.059744,-0.021660,22.328785,40.173512,-16.794533,-27.915892,0.15821218,-0.1986045,-0.14980024,-0.085560024,0.062198747,0.03935144
20231225 03:49:19,0.089932,-0.222405,0.082086,-0.076852,0.071463,-0.045098,21.940010,40.528069,-17.357414,-26.977942,0.111790165,-0.22359265,-0.058636814,-0.087398194,0.07272176,0.020801034
20231225 03:49:19,0.023618,-0.214242,0.179696,-0.064067,0.072529,-0.064274,21.648811,40.602100,-17.499138,-26.46046,0.08626525,-0.213509,0.052287668,-0.08266696,0.07310489,-1.15621835E-4
20231225 03:49:19,-0.034047,-0.160393,0.207288,-0.042760,0.062940,-0.075993,22.000961,40.251240,-17.472725,-26.860998,0.045079272,-0.15929991,0.11703901,-0.06777133,0.06305046,-0.020578332
20231225 03:49:19,-0.060433,-0.078944,0.185714,-0.019323,0.057614,-0.080254,22.036819,40.631317,-17.497185,-26.678833,0.014112826,-0.07783839,0.14366323,-0.048076913,0.057502355,-0.03511398
20231225 03:49:19,-0.034456,-0.022083,0.113519,0.004115,0.067202,-0.077058,21.994568,40.714409,-16.833168,-26.716581,0.01190054,-0.021436865,0.097684145,-0.025690552,0.066913076,-0.037219662
20231225 03:49:19,-0.041075,0.017750,0.010143,0.023291,0.083182,-0.072797,21.685055,40.790291,-17.243111,-26.375256,-0.033750515,0.018285716,0.031680986,-0.0066037904,0.08253319,-0.03512165
20231225 03:49:19,-0.027481,0.031758,-0.053062,0.030749,0.108750,-0.068535,21.445843,40.492474,-17.493996,-26.124538,-0.046091955,0.031794295,-0.020070355,0.0015589558,0.10826741,-0.024681177
20231225 03:49:19,-0.075786,0.073379,-0.055834,0.032879,0.132188,-0.065339,22.064098,40.724487,-17.235039,-26.473309,-0.091847286,0.07328464,0.01447342,0.0039071105,0.13230002,-0.012743581
20231225 03:49:19,-0.145088,0.123618,-0.001716,0.027553,0.139646,-0.058947,21.808762,41.178596,-17.401192,-25.761137,-0.134067,0.12216773,0.10613391,9.0285204E-4,0.14017165,-0.0041205883
20231225 03:49:19,-0.201613,0.135493,0.103203,0.017964,0.122600,-0.045098,21.870480,40.517990,-16.955544,-26.036674,-0.14440504,0.13107707,0.22025329,-0.002568923,0.12324747,0.0049788356
20231225 03:49:19,-0.250149,0.190902,0.158647,0.001984,0.091705,-0.025921,21.939625,40.719955,-17.637901,-25.773596,-0.1673204,0.18405624,0.30723298,-0.009428697,0.091963574,0.0143486485
20231225 03:49:19,-0.251891,0.187754,0.181797,-0.011865,0.052287,-0.007810,22.179222,40.825890,-17.106544,-26.142143,-0.16088964,0.18133098,0.32556832,-0.01442319,0.052111205,0.019414742
20231225 03:49:19,-0.215656,0.141135,0.201568,-0.022519,0.003281,0.007105,21.809143,40.986710,-17.120735,-25.846409,-0.11842124,0.13731337,0.30868423,-0.017850574,0.002958931,0.016138455
20231225 03:49:19,-0.118528,0.126908,0.074353,-0.035303,-0.027614,0.018823,21.754971,40.608475,-17.364510,-26.245783,-0.078652434,0.12703535,0.16006649,-0.024784427,-0.027577301,0.01845304
20231225 03:49:19,0.054733,0.121091,-0.034779,-0.043826,-0.041464,0.026281,21.297047,40.761070,-17.245064,-26.067505,0.036697786,0.12002085,-0.0021558832,-0.029650621,-0.040624455,0.022724323
20231225 03:49:19,0.167373,0.096895,-0.149425,-0.051283,-0.037202,0.027346,22.239788,40.740948,-17.502312,-27.211246,0.09363037,0.09141877,-0.14872111,-0.036222763,-0.03571208,0.02743099
20231225 03:49:19,0.226966,0.081248,-0.219956,-0.063002,-0.018026,0.020954,21.676476,40.503384,-16.956520,-27.06908,0.11979118,0.070537314,-0.23713978,-0.049402647,-0.015639119,0.0350546
20231225 03:49:19,0.254238,0.045722,-0.209293,-0.084309,0.000085,0.009235,21.411789,41.054356,-17.397026,-26.435377,0.15084708,0.03446939,-0.25431722,-0.07370016,0.0029588887,0.041121647
20231225 03:49:19,0.266691,0.005691,-0.119182,-0.101355,0.010738,-0.006745,21.994183,40.906300,-17.113640,-27.191156,0.19941469,-0.0051534483,-0.19903082,-0.09583484,0.014099341,0.038430884
20231225 03:49:19,0.227957,-0.056092,0.004245,-0.113073,0.005412,-0.023791,21.764320,40.511612,-17.090157,-26.947956,0.21178065,-0.061911218,-0.106860675,-0.11354735,0.0080763325,0.025743578
20231225 03:49:19,0.204281,-0.025923,0.103803,-0.116269,-0.011634,-0.038705,21.606560,40.685192,-16.835121,-26.774273,0.22802147,-0.03034353,-0.001820296,-0.122411326,-0.008880403,0.006876249
20231225 03:49:19,0.210492,-0.074255,0.156783,-0.109877,-0.029745,-0.053620,22.108923,41.199589,-17.265602,-26.950657,0.25301486,-0.078103125,0.019774683,-0.12226111,-0.02740935,-0.015788238
20231225 03:49:19,0.165953,-0.084841,0.164339,-0.096028,-0.038268,-0.068535,21.809143,40.986710,-17.120735,-26.650797,0.21432245,-0.086954445,0.039529994,-0.114913836,-0.036795713,-0.03722091
20231225 03:49:19,0.136535,-0.068015,0.198547,-0.080048,-0.036137,-0.079189,21.702984,40.980331,-17.255333,-26.452522,0.20012584,-0.06904594,0.08602673,-0.10403626,-0.035243474,-0.050937857
20231225 03:49:19,0.065654,-0.067441,0.173671,-0.056610,-0.023353,-0.084515,21.845387,41.174900,-16.864708,-26.475565,0.12556057,-0.06736899,0.091650635,-0.084284976,-0.023034887,-0.05857742
20231225 03:49:19,0.047042,-0.021881,0.152426,-0.029976,0.001150,-0.083450,21.508980,40.965721,-17.256310,-26.082321,0.10059668,-0.021720616,0.100406684,-0.059037082,0.0011094904,-0.05780438
20231225 03:49:19,0.007496,-0.009987,0.172726,-0.001212,0.033111,-0.079189,21.217400,41.231636,-17.678490,-25.562065,0.071403064,-0.009354307,0.13775262,-0.030554976,0.03279605,-0.05256466
20231225 03:49:19,0.013789,-0.041139,0.170145,0.026487,0.058679,-0.082385,21.606174,40.877083,-17.115593,-26.16209,0.07546426,-0.040757775,0.119996965,-0.0056062974,0.0582584,-0.054452624
20231225 03:49:19,-0.029738,-0.076520,0.185112,0.055252,0.074659,-0.093038,21.535877,41.250778,-17.274651,-25.725443,0.040735334,-0.076483294,0.13508926,0.016985856,0.0746261,-0.06818391
20231225 03:49:19,-0.049410,-0.045186,0.172380,0.075493,0.078921,-0.105822,21.774704,41.740486,-17.304237,-25.620277,0.018560756,-0.0457409,0.14451532,0.030409154,0.07947188,-0.085033804
20231225 03:49:19,-0.115475,0.003026,0.141644,0.089343,0.073594,-0.118607,21.341488,41.428059,-17.556099,-25.05994,-0.052518565,7.5435604E-4,0.16391271,0.036774103,0.07539282,-0.10464877
20231225 03:49:19,-0.218536,0.051231,0.097584,0.098931,0.067202,-0.128195,21.308201,41.606171,-16.898201,-24.86389,-0.16411477,0.045514237,0.1861769,0.04090415,0.070540115,-0.11951765
20231225 03:49:19,-0.289561,0.128970,0.090241,0.106388,0.058679,-0.128195,21.253643,41.419827,-17.422462,-24.483442,-0.23228642,0.11781165,0.23890173,0.04630341,0.064084865,-0.12685528
20231225 03:49:19,-0.388534,0.173917,0.009910,0.113846,0.048026,-0.118607,21.359802,41.426208,-17.287849,-24.40697,-0.3543381,0.15720403,0.23159224,0.05507628,0.0549786,-0.12677458
20231225 03:49:19,-0.418620,0.210161,-0.059268,0.118107,0.040568,-0.100496,21.314594,41.143002,-17.537758,-24.297367,-0.41012576,0.19156998,0.20253724,0.06521997,0.048168477,-0.11701132
20231225 03:49:19,-0.392659,0.250392,-0.164942,0.112780,0.040568,-0.071731,21.156448,41.508469,-17.563194,-24.05855,-0.43054864,0.23644832,0.12111376,0.07137254,0.0468308,-0.09185459
20231225 03:49:19,-0.339618,0.233748,-0.243092,0.101062,0.045895,-0.046163,21.289886,41.608021,-17.166451,-24.427095,-0.41429883,0.22531798,0.030063659,0.071435414,0.050313015,-0.063494086
20231225 03:49:19,-0.264285,0.237690,-0.296835,0.082951,0.052287,-0.030183,20.980759,41.492008,-17.295921,-24.269861,-0.3678416,0.23367216,-0.045856312,0.061857954,0.05522381,-0.04031878
20231225 03:49:19,-0.190262,0.186748,-0.317369,0.058448,0.056548,-0.021660,20.829391,41.202419,-17.680443,-24.29007,-0.30798328,0.18558818,-0.113006175,0.04331374,0.058238905,-0.021331504
20231225 03:49:19,-0.124303,0.155461,-0.293398,0.031814,0.060810,-0.019529,21.465191,41.816368,-17.714180,-24.76286,-0.23745401,0.15566218,-0.13057625,0.020077558,0.061678287,-0.006324121
20231225 03:49:19,-0.115982,0.148092,-0.251954,0.008376,0.061875,-0.020595,20.998688,41.682049,-17.308144,-24.48419,-0.21151915,0.14804229,-0.10450573,-0.0014906167,0.062206287,0.0027941708
20231225 03:49:19,-0.088958,0.126420,-0.228716,-0.010800,0.061875,-0.018464,21.137749,41.702202,-18.111900,-24.387365,-0.17644459,0.1266953,-0.10563695,-0.018046012,0.06180458,0.012404234
20231225 03:49:19,-0.085786,0.094970,-0.201884,-0.026780,0.066136,-0.016333,21.076801,41.979034,-17.996620,-24.288345,-0.16159004,0.095037445,-0.097248584,-0.031687748,0.06574484,0.022183457
20231225 03:49:19,-0.077700,0.046266,-0.121449,-0.036368,0.070398,-0.018464,21.226364,41.326656,-17.684593,-24.822853,-0.120173976,0.045806207,-0.052116126,-0.04127879,0.06986652,0.026282636
20231225 03:49:19,-0.081296,0.001563,-0.056899,-0.039564,0.072529,-0.022725,21.120590,41.128391,-17.538734,-24.719767,-0.09717076,2.6499853E-4,-0.014757972,-0.0460335,0.07182614,0.024531577
20231225 03:49:19,-0.100895,0.002834,0.034989,-0.041695,0.072529,-0.026987,21.395279,41.998177,-17.592781,-24.528585,-0.07918135,-2.0001395E-4,0.06987266,-0.049736083,0.07170763,0.021438157
20231225 03:49:19,-0.112800,0.011188,0.129913,-0.033172,0.072529,-0.031248,21.368382,41.713116,-17.574440,-24.65735,-0.05309702,0.006970682,0.1570913,-0.043524448,0.07200319,0.0146936625
20231225 03:49:19,-0.138960,0.058579,0.159907,-0.013996,0.070398,-0.026987,21.492474,41.909531,-17.452049,-24.567041,-0.065758795,0.05202193,0.2107371,-0.024416294,0.070279166,0.009845151
20231225 03:49:19,-0.148085,0.041820,0.123820,0.004115,0.079986,-0.014202,21.217400,41.231636,-17.678490,-24.455599,-0.08826477,0.03488535,0.17770618,-0.002957472,0.08027984,0.016951155
20231225 03:49:19,-0.166049,0.035609,0.136294,0.015834,0.092770,0.000712,21.368767,41.521229,-17.293968,-24.636787,-0.10061322,0.02846083,0.19231872,0.013621517,0.09320998,0.030087674
20231225 03:49:19,-0.126655,-0.014010,0.172513,0.027553,0.092770,0.012431,21.235714,41.229786,-17.410225,-24.632944,-0.050336465,-0.020103257,0.1880974,0.029023342,0.09340588,0.03550866
20231225 03:49:19,-0.109825,-0.016326,0.170778,0.031814,0.087443,0.017758,21.456612,41.529453,-17.427589,-24.894775,-0.03529212,-0.020641055,0.17894807,0.035328098,0.0879956,0.036546133
20231225 03:49:19,-0.020889,-0.030873,0.126657,0.033945,0.081051,0.022019,21.562771,41.535835,-17.292992,-25.174131,0.029818079,-0.032192893,0.101695895,0.039201975,0.08148002,0.037096016
20231225 03:49:19,0.044747,-0.059356,0.090449,0.028618,0.073594,0.020954,21.800179,40.891689,-17.114616,-25.83963,0.076459244,-0.05924727,0.034040432,0.03403421,0.07387154,0.036001045
20231225 03:49:19,0.080453,-0.096347,0.059458,0.021160,0.066136,0.014562,21.748192,41.263538,-17.005424,-25.61296,0.097726434,-0.095476456,-0.019835908,0.02470548,0.06635973,0.030401446
20231225 03:49:19,0.058429,-0.108366,0.078219,0.012638,0.058679,0.013497,21.693638,41.077198,-17.529701,-25.563421,0.08456185,-0.10798563,-3.8925558E-4,0.016497916,0.058771852,0.029797725
20231225 03:49:20,0.071427,-0.129028,0.113014,0.006246,0.049091,0.012431,21.651001,41.352180,-17.146156,-25.410557,0.11002199,-0.12859215,0.015933909,0.010175802,0.049101528,0.02746886
20231225 03:49:20,0.102443,-0.096935,0.184908,0.007311,0.034176,0.015627,21.923500,41.471886,-17.553169,-25.684912,0.16509211,-0.09661863,0.07675137,0.012508168,0.034184203,0.024000585
20231225 03:49:20,0.105184,-0.098338,0.160990,0.013703,0.019261,0.016693,21.492855,41.717644,-17.171593,-25.33983,0.15886638,-0.09811635,0.055475377,0.01898889,0.01929943,0.016339732
20231225 03:49:20,0.208466,-0.122050,0.090485,0.024357,0.017130,0.015627,21.563156,41.343948,-17.012520,-25.791742,0.2271156,-0.12236172,-0.052739143,0.028474484,0.017097704,0.010690001
20231225 03:49:20,0.272460,-0.153107,0.038046,0.032879,0.021392,0.006039,20.884716,41.004982,-16.595222,-25.475641,0.2657782,-0.15533201,-0.13320631,0.03276934,0.02112684,9.810003E-4
20231225 03:49:20,0.321980,-0.134837,-0.043805,0.042467,0.033111,-0.003549,21.633453,40.970253,-16.853447,-26.274157,0.2796436,-0.13838613,-0.21540296,0.0379645,0.032649025,-0.0057769325
20231225 03:49:20,0.320304,-0.134149,-0.100429,0.044598,0.050156,-0.013137,21.429718,41.244396,-17.409248,-25.806889,0.25631893,-0.13756974,-0.26077172,0.036287226,0.04967973,-0.007954891
20231225 03:49:20,0.313435,-0.124019,-0.085377,0.040337,0.061875,-0.023791,21.553806,41.440815,-17.286873,-25.873394,0.25559568,-0.12740396,-0.2418833,0.02826295,0.061383035,-0.010425772
20231225 03:49:20,0.291192,-0.125487,-0.044415,0.038206,0.062940,-0.033379,21.429333,41.436283,-17.689735,-25.547752,0.2510123,-0.12688975,-0.19963737,0.022412894,0.062702976,-0.01753934
20231225 03:49:20,0.210498,-0.131617,-0.013675,0.031814,0.056548,-0.044032,21.774704,41.740486,-17.304237,-25.662685,0.1891792,-0.13101128,-0.14499122,0.012353506,0.056688577,-0.026271518
20231225 03:49:20,0.147131,-0.091848,0.053953,0.024357,0.036307,-0.050424,21.526909,41.155758,-17.268532,-25.576103,0.15680878,-0.09095511,-0.04890531,0.0027236715,0.03663234,-0.036934316
20231225 03:49:20,0.106674,-0.064084,0.049331,0.016899,0.017130,-0.049359,21.729496,41.457275,-17.554146,-25.488863,0.11777265,-0.06310933,-0.026019394,-0.0037825555,0.017556643,-0.040829476
20231225 03:49:20,0.084230,-0.035886,0.037451,0.006246,0.003281,-0.050424,21.535877,41.250778,-17.274651,-25.446327,0.09233399,-0.035129864,-0.015970413,-0.013964366,0.0035856823,-0.04305626
20231225 03:49:20,0.136828,-0.047320,0.022617,-0.005473,-0.004176,-0.051490,21.738846,41.360409,-17.279793,-25.635458,0.13509104,-0.046066854,-0.053118147,-0.02498734,-0.0040173233,-0.04233507
20231225 03:49:20,0.138515,-0.067042,0.088202,-0.009735,-0.011634,-0.058947,21.350838,41.331188,-17.281746,-25.181776,0.16212185,-0.06576478,-0.0058860853,-0.031581286,-0.011447983,-0.050075296
20231225 03:49:20,0.106840,-0.057694,0.067533,-0.005473,-0.019091,-0.070666,21.414360,41.612549,-16.763588,-25.186516,0.124969974,-0.056576487,-0.0075343847,-0.032221686,-0.018748349,-0.06436764
20231225 03:49:20,0.053984,-0.046730,0.092148,0.003050,-0.023353,-0.075993,21.211006,41.694805,-17.038918,-24.760765,0.08592443,-0.046430074,0.038082577,-0.026530817,-0.022674955,-0.073777944
20231225 03:49:20,0.063520,-0.006215,0.078891,0.015834,-0.027614,-0.078123,21.526909,41.155758,-17.268532,-25.270308,0.08941279,-0.0056260764,0.038279004,-0.015830578,-0.026642332,-0.082042016
20231225 03:49:20,0.008636,0.013546,0.018872,0.029683,-0.027614,-0.078123,21.607594,42.010933,-17.323555,-24.894789,0.0152865425,0.013552522,0.017516447,-0.0034982506,-0.026193373,-0.08749364
20231225 03:49:20,-0.002552,0.032086,-0.020395,0.029683,-0.018026,-0.077058,21.280155,41.896774,-17.721275,-24.508007,-0.010756379,0.032219607,-0.0038025249,-0.0031738877,-0.016582258,-0.082999855
20231225 03:49:20,-0.015354,0.046034,-0.061530,0.021160,-0.016961,-0.074927,21.317165,41.701187,-16.904320,-24.810951,-0.039258383,0.046285383,-0.027272215,-0.010585802,-0.015726104,-0.07729438
20231225 03:49:20,-0.002118,0.098262,-0.022075,0.005180,-0.029745,-0.075993,21.668545,41.734108,-17.438850,-25.080414,-0.011775761,0.09839771,0.020667896,-0.02568343,-0.028915573,-0.07658414
20231225 03:49:20,0.004637,0.099319,-0.031477,-0.024649,-0.055313,-0.081319,21.147099,41.605339,-17.837547,-24.432543,-0.009425102,0.09973208,0.009521395,-0.05458413,-0.055027608,-0.0789032
20231225 03:49:20,-0.016737,0.070142,0.031417,-0.054479,-0.088339,-0.091973,21.447262,41.626324,-17.701958,-24.724716,-0.0036033047,0.06932555,0.059744805,-0.08564815,-0.08867809,-0.08873454
20231225 03:49:20,-0.026061,0.077062,0.054266,-0.077917,-0.122430,-0.104757,20.901497,41.770691,-17.448860,-24.11107,-0.0031920802,0.07566113,0.084684506,-0.11174323,-0.123265564,-0.102482036
20231225 03:49:20,-0.044718,0.087967,0.075881,-0.087505,-0.144802,-0.110084,21.404625,41.901306,-17.318413,-24.66345,-0.011646587,0.08597724,0.11473257,-0.12260037,-0.14574179,-0.11213005
20231225 03:49:20,-0.050631,0.125364,0.025991,-0.081113,-0.147998,-0.109018,20.725803,41.754227,-17.181602,-24.015997,-0.037416738,0.12366411,0.08879441,-0.116290405,-0.1488229,-0.11385968
20231225 03:49:20,-0.101144,0.116339,0.048141,-0.066198,-0.126692,-0.103692,21.219204,42.173603,-17.605980,-24.21872,-0.07485396,0.112853326,0.124453835,-0.100595124,-0.12721916,-0.10778818
20231225 03:49:20,-0.087475,0.084484,0.018816,-0.039564,-0.092600,-0.095169,21.465191,41.816368,-17.714180,-24.650293,-0.07365656,0.0819432,0.082908735,-0.07319706,-0.092513435,-0.098919004
20231225 03:49:20,-0.085242,0.109729,0.024290,-0.006539,-0.046790,-0.083450,20.715687,42.234875,-18.016914,-23.674694,-0.06967352,0.10734315,0.094782665,-0.038741153,-0.046045847,-0.08472333
20231225 03:49:20,-0.086513,0.079506,0.040525,0.031814,-0.002046,-0.071731,20.812881,42.146233,-17.876167,-23.74352,-0.06436426,0.076505505,0.097727016,8.319169E-4,-2.5727623E-4,-0.073647276
20231225 03:49:20,-0.074645,0.065051,0.083966,0.071232,0.027784,-0.064274,20.840160,42.239407,-17.614052,-23.797289,-0.036424447,0.06190592,0.12412158,0.039905608,0.030552331,-0.07176918
20231225 03:49:20,-0.084559,0.057035,0.106894,0.103192,0.046960,-0.058947,21.149288,42.355415,-17.484566,-24.072346,-0.036451075,0.053215493,0.144374,0.07113188,0.050673656,-0.07244694
20231225 03:49:20,-0.097919,0.036937,0.109349,0.126630,0.045895,-0.058947,21.173611,42.082283,-18.136360,-23.998762,-0.047428973,0.032275043,0.14420964,0.09253102,0.050733596,-0.08224532
20231225 03:49:20,-0.101875,0.008141,0.069978,0.136218,0.035241,-0.060012,21.200890,42.175453,-17.874214,-23.928024,-0.06579245,0.003299323,0.10223343,0.1005748,0.041146953,-0.09139014
20231225 03:49:20,-0.137437,0.043203,0.005589,0.129826,0.021392,-0.061078,21.052094,42.444054,-17.625298,-23.666689,-0.12430282,0.037774857,0.07586887,0.09393105,0.027409678,-0.09559431
20231225 03:49:20,-0.157071,0.076418,-0.081746,0.114911,0.011804,-0.057882,20.988190,42.354584,-18.423927,-23.449827,-0.1780353,0.07168027,0.02323924,0.08120059,0.017240068,-0.09100121
20231225 03:49:20,-0.118169,0.058400,-0.147139,0.095735,0.006477,-0.052555,21.024815,42.350883,-17.887428,-23.61367,-0.16902605,0.056338187,-0.053248607,0.06571696,0.011074303,-0.08077505
20231225 03:49:20,-0.141896,0.051688,-0.150712,0.080820,0.009673,-0.047228,21.155682,41.892242,-18.124138,-23.829754,-0.19205117,0.04861362,-0.04861968,0.05423686,0.013817313,-0.068942904
20231225 03:49:20,-0.165173,0.015572,-0.123595,0.071232,0.012869,-0.040836,21.218819,42.365494,-17.886452,-23.699177,-0.20130113,0.010814781,-0.030924693,0.04838651,0.016686376,-0.05829004
20231225 03:49:20,-0.169256,-0.007378,-0.050206,0.068036,0.007542,-0.033379,21.181808,42.561081,-18.703407,-23.393076,-0.17499992,-0.013697848,0.02315702,0.048753694,0.0110885035,-0.05265627
20231225 03:49:20,-0.169585,0.017596,-0.046772,0.073363,-0.005242,-0.023791,21.067070,42.267792,-18.551445,-23.483673,-0.1742897,0.011500971,0.03591581,0.057532214,-0.001810463,-0.051587388
20231225 03:49:20,-0.147838,0.046379,-0.078638,0.076559,-0.011634,-0.011006,21.182575,42.177299,-18.142479,-23.724962,-0.16794401,0.041731797,0.01244586,0.06541008,-0.008278884,-0.045042083
20231225 03:49:20,-0.108289,0.038610,-0.142854,0.076559,-0.012699,0.003908,20.722847,41.387928,-18.095512,-23.716846,-0.15833452,0.03701949,-0.06003078,0.071504325,-0.009991207,-0.033113535
20231225 03:49:20,-0.091199,0.033631,-0.203801,0.064840,-0.005242,0.016693,21.446877,41.818214,-17.982430,-24.258068,-0.16766468,0.033643633,-0.11904456,0.06603584,-0.0030488407,-0.014848999
20231225 03:49:20,-0.078692,-0.005339,-0.183845,0.042467,0.000085,0.023085,21.437912,41.723194,-17.976326,-24.431154,-0.14670947,-0.0052221906,-0.122744165,0.048182797,0.0011412845,0.0018997937
20231225 03:49:20,-0.057114,-0.028600,-0.126842,0.022226,-0.007373,0.022019,21.262222,41.706734,-17.709053,-24.39214,-0.10306594,-0.02861782,-0.0934223,0.02931785,-0.00699349,0.006585245
20231225 03:49:20,-0.018014,-0.049906,-0.042334,0.010507,-0.021222,0.012431,21.243526,41.900475,-18.257759,-24.211876,-0.03291624,-0.04986477,-0.04680918,0.014887274,-0.021069642,-0.0018229363
20231225 03:49:20,0.008185,-0.047367,-0.024678,-0.000146,-0.035072,0.004974,20.970642,41.972656,-18.131218,-24.007017,-0.0018586386,-0.046871603,-0.041592784,0.002242873,-0.035116777,-0.00885262
20231225 03:49:20,0.006816,-0.048729,0.006103,-0.005473,-0.051052,-0.003549,20.810696,41.396156,-18.229149,-24.087034,0.009226611,-0.048612572,-0.015850157,-0.0058925482,-0.051128436,-0.019792784
20231225 03:49:20,0.016247,-0.014378,-0.027387,-0.007604,-0.060640,-0.007810,21.173996,41.890396,-17.855888,-24.37604,0.0038263574,-0.01373134,-0.034820043,-0.009515023,-0.06071438,-0.02625397
20231225 03:49:20,0.025130,0.007797,-0.065283,-0.005473,-0.057444,-0.009941,21.165031,41.795372,-17.849770,-24.451097,-0.004050387,0.008935808,-0.061562885,-0.008537995,-0.0574493,-0.02765983
20231225 03:49:20,0.012965,0.052951,-0.081071,-0.001212,-0.045725,-0.005680,21.128784,41.607189,-18.105797,-24.438906,-0.02236395,0.053979874,-0.05259796,-0.003024662,-0.045684237,-0.021410272
20231225 03:49:20,0.032695,0.111325,-0.082269,-0.001212,-0.039333,-0.001418,21.271191,41.801758,-17.715157,-24.576992,-0.0055744443,0.11279472,-0.039531514,-0.0013079334,-0.03933417,-0.015544729
20231225 03:49:20,0.026329,0.124177,-0.064579,-0.009735,-0.042529,0.004974,21.350067,41.714966,-17.842674,-24.743488,-0.0041211396,0.1251815,-0.01706966,-0.0064049903,-0.042741276,-0.0079981685
20231225 03:49:20,0.076013,0.113948,-0.047559,-0.027846,-0.060640,0.008170,21.031975,41.503937,-17.966057,-24.60851,0.04873374,0.11523086,-0.02771495,-0.021577561,-0.061052,-0.0046601654
20231225 03:49:20,0.080194,0.093905,-0.060188,-0.054479,-0.087274,0.001778,21.279770,42.088665,-18.001747,-24.683252,0.0476192,0.09498951,-0.047308255,-0.048444595,-0.0878283,-0.009129057
20231225 03:49:20,0.113592,0.067054,-0.070362,-0.067263,-0.095796,-0.002484,21.360069,43.135727,-18.337227,-24.405777,0.074155405,0.06763931,-0.08012668,-0.062082816,-0.096061766,-0.010248076
20231225 03:49:20,0.188932,0.057370,-0.023932,-0.109877,-0.123495,-0.018464,21.147751,43.122971,-18.606468,-24.106455,0.16225173,0.05846199,-0.076218516,-0.10744946,-0.12404891,-0.016176507
20231225 03:49:20,0.152112,0.049977,-0.018746,-0.125858,-0.126692,-0.026987,21.273643,44.261353,-18.411568,-23.893713,0.13110642,0.050269343,-0.059369832,-0.12578575,-0.12689866,-0.01787992
20231225 03:49:20,0.170412,0.029727,0.011926,-0.130119,-0.114973,-0.033379,20.909691,42.249485,-18.015938,-24.439985,0.16072786,0.029986586,-0.047535732,-0.1324497,-0.115154296,-0.01886027
20231225 03:49:20,0.173665,0.024269,0.037213,-0.123727,-0.088339,-0.038705,21.094730,42.169071,-18.008842,-24.74372,0.17409444,0.024021704,-0.0290521,-0.12895022,-0.088171296,-0.016718518
20231225 03:49:20,0.124699,-0.024609,0.088410,-0.107747,-0.060640,-0.044032,20.837589,41.681217,-18.247490,-24.417698,0.14946443,-0.02394849,0.0157746,-0.11618653,-0.061312612,-0.017671041
20231225 03:49:20,0.037162,-0.055162,0.141937,-0.087505,-0.022287,-0.048294,20.943748,41.687599,-18.112877,-24.319288,0.08933874,-0.055529155,0.08409081,-0.099192366,-0.023431672,-0.01538625
20231225 03:49:20,-0.045371,-0.061229,0.273438,-0.052349,0.008608,-0.048294,20.864483,41.966274,-18.265831,-23.993065,0.06226773,-0.0645133,0.22531158,-0.06682682,0.007923494,-0.017721508
20231225 03:49:20,-0.084131,-0.070480,0.380975,-0.003343,0.028849,-0.042967,21.173996,41.890396,-17.855888,-24.23439,0.06535994,-0.07735303,0.32680875,-0.019514302,0.02924171,-0.024099432
20231225 03:49:20,-0.163217,-0.084128,0.403495,0.049925,0.046960,-0.031248,21.052479,42.252167,-17.344826,-23.98977,9.0527534E-4,-0.09447313,0.3712314,0.03397598,0.04892514,-0.02747861
20231225 03:49:20,-0.176175,-0.069144,0.399454,0.098931,0.060810,-0.022725,21.040939,41.598957,-17.972160,-24.08063,-0.010903299,-0.080496125,0.378137,0.082123354,0.06440171,-0.033709347
20231225 03:49:20,-0.150399,-0.068095,0.331038,0.131957,0.060810,-0.015268,20.961678,41.877632,-18.125114,-23.901918,-0.011156827,-0.077013955,0.31170428,0.115233,0.065078825,-0.04073581
20231225 03:49:20,-0.196795,-0.086338,0.245829,0.144741,0.053352,-0.007810,21.058487,41.980885,-18.264854,-23.658627,-0.084813684,-0.09871961,0.2518716,0.12949055,0.05944925,-0.04291634
20231225 03:49:20,-0.190923,-0.053023,0.193206,0.143676,0.036307,-0.002484,21.041325,41.407066,-17.691689,-24.104763,-0.09884418,-0.06331923,0.21728577,0.13055459,0.04174853,-0.04491121
20231225 03:49:20,-0.199314,-0.041348,0.138781,0.133022,0.011804,0.002843,20.971409,41.588879,-17.570290,-24.024775,-0.12732765,-0.05064238,0.1799568,0.12305642,0.01653525,-0.045961007
20231225 03:49:20,-0.160249,-0.009690,0.037582,0.126630,0.001150,0.002843,20.871647,41.119328,-18.344460,-23.927214,-0.13166378,-0.01614273,0.09202533,0.117160946,0.0057345764,-0.04787989
20231225 03:49:20,-0.151586,0.003476,-0.024830,0.107454,-0.015895,0.010301,20.898540,41.404385,-18.362801,-23.796339,-0.14858048,-0.0018056335,0.04236784,0.10257326,-0.012017706,-0.04107988
20231225 03:49:20,-0.153409,-0.005960,-0.067624,0.090408,-0.023353,0.016693,21.040939,41.598957,-17.972160,-23.942152,-0.16751993,-0.010612353,0.0046062768,0.089659974,-0.020191308,-0.03194195
20231225 03:49:20,-0.182174,0.028619,-0.077128,0.079755,-0.027614,0.027346,20.986771,41.220726,-18.215950,-23.936256,-0.198259,0.02270931,0.021292895,0.08442913,-0.024896834,-0.020248257
20231225 03:49:20,-0.182769,0.025922,-0.101127,0.072297,-0.028680,0.040130,20.785988,41.861176,-17.857841,-23.473738,-0.20866258,0.020068178,2.9662251E-4,0.08294759,-0.02634618,-0.006696347
20231225 03:49:20,-0.214208,0.031926,-0.084620,0.068036,-0.028680,0.047588,20.811077,41.204269,-17.948692,-23.806562,-0.23060077,0.02475825,0.029369257,0.08209939,-0.026764007,0.001120951
20231225 03:49:20,-0.152416,-0.018486,-0.047603,0.071232,-0.030810,0.061437,20.440998,41.365089,-17.962868,-23.453571,-0.158259,-0.023259034,0.015587829,0.09058051,-0.029187065,0.011204563
20231225 03:49:20,-0.131661,-0.044140,-0.129064,0.079755,-0.031876,0.071025,20.535236,40.910152,-18.736061,-23.58402,-0.1722008,-0.046747006,-0.070153385,0.102326974,-0.030136343,0.015115052
20231225 03:49:20,-0.148883,-0.074851,-0.163829,0.090408,-0.016961,0.076352,20.553936,40.716412,-18.187325,-23.797026,-0.20186166,-0.077513054,-0.10279279,0.114085265,-0.014914155,0.020185485
20231225 03:49:20,-0.159435,-0.047467,-0.163038,0.085081,-0.008438,0.082744,20.617458,40.997768,-17.669182,-23.78458,-0.21180436,-0.050778527,-0.08697766,0.111869395,-0.006562388,0.030478075
20231225 03:49:20,-0.177894,-0.006207,-0.135030,0.072297,-0.008438,0.092332,20.562134,41.195210,-18.754402,-23.433119,-0.21778688,-0.010570195,-0.040910363,0.10426569,-0.0072998023,0.043914415
20231225 03:49:20,-0.196228,-0.019746,-0.127751,0.058448,-0.013765,0.099790,20.526657,40.623241,-18.449471,-23.754168,-0.23124686,-0.024675764,-0.031758852,0.09490706,-0.01329744,0.053634275
20231225 03:49:20,-0.151211,-0.041342,-0.106871,0.045663,-0.021222,0.105117,20.350967,40.606781,-18.182198,-23.764284,-0.18124464,-0.044528212,-0.041765653,0.085289955,-0.021272969,0.060953785
20231225 03:49:20,-0.138710,-0.042351,-0.074987,0.040337,-0.026549,0.105117,20.332268,40.800522,-18.730919,-23.558254,-0.15668048,-0.045521278,-0.02096996,0.080372885,-0.026751598,0.061537966
20231225 03:49:20,-0.098676,-0.021171,-0.065310,0.032879,-0.042529,0.100855,20.869457,40.369251,-18.697426,-24.388493,-0.116600424,-0.023076277,-0.021115936,0.07229235,-0.04287419,0.05394711
20231225 03:49:20,-0.076632,-0.016666,-0.103200,0.026487,-0.046790,0.102986,20.384254,40.428673,-18.840096,-23.821768,-0.11267102,-0.017449833,-0.059576854,0.06788421,-0.047350798,0.057212565
20231225 03:49:20,-0.085930,-0.016757,-0.185584,0.026487,-0.046790,0.105117,20.721046,40.445965,-18.168022,-24.436577,-0.15566635,-0.016754197,-0.12359912,0.068641834,-0.047291372,0.058182802
20231225 03:49:20,-0.020950,0.009926,-0.188809,0.019030,-0.029745,0.111509,20.736790,39.885925,-18.533211,-24.635174,-0.09853503,0.0114315925,-0.14312041,0.06448361,-0.030475944,0.072692946
20231225 03:49:20,-0.047614,-0.001045,-0.166043,0.013703,-0.010569,0.114705,20.912861,39.710491,-18.520012,-24.959885,-0.11303602,-4.3905817E-4,-0.11692308,0.060786806,-0.0113797905,0.08452461
20231225 03:49:20,-0.046598,-0.011602,-0.086913,0.008376,0.008608,0.116835,21.091125,40.285141,-18.153831,-25.085857,-0.07825436,-0.011718247,-0.056905434,0.0558324,0.007869292,0.096221074
20231225 03:49:20,-0.014946,-0.040465,-0.050385,0.006246,0.004346,0.115770,21.054497,40.288841,-18.690331,-25.04619,-0.03412201,-0.040367585,-0.051078096,0.053274047,0.0037921504,0.09471345
20231225 03:49:20,0.023817,-0.038157,0.007358,0.008376,-0.009503,0.110443,21.213024,39.731483,-18.384438,-25.579979,0.024910903,-0.037943076,-0.01877999,0.053189695,-0.009932702,0.083574146
20231225 03:49:20,0.048266,-0.029098,-0.016365,0.007311,-0.022287,0.104051,21.291138,40.028473,-19.072884,-25.445826,0.03729621,-0.028668065,-0.044781752,0.049718123,-0.022593506,0.073824674
20231225 03:49:20,0.071960,-0.033849,-0.060907,-0.003343,-0.028680,0.099790,21.406643,39.937984,-18.663933,-25.787663,0.04026872,-0.03342145,-0.09315421,0.038418937,-0.028888525,0.07178752
20231225 03:49:20,0.130639,-0.025693,-0.079179,-0.018257,-0.027614,0.094463,21.267200,40.109711,-18.140633,-25.846378,0.08609775,-0.026082084,-0.12915394,0.022468392,-0.027471058,0.07398458
20231225 03:49:20,0.167579,-0.030470,-0.099954,-0.026780,-0.016961,0.082744,22.034248,40.073132,-18.130608,-26.803495,0.11088563,-0.03206691,-0.16321397,0.009913402,-0.016476411,0.07134942
20231225 03:49:20,0.172199,-0.037001,-0.030576,-0.027846,0.000085,0.069960,21.619347,39.758850,-18.114220,-26.501518,0.14423098,-0.038246896,-0.11087281,0.0034236778,4.8350933E-4,0.068555206
20231225 03:49:20,0.152755,-0.010424,0.016244,-0.017192,0.013934,0.060372,21.664173,40.233948,-18.144798,-26.272032,0.14580996,-0.011143833,-0.054005265,0.00929909,0.014154986,0.062021814
20231225 03:49:21,0.135058,0.000237,0.091052,-0.006539,0.021392,0.053980,22.049992,39.513092,-18.495811,-26.957748,0.16057715,-2.708281E-4,0.01839612,0.016336657,0.021559045,0.055370383
20231225 03:49:21,0.106475,0.021611,0.113100,0.006246,0.025653,0.050784,22.014900,38.749237,-17.910423,-27.322893,0.14351322,0.021523975,0.05701023,0.026545215,0.025679097,0.049324397
20231225 03:49:21,0.126354,0.013332,0.142304,0.016899,0.024588,0.045457,22.191626,40.091442,-18.666145,-26.753778,0.1735307,0.013084737,0.06974864,0.034057353,0.024601398,0.040228013
20231225 03:49:21,0.127851,0.014823,0.162848,0.026487,0.018196,0.038000,21.880310,39.225349,-19.148582,-26.731045,0.18313712,0.014631094,0.08680919,0.03970124,0.018162563,0.027673421
20231225 03:49:21,0.108192,-0.005442,0.160409,0.033945,0.010738,0.032673,21.928089,40.066750,-18.265236,-26.581903,0.16411527,-0.0055959183,0.08475453,0.044325933,0.010657008,0.017257404
20231225 03:49:21,0.126108,-0.014048,0.157389,0.036075,0.006477,0.027346,22.128487,39.618195,-18.903801,-26.877846,0.17942926,-0.014294731,0.07071842,0.04411826,0.006371096,0.010171814
20231225 03:49:21,0.089071,0.018527,0.149301,0.050990,0.002216,0.017758,22.183044,39.804531,-18.379555,-26.829065,0.14271945,0.018534236,0.09224688,0.053774934,0.0022309592,-0.0056850947
20231225 03:49:21,0.076191,0.049345,0.172844,0.056317,0.002216,0.016693,21.786457,39.488403,-18.094917,-26.53402,0.14082962,0.049335033,0.1292796,0.05817038,0.0024066172,-0.00882261
20231225 03:49:21,0.038832,0.074423,0.198424,0.059513,-0.003111,0.024150,22.077654,39.414375,-17.953209,-26.802446,0.11721076,0.07401193,0.1756971,0.06418252,-0.0027256773,-0.006288789
20231225 03:49:21,0.001296,0.079587,0.252013,0.063774,-0.014830,0.033738,22.067537,39.895020,-18.788521,-26.306915,0.104180254,0.07840217,0.23766434,0.07207081,-0.0143174715,-0.0045735575
20231225 03:49:21,-0.032501,0.041690,0.255127,0.072297,-0.026549,0.043326,21.837292,39.692219,-19.045494,-26.097782,0.0750217,0.040099934,0.23894562,0.08384345,-0.025979344,-0.0048910715
20231225 03:49:21,0.008166,0.020853,0.296020,0.085081,-0.042529,0.046522,22.022713,39.419922,-18.757957,-26.6964,0.12850633,0.02048519,0.24653661,0.09672384,-0.042339128,-0.014309548
20231225 03:49:21,0.033751,0.019246,0.269154,0.089343,-0.045725,0.047588,21.803616,40.062222,-18.668098,-26.144444,0.14095902,0.018864822,0.21435067,0.10108477,-0.045426935,-0.015989915
20231225 03:49:21,-0.023381,-0.007951,0.246988,0.097866,-0.048921,0.044392,21.565174,39.380623,-18.358025,-26.100918,0.07990493,-0.009459249,0.20871636,0.10770773,-0.048041936,-0.02336805
20231225 03:49:21,-0.061907,0.004366,0.254056,0.097866,-0.049986,0.044392,21.847023,39.403461,-18.490669,-26.17086,0.046740636,0.0011647085,0.23523481,0.10786377,-0.04854858,-0.023556452
20231225 03:49:21,-0.138252,-0.023433,0.289277,0.097866,-0.059575,0.048653,21.740864,39.397083,-18.625298,-25.945518,-0.009178892,-0.029159978,0.28444165,0.10974499,-0.057914205,-0.023429811
20231225 03:49:21,-0.206043,-0.062170,0.304361,0.104258,-0.081947,0.055045,21.432121,39.089188,-18.474297,-25.728903,-0.064908095,-0.07037553,0.30936477,0.1184754,-0.07998618,-0.029297777
20231225 03:49:21,-0.224029,-0.033251,0.275553,0.113846,-0.105385,0.064633,21.459015,39.374245,-18.492622,-25.612871,-0.09054046,-0.04163939,0.3055282,0.13149166,-0.10330581,-0.03522682
20231225 03:49:21,-0.216430,-0.033585,0.202527,0.135153,-0.124561,0.084875,21.562603,38.822433,-18.991463,-26.060247,-0.11180552,-0.03875156,0.24230245,0.1592009,-0.12293343,-0.036896855
20231225 03:49:21,-0.112402,-0.024622,0.005686,0.140479,-0.124561,0.090202,21.625740,39.295681,-18.753792,-26.080921,-0.099404916,-0.026024949,0.042168133,0.16610873,-0.12334583,-0.035371915
20231225 03:49:21,-0.028056,0.012231,-0.158513,0.150068,-0.113907,0.101921,21.423157,38.994167,-18.468178,-26.490196,-0.09419128,0.012081222,-0.110631935,0.17928979,-0.11421759,-0.028884344
20231225 03:49:21,0.017542,0.005216,-0.220440,0.156460,-0.093666,0.112574,21.088936,39.535065,-18.506813,-26.018269,-0.08004517,0.0041555036,-0.18395375,0.1894579,-0.09453413,-0.013944
20231225 03:49:21,0.106327,-0.001426,-0.300166,0.154329,-0.073424,0.115770,21.431351,39.472965,-19.035225,-26.5549,-0.037021838,-0.0059639565,-0.28843677,0.18892094,-0.075150296,-0.004625246
20231225 03:49:21,0.185856,-0.007638,-0.390479,0.140479,-0.061705,0.110443,21.325577,39.274696,-18.889366,-26.894165,-0.008035332,-0.018919002,-0.3976802,0.17406937,-0.064202584,4.4627488E-4
20231225 03:49:21,0.253302,-0.024055,-0.444345,0.117042,-0.052117,0.098724,21.625740,39.295681,-18.753792,-27.345884,0.028925344,-0.040166505,-0.47606295,0.14782842,-0.05439354,0.0050294027
20231225 03:49:21,0.261824,-0.016602,-0.477303,0.091473,-0.049986,0.081679,21.440319,39.567986,-19.041344,-27.050123,0.018854558,-0.035171602,-0.5041845,0.11748337,-0.051804394,0.0034890585
20231225 03:49:21,0.290216,-0.023638,-0.508272,0.062709,-0.043594,0.071025,21.553253,38.919304,-19.265816,-27.501884,0.029243141,-0.045108337,-0.54303724,0.087122865,-0.044603407,0.00994011
20231225 03:49:21,0.269407,-0.037588,-0.497526,0.030749,-0.040398,0.057176,21.571568,38.917454,-18.997566,-27.505505,0.014984667,-0.056681886,-0.53089106,0.052495472,-0.04042961,0.014700357
20231225 03:49:21,0.271072,-0.010654,-0.438507,-0.013996,-0.042529,0.032673,21.500885,39.483040,-19.437111,-27.047018,0.045596153,-0.028323099,-0.47496936,0.0013629925,-0.041400626,0.015000851
20231225 03:49:21,0.230578,-0.026442,-0.407833,-0.025715,-0.043594,0.026281,21.526360,38.634247,-19.247490,-27.544077,0.023765162,-0.042426486,-0.43746462,-0.012078092,-0.042125665,0.014299304
20231225 03:49:21,0.214933,-0.032845,-0.319493,-0.039564,-0.037202,0.014562,21.498695,38.732964,-19.790077,-27.330402,0.049892217,-0.046248958,-0.36331826,-0.029625265,-0.035490204,0.013889324
20231225 03:49:21,0.219541,0.023288,-0.204813,-0.044891,-0.028680,0.008170,21.498695,38.732964,-19.790077,-27.286083,0.10633069,0.012230439,-0.25096977,-0.037095983,-0.026974965,0.014643321
20231225 03:49:21,0.201645,0.041138,-0.170046,-0.045956,-0.011634,0.000712,21.552868,39.111195,-19.546303,-27.202902,0.107272826,0.031336077,-0.20750847,-0.04117412,-0.010036301,0.015965082
20231225 03:49:21,0.162135,0.016232,-0.100610,-0.039564,0.013934,-0.012072,21.835102,38.942142,-19.398476,-27.658678,0.10250439,0.008602225,-0.14401174,-0.040626887,0.0151421325,0.0134166395
20231225 03:49:21,0.217250,0.022014,-0.015522,-0.035303,0.018196,-0.017398,21.832916,38.192070,-19.751442,-27.916222,0.18919504,0.014218263,-0.09765342,-0.039046142,0.019113075,0.009198724
20231225 03:49:21,0.206538,0.027630,-0.007894,-0.024649,0.023523,-0.031248,21.817173,38.752102,-19.386253,-27.708176,0.18300493,0.020219019,-0.0845808,-0.035379495,0.023840195,-0.0043374766
20231225 03:49:21,0.202804,0.042826,-0.006186,-0.012931,0.034176,-0.050424,21.948425,38.101578,-19.342476,-28.022455,0.18064098,0.03674703,-0.07479279,-0.033033755,0.03382362,-0.02002686
20231225 03:49:21,0.153807,0.033505,0.031569,-0.008669,0.032045,-0.057882,21.816788,38.943993,-19.666725,-27.28205,0.15272939,0.029994925,-0.027386958,-0.032455925,0.031551108,-0.029387977
20231225 03:49:21,0.116131,0.036057,0.070793,-0.010800,0.027784,-0.061078,22.222725,39.163254,-19.676994,-27.40839,0.13565472,0.034537096,0.02124396,-0.035959538,0.0274358,-0.032653764
20231225 03:49:21,0.052764,0.055155,0.085694,-0.012931,0.019261,-0.062143,22.142042,38.308075,-19.621986,-27.706663,0.08514421,0.054953214,0.06858901,-0.03844086,0.018974122,-0.035898227
20231225 03:49:21,0.052344,0.048055,0.075603,-0.012931,0.006477,-0.060012,21.932297,38.853504,-19.257759,-27.31747,0.08031882,0.04776597,0.057757005,-0.03758459,0.0061981576,-0.039781775
20231225 03:49:21,0.048479,0.050563,0.084201,-0.010800,0.000085,-0.053620,22.514309,38.897331,-19.254829,-27.920046,0.080666445,0.050411496,0.06729108,-0.03300923,-1.857522E-4,-0.03795193
20231225 03:49:21,0.064056,0.029024,0.011404,-0.000146,0.006477,-0.052555,22.388033,37.950836,-19.730186,-28.39789,0.063059114,0.027460609,-0.0061895885,-0.022753669,0.0058113076,-0.03884905
20231225 03:49:21,0.136530,-0.013678,-0.031380,0.001984,0.010738,-0.054686,22.760298,38.540092,-19.363029,-28.637943,0.10920243,-0.018077731,-0.08996605,-0.021780767,0.009909582,-0.0394653
20231225 03:49:21,0.161438,-0.018413,-0.085052,0.010507,0.021392,-0.062143,22.433241,38.234047,-19.480278,-28.441626,0.10824808,-0.024389789,-0.14536889,-0.017200572,0.02018371,-0.044607025
20231225 03:49:21,0.149241,-0.028699,-0.133000,0.012638,0.032045,-0.067470,22.557329,38.430462,-19.357887,-28.419415,0.0759327,-0.034399558,-0.18264742,-0.017630417,0.030818991,-0.045184884
20231225 03:49:21,0.112376,0.006259,-0.106619,0.006246,0.038437,-0.071731,22.432472,38.617821,-20.041222,-27.852448,0.054951303,0.003022395,-0.13110103,-0.025171787,0.037621394,-0.04366076
20231225 03:49:21,0.029274,-0.039188,-0.057439,-0.003343,0.034176,-0.072797,22.681034,38.818771,-19.515984,-27.82038,0.0014664102,-0.039689794,-0.074958086,-0.0342725,0.03389499,-0.04225214
20231225 03:49:21,-0.017485,-0.009637,0.009651,-0.013996,0.020327,-0.071731,22.566677,38.333591,-19.083534,-28.014555,-0.011712759,-0.009462158,0.011089551,-0.04325714,0.020168005,-0.042623725
20231225 03:49:21,-0.039840,-0.047319,0.036571,-0.018257,-0.002046,-0.069601,22.503540,37.860344,-19.321205,-28.111559,-0.020495601,-0.04690795,0.026065981,-0.046317905,-0.002151408,-0.04852248
20231225 03:49:21,-0.026839,-0.031904,0.028763,-0.018257,-0.023353,-0.065339,22.823820,38.821453,-18.844887,-27.998943,-0.011909978,-0.031720784,0.020958368,-0.044658042,-0.023410572,-0.054106534
20231225 03:49:21,-0.042477,0.005655,-0.000800,-0.017192,-0.035072,-0.060012,22.617897,38.345524,-19.753654,-27.899038,-0.038548157,0.0059791044,0.02027927,-0.041784953,-0.035162006,-0.0549863
20231225 03:49:21,0.009299,0.031137,-0.104948,-0.017192,-0.034006,-0.048294,22.573072,37.870426,-19.723091,-28.238651,-0.037693262,0.030363288,-0.073871344,-0.036920708,-0.0340854,-0.04506309
20231225 03:49:21,0.025368,0.036362,-0.142423,-0.017192,-0.027614,-0.044032,22.460135,38.519104,-19.498619,-27.884039,-0.039672814,0.035031285,-0.10892877,-0.035008788,-0.02767213,-0.038970992
20231225 03:49:21,0.072061,0.039727,-0.147806,-0.018257,-0.011634,-0.038705,22.742369,38.350052,-19.350792,-28.42982,1.02579594E-4,0.037021935,-0.13144043,-0.03352005,-0.011644354,-0.027516412
20231225 03:49:21,0.088298,0.000539,-0.157793,-0.020388,-0.002046,-0.039771,22.848528,38.356434,-19.216194,-28.558262,0.010628365,-0.0024887118,-0.1629998,-0.035711274,-0.0020250785,-0.023417171
20231225 03:49:21,0.059925,-0.014126,-0.139688,-0.026780,-0.002046,-0.038705,22.645174,38.438694,-19.491539,-28.14512,-0.0064089075,-0.016009245,-0.14298095,-0.04088787,-0.0019231614,-0.020076903
20231225 03:49:21,0.046206,-0.027805,-0.074793,-0.038499,-0.008438,-0.039771,22.645559,38.246807,-19.211052,-28.20861,0.0092572905,-0.02873869,-0.09125282,-0.051936954,-0.00821498,-0.018600423
20231225 03:49:21,-0.005891,-0.026174,-0.020697,-0.047022,-0.022287,-0.041901,22.496763,38.515404,-18.962120,-27.986637,-0.014394151,-0.026218874,-0.02502347,-0.06062621,-0.021965835,-0.022517506
20231225 03:49:21,0.033811,0.025877,0.001425,-0.051283,-0.036137,-0.042967,22.635826,38.535564,-19.765877,-27.968697,0.031296432,0.02545028,-0.0024439842,-0.06499328,-0.03573877,-0.027513705
20231225 03:49:21,0.008022,-0.014879,0.006435,-0.053414,-0.039333,-0.040836,22.841749,39.011494,-18.857109,-28.126944,0.009925118,-0.01493758,-0.0046612853,-0.0660134,-0.038920563,-0.026256492
20231225 03:49:21,0.052425,0.022805,0.005443,-0.051283,-0.037202,-0.034444,22.647745,38.996883,-18.858086,-28.03897,0.049821682,0.022007301,-0.00859642,-0.061403327,-0.03664161,-0.021098372
20231225 03:49:21,0.044086,-0.006254,-0.000298,-0.039564,-0.029745,-0.033379,22.442591,38.137177,-19.205925,-28.193129,0.039686598,-0.0069795344,-0.021738485,-0.050258942,-0.0293491,-0.022408232
20231225 03:49:21,0.054179,-0.012363,0.019441,-0.024649,-0.021222,-0.034444,22.495995,38.899181,-19.523079,-27.786531,0.05720666,-0.013080318,-0.012709905,-0.037122007,-0.0210838,-0.026036669
20231225 03:49:21,0.022366,-0.055383,-0.012469,-0.006539,-0.007373,-0.038705,22.505728,38.610424,-18.968239,-27.967422,0.01460081,-0.055732675,-0.042988647,-0.022437923,-0.0075187413,-0.031276397
20231225 03:49:21,0.018504,-0.054284,-0.029043,0.000919,0.004346,-0.038705,22.451939,38.040306,-18.931557,-28.093405,0.0041646855,-0.054554246,-0.054192036,-0.015626641,0.004184045,-0.029436214
20231225 03:49:21,-0.062281,-0.020289,-0.056769,0.003050,0.012869,-0.042967,22.444391,39.079140,-19.133430,-27.372648,-0.0806327,-0.020180732,-0.027277255,-0.015644202,0.012797011,-0.03043417
20231225 03:49:21,-0.098440,-0.027082,-0.050916,-0.006539,0.020327,-0.041901,22.584606,38.523632,-19.095772,-27.609955,-0.110706255,-0.027363608,-0.010135844,-0.023833618,0.020376394,-0.022267934
20231225 03:49:21,-0.157225,-0.016402,0.022739,-0.017192,0.013934,-0.035509,22.426462,38.889099,-19.121193,-27.104763,-0.13237369,-0.017966513,0.07870534,-0.030773353,0.0139298,-0.01549647
20231225 03:49:21,-0.168766,-0.012298,0.099550,-0.026780,-0.005242,-0.030183,22.620466,38.903709,-19.120216,-27.378742,-0.11101112,-0.013723427,0.14619419,-0.036993895,-0.0053261803,-0.015195045
20231225 03:49:21,-0.177607,0.004637,0.148763,-0.029976,-0.023353,-0.023791,22.584991,38.331745,-18.815285,-27.671017,-0.098427325,0.0027683894,0.19626063,-0.03712625,-0.023495262,-0.016316317
20231225 03:49:21,-0.154741,0.000120,0.161696,-0.023584,-0.031876,-0.020595,22.630199,38.614956,-18.565392,-27.670725,-0.07239848,-0.0013413384,0.19504885,-0.029963728,-0.03196409,-0.020060498
20231225 03:49:21,-0.135365,0.016315,0.129650,-0.012931,-0.040398,-0.020595,22.593189,38.810539,-19.382347,-27.454645,-0.06773657,0.0158675,0.16836384,-0.020392502,-0.040405754,-0.027951796
20231225 03:49:21,-0.117096,0.019184,0.084439,0.004115,-0.036137,-0.017398,22.487030,38.804161,-19.516960,-27.353594,-0.06970234,0.019050974,0.12586188,-0.0037122595,-0.036126457,-0.030734375
20231225 03:49:21,-0.084338,0.027469,0.007749,0.022226,-0.015895,-0.013137,22.559517,39.180542,-19.004921,-27.538124,-0.07263437,0.027950915,0.054097407,0.014323911,-0.01605125,-0.026737375
20231225 03:49:21,-0.055273,0.076700,-0.029010,0.039271,0.009673,-0.007810,22.672453,38.531864,-19.229393,-27.901936,-0.062214624,0.076894894,0.033332825,0.031956695,0.009468389,-0.019263925
20231225 03:49:21,-0.048143,0.062194,-0.050428,0.046729,0.032045,-0.005680,22.787575,38.633263,-19.100899,-27.9748,-0.065139905,0.062283598,0.007043753,0.03969738,0.03185793,-0.011247046
20231225 03:49:21,-0.058282,0.045311,-0.040567,0.041402,0.039503,-0.009941,22.311724,38.595814,-18.969215,-27.45219,-0.070087254,0.04535388,0.011670869,0.03301082,0.039452124,-0.009502171
20231225 03:49:21,-0.108002,0.060158,0.016178,0.029683,0.035241,-0.014202,22.541971,38.798611,-18.712227,-27.540436,-0.09049675,0.05980765,0.08468807,0.020581614,0.035351444,-0.0094875265
20231225 03:49:21,-0.119540,0.059151,0.059490,0.020095,0.016065,-0.013137,22.868259,39.488438,-19.155922,-27.323622,-0.08209624,0.058094688,0.12394579,0.012350772,0.016252654,-0.012590176
20231225 03:49:21,-0.142056,0.089544,0.047416,0.014768,-0.004176,-0.008876,22.399567,38.604042,-19.102852,-27.235586,-0.10758969,0.08812539,0.13671526,0.009445033,-0.004012842,-0.015257116
20231225 03:49:21,-0.101913,0.079704,0.030641,0.012638,-0.012699,-0.004614,22.471670,39.172314,-18.871284,-27.267076,-0.07836177,0.07943556,0.10188109,0.009364361,-0.012665036,-0.0144453235
20231225 03:49:21,-0.070544,0.081833,-0.011962,0.013703,-0.012699,-0.002484,22.224262,38.395699,-18.555122,-27.523249,-0.06867593,0.08182547,0.055321433,0.011237398,-0.012697463,-0.013251359
20231225 03:49:21,-0.063201,0.091265,-0.039427,0.013703,-0.004176,-0.000353,22.065733,38.953056,-18.861015,-27.01806,-0.07407301,0.091270566,0.033333465,0.012168974,-0.0041781855,-0.007980978
20231225 03:49:21,-0.088529,0.086437,-0.040594,0.013703,0.004346,0.004974,22.144615,38.866264,-18.988533,-27.126444,-0.09734192,0.08647897,0.041666057,0.0144997025,0.0043394356,-2.2913795E-4
20231225 03:49:21,-0.042057,0.045853,0.007957,0.016899,0.006477,0.010301,22.090826,38.296146,-18.951851,-27.295858,-0.03446258,0.04578031,0.043574933,0.01969078,0.006495768,0.0035814997
20231225 03:49:21,-0.050492,0.033912,-0.001021,0.024357,0.004346,0.011366,22.056768,38.858036,-18.854897,-27.022238,-0.045939542,0.033857465,0.034994554,0.02687345,0.0043669306,3.163563E-4
20231225 03:49:21,-0.042466,0.035834,-0.007026,0.027553,0.003281,0.010301,21.844067,39.037163,-19.404594,-26.729141,-0.04125405,0.035990022,0.027252106,0.029302686,0.00319038,-0.0023011565
20231225 03:49:21,-0.039869,0.028014,-0.017760,0.031814,-0.005242,0.011366,21.834721,39.134033,-19.678947,-26.625648,-0.043564886,0.028154267,0.014328242,0.033581235,-0.005360314,-0.0067854235
20231225 03:49:21,-0.021480,0.041341,-0.020893,0.030749,-0.011634,0.011366,21.810009,39.599052,-19.307640,-26.45032,-0.028360296,0.041386154,0.009104107,0.032604657,-0.01173548,-0.008914214
20231225 03:49:21,-0.025275,0.005065,-0.066643,0.022226,-0.021222,0.013497,21.658646,39.309460,-19.692162,-26.384188,-0.05169322,0.0050271135,-0.04077473,0.025825303,-0.021308277,-0.0072556725
20231225 03:49:21,-0.003903,-0.029833,-0.059991,0.011572,-0.028680,0.014562,21.722549,39.398933,-18.893532,-26.544819,-0.02939811,-0.029932573,-0.05879753,0.016657384,-0.028697964,-0.0047906954
20231225 03:49:21,-0.047373,-0.063236,-0.070394,0.005180,-0.030810,0.015627,21.456444,38.816051,-19.126076,-26.399826,-0.07314139,-0.06322447,-0.061794143,0.011405105,-0.030808216,-0.001966658
20231225 03:49:21,-0.045207,-0.036620,0.006732,0.000919,-0.034006,0.022019,21.501266,39.291149,-19.156639,-26.378313,-0.03813873,-0.036294237,0.010011543,0.010111032,-0.033941876,0.0037854677
20231225 03:49:21,-0.008484,-0.080945,0.039875,0.003050,-0.038268,0.025215,21.192139,39.175144,-19.286110,-26.06508,0.008970192,-0.08077463,0.0038230568,0.013332311,-0.038212456,0.0039951503
20231225 03:49:21,-0.007991,-0.099027,0.030002,0.012638,-0.036137,0.025215,21.217617,38.326347,-19.096489,-26.532215,0.005164966,-0.09889388,-0.012385303,0.02201135,-0.036141384,4.736688E-4
20231225 03:49:21,-0.026072,-0.091528,0.032387,0.015834,-0.029745,0.027346,21.571182,39.109344,-19.278053,-26.465155,-0.01008776,-0.0913211,3.751535E-4,0.025868118,-0.029759476,0.0034490544
20231225 03:49:21,-0.081610,-0.070251,0.053782,0.016899,-0.027614,0.032673,21.482956,39.292999,-19.424889,-25.950314,-0.051036462,-0.07088549,0.05045919,0.029201232,-0.02760366,0.008531747
20231225 03:49:21,-0.199958,-0.072710,0.096332,0.014768,-0.025483,0.043326,21.295341,38.815224,-20.065422,-25.697643,-0.1398465,-0.075281404,0.13488719,0.031879053,-0.025539884,0.019081527
20231225 03:49:21,-0.210499,-0.049205,0.123837,0.013703,-0.027614,0.061437,21.367828,39.191605,-19.553383,-25.615604,-0.13766365,-0.052987244,0.17123163,0.038676657,-0.02782401,0.03352725
20231225 03:49:22,-0.271568,-0.049746,0.155719,0.015834,-0.035072,0.080614,21.225811,38.805145,-19.663536,-25.3073,-0.17958727,-0.058328107,0.22321314,0.04885986,-0.035603438,0.04574371
20231225 03:49:22,-0.292432,0.049272,0.179581,0.017964,-0.045725,0.104051,21.358097,39.480362,-20.108208,-25.421095,-0.18738641,0.04499014,0.29106823,0.061107572,-0.04607766,0.0594526
20231225 03:49:22,-0.117003,0.034967,0.139309,0.021160,-0.064901,0.124293,21.324810,39.658470,-19.450310,-25.882746,-0.04585474,0.035698593,0.17719923,0.072315335,-0.06474935,0.06634058
20231225 03:49:22,0.025478,-0.068922,-0.022912,0.010507,-0.060640,0.122162,21.094948,39.263783,-19.426842,-26.243063,0.012589829,-0.06959703,-0.05702123,0.06126117,-0.05972559,0.0702807
20231225 03:49:22,0.107179,-0.065948,-0.069343,-0.000146,-0.047856,0.106182,21.334160,39.561604,-19.175957,-26.689463,0.066287935,-0.070042506,-0.12863299,0.044615544,-0.046343055,0.06637832
20231225 03:49:22,0.196291,-0.078696,-0.030510,-0.006539,-0.045725,0.079548,21.492302,39.196129,-19.150536,-27.233444,0.16328093,-0.08639338,-0.14068723,0.027122663,-0.044067256,0.047851622
20231225 03:49:22,0.235615,-0.079072,-0.082408,0.000919,-0.037202,0.049718,21.236580,39.842133,-19.597160,-26.656647,0.17511535,-0.08993761,-0.20048496,0.021650711,-0.03625174,0.0246021
20231225 03:49:22,0.227152,-0.016665,-0.137549,0.011572,-0.007373,0.026281,21.315845,39.563454,-19.444191,-26.85049,0.14374444,-0.027765749,-0.21655431,0.021765009,-0.0073196786,0.013019949
20231225 03:49:22,0.177376,0.025017,-0.106209,0.021160,0.019261,0.013497,20.952927,38.877327,-19.537010,-26.549007,0.11275576,0.018220784,-0.1534523,0.025219908,0.018821431,0.009232385
20231225 03:49:22,0.105220,0.081688,-0.089211,0.026487,0.037372,0.007105,21.085983,39.168762,-19.420723,-26.384554,0.05573561,0.07828475,-0.08571565,0.02731039,0.03684039,0.008861002
20231225 03:49:22,0.035822,0.063837,-0.024923,0.024357,0.045895,0.004974,21.226196,38.613258,-19.383064,-26.778835,0.022181507,0.06277853,-0.009629283,0.024589382,0.04540336,0.012106729
20231225 03:49:22,0.050627,0.049397,-0.016765,0.017964,0.036307,-0.002484,21.246315,39.553375,-19.042320,-26.132465,0.038212456,0.048745554,-0.016439497,0.01519783,0.036093004,0.004368386
20231225 03:49:22,-0.041638,0.148790,0.002769,0.001984,0.021392,0.013497,21.616009,39.584442,-19.308617,-26.486137,-0.035117093,0.14930372,0.08018306,0.007928538,0.021448024,0.01846305
20231225 03:49:22,-0.016299,0.132415,-0.037463,-0.013996,0.024588,0.029477,21.349899,39.001568,-19.541161,-26.577541,-0.030061012,0.13235058,0.030297097,7.322114E-4,0.02508595,0.039695583
20231225 03:49:22,0.074767,0.079895,-0.014059,-0.028911,0.028849,0.032673,21.033997,39.540615,-19.311546,-26.156752,0.0618663,0.07807833,-0.012513217,-0.011329325,0.029825892,0.050467983
20231225 03:49:22,0.077425,0.034066,0.015511,-0.037434,0.039503,0.028412,21.201103,39.270164,-19.292229,-26.453075,0.07685297,0.03254221,-0.007352045,-0.021021247,0.0405967,0.055003524
20231225 03:49:22,0.088085,0.022743,0.060698,-0.036368,0.045895,0.028412,21.095329,39.071896,-19.146370,-26.47593,0.1058508,0.021427616,0.02037129,-0.020154372,0.046983905,0.05706653
20231225 03:49:22,0.070646,-0.005045,0.103061,-0.033172,0.051222,0.027346,21.288952,39.278393,-19.425865,-26.359314,0.10771087,-0.005400611,0.051527,-0.01801782,0.051950023,0.05686538
20231225 03:49:22,0.030526,-0.068393,0.142424,-0.031042,0.051222,0.026281,21.164860,39.081978,-19.548256,-26.282705,0.08689087,-0.0678391,0.07566439,-0.016811347,0.05188176,0.054995738
20231225 03:49:22,-0.002192,-0.081133,0.216674,-0.026780,0.041633,0.023085,20.964081,39.722420,-19.190147,-25.781525,0.08754611,-0.07978227,0.14627554,-0.014513878,0.04212427,0.046506323
20231225 03:49:22,0.009821,-0.091720,0.230849,-0.020388,0.029915,0.020954,21.067669,39.170612,-19.688972,-25.952223,0.10401245,-0.090795964,0.1483779,-0.009765157,0.030201968,0.037505575
20231225 03:49:22,-0.002770,-0.105180,0.209435,-0.010800,0.018196,0.022019,21.113258,39.261932,-19.158592,-26.253633,0.08335745,-0.10353155,0.12977841,-5.8089755E-4,0.018539172,0.029774146
20231225 03:49:22,0.054430,-0.095453,0.177032,-0.004408,0.010738,0.020954,21.288952,39.278393,-19.425865,-26.484964,0.1222993,-0.09488058,0.08268443,0.0048188306,0.011023565,0.023240486
20231225 03:49:22,0.089013,-0.122099,0.145600,0.001984,0.006477,0.011366,21.059471,38.691814,-19.121925,-26.7143,0.14013961,-0.12261741,0.03124442,0.00661326,0.00655644,0.011049501
20231225 03:49:22,0.130216,-0.139556,0.119655,0.009442,0.009673,0.000712,21.158085,39.737030,-19.189171,-26.301844,0.16648072,-0.14141734,-0.012653738,0.008998561,0.009438586,5.665166E-4
20231225 03:49:22,0.124315,-0.105009,0.099319,0.017964,0.012869,-0.008876,21.246696,39.361485,-18.761864,-26.611982,0.1532287,-0.106837615,-0.013796255,0.012778022,0.01234366,-0.009453722
20231225 03:49:22,0.116918,-0.107368,0.070279,0.032879,0.013934,-0.017398,20.892361,38.962265,-19.141243,-26.315899,0.13450381,-0.109216906,-0.035100095,0.022685688,0.013018183,-0.02234891
20231225 03:49:22,0.072250,-0.106277,0.018703,0.043533,0.021392,-0.021660,21.210068,39.365185,-19.298347,-26.36015,0.07240772,-0.107499965,-0.058116313,0.030496199,0.020332798,-0.027380861
20231225 03:49:22,0.052728,-0.087141,-0.012802,0.046729,0.028849,-0.021660,21.025032,39.445595,-19.305428,-26.145376,0.041461755,-0.088317424,-0.06756495,0.033379674,0.027681032,-0.025944844
20231225 03:49:22,0.076701,-0.073360,-0.031878,0.049925,0.036307,-0.023791,21.208267,38.423218,-19.370842,-26.863457,0.054976918,-0.07536544,-0.08844537,0.035363447,0.034944516,-0.025678724
20231225 03:49:22,0.082152,-0.045920,-0.041169,0.052056,0.042699,-0.030183,21.034378,39.348724,-19.031075,-26.297222,0.0561128,-0.04813595,-0.08693292,0.034547955,0.04123119,-0.02966347
20231225 03:49:22,0.085889,-0.044999,-0.061897,0.057382,0.044830,-0.038705,20.865086,38.869095,-19.403358,-26.256943,0.050320543,-0.047463372,-0.10509556,0.035529874,0.043189146,-0.038182244
20231225 03:49:22,0.068726,-0.049449,-0.091618,0.060578,0.042699,-0.048294,20.883015,39.059135,-19.415581,-26.13963,0.021616183,-0.05167631,-0.123562165,0.033983987,0.041025214,-0.048430942
20231225 03:49:22,0.059009,-0.023221,-0.132424,0.057382,0.037372,-0.058947,20.777237,38.860867,-19.269722,-26.111242,-0.0051250234,-0.025490385,-0.14193065,0.026120478,0.035778917,-0.05792458
20231225 03:49:22,0.025687,-0.006488,-0.186953,0.050990,0.033111,-0.064274,20.973812,39.433666,-18.635323,-26.026955,-0.05969242,-0.007960683,-0.16457961,0.017505843,0.032073997,-0.061323125
20231225 03:49:22,-0.011773,0.034284,-0.226892,0.040337,0.029915,-0.063208,20.946533,39.340496,-18.897438,-25.933851,-0.11196489,0.033210352,-0.16375242,0.007912336,0.029155478,-0.05719264
20231225 03:49:22,-0.006450,0.061038,-0.235936,0.029683,0.032045,-0.056816,20.928219,39.342342,-19.165688,-25.725212,-0.1120275,0.060379237,-0.16313209,9.497199E-4,0.03170407,-0.04665866
20231225 03:49:22,-0.074573,0.067111,-0.230857,0.016899,0.034176,-0.047228,21.201488,39.078278,-19.011757,-26.110577,-0.17076048,0.06695866,-0.12484566,-0.0062150415,0.034029193,-0.032050807
20231225 03:49:22,-0.066192,0.085919,-0.212245,0.004115,0.036307,-0.038705,21.395493,39.092888,-19.010780,-26.247385,-0.15496852,0.085862495,-0.10595323,-0.013810339,0.036274422,-0.018501807
20231225 03:49:22,-0.079326,0.112627,-0.180163,-0.004408,0.037372,-0.028052,21.210453,39.173294,-19.017860,-25.969843,-0.1522116,0.112628035,-0.06462231,-0.016615685,0.037373297,-0.0059050955
20231225 03:49:22,-0.087983,0.113919,-0.179681,-0.020388,0.036307,-0.016333,21.492302,39.196129,-19.150536,-26.28906,-0.15937306,0.11391334,-0.05914419,-0.02552164,0.036332037,0.010466944
20231225 03:49:22,-0.066486,0.114222,-0.130381,-0.035303,0.037372,-0.007810,21.350285,38.809677,-19.260689,-26.392181,-0.118024126,0.114221044,-0.028726742,-0.034904968,0.037544373,0.0245685
20231225 03:49:22,-0.048057,0.101450,-0.117949,-0.056610,0.037372,-0.000353,21.422386,39.377945,-19.029121,-26.157093,-0.095628396,0.101426974,-0.03319756,-0.05075174,0.037489377,0.039770164
20231225 03:49:22,-0.017795,0.050545,-0.057036,-0.072590,0.038437,0.000712,21.413422,39.282925,-19.023003,-26.217943,-0.040947974,0.050513737,-0.01810169,-0.0648542,0.03865972,0.047693525
20231225 03:49:22,-0.047248,0.037489,-0.007261,-0.083244,0.039503,0.000712,21.465408,38.911072,-19.132195,-26.34956,-0.045774356,0.037504863,0.029459646,-0.07484618,0.039533176,0.05219209
20231225 03:49:22,-0.088240,0.002050,0.119317,-0.087505,0.034176,0.000712,21.492687,39.004246,-18.870049,-26.242533,-0.029003099,0.0013068788,0.13523448,-0.07894557,0.03372329,0.05153024
20231225 03:49:22,-0.107703,0.000194,0.234175,-0.084309,0.018196,0.001778,21.820129,39.118404,-18.472343,-26.602493,0.0011002943,-0.0011203317,0.23535305,-0.07574625,0.017678823,0.04438521
20231225 03:49:22,-0.095270,-0.023457,0.250383,-0.070459,0.003281,0.002843,21.898624,39.223503,-18.880333,-26.508665,0.018795386,-0.024995303,0.23385136,-0.06275849,0.0027575637,0.03323509
20231225 03:49:22,-0.129201,-0.012209,0.207990,-0.060871,-0.002046,0.006039,21.501652,39.099266,-18.876167,-26.095585,-0.029161274,-0.014290281,0.2190204,-0.05260895,-0.0026319446,0.029822268
20231225 03:49:22,-0.125165,-0.023377,0.199714,-0.055545,-0.004176,0.012431,22.013748,39.324902,-18.751839,-26.604115,-0.029666968,-0.025014838,0.20511709,-0.04517775,-0.004637917,0.03171156
20231225 03:49:22,-0.090850,-0.022869,0.210666,-0.048087,-0.004176,0.013497,21.820129,39.118404,-18.472343,-26.634636,0.0061025396,-0.02379132,0.1997498,-0.037959352,-0.004442544,0.029449712
20231225 03:49:22,-0.109364,-0.008991,0.212416,-0.035303,-0.004176,0.016693,21.977886,38.944824,-18.727379,-26.812975,-0.009786837,-0.010108257,0.21431863,-0.02498843,-0.0044077267,0.026663156
20231225 03:49:22,-0.058870,-0.003730,0.198173,-0.013996,-0.002046,0.022019,22.050375,39.321201,-18.215355,-26.965229,0.029893015,-0.003747757,0.18347602,-0.0034424923,-0.0020486813,0.022849116
20231225 03:49:22,-0.033187,-0.010129,0.168141,0.010507,-0.006307,0.026281,21.838058,39.308441,-18.484566,-26.777893,0.04079308,-0.009767988,0.14596766,0.020599546,-0.006301589,0.014267363
20231225 03:49:22,0.005919,-0.030370,0.073750,0.035010,0.001150,0.026281,21.838058,39.308441,-18.484566,-26.993427,0.036596037,-0.030042948,0.044466577,0.042873476,8.946104E-4,0.0067529054
20231225 03:49:22,0.075870,-0.035635,-0.006217,0.047794,0.017130,0.022019,21.635475,39.006924,-18.198967,-27.093124,0.06564863,-0.036830977,-0.0521475,0.052741885,0.016558867,0.0043076063
20231225 03:49:22,0.120461,-0.039528,-0.034770,0.056317,0.028849,0.012431,21.783882,38.930214,-18.728355,-27.182919,0.093681596,-0.04164972,-0.09585075,0.056427374,0.028061695,-0.0022117775
20231225 03:49:22,0.097103,-0.029694,-0.060122,0.062709,0.033111,0.000712,22.068304,39.511242,-18.227577,-27.19758,0.06171428,-0.031126028,-0.10225008,0.057117697,0.032396078,-0.0126909595
20231225 03:49:22,0.022791,-0.027480,-0.118022,0.062709,0.035241,-0.004614,21.907974,39.126637,-18.605980,-26.94178,-0.030721428,-0.027822193,-0.115902156,0.054572158,0.034961753,-0.016523909
20231225 03:49:22,-0.042951,0.027023,-0.085136,0.048860,0.029915,-0.005680,21.766338,38.548286,-18.435661,-26.991795,-0.07606223,0.027022693,-0.038176812,0.041360654,0.029920956,-0.013876179
20231225 03:49:22,-0.061277,0.091245,-0.069964,0.030749,0.009673,0.001778,21.607811,39.105644,-18.741570,-26.457495,-0.08600047,0.09121582,0.0074742846,0.028342076,0.0097058425,-0.008348629
20231225 03:49:22,-0.067378,0.099196,-0.136349,0.014768,-0.009503,0.013497,21.677727,38.923836,-18.862968,-26.533993,-0.121264376,0.09919708,-0.039474174,0.019251954,-0.0094784405,4.2190403E-4
20231225 03:49:22,-0.072751,0.068319,-0.190388,-0.007604,-0.013765,0.030542,21.977505,39.136715,-19.007851,-26.755627,-0.14992198,0.06835385,-0.09233163,0.006791398,-0.013801224,0.02225765
20231225 03:49:22,-0.031666,0.025833,-0.190069,-0.035303,-0.014830,0.044392,21.977886,38.944824,-18.727379,-27.036657,-0.11212074,0.025658317,-0.12749441,-0.0121584665,-0.014668018,0.044996936
20231225 03:49:22,0.036585,0.002923,-0.122396,-0.055545,-0.019091,0.048653,21.705387,38.825115,-18.320366,-27.245197,-0.02027506,0.0014264402,-0.11269127,-0.0289948,-0.017852906,0.05524181
20231225 03:49:22,0.107577,-0.055861,-0.103887,-0.063002,-0.021222,0.043326,21.820129,39.118404,-18.472343,-27.240482,0.051764585,-0.058615252,-0.152807,-0.038324572,-0.019745821,0.053170837
