Timestamp,linacce_x,linacce_y,linacce_z,gyro_x,gyro_y,gyro_z,X-magnetometer,Y-magnetometer,Z-magnetometer,Yaw, worldXAccel,worldYAccel,worldZAccel,worldXgyro,worldYgyro,worldZgyro
20231225 03:34:21,0.287088,0.069103,-1.041788,0.413255,-0.013415,-0.243946,-2.883778,-30.533775,-1.980164,172.37943,-0.50163436,0.022458687,0.5485121,0.13349688,-0.03700895,-0.10585444
20231225 03:34:21,0.346075,0.178510,-1.172802,0.404732,0.035591,-0.254600,-2.689388,-30.711060,-1.698715,172.85353,-0.5624717,0.12395391,0.57673526,0.1140054,0.011712932,-0.1043808
20231225 03:34:21,0.314735,0.306329,-1.328496,0.340812,0.102708,-0.265253,-2.228893,-30.305458,-1.184723,173.85464,-0.7225239,0.25671586,0.6727322,0.050847635,0.08460102,-0.067997426
20231225 03:34:21,0.313108,0.381528,-1.374901,0.218296,0.134668,-0.286560,-1.868164,-30.369408,-1.444908,174.86217,-0.75442755,0.33179972,0.70729935,-0.048840433,0.11987341,0.034339353
20231225 03:34:21,0.333487,0.463581,-1.234678,0.058494,0.125080,-0.320651,-2.185490,-30.964218,-1.007324,174.13365,-0.6350961,0.43152612,0.59173083,-0.18458313,0.117318645,0.17335555
20231225 03:34:21,0.217506,0.554619,-0.971671,-0.108765,0.097381,-0.373919,-1.699902,-31.215530,-0.584175,175.53676,-0.5294508,0.5580064,0.5058393,-0.34037638,0.09813081,0.3363035
20231225 03:34:21,-0.044280,0.651323,-0.590339,-0.245130,0.079270,-0.425056,-1.720020,-32.155640,-0.924927,175.59065,-0.4563859,0.66694015,0.4221012,-0.47207904,0.08413113,0.4720481
20231225 03:34:21,-0.333167,0.782036,-0.197133,-0.331423,0.084597,-0.461277,-0.827080,-31.053841,-0.720016,177.76001,-0.42212832,0.7699081,0.3469368,-0.55887246,0.08956553,0.5616933
20231225 03:34:21,-0.564615,0.890275,0.197255,-0.359122,0.114427,-0.483650,-1.367222,-30.988869,-1.667427,176.02766,-0.36479148,0.81938964,0.1767039,-0.59523726,0.119204,0.59366876
20231225 03:34:21,-0.835469,1.024493,0.449450,-0.344207,0.175152,-0.492173,-1.024422,-31.242851,-1.915375,176.73216,-0.44972718,0.87481,0.15195984,-0.5938822,0.18135926,0.5898517
20231225 03:34:21,-1.152873,1.055788,0.770626,-0.294136,0.225223,-0.487911,-0.786362,-30.369377,-2.505913,176.7445,-0.5430449,0.76993746,0.0872547,-0.5581672,0.23660253,0.5534189
20231225 03:34:21,-1.489695,1.140599,0.991863,-0.218496,0.276360,-0.459147,-0.203964,-30.517441,-2.222511,178.24362,-0.7178873,0.7178689,0.12763882,-0.4883111,0.29512936,0.48833716
20231225 03:34:21,-1.714519,1.183264,1.167512,-0.124746,0.298732,-0.408010,-0.116119,-30.509209,-2.356148,178.27469,-0.83251554,0.6468122,0.104905546,-0.3861375,0.32672617,0.39129412
20231225 03:34:21,-1.878605,1.163348,1.284280,-0.018211,0.294471,-0.341958,0.289818,-30.289955,-2.366417,179.17218,-0.92164105,0.54112154,0.10533273,-0.26081175,0.33413047,0.27949223
20231225 03:34:21,-1.964080,1.068109,1.309215,0.090455,0.246530,-0.259927,0.527607,-31.125977,-1.907562,179.9923,-0.9796179,0.39720246,0.13903248,-0.11859493,0.29886228,0.1528591
20231225 03:34:21,-1.943835,0.981115,1.165991,0.203382,0.175152,-0.168307,-0.160946,-30.984306,-2.325577,178.07552,-1.0183389,0.33907396,0.233729,0.033850126,0.23967353,0.0048528463
20231225 03:34:21,-1.757970,0.899555,0.788147,0.307786,0.104839,-0.074556,0.219254,-31.625771,-1.476097,179.5915,-1.0285915,0.3901315,0.49386412,0.1761423,0.17487323,-0.13710406
20231225 03:34:21,-1.418259,0.733536,0.180383,0.385556,0.053702,0.009606,0.679745,-31.220177,-0.962112,-178.82959,-1.0405926,0.4664387,0.8261366,0.28514344,0.1121414,-0.26431563
20231225 03:34:21,-0.982871,0.569459,-0.421869,0.428170,0.012153,0.076723,0.282772,-31.344414,-0.957954,-179.7602,-1.0770116,0.47523668,0.97872883,0.3639294,0.06231303,-0.34695625
20231225 03:34:21,-0.536122,0.292970,-0.982380,0.436693,-0.023003,0.117207,-0.184498,-31.094955,-1.112846,179.0618,-1.0929756,0.3356876,1.0740128,0.3959061,0.012484539,-0.38857895
20231225 03:34:21,-0.224603,0.136631,-1.433996,0.412190,-0.061356,0.143840,0.064064,-30.894005,-0.587616,-179.98785,-1.1968919,0.2249431,1.1527948,0.39263967,-0.042812802,-0.3974527
20231225 03:34:21,0.144097,-0.038241,-1.889016,0.345073,-0.094382,0.143840,0.054714,-30.797134,-0.861969,-179.9408,-1.3045176,0.020996213,1.1576078,0.34055465,-0.08940549,-0.35269266
20231225 03:34:21,0.486086,-0.177724,-2.185359,0.231081,-0.123146,0.108684,-0.051449,-30.803513,-0.996582,179.88591,-1.3194549,-0.2020576,1.0806887,0.23318136,-0.12402146,-0.24505243
20231225 03:34:21,0.681728,-0.226099,-2.242408,0.094716,-0.155106,0.052220,0.039356,-30.428978,-0.216301,-179.8674,-1.22628,-0.29597366,0.98143566,0.09815055,-0.1558109,-0.10570626
20231225 03:34:21,0.780434,-0.227914,-2.128663,-0.035256,-0.184936,-0.025550,0.160870,-30.790749,-0.727356,-179.44302,-1.0585407,-0.32950515,0.8506623,-0.049230628,-0.18448763,0.0420707
20231225 03:34:21,0.772096,-0.196121,-1.965580,-0.132203,-0.191328,-0.117170,-0.042862,-30.516609,-1.283165,179.98355,-0.9211292,-0.25299308,0.7690692,-0.1798248,-0.19113627,0.17664868
20231225 03:34:21,0.513827,-0.090454,-1.688799,-0.189732,-0.162564,-0.201332,-0.077957,-31.280457,-0.697769,179.74974,-0.84376645,-0.055463172,0.81634355,-0.27396142,-0.1622816,0.27693036
20231225 03:34:21,0.184668,0.007016,-1.229028,-0.205712,-0.131669,-0.269515,0.054714,-30.797134,-0.861969,179.95872,-0.71486104,0.08702552,0.7593318,-0.3269823,-0.12813826,0.33697915
20231225 03:34:22,-0.233401,0.162329,-0.749087,-0.184405,-0.116754,-0.309998,0.371002,-31.528069,-0.811111,-179.33896,-0.68632406,0.20387767,0.7127741,-0.3329869,-0.106437474,0.35244292
20231225 03:34:22,-0.532736,0.279368,-0.428660,-0.135399,-0.119950,-0.333436,0.653236,-31.697121,-0.663292,-178.67398,-0.70946884,0.25721997,0.6792118,-0.30690372,-0.09858288,0.3368613
20231225 03:34:22,-0.804274,0.382906,-0.371260,-0.084262,-0.122081,-0.336632,0.599327,-30.365822,-1.956474,-179.44534,-0.8911928,0.30736703,0.81719923,-0.26773274,-0.087840825,0.30547482
20231225 03:34:22,-1.013295,0.535132,-0.382713,-0.049106,-0.118885,-0.309998,0.883366,-29.592911,-1.736160,-178.66428,-1.0791026,0.41426972,0.97557914,-0.22270414,-0.07784517,0.25972423
20231225 03:34:22,-1.137677,0.588994,-0.382753,-0.033126,-0.126342,-0.265253,1.120007,-29.853279,-2.118721,-178.33348,-1.1837324,0.4372489,1.0620667,-0.17851955,-0.08695898,0.21548402
20231225 03:34:22,-1.129160,0.579442,-0.312777,-0.034191,-0.146584,-0.210921,1.111809,-30.332077,-1.551666,-177.99805,-1.1282634,0.42834485,1.0021262,-0.14170337,-0.11795939,0.17586139
20231225 03:34:22,-0.955955,0.507723,-0.202677,-0.038452,-0.184936,-0.178960,1.075951,-30.712158,-1.527206,-177.98883,-0.91222113,0.38917476,0.79676193,-0.122051865,-0.16490518,0.15482572
20231225 03:34:22,-0.792717,0.488778,-0.100457,-0.032060,-0.243530,-0.193875,1.145863,-30.893974,-1.648621,-177.83514,-0.71864074,0.38602117,0.6123864,-0.12115722,-0.22098318,0.15981412
20231225 03:34:22,-0.780669,0.545664,-0.134323,0.000965,-0.262706,-0.222639,1.517365,-29.920937,-1.842415,-176.862,-0.7385086,0.44495147,0.64062685,-0.112286836,-0.23080602,0.15493599
20231225 03:34:22,-0.896779,0.580215,-0.141666,0.068082,-0.247792,-0.245012,1.685242,-30.575157,-1.262154,-176.30191,-0.83651316,0.45478985,0.73312,-0.07710738,-0.20008984,0.12419717
20231225 03:34:22,-0.985920,0.673831,-0.268728,0.146918,-0.213701,-0.253535,1.218353,-30.517593,-1.136581,-177.47702,-1.0001037,0.54175395,0.888763,-0.029259995,-0.14844039,0.07904681
20231225 03:34:22,-1.069579,0.742512,-0.405002,0.202316,-0.195590,-0.251404,1.774239,-31.142601,-0.554375,-175.81284,-1.1623354,0.6112697,1.0696009,0.008022785,-0.1181104,0.031555682
20231225 03:34:22,-1.121362,0.762145,-0.557127,0.220427,-0.204112,-0.236489,1.862469,-31.326263,-0.407532,-175.49944,-1.3055103,0.6438507,1.2245469,0.030081421,-0.122129664,0.0024246126
20231225 03:34:22,-1.060482,0.778362,-0.734517,0.212970,-0.235007,-0.208790,1.756310,-31.332642,-0.542145,-175.73761,-1.3809135,0.70730156,1.3106979,0.04254572,-0.15985152,-0.018772185
20231225 03:34:22,-0.851512,0.843059,-1.059411,0.182075,-0.264837,-0.180026,2.346901,-31.001892,-0.825798,-173.90485,-1.4674069,0.8680408,1.3992584,0.032432854,-0.20697416,-0.03291052
20231225 03:34:22,-0.769449,0.872387,-1.173511,0.130938,-0.280817,-0.160849,1.728260,-31.042023,-1.365219,-175.79224,-1.495799,0.9252151,1.3970718,0.010123186,-0.2357777,-0.0040797517
20231225 03:34:22,-0.594435,0.914956,-1.279566,0.076605,-0.272295,-0.167241,2.313229,-30.631905,-0.448372,-173.5995,-1.4551625,0.9977061,1.3546135,-0.038249597,-0.23848017,0.032457173
20231225 03:34:22,-0.509003,0.987650,-1.206814,0.039318,-0.256314,-0.198136,2.497116,-30.136650,-1.282700,-173.15218,-1.3472474,1.0656828,1.2552261,-0.088929996,-0.2247779,0.0811249
20231225 03:34:22,-0.582879,1.096266,-1.009481,0.019076,-0.237138,-0.242881,2.400307,-30.239891,-1.142944,-173.56567,-1.2777506,1.1440159,1.1862385,-0.13228725,-0.19745223,0.12940213
20231225 03:34:22,-0.760023,1.220254,-0.818216,0.012684,-0.226485,-0.273776,2.249706,-30.913261,-0.966522,-174.21747,-1.2862699,1.213442,1.193193,-0.15552062,-0.17923945,0.15905607
20231225 03:34:22,-0.910639,1.236960,-0.656487,0.007358,-0.229681,-0.294018,2.946842,-30.768036,-0.835098,-172.37155,-1.2888004,1.173764,1.221523,-0.16650937,-0.1759451,0.17404367
20231225 03:34:22,-1.117633,1.196671,-0.514659,0.007358,-0.242465,-0.295083,2.965538,-30.961769,-0.286385,-172.34914,-1.3432434,1.0631602,1.2673031,-0.15833367,-0.18366584,0.17650574
20231225 03:34:22,-1.277511,1.087028,-0.387455,0.013750,-0.249922,-0.266319,3.114338,-31.230377,-0.535309,-172.32849,-1.3629,0.89561915,1.2713977,-0.1276623,-0.19404894,0.15526097
20231225 03:34:22,-1.207986,0.854972,-0.245853,0.024403,-0.264837,-0.219443,3.078476,-31.610451,-0.510857,-172.61577,-1.1741369,0.67865545,1.0823654,-0.088887125,-0.22204432,0.11765835
20231225 03:34:22,-0.958739,0.598536,-0.135092,0.033991,-0.302124,-0.197071,3.096409,-31.420410,-0.523087,-172.56207,-0.87270135,0.47774625,0.79906076,-0.06842219,-0.2691423,0.09331718
20231225 03:34:22,-0.623110,0.339794,-0.134347,0.030795,-0.342608,-0.221574,3.167358,-30.276482,-1.132927,-172.18925,-0.58692116,0.28474587,0.5454842,-0.090684764,-0.31631628,0.10979027
20231225 03:34:22,-0.369886,0.201669,-0.074111,0.035057,-0.378829,-0.299345,3.442429,-29.598579,-0.906502,-171.21902,-0.3420436,0.17521767,0.3210786,-0.14145422,-0.35218215,0.15671185
20231225 03:34:22,-0.296336,0.376884,-0.066371,0.052102,-0.398006,-0.400553,4.023285,-28.979080,-1.744987,-169.1757,-0.29176903,0.35483718,0.30051965,-0.20020822,-0.3604764,0.19961299
20231225 03:34:22,-0.413035,0.694327,-0.119681,0.063821,-0.371372,-0.497499,3.457787,-29.966728,-1.552170,-171.05907,-0.45113114,0.6549449,0.4486174,-0.25553074,-0.3100902,0.27004284
20231225 03:34:22,-0.832145,0.998504,-0.066694,0.086193,-0.319170,-0.553963,4.368275,-28.482994,-1.639961,-168.1167,-0.78844714,0.86035883,0.77448857,-0.269055,-0.21766797,0.2812748
20231225 03:34:22,-1.290951,1.359986,0.102790,0.125611,-0.253118,-0.559289,4.190395,-29.249535,-1.725670,-169.21867,-1.0948514,1.0618405,1.013338,-0.24377583,-0.12212386,0.270564
20231225 03:34:22,-1.657896,1.669439,0.339547,0.185271,-0.195590,-0.529460,5.117783,-28.901505,-1.337250,-166.41493,-1.2939754,1.1847632,1.2072686,-0.18347391,-0.040827274,0.20406087
20231225 03:34:22,-1.950349,1.904019,0.508233,0.256649,-0.162564,-0.485780,4.684181,-29.022049,-1.869583,-168.1498,-1.470724,1.2582886,1.2933724,-0.10503863,0.010436907,0.13464424
20231225 03:34:22,-2.192988,2.110997,0.547303,0.330158,-0.159368,-0.422925,5.241215,-30.222725,-0.445953,-166.29646,-1.6796151,1.3322773,1.5430846,-0.014133334,0.030923255,0.025693446
20231225 03:34:22,-2.288392,2.371617,0.406865,0.396210,-0.147649,-0.340893,5.495789,-30.293045,-0.840736,-165.41704,-1.8936346,1.5611744,1.8152304,0.07430413,0.045797743,-0.09112246
20231225 03:34:22,-2.292041,2.650477,0.189655,0.437758,-0.132734,-0.252469,5.320480,-30.501396,-0.293007,-165.08263,-2.082616,1.8849835,2.0626383,0.14315303,0.04740873,-0.19489221
20231225 03:34:22,-2.121068,2.892863,-0.099288,0.400471,-0.143388,-0.174699,5.603100,-30.862343,0.135284,-163.68422,-2.1813345,2.2848423,2.2169406,0.16433589,-0.0016505681,-0.22948015
20231225 03:34:22,-1.782188,2.861353,-0.202455,0.282217,-0.197720,-0.109713,5.939888,-30.845055,0.807365,-162.59186,-1.9407587,2.440041,2.0425372,0.14419323,-0.11001023,-0.18877894
20231225 03:34:22,-1.460256,2.621829,0.082510,0.121350,-0.281883,-0.035138,5.975746,-30.464973,0.782913,-162.92001,-1.3765634,2.2971692,1.555188,0.10536868,-0.24784699,-0.123830974
20231225 03:34:22,-0.965820,2.217164,0.356001,-0.017145,-0.319170,0.054351,5.490162,-30.213661,0.359764,-164.98697,-0.6680983,2.0403423,0.859131,0.06423724,-0.3232533,-0.08063291
20231225 03:34:22,-0.393565,1.583100,0.706713,-0.097047,-0.278687,0.127860,5.417290,-30.398155,-0.432747,-166.03703,0.0951429,1.5058124,0.047652245,0.033800848,-0.2920186,-0.07315065
20231225 03:34:22,0.028544,0.892691,1.086277,-0.118354,-0.191328,0.182193,5.550343,-30.106712,-0.316483,-166.41144,0.6880746,0.86357003,-0.67121077,0.02954743,-0.19993173,-0.09612385
20231225 03:34:22,0.340797,0.269572,1.454875,-0.123680,-0.101839,0.212023,5.039017,-30.716125,0.120125,-168.61536,1.1214576,0.2635964,-1.3152636,0.023256645,-0.104180686,-0.11355802
20231225 03:34:22,0.527667,-0.387713,1.786954,-0.121550,-0.044310,0.212023,5.401161,-29.646225,-0.348022,-167.77252,1.3962333,-0.3839861,-1.8288801,0.009761393,-0.04271914,-0.118681364
20231225 03:34:22,0.662915,-0.964773,1.946715,-0.107700,-0.033657,0.191781,4.738468,-30.545227,-0.295937,-169.85767,1.5231725,-0.9569675,-2.1430335,-8.1419945E-5,-0.029863106,-0.11680386
20231225 03:34:22,0.735501,-1.486281,1.906259,-0.086393,-0.025134,0.142775,5.090614,-30.896088,-0.269531,-169.49048,1.5005219,-1.4793334,-2.2453847,-0.012491196,-0.020888861,-0.089910865
20231225 03:34:22,0.733502,-1.898402,1.922874,-0.028864,-0.009154,0.072462,5.099964,-30.992950,0.004837,-169.68814,1.4726651,-1.8946306,-2.3300998,0.005037373,-0.007982738,-0.053413227
20231225 03:34:22,0.557916,-2.127382,1.910194,0.049971,-0.003827,0.002149,4.984844,-31.094353,-0.123665,-169.94992,1.3145905,-2.1279566,-2.2769265,0.04620162,-0.0037417556,-0.02364015
20231225 03:34:22,0.267128,-2.055567,1.888416,0.136265,-0.036853,-0.044726,5.320480,-30.501396,-0.293007,-168.98396,1.096493,-2.0770755,-2.139154,0.10392526,-0.031154787,-0.026043229
20231225 03:34:22,-0.051767,-1.810837,1.702385,0.223623,-0.078401,-0.053249,4.845013,-30.730736,0.119148,-169.7831,0.8286829,-1.8657438,-1.7271949,0.17333671,-0.0629877,-0.073459126
20231225 03:34:22,-0.215149,-1.391399,1.273564,0.296067,-0.095447,-0.015962,4.845779,-31.114517,0.680092,-169.52364,0.5595384,-1.4571595,-1.1554474,0.24557349,-0.074081264,-0.16010803
20231225 03:34:22,-0.147507,-1.018597,0.708978,0.325897,-0.092251,0.055416,4.828232,-31.496437,0.972794,-169.33195,0.3350946,-1.0533111,-0.63215756,0.30051082,-0.075867556,-0.24850918
20231225 03:34:22,0.044405,-0.760451,0.235296,0.297132,-0.091185,0.132121,5.234554,-31.469070,1.242989,-168.25215,0.19795296,-0.7640681,-0.3301795,0.31727117,-0.085420996,-0.29998735
20231225 03:34:22,0.290820,-0.641257,-0.084367,0.226819,-0.079467,0.208827,4.652161,-31.321007,0.959587,-169.32721,0.16857469,-0.6417667,-0.21377923,0.3078453,-0.07954107,-0.31417164
20231225 03:34:22,0.554238,-0.600786,-0.298068,0.140526,-0.049637,0.280205,4.978065,-30.439301,0.235420,-168.07574,0.21405524,-0.62589407,-0.23058976,0.28688335,-0.04651348,-0.3078244
20231225 03:34:22,0.832029,-0.742951,-0.339944,0.046775,0.002565,0.334538,4.889835,-30.255638,0.088585,-168.5077,0.4022916,-0.8086461,-0.37440035,0.24473687,0.016133728,-0.2849938
20231225 03:34:22,1.045127,-1.095673,-0.158062,-0.033126,0.046244,0.359041,4.308212,-30.491356,0.366127,-170.4481,0.6904052,-1.1877469,-0.63092256,0.18427713,0.07062316,-0.26197267
20231225 03:34:22,1.171072,-1.451739,0.152604,-0.084262,0.072878,0.352648,4.159031,-30.030869,0.334587,-170.92589,0.9732259,-1.5458351,-0.95639974,0.12478035,0.10274163,-0.23646124
20231225 03:34:22,1.249039,-1.703115,0.428536,-0.109831,0.082466,0.321753,3.851055,-30.722542,1.046524,-172.23819,1.1864164,-1.792439,-1.2027404,0.07467226,0.112747274,-0.2077345
20231225 03:34:22,1.257806,-1.890000,0.657000,-0.116223,0.075009,0.282336,3.984489,-30.622993,1.443268,-172.16295,1.3081385,-1.9659064,-1.4119943,0.042082876,0.10225543,-0.1766383
20231225 03:34:22,1.182327,-1.894398,0.789088,-0.106635,0.064355,0.248244,4.024940,-31.648056,0.706757,-172.0651,1.3164239,-1.9524814,-1.4875053,0.030780375,0.08680249,-0.15476811
20231225 03:34:22,1.113169,-1.873212,0.842740,-0.089589,0.060094,0.226937,4.069382,-30.981064,0.395721,-171.6605,1.2882838,-1.91953,-1.5108376,0.036484823,0.07902147,-0.14351079
20231225 03:34:22,1.107381,-1.822153,0.854286,-0.078936,0.060094,0.216284,3.232800,-30.954559,0.787582,-173.46898,1.2927399,-1.8666561,-1.4668156,0.041502602,0.07741121,-0.14125851
20231225 03:34:22,1.114207,-1.764729,0.854550,-0.071478,0.057963,0.207761,3.390945,-31.320030,0.813011,-173.278,1.2871177,-1.8156794,-1.4693458,0.043823633,0.076713376,-0.13767014
20231225 03:34:22,1.236194,-1.724444,0.812035,-0.071478,0.046244,0.180062,3.284401,-31.134514,0.397926,-173.30225,1.3629932,-1.7943572,-1.4930265,0.031140726,0.065283,-0.11385499
20231225 03:34:22,1.280142,-1.636280,0.743228,-0.078936,0.037722,0.145971,3.284782,-31.326408,0.678398,-173.39745,1.3730824,-1.7124562,-1.452385,0.009061582,0.055107616,-0.08015597
20231225 03:34:22,1.158658,-1.542849,0.729048,-0.084262,0.054767,0.118272,3.390560,-31.128136,0.532532,-173.00276,1.2844639,-1.5972333,-1.3814778,-0.0077776313,0.0681666,-0.050669838
20231225 03:34:22,0.952060,-1.363338,0.796078,-0.078936,0.079270,0.104422,3.347538,-30.661270,0.635605,-172.9118,1.1712494,-1.3892092,-1.317963,-0.008093458,0.08866459,-0.037429653
20231225 03:34:22,0.743724,-1.177799,0.837325,-0.058694,0.114427,0.112945,3.010361,-30.486671,-0.316948,-173.26743,1.0452452,-1.1851279,-1.2175072,0.014339164,0.11979701,-0.051627
20231225 03:34:22,0.523386,-1.113775,0.901353,-0.037387,0.142126,0.135318,3.010361,-30.486671,-0.316948,-173.25342,0.9094782,-1.1118395,-1.1459965,0.04405419,0.14521228,-0.07874218
20231225 03:34:22,0.341960,-1.010993,1.019316,-0.007557,0.150649,0.161951,3.274670,-30.845757,-0.156906,-172.77441,0.83444905,-1.0080322,-1.1417086,0.082441874,0.15166703,-0.11492325
20231225 03:34:22,0.269657,-0.925327,1.007660,0.037187,0.153845,0.190716,3.143417,-30.195229,-0.200676,-172.8453,0.7790136,-0.9232596,-1.0780172,0.13702536,0.15430073,-0.16223878
20231225 03:34:22,0.260777,-0.833848,0.850864,0.084063,0.171956,0.215219,3.177090,-30.565239,-0.578102,-172.69707,0.6915245,-0.8301281,-0.9299208,0.19275972,0.17265923,-0.20544672
20231225 03:34:22,0.337909,-0.746022,0.709361,0.123481,0.187936,0.226937,3.116524,-30.480286,-0.182335,-172.8132,0.67782784,-0.7429301,-0.845104,0.23464854,0.18856126,-0.23586017
20231225 03:34:22,0.413207,-0.651423,0.527509,0.151180,0.208177,0.225872,2.419769,-30.817406,-0.033287,-174.40791,0.63642067,-0.6516085,-0.7187556,0.25945312,0.20846994,-0.25432009
20231225 03:34:22,0.406206,-0.573412,0.438752,0.174617,0.228419,0.225872,2.792038,-30.228149,0.333862,-173.43188,0.5837346,-0.5742244,-0.64513135,0.27832827,0.22837567,-0.2636053
20231225 03:34:22,0.319405,-0.447081,0.308758,0.196990,0.255053,0.232264,2.367786,-30.445564,0.075890,-174.3566,0.4379828,-0.4478946,-0.4736181,0.3008846,0.2548732,-0.28381824
20231225 03:34:22,0.265714,-0.425605,0.281199,0.226819,0.294471,0.238656,2.288906,-30.358772,0.203407,-174.53091,0.3816303,-0.42576855,-0.41622257,0.32701266,0.29431766,-0.3051526
20231225 03:34:22,0.283420,-0.375420,0.250916,0.256649,0.314712,0.250375,2.299023,-30.839417,1.038712,-174.69086,0.37610495,-0.3759474,-0.39949945,0.35871297,0.31433585,-0.33259732
20231225 03:34:22,0.239495,-0.372845,0.275330,0.281152,0.323235,0.262094,1.965187,-30.490410,1.280548,-175.39102,0.35955763,-0.3728589,-0.38722533,0.38393497,0.32316262,-0.36033663
20231225 03:34:22,0.237930,-0.314608,0.188901,0.298198,0.318974,0.283401,2.132679,-30.952744,1.580338,-175.09854,0.30284038,-0.31487128,-0.3175729,0.41140077,0.31876546,-0.38690692
20231225 03:34:22,0.270267,-0.307817,0.113281,0.308851,0.302993,0.304708,1.745441,-31.365746,2.139328,-176.10725,0.2767865,-0.30937484,-0.27723,0.4350451,0.30252463,-0.41605425
20231225 03:34:22,0.393045,-0.344707,-0.018832,0.313112,0.288078,0.321753,1.814205,-30.971878,1.176506,-175.78368,0.27763367,-0.35316926,-0.26318458,0.45263377,0.28728035,-0.43165857
20231225 03:34:22,0.469962,-0.355285,-0.193598,0.301394,0.265706,0.332407,1.499065,-30.816612,1.967056,-176.65274,0.21080102,-0.3740355,-0.18582183,0.4532419,0.26541787,-0.43673602
20231225 03:34:22,0.532611,-0.426684,-0.309241,0.269433,0.258249,0.341995,1.560017,-31.093445,1.851768,-176.57185,0.17112099,-0.4588457,-0.14839254,0.43848515,0.2595225,-0.4224287
20231225 03:34:22,0.665452,-0.421284,-0.412551,0.223623,0.242269,0.345191,1.014252,-30.949081,2.104858,-177.98335,0.18984032,-0.47767,-0.15803573,0.40990776,0.24676445,-0.3990111
20231225 03:34:22,0.782366,-0.498236,-0.507020,0.162898,0.232680,0.341995,0.838943,-31.157425,2.652596,-178.65222,0.20522228,-0.58297694,-0.1622802,0.36477327,0.24208549,-0.3582347
20231225 03:34:22,0.886843,-0.613439,-0.505056,0.098977,0.230550,0.326015,1.288670,-31.788811,3.100197,-177.88962,0.28798896,-0.7150738,-0.22719485,0.30515027,0.24421556,-0.30314168
20231225 03:34:22,0.910778,-0.704718,-0.313542,0.043579,0.222027,0.299381,0.503307,-31.750389,2.821930,-179.55222,0.44735134,-0.7951874,-0.35184497,0.24032569,0.23757866,-0.25559646
20231225 03:34:22,0.911698,-0.906670,-0.116506,0.003096,0.201785,0.267421,0.459133,-30.707848,2.083588,-179.43042,0.5873942,-0.97954774,-0.48184067,0.17997307,0.21687287,-0.20996264
20231225 03:34:22,0.937363,-1.059941,0.108614,-0.017145,0.169825,0.223741,0.723049,-30.875053,1.963150,-178.85136,0.75362355,-1.1239266,-0.6626579,0.12902653,0.18378517,-0.1667304
20231225 03:34:22,0.941879,-1.204721,0.282005,-0.007557,0.122949,0.166213,0.511116,-31.079704,1.974403,-179.33992,0.85354644,-1.2601353,-0.79272693,0.09849215,0.13305455,-0.12891662
20231225 03:34:22,0.923417,-1.252111,0.226473,0.024403,0.106969,0.105488,0.344006,-30.809250,1.955086,-179.68912,0.80402535,-1.3085116,-0.7313918,0.08785907,0.11073966,-0.0992208
20231225 03:34:22,0.925313,-1.263620,0.199796,0.077671,0.124015,0.046894,0.201988,-31.195709,1.844933,-179.95724,0.78812563,-1.3189641,-0.711796,0.09745023,0.1200161,-0.08382343
20231225 03:34:22,0.860968,-1.152563,0.134137,0.143722,0.162367,-0.009570,0.186245,-30.635666,2.210136,179.97237,0.70224476,-1.2018551,-0.62927794,0.11718377,0.15097524,-0.079798535
20231225 03:34:22,0.793732,-1.000902,0.056325,0.206578,0.193262,-0.062837,0.176899,-30.538803,1.935768,-179.93217,0.60578316,-1.042216,-0.54267144,0.13077399,0.17751734,-0.08046325
20231225 03:34:22,0.746478,-0.868073,-0.060285,0.250257,0.213504,-0.113974,0.514458,-30.905289,3.168793,-179.32909,0.4945979,-0.90699315,-0.44266963,0.12732671,0.19527115,-0.07218888
20231225 03:34:22,0.620295,-0.640281,-0.135476,0.281152,0.222027,-0.159784,0.699112,-30.793808,2.895409,-178.72614,0.3523201,-0.6669173,-0.32183534,0.11124197,0.2060839,-0.063895
20231225 03:34:22,0.579071,-0.548666,-0.210979,0.300328,0.222027,-0.200267,0.381790,-31.388611,3.332993,-179.47295,0.27189267,-0.5732529,-0.23571059,0.09508367,0.20610374,-0.051419795
20231225 03:34:22,0.566863,-0.393864,-0.105579,0.320570,0.204981,-0.243946,0.849445,-31.829964,3.768372,-178.41103,0.33808267,-0.41006932,-0.31283334,0.07658522,0.19140257,-0.032281592
20231225 03:34:22,0.455669,-0.243297,-0.010682,0.363184,0.181544,-0.274842,1.060608,-31.241539,3.196175,-177.58566,0.32539746,-0.24392858,-0.31073317,0.07803242,0.18070146,-0.041650042
20231225 03:34:23,0.181989,-0.077170,-0.005957,0.426039,0.154910,-0.278038,1.387669,-30.935493,3.313423,-176.35976,0.12695107,-0.07102182,-0.1279661,0.099782035,0.17748266,-0.09816927
20231225 03:34:23,-0.126295,0.332858,-0.216752,0.484634,0.157041,-0.232228,1.115170,-31.055199,3.720444,-176.39406,-0.26922578,0.33882952,0.2522563,0.1391187,0.20468692,-0.20040044
20231225 03:34:23,-0.439706,0.793092,-0.552206,0.513398,0.179413,-0.134216,1.230289,-30.953804,3.848930,-175.3773,-0.7948414,0.80701184,0.7284224,0.19897749,0.24254918,-0.30548146
20231225 03:34:23,-0.695900,1.030756,-0.894830,0.501679,0.191132,-0.022354,1.099808,-30.687050,4.366112,-174.84355,-1.2830613,1.0707275,1.1447768,0.25055268,0.25003365,-0.3796796
20231225 03:34:23,-0.791048,1.218872,-1.221126,0.451608,0.201785,0.085246,1.284847,-30.767464,4.373199,-174.04018,-1.6420512,1.3077362,1.4141517,0.29099953,0.23657146,-0.4075174
20231225 03:34:23,-0.665346,1.190100,-1.430569,0.384491,0.209243,0.167278,1.266918,-30.957504,4.385429,-174.25278,-1.7242657,1.3232125,1.4080627,0.31705248,0.21931817,-0.40073538
20231225 03:34:23,-0.511744,1.106455,-1.594277,0.295002,0.198589,0.225872,0.721531,-31.005028,4.918983,-175.8522,-1.7497693,1.2637205,1.3357193,0.32025668,0.19115235,-0.3622367
20231225 03:34:23,-0.262684,0.983729,-1.740116,0.194859,0.179413,0.256767,0.430336,-30.930992,4.777290,-177.35512,-1.6889607,1.1235068,1.1838927,0.30337325,0.16609469,-0.2980132
20231225 03:34:23,-0.012831,0.775161,-1.811755,0.079801,0.147453,0.261029,0.906956,-31.277328,5.206551,-176.52542,-1.5785586,0.8835795,1.007401,0.25342953,0.13418826,-0.20245916
20231225 03:34:23,0.184492,0.644355,-1.912960,-0.039518,0.139995,0.237591,0.600784,-31.027031,5.990990,-177.88974,-1.5318798,0.7008806,0.8835956,0.17518091,0.1325571,-0.09138571
20231225 03:34:23,0.318580,0.558065,-1.938805,-0.160967,0.158106,0.198173,0.413559,-31.696701,5.630928,-178.63423,-1.465371,0.5927694,0.790076,0.076690346,0.1531742,0.029928423
20231225 03:34:23,0.332829,0.571136,-1.829424,-0.271764,0.209243,0.155559,0.201626,-31.901352,5.642181,-179.03453,-1.3544847,0.6237836,0.7391622,-0.026070327,0.2004731,0.14242755
20231225 03:34:23,0.169904,0.644195,-1.584066,-0.359122,0.277425,0.115076,0.368351,-31.979912,5.381020,-178.07501,-1.2294297,0.7459638,0.7896956,-0.13097659,0.25419155,0.23180777
20231225 03:34:23,-0.150305,0.751320,-1.179525,-0.408128,0.338150,0.090573,0.084579,-31.043304,4.111328,-178.34254,-1.1024673,0.8586266,0.84552574,-0.21140796,0.2922094,0.27632588
20231225 03:34:23,-0.543180,0.899207,-0.751994,-0.418782,0.396744,0.100161,0.024014,-30.958366,4.507080,-177.97469,-1.0388877,0.9265195,0.91732657,-0.24413861,0.3300464,0.26844946
20231225 03:34:23,-0.794345,0.915450,-0.284717,-0.395344,0.398875,0.133187,-0.154247,-31.533012,4.140915,-178.3647,-0.8701111,0.8355072,0.80335146,-0.2212188,0.3186647,0.21849166
20231225 03:34:23,-0.923654,1.001070,-0.055389,-0.349534,0.366914,0.186454,0.075230,-30.946434,3.836960,-177.9319,-0.8047713,0.86570543,0.75074023,-0.15098594,0.2848288,0.14599514
20231225 03:34:23,-0.888973,0.989785,0.006909,-0.298397,0.337085,0.245048,-0.215965,-30.872414,3.695267,-178.8517,-0.7231514,0.8629865,0.6713422,-0.06553432,0.26116067,0.06366168
20231225 03:34:23,-0.661732,1.036787,-0.032554,-0.245130,0.317908,0.301512,-0.506783,-30.990265,3.834030,-179.84056,-0.57614493,0.96448916,0.5203325,0.026807055,0.25707397,-0.014437884
20231225 03:34:23,-0.332425,0.965206,-0.152218,-0.212104,0.293405,0.345191,-0.824486,-31.393181,3.991142,178.94849,-0.40295213,0.95068544,0.33917665,0.098895565,0.2533007,-0.069654316
20231225 03:34:23,0.080097,0.757935,-0.418134,-0.207843,0.268902,0.369694,-0.957157,-31.876511,4.155350,178.0163,-0.2835877,0.7690728,0.193564,0.13950871,0.25583175,-0.08809398
20231225 03:34:23,0.525028,0.606406,-0.631041,-0.225954,0.269968,0.360106,-0.726910,-31.673714,4.412338,177.90802,-0.12665266,0.57934624,-0.0071445107,0.13520263,0.28353116,-0.066652894
20231225 03:34:23,0.839218,0.530934,-0.775493,-0.252587,0.299797,0.314296,-1.036041,-31.789711,4.282867,176.82616,-0.027493596,0.45640174,-0.1645199,0.09294343,0.3252798,-0.018719956
20231225 03:34:23,0.886160,0.534219,-0.818307,-0.277090,0.345607,0.253571,-1.346317,-31.330055,3.311981,176.16154,-0.028393388,0.46833247,-0.17141658,0.02839145,0.3653551,0.032899603
20231225 03:34:23,0.722928,0.556316,-0.718962,-0.297332,0.389287,0.203500,-1.662605,-30.599121,3.261124,175.64388,-0.05941263,0.53896856,-0.101346314,-0.037128553,0.3951525,0.07125376
20231225 03:34:23,0.487299,0.613200,-0.496334,-0.298397,0.412724,0.166213,-1.353863,-30.291229,3.110123,176.75282,-0.058219492,0.6303923,-0.057735264,-0.08193767,0.40452403,0.09707426
20231225 03:34:23,0.270339,0.784516,-0.355037,-0.273894,0.427639,0.148102,-1.487301,-30.390770,2.713379,176.60501,-0.11878729,0.80939394,0.0034983605,-0.09098883,0.40961564,0.08893786
20231225 03:34:23,0.043966,0.843449,-0.252587,-0.229150,0.439358,0.143840,-1.347469,-30.754395,2.470566,177.1445,-0.21154946,0.8591809,0.10869503,-0.076326326,0.41485322,0.058504075
20231225 03:34:23,-0.090192,0.996633,-0.120435,-0.164163,0.445750,0.159821,-1.707813,-30.882324,3.011208,176.5642,-0.22736046,0.99417657,0.10751188,-0.026465185,0.41921443,-0.002456285
20231225 03:34:23,-0.153072,1.151920,-0.120284,-0.102373,0.453207,0.184324,-2.317104,-31.019333,2.746147,174.96826,-0.28426006,1.1439375,0.12707826,0.032676637,0.42829093,-0.071373925
20231225 03:34:23,-0.121541,1.340673,-0.125660,-0.061890,0.440423,0.209892,-2.344383,-31.112503,2.484024,174.65178,-0.27939472,1.335322,0.092856355,0.0846965,0.4174436,-0.114327535
20231225 03:34:23,-0.055082,1.584350,-0.236888,-0.092785,0.389287,0.235460,-2.317490,-30.827446,2.465683,174.47313,-0.3274035,1.5912873,0.09529893,0.09585865,0.36613464,-0.10021093
20231225 03:34:23,0.150525,1.795016,-0.277623,-0.202516,0.280621,0.270617,-2.123486,-30.812836,2.466660,174.61023,-0.18699917,1.8074707,-0.05001381,0.07410006,0.26469275,-0.027016506
20231225 03:34:23,0.555877,1.683742,-0.253039,-0.346338,0.186870,0.301512,-2.607151,-31.520966,3.445862,173.23001,0.20190862,1.6664314,-0.3921771,0.012875095,0.20041034,0.059027478
20231225 03:34:23,1.139110,1.486958,-0.020880,-0.468853,0.141060,0.300446,-2.652359,-31.804176,3.195961,172.77147,0.8774627,1.3893722,-0.9522057,-0.08499718,0.20062812,0.13228172
20231225 03:34:23,1.736588,1.248875,0.432522,-0.553016,0.142126,0.236526,-3.191734,-32.122978,2.809486,171.65671,1.686576,1.0762945,-1.6464431,-0.21817258,0.23261185,0.20231453
20231225 03:34:23,2.010647,0.996121,0.946665,-0.609479,0.139995,0.104422,-2.540573,-31.877182,2.130074,173.5249,2.237657,0.83505553,-2.1135967,-0.37741098,0.22501926,0.30951256
20231225 03:34:23,1.918342,0.708190,1.525709,-0.639309,0.144256,-0.075621,-2.814610,-31.229347,1.415199,173.30255,2.4958866,0.6369455,-2.4417286,-0.5385829,0.19675931,0.4408818
20231225 03:34:23,1.372693,0.631548,2.150368,-0.615871,0.149583,-0.248208,-2.815380,-30.845566,0.854256,173.57394,2.3947139,0.6373458,-2.5911317,-0.6395263,0.1618157,0.551016
20231225 03:34:23,0.550077,0.572975,2.644644,-0.550885,0.168759,-0.346220,-2.754814,-30.930496,0.458488,173.99884,1.9225887,0.5119731,-2.5327551,-0.6553865,0.15337293,0.58017325
20231225 03:34:23,-0.369366,0.426086,3.061774,-0.435827,0.184740,-0.361135,-2.410591,-30.050644,0.002563,174.6589,1.2833095,0.15967958,-2.4093518,-0.5730454,0.15960824,0.5226135
20231225 03:34:23,-1.085272,0.349536,3.517316,-0.283482,0.158106,-0.316390,-2.278957,-30.893051,0.326813,175.368,0.8129005,-0.16903701,-2.4725106,-0.41818255,0.1402854,0.4053039
20231225 03:34:23,-1.537960,0.253786,3.611390,-0.097047,0.104839,-0.229032,-2.048328,-30.882141,0.864273,176.20581,0.4267553,-0.44041654,-2.346057,-0.20829391,0.10930708,0.24025103
20231225 03:34:23,-1.746034,0.064777,3.269948,0.090455,0.066486,-0.118235,-2.217239,-31.553658,0.772461,175.94974,0.08898103,-0.67729104,-1.9389193,0.012227617,0.096929625,0.052123934
20231225 03:34:23,-1.715147,-0.207534,2.778191,0.239603,0.024937,0.013868,-2.180996,-31.365463,1.028481,176.14673,-0.078876495,-0.89435756,-1.5015941,0.21007812,0.07196986,-0.13526653
20231225 03:34:23,-1.469127,-0.690784,2.047115,0.315243,-0.037918,0.137448,-2.074841,-31.359085,1.163086,176.37991,-0.17781317,-1.1888862,-0.97981316,0.34396446,0.0083013885,-0.27588755
20231225 03:34:23,-1.112216,-1.232937,1.330628,0.317374,-0.118885,0.246114,-2.268074,-31.757477,1.723053,176.21329,-0.17736411,-1.5298665,-0.51292574,0.4076458,-0.08718647,-0.36556602
20231225 03:34:23,-0.709957,-1.665598,0.645239,0.233211,-0.236073,0.341995,-2.452347,-32.060844,2.276909,175.92548,-0.15150648,-1.7934561,-0.08999577,0.391834,-0.22892192,-0.39793074
20231225 03:34:23,-0.249319,-2.159315,-0.014791,0.077671,-0.360719,0.414439,-2.381012,-31.108803,1.947525,175.57419,-0.11729714,-2.1694202,0.2810545,0.28952932,-0.37265506,-0.37324658
20231225 03:34:23,0.268867,-2.651768,-0.579455,-0.100243,-0.456600,0.432550,-2.833694,-30.843719,0.586014,174.09366,-0.027044892,-2.6446056,0.6139423,0.12396973,-0.4605442,-0.287257
20231225 03:34:23,0.805748,-2.914448,-0.855721,-0.271764,-0.494952,0.389936,-2.954826,-30.673828,1.377548,173.70874,0.21198228,-2.990473,0.65951926,-0.07673535,-0.4614539,-0.16825388
20231225 03:34:23,1.284111,-3.190349,-1.005010,-0.386821,-0.439554,0.288728,-3.467304,-30.707581,0.972740,172.67949,0.51264787,-3.3934054,0.7020694,-0.25221074,-0.36344808,-0.0384143
20231225 03:34:23,1.602644,-3.313658,-0.951709,-0.443285,-0.290406,0.124664,-3.185459,-30.684738,0.840073,173.31494,0.8214577,-3.5945256,0.5467372,-0.37437198,-0.20315513,0.10187867
20231225 03:34:23,1.671199,-3.227000,-0.565373,-0.440089,-0.096512,-0.082013,-3.167526,-30.494698,0.827850,173.35608,1.0989567,-3.4490378,0.16454366,-0.44030017,-0.041762162,0.2654943
20231225 03:34:23,1.257834,-2.803245,0.077657,-0.426239,0.043048,-0.275907,-3.407124,-30.600632,0.296501,172.97504,1.1188707,-2.847984,-0.29753578,-0.5023833,0.054468315,0.42502445
20231225 03:34:23,0.379911,-2.275132,0.741795,-0.418782,0.080336,-0.415467,-2.976093,-31.038284,0.195381,173.94476,0.7406967,-2.2699194,-0.6155571,-0.56319994,0.06790472,0.55012757
20231225 03:34:23,-0.428814,-1.604991,1.206918,-0.385756,0.101643,-0.468735,-2.773129,-30.928650,0.190247,174.35555,0.30607462,-1.7282568,-0.71211517,-0.5673995,0.08347121,0.5852245
20231225 03:34:23,-1.122159,-0.989442,1.623569,-0.319704,0.114427,-0.441036,-2.569389,-31.202805,0.746056,175.15733,-0.089126945,-1.3442519,-0.78043103,-0.5027655,0.09900333,0.5315993
20231225 03:34:23,-1.720093,-0.557717,1.833460,-0.235542,0.124015,-0.351547,-2.278576,-31.084946,0.607285,175.7218,-0.5028565,-1.1612347,-0.65972257,-0.39213517,0.11381192,0.4137166
20231225 03:34:23,-2.078633,-0.174805,1.945565,-0.144987,0.132538,-0.200267,-1.954090,-31.337082,0.091080,176.09735,-0.7793597,-0.9551828,-0.5669478,-0.24321091,0.12156962,0.23835278
20231225 03:34:23,-2.160991,-0.011155,1.965206,-0.045910,0.148518,-0.013831,-2.148861,-30.967918,-0.470833,175.2541,-0.8485696,-0.79604626,-0.5350094,-0.06736508,0.13413517,0.025329608
20231225 03:34:23,-1.909467,0.004452,1.981605,0.060625,0.152779,0.171539,-2.421749,-30.895729,-0.344292,174.73605,-0.6136247,-0.637801,-0.67492104,0.11975768,0.13898048,-0.18909852
20231225 03:34:23,-1.408814,-0.194792,1.789297,0.160768,0.151714,0.313231,-2.888248,-31.030060,0.061745,173.96654,-0.26004022,-0.58779204,-0.7602372,0.28344533,0.14404815,-0.3631365
20231225 03:34:23,-0.769046,-0.516637,1.603543,0.250257,0.152779,0.396328,-2.498055,-30.250755,0.416672,174.7269,0.19145882,-0.69398534,-0.9331329,0.40733927,0.15295298,-0.4792052
20231225 03:34:23,-0.211761,-0.873348,1.316065,0.328027,0.150649,0.424027,-3.124123,-31.153458,1.005257,173.66994,0.51823497,-0.9324769,-0.9350264,0.49215305,0.1550382,-0.5440424
20231225 03:34:23,0.180066,-1.043539,1.096067,0.391948,0.131472,0.409112,-3.415321,-31.079430,0.863556,172.88951,0.73462915,-1.0557495,-0.914559,0.54436046,0.13531154,-0.5637097
20231225 03:34:23,0.546577,-1.188855,0.758379,0.433497,0.101643,0.363302,-3.009384,-30.860168,0.853279,173.56108,0.8616151,-1.1890713,-0.81501824,0.55995077,0.10104228,-0.54473066
20231225 03:34:23,0.668961,-1.235611,0.416506,0.453738,0.065421,0.300446,-3.442982,-30.980705,0.320953,172.46935,0.77981144,-1.2394388,-0.576455,0.5445983,0.062877774,-0.5049328
20231225 03:34:23,0.718235,-1.141832,0.093104,0.454804,0.038787,0.245048,-3.457958,-30.804459,1.247093,172.34053,0.6303322,-1.1498317,-0.36538684,0.5131861,0.03527073,-0.46496373
20231225 03:34:23,0.675360,-1.042740,-0.232158,0.439889,0.019611,0.201369,-3.976833,-30.375031,1.481842,170.96165,0.39146084,-1.0516365,-0.09237735,0.47266117,0.016562622,-0.42597657
20231225 03:34:23,0.631710,-0.968597,-0.406927,0.420713,0.017480,0.166213,-3.605984,-30.919632,2.056969,171.966,0.2443794,-0.97305024,0.036051005,0.4340395,0.016108416,-0.3904181
20231225 03:34:23,0.559065,-0.945598,-0.479494,0.411124,0.016415,0.134252,-3.844429,-31.601219,2.367027,171.67825,0.14113379,-0.94085115,0.12846074,0.4048999,0.017938556,-0.3623085
20231225 03:34:23,0.474184,-0.912046,-0.559549,0.396210,0.004696,0.091638,-3.674362,-31.505371,3.300262,172.23492,0.022845685,-0.8990792,0.22403568,0.36457935,0.009113386,-0.3217104
20231225 03:34:23,0.393652,-0.838393,-0.679006,0.352530,-0.027265,0.045828,-3.984257,-31.237602,2.609848,171.30637,-0.12522894,-0.8146125,0.35002732,0.29812056,-0.019744752,-0.2605786
20231225 03:34:23,0.251220,-0.765556,-0.770531,0.273695,-0.070944,0.013868,-3.735699,-31.036652,3.135078,172.0236,-0.29399085,-0.7295116,0.4870331,0.2170599,-0.060976267,-0.18362506
20231225 03:34:23,0.131601,-0.743873,-0.872267,0.178879,-0.102904,-0.001047,-3.948017,-31.049408,2.865860,171.55238,-0.44742134,-0.6993599,0.6403287,0.1375326,-0.09414538,-0.10653125
20231225 03:34:23,0.104658,-0.786866,-0.776811,0.086193,-0.107166,-0.019158,-3.657589,-30.739670,2.446617,172.0914,-0.3902542,-0.74683124,0.59946114,0.057698216,-0.10181552,-0.030332316
20231225 03:34:23,0.045829,-0.813397,-0.522572,0.005227,-0.105035,-0.062837,-3.587284,-31.113373,2.605682,172.56659,-0.25536364,-0.7840935,0.4546023,-0.030588685,-0.101507835,0.055568516
20231225 03:34:23,-0.124282,-0.810195,-0.183014,-0.048041,-0.097578,-0.118235,-3.533497,-30.543251,2.569008,172.8995,-0.15495455,-0.8036946,0.29872972,-0.10344998,-0.093165755,0.13164005
20231225 03:34:23,-0.454681,-0.758060,0.219800,-0.068282,-0.082663,-0.152326,-3.420944,-31.000038,2.064056,173.38364,-0.16951604,-0.824187,0.16417757,-0.13690092,-0.07639394,0.1699948
20231225 03:34:23,-0.862996,-0.721863,0.594662,-0.048041,-0.077336,-0.152326,-3.630310,-30.646500,2.708748,173.53694,-0.2949162,-0.9046928,0.077231556,-0.11688994,-0.06702942,0.15868703
20231225 03:34:23,-1.122310,-0.750130,0.872511,0.014815,-0.076271,-0.120366,-3.402248,-31.193779,2.612778,174.19754,-0.36503452,-1.019487,-0.02611363,-0.04530819,-0.058710285,0.09719813
20231225 03:34:23,-1.166006,-0.757564,0.965542,0.108566,-0.082663,-0.063903,-3.444885,-30.918793,2.996307,174.22678,-0.33505034,-1.0426596,-0.06423533,0.06303501,-0.05599496,-0.0026187934
20231225 03:34:23,-1.075292,-0.681432,0.725008,0.194859,-0.089055,0.003214,-3.526337,-31.390198,2.490387,173.67683,-0.3732994,-0.90751845,0.11384261,0.16877833,-0.059052955,-0.10970926
20231225 03:34:23,-0.781696,-0.637813,0.332374,0.248126,-0.096512,0.066070,-3.975292,-31.142586,2.603729,172.32649,-0.35041547,-0.750616,0.29422405,0.24380171,-0.07306912,-0.19535486
20231225 03:34:23,-0.335346,-0.590693,-0.154364,0.264106,-0.101839,0.096965,-3.583565,-31.130844,4.080544,173.11841,-0.31922632,-0.60228914,0.3884891,0.2693051,-0.088851996,-0.23591158
20231225 03:34:23,0.072273,-0.472362,-0.594096,0.239603,-0.103970,0.092704,-3.610458,-31.415901,4.098885,172.34721,-0.34463027,-0.4539913,0.42181632,0.240134,-0.09962602,-0.22181374
20231225 03:34:23,0.352901,-0.263446,-0.948662,0.216166,-0.103970,0.078854,-3.945713,-32.200745,4.548683,171.59691,-0.41656122,-0.24405359,0.44194764,0.21021011,-0.10190326,-0.19719222
20231225 03:34:23,0.432385,0.074085,-1.170234,0.095781,-0.097578,0.010672,-3.673214,-32.081039,4.141678,171.44855,-0.59640753,0.08128805,0.4292588,0.07155079,-0.097235516,-0.069484584
20231225 03:34:23,0.381646,0.489583,-1.208470,-0.006492,-0.078401,-0.041530,-3.389561,-31.116234,4.081520,171.91667,-0.69354934,0.5195882,0.4285594,-0.034503147,-0.077661484,0.038363244
20231225 03:34:23,0.209423,0.961657,-1.035518,-0.088524,-0.038983,-0.087340,-3.541313,-31.213936,3.416527,171.65106,-0.7138621,1.0191758,0.39899302,-0.12160804,-0.038176022,0.12683235
20231225 03:34:23,-0.164368,1.342259,-0.645142,-0.123680,0.010023,-0.118235,-3.629925,-30.838387,2.989220,171.81561,-0.7143188,1.3781699,0.4156014,-0.17050162,0.0110836355,0.16912603
20231225 03:34:23,-0.570334,1.599374,-0.252306,-0.113027,0.066486,-0.117170,-3.418373,-30.441849,2.697495,172.78584,-0.7813579,1.5381743,0.45882106,-0.17022875,0.06762052,0.15616262
20231225 03:34:23,-1.055641,1.701540,0.174496,-0.069348,0.106969,-0.073491,-3.524151,-30.640121,2.843361,173.23709,-0.8771668,1.4679028,0.5124446,-0.11712201,0.10559049,0.09188226
20231225 03:34:23,-1.342199,1.667808,0.532205,0.007358,0.130407,0.006410,-3.435535,-31.015663,3.270668,174.13332,-0.86927116,1.2995224,0.45196316,-0.01255866,0.12673746,-0.019150382
20231225 03:34:23,-1.488981,1.379065,0.770279,0.102174,0.129342,0.107618,-3.311447,-30.819252,3.393051,174.58261,-0.8066855,0.95378345,0.3549708,0.12499492,0.12601602,-0.15698545
20231225 03:34:23,-1.379949,0.947429,0.923077,0.190597,0.084597,0.209892,-3.726349,-31.133522,3.409439,173.61447,-0.57659954,0.58054185,0.13739634,0.26685935,0.083864525,-0.2895698
20231225 03:34:23,-0.961503,0.467392,0.882266,0.253453,-0.001696,0.287662,-4.192856,-31.267845,3.815475,172.29721,-0.2163372,0.28041184,-0.098932266,0.3774281,-4.1636266E-4,-0.3811223
20231225 03:34:23,-0.277960,-0.044518,0.682271,0.291806,-0.101839,0.315361,-3.936749,-32.105728,4.542572,172.38704,0.22019397,-0.07566945,-0.34060907,0.42862958,-0.1005338,-0.4163882
20231225 03:34:23,0.419913,-0.488141,0.357934,0.305655,-0.184936,0.281270,-4.413368,-31.759392,4.113319,170.54143,0.5426157,-0.49086204,-0.47626287,0.41110426,-0.18661137,-0.38433093
20231225 03:34:24,0.886152,-0.823138,0.046472,0.301394,-0.222223,0.248244,-4.332684,-30.904221,4.058296,169.94025,0.6737829,-0.87991834,-0.47753638,0.37716717,-0.22857292,-0.3489061
20231225 03:34:24,1.175185,-1.074168,-0.110191,0.271564,-0.302124,0.107618,-4.130100,-30.602707,3.772682,170.00189,0.7669365,-1.1910734,-0.50040346,0.2551088,-0.3181776,-0.21089904
20231225 03:34:24,1.345671,-1.146033,-0.272322,0.263041,-0.314909,-0.005308,-3.986931,-30.791908,4.724258,170.14423,0.7768403,-1.306314,-0.48321223,0.173593,-0.34109193,-0.11909735
20231225 03:34:24,1.293501,-1.128437,-0.364935,0.272629,-0.297863,-0.111843,-4.286713,-31.004784,4.869141,169.6522,0.67758775,-1.2748489,-0.38885555,0.11596447,-0.33104658,-0.047116898
20231225 03:34:24,1.139729,-1.063731,-0.365374,0.300328,-0.284013,-0.206659,-4.207829,-31.091576,4.741623,169.89098,0.5564008,-1.181397,-0.3210617,0.07536423,-0.3230376,-0.0012653619
20231225 03:34:24,1.012909,-0.962639,-0.423482,0.314178,-0.278687,-0.254600,-3.968231,-30.985649,5.272972,170.42278,0.42621428,-1.0647889,-0.2252067,0.05337611,-0.31876117,0.019590437
20231225 03:34:24,0.831684,-0.729488,-0.450833,0.348269,-0.289340,-0.418664,-3.580608,-30.764542,4.994453,171.40558,0.26409215,-0.7823681,-0.16968167,-0.046646044,-0.32088834,0.09213112
20231225 03:34:24,0.588144,-0.401903,-0.575086,0.354661,-0.302124,-0.527329,-3.386219,-30.941826,5.275902,172.10252,-0.008115679,-0.42148852,0.014932126,-0.13517492,-0.31701538,0.1395524
20231225 03:34:24,0.294468,-0.010440,-0.655688,0.352530,-0.315974,-0.632798,-3.271099,-30.840424,5.404404,172.94603,-0.29167256,0.016719004,0.21523315,-0.22688967,-0.2877168,0.18182926
20231225 03:34:24,-0.183270,0.462199,-0.769848,0.342942,-0.315974,-0.715896,-2.434132,-31.058815,5.293007,176.18417,-0.754673,0.5277972,0.61346436,-0.28697604,-0.19732726,0.2083656
20231225 03:34:24,-0.963098,0.913339,-0.779199,0.333354,-0.317039,-0.730811,-2.582924,-30.790222,5.541946,177.68698,-1.3818514,0.88146186,1.2154663,-0.27506196,-0.09110904,0.20091733
20231225 03:34:24,-1.643283,1.352373,-0.901712,0.316308,-0.313843,-0.665824,-2.078644,-31.235268,6.513809,-178.90953,-2.061022,1.1517316,1.8679106,-0.20630684,-0.02650696,0.15145409
20231225 03:34:24,-2.154286,1.523577,-0.953115,0.312047,-0.290406,-0.546505,-1.525063,-30.708939,5.413193,-177.71095,-2.5109198,1.1413988,2.3254247,-0.103859335,0.0025730878,0.0783892
20231225 03:34:24,-2.381677,1.512471,-1.023659,0.308851,-0.266968,-0.402683,-1.240257,-30.319801,6.194450,-175.93144,-2.720374,1.0579238,2.572251,2.462864E-4,-0.011225447,-0.008395895
20231225 03:34:24,-2.440181,1.293234,-1.056043,0.298198,-0.257380,-0.249273,-1.382660,-30.514374,5.803818,-176.93146,-2.7018905,0.8666052,2.6092656,0.09682816,-0.067447044,-0.08699779
20231225 03:34:24,-2.085609,0.960022,-1.055675,0.280087,-0.266968,-0.107582,-1.240257,-30.319801,6.194450,-177.41507,-2.3401914,0.72506773,2.3153343,0.17118934,-0.15595461,-0.15959905
20231225 03:34:24,-1.438612,0.680950,-1.078223,0.252388,-0.301059,-0.007439,-1.345646,-30.709961,6.620781,-178.91354,-1.8483653,0.64562714,1.8052132,0.21314059,-0.24730523,-0.19738592
20231225 03:34:24,-0.737480,0.304101,-1.213077,0.202316,-0.341542,0.053286,-1.576279,-30.720871,6.083313,178.55492,-1.4353828,0.37870437,1.3239009,0.20841736,-0.32430607,-0.18676192
20231225 03:34:24,-0.123017,-0.044271,-1.365892,0.130938,-0.368176,0.071397,-1.000278,-30.405754,7.006279,178.47606,-1.1484784,0.00615428,0.9389319,0.15144734,-0.3664773,-0.14107235
20231225 03:34:24,0.365683,-0.250266,-1.430480,0.039318,-0.385222,0.058612,-1.257420,-30.893608,6.767616,176.57463,-0.8920754,-0.2928102,0.61825657,0.060762577,-0.38435817,-0.052879076
20231225 03:34:24,0.722093,-0.418290,-1.353130,-0.049106,-0.401202,0.017064,-1.133327,-30.697205,6.889999,175.9988,-0.58987755,-0.5515606,0.34079874,-0.04634142,-0.39554182,0.044554885
20231225 03:34:24,0.974322,-0.474508,-1.212859,-0.139660,-0.431031,-0.046857,-1.389706,-31.568832,7.212288,174.852,-0.31761283,-0.6771846,0.08312589,-0.16992033,-0.4197324,0.16142751
20231225 03:34:24,1.149795,-0.450118,-1.093606,-0.227019,-0.465123,-0.142738,-1.062263,-31.454674,7.610008,175.15865,-0.10747087,-0.6886083,-0.12190151,-0.309666,-0.4530361,0.2903507
20231225 03:34:24,1.129428,-0.304976,-0.992370,-0.297332,-0.468319,-0.268449,-0.896690,-30.957573,6.507439,176.28552,-0.01886046,-0.4743972,-0.17925555,-0.43704644,-0.46575865,0.42025167
20231225 03:34:24,0.735499,-0.000060,-0.714082,-0.337815,-0.452338,-0.381376,-0.930744,-30.395676,6.604393,177.39575,-0.050524026,-0.032081835,-0.08149588,-0.5199791,-0.45410407,0.51882154
20231225 03:34:24,0.181362,0.397498,-0.395547,-0.347403,-0.419313,-0.454885,-0.730347,-30.844238,5.965813,179.08734,-0.19314271,0.42012182,0.1211112,-0.5528934,-0.41242647,0.5657324
20231225 03:34:24,-0.386671,0.813633,-0.056362,-0.335685,-0.398006,-0.482584,-0.130791,-30.418488,5.676041,-178.63843,-0.37548208,0.7801594,0.3386854,-0.5434526,-0.377813,0.56551576
20231225 03:34:24,-0.821816,1.055690,0.194742,-0.309051,-0.391614,-0.481519,-0.491905,-30.162651,5.655746,-178.68138,-0.55736995,0.9081113,0.49183187,-0.50424194,-0.35759297,0.54677665
20231225 03:34:24,-1.265618,1.280762,0.399580,-0.261110,-0.375633,-0.452755,0.002647,-30.318932,6.072784,-176.82664,-0.7844651,0.98637265,0.70902276,-0.43860587,-0.33040828,0.48418465
20231225 03:34:24,-1.580574,1.501607,0.593269,-0.198255,-0.353261,-0.396291,0.520752,-30.364578,5.277092,-175.68555,-0.9394988,1.0693054,0.8260206,-0.35002148,-0.30284542,0.3967032
20231225 03:34:24,-1.732680,1.552214,0.704992,-0.118354,-0.331954,-0.317455,0.521519,-30.748352,5.838036,-175.49358,-0.9921428,1.0662267,0.84886086,-0.24250828,-0.2835213,0.28639084
20231225 03:34:24,-1.709321,1.467440,0.817565,-0.020341,-0.307451,-0.235424,0.724487,-30.638725,5.832901,-175.24847,-0.8741744,0.9984622,0.74294245,-0.12523252,-0.26139703,0.16032967
20231225 03:34:24,-1.505354,1.272686,0.733789,0.093651,-0.271229,-0.182156,0.839615,-30.537331,5.961403,-175.20834,-0.7366304,0.89693844,0.64270467,-0.019493803,-0.22179066,0.04371407
20231225 03:34:24,-1.282813,1.089270,0.534136,0.215100,-0.216897,-0.167241,0.697212,-30.731895,5.570770,-175.84528,-0.6663306,0.80720514,0.6165186,0.061695933,-0.15740731,-0.051683143
20231225 03:34:24,-1.208156,1.074803,0.302782,0.328027,-0.161498,-0.169372,0.971249,-31.379745,6.285645,-174.87508,-0.7616476,0.8300957,0.7568604,0.12318681,-0.08431279,-0.13935545
20231225 03:34:24,-1.268100,1.177225,0.008020,0.421778,-0.107166,-0.181091,1.157051,-31.843925,6.853668,-173.87552,-1.0275533,0.9490455,1.0414345,0.158834,-0.0072950646,-0.21163446
20231225 03:34:24,-1.363944,1.438347,-0.243734,0.489960,-0.048572,-0.174699,1.159241,-31.093849,7.206642,-172.93634,-1.3228986,1.2171581,1.3332535,0.17834063,0.06885647,-0.28357393
20231225 03:34:24,-1.509268,1.941281,-0.502561,0.501679,-0.021938,-0.133150,1.211613,-31.657585,7.377937,-172.18504,-1.7144738,1.7307428,1.672499,0.18986964,0.09206928,-0.33570215
20231225 03:34:24,-1.453792,2.376621,-0.754054,0.422843,-0.057094,-0.056445,1.459789,-31.264755,7.622704,-171.36562,-1.9441645,2.2422273,1.8199947,0.19888225,0.020880032,-0.32810456
20231225 03:34:24,-1.125204,2.418267,-0.901858,0.268368,-0.132734,0.034109,1.589119,-30.955841,6.264114,-172.46902,-1.7685385,2.3987737,1.599446,0.19528091,-0.1061648,-0.2539091
20231225 03:34:24,-0.609075,2.380552,-0.810625,0.053168,-0.253118,0.120403,1.001095,-30.728378,7.181213,-175.56291,-1.2195686,2.4039876,1.0516182,0.1518706,-0.25932458,-0.120691955
20231225 03:34:24,-0.024637,2.106738,-0.632974,-0.178013,-0.356457,0.183258,1.301258,-30.707390,7.316803,-176.90797,-0.5261892,2.1052976,0.4505616,0.04605727,-0.35573688,0.028631233
20231225 03:34:24,0.582387,1.492497,-0.309135,-0.361253,-0.375633,0.193912,1.088940,-30.720154,7.047585,-178.86357,0.2294163,1.4364372,-0.23334664,-0.105244145,-0.3426408,0.15032014
20231225 03:34:24,0.965765,0.819547,0.251021,-0.465657,-0.326627,0.154494,1.034382,-30.906494,6.523315,-179.3546,0.92330515,0.75805885,-0.85476524,-0.24580787,-0.27558416,0.2182127
20231225 03:34:24,1.078232,0.197332,0.973917,-0.491225,-0.260576,0.074593,1.158474,-30.710068,6.645706,-179.02792,1.4617548,0.17598563,-1.4366729,-0.34538376,-0.21581972,0.25567228
20231225 03:34:24,0.896942,-0.336414,1.630334,-0.452873,-0.220093,-0.015962,0.902367,-29.872192,5.918610,-178.98967,1.6692998,-0.31913018,-1.8503112,-0.38429168,-0.19471051,0.27665856
20231225 03:34:24,0.616758,-0.642353,2.102219,-0.375102,-0.226485,-0.100124,0.743187,-30.832466,6.381615,-178.9516,1.6825324,-0.6196515,-2.0931296,-0.37039173,-0.21799602,0.29083803
20231225 03:34:24,0.284623,-0.749889,2.220284,-0.274960,-0.231811,-0.166176,0.743187,-30.832466,6.381615,-178.55664,1.467231,-0.74872714,-2.0208123,-0.32111406,-0.23165153,0.2858271
20231225 03:34:24,0.012869,-0.776053,2.199854,-0.144987,-0.207308,-0.223705,1.059860,-31.755287,6.712952,-177.5866,1.2517513,-0.81342715,-1.8577266,-0.24153614,-0.20706567,0.25913355
20231225 03:34:24,-0.304862,-0.723020,1.992797,-0.000100,-0.142322,-0.262057,1.279606,-30.879951,5.854172,-176.63437,0.9236374,-0.81746805,-1.4860396,-0.14491503,-0.13160177,0.2071527
20231225 03:34:24,-0.657234,-0.548823,1.772613,0.146918,-0.044310,-0.271645,1.790932,-30.270538,5.417564,-174.98544,0.5459156,-0.72942257,-1.0766696,-0.037497394,-0.011390779,0.12867382
20231225 03:34:24,-1.028455,-0.487913,1.548713,0.270499,0.027068,-0.239685,1.648918,-30.656998,5.307404,-174.82199,0.14764494,-0.76615614,-0.6464845,0.07074198,0.08519624,0.029484928
20231225 03:34:24,-1.316076,-0.518944,1.268988,0.363184,0.050506,-0.172568,1.518818,-30.582138,6.105049,-174.4827,-0.21351272,-0.8604865,-0.22905558,0.17686178,0.12543957,-0.08342031
20231225 03:34:24,-1.351560,-0.577283,0.883508,0.415386,0.035591,-0.076687,1.810017,-30.656166,6.246758,-173.82939,-0.39832622,-0.86301637,0.15888458,0.26340997,0.10255303,-0.20804128
20231225 03:34:24,-1.151249,-0.667191,0.375247,0.421778,0.017480,0.029848,1.934105,-30.459755,6.369133,-173.67625,-0.5481723,-0.8441606,0.42319664,0.33462948,0.06704939,-0.29889917
20231225 03:34:24,-0.742446,-0.792428,-0.093789,0.380229,0.010023,0.133187,1.618965,-30.304482,7.159691,-174.90631,-0.54993534,-0.8413607,0.5193722,0.36876303,0.031125799,-0.3543112
20231225 03:34:24,-0.313604,-1.019063,-0.414568,0.301394,-0.000631,0.232264,2.060760,-29.705139,7.124962,-174.76869,-0.4748435,-1.0149676,0.4477981,0.3787998,0.0027319835,-0.3744468
20231225 03:34:24,0.063201,-1.279779,-0.657143,0.183140,-0.010219,0.330276,1.883270,-30.663559,7.319733,-176.35503,-0.41223496,-1.2880627,0.38083166,0.3580042,-0.008695379,-0.36721885
20231225 03:34:24,0.507974,-1.633882,-0.676288,0.027599,-0.034722,0.411243,1.600655,-30.302635,6.891449,-178.06374,-0.13990963,-1.7046779,0.1517939,0.28111255,-0.011579601,-0.3343637
20231225 03:34:24,0.961187,-1.978632,-0.522436,-0.126876,-0.081597,0.455987,1.257851,-30.048637,7.139397,-179.84175,0.25905395,-2.1283567,-0.16941011,0.16293497,-0.019141223,-0.28665596
20231225 03:34:24,1.428760,-2.249762,-0.375092,-0.202516,-0.110362,0.468771,1.151695,-30.055023,7.004791,178.98611,0.67993814,-2.511875,-0.46221545,0.07506552,-0.006934233,-0.2715238
20231225 03:34:24,1.876845,-2.548310,-0.209589,-0.404932,-0.191328,0.438942,0.825020,-30.552956,7.168007,177.44806,1.1029476,-2.939301,-0.70528185,-0.1556406,-0.013307609,-0.15507925
20231225 03:34:24,2.301899,-2.722527,-0.048149,-0.506140,-0.222223,0.364367,0.437397,-30.774063,7.446533,175.90778,1.5104408,-3.2543516,-0.93009293,-0.30833417,0.0060261115,-0.051125407
20231225 03:34:24,2.716192,-2.715030,0.070870,-0.571126,-0.213701,0.243983,0.515511,-30.477066,6.758064,175.9492,1.9087892,-3.405678,-1.2050544,-0.4308628,0.03909494,0.075762
20231225 03:34:24,2.917214,-2.578869,0.212094,-0.620132,-0.180675,0.089508,0.515511,-30.477066,6.758064,176.00095,2.166849,-3.3117478,-1.4501026,-0.534359,0.054151416,0.23541448
20231225 03:34:24,2.844184,-2.255439,0.543616,-0.667008,-0.155106,-0.072425,0.487465,-30.186462,5.934998,176.94757,2.3551748,-2.872048,-1.7623144,-0.64058316,0.039151967,0.3971146
20231225 03:34:24,2.706066,-2.145396,0.761810,-0.695772,-0.151910,-0.233293,0.821301,-30.535484,5.693153,178.30754,2.4007306,-2.624524,-1.9512236,-0.73659503,-0.0038376898,0.5521699
20231225 03:34:24,2.182505,-1.617254,1.372132,-0.681923,-0.130603,-0.372854,1.093414,-30.223877,5.005669,179.8992,2.3754272,-1.8388237,-2.2915678,-0.78678674,-0.039002914,0.6689209
20231225 03:34:24,1.544791,-1.161582,1.734936,-0.629721,-0.086924,-0.461277,1.075100,-30.222023,4.737427,-179.26839,2.1264179,-1.2077457,-2.3011703,-0.7823968,-0.042672727,0.7229999
20231225 03:34:24,0.928954,-0.833020,2.050975,-0.544493,-0.026199,-0.492173,0.693485,-30.714417,4.095917,-179.1563,1.838582,-0.8115126,-2.242796,-0.722484,-0.012470633,0.7048893
20231225 03:34:24,0.214753,-0.592951,2.413224,-0.489095,-0.001696,-0.492173,1.629448,-30.079483,4.197746,-176.5751,1.4501749,-0.6019463,-2.1943097,-0.67446876,-0.0030180155,0.6746585
20231225 03:34:24,-0.422370,-0.345500,2.759047,-0.277090,0.033460,-0.420794,1.629448,-30.079483,4.197746,-176.07474,1.0998726,-0.46419448,-2.1396732,-0.45759547,0.03242903,0.5047317
20231225 03:34:24,-0.847132,-0.164804,2.882416,-0.108765,0.016415,-0.323848,1.390240,-30.377304,3.946869,-176.34956,0.81400234,-0.38453704,-1.9965308,-0.2641589,0.02416298,0.33250052
20231225 03:34:24,-1.037506,-0.137967,2.720211,0.061690,-0.001696,-0.213051,2.078793,-30.518982,4.364883,-174.77103,0.6104047,-0.39637142,-1.7175567,-0.06347007,0.01680917,0.1442227
20231225 03:34:24,-0.994203,-0.078227,2.323368,0.223623,-0.001696,-0.109713,2.369225,-30.209236,3.945633,-174.20982,0.49584723,-0.28258178,-1.347466,0.12243925,0.021929897,-0.03695012
20231225 03:34:24,-0.674853,-0.082656,1.741718,0.359988,0.021741,-0.034073,1.814106,-29.968010,3.924370,-175.55774,0.48949832,-0.17882574,-1.0040743,0.26904318,0.04066234,-0.18458924
20231225 03:34:24,-0.306011,-0.177709,1.129384,0.459065,0.071813,0.005345,2.132969,-30.140747,4.608673,-175.1023,0.46029812,-0.20596161,-0.7075379,0.36288953,0.08257715,-0.2830423
20231225 03:34:24,-0.043646,-0.288486,0.555750,0.521921,0.143191,0.017064,2.081749,-30.152679,5.278793,-175.46466,0.32106107,-0.290608,-0.41712052,0.41291547,0.14533941,-0.33657742
20231225 03:34:24,0.093766,-0.410094,0.224223,0.558143,0.215635,0.014933,2.302261,-29.661125,4.980957,-174.91599,0.21654668,-0.40995935,-0.25826693,0.43403062,0.2148908,-0.35967094
20231225 03:34:24,0.130785,-0.428266,0.044102,0.579449,0.271033,0.011737,2.471558,-29.181496,5.353249,-174.46729,0.12716736,-0.42832366,-0.15028426,0.44350448,0.27067587,-0.3712379
20231225 03:34:24,0.097244,-0.416524,-0.081326,0.595430,0.306189,0.019195,2.028992,-29.397049,4.827026,-175.30992,0.018870242,-0.4158914,-0.030444745,0.4531998,0.30830777,-0.39532474
20231225 03:34:24,0.077056,-0.489305,-0.205167,0.601822,0.318974,0.036240,2.338509,-29.472939,5.236977,-174.62775,-0.08076304,-0.4881664,0.06405203,0.46528336,0.3213772,-0.41307935
20231225 03:34:24,0.170739,-0.530905,-0.363968,0.600756,0.314712,0.062874,1.855492,-28.663445,5.447273,-175.75262,-0.12972373,-0.5332655,0.11658107,0.47972822,0.31222776,-0.4428806
20231225 03:34:24,0.247323,-0.595798,-0.541478,0.584776,0.308320,0.094834,2.395634,-28.728401,6.394684,-174.8429,-0.21220641,-0.6076894,0.17297578,0.4881434,0.30066288,-0.45756233
20231225 03:34:24,0.409398,-0.716295,-0.724398,0.551750,0.305124,0.123599,2.239025,-29.130493,7.491142,-176.05437,-0.24650672,-0.76178485,0.19120046,0.49169603,0.28677067,-0.46060193
20231225 03:34:24,0.666923,-0.859914,-0.825638,0.526182,0.304059,0.133187,1.929897,-29.246506,7.361671,-177.31638,-0.15625161,-0.9557339,0.09313625,0.48864502,0.27599525,-0.45323992
20231225 03:34:24,0.892938,-1.034697,-0.844594,0.415386,0.256118,0.145971,1.946793,-30.382202,7.837875,-178.15996,-0.03066367,-1.189529,-0.03291279,0.42358243,0.22729348,-0.38690183
20231225 03:34:24,1.136155,-1.255319,-0.876890,0.310982,0.186870,0.135318,1.543045,-29.851387,8.201126,-179.83502,0.095406175,-1.4867362,-0.13298166,0.34086704,0.16011941,-0.31035495
20231225 03:34:24,1.396651,-1.458290,-0.883256,0.195924,0.124015,0.099096,2.071266,-30.377678,8.240738,-179.42621,0.25395495,-1.7695905,-0.28911412,0.22794509,0.1044593,-0.20381835
20231225 03:34:24,1.576604,-1.550063,-0.837855,0.091520,0.092054,0.045828,1.947559,-30.765984,8.398827,-179.91345,0.4118464,-1.8953375,-0.41941255,0.11163636,0.081347935,-0.09487289
20231225 03:34:24,1.583562,-1.538911,-0.704151,0.042514,0.082466,0.018129,1.931435,-30.014061,8.483559,-179.83746,0.5370329,-1.8569733,-0.5031963,0.05523286,0.076234624,-0.0413038
20231225 03:34:24,1.538861,-1.552871,-0.459678,-0.065086,0.076074,-0.066033,2.062302,-30.472702,8.246849,-178.94339,0.72171223,-1.7954414,-0.64546525,-0.08275878,0.07631342,0.09342238
20231225 03:34:24,1.342370,-1.414392,-0.107652,-0.110896,0.047310,-0.125693,1.930283,-29.438393,7.642143,-178.37779,0.83495545,-1.56146,-0.8023966,-0.16023281,0.047606047,0.16852377
20231225 03:34:24,1.119355,-1.239813,0.044479,-0.142857,0.006827,-0.174699,2.132866,-29.136879,7.356537,-177.29375,0.7932942,-1.3257711,-0.80038345,-0.22060402,0.0063924417,0.2257429
20231225 03:34:24,0.895312,-0.896205,0.122462,-0.160967,-0.013415,-0.216247,2.193817,-29.413696,7.241234,-176.43054,0.7047839,-0.935538,-0.73094827,-0.2645498,-0.015152849,0.26749778
20231225 03:34:24,0.604169,-0.538022,0.110759,-0.168425,-0.016611,-0.246077,2.053604,-28.858192,7.203583,-175.8963,0.5066272,-0.547322,-0.52218926,-0.29146808,-0.017793551,0.29334974
20231225 03:34:24,0.265103,-0.187280,0.120076,-0.168425,-0.012350,-0.256731,2.236073,-29.496796,6.577225,-174.61092,0.27598903,-0.18454343,-0.2842206,-0.30020225,-0.010745,0.299144
20231225 03:34:24,-0.093375,0.181548,0.000625,-0.160967,0.026003,-0.246077,1.911583,-29.244652,7.093422,-174.37415,-0.07433001,0.17576839,0.079619475,-0.2903054,0.031385474,0.28700298
20231225 03:34:24,-0.263198,0.330762,-0.036039,-0.164163,0.047310,-0.235424,3.075989,-29.348885,7.379761,-171.29845,-0.23235641,0.3121792,0.25051317,-0.28672037,0.05344121,0.2838688
20231225 03:34:24,-0.584548,0.454570,-0.021138,-0.176948,0.079270,-0.211986,2.633808,-29.756332,7.134003,-171.78592,-0.46401265,0.3936089,0.48458198,-0.2824089,0.08325346,0.28040504
20231225 03:34:25,-0.849664,0.479447,0.130709,-0.175882,0.127211,-0.183222,2.651741,-29.566292,7.121780,-171.27774,-0.56269526,0.34865692,0.5687983,-0.26816094,0.12664962,0.26583052
20231225 03:34:25,-0.945514,0.537472,0.211222,-0.151379,0.150649,-0.152326,2.667484,-30.126328,6.756577,-171.28395,-0.5861926,0.3733994,0.58656925,-0.23321177,0.14846718,0.22947258
20231225 03:34:25,-1.052657,0.495379,0.182885,-0.103439,0.173021,-0.091602,2.830387,-29.183533,7.768425,-170.23083,-0.67701197,0.30749086,0.68904555,-0.16187215,0.1680639,0.15753438
20231225 03:34:25,-1.094163,0.603799,-0.026569,-0.065086,0.208177,-0.046857,3.304050,-29.896164,7.283775,-169.27522,-0.8638577,0.43461445,0.8900069,-0.11007835,0.20117,0.105543375
20231225 03:34:25,-1.098272,0.605411,-0.128816,-0.052302,0.235876,-0.020223,2.950867,-30.871048,7.745811,-169.91214,-0.9366654,0.4434922,0.9656602,-0.08903578,0.225173,0.07994861
20231225 03:34:25,-1.118442,0.623861,-0.276435,-0.032060,0.289144,0.043698,2.686565,-30.511963,7.585770,-170.3457,-1.053534,0.48488194,1.0833247,-0.038395584,0.26947013,0.02743916
20231225 03:34:25,-1.007826,0.525841,-0.491365,-0.010753,0.351999,0.106553,2.951519,-29.353416,6.976898,-169.8096,-1.1111042,0.4509482,1.1361252,0.01580739,0.32615003,-0.020300876
20231225 03:34:25,-0.853621,0.484581,-0.591790,0.019076,0.409528,0.164082,2.670055,-29.568146,7.390030,-170.51852,-1.0714331,0.45143262,1.0793555,0.07188758,0.37905422,-0.076503605
20231225 03:34:25,-0.776976,0.403963,-0.697017,0.022272,0.423378,0.180062,2.803108,-29.276711,7.506294,-170.1691,-1.0867682,0.39721543,1.0827136,0.0836215,0.39090756,-0.08636086
20231225 03:34:25,-0.741460,0.240172,-0.755948,0.030795,0.431900,0.210957,2.246185,-29.977448,7.412529,-171.59755,-1.0817171,0.25145054,1.073546,0.11135172,0.39579654,-0.11902223
20231225 03:34:25,-0.638737,0.145384,-0.962368,0.030795,0.431900,0.249310,2.273464,-29.884270,7.674660,-171.59073,-1.1534648,0.20147717,1.119644,0.14359578,0.39225638,-0.14325246
20231225 03:34:25,-0.560751,0.089120,-1.087238,0.011619,0.412724,0.290858,2.318291,-29.409172,7.644096,-171.32698,-1.1942729,0.17652775,1.1243109,0.16958909,0.36573428,-0.15206891
20231225 03:34:25,-0.327525,0.216306,-1.522946,-0.065086,0.379698,0.354779,2.106358,-29.613823,7.655342,-172.341,-1.423321,0.36019456,1.1907783,0.196779,0.32939425,-0.13012163
20231225 03:34:25,-0.141152,0.372368,-1.632480,-0.125811,0.397809,0.385674,1.911583,-29.244652,7.093422,-172.93886,-1.43893,0.526204,1.0817329,0.19786172,0.34600514,-0.091290206
20231225 03:34:25,-0.099845,0.504353,-1.693470,-0.157771,0.413790,0.399524,1.674561,-28.792389,7.195518,-173.63649,-1.4829661,0.65131485,1.0781178,0.19669475,0.36399055,-0.07190138
20231225 03:34:25,-0.033565,0.696926,-1.663002,-0.219562,0.471318,0.427223,1.072815,-29.968224,7.132309,-175.3071,-1.4329432,0.846566,1.0184416,0.17500186,0.41331977,-0.044680938
20231225 03:34:25,-0.096596,0.942963,-1.406548,-0.257914,0.514998,0.452791,1.056690,-29.216301,7.217041,-175.2241,-1.279373,1.0649756,0.945165,0.16379167,0.44982365,-0.030090913
20231225 03:34:25,-0.096833,1.011393,-1.112409,-0.290940,0.518194,0.489013,1.275017,-29.474815,6.566231,-175.13031,-1.0193902,1.093054,0.807222,0.16296771,0.45508605,-0.04103893
20231225 03:34:25,0.168783,0.726866,-0.679007,-0.331423,0.421247,0.518843,0.632053,-29.241814,6.678589,-178.0245,-0.4203288,0.7453108,0.33168757,0.16673738,0.4027371,-0.07813969
20231225 03:34:25,0.378422,0.587755,-0.590234,-0.342077,0.369045,0.515647,-0.083012,-29.577080,6.559395,179.60674,-0.18338618,0.57866615,0.1072,0.16118386,0.37700942,-0.08911139
20231225 03:34:25,1.193218,0.224431,-0.452098,-0.371906,0.236942,0.438942,-0.074047,-29.482063,6.553284,177.81625,0.5236151,0.06722672,-0.55519444,0.07993342,0.3121367,-0.04103294
20231225 03:34:25,1.443460,0.183413,-0.410927,-0.375102,0.213504,0.395262,-0.383942,-29.214302,5.862869,176.86642,0.7346349,-0.03159658,-0.75832796,0.044198826,0.299752,-0.013277054
20231225 03:34:25,1.720981,0.214653,-0.391202,-0.377233,0.204981,0.300446,-0.338734,-28.931091,6.112770,177.03409,0.9408698,-0.012478743,-0.97427416,-0.02602075,0.27532482,0.055555254
20231225 03:34:25,1.569091,0.392449,-0.266522,-0.380429,0.229484,0.220545,-0.019871,-29.103836,6.797073,178.37065,0.93565613,0.258524,-0.9439627,-0.09211928,0.27167225,0.11349212
20231225 03:34:25,1.023174,0.689639,0.183809,-0.363384,0.267837,0.161951,-0.665024,-29.620911,6.556465,178.07233,0.86632687,0.67181724,-0.87131464,-0.13587813,0.27871457,0.13712415
20231225 03:34:25,0.747429,0.805924,0.335437,-0.316508,0.302993,0.135318,-0.251926,-30.248604,6.467575,179.501,0.76448685,0.8070678,-0.7696556,-0.13006712,0.30173954,0.12514088
20231225 03:34:25,0.304230,0.970397,0.617355,-0.246195,0.312581,0.140644,-0.506878,-29.986382,6.581894,179.69675,0.6102137,0.9569665,-0.6581217,-0.09049687,0.29674456,0.06993227
20231225 03:34:25,-0.101446,0.887034,0.661536,-0.123680,0.304059,0.182193,-0.754021,-29.053482,5.848686,179.4611,0.3287976,0.8367686,-0.41321608,0.017810546,0.28389242,-0.047937542
20231225 03:34:25,-0.129971,0.846798,0.626334,-0.084262,0.298732,0.194977,-0.857990,-28.309784,6.067047,179.18338,0.29233408,0.79981977,-0.36759752,0.057533234,0.2813708,-0.08428799
20231225 03:34:25,-0.071575,0.802710,0.488319,-0.004361,0.285948,0.214153,-1.275463,-29.182251,5.449989,177.99348,0.2477261,0.77122957,-0.3187023,0.13139573,0.27376384,-0.15702383
20231225 03:34:25,0.166739,0.656054,0.009274,0.062756,0.277425,0.216284,-1.035870,-29.076317,5.981339,178.24915,0.09874402,0.6605117,-0.14098667,0.1900554,0.27163243,-0.20034522
20231225 03:34:25,0.243744,0.646754,-0.209517,0.116023,0.293405,0.178997,-1.212330,-28.709000,5.687668,177.6796,-0.017645001,0.66091865,-0.061002105,0.20051844,0.29042104,-0.21331815
20231225 03:34:25,0.282327,0.688719,-0.635010,0.118154,0.307255,0.161951,-1.335648,-29.289200,6.126228,177.55544,-0.32507867,0.7225181,0.17935118,0.18751934,0.30443224,-0.20353347
20231225 03:34:25,0.190982,0.859539,-0.834194,0.086193,0.331758,0.125729,-1.008591,-28.983147,6.243469,178.98557,-0.5899614,0.92889005,0.3656602,0.12693675,0.32608607,-0.14971425
20231225 03:34:25,0.021380,0.995764,-0.950540,0.069148,0.329627,0.124664,-1.405949,-28.915497,5.967163,178.11879,-0.8109078,1.0722927,0.5544618,0.11193457,0.32173207,-0.13842684
20231225 03:34:25,-0.100136,1.117286,-1.018599,0.033991,0.321104,0.138514,-1.502758,-29.018745,6.106911,178.12662,-0.9739501,1.2011436,0.6749481,0.09841631,0.30761364,-0.11736066
20231225 03:34:25,-0.105960,1.226544,-1.107964,-0.003296,0.318974,0.171539,-1.696381,-29.225243,6.386406,177.77873,-1.0612977,1.3189163,0.725143,0.101924255,0.2992263,-0.10850574
20231225 03:34:25,0.021677,1.210421,-1.131618,-0.040583,0.311516,0.204565,-1.247803,-29.280968,5.992592,178.23064,-0.9731478,1.288848,0.6431823,0.11521758,0.293108,-0.09693316
20231225 03:34:25,0.231106,1.117468,-1.155254,-0.097047,0.292340,0.242918,-1.977077,-29.823753,7.360481,176.1032,-0.81386316,1.1642972,0.47346938,0.1226038,0.28060687,-0.0830154
20231225 03:34:25,0.393328,1.046960,-1.146537,-0.115157,0.281686,0.250375,-2.050331,-29.816353,6.287491,175.27397,-0.6798068,1.0693595,0.33792287,0.122547746,0.27634168,-0.07650004
20231225 03:34:25,0.670022,0.986989,-1.076076,-0.154575,0.256118,0.246114,-1.916241,-28.199165,5.915321,174.33713,-0.38344666,0.92549187,0.08524728,0.104906075,0.269669,-0.04817093
20231225 03:34:25,0.961629,0.987542,-0.975242,-0.198255,0.224158,0.213088,-1.916626,-28.007278,5.634857,174.04309,-0.10335243,0.8962288,-0.20379788,0.052438468,0.24267863,0.0066333413
20231225 03:34:25,1.133182,1.113493,-0.846783,-0.251522,0.168759,0.148102,-2.323330,-27.842758,5.084183,172.67691,0.121011555,0.9988003,-0.44731015,-0.031542376,0.19032769,0.09084647
20231225 03:34:25,1.163414,1.384861,-0.727754,-0.326096,0.085662,0.075658,-2.261612,-28.503372,5.529831,173.15738,0.22706455,1.2944881,-0.5652063,-0.13892555,0.103131734,0.2025096
20231225 03:34:25,1.007939,1.559021,-0.696261,-0.426239,0.002565,0.029848,-1.845558,-28.764755,6.354858,174.66194,0.13785648,1.5044805,-0.44788697,-0.24180393,0.015598382,0.3150195
20231225 03:34:25,0.921179,1.640024,-0.526314,-0.527447,-0.058160,0.024521,-2.509018,-29.279976,5.846008,173.2616,0.232234,1.6006132,-0.49785656,-0.31975877,-0.044436526,0.3946428
20231225 03:34:25,0.932033,1.527082,-0.238850,-0.595629,-0.053898,0.018129,-2.466381,-29.554962,5.462471,173.51242,0.4973929,1.490372,-0.6482838,-0.38753206,-0.03571468,0.43405038
20231225 03:34:25,1.014099,1.406822,0.221376,-0.614806,-0.015546,-0.019158,-2.130363,-29.153900,5.573601,174.37318,0.92001665,1.3776134,-0.97270495,-0.44669482,0.005179734,0.45139074
20231225 03:34:25,0.932046,1.271431,0.766315,-0.608414,0.014284,-0.088406,-2.094501,-28.773819,5.549149,175.24496,1.207818,1.2710189,-1.2676961,-0.5163449,0.015111955,0.46572977
20231225 03:34:25,0.481093,0.987808,1.572255,-0.593499,0.007892,-0.166176,-2.024971,-28.763733,5.147270,175.90869,1.3314574,0.9663152,-1.583221,-0.56849885,-0.0047338977,0.4980327
20231225 03:34:25,0.336039,0.879349,1.819632,-0.547689,-0.016611,-0.225835,-2.255604,-28.774643,4.609810,175.52454,1.3382502,0.83594424,-1.7035853,-0.5722407,-0.031857375,0.51122916
20231225 03:34:25,0.061971,0.642977,2.235294,-0.451807,-0.031526,-0.264188,-1.691135,-29.112747,4.905434,177.35828,1.2690221,0.5317809,-1.906806,-0.519995,-0.05172526,0.47330654
20231225 03:34:25,-0.359315,0.385034,2.517495,-0.305855,-0.016611,-0.284430,-2.158791,-28.671402,4.470055,176.51082,1.0595192,0.1818444,-1.9131516,-0.4099772,-0.028007833,0.40659696
20231225 03:34:25,-0.672201,0.392313,2.499913,-0.136464,0.017480,-0.280168,-1.558849,-28.437531,4.460762,178.10687,0.7885566,0.09209953,-1.7085348,-0.26929456,0.023814445,0.3080246
20231225 03:34:25,-0.795433,0.423505,2.416285,0.024403,0.049440,-0.252469,-1.718147,-27.496399,3.593910,177.43878,0.6491645,0.09014222,-1.5602715,-0.12488393,0.07516333,0.192683
20231225 03:34:25,-0.974911,0.505939,2.213470,0.144787,0.063290,-0.198136,-1.329372,-27.850960,4.156815,178.76064,0.3993755,0.118987024,-1.259923,-8.08388E-5,0.10470437,0.07780781
20231225 03:34:25,-1.066488,0.495875,1.984684,0.223623,0.045179,-0.120366,-0.800114,-27.051498,3.707977,179.83148,0.20679754,0.097590834,-0.9980761,0.108466275,0.092842706,-0.031919837
20231225 03:34:25,-0.982843,0.286339,1.650875,0.272629,0.020676,-0.030877,-1.867329,-27.035912,3.562370,177.1182,0.12048632,-0.024870887,-0.77794707,0.20164123,0.06208247,-0.1347793
20231225 03:34:25,-0.629532,-0.101369,1.249056,0.318439,0.015349,0.049024,-1.372776,-27.192200,3.979408,178.15862,0.20525885,-0.27625513,-0.6557394,0.28705588,0.048295237,-0.22378445
20231225 03:34:25,-0.236199,-0.525398,0.922897,0.356792,0.028134,0.102292,-1.424763,-26.820351,4.088593,177.64725,0.35679054,-0.5951191,-0.60733837,0.34990016,0.051743202,-0.2876195
20231225 03:34:25,0.137232,-1.006211,0.599934,0.371707,0.030264,0.127860,-1.530537,-27.018616,4.234444,177.08835,0.4789339,-1.0176165,-0.532807,0.3794002,0.044925865,-0.31285536
20231225 03:34:25,0.405606,-1.510556,0.333508,0.371707,0.023872,0.127860,-1.026638,-27.271774,4.925850,178.0435,0.5437774,-1.5049174,-0.45308888,0.3829315,0.031185456,-0.30504566
20231225 03:34:25,0.649173,-1.917544,0.124807,0.357857,0.008957,0.098030,-1.190792,-26.635025,5.820442,177.4552,0.62819886,-1.9139345,-0.36740252,0.3573552,0.010810679,-0.268194
20231225 03:34:25,0.740186,-2.147476,-0.029438,0.336550,-0.005958,0.054351,-1.369053,-27.209679,5.454262,176.93494,0.6163485,-2.1516154,-0.25053912,0.317698,-0.0076398053,-0.21698016
20231225 03:34:25,0.804392,-2.314892,-0.148983,0.304590,-0.014480,-0.006374,-1.536163,-26.939232,5.434952,176.48532,0.60691804,-2.3233976,-0.15387337,0.259882,-0.017472351,-0.1470824
20231225 03:34:25,0.836350,-2.397426,-0.215516,0.257714,-0.014480,-0.078817,-1.764988,-26.008171,4.969986,175.89568,0.6083119,-2.402012,-0.08574019,0.18323739,-0.01593939,-0.06054461
20231225 03:34:25,0.707807,-2.418102,-0.165627,0.196990,-0.042179,-0.162980,-1.395294,-25.977104,4.703697,176.99127,0.5519164,-2.4044137,-0.10290976,0.088843346,-0.0373651,0.043651216
20231225 03:34:25,0.477535,-2.292335,0.023123,0.127742,-0.093316,-0.245012,-0.953499,-25.377769,4.668968,178.42023,0.49349073,-2.2639003,-0.20898187,-0.011905529,-0.07889702,0.14778285
20231225 03:34:25,0.143794,-2.053749,0.127629,0.065952,-0.149780,-0.302541,-0.846958,-25.563271,5.084053,179.2644,0.30116254,-2.036878,-0.16169265,-0.09376826,-0.12661865,0.22440672
20231225 03:34:25,-0.177653,-1.770190,0.225015,0.005227,-0.186001,-0.333436,-0.547176,-25.350395,4.939163,-179.5501,0.11539049,-1.7909037,-0.10314724,-0.16069397,-0.15643594,0.2752566
20231225 03:34:25,-0.518211,-1.434984,0.313194,-0.053367,-0.194524,-0.323848,-0.574070,-25.635452,4.957504,-179.18881,-0.10793857,-1.5211899,0.01584071,-0.20329782,-0.16607891,0.29545692
20231225 03:34:25,-0.739876,-1.151464,0.483387,-0.106635,-0.181740,-0.279103,-0.113579,-25.229858,5.471497,-177.63065,-0.21430832,-1.3055137,-0.021653295,-0.22154665,-0.16415122,0.28427422
20231225 03:34:25,-0.850592,-0.951539,0.681186,-0.138595,-0.141257,-0.211986,-0.246632,-25.521301,5.355225,-177.99818,-0.216948,-1.1515179,-0.109202355,-0.21548215,-0.13727751,0.24903744
20231225 03:34:25,-0.871431,-0.800791,0.943969,-0.157771,-0.087989,-0.139542,0.024715,-24.825920,4.106789,-177.89589,-0.12202561,-1.0330521,-0.3245261,-0.19744709,-0.09689376,0.20091966
20231225 03:34:25,-0.919498,-0.795554,1.234091,-0.164163,-0.040049,-0.071360,0.043030,-24.827766,4.375038,-177.7868,-0.040707767,-1.0616298,-0.5711055,-0.17182639,-0.058841027,0.147096
20231225 03:34:25,-0.896604,-0.862542,1.552594,-0.146053,0.001500,-0.008504,-0.246632,-25.521301,5.355225,-178.27338,0.09871572,-1.1360621,-0.8910705,-0.12965396,-0.02073573,0.082521066
20231225 03:34:25,-0.831756,-1.027495,1.889137,-0.091720,0.026003,0.036240,-0.167370,-25.799973,5.508179,-178.25464,0.27469397,-1.2920763,-1.2640281,-0.064532,0.00910615,0.014157474
20231225 03:34:25,-0.732526,-1.201611,2.071169,-0.008623,0.021741,0.055416,-0.476109,-26.107872,5.659172,-179.03682,0.4195875,-1.4458512,-1.4907215,0.016797405,0.016056312,-0.044311624
20231225 03:34:25,-0.670843,-1.312697,2.062469,0.102174,0.010023,0.059678,-0.105648,-26.460587,5.953827,-178.23062,0.4770301,-1.5376039,-1.5283806,0.117200956,0.019287087,-0.10085591
20231225 03:34:25,-0.610178,-1.279049,1.810147,0.223623,0.008957,0.056482,-0.247017,-25.329407,5.074753,-178.82216,0.45979267,-1.4761177,-1.2858202,0.22097409,0.033236492,-0.16046055
20231225 03:34:25,-0.501609,-1.201655,1.353432,0.324831,0.012153,0.047959,-0.183109,-25.239944,5.873375,-178.39325,0.38645265,-1.3578598,-0.90371585,0.29892242,0.048758265,-0.21386872
20231225 03:34:25,-0.449891,-0.999472,0.834473,0.383425,0.004696,0.034109,-0.307198,-25.436356,5.750992,-178.58913,0.19853175,-1.1196097,-0.44146454,0.33209047,0.05036562,-0.24912563
20231225 03:34:25,-0.429006,-0.779698,0.284189,0.400471,0.004696,0.023456,-0.510166,-25.545982,5.756126,-179.03772,-0.08700816,-0.8503289,0.032702982,0.3281465,0.051529214,-0.26659462
20231225 03:34:25,-0.344975,-0.596710,-0.151611,0.386622,0.027068,0.014933,-0.112808,-25.613632,6.032433,-177.81514,-0.2941456,-0.6152892,0.32296494,0.29924297,0.07354897,-0.26328006
20231225 03:34:25,-0.400127,-0.398195,-0.482274,0.347204,0.053702,0.017064,-0.262375,-24.961258,5.720421,-177.96922,-0.5661906,-0.38568985,0.61523455,0.2603619,0.09742195,-0.24608478
20231225 03:34:25,-0.441126,-0.354769,-0.644843,0.300328,0.104839,0.035175,-0.401436,-24.981422,6.524185,-177.71883,-0.706072,-0.32381403,0.76130205,0.22815266,0.14140032,-0.22830008
20231225 03:34:25,-0.554073,-0.226875,-0.625607,0.253453,0.137864,0.068201,-0.252254,-25.441910,6.555725,-177.29842,-0.7917625,-0.21702853,0.8270167,0.21116482,0.16296892,-0.21857707
20231225 03:34:25,-0.530605,-0.378408,-0.532461,0.219362,0.160237,0.104422,-0.603638,-25.474831,7.090263,-178.09178,-0.69448054,-0.37843275,0.74120086,0.21059325,0.1752607,-0.22046709
20231225 03:34:25,-0.508664,-0.477279,-0.374721,0.191663,0.146387,0.133187,-0.479164,-25.470291,7.493111,-177.81728,-0.5668037,-0.49394622,0.6034298,0.21246392,0.15422481,-0.22231813
20231225 03:34:25,-0.372761,-0.591125,-0.250125,0.175683,0.112296,0.155559,-0.655235,-25.294861,7.479912,-178.69449,-0.38183329,-0.6025075,0.42265725,0.22161233,0.11586423,-0.23058182
20231225 03:34:25,-0.198489,-0.667809,-0.308980,0.152245,0.055833,0.163017,-0.885487,-25.497665,7.222916,-179.7196,-0.29050863,-0.65378904,0.3605427,0.21590683,0.056161392,-0.22275975
20231225 03:34:25,-0.017009,-0.644226,-0.508670,0.109631,0.014284,0.168343,-0.830929,-25.311325,7.747185,-179.78624,-0.3036854,-0.60046434,0.38338703,0.19282196,0.010205199,-0.19800411
20231225 03:34:25,0.101438,-0.562493,-0.632307,0.053168,-0.004892,0.171539,-1.042866,-25.515976,7.758430,179.2768,-0.32216668,-0.511724,0.39478233,0.15629026,-0.012391543,-0.16110264
20231225 03:34:25,0.311431,-0.517193,-0.652299,-0.019276,-0.023003,0.164082,-0.707607,-24.731125,7.308624,179.35095,-0.20097095,-0.47504124,0.26257586,0.099803984,-0.030708713,-0.10547516
20231225 03:34:25,0.503803,-0.550272,-0.629511,-0.094916,-0.024069,0.141710,-0.777908,-24.357430,7.149559,178.58821,-0.049310803,-0.5256857,0.12648779,0.027703136,-0.029121876,-0.038423754
20231225 03:34:25,0.609071,-0.522828,-0.375040,-0.157771,-0.019807,0.103357,-0.884834,-23.980034,6.454002,178.06122,0.21307907,-0.5082569,-0.11145356,-0.04895237,-0.023633592,0.028158613
20231225 03:34:25,0.624037,-0.517497,-0.048289,-0.183340,-0.007023,0.053286,-0.805573,-24.258705,6.606956,178.33252,0.451309,-0.5064469,-0.35606343,-0.105044365,-0.010778939,0.07836549
20231225 03:34:25,0.574092,-0.510509,0.300516,-0.176948,-0.004892,-0.003178,-0.982029,-23.891388,6.313278,178.12617,0.64750266,-0.50022984,-0.58175445,-0.13938601,-0.01010886,0.11395909
20231225 03:34:25,0.379694,-0.489675,0.565652,-0.144987,-0.015546,-0.059641,-0.930042,-24.263237,6.204102,178.5753,0.66568804,-0.49192604,-0.6695124,-0.15009563,-0.019956516,0.13701002
20231225 03:34:26,0.229033,-0.416248,0.739292,-0.088524,-0.034722,-0.103320,-0.884453,-24.171921,6.734474,179.05241,0.6532401,-0.43540502,-0.71812785,-0.13160853,-0.03508354,0.13635848
20231225 03:34:26,0.154246,-0.366195,0.770621,-0.013949,-0.056029,-0.145934,-0.857941,-23.694977,6.435669,179.16194,0.61561185,-0.39403138,-0.6960652,-0.09827335,-0.04936512,0.123795345
20231225 03:34:26,0.102541,-0.280771,0.675334,0.062756,-0.078401,-0.194940,-0.593636,-24.054062,6.595711,-179.92305,0.5241724,-0.3126127,-0.5861994,-0.070541784,-0.061791338,0.11021593
20231225 03:34:26,-0.038198,-0.078615,0.436844,0.125611,-0.086924,-0.231162,-0.531918,-24.714668,7.041359,-179.33087,0.2640939,-0.11414707,-0.3032456,-0.051008224,-0.05830929,0.089678735
20231225 03:34:26,-0.138548,0.059278,0.190850,0.173552,-0.082663,-0.250338,-0.725922,-24.729279,7.040382,-179.45201,0.021410331,0.027897662,-0.04555063,-0.0336442,-0.04225808,0.06527123
20231225 03:34:26,-0.270563,0.143535,-0.020338,0.211904,-0.068813,-0.252469,-0.177967,-24.123566,7.140259,-177.57617,-0.22515465,0.11322184,0.20589602,-0.011398584,-0.016510723,0.034060225
20231225 03:34:26,-0.324735,0.129375,-0.211707,0.241734,-0.059225,-0.247142,-0.524105,-24.043983,6.193832,-178.56279,-0.39351135,0.113060325,0.3805995,0.009954631,6.0396455E-4,0.006896183
20231225 03:34:26,-0.342782,0.077625,-0.381739,0.251322,-0.069879,-0.243946,-0.275547,-23.843033,6.719063,-177.66829,-0.51767373,0.081058115,0.514369,0.016757384,-0.008868426,-0.006823525
20231225 03:34:26,-0.321503,-0.010089,-0.582215,0.240669,-0.100774,-0.238620,-0.027370,-23.450195,6.963837,-176.89677,-0.63350457,0.022419002,0.63624126,0.012885094,-0.041739162,-0.008775473
20231225 03:34:26,-0.193173,-0.125141,-0.790725,0.210839,-0.143388,-0.234358,-0.115211,-23.458427,7.097466,-177.51155,-0.6883877,-0.05917263,0.6787638,-0.008822009,-0.0958536,0.0029493123
20231225 03:34:26,-0.049343,-0.156230,-0.963069,0.159702,-0.193459,-0.238620,0.203262,-23.439278,7.501305,-176.82631,-0.71921676,-0.0666681,0.6834855,-0.046540514,-0.15463385,0.037346266
20231225 03:34:26,0.145959,-0.175814,-1.168025,0.082997,-0.253118,-0.252469,0.167404,-23.819359,7.525757,-177.26729,-0.7535257,-0.064459644,0.6625277,-0.11035109,-0.2237527,0.09799652
20231225 03:34:26,0.239804,-0.155851,-1.337849,-0.017145,-0.299994,-0.270580,0.202881,-23.247391,7.220833,-177.34845,-0.8388561,-0.033109598,0.68631953,-0.19133726,-0.27817428,0.18041691
20231225 03:34:26,0.288136,-0.075691,-1.323550,-0.136464,-0.356457,-0.290822,0.397266,-23.424667,7.502281,-176.93983,-0.80480707,0.03938368,0.6413659,-0.28238255,-0.34214762,0.28048158
20231225 03:34:26,0.221727,-0.023110,-1.212381,-0.237672,-0.383091,-0.318521,0.476151,-23.511467,7.374756,-176.58813,-0.75095147,0.0888081,0.63841164,-0.36421365,-0.37245348,0.37379068
20231225 03:34:26,0.203750,0.064628,-0.978661,-0.288809,-0.374568,-0.349416,0.658615,-24.150063,6.748398,-176.33275,-0.57314676,0.15472643,0.52470213,-0.4219753,-0.36649713,0.432917
20231225 03:34:26,0.074564,0.045177,-0.606621,-0.286679,-0.337281,-0.389899,0.941883,-22.993378,6.407776,-175.16129,-0.37408286,0.10624799,0.38007474,-0.44535315,-0.32549182,0.45759517
20231225 03:34:26,-0.188173,0.111637,-0.284930,-0.261110,-0.329823,-0.431448,1.038307,-22.698227,5.987556,-174.48938,-0.34232643,0.119665496,0.34300792,-0.44689175,-0.30869448,0.46824598
20231225 03:34:26,-0.370986,0.054192,-0.081412,-0.218496,-0.323431,-0.458081,1.514549,-22.852669,6.136353,-172.767,-0.33400953,0.012754017,0.31562424,-0.42484334,-0.2900509,0.45240667
20231225 03:34:26,-0.651813,0.125380,0.012358,-0.169490,-0.323431,-0.472996,1.841217,-22.354736,5.973122,-171.27563,-0.4906456,0.016475845,0.4455142,-0.38961858,-0.2735466,0.42298412
20231225 03:34:26,-0.769103,0.162196,-0.022628,-0.134334,-0.340477,-0.478323,1.892822,-22.534691,5.583466,-171.08102,-0.60437524,0.0316002,0.5577,-0.36171082,-0.27918547,0.39915633
20231225 03:34:26,-0.904055,0.289840,-0.124835,-0.105569,-0.353261,-0.475127,1.938030,-22.251488,5.833374,-170.16045,-0.7839422,0.13465281,0.7546525,-0.3319697,-0.274758,0.3656605
20231225 03:34:26,-0.996153,0.477246,-0.236787,-0.074674,-0.327693,-0.466604,2.086826,-22.520081,5.584442,-169.66293,-0.9589554,0.31189814,0.92814183,-0.30637118,-0.23998138,0.33653226
20231225 03:34:26,-1.156118,0.769403,-0.279237,-0.040583,-0.292536,-0.441036,1.780270,-22.077904,6.088417,-169.76057,-1.159461,0.5590032,1.1142007,-0.2691716,-0.19644037,0.2961633
20231225 03:34:26,-1.271674,0.979093,-0.256690,0.002031,-0.244596,-0.411206,2.519272,-21.823883,5.275360,-167.42815,-1.27543,0.7140046,1.2402287,-0.22599488,-0.13898635,0.2387888
20231225 03:34:26,-1.450222,1.220775,-0.231039,0.043579,-0.200916,-0.367527,2.758484,-21.526062,5.526245,-166.07538,-1.450136,0.8752184,1.409497,-0.17321637,-0.09060243,0.18026946
20231225 03:34:26,-1.592611,1.322216,-0.178501,0.084063,-0.166825,-0.300410,3.023556,-22.268921,6.247223,-165.34317,-1.5457284,0.9165558,1.5000097,-0.10522348,-0.06444449,0.11145276
20231225 03:34:26,-1.555735,1.202508,-0.058823,0.111762,-0.164694,-0.220509,2.847481,-22.093491,6.234024,-166.36171,-1.4008572,0.815304,1.3442433,-0.033701956,-0.08341952,0.044267297
20231225 03:34:26,-1.254359,0.903602,0.021644,0.136265,-0.181740,-0.149130,2.679337,-23.148796,6.703148,-168.06467,-1.0531738,0.62837034,0.99172056,0.031362914,-0.12177283,-0.016997106
20231225 03:34:26,-0.856458,0.595846,0.134449,0.165029,-0.204112,-0.100124,3.084126,-22.353874,5.851456,-168.00546,-0.61958975,0.43685627,0.5783698,0.082262985,-0.16127881,-0.071916565
20231225 03:34:26,-0.421293,0.260041,0.179305,0.195924,-0.245661,-0.088406,3.092705,-22.066956,5.564873,-168.80191,-0.22071818,0.19059372,0.18921575,0.11213735,-0.21137369,-0.10232125
20231225 03:34:26,-0.052541,-0.029198,0.032060,0.223623,-0.279752,-0.117170,2.831356,-21.341576,6.318748,-169.84157,-0.015312685,-0.036063816,0.008028138,0.109693326,-0.24927269,-0.10108624
20231225 03:34:26,0.191647,-0.137780,-0.127370,0.254518,-0.288275,-0.177895,3.103855,-21.221863,5.911736,-169.33342,0.062161088,-0.11607905,-0.058050364,0.08329687,-0.2584442,-0.085058436
20231225 03:34:26,0.219489,-0.053981,-0.317856,0.280087,-0.282948,-0.260992,2.953259,-21.895233,6.088165,-169.52963,-0.0630537,-0.011304446,0.059710905,0.037767768,-0.2385293,-0.052158386
20231225 03:34:26,-0.004565,0.212819,-0.525311,0.297132,-0.264837,-0.343024,3.279930,-21.397301,5.924942,-167.11688,-0.40766558,0.27353162,0.38522598,-0.011995971,-0.18523225,-0.029245466
20231225 03:34:26,-0.441254,0.550294,-0.702301,0.304590,-0.238204,-0.397357,3.580479,-21.568192,6.340996,-164.57285,-0.90357864,0.59065115,0.87656665,-0.04178202,-0.10742635,-0.015622914
20231225 03:34:26,-0.948231,0.906093,-0.744270,0.310982,-0.206243,-0.413337,3.732231,-21.470497,7.005981,-162.45004,-1.3701112,0.84259605,1.359968,-0.04489526,-0.033451088,-0.018724471
20231225 03:34:26,-1.427131,1.265453,-0.725497,0.326962,-0.166825,-0.390964,4.032391,-21.449501,7.141571,-159.9925,-1.80193,1.029929,1.8095071,-0.016409874,0.040054835,-0.049406454
20231225 03:34:26,-1.908781,1.543451,-0.666796,0.358922,-0.126342,-0.325978,4.217815,-21.721802,7.429131,-158.50673,-2.1990993,1.082391,2.2230027,0.0487881,0.0924026,-0.10774155
20231225 03:34:26,-2.190570,1.580955,-0.631711,0.402602,-0.097578,-0.234358,4.217430,-21.529915,7.148666,-158.16045,-2.399347,0.9786602,2.4255764,0.13834505,0.11222211,-0.1862557
20231225 03:34:26,-2.323169,1.545007,-0.597951,0.458000,-0.085859,-0.132085,4.157898,-20.119225,7.055984,-157.05913,-2.453051,0.88722575,2.5149205,0.23847347,0.106661916,-0.2907946
20231225 03:34:26,-2.297130,1.497265,-0.765963,0.503810,-0.087989,-0.022354,3.997566,-20.503838,6.677582,-157.71542,-2.5202374,0.92401403,2.5842607,0.3367795,0.07839061,-0.39666677
20231225 03:34:26,-2.090219,1.584742,-0.978644,0.507006,-0.115688,0.082050,4.351902,-20.104622,7.056961,-155.79926,-2.51982,1.2090296,2.597453,0.40519282,0.0025458988,-0.4782292
20231225 03:34:26,-1.632803,1.700847,-1.263629,0.436693,-0.176413,0.176866,4.149319,-20.406136,7.342567,-156.92007,-2.4348052,1.6095371,2.381068,0.43841594,-0.12215787,-0.491284
20231225 03:34:26,-1.060624,1.671510,-1.614298,0.293936,-0.256314,0.247179,3.876816,-20.525848,7.749588,-159.39705,-2.2989733,1.8385031,2.0111585,0.42174906,-0.26057723,-0.4196052
20231225 03:34:26,-0.358896,1.636077,-1.770245,0.086193,-0.339412,0.289793,3.868622,-21.004646,8.316650,-163.06203,-1.9232345,1.8428466,1.4244149,0.33962327,-0.36971772,-0.26744044
20231225 03:34:26,0.309515,1.591668,-1.704914,-0.149249,-0.391614,0.294054,3.780773,-21.012871,8.450279,-166.94795,-1.354749,1.6667002,0.79189247,0.18831107,-0.40680522,-0.06866649
20231225 03:34:26,0.871158,1.587544,-1.489011,-0.382560,-0.363915,0.273813,3.549377,-20.639999,7.351868,-169.80342,-0.689503,1.5010577,0.24374217,5.257875E-4,-0.3418676,0.13314216
20231225 03:34:26,1.194842,1.405995,-0.863592,-0.592433,-0.295732,0.220545,3.424522,-20.452652,6.668541,-170.8437,0.14729458,1.296143,-0.27039385,-0.21199247,-0.25455457,0.30073816
20231225 03:34:26,1.271308,0.975876,-0.015455,-0.712818,-0.183871,0.150232,3.408779,-19.892609,7.033745,-171.25668,0.92195964,0.91381466,-0.7973279,-0.3982963,-0.14311025,0.38800985
20231225 03:34:26,1.184237,0.554362,1.016564,-0.735190,-0.043245,0.068201,3.442066,-20.070724,6.375847,-170.79514,1.5751745,0.54318875,-1.4623873,-0.51990795,-0.017494766,0.41646904
20231225 03:34:26,0.904841,0.175850,1.963322,-0.685119,0.071813,-0.029811,3.168030,-19.422874,5.660973,-170.46431,1.8710055,0.17283756,-2.0796907,-0.5771,0.06766732,0.42901883
20231225 03:34:26,0.324417,-0.274877,2.851298,-0.561538,0.146387,-0.105451,3.608025,-19.765511,5.553749,-168.53091,1.7673954,-0.357588,-2.601555,-0.5394992,0.11671141,0.40536815
20231225 03:34:26,-0.252094,-0.585338,3.508289,-0.378298,0.194328,-0.143804,3.441681,-19.878830,6.095367,-168.41772,1.4874095,-0.8039213,-2.9951627,-0.4112669,0.16237824,0.3396472
20231225 03:34:26,-0.801723,-0.762687,4.026498,-0.155641,0.163433,-0.141673,3.467426,-19.018112,5.235619,-167.41501,1.1610739,-1.155091,-3.2754247,-0.21416533,0.14982265,0.22581908
20231225 03:34:26,-1.201097,-0.862922,4.121114,0.091520,0.075009,-0.100124,3.176224,-18.944077,5.093918,-167.82953,0.8475635,-1.3973502,-3.201659,0.030318104,0.0973983,0.059543576
20231225 03:34:26,-1.354163,-0.897370,3.702996,0.326962,-0.041114,-0.021289,3.441296,-19.686943,5.814903,-167.00615,0.6334206,-1.47507,-2.6971653,0.2810644,0.019565204,-0.1463867
20231225 03:34:26,-1.149730,-0.936828,2.697989,0.528313,-0.091185,0.086311,3.389698,-19.506989,6.204552,-167.1341,0.4939463,-1.3529608,-1.8203331,0.50346255,-0.016469117,-0.36501276
20231225 03:34:26,-0.589512,-0.995188,1.626910,0.670004,-0.085859,0.176866,3.230133,-20.275368,6.387093,-168.6344,0.51165664,-1.1686141,-1.1326817,0.65632087,-0.027488139,-0.53914493
20231225 03:34:26,0.072088,-1.086401,0.677128,0.730729,-0.076271,0.217349,3.233089,-19.909065,7.301010,-169.68019,0.5085865,-1.1056198,-0.726277,0.7142651,-0.049584363,-0.6258168
20231225 03:34:26,0.538750,-1.161086,0.029334,0.722206,-0.098643,0.219480,3.224125,-20.004089,7.307121,-170.9384,0.42633465,-1.1629605,-0.5099413,0.69253564,-0.10061204,-0.64415413
20231225 03:34:26,0.979108,-1.250234,-0.596601,0.656155,-0.115688,0.194977,2.968403,-19.358093,6.860497,-172.53294,0.25565696,-1.3245826,-0.35034874,0.6082182,-0.13942474,-0.5986705
20231225 03:34:26,1.266163,-1.268526,-1.066076,0.544293,-0.128473,0.154494,2.828186,-18.802582,6.822838,-173.66093,0.05237639,-1.4469306,-0.23850167,0.48436856,-0.15905419,-0.5023331
20231225 03:34:26,1.432567,-1.186751,-1.332459,0.387687,-0.149780,0.114011,2.759422,-19.196442,7.785667,-175.22572,-0.09963024,-1.4590427,-0.19666672,0.3324069,-0.1749595,-0.3683376
20231225 03:34:26,1.499429,-1.165063,-1.483020,0.202316,-0.161498,0.088442,2.776585,-18.622627,7.212494,-174.82603,-0.18045104,-1.4714497,-0.16249144,0.18390249,-0.17073016,-0.21801618
20231225 03:34:26,1.497389,-1.173104,-1.378906,-0.003296,-0.173217,0.083115,2.574001,-18.924141,7.498100,-175.79001,-0.06011027,-1.4732459,-0.17237484,0.03732297,-0.16157787,-0.0643786
20231225 03:34:26,1.566579,-1.248395,-1.021579,-0.190797,-0.181740,0.085246,2.698086,-18.727722,7.620483,-175.71326,0.33201724,-1.5289727,-0.3816117,-0.10306719,-0.14748986,0.056854274
20231225 03:34:26,1.630083,-1.387606,-0.541504,-0.342077,-0.196655,0.075658,2.749306,-18.715797,6.950363,-175.28882,0.77388954,-1.6314112,-0.707924,-0.2370502,-0.14285536,0.14684688
20231225 03:34:26,1.690671,-1.552422,-0.048681,-0.458200,-0.223289,0.051155,2.485004,-18.356705,6.790321,-175.76993,1.1895005,-1.748783,-1.0565652,-0.3592771,-0.15882346,0.21764664
20231225 03:34:26,1.696207,-1.663699,0.476150,-0.534905,-0.260576,0.007476,2.342598,-18.551270,6.399689,-175.86317,1.5338413,-1.8124533,-1.4414983,-0.4606691,-0.1923618,0.2772536
20231225 03:34:26,1.661652,-1.676297,0.911340,-0.577519,-0.294667,-0.054314,2.448761,-18.544891,6.534302,-175.42227,1.764495,-1.7836312,-1.773238,-0.5369627,-0.23025438,0.3369308
20231225 03:34:26,1.533777,-1.556874,1.290730,-0.578584,-0.310647,-0.127823,2.817684,-18.130051,5.707069,-173.3249,1.8893552,-1.6157259,-2.0525558,-0.57641965,-0.26205042,0.3829121
20231225 03:34:26,1.336241,-1.392297,1.638912,-0.545558,-0.307451,-0.198136,2.597168,-18.621605,6.004898,-173.74536,1.9319259,-1.4111592,-2.2161784,-0.5817041,-0.2766889,0.4236625
20231225 03:34:26,1.060619,-1.247210,1.965423,-0.477376,-0.290406,-0.268449,2.809101,-18.416954,5.993652,-172.34357,1.8955367,-1.2411917,-2.3578172,-0.5538608,-0.2783083,0.44163665
20231225 03:34:26,0.667076,-0.997467,2.162719,-0.377233,-0.253118,-0.318521,2.754929,-18.795181,5.749863,-171.7344,1.7080235,-0.9979771,-2.2919676,-0.48838133,-0.2532539,0.43586668
20231225 03:34:26,0.211028,-0.710240,2.309710,-0.254718,-0.194524,-0.333436,3.012074,-18.307320,5.988510,-169.82838,1.4394796,-0.7665649,-2.1355019,-0.388219,-0.19614205,0.38473746
20231225 03:34:26,-0.292193,-0.430433,2.393509,-0.115157,-0.144453,-0.304671,3.010654,-19.441185,6.196487,-169.41064,1.086957,-0.5900483,-1.8723974,-0.25434172,-0.13629347,0.29135543
20231225 03:34:26,-0.733673,-0.231029,2.360070,0.031861,-0.111427,-0.242881,3.115276,-18.667244,5.209213,-167.95383,0.72337407,-0.51671726,-1.5372146,-0.09922227,-0.08589906,0.15937287
20231225 03:34:26,-1.032848,-0.071748,2.152615,0.181009,-0.079467,-0.154457,2.975449,-18.303627,5.452026,-167.69926,0.39597952,-0.42891085,-1.1265373,0.06707678,-0.037661772,0.004140556
20231225 03:34:26,-1.072188,-0.033960,1.742952,0.315243,-0.044310,-0.051118,3.214275,-17.813919,5.422440,-166.48428,0.18927717,-0.36381513,-0.7061967,0.22509009,0.0051508793,-0.1595096
20231225 03:34:26,-0.890757,-0.072859,1.180523,0.415386,-0.002762,0.038371,3.178417,-18.194000,5.446892,-167.00897,0.049720645,-0.29100534,-0.34539503,0.34682864,0.042817634,-0.29110044
20231225 03:34:26,-0.564146,-0.240366,0.592374,0.477176,0.044114,0.101226,2.887600,-18.311859,5.585655,-168.50105,-0.030739546,-0.3344215,-0.11363265,0.42537674,0.078887634,-0.37784994
20231225 03:34:26,-0.231510,-0.423324,0.141164,0.503810,0.094185,0.131056,2.862507,-17.654953,5.676498,-168.77988,-0.05604671,-0.44438207,-0.011533521,0.45823196,0.11836943,-0.4168254
20231225 03:34:26,0.044895,-0.604793,-0.197140,0.509136,0.145322,0.136383,2.960087,-17.935486,6.097694,-169.21495,-0.07653013,-0.59478736,0.029540919,0.46348977,0.16080375,-0.42084515
20231225 03:34:26,0.173399,-0.752470,-0.416724,0.513398,0.192197,0.125729,2.872242,-17.943710,6.231331,-169.65639,-0.13207567,-0.73264587,0.0837256,0.455877,0.20547728,-0.41437843
20231225 03:34:26,0.214762,-0.849534,-0.601676,0.510202,0.242269,0.119337,2.661076,-18.532135,6.803520,-170.61923,-0.23186412,-0.82191056,0.18123679,0.44370627,0.25542542,-0.40869692
20231225 03:34:26,0.230818,-0.828581,-0.695350,0.494222,0.268902,0.116141,2.734329,-18.539536,7.876503,-170.45303,-0.29364884,-0.7942164,0.22827426,0.42368358,0.28233874,-0.3968446
20231225 03:34:26,0.212338,-0.760716,-0.830457,0.463327,0.275294,0.126795,2.901440,-18.809982,7.895821,-170.0669,-0.42342812,-0.7252569,0.32465824,0.40387943,0.2857339,-0.3869273
20231225 03:34:26,0.283694,-0.676171,-0.979449,0.412190,0.265706,0.149167,2.346325,-18.568756,7.874550,-171.94838,-0.5159287,-0.6478395,0.38098526,0.3821326,0.27072814,-0.37878525
20231225 03:34:26,0.388234,-0.607009,-1.136714,0.334419,0.245465,0.168343,2.505890,-17.800362,7.692017,-171.40108,-0.59297657,-0.5873227,0.38682595,0.3434447,0.24706629,-0.33727705
20231225 03:34:26,0.523138,-0.496265,-1.290026,0.233211,0.228419,0.184324,2.442749,-18.273613,7.454330,-172.18063,-0.6534222,-0.503941,0.37809345,0.29215288,0.22836362,-0.27603418
20231225 03:34:26,0.657865,-0.359457,-1.299892,0.116023,0.212439,0.197108,2.541748,-17.420280,7.667557,-172.37105,-0.59906065,-0.40750098,0.2757277,0.23153257,0.21500234,-0.19561863
20231225 03:34:26,0.766520,-0.243564,-1.241657,-0.006492,0.208177,0.201369,2.266678,-18.098183,7.441124,-173.52846,-0.47019044,-0.30067536,0.18301928,0.15679857,0.21431589,-0.10804676
20231225 03:34:26,0.788527,-0.165230,-0.986380,-0.109831,0.211373,0.204565,2.224037,-17.823212,7.824669,-173.83311,-0.22791857,-0.21532328,0.04018396,0.08792319,0.22021459,-0.036239028
20231225 03:34:26,0.777083,-0.138051,-0.587776,-0.176948,0.215635,0.205631,1.808365,-17.753708,7.280113,-174.84131,0.1021795,-0.16787477,-0.17264852,0.03312908,0.22396253,0.0016398728
20231225 03:34:26,0.710867,-0.166799,-0.155945,-0.200385,0.219896,0.207761,2.117882,-17.829582,7.690063,-173.86018,0.39269003,-0.18028824,-0.40283233,0.007238671,0.22619411,0.010991484
20231225 03:34:26,0.659382,-0.196959,0.218987,-0.181209,0.229484,0.212023,1.836414,-18.044312,8.103188,-174.59962,0.62893796,-0.19973972,-0.6243509,0.014836714,0.2318208,-0.013642192
20231225 03:34:26,0.527232,-0.255406,0.437370,-0.122615,0.245465,0.218415,1.888397,-18.416161,7.994003,-174.16943,0.6853528,-0.25480387,-0.6959369,0.05555106,0.24396229,-0.059484392
20231225 03:34:26,0.477555,-0.327608,0.571216,-0.055498,0.255053,0.214153,1.621140,-18.423370,6.920052,-174.6903,0.7389655,-0.32785177,-0.765071,0.09849453,0.25276712,-0.10503352
20231225 03:34:26,0.448267,-0.420760,0.570726,0.000965,0.252922,0.192846,1.384117,-17.971107,7.022133,-175.22229,0.7190957,-0.42147967,-0.7491559,0.12562084,0.25056458,-0.12864538
20231225 03:34:26,0.393994,-0.378565,0.540505,0.044645,0.239072,0.167278,1.217010,-17.700661,7.002823,-175.6295,0.6594388,-0.37989753,-0.685718,0.14159824,0.23738177,-0.14039114
20231225 03:34:27,0.390577,-0.408540,0.505973,0.077671,0.214569,0.139579,1.428944,-17.496010,6.991570,-174.91696,0.6343138,-0.4094389,-0.662773,0.14818227,0.2137995,-0.14116175
20231225 03:34:27,0.435378,-0.359175,0.399500,0.106435,0.200720,0.114011,1.914143,-17.555435,7.134247,-173.42326,0.59511733,-0.35831428,-0.6172626,0.15318832,0.20069122,-0.13860545
20231225 03:34:27,0.402222,-0.292545,0.199561,0.129873,0.213504,0.100161,1.147861,-17.902626,7.685181,-175.6999,0.4330023,-0.28821677,-0.43901455,0.15865244,0.2140709,-0.15072429
20231225 03:34:27,0.383298,-0.182058,0.037643,0.145853,0.248661,0.092704,0.919800,-17.355362,7.781151,-176.15424,0.30007094,-0.17355597,-0.30819732,0.16217184,0.24976544,-0.15715525
20231225 03:34:27,0.264396,-0.087183,-0.074729,0.158637,0.290209,0.092704,0.760235,-18.123741,7.963692,-176.1192,0.13250187,-0.07281536,-0.14373451,0.16389844,0.29224104,-0.16502434
20231225 03:34:27,0.093764,-0.000642,-0.159312,0.175683,0.342411,0.096965,1.105225,-17.627655,8.068718,-174.07294,-0.051889807,0.01614125,0.039579555,0.16719487,0.345488,-0.1700939
20231225 03:34:27,-0.164101,0.115339,-0.251409,0.205512,0.399940,0.109749,1.315353,-18.364975,7.984962,-172.24397,-0.30675918,0.12504491,0.299578,0.17576939,0.4040268,-0.18877915
20231225 03:34:27,-0.468799,0.190656,-0.316816,0.238538,0.446815,0.136383,0.885094,-18.311104,8.647018,-172.20891,-0.57178336,0.17226295,0.57575756,0.19552818,0.44967657,-0.22722918
20231225 03:34:27,-0.734086,0.167572,-0.362414,0.274760,0.473449,0.182193,0.620018,-17.568230,7.926041,-172.15134,-0.78162944,0.11309789,0.8011354,0.23611039,0.4721175,-0.2817227
20231225 03:34:27,-0.797473,0.034490,-0.527164,0.292871,0.481972,0.240787,0.610672,-17.471359,7.651680,-172.28885,-0.91993713,0.002757199,0.9459568,0.2892226,0.4730683,-0.33434945
20231225 03:34:27,-0.642860,-0.164006,-0.721645,0.284348,0.465992,0.300446,0.655880,-17.188156,7.901581,-172.95985,-0.934119,-0.13840488,0.94181514,0.34437644,0.45050782,-0.37275627
20231225 03:34:27,-0.135237,-0.382574,-0.890641,0.239603,0.442554,0.333472,0.489922,-17.493370,8.723686,-175.41025,-0.72836214,-0.31609002,0.6606714,0.37092546,0.4293024,-0.37521744
20231225 03:34:27,0.261701,-0.317846,-0.933755,0.184205,0.385025,0.337734,-0.197865,-17.735466,8.866608,-179.50735,-0.547851,-0.28218225,0.38557288,0.3660578,0.37893134,-0.35410064
20231225 03:34:27,0.665972,-0.246963,-1.182042,0.120284,0.351999,0.319623,-0.163422,-18.489243,9.050125,178.96992,-0.5389183,-0.27180412,0.1904856,0.3321805,0.35529223,-0.2933635
20231225 03:34:27,0.875581,0.036285,-1.396255,0.053168,0.348803,0.282336,-0.187744,-18.216118,9.701912,178.45078,-0.6393395,-0.016281107,0.083486795,0.27072108,0.35503277,-0.21093386
20231225 03:34:27,0.874968,0.249465,-1.581302,-0.016080,0.380764,0.240787,0.375950,-18.170433,9.436600,-179.45146,-0.8227402,0.21048144,0.15361357,0.19795941,0.38519356,-0.1185226
20231225 03:34:27,0.750741,0.400023,-1.586504,-0.084262,0.418051,0.189650,-0.461395,-17.760155,9.267509,178.92738,-0.9116823,0.42488268,0.24713016,0.1064473,0.41507486,-0.038930267
20231225 03:34:27,0.520395,0.509728,-1.464939,-0.155641,0.443619,0.145971,-0.073772,-17.539047,8.988998,-178.18184,-0.9376295,0.6127326,0.41099364,0.0063007846,0.42807737,0.053424217
20231225 03:34:27,0.208667,0.540311,-1.109315,-0.214235,0.442554,0.127860,-0.683449,-17.484161,8.443466,-179.03418,-0.8079962,0.6531569,0.5016917,-0.06708983,0.41314355,0.099672586
20231225 03:34:27,0.027166,0.531273,-0.662646,-0.242999,0.418051,0.135318,-1.187347,-17.230995,7.752068,179.20798,-0.54182476,0.59184647,0.39398152,-0.08935557,0.38345495,0.09868923
20231225 03:34:27,0.037320,0.415908,-0.304636,-0.229150,0.381829,0.142775,-0.789993,-17.298653,8.028381,-179.5241,-0.24206425,0.4426956,0.17209345,-0.07494068,0.3494646,0.08320003
20231225 03:34:27,0.015892,0.524077,-0.197196,-0.188666,0.350934,0.147036,-1.108467,-17.317787,7.624550,179.4751,-0.1900104,0.5400626,0.11095117,-0.04207333,0.31928924,0.048758708
20231225 03:34:27,-0.019501,0.722251,-0.366796,-0.151379,0.341346,0.163017,-0.813931,-17.217400,8.960640,-178.51044,-0.37761018,0.75403124,0.25370398,-0.004709542,0.3065877,0.023661748
20231225 03:34:27,-0.073197,0.877059,-0.614984,-0.138595,0.348803,0.194977,-1.044563,-17.228317,8.423172,-179.3981,-0.6318194,0.9324575,0.43310818,0.03097064,0.31070966,-0.003932424
20231225 03:34:27,-0.018318,1.052240,-0.806880,-0.142857,0.374372,0.220545,-0.992577,-17.600166,8.313988,-179.50061,-0.77877206,1.1305076,0.4878577,0.05373414,0.33515212,-0.009504363
20231225 03:34:27,0.048709,1.263050,-0.924333,-0.148183,0.412724,0.235460,-1.389549,-17.724396,8.318153,179.18918,-0.86942625,1.3590506,0.4729814,0.061910614,0.3708864,-0.014448538
20231225 03:34:27,-0.002204,1.389698,-0.943347,-0.144987,0.446815,0.242918,-1.372002,-17.342476,8.025452,179.72849,-0.953336,1.4957689,0.52954364,0.057756692,0.39621866,-0.018249564
20231225 03:34:27,-0.111212,1.479756,-0.971174,-0.139660,0.469188,0.259963,-1.459465,-17.542603,8.439560,-179.62672,-1.0813023,1.5913367,0.6367716,0.063675106,0.40749595,-0.026372321
20231225 03:34:27,-0.165197,1.590776,-1.060717,-0.152445,0.473449,0.291924,-1.565239,-17.740860,8.585419,179.88069,-1.1953267,1.705398,0.7204015,0.08658506,0.40866587,-0.0341419
20231225 03:34:27,-0.037574,1.580511,-1.046170,-0.187601,0.443619,0.326015,-1.770397,-18.600571,8.237579,177.90628,-1.0584466,1.6808542,0.58330846,0.112966,0.3885324,-0.035634145
20231225 03:34:27,0.257103,1.347934,-0.922402,-0.235542,0.376502,0.340930,-1.909843,-18.428841,8.760872,176.05823,-0.69002974,1.4133747,0.26486656,0.1192617,0.34351605,-0.01741092
20231225 03:34:27,0.638528,1.214561,-0.810050,-0.276025,0.297667,0.345191,-1.868744,-17.936264,7.255447,173.48157,-0.27542326,1.2131209,-0.12158638,0.1159686,0.2982829,3.3897161E-4
20231225 03:34:27,1.145717,1.041248,-0.696604,-0.304789,0.238007,0.317492,-2.360336,-17.413681,7.752319,169.80495,0.21428782,0.9362508,-0.6033126,0.08065243,0.27275193,0.025734544
20231225 03:34:27,1.576535,0.834455,-0.568773,-0.313312,0.197524,0.257833,-2.379036,-17.219940,7.203613,168.2842,0.65070903,0.62756956,-0.9756247,0.02064155,0.25065395,0.05749297
20231225 03:34:27,1.877234,0.550379,-0.437189,-0.309051,0.179413,0.174735,-2.130859,-16.827095,7.448380,168.38118,0.99245703,0.27466667,-1.1947238,-0.053176373,0.23395796,0.0938843
20231225 03:34:27,2.067506,0.250424,-0.247974,-0.282417,0.166629,0.075658,-2.758080,-17.154137,7.195541,166.24239,1.2754782,-0.05173948,-1.3794628,-0.117162034,0.21005076,0.1278049
20231225 03:34:27,2.108206,0.141300,-0.059510,-0.239803,0.151714,-0.034073,-2.051594,-17.105774,7.601326,168.90498,1.4470415,-0.12417872,-1.4880157,-0.1725019,0.17426711,0.17469531
20231225 03:34:27,2.033629,0.149910,0.067027,-0.189732,0.124015,-0.150196,-2.396580,-17.601868,7.496307,168.79692,1.4875487,-0.04834616,-1.5174075,-0.2263644,0.12642607,0.22171985
20231225 03:34:27,1.683198,0.289939,0.122464,-0.129007,0.094185,-0.257796,-2.292343,-16.636040,6.228554,170.24728,1.2589328,0.21514638,-1.3405343,-0.2708075,0.0870858,0.25726658
20231225 03:34:27,1.049616,0.598230,0.069787,-0.053367,0.086728,-0.328109,-2.309887,-17.017967,6.521263,172.60004,0.7363665,0.6177484,-0.88117874,-0.28241208,0.0931114,0.24879701
20231225 03:34:27,0.366427,0.970197,-0.017889,0.033991,0.095250,-0.347285,-1.930462,-17.275658,6.809799,176.4383,0.12482908,0.9944217,-0.30801868,-0.251503,0.13202305,0.19288203
20231225 03:34:27,-0.213197,1.316172,-0.163495,0.121350,0.117623,-0.323848,-2.246750,-16.544716,6.758934,177.18715,-0.4734952,1.2857412,0.22812825,-0.19063845,0.18392423,0.10377665
20231225 03:34:27,-0.576763,1.566920,-0.357654,0.191663,0.132538,-0.279103,-1.426945,-17.336929,7.220718,-178.19344,-0.9507318,1.4952924,0.7053863,-0.12607944,0.21653366,0.018778265
20231225 03:34:27,-0.781777,1.862604,-0.599360,0.233211,0.145322,-0.223705,-1.666538,-17.442856,6.689362,-178.62592,-1.3668551,1.7900605,1.0103309,-0.073521785,0.23239,-0.058027357
20231225 03:34:27,-0.902775,2.137972,-0.718141,0.247061,0.165563,-0.171503,-1.754002,-17.642975,7.103470,-177.9731,-1.6263642,2.0575912,1.1923724,-0.03922382,0.24525346,-0.105092935
20231225 03:34:27,-0.885585,2.404790,-0.891362,0.203382,0.132538,-0.120366,-1.699444,-17.456635,7.627739,-177.32922,-1.8180351,2.3684015,1.2888689,-0.01952558,0.19164076,-0.10161144
20231225 03:34:27,-0.722056,2.378165,-0.951624,0.102174,0.059029,-0.074556,-1.558849,-18.204033,7.945862,-177.569,-1.7136126,2.397004,1.1784458,-0.018134244,0.08951759,-0.043728475
20231225 03:34:27,-0.404781,2.126623,-0.860136,-0.020341,-0.014480,-0.030877,-1.629147,-17.830338,7.786797,-179.86833,-1.2898194,2.1800194,0.82322025,-0.033902362,-0.011237191,0.034224562
20231225 03:34:27,0.062511,1.790119,-0.514933,-0.121550,-0.038983,-0.012766,-1.109501,-18.643532,8.112991,179.82582,-0.555163,1.8330977,0.25615734,-0.07913354,-0.046760492,0.104903676
20231225 03:34:27,0.440815,1.489417,-0.024447,-0.202516,-0.038983,-0.031942,-1.418633,-18.759544,7.983521,177.5991,0.17409681,1.509124,-0.36094353,-0.15275389,-0.047490574,0.17622915
20231225 03:34:27,0.559886,0.975163,0.430599,-0.268568,-0.017676,-0.093732,-0.987335,-17.487671,6.833015,178.57405,0.6414851,0.9787433,-0.71821535,-0.25356054,-0.027465938,0.2578124
20231225 03:34:27,0.343210,0.431324,1.138739,-0.309051,0.004696,-0.160849,-0.978371,-17.392647,6.826904,179.30014,0.96613866,0.37541544,-1.0917847,-0.3390054,-0.009722862,0.32322872
20231225 03:34:27,0.056378,-0.022542,1.881834,-0.283482,0.005761,-0.220509,-0.644154,-17.933548,6.865540,-179.04028,1.1670853,-0.17218465,-1.5380309,-0.3583086,-0.0072727576,0.34666646
20231225 03:34:27,-0.278604,-0.274252,2.449144,-0.192928,0.004696,-0.251404,-0.935734,-17.667625,6.443367,-179.44664,1.1544502,-0.54451585,-1.8695749,-0.29935235,0.0015670415,0.3164182
20231225 03:34:27,-0.735828,-0.391168,2.721184,-0.050171,0.006827,-0.234358,-0.908455,-17.574463,6.705498,-178.35852,0.90850705,-0.82980317,-1.8647845,-0.16958743,0.025278792,0.22292683
20231225 03:34:27,-0.966574,-0.441583,2.574765,0.085128,0.001500,-0.185352,-1.050476,-17.960922,6.595345,-178.46204,0.6618967,-0.9474593,-1.5987155,-0.030858167,0.04170367,0.10569666
20231225 03:34:27,-0.966605,-0.448422,2.222200,0.174617,-0.025134,-0.140608,-0.635189,-17.838524,6.859428,-176.96898,0.53110224,-0.91979736,-1.2624865,0.06593557,0.02763846,0.011603631
20231225 03:34:27,-0.818673,-0.396551,1.746490,0.224689,-0.064552,-0.110778,-0.079685,-18.271645,7.161163,-175.32945,0.44591123,-0.77167934,-0.90357375,0.12080364,-0.0077404613,-0.054008514
20231225 03:34:27,-0.591673,-0.462708,1.114341,0.234277,-0.066682,-0.088406,-0.450150,-17.918938,6.866516,-176.73947,0.3008356,-0.7021372,-0.50065005,0.13464528,-0.014300834,-0.08419014
20231225 03:34:27,-0.390036,-0.576691,0.600920,0.201251,-0.029395,-0.069229,-0.289818,-17.534332,7.244919,-176.26462,0.15673463,-0.7030332,-0.23519586,0.113831446,0.011191187,-0.0785284
20231225 03:34:27,-0.201474,-0.888457,0.370950,0.143722,0.022807,-0.061772,0.080261,-17.695152,7.259102,-175.45331,0.17895165,-0.9461442,-0.21471968,0.070614226,0.050804555,-0.04139637
20231225 03:34:27,-0.112880,-1.238441,0.384260,0.084063,0.068617,-0.060707,-0.555157,-18.500984,7.573318,-177.5326,0.27349758,-1.2762995,-0.28083688,0.023571834,0.086334735,8.4448606E-5
20231225 03:34:27,-0.167853,-1.574129,0.628303,0.035057,0.082466,-0.050053,-0.202621,-19.043732,7.880196,-176.48904,0.3729817,-1.6376835,-0.50169575,-0.007414682,0.09149689,0.0255326
20231225 03:34:27,-0.111029,-1.920438,0.904432,0.000965,0.047310,-0.041530,-0.167149,-18.471764,7.575272,-176.85303,0.5490835,-1.9888955,-0.79447085,-0.02513648,0.05043375,0.036782634
20231225 03:34:27,0.056895,-2.177689,0.983394,-0.024603,-0.016611,-0.045792,-0.062141,-17.889725,6.868469,-177.24324,0.71045107,-2.2207136,-0.96002406,-0.043279186,-0.01607878,0.05118812
20231225 03:34:27,0.196600,-2.226875,0.887515,-0.049106,-0.070944,-0.055380,0.643963,-17.649475,6.993774,-175.51022,0.76895916,-2.2467024,-1.0040096,-0.066306874,-0.07193399,0.06806807
20231225 03:34:27,0.476778,-2.252575,0.708238,-0.085328,-0.095447,-0.073491,-0.210934,-17.621117,7.117393,-178.59634,0.892375,-2.240266,-0.89987826,-0.106427096,-0.0981168,0.1056937
20231225 03:34:27,0.543789,-2.107764,0.652988,-0.134334,-0.110362,-0.111843,0.034672,-17.786469,6.728722,-178.05037,0.914935,-2.0910995,-0.9040496,-0.16808993,-0.11440857,0.1641398
20231225 03:34:27,0.567319,-1.921057,0.634873,-0.190797,-0.109296,-0.161915,0.528835,-17.750870,6.865288,-176.31587,0.93003213,-1.9015061,-0.94513327,-0.24251337,-0.115154475,0.23533145
20231225 03:34:27,0.362857,-1.574837,0.730181,-0.242999,-0.090120,-0.208790,0.343410,-17.478577,6.577728,-176.10986,0.8349246,-1.5770967,-0.8920238,-0.31080645,-0.09988493,0.3051762
20231225 03:34:27,-0.018539,-1.337960,0.908206,-0.276025,-0.066682,-0.232228,0.537415,-17.463966,6.578705,-174.35123,0.64518493,-1.4158046,-0.8353325,-0.34971428,-0.08283022,0.34260833
20231225 03:34:27,-0.590178,-0.953856,1.225411,-0.276025,-0.046441,-0.211986,0.013401,-18.150925,5.546555,-175.52089,0.3528366,-1.2222505,-0.70772606,-0.33715123,-0.07005077,0.3297904
20231225 03:34:27,-1.031926,-0.638635,1.418472,-0.238738,-0.009154,-0.148065,0.793140,-18.109962,7.025322,-171.49751,0.0592528,-1.0877079,-0.61602205,-0.27518418,-0.03957455,0.2569898
20231225 03:34:27,-1.340890,-0.426326,1.617245,-0.164163,0.031330,-0.052184,0.466084,-18.416008,6.908081,-172.33377,-0.12503862,-1.0174081,-0.5758687,-0.16809851,-0.0012894832,0.14067051
20231225 03:34:27,-1.464525,-0.360210,1.730843,-0.062955,0.063290,0.061809,0.924393,-18.760490,7.069092,-171.01826,-0.16995138,-1.004277,-0.586331,-0.028045665,0.03415896,-0.0050695986
20231225 03:34:27,-1.325879,-0.290996,1.641243,0.040383,0.082466,0.170474,0.993919,-18.750412,6.667221,-171.32027,-0.080031455,-0.86167026,-0.5501386,0.11568107,0.059348986,-0.14946319
20231225 03:34:27,-1.057197,-0.282854,1.413054,0.125611,0.089924,0.253571,-0.074444,-18.159149,5.680191,-175.534,0.03486383,-0.70980346,-0.49343556,0.23465663,0.072923884,-0.27152804
20231225 03:34:27,-0.703538,-0.391255,1.147910,0.188467,0.078205,0.306839,0.464931,-17.840347,6.066666,-174.25394,0.19458267,-0.65643525,-0.49143785,0.3229673,0.06717673,-0.35026437
20231225 03:34:27,-0.273526,-0.544705,0.818058,0.236407,0.061159,0.329211,0.464546,-17.648453,5.786194,-175.23085,0.35446042,-0.6602515,-0.4952584,0.38155097,0.05617606,-0.3997478
20231225 03:34:27,0.121943,-0.693572,0.486856,0.260910,0.041983,0.317492,0.343029,-17.286682,6.297249,-176.2187,0.45905235,-0.7156179,-0.48653525,0.3985901,0.041312955,-0.40827724
20231225 03:34:27,0.471200,-0.895686,0.253347,0.268368,0.032395,0.277009,0.624878,-17.263847,6.164597,-176.01624,0.57675874,-0.8732338,-0.5435537,0.38079464,0.034946676,-0.38235408
20231225 03:34:27,0.666697,-1.118544,0.070929,0.270499,0.023872,0.216284,-0.019886,-17.972809,6.204460,-178.56511,0.6108916,-1.0804565,-0.5030952,0.34472445,0.028982934,-0.3388577
20231225 03:34:27,0.757941,-1.265783,-0.113512,0.258780,0.019611,0.152363,0.218941,-17.483101,6.174873,-177.90326,0.565103,-1.218566,-0.43298888,0.2953212,0.026434027,-0.28197718
20231225 03:34:27,0.742837,-1.449074,-0.200564,0.237473,0.005761,0.094834,0.052601,-17.596428,6.716492,-178.39627,0.5115895,-1.3989202,-0.3439616,0.24377058,0.014064401,-0.22313398
20231225 03:34:27,0.744779,-1.586529,-0.174428,0.209774,-0.031526,0.038371,0.316902,-17.955521,6.876534,-177.58493,0.53835094,-1.5373316,-0.38152888,0.1890042,-0.022200573,-0.16205001
20231225 03:34:27,0.735928,-1.646937,-0.169910,0.184205,-0.085859,-0.024485,0.404751,-17.947296,6.742897,-177.36952,0.53731424,-1.5996476,-0.38320437,0.13264027,-0.075418204,-0.09830539
20231225 03:34:27,0.799419,-1.695127,-0.241917,0.159702,-0.150845,-0.101190,0.307167,-17.666763,6.321701,-177.76549,0.53191143,-1.6452382,-0.36896956,0.0657374,-0.1392006,-0.027093455
20231225 03:34:27,0.768396,-1.580441,-0.325737,0.135199,-0.200916,-0.186418,0.617069,-17.934532,7.012115,-176.51476,0.44235736,-1.5212138,-0.32752663,-0.009672798,-0.18481576,0.043611854
20231225 03:34:27,0.632887,-1.305499,-0.478534,0.107500,-0.237138,-0.278038,0.495548,-17.572762,7.523178,-175.9576,0.23289675,-1.2171562,-0.1467605,-0.0922298,-0.20828143,0.118379004
20231225 03:34:27,0.370317,-0.989856,-0.626343,0.067017,-0.262706,-0.365396,0.618603,-18.702087,8.134010,-174.19896,-0.06303957,-0.86420774,0.10821155,-0.17781645,-0.21035148,0.19097143
20231225 03:34:27,-0.064183,-0.632855,-0.712426,0.018011,-0.264837,-0.420794,0.933739,-18.857361,7.343452,-171.60565,-0.43655783,-0.5021584,0.46834406,-0.23814932,-0.1816028,0.24704227
20231225 03:34:27,-0.513433,-0.227366,-0.684688,-0.030995,-0.257380,-0.435709,1.074989,-18.087120,6.892670,-169.65836,-0.77806306,-0.1724816,0.8073218,-0.26825973,-0.15671182,0.28414762
20231225 03:34:27,-0.910423,0.070432,-0.566998,-0.069348,-0.243530,-0.412271,1.304852,-17.692436,6.869194,-167.89305,-1.0303886,-0.0054297745,1.0527327,-0.27009565,-0.14420086,0.29208007
20231225 03:34:27,-1.199997,0.264308,-0.344225,-0.087458,-0.223289,-0.359004,1.383350,-17.587334,6.461197,-167.58875,-1.1332538,0.040195495,1.135303,-0.24563089,-0.13953441,0.27338627
20231225 03:34:27,-1.258171,0.302652,-0.226220,-0.077870,-0.206243,-0.288691,1.755611,-16.998077,6.828354,-165.92642,-1.1153898,0.026895847,1.0959921,-0.19493783,-0.140937,0.21774472
20231225 03:34:27,-1.292060,0.247688,0.059031,-0.049106,-0.193459,-0.219443,1.867783,-17.262985,6.042931,-166.61037,-0.94418555,-0.0903597,0.90197146,-0.13425592,-0.14273198,0.15505189
20231225 03:34:27,-1.101336,0.113688,0.041678,-0.018211,-0.186001,-0.159784,2.178711,-16.205002,6.244904,-165.23784,-0.787464,-0.14890051,0.7590189,-0.07813196,-0.14582334,0.08953957
20231225 03:34:27,-0.864276,-0.053550,-0.071651,-0.004361,-0.176413,-0.109713,2.062168,-17.440254,6.324379,-167.0428,-0.6576035,-0.21191813,0.643408,-0.04186541,-0.14865394,0.051378183
20231225 03:34:27,-0.570463,-0.307693,-0.202970,-0.002231,-0.161498,-0.080948,2.231083,-16.768745,6.416199,-166.80536,-0.49467432,-0.3653108,0.48704344,-0.028141452,-0.14291063,0.03179746
20231225 03:34:28,-0.301818,-0.530375,-0.295553,-0.010753,-0.145518,-0.075621,2.335823,-17.896217,6.758774,-167.72028,-0.33890358,-0.5209926,0.33576542,-0.03720493,-0.13256583,0.03847246
20231225 03:34:28,-0.123558,-0.596429,-0.333381,-0.026734,-0.132734,-0.093732,2.213924,-17.342560,6.989365,-168.202,-0.23410323,-0.5570632,0.23314244,-0.06477955,-0.121210285,0.065188035
20231225 03:34:28,-0.089535,-0.534126,-0.348340,-0.050171,-0.132734,-0.122497,2.150784,-17.815811,6.751686,-168.40005,-0.22499359,-0.4855196,0.22986215,-0.10044957,-0.11959642,0.10181316
20231225 03:34:28,-0.199582,-0.362408,-0.386511,-0.081066,-0.146584,-0.145934,2.291653,-16.853683,6.020432,-166.99052,-0.34822944,-0.32185087,0.3494919,-0.13390967,-0.13193552,0.13446239
20231225 03:34:28,-0.397557,-0.136008,-0.443782,-0.115157,-0.161498,-0.150196,2.538292,-15.693283,5.143311,-164.85503,-0.55931854,-0.11944986,0.55881894,-0.15438303,-0.14854223,0.15427008
20231225 03:34:28,-0.557697,0.123283,-0.501050,-0.147118,-0.167891,-0.142738,2.873928,-15.100334,4.973984,-162.54153,-0.7572016,0.115304396,0.75908166,-0.16627488,-0.15992579,0.16624153
20231225 03:34:28,-0.709027,0.350298,-0.517208,-0.168425,-0.172152,-0.120366,3.305340,-15.729874,5.153336,-160.80771,-0.9202315,0.30497575,0.9305826,-0.16016757,-0.17165053,0.16281426
20231225 03:34:28,-0.828493,0.477536,-0.551569,-0.185470,-0.170021,-0.085210,2.759575,-15.585510,5.406418,-162.37547,-1.055847,0.40655833,1.0640225,-0.14460829,-0.18069023,0.15743528
20231225 03:34:28,-0.885508,0.473466,-0.543722,-0.192928,-0.161498,-0.041530,2.996216,-15.845879,5.023865,-161.98921,-1.0894625,0.385943,1.1004027,-0.123087175,-0.18492332,0.13432963
20231225 03:34:28,-0.908941,0.402212,-0.466589,-0.180144,-0.151910,0.007476,2.942425,-16.415993,5.060539,-162.75954,-1.0378888,0.29282352,1.0485046,-0.08411601,-0.1846836,0.09504768
20231225 03:34:28,-0.904042,0.362812,-0.424205,-0.148183,-0.139126,0.065005,2.899788,-16.141022,5.444077,-162.66763,-0.9975232,0.2463035,1.008018,-0.026515432,-0.17859481,0.035612393
20231225 03:34:28,-0.895308,0.253515,-0.463113,-0.115157,-0.138061,0.128925,2.924496,-16.606033,5.072769,-163.26727,-0.9938512,0.15542224,1.0034113,0.038827777,-0.1836921,-0.030070454
20231225 03:34:28,-0.726427,0.067544,-0.617020,-0.101308,-0.162564,0.190716,2.679276,-16.632568,5.741913,-164.36171,-0.9434482,0.050609685,0.94853806,0.09622295,-0.21403922,-0.08281268
20231225 03:34:28,-0.485322,-0.061753,-0.870725,-0.109831,-0.207308,0.246114,2.906952,-16.987968,5.365463,-164.47774,-0.941556,0.015861511,0.9120746,0.13976043,-0.26228693,-0.11529128
20231225 03:34:28,-0.175107,-0.147129,-1.180281,-0.146053,-0.260576,0.281270,2.861740,-17.271172,5.115562,-165.4447,-0.9640244,0.009395972,0.8595179,0.15032479,-0.31654164,-0.1123875
20231225 03:34:28,0.106735,-0.184244,-1.375313,-0.200385,-0.321301,0.298316,2.660191,-16.246948,4.912727,-166.4009,-0.96497107,-0.02176334,0.7374179,0.13661987,-0.36883608,-0.07673167
20231225 03:34:28,0.467513,-0.092717,-1.655558,-0.278156,-0.326627,0.281270,2.351448,-16.554848,5.063728,-168.98619,-1.0004369,0.03152155,0.6286571,0.06783067,-0.35629323,0.0086850375
20231225 03:34:28,0.695814,0.129013,-1.636778,-0.362318,-0.288275,0.224807,2.530094,-16.172081,5.710373,-168.96107,-0.86482394,0.21112199,0.4559303,-0.035236686,-0.3071042,0.11569008
20231225 03:34:28,0.675326,0.416321,-1.276164,-0.417716,-0.215831,0.149167,2.173187,-17.129494,4.697548,-170.25443,-0.5646407,0.5109153,0.3345087,-0.14274508,-0.24121653,0.20254852
20231225 03:34:28,0.332612,0.639719,-0.679361,-0.417716,-0.155106,0.082050,2.463230,-16.627853,3.997833,-168.10698,-0.33076185,0.7236131,0.29218882,-0.2078349,-0.19579099,0.23248063
20231225 03:34:28,-0.147000,0.744998,-0.001040,-0.356991,-0.111427,0.053286,2.163837,-17.032623,4.423187,-169.03017,-0.19539377,0.7160062,0.20488593,-0.20379215,-0.15993178,0.1983944
20231225 03:34:28,-0.516402,0.685103,0.561162,-0.256849,-0.115688,0.053286,2.350681,-16.171066,4.502777,-167.78429,-0.100565135,0.526838,0.04819694,-0.14017197,-0.1568618,0.115900576
20231225 03:34:28,-0.659100,0.517446,0.899535,-0.141791,-0.152976,0.069266,2.393703,-16.637932,4.399712,-168.22415,0.0168643,0.3105427,-0.15642565,-0.04467008,-0.17824855,0.017613117
20231225 03:34:28,-0.547764,0.334807,0.966984,-0.038452,-0.215831,0.090573,2.453884,-16.530991,3.723473,-168.47812,0.16622034,0.16801116,-0.31735814,0.050307482,-0.2269003,-0.07569629
20231225 03:34:28,-0.198636,0.178991,0.791619,0.040383,-0.270164,0.100161,2.118244,-17.123940,3.892815,-170.65804,0.35170865,0.10634847,-0.43921188,0.11460233,-0.27235132,-0.13437116
20231225 03:34:28,0.229513,0.032636,0.551952,0.096847,-0.295732,0.091638,2.472195,-16.532837,3.991714,-169.8769,0.5343122,0.022700341,-0.5559218,0.14325953,-0.29467264,-0.17080435
20231225 03:34:28,0.615514,-0.066607,0.356845,0.135199,-0.309582,0.047959,2.278961,-16.931221,4.551689,-171.59268,0.69739395,-0.06484201,-0.68014616,0.13451563,-0.30902457,-0.15912978
20231225 03:34:28,0.812020,-0.105515,0.169373,0.159702,-0.304255,-0.026615,2.284969,-17.202507,3.631653,-171.52629,0.7142609,-0.10864007,-0.6817528,0.09893434,-0.30512285,-0.12113766
20231225 03:34:28,0.779750,-0.032927,0.084430,0.182075,-0.291471,-0.110778,2.312634,-17.301224,4.174263,-171.29597,0.62817377,-0.0258918,-0.5964502,0.060351633,-0.28858086,-0.07634205
