Timestamp,linacce_x,linacce_y,linacce_z,gyro_x,gyro_y,gyro_z,X-magnetometer,Y-magnetometer,Z-magnetometer,Yaw, worldXAccel,worldYAccel,worldZAccel,worldXgyro,worldYgyro,worldZgyro
20231225 03:27:29,-0.009269,-0.108284,-0.237473,-0.011354,-0.127712,-0.419073,-6.683628,30.257530,-32.512413,6.6067424,-0.16824691,-0.11529097,-0.1605434,-0.291187,-0.14032367,-0.29208502
20231225 03:27:29,-0.228112,0.045907,-0.089438,-0.002831,-0.124516,-0.390309,-6.683247,30.065647,-32.231956,7.4822025,-0.22813465,0.048914436,0.0832362,-0.2666613,-0.13170458,-0.27262732
20231225 03:27:29,-0.279935,0.118807,-0.111087,0.003561,-0.127712,-0.351956,-6.753544,30.439342,-32.391014,7.725277,-0.27939758,0.121704236,0.096790045,-0.23756933,-0.13307174,-0.24642426
20231225 03:27:29,-0.279239,0.097979,-0.181649,0.003561,-0.129843,-0.315734,-6.744965,30.726250,-32.677605,7.624411,-0.32692814,0.09982253,0.047125295,-0.21318106,-0.13472049,-0.2199601
20231225 03:27:29,-0.230877,0.028583,-0.279536,-0.007093,-0.120254,-0.290166,-6.602566,30.920822,-32.286980,7.075629,-0.35792267,0.028060125,-0.054135516,-0.2020291,-0.12632905,-0.19816133
20231225 03:27:29,-0.219923,-0.201958,-0.239541,-0.008158,-0.106405,-0.276316,-7.281384,30.773743,-32.150154,8.438303,-0.32566917,-0.2016699,-0.014315948,-0.18744792,-0.11013359,-0.19038098
20231225 03:27:29,-0.304953,-0.516393,-0.209424,0.015279,-0.059530,-0.284839,-7.035011,30.224617,-31.977882,8.905316,-0.3707794,-0.5157367,0.093303815,-0.16764995,-0.06070443,-0.22111815
20231225 03:27:29,-0.436307,-0.787512,-0.050271,0.055763,-0.004132,-0.296558,-7.088802,29.654503,-31.941200,10.188094,-0.3702349,-0.79341155,0.33365828,-0.13326477,8.536177E-5,-0.26636937
20231225 03:27:29,-0.570517,-1.043244,0.118297,0.120749,0.020371,-0.308277,-7.089184,29.846390,-32.221687,11.043591,-0.37646568,-1.0633798,0.58584064,-0.07800249,0.031132294,-0.32035875
20231225 03:27:29,-0.664878,-1.311171,0.141581,0.199585,0.024633,-0.323192,-7.106731,29.464462,-31.928978,11.669626,-0.43464392,-1.3409613,0.7071612,-0.016368434,0.041883893,-0.37811202
20231225 03:27:29,-0.597826,-1.400739,0.006297,0.286943,0.021437,-0.344499,-7.194572,29.456230,-31.795357,11.049406,-0.46023625,-1.4162967,0.5672775,0.037952065,0.035715684,-0.44484502
20231225 03:27:29,-0.391508,-1.332266,-0.113722,0.375367,0.005457,-0.372198,-7.124275,29.082535,-31.636284,10.116741,-0.37258488,-1.3352469,0.33082482,0.08070566,0.011979638,-0.5185286
20231225 03:27:29,-0.227854,-1.195233,-0.446043,0.445680,0.010783,-0.408420,-7.220318,28.595509,-30.935600,9.634936,-0.4613014,-1.1956865,-0.042637497,0.088899136,0.00808512,-0.5948738
20231225 03:27:29,-0.146846,-0.846907,-0.584189,0.471248,0.000130,-0.459556,-6.896599,28.727142,-32.012733,8.666896,-0.51209056,-0.8501074,-0.22908378,0.03156686,-0.0072327554,-0.6536486
20231225 03:27:29,-0.052188,-0.244495,-1.076080,0.437157,0.018241,-0.508562,-7.196762,28.706158,-32.148323,8.667814,-0.8347984,-0.25891027,-0.6519888,-0.08207813,0.00550522,-0.66348875
20231225 03:27:29,-0.007220,0.339342,-1.303493,0.339145,0.032090,-0.535196,-7.293571,28.602905,-32.008568,8.769495,-1.0142509,0.31837687,-0.83460367,-0.20364743,0.019071544,-0.59892356
20231225 03:27:29,0.028327,0.777498,-1.391895,0.197454,0.060855,-0.561830,-6.978432,28.447632,-32.799126,8.48573,-1.0835006,0.7601462,-0.9221274,-0.32823962,0.05216232,-0.49806955
20231225 03:27:29,-0.001464,1.115047,-1.289806,0.026998,0.082162,-0.593790,-7.284607,28.697926,-32.014687,9.764731,-1.0342075,1.1177602,-0.8762739,-0.45858267,0.083456,-0.38158852
20231225 03:27:29,-0.108676,1.340497,-1.022399,-0.149850,0.081096,-0.643861,-6.984444,28.718918,-31.879097,11.108347,-0.9178854,1.3711252,-0.6900549,-0.60216546,0.09893578,-0.2799589
20231225 03:27:29,-0.425755,1.578221,-0.485211,-0.323501,0.040613,-0.696063,-7.196762,28.706158,-32.148323,14.154703,-0.77540225,1.5793277,-0.22610897,-0.74097717,0.07586137,-0.19379151
20231225 03:27:29,-0.921611,1.710298,0.152205,-0.450278,-0.033961,-0.736547,-7.090603,28.712536,-32.013710,16.160868,-0.71156174,1.5708036,0.46007627,-0.83682287,0.0052784085,-0.13632262
20231225 03:27:29,-1.359504,2.022408,0.639861,-0.500349,-0.087229,-0.755723,-7.424053,28.869652,-31.491402,19.240248,-0.8059751,1.6584201,0.9483957,-0.86520696,-0.03837177,-0.10399744
20231225 03:27:29,-1.920853,2.381657,0.997815,-0.460931,-0.073379,-0.710978,-7.363102,28.592827,-31.606682,21.30085,-1.0982618,1.7330257,1.4368695,-0.79884493,-0.016609922,-0.10379481
20231225 03:27:29,-2.365690,2.805377,1.265672,-0.344808,-0.008393,-0.614032,-7.696171,28.558060,-30.803917,23.388071,-1.4040059,1.8678826,1.7391548,-0.65761924,0.05571019,-0.13953581
20231225 03:27:29,-2.677198,2.915188,1.300144,-0.179679,0.071508,-0.497909,-7.387428,28.865955,-30.954918,24.573862,-1.7168611,1.7427914,1.912077,-0.47888684,0.1498787,-0.20417976
20231225 03:27:29,-2.946952,2.876255,1.058813,-0.007093,0.146083,-0.363675,-7.240166,29.364910,-32.325722,25.693506,-2.1237905,1.5743328,1.9377162,-0.2893398,0.23477456,-0.2638198
20231225 03:27:29,-3.023905,2.630909,0.621603,0.159101,0.219592,-0.199611,-7.776970,29.604294,-32.078743,27.315065,-2.4308498,1.3682473,1.7742901,-0.091669895,0.30474943,-0.305682
20231225 03:27:29,-2.900532,2.321390,0.064807,0.235806,0.256879,-0.112253,-7.188564,29.184952,-32.715370,27.106071,-2.6119125,1.2838742,1.4930398,0.0016340241,0.33391014,-0.32040834
20231225 03:27:29,-2.507417,1.787716,-0.515488,0.384955,0.295231,0.128516,-7.028618,29.761448,-32.617455,25.255045,-2.5158408,1.1747832,1.0970266,0.2556965,0.33167663,-0.29795
20231225 03:27:29,-1.876251,1.089517,-1.115790,0.413720,0.273924,0.240377,-6.782242,29.212318,-32.445168,22.975775,-2.287305,0.91389096,0.5122645,0.36915022,0.2849607,-0.24472204
20231225 03:27:29,-1.234086,0.451359,-1.727920,0.390282,0.216396,0.304298,-6.843578,29.681038,-32.610359,20.054937,-2.167177,0.594824,-0.11901301,0.42640257,0.20868221,-0.17783414
20231225 03:27:29,-0.572824,-0.127488,-2.374674,0.305054,0.143952,0.326671,-7.107494,29.848236,-32.489922,15.813998,-2.2229502,0.12131384,-0.84861445,0.42196986,0.12869154,-0.08706243
20231225 03:27:29,0.001595,-0.554532,-2.930837,0.174016,0.073639,0.313886,-6.701176,29.875607,-32.219734,11.533976,-2.4176652,-0.39593512,-1.5116603,0.35345346,0.06273768,0.014526725
20231225 03:27:29,0.363650,-0.705021,-3.325398,0.013149,0.049136,0.267011,-7.134773,29.755066,-32.752052,8.073508,-2.6730733,-0.79256755,-1.964391,0.23637182,0.055533566,0.12204228
20231225 03:27:29,0.649062,-0.647072,-3.464689,-0.167960,0.097077,0.189241,-6.897369,29.110920,-32.573677,5.476082,-2.655839,-0.91967493,-2.3177013,0.0804641,0.11750447,0.23665598
20231225 03:27:29,0.661316,-0.384959,-3.101334,-0.338416,0.172716,0.106144,-6.993793,28.815784,-32.153465,8.486639,-2.192467,-0.43874696,-2.2449362,-0.100754626,0.17780186,0.32423684
20231225 03:27:29,0.238820,-0.020961,-2.249599,-0.463062,0.215330,0.060334,-7.390381,28.499657,-31.868828,13.662821,-1.5987678,0.15051362,-1.5490329,-0.25749534,0.18420397,0.36642373
20231225 03:27:29,-0.338200,0.275933,-1.313725,-0.523787,0.201481,0.050746,-7.108147,28.330605,-31.721016,16.294762,-1.2214227,0.39209372,-0.6468624,-0.33810684,0.13658473,0.38324037
20231225 03:27:29,-0.769939,0.525468,-0.631915,-0.535506,0.136494,0.079510,-6.526134,28.374432,-31.718086,16.999855,-1.0544143,0.49967963,0.027145863,-0.3351258,0.05014474,0.41024476
20231225 03:27:29,-1.026750,0.822508,-0.095676,-0.529113,0.016110,0.134908,-7.073822,29.478241,-32.867348,17.783163,-0.9097534,0.6707412,0.48679557,-0.28173998,-0.08021031,0.46233225
20231225 03:27:29,-1.051649,0.919533,0.076212,-0.500349,-0.098948,0.188175,-6.904526,29.957867,-32.495064,17.040506,-0.8166858,0.74653846,0.60576767,-0.20899723,-0.19193088,0.50179225
20231225 03:27:29,-0.938687,1.006547,0.106268,-0.442820,-0.138365,0.230789,-7.476807,29.625282,-31.943153,16.603434,-0.7114439,0.8705682,0.5262628,-0.13982002,-0.21501064,0.49646294
20231225 03:27:29,-0.758198,1.062252,0.135840,-0.351200,-0.098948,0.257423,-7.353104,30.013588,-32.101250,15.314131,-0.5505458,0.96297944,0.42474392,-0.06216289,-0.15817994,0.4418842
20231225 03:27:29,-0.566250,1.072598,0.331975,-0.239339,-0.036092,0.263815,-7.274223,29.926800,-32.228767,13.984226,-0.2673685,0.99609256,0.4334313,0.0076719075,-0.074739814,0.35681117
20231225 03:27:29,-0.442009,0.909614,0.602270,-0.111497,0.018241,0.242508,-7.447723,30.660412,-31.608528,13.749304,0.010336578,0.831149,0.5697648,0.077091955,-0.006584718,0.2465122
20231225 03:27:29,-0.463370,0.821489,0.722543,0.015279,0.039548,0.209482,-7.344521,30.300495,-32.387840,13.613886,0.07005894,0.7350036,0.6880935,0.14604482,0.026726857,0.13625832
20231225 03:27:29,-0.520146,0.724659,0.733212,0.129272,0.011849,0.172195,-7.413670,30.098530,-31.705482,14.188139,0.04378435,0.6242291,0.7441522,0.20952293,0.009795194,0.036436327
20231225 03:27:29,-0.553441,0.701655,0.475670,0.209173,-0.047811,0.147692,-7.273838,29.734909,-31.948296,14.179135,-0.13916782,0.61518586,0.5881077,0.25686938,-0.041506454,-0.028223
20231225 03:27:29,-0.475070,0.699968,0.039036,0.252852,-0.115993,0.128516,-7.952660,29.587833,-31.811485,14.65936,-0.3583558,0.65905344,0.23863411,0.277372,-0.1064377,-0.07095669
20231225 03:27:29,-0.350233,0.674561,-0.475893,0.253917,-0.171391,0.108274,-7.749306,29.505573,-31.536140,13.84507,-0.6296022,0.68184096,-0.16522083,0.26252517,-0.16257139,-0.08758517
20231225 03:27:29,-0.209019,0.690310,-0.829640,0.232610,-0.201221,0.086967,-7.865200,29.787952,-32.225594,12.618485,-0.79018176,0.71745867,-0.47743085,0.22765508,-0.1957152,-0.089555025
20231225 03:27:29,-0.077302,0.626715,-1.215181,0.199585,-0.177783,0.048615,-7.513432,29.628979,-32.479652,11.588635,-1.0016944,0.6652998,-0.7858808,0.1714374,-0.17356822,-0.099505216
20231225 03:27:29,-0.036936,0.671177,-1.274432,0.156971,-0.147954,0.002805,-8.174713,29.863831,-32.635536,12.772891,-1.030279,0.7220308,-0.8608405,0.10864969,-0.14241554,-0.09806698
20231225 03:27:29,-0.158767,0.778537,-1.195208,0.113291,-0.119189,-0.044070,-8.289448,29.570541,-32.483559,14.33251,-1.0642804,0.84547603,-0.7486806,0.047236826,-0.109572515,-0.095152654
20231225 03:27:29,-0.416742,0.828938,-0.946621,0.083462,-0.118124,-0.074966,-8.120537,30.242058,-32.391747,15.532108,-1.0593352,0.87690467,-0.42975304,0.0096125305,-0.10351539,-0.08961715
20231225 03:27:29,-0.687057,0.866847,-0.745812,0.065351,-0.139431,-0.081358,-8.474873,29.842842,-32.771126,17.16503,-1.1050446,0.872243,-0.12930918,-0.0010615587,-0.1221623,-0.07315676
20231225 03:27:29,-0.870020,0.889181,-0.630362,0.044044,-0.168195,-0.066443,-8.484222,29.939713,-33.045479,17.898012,-1.1556921,0.8569107,0.06033829,0.0020077378,-0.15246458,-0.04041699
20231225 03:27:29,-0.902867,0.843681,-0.526267,0.022737,-0.208678,-0.045136,-8.605740,30.301479,-32.534416,17.673038,-1.094416,0.79594016,0.14760926,0.0074686185,-0.19811025,-0.0028553195
20231225 03:27:29,-0.873221,0.747266,-0.562651,-0.003897,-0.254488,-0.032352,-8.572063,29.931484,-32.911842,17.43004,-1.0868211,0.70966196,0.119511366,0.0028126054,-0.24815898,0.033797324
20231225 03:27:29,-0.768234,0.629144,-0.512284,-0.030531,-0.273665,-0.023829,-8.932030,29.611652,-32.090721,16.960474,-0.9556089,0.6040517,0.09771997,-0.012404803,-0.2718358,0.061326623
20231225 03:27:29,-0.564638,0.560883,-0.463618,-0.052903,-0.276861,-0.029156,-8.659912,29.923252,-32.778206,15.216539,-0.7640532,0.552362,-0.0060805976,-0.037832413,-0.27705488,0.068995215
20231225 03:27:29,-0.429911,0.599373,-0.296745,-0.058230,-0.266207,-0.063247,-9.110672,29.228893,-32.737373,15.01948,-0.54501164,0.59085965,-5.428493E-5,-0.07107352,-0.26504815,0.047244452
20231225 03:27:29,-0.437966,0.790816,-0.106325,-0.040119,-0.237443,-0.107991,-9.611237,29.656467,-32.234383,16.260088,-0.43352792,0.7662374,0.08906075,-0.08932547,-0.23183107,0.0028972402
20231225 03:27:29,-0.660489,1.132938,0.142735,0.014214,-0.191633,-0.154867,-9.046768,29.318367,-31.938744,17.25802,-0.45992136,1.0502994,0.3407715,-0.0833115,-0.17406532,-0.07305371
20231225 03:27:29,-1.014570,1.594086,0.275815,0.099442,-0.123451,-0.194285,-9.842251,29.837444,-33.052315,20.212313,-0.69692457,1.4043151,0.5563332,-0.058051556,-0.08262771,-0.16745108
20231225 03:27:29,-1.520169,2.260529,0.304493,0.192127,-0.027569,-0.211330,-10.069923,30.192837,-32.675865,23.179897,-1.1852982,1.8877815,0.7672602,-0.02706474,0.044253554,-0.2651369
20231225 03:27:29,-1.992959,2.928416,0.370214,0.266702,0.077900,-0.180435,-9.666176,29.662014,-33.039116,24.877676,-1.6566285,2.3399684,0.97842705,0.017079175,0.16563271,-0.33085236
20231225 03:27:29,-2.350410,3.365104,0.598162,0.309316,0.139690,-0.103730,-9.647095,29.276390,-32.209923,26.117188,-1.8966862,2.5556087,1.2082573,0.0869869,0.22144042,-0.33686703
20231225 03:27:29,-2.441496,3.422794,0.890242,0.323165,0.133298,0.004936,-9.710613,28.995029,-32.728065,25.424154,-1.7269268,2.5776083,1.426031,0.18255821,0.18938081,-0.28014302
20231225 03:27:29,-2.240337,3.266998,1.131836,0.299727,0.069377,0.141300,-10.150612,29.337662,-32.620842,24.050312,-1.3038478,2.5450344,1.4815723,0.2871115,0.09114207,-0.1578809
20231225 03:27:29,-1.693702,2.884579,1.274497,0.214500,-0.048876,0.289383,-9.823551,29.643703,-32.503593,20.00719,-0.59566444,2.4707873,1.3908472,0.36127168,-0.060192026,0.03692937
20231225 03:27:30,-0.815463,2.186948,1.175920,0.095181,-0.167130,0.406572,-9.965187,29.065357,-32.333290,15.284824,0.18282908,2.1048548,0.97311866,0.36356625,-0.1793805,0.23674612
20231225 03:27:30,0.165816,1.248746,0.995129,-0.031596,-0.211874,0.472623,-10.061996,28.962112,-32.193535,10.635213,0.84547675,1.2789404,0.43651876,0.28860372,-0.19142821,0.39131632
20231225 03:27:30,1.043490,0.372273,0.935415,-0.165830,-0.187371,0.486473,-10.186081,28.765694,-32.315926,6.32232,1.429648,0.3310041,0.035972774,0.15345706,-0.11445699,0.49642944
20231225 03:27:30,1.799421,-0.363050,1.213673,-0.294737,-0.150084,0.452382,-10.231293,28.482487,-32.565834,3.0524015,2.1037307,-0.5451704,0.01837629,-0.019137412,-0.02882196,0.54597116
20231225 03:27:30,2.358689,-1.011153,1.643453,-0.383161,-0.112797,0.341586,-10.680634,28.921982,-32.732948,1.9594933,2.6975143,-1.3069159,0.287686,-0.1849009,0.027004343,0.48975337
20231225 03:27:30,2.609703,-1.477706,2.203751,-0.406598,-0.080837,0.174326,-10.512108,29.785389,-32.921608,2.1291919,3.110656,-1.7835873,0.8731562,-0.29984444,0.037206925,0.33850688
20231225 03:27:30,2.424554,-1.791881,2.649876,-0.357592,-0.043549,-0.025960,-10.564095,30.157234,-32.812431,4.158167,3.113432,-1.9925047,1.5167984,-0.33986259,0.02724054,0.12769672
20231225 03:27:30,1.923072,-1.804100,3.116114,-0.243600,-0.027569,-0.210265,-10.749130,30.237644,-32.819511,7.8141565,2.9265819,-1.8489287,2.2159555,-0.3101417,-0.0074505853,-0.08327161
20231225 03:27:30,1.094152,-1.517117,3.374716,-0.075275,-0.012654,-0.357283,-10.643356,30.435913,-32.965370,11.446927,2.4229279,-1.4820434,2.7581842,-0.22494629,-0.018331759,-0.2789976
20231225 03:27:30,0.154010,-0.945172,3.422089,0.138860,-0.038223,-0.441445,-11.067612,30.218510,-33.223351,15.846406,1.8302938,-0.99115115,3.0153558,-0.09554243,-0.028079279,-0.4289653
20231225 03:27:30,-0.769596,-0.249157,2.907284,0.345537,-0.063791,-0.436119,-10.239990,30.096985,-33.609093,18.497438,0.98359776,-0.52782214,2.784537,0.050602064,0.0025537275,-0.519115
20231225 03:27:30,-1.565270,0.246877,2.079233,0.504274,-0.063791,-0.324257,-10.970413,30.129868,-33.082634,22.334778,-0.029549956,-0.26087737,2.4043763,0.21395952,0.05724971,-0.5259141
20231225 03:27:30,-1.821677,0.336897,1.241450,0.611874,-0.025439,-0.138886,-11.263412,29.261932,-33.296822,23.680305,-0.6658593,-0.15235262,1.9376962,0.38555706,0.09759073,-0.48263407
20231225 03:27:30,-1.503824,0.068542,0.460200,0.667272,0.010783,0.059268,-11.086960,28.894615,-33.003166,21.558344,-0.8251059,-0.17683199,1.3036473,0.53464955,0.0889405,-0.40724808
20231225 03:27:30,-0.812648,-0.335463,-0.160948,0.643835,0.005457,0.221201,-11.137787,28.690796,-32.052559,17.735552,-0.69120026,-0.37106955,0.51065856,0.62372875,0.029684987,-0.28020018
20231225 03:27:30,-0.041555,-0.935886,-0.704403,0.530908,-0.053138,0.326671,-11.016273,28.329029,-32.563622,12.324278,-0.5314168,-0.9560371,-0.33548462,0.611261,-0.061598144,-0.109078944
20231225 03:27:30,0.651984,-1.448519,-1.004324,0.341276,-0.157542,0.377807,-11.459221,28.305359,-33.370308,7.542031,-0.30725116,-1.617036,-1.0358233,0.4850042,-0.15738522,0.0767279
20231225 03:27:30,1.258917,-1.899817,-1.310153,0.093050,-0.271534,0.390592,-11.353447,28.503624,-33.516167,2.0920136,-0.10119879,-2.3238692,-1.7514997,0.25751096,-0.2148188,0.258998
20231225 03:27:30,1.899734,-2.429802,-1.309781,-0.169026,-0.358892,0.349043,-11.063019,28.813374,-33.935417,-2.7210717,0.41025293,-3.104047,-2.2389736,-0.032786623,-0.21216255,0.36964098
20231225 03:27:30,2.408977,-2.787475,-1.115935,-0.385291,-0.359958,0.254227,-11.827118,29.216255,-33.031517,-3.1518059,1.0485773,-3.6124225,-2.2875476,-0.29169536,-0.14610904,0.3931548
20231225 03:27:30,2.659570,-3.063647,-0.619956,-0.506741,-0.307756,0.128516,-12.085022,29.112175,-33.831123,-2.4748938,1.6381238,-3.8512537,-1.8312371,-0.45623606,-0.087861665,0.32358608
20231225 03:27:30,2.566497,-3.184016,0.069285,-0.524852,-0.226789,-0.006783,-11.784477,28.941273,-33.415062,-0.47385183,1.9422559,-3.7862694,-0.9884875,-0.51449746,-0.049825832,0.20226136
20231225 03:27:30,2.318796,-3.091992,0.704841,-0.454539,-0.128777,-0.142082,-12.242401,29.093864,-33.295586,3.5087674,2.053235,-3.4830322,-0.10679501,-0.48553044,-0.023578813,0.058588564
20231225 03:27:30,1.874792,-2.781369,1.160079,-0.361854,-0.052072,-0.263532,-12.533981,29.359779,-33.717766,6.7448716,1.9244022,-2.9800303,0.5625264,-0.44086516,-0.0032633934,-0.081472695
20231225 03:27:30,1.422022,-2.387193,1.409630,-0.288345,-0.041419,-0.362610,-12.337410,29.932579,-33.083351,9.389421,1.727519,-2.4576602,0.9519683,-0.42137784,-0.02602994,-0.18411572
20231225 03:27:30,0.936006,-1.982261,1.500644,-0.231881,-0.055268,-0.439315,-12.416283,30.019371,-32.955818,11.957402,1.4449205,-1.9817252,1.1925361,-0.4169109,-0.055920597,-0.25419125
20231225 03:27:30,0.449879,-1.474802,1.521032,-0.176483,-0.066987,-0.481928,-12.215889,29.570812,-33.594414,13.940756,1.1387178,-1.4547727,1.3314252,-0.4024536,-0.07145502,-0.29423273
20231225 03:27:30,0.054633,-1.025018,1.492309,-0.126412,-0.073379,-0.484059,-12.681740,30.954128,-33.957283,15.73629,0.85717624,-1.0217365,1.4072547,-0.37009302,-0.07405177,-0.30493224
20231225 03:27:30,-0.263887,-0.708742,1.452448,-0.080602,-0.077641,-0.463818,-12.532181,30.301750,-33.645271,17.424776,0.6158351,-0.745412,1.4680523,-0.32661122,-0.070604615,-0.30059963
20231225 03:27:30,-0.545098,-0.439453,1.391800,-0.031596,-0.075510,-0.428661,-12.770622,29.620155,-33.335197,19.247225,0.3805225,-0.52293396,1.5040357,-0.27127737,-0.060269587,-0.29074404
20231225 03:27:30,-0.739541,-0.244010,1.361146,0.044044,-0.054203,-0.364740,-12.904442,29.712494,-34.012428,19.964893,0.21726239,-0.36216956,1.5362818,-0.17654094,-0.032671686,-0.28763902
20231225 03:27:30,-0.840418,-0.131387,1.264172,0.146317,-0.023308,-0.293362,-12.831955,30.088875,-33.500389,20.335886,0.10472727,-0.272568,1.4883823,-0.05976087,0.0058956407,-0.3009476
20231225 03:27:30,-0.890875,0.045070,1.071534,0.254983,0.012914,-0.213461,-12.814026,30.278912,-33.512611,20.211304,-0.023909926,-0.09148748,1.3300216,0.0636158,0.046016164,-0.3196229
20231225 03:27:30,-0.819490,0.101020,0.695175,0.356191,0.044874,-0.141017,-12.867813,29.708797,-33.475945,20.221495,-0.17668465,-0.0020380951,1.0023916,0.17582792,0.07923488,-0.34429112
20231225 03:27:30,-0.700270,0.085478,0.268749,0.435027,0.075770,-0.082423,-12.665497,28.300793,-32.712151,19.942608,-0.3361361,0.027876772,0.6400225,0.25888616,0.10638425,-0.3715639
20231225 03:27:30,-0.522800,0.105535,-0.192360,0.486163,0.120514,-0.029156,-12.753731,28.484451,-32.858986,19.316462,-0.5118983,0.0891435,0.2133279,0.3197196,0.14521267,-0.38953826
20231225 03:27:30,-0.391582,0.100925,-0.467479,0.510666,0.154605,0.027308,-12.992554,27.994743,-32.829399,18.828651,-0.61106145,0.10367186,-0.05177605,0.3711278,0.17027946,-0.38213593
20231225 03:27:30,-0.174466,0.040352,-0.647464,0.497882,0.139690,0.084837,-12.305534,28.620617,-33.533272,16.296944,-0.59272456,0.04594466,-0.30431178,0.40016744,0.14406303,-0.33509985
20231225 03:27:30,0.048632,0.017818,-0.928917,0.432896,0.097077,0.140235,-12.738365,28.116302,-33.504662,14.928504,-0.6590655,-0.003912203,-0.63785803,0.39530566,0.09151164,-0.24889886
20231225 03:27:30,0.359563,0.036706,-1.114221,0.327426,0.036352,0.193502,-13.111404,27.910820,-34.432762,12.722758,-0.60227185,-0.05406462,-0.9881958,0.36233285,0.030521061,-0.12943396
20231225 03:27:30,0.697795,-0.084500,-1.239756,0.188931,-0.017981,0.233985,-12.447556,28.234158,-33.643425,9.002304,-0.46516004,-0.29702908,-1.3251247,0.2962919,-0.010073628,0.013429448
20231225 03:27:30,1.117577,-0.193039,-1.147424,0.045109,-0.064856,0.247835,-12.685997,27.552563,-33.333382,6.4771295,-0.08268714,-0.5397029,-1.580199,0.19682847,-0.030390766,0.14059082
20231225 03:27:30,1.525857,-0.344000,-0.950044,-0.081667,-0.092555,0.220136,-12.659103,27.837624,-33.351723,4.0222497,0.38055038,-0.80639875,-1.7285845,0.07284844,-0.031475343,0.21841575
20231225 03:27:30,1.788030,-0.562391,-0.680127,-0.195660,-0.117058,0.155150,-12.631058,27.547012,-32.528648,3.8505323,0.7821804,-1.0422199,-1.674566,-0.06742838,-0.042033486,0.25187933
20231225 03:27:30,1.806377,-0.696076,-0.298738,-0.285149,-0.139431,0.077379,-12.721474,26.980595,-33.028450,5.0834146,1.0825264,-1.0757655,-1.342761,-0.19311114,-0.06622927,0.25192025
20231225 03:27:30,1.632498,-0.735285,0.100217,-0.338416,-0.149019,0.003870,-12.622093,27.642033,-32.534752,7.228327,1.2434504,-0.9757809,-0.86396766,-0.28237224,-0.08912394,0.22797528
20231225 03:27:30,1.326912,-0.766571,0.502563,-0.351200,-0.151150,-0.057920,-12.816093,27.627426,-32.535728,10.07912,1.2884424,-0.8764884,-0.2898206,-0.32979825,-0.11066146,0.18560447
20231225 03:27:30,1.014559,-0.785923,0.954291,-0.305390,-0.127712,-0.116514,-12.737984,27.924412,-33.224190,11.735976,1.3242726,-0.8121734,0.3055814,-0.32447624,-0.10619866,0.104808755
20231225 03:27:30,0.668113,-0.682700,1.349095,-0.203117,-0.094686,-0.178304,-13.001907,28.091614,-33.103767,14.383972,1.2953359,-0.66695076,0.8251054,-0.27190816,-0.090459,-0.0055141896
20231225 03:27:30,0.190212,-0.489924,1.506689,-0.059295,-0.047811,-0.225180,-13.292717,27.973751,-32.964989,17.272846,1.0345193,-0.48499128,1.1727958,-0.18011272,-0.048376143,-0.12807192
20231225 03:27:30,-0.301909,-0.224521,1.515907,0.096246,-0.009458,-0.243291,-13.626938,28.514652,-33.003624,19.916725,0.6881793,-0.28408617,1.3756437,-0.071085505,0.00211677,-0.23754668
20231225 03:27:30,-0.768390,0.055543,1.293846,0.236872,0.005457,-0.227310,-13.160049,28.457081,-33.129189,21.188236,0.22503829,-0.08291124,1.403881,0.03802629,0.03736651,-0.31580508
20231225 03:27:30,-0.969172,0.282460,0.897125,0.348733,0.004391,-0.185762,-13.621307,28.435261,-34.204124,22.513243,-0.14968628,0.11861856,1.1836286,0.13603657,0.051337305,-0.3618927
20231225 03:27:30,-1.011844,0.317498,0.632543,0.393478,0.001195,-0.163389,-13.426926,28.257980,-33.922676,22.494226,-0.33997366,0.1677185,1.0283831,0.17736763,0.05137632,-0.37897247
20231225 03:27:30,-0.848054,0.282779,-0.098626,0.480837,-0.012654,-0.115449,-13.232536,28.080700,-33.641228,21.302418,-0.68558955,0.22761178,0.4676498,0.25650388,0.030339219,-0.4148316
20231225 03:27:30,-0.674800,0.104240,-0.390652,0.501078,-0.049942,-0.111187,-13.408989,28.448017,-33.934898,20.593487,-0.75239277,0.08863158,0.21568295,0.26583254,-0.013449481,-0.42419988
20231225 03:27:30,-0.442544,0.128623,-0.783546,0.495751,-0.073379,-0.101599,-13.348045,28.171192,-34.050194,19.125002,-0.88630295,0.14438836,-0.17777485,0.25081354,-0.05212266,-0.421831
20231225 03:27:30,-0.256007,0.158727,-1.135537,0.460595,-0.076575,-0.081358,-13.674713,27.673256,-33.886971,18.457598,-1.0466994,0.17660189,-0.5098842,0.22787954,-0.06778986,-0.39141235
20231225 03:27:30,-0.078574,0.091394,-1.498919,0.398805,-0.056334,-0.046201,-13.216408,27.328777,-33.725960,16.997616,-1.24834,0.092717975,-0.8103565,0.20155212,-0.056017477,-0.3361858
20231225 03:27:30,0.018962,0.143953,-1.822977,0.307185,-0.003066,0.003870,-13.622734,27.301411,-33.996147,16.414635,-1.4776462,0.11156048,-1.0444506,0.1797528,-0.00680204,-0.24868427
20231225 03:27:30,0.138399,0.098171,-1.983317,0.188931,0.073639,0.055007,-13.782677,26.724911,-34.094093,16.05644,-1.5455331,0.03724233,-1.2171009,0.15513818,0.07135757,-0.1365775
20231225 03:27:30,0.156683,0.120414,-1.869195,0.078135,0.152475,0.098686,-13.437691,27.220997,-33.989067,15.426268,-1.4117765,0.058439374,-1.2086003,0.13047668,0.15365796,-0.03088177
20231225 03:27:30,0.141244,0.037544,-1.497383,-0.011354,0.214265,0.139169,-13.491096,26.458988,-33.671913,16.42332,-1.0694739,0.007996162,-1.0245589,0.10450853,0.21692362,0.054910768
20231225 03:27:30,0.059757,-0.082668,-0.957586,-0.058230,0.232376,0.173261,-13.376358,26.752277,-33.823891,16.727987,-0.67257947,-0.09166963,-0.64188963,0.0919141,0.23436885,0.10953364
20231225 03:27:30,0.072504,-0.202513,-0.550727,-0.067818,0.221722,0.203090,-13.305672,26.186691,-33.384346,16.493055,-0.35048535,-0.21239084,-0.37801394,0.103169665,0.22595929,0.14016026
20231225 03:27:30,0.263954,-0.233284,-0.348433,-0.061426,0.179108,0.211613,-13.251884,26.756809,-33.421028,14.789499,-0.07261343,-0.25701255,-0.38264814,0.11485243,0.18961312,0.15513523
20231225 03:27:30,0.460977,-0.288185,-0.476187,-0.066752,0.125841,0.202025,-13.155846,27.243835,-34.121727,12.453869,-0.04488325,-0.3511148,-0.6116023,0.10822244,0.1438958,0.16574419
20231225 03:27:30,0.697753,-0.260918,-0.688019,-0.093386,0.070443,0.179653,-13.280319,27.239304,-34.524590,10.745976,-0.058090836,-0.38981655,-0.9382465,0.07532926,0.09604101,0.17916319
20231225 03:27:30,0.936968,-0.181570,-0.927596,-0.126412,0.039548,0.147692,-13.262390,27.429340,-34.536812,8.414796,-0.08966136,-0.41914582,-1.2920732,0.030791804,0.07444089,0.18760967
20231225 03:27:30,1.075743,-0.066501,-1.135520,-0.170091,0.029960,0.101882,-13.349846,27.229225,-34.122704,7.9588666,-0.17453653,-0.37495807,-1.5406603,-0.027855925,0.06651822,0.19256431
20231225 03:27:30,1.066788,0.156518,-1.226347,-0.215901,0.059789,0.058203,-13.121788,26.681950,-34.218681,8.366993,-0.24902654,-0.1454578,-1.6058044,-0.08203602,0.09204477,0.19892675
20231225 03:27:30,0.900878,0.401394,-1.174388,-0.265972,0.100273,0.013458,-13.270195,26.758659,-33.689278,10.772751,-0.29927605,0.18982512,-1.4715946,-0.14507596,0.12410393,0.20400189
20231225 03:27:30,0.616458,0.730182,-0.874800,-0.301129,0.121580,-0.025960,-13.436920,26.837219,-33.428123,14.018767,-0.24717319,0.6476831,-1.124546,-0.20251915,0.13398911,0.199624
20231225 03:27:30,0.252893,1.045806,-0.501376,-0.305390,0.132233,-0.048332,-13.348694,26.653561,-33.281288,16.650824,-0.2117672,1.0366712,-0.69211096,-0.23024954,0.13480163,0.18160811
20231225 03:27:30,-0.093806,1.350718,-0.142782,-0.273430,0.122645,-0.045136,-13.242538,26.659939,-33.146660,18.595947,-0.19990844,1.3515792,-0.29162124,-0.2129291,0.11847084,0.15700342
20231225 03:27:30,-0.307744,1.568816,0.047644,-0.234012,0.074704,-0.018502,-13.419380,27.219147,-33.720818,19.095566,-0.21132405,1.5574788,-0.06242141,-0.16618265,0.068884484,0.15322936
20231225 03:27:30,-0.266253,1.735938,-0.005991,-0.200986,0.016110,0.014524,-13.180550,27.708855,-33.750420,17.884798,-0.20427431,1.731442,-0.12853304,-0.114483245,0.012741433,0.1625187
20231225 03:27:30,-0.065837,1.867041,-0.229477,-0.178614,-0.020112,0.039027,-13.337929,27.690544,-33.214897,16.82865,-0.21102338,1.8659513,-0.4123649,-0.07836002,-0.019082552,0.16777626
20231225 03:27:30,0.178416,1.934485,-0.408175,-0.174353,-0.027569,0.052876,-13.206673,27.040016,-33.171120,14.945295,-0.14177206,1.9106171,-0.6797682,-0.06375815,-0.020241654,0.17429732
20231225 03:27:30,0.435549,1.925233,-0.464407,-0.183941,-0.012654,0.058203,-13.171585,27.803875,-33.756523,13.327612,0.0137963,1.8705739,-0.88917875,-0.066052735,-4.34638E-4,0.18241863
20231225 03:27:30,0.535133,1.864289,-0.334828,-0.198856,0.006522,0.058203,-13.100906,27.238289,-33.316994,12.986586,0.20416948,1.8043581,-0.88424724,-0.07916391,0.021510448,0.18951303
20231225 03:27:30,0.597406,1.694336,-0.012728,-0.198856,0.010783,0.059268,-13.109871,27.143269,-33.310875,12.912906,0.49851748,1.6508455,-0.7074238,-0.0851537,0.026656339,0.18640792
20231225 03:27:30,0.642845,1.417044,0.272930,-0.193529,0.007587,0.057138,-13.171585,27.803875,-33.756523,12.671041,0.7338237,1.3886245,-0.49916518,-0.0904706,0.023683937,0.17811042
20231225 03:27:30,0.688166,1.120141,0.587744,-0.155176,-0.010524,0.037961,-13.178741,28.650818,-33.677910,12.707503,0.97172505,1.1085101,-0.24916244,-0.08484051,0.0018648028,0.13683002
20231225 03:27:30,0.616227,0.847726,0.815779,-0.098713,-0.032896,0.010262,-13.154808,28.569576,-34.610176,12.874517,1.0512544,0.85324126,0.025879502,-0.06725581,-0.026372114,0.07981279
20231225 03:27:30,0.559289,0.643353,0.920666,-0.017746,-0.054203,-0.027025,-13.154427,28.377689,-34.329689,13.325235,1.0640155,0.656904,0.17525625,-0.03397093,-0.054431982,0.0017645173
20231225 03:27:30,0.499040,0.495345,0.751540,0.088788,-0.057399,-0.074966,-13.614914,27.972092,-34.843681,14.069859,0.90014434,0.5044312,0.10134745,0.010772157,-0.06509483,-0.10363689
20231225 03:27:30,0.467799,0.525052,0.588537,0.202781,-0.028635,-0.123972,-13.463554,28.261681,-34.459160,14.490837,0.7677798,0.5295102,-0.031171292,0.05099404,-0.040886365,-0.22419693
20231225 03:27:30,0.263091,0.826682,-0.174562,0.301858,0.039548,-0.165520,-13.675873,28.248924,-34.728386,15.829823,0.05519046,0.8184553,-0.45582646,0.07166116,0.031110173,-0.3398306
20231225 03:27:30,0.138167,1.001549,-0.412963,0.372171,0.113057,-0.194285,-13.551399,28.253456,-34.325539,18.014149,-0.2576279,1.0110689,-0.54322124,0.07560581,0.12218538,-0.42832246
20231225 03:27:30,-0.363821,1.486796,-0.823101,0.420112,0.196154,-0.196415,-13.623505,27.685184,-34.557106,21.417341,-0.9936216,1.5237358,-0.46797624,0.0709032,0.2340715,-0.4896808
20231225 03:27:30,-0.705280,1.904988,-0.899484,0.444615,0.281382,-0.159128,-13.499023,27.689713,-34.154243,23.21731,-1.3482219,1.9331107,-0.32063484,0.092529014,0.3313163,-0.51187885
20231225 03:27:30,-0.847345,2.163198,-0.706376,0.448876,0.321865,-0.112253,-13.138680,27.817654,-34.694893,22.965313,-1.3151238,2.1535997,-0.16555727,0.12900023,0.36910155,-0.49890897
20231225 03:27:30,-0.895342,2.413998,-0.487496,0.411589,0.273924,-0.062181,-12.699844,28.050686,-35.643532,22.558947,-1.2102455,2.3684304,-0.052307814,0.15051371,0.314518,-0.43059552
20231225 03:27:30,-0.836710,2.385754,-0.468593,0.316773,0.168455,-0.000391,-13.008194,27.550903,-35.212059,22.343838,-1.1240337,2.3510678,-0.08111708,0.16232729,0.19145808,-0.29661286
20231225 03:27:30,-0.558292,2.044553,-0.562230,0.186800,0.060855,0.055007,-13.084892,28.387768,-34.731575,19.378347,-0.8963953,2.0487585,-0.25060463,0.15001088,0.06515753,-0.1333425
20231225 03:27:30,-0.068278,1.677377,-0.506927,0.062155,0.004391,0.083771,-13.008194,27.550903,-35.212059,16.165096,-0.44351786,1.6769016,-0.5216823,0.10431047,0.0044294326,-0.0016827136
20231225 03:27:30,0.299237,1.307174,-0.283081,-0.030531,0.021437,0.081641,-12.979767,27.068405,-34.108528,14.697123,0.01573895,1.2886841,-0.61669517,0.04403393,0.02490505,0.0704205
20231225 03:27:30,0.431886,0.907842,0.077786,-0.090190,0.077900,0.050746,-13.113205,26.968853,-34.505272,14.729014,0.38252035,0.89626926,-0.42069796,-0.02261978,0.082215786,0.085641965
20231225 03:27:30,0.407802,0.479630,0.670805,-0.116824,0.120514,0.008132,-12.726616,25.864220,-34.295326,15.348904,0.7653922,0.4842325,0.102271974,-0.07742421,0.12321769,0.06205591
20231225 03:27:31,0.286896,0.096747,1.165612,-0.104040,0.166324,-0.038744,-12.972610,26.221462,-34.187141,16.885723,0.9682417,0.099751025,0.64991695,-0.10405324,0.1666343,0.0012554526
20231225 03:27:31,0.017923,-0.224517,1.488778,-0.056099,0.225984,-0.083488,-13.112442,26.585079,-33.944313,18.93921,0.9283286,-0.2544336,1.1611748,-0.10003575,0.22607908,-0.08625287
20231225 03:27:31,-0.304220,-0.459916,1.747754,-0.003897,0.238768,-0.101599,-13.176346,26.495605,-34.742943,21.108824,0.81254166,-0.56163645,1.6253593,-0.07472554,0.24259806,-0.1430754
20231225 03:27:31,-0.758291,-0.743435,1.634216,0.023802,0.233441,-0.070704,-12.516602,27.028309,-35.708931,22.50017,0.37091696,-0.94624007,1.9034231,-0.038971163,0.23940739,-0.14011435
20231225 03:27:31,-1.189646,-0.979782,1.608260,0.012083,0.155671,0.019850,-12.604065,26.828194,-35.294838,24.889128,0.0083171725,-1.3045007,2.2162278,0.0051587,0.1528992,-0.046056286
20231225 03:27:31,-1.336653,-1.302693,1.382275,-0.036923,0.050201,0.155150,-12.735313,27.478718,-35.338600,24.247469,-0.25110602,-1.5965053,2.2343168,0.04846883,0.030215118,0.12129579
20231225 03:27:31,-0.936140,-1.745525,1.159946,-0.111497,-0.068052,0.276599,-12.620575,27.772007,-35.490593,21.425205,-0.09605616,-1.8832048,1.9532223,0.053087153,-0.09283073,0.29887068
20231225 03:27:31,-0.640723,-2.010079,1.034958,-0.192463,-0.170326,0.336259,-12.850052,27.185432,-35.186638,18.028898,-0.026146472,-2.0250182,1.7119939,0.0017285943,-0.17503513,0.4188395
20231225 03:27:31,0.390138,-2.688200,0.671471,-0.263842,-0.218267,0.334128,-12.540924,27.301441,-35.057167,13.634589,0.56513625,-2.6831918,0.9551057,-0.085182115,-0.18895748,0.4558434
20231225 03:27:31,0.965900,-3.018972,0.609964,-0.286214,-0.221463,0.316017,-12.577171,27.113251,-35.313179,10.053878,0.93456125,-3.0737364,0.58125424,-0.13219266,-0.16020046,0.44055295
20231225 03:27:31,1.435413,-3.112096,0.608639,-0.321371,-0.164999,0.197764,-13.017166,27.455883,-35.205956,7.863693,1.2756927,-3.2540655,0.29267016,-0.21805835,-0.08596778,0.33754337
20231225 03:27:31,1.725478,-2.983821,0.580168,-0.337351,-0.076575,0.092294,-13.026131,27.360867,-35.199837,6.8529506,1.4966006,-3.1912193,0.048115373,-0.26747218,6.982498E-4,0.24281278
20231225 03:27:31,1.626889,-2.667650,0.741660,-0.382095,0.010783,-0.012110,-13.176727,26.687496,-35.023415,9.406431,1.5596389,-2.8198776,0.2780737,-0.34299403,0.069694184,0.16539492
20231225 03:27:31,1.206151,-2.310216,1.238868,-0.447082,0.059789,-0.096273,-13.139717,26.491909,-34.206444,11.563704,1.4884473,-2.355436,0.9163765,-0.43571267,0.10827322,0.11553093
20231225 03:27:31,0.737364,-2.028241,1.936547,-0.474781,0.088554,-0.164455,-12.822395,27.086712,-34.644035,15.51426,1.4941491,-2.0150583,1.807133,-0.49551278,0.10507928,0.054432213
20231225 03:27:31,0.235753,-1.736187,2.624569,-0.447082,0.118383,-0.226245,-13.378662,27.903606,-35.506721,18.750975,1.4015523,-1.7490553,2.612028,-0.50177264,0.114377916,-0.024213001
20231225 03:27:31,-0.400119,-1.426251,3.156175,-0.350135,0.129037,-0.273120,-13.306938,28.663765,-35.555626,21.353474,1.1265252,-1.5643696,3.2622488,-0.44033107,0.11369801,-0.10909154
20231225 03:27:31,-1.090839,-1.005466,3.412078,-0.194594,0.143952,-0.276316,-12.909203,28.404228,-34.998833,23.820072,0.71225655,-1.3725128,3.6225061,-0.31104255,0.13652785,-0.18126081
20231225 03:27:31,-1.731726,-0.621335,3.360358,-0.008158,0.159932,-0.212395,-12.997429,28.587887,-35.145683,25.999908,0.19914782,-1.2485467,3.7177286,-0.12669796,0.17653808,-0.22230065
20231225 03:27:31,-2.150584,-0.352222,3.089389,0.177212,0.164193,-0.094142,-12.143303,28.943310,-35.830223,25.862696,-0.22493732,-1.1373512,3.6246333,0.08369061,0.2059554,-0.22581053
20231225 03:27:31,-2.109979,-0.292836,2.524989,0.332753,0.179108,0.042223,-12.972336,27.930981,-35.236519,26.764206,-0.35574687,-0.9904417,3.1557522,0.27759287,0.23122698,-0.22019364
20231225 03:27:31,-1.682918,-0.263486,1.787711,0.444615,0.198285,0.164738,-12.575752,28.247105,-35.521156,24.107155,-0.30509412,-0.69614697,2.3957055,0.43413192,0.2427896,-0.20438233
20231225 03:27:31,-1.083839,-0.408714,1.109250,0.502144,0.204677,0.240377,-12.638123,27.390083,-35.197884,21.816202,-0.14907384,-0.59402186,1.5981723,0.5274415,0.23364355,-0.19211733
20231225 03:27:31,-0.490230,-0.618823,0.492938,0.503209,0.204677,0.258488,-12.277779,27.518017,-35.738533,18.481277,-0.04151061,-0.6612746,0.8239969,0.54434067,0.21845318,-0.18026526
20231225 03:27:31,-0.044697,-0.755788,0.011432,0.462726,0.190827,0.225463,-12.320412,27.792999,-35.354988,16.324682,-0.018291365,-0.7563581,0.19817598,0.49538267,0.19408499,-0.1797684
20231225 03:27:31,0.200666,-0.864899,-0.337974,0.395609,0.186566,0.166868,-12.046761,27.337040,-34.920586,15.344302,-0.077875316,-0.86551386,-0.20637822,0.40589255,0.18626586,-0.18172
20231225 03:27:31,0.224499,-0.899209,-0.554910,0.321034,0.185500,0.107209,-11.906158,26.589642,-34.602470,16.05115,-0.2014611,-0.8924211,-0.3615508,0.30763954,0.18753113,-0.17857957
20231225 03:27:31,0.136189,-0.907092,-0.571796,0.283747,0.185500,0.081641,-12.391365,26.649063,-34.745140,17.06836,-0.27250987,-0.8957174,-0.2985866,0.26127893,0.18896508,-0.17462823
20231225 03:27:31,-0.145556,-0.827429,-0.519503,0.192127,0.182304,0.042223,-12.199547,25.913597,-35.097145,19.078094,-0.41887814,-0.80864626,-0.06424925,0.16161142,0.18967535,-0.14431047
20231225 03:27:31,-0.302518,-0.811759,-0.352383,0.153775,0.180174,0.031569,-12.102470,27.726364,-36.286278,18.99411,-0.41302657,-0.8078386,0.1509522,0.12502465,0.18752356,-0.124220744
20231225 03:27:31,-0.332817,-0.801794,-0.272304,0.140990,0.178043,0.028373,-11.652359,26.903091,-35.558205,18.805288,-0.38341874,-0.8045848,0.22213447,0.11389788,0.18475498,-0.11666363
20231225 03:27:31,-0.397735,-0.815282,-0.046693,0.120749,0.167389,0.030504,-12.049332,26.778851,-35.554039,19.647982,-0.28250077,-0.836543,0.43429786,0.10118975,0.17320344,-0.09984776
20231225 03:27:31,-0.354032,-0.828756,0.074365,0.116487,0.160997,0.032635,-11.988762,26.693909,-35.949806,19.442205,-0.17290956,-0.8536558,0.49306345,0.10033183,0.16633405,-0.093088135
20231225 03:27:31,-0.318353,-0.834093,0.130997,0.110095,0.139690,0.034765,-11.785797,26.803539,-35.954948,18.911327,-0.11184615,-0.85843366,0.5065373,0.09861078,0.1442894,-0.08099004
20231225 03:27:31,-0.250866,-0.810825,0.078640,0.093050,0.116253,0.032635,-11.518921,27.002644,-35.161461,18.131935,-0.10176696,-0.8260674,0.41160417,0.08643557,0.11949985,-0.064434014
20231225 03:27:31,-0.180453,-0.766031,0.220820,0.054697,0.072574,0.030504,-11.687065,25.947346,-34.692329,18.185724,0.034752473,-0.78127426,0.458804,0.058611326,0.07374061,-0.030623985
20231225 03:27:31,-0.133313,-0.728741,0.289511,0.042978,0.053397,0.029439,-11.838432,25.657757,-35.076851,17.88939,0.10742585,-0.7417514,0.46744066,0.05015221,0.053998724,-0.018875213
20231225 03:27:31,-0.014526,-0.670163,0.368761,0.026998,0.009718,0.016654,-12.138214,25.444878,-34.931969,17.84114,0.2447955,-0.6790487,0.43216145,0.031098116,0.010072395,-0.0077696973
20231225 03:27:31,0.023529,-0.646363,0.357283,0.023802,0.003326,0.011328,-11.662361,25.482330,-35.063637,16.66691,0.26131698,-0.6516987,0.3851213,0.02538182,0.0036009694,-0.007988253
20231225 03:27:31,0.106887,-0.641707,0.346128,0.025933,0.010783,-0.006783,-11.714348,25.854176,-34.954475,16.421204,0.3137121,-0.6444773,0.32265484,0.01526112,0.011274754,-0.024053162
20231225 03:27:31,0.194259,-0.680959,0.534828,0.044044,0.033156,-0.031286,-11.389091,25.218254,-34.909721,15.929775,0.49738228,-0.6835829,0.4149039,0.013564678,0.033904705,-0.058289886
20231225 03:27:31,0.145678,-0.700668,0.648391,0.099442,0.049136,-0.082423,-11.389473,25.410145,-35.190178,16.56256,0.5341249,-0.7088778,0.54602635,0.024439398,0.052833065,-0.13487813
20231225 03:27:31,0.035334,-0.651327,0.690443,0.148448,0.042744,-0.112253,-11.601410,25.205498,-35.178932,17.704998,0.48632163,-0.6699872,0.63690764,0.041631944,0.051423386,-0.18703502
20231225 03:27:31,-0.035909,-0.629153,0.658885,0.194258,0.019306,-0.138886,-11.523300,25.502487,-35.867409,18.530848,0.42758077,-0.6604362,0.6518221,0.057489835,0.03652694,-0.23079778
20231225 03:27:31,-0.211334,-0.560847,0.555117,0.214500,0.007587,-0.144213,-11.470276,26.456383,-36.465019,18.52189,0.23671415,-0.60276306,0.669055,0.06611573,0.028991893,-0.24604544
20231225 03:27:31,-0.405910,-0.342407,0.296636,0.245395,0.007587,-0.141017,-11.275887,26.279099,-36.183586,19.692513,-0.06553893,-0.39738646,0.565648,0.08149214,0.039122302,-0.2669185
20231225 03:27:31,-0.459429,-0.241142,0.169755,0.262440,-0.003066,-0.128233,-11.688606,26.714901,-35.814217,20.246525,-0.19536221,-0.29251903,0.4931177,0.10162785,0.029823674,-0.26767907
20231225 03:27:31,-0.462249,-0.262959,0.084800,0.261375,-0.036092,-0.116514,-11.355537,26.749664,-36.617012,19.898447,-0.25020874,-0.30886588,0.4436045,0.1098358,-0.0028768461,-0.25196552
20231225 03:27:31,-0.485084,-0.250945,-0.162896,0.246460,-0.076575,-0.099469,-11.373466,26.559628,-36.604774,19.812431,-0.43118668,-0.27558145,0.30202314,0.10654463,-0.046718854,-0.22441055
20231225 03:27:31,-0.368341,-0.238677,-0.490633,0.224088,-0.084033,-0.090946,-11.566696,26.161243,-36.044807,19.9117,-0.5878742,-0.22468923,0.011384755,0.09327591,-0.05848724,-0.20293096
20231225 03:27:31,-0.341242,-0.253006,-0.570841,0.211303,-0.086163,-0.092011,-11.674278,25.021011,-35.971443,20.242311,-0.62778336,-0.23050492,-0.052650154,0.0829701,-0.06222108,-0.19369227
20231225 03:27:31,-0.284694,-0.287432,-0.672515,0.186800,-0.085098,-0.099469,-11.347992,25.710831,-36.415138,19.338272,-0.66523135,-0.25258985,-0.1476866,0.05768369,-0.0634084,-0.18298015
20231225 03:27:31,-0.296616,-0.217382,-0.801805,0.168690,-0.070183,-0.115449,-11.320328,25.612114,-35.872536,21.029804,-0.7707777,-0.15670928,-0.21475321,0.031606816,-0.041400865,-0.18156767
20231225 03:27:31,-0.468795,-0.115076,-0.817205,0.151644,-0.048876,-0.122906,-11.789017,24.727718,-35.819481,23.344393,-0.90081036,-0.058671653,-0.10340655,0.013398983,-0.014772965,-0.17594713
20231225 03:27:31,-0.783602,0.000247,-0.772580,0.140990,-0.029700,-0.110122,-12.052940,24.894920,-35.699043,25.131905,-1.0844705,0.014952548,0.13471365,0.015416257,0.0071187243,-0.16359657
20231225 03:27:31,-0.863697,0.012653,-0.742993,0.129272,-0.019046,-0.080292,-11.752777,24.915909,-35.563454,25.039213,-1.1162972,0.011662856,0.20912415,0.028298687,0.012146611,-0.14008066
20231225 03:27:31,-0.910409,0.023501,-0.677277,0.118618,-0.020112,-0.043005,-11.771477,25.109650,-36.112175,24.506723,-1.1026778,0.0043687597,0.27087927,0.049704637,0.0027270657,-0.10943869
20231225 03:27:31,-0.861756,0.049438,-0.583988,0.101573,-0.036092,-0.011045,-11.284851,26.184078,-36.177467,23.115171,-1.0054884,0.02406488,0.28349635,0.06386543,-0.020899542,-0.07390081
20231225 03:27:31,-0.694641,0.116985,-0.566336,0.080266,-0.057399,0.009197,-11.754692,25.875355,-36.965813,22.186735,-0.89113057,0.11152745,0.15521571,0.06628807,-0.049307425,-0.04110945
20231225 03:27:31,-0.511481,0.164403,-0.555279,0.046175,-0.079771,0.019850,-11.787987,26.053463,-36.307915,20.998928,-0.76723075,0.17559892,0.018765926,0.052969772,-0.07709956,-0.004917521
20231225 03:27:31,-0.319017,0.228435,-0.546896,-0.000701,-0.105340,0.023046,-12.044357,25.181828,-35.985619,19.283678,-0.63730824,0.24555808,-0.13505739,0.023906574,-0.10648492,0.036824435
20231225 03:27:31,-0.126530,0.266984,-0.558981,-0.058230,-0.131973,0.017720,-11.779671,24.630852,-35.545113,18.356401,-0.5196293,0.28871262,-0.30273455,-0.017826244,-0.13502663,0.08219038
20231225 03:27:31,-0.026139,0.194627,-0.498665,-0.111497,-0.128777,-0.004653,-11.928078,24.707561,-35.015709,17.59993,-0.39502376,0.20926026,-0.33639538,-0.07373991,-0.13162236,0.1061349
20231225 03:27:31,0.102664,0.082741,-0.315231,-0.143457,-0.107470,-0.038744,-11.751625,24.340244,-34.722038,17.72173,-0.16441412,0.09616332,-0.29623404,-0.12222567,-0.11045004,0.102543525
20231225 03:27:31,0.077520,-0.103403,0.078781,-0.151980,-0.104274,-0.089880,-11.992371,24.809978,-36.094810,17.618011,0.113549545,-0.10329447,0.0218382,-0.16831541,-0.106138565,0.06760192
20231225 03:27:31,0.055848,-0.233784,0.442963,-0.110432,-0.131973,-0.182566,-11.965477,25.095039,-36.113152,18.583536,0.35101345,-0.24985781,0.32535914,-0.19901748,-0.12898073,-0.021335639
20231225 03:27:31,-0.098977,-0.267483,0.588203,-0.081667,-0.126647,-0.206003,-12.354248,25.449596,-36.676048,19.614674,0.33642584,-0.3041289,0.5423783,-0.19190893,-0.11997239,-0.056911834
20231225 03:27:31,-0.269230,-0.169543,0.649421,0.020606,-0.135169,-0.257140,-11.999153,25.465038,-35.735725,20.456972,0.25834566,-0.23581132,0.6709205,-0.1504252,-0.11438499,-0.15523568
20231225 03:27:31,-0.384009,-0.133652,0.558177,0.046175,-0.144757,-0.268859,-12.159485,25.080429,-36.114128,21.031439,0.11553711,-0.20731054,0.6767118,-0.13982853,-0.11923343,-0.17583211
20231225 03:27:31,-0.479260,-0.059526,0.330564,0.078135,-0.167130,-0.277382,-11.878014,25.295155,-36.527260,21.652903,-0.10069506,-0.13789064,0.5718303,-0.12307599,-0.13084237,-0.19381477
20231225 03:27:31,-0.601759,0.065251,0.052777,0.091984,-0.191633,-0.269924,-12.335938,25.447746,-36.407799,23.018059,-0.378805,-0.0064704916,0.45668986,-0.11051739,-0.14801827,-0.18545893
20231225 03:27:31,-0.721374,0.296561,-0.273841,0.099442,-0.196960,-0.252879,-12.195724,24.892239,-36.370140,24.364044,-0.715935,0.24203977,0.30605382,-0.09576397,-0.14506891,-0.17251885
20231225 03:27:31,-0.834592,0.591187,-0.563193,0.110095,-0.174587,-0.229441,-12.380768,24.972649,-36.377235,25.408018,-1.0465416,0.5621223,0.17934638,-0.07891349,-0.11930707,-0.16852053
20231225 03:27:31,-0.904543,0.826941,-0.805538,0.120749,-0.149019,-0.207069,-12.282417,24.308342,-35.395088,26.644707,-1.3206396,0.8290216,0.07255998,-0.062149584,-0.09080914,-0.16749519
20231225 03:27:31,-0.971636,1.044683,-1.022661,0.121814,-0.126647,-0.193219,-12.406509,24.111923,-35.517479,28.252226,-1.5870113,1.0820518,-0.0025413036,-0.056570545,-0.06363977,-0.16300014
20231225 03:27:31,-1.129016,1.340929,-1.177197,0.105834,-0.119189,-0.177239,-12.512283,23.913658,-35.371620,29.87686,-1.8837812,1.3868026,0.0065324903,-0.05454594,-0.05522598,-0.14033568
20231225 03:27:31,-1.239164,1.544515,-1.320811,0.073874,-0.124516,-0.153801,-12.125427,24.518539,-36.211082,30.481813,-2.1344686,1.6035004,-0.0020014048,-0.049508378,-0.06475839,-0.099700995
20231225 03:27:31,-1.308124,1.575141,-1.351674,0.040848,-0.123451,-0.117579,-12.532135,24.683060,-36.761742,30.432325,-2.197194,1.6290772,0.030943751,-0.03984502,-0.08028993,-0.055403292
20231225 03:27:31,-1.245514,1.571904,-1.267610,0.012083,-0.121320,-0.086684,-12.539291,25.530010,-36.683128,29.037842,-2.0734208,1.6126375,0.008184135,-0.03390709,-0.09385276,-0.019396564
20231225 03:27:31,-1.096357,1.472298,-1.125886,-0.004962,-0.102144,-0.065377,-12.406624,26.013336,-36.847328,27.351297,-1.8290787,1.5019752,-0.044884503,-0.033296674,-0.085614696,-0.002213085
20231225 03:27:31,-1.035993,1.347307,-0.889630,0.002495,-0.065922,-0.037678,-12.751610,25.517250,-36.952370,26.870865,-1.5646626,1.3362311,0.017536014,-0.01563938,-0.0565407,-0.0042574257
20231225 03:27:31,-0.888085,1.159102,-0.509697,0.033390,-0.015850,-0.006783,-12.503433,25.910088,-36.707588,25.48254,-1.1312556,1.1040437,0.12625325,0.01764129,-0.010005758,-0.026152547
20231225 03:27:31,-0.808333,1.072078,-0.409023,0.077070,0.023567,0.039027,-12.548637,25.626877,-36.957497,24.42578,-0.9762993,1.0180075,0.12340197,0.07453508,0.026455369,-0.044178158
20231225 03:27:31,-0.691041,0.843612,-0.239343,0.096246,0.029960,0.095490,-12.759811,25.038452,-36.385292,23.446531,-0.7262137,0.7926466,0.17115217,0.13058239,0.027872834,-0.024898734
20231225 03:27:31,-0.432499,0.452217,-0.174505,0.080266,-0.022242,0.132777,-12.557220,25.339970,-36.670906,21.27776,-0.45554936,0.43108168,0.10818409,0.15393347,-0.027497528,0.02700235
20231225 03:27:31,-0.162006,0.118484,-0.159881,0.024868,-0.131973,0.127451,-12.635719,25.234867,-36.262917,19.363348,-0.23311687,0.11887945,-0.0075010285,0.117795005,-0.13709995,0.09163233
20231225 03:27:31,0.122662,-0.145860,-0.293441,-0.034792,-0.245966,0.084837,-12.635330,25.042984,-35.982445,17.615475,-0.13191214,-0.13676268,-0.24899611,0.045020834,-0.24845138,0.12999952
20231225 03:27:31,0.334405,-0.293439,-0.512069,-0.063556,-0.282187,0.011328,-13.057014,25.383759,-35.606972,16.961992,-0.15993969,-0.2902187,-0.5183886,-0.03258449,-0.28245267,0.109368615
20231225 03:27:31,0.335126,-0.235792,-0.504410,-0.051838,-0.234247,-0.077096,-13.137695,24.528584,-35.551949,17.99566,-0.1527828,-0.22344337,-0.5204975,-0.08849345,-0.23371552,0.038236883
20231225 03:27:31,0.087981,-0.105336,-0.404061,-0.001766,-0.155411,-0.165520,-13.191483,23.958466,-35.515266,21.095926,-0.23585927,-0.075686865,-0.29119116,-0.11494108,-0.14493826,-0.064178064
20231225 03:27:31,-0.369568,0.253146,-0.192071,0.074939,-0.094686,-0.237964,-12.803864,24.179573,-35.793785,24.006603,-0.4151997,0.2348871,0.09787024,-0.11767618,-0.057466418,-0.17358744
20231225 03:27:31,-1.104972,1.193386,-0.218020,0.150579,-0.045680,-0.270990,-12.761612,24.096485,-36.457802,28.496922,-1.0806879,1.0257868,0.42007032,-0.10816138,0.034904573,-0.250752
20231225 03:27:31,-1.288220,1.547667,-0.247212,0.203846,0.005457,-0.259271,-12.689125,24.472866,-35.945763,29.43549,-1.3006208,1.3292823,0.4667915,-0.082417674,0.09754792,-0.29928875
20231225 03:27:31,-1.562102,2.423470,-0.407890,0.204911,0.027829,-0.206003,-12.901443,24.460102,-36.214989,31.270092,-1.8160677,2.1394887,0.41872853,-0.057698973,0.11545566,-0.27596956
20231225 03:27:31,-1.570051,2.623118,-0.446449,0.127141,0.003326,-0.128233,-12.770576,24.001465,-36.451698,31.02539,-1.8905985,2.3462882,0.36599648,-0.03347625,0.057645865,-0.1674753
20231225 03:27:31,-1.418223,2.763785,-0.397923,-0.011354,-0.059530,-0.031286,-12.277176,24.420841,-36.876076,28.100534,-1.7101269,2.5474708,0.27662146,-0.018307604,-0.05215581,0.009728745
20231225 03:27:31,-1.034052,2.643192,-0.109354,-0.171156,-0.110666,0.055007,-12.946648,24.176891,-36.464897,25.218609,-1.0820602,2.5045419,0.1372713,-0.038000472,-0.1352356,0.19570689
20231225 03:27:31,-0.510919,2.243148,0.420944,-0.275561,-0.106405,0.109340,-12.805016,24.755241,-36.635201,21.13525,-0.17818981,2.1630077,0.13556355,-0.08007191,-0.13283707,0.30251834
20231225 03:27:31,-0.153441,1.653450,1.144835,-0.296868,-0.035027,0.126385,-12.741875,25.228489,-36.397514,19.019129,0.65247566,1.5948772,0.48528302,-0.11117513,-0.052554138,0.3055002
20231225 03:27:31,0.023666,1.132446,1.793008,-0.247862,0.064051,0.118928,-12.344521,25.160835,-36.121223,17.95504,1.193791,1.0833324,0.9864218,-0.104818076,0.05334366,0.23602115
20231225 03:27:31,0.033011,0.623103,2.346374,-0.151980,0.152475,0.109340,-12.528793,24.857471,-35.567360,19.044281,1.4853642,0.5508539,1.5418684,-0.05369115,0.14310841,0.13749781
20231225 03:27:32,-0.109288,0.129701,2.767542,-0.034792,0.206807,0.109340,-12.290344,25.539066,-35.877419,19.54854,1.5388701,0.014452606,2.1332905,0.02826688,0.20016603,0.047859024
20231225 03:27:32,-0.275069,-0.308265,2.928518,0.083462,0.204677,0.127451,-12.027847,24.238010,-35.789879,20.451864,1.4413146,-0.45476174,2.5055306,0.1317001,0.20378082,-0.007824741
20231225 03:27:32,-0.335682,-0.681284,2.805608,0.185735,0.153540,0.164738,-12.055511,24.336731,-36.332481,20.488804,1.3269658,-0.8278912,2.5585394,0.23901492,0.15792224,-0.021380544
20231225 03:27:32,-0.172968,-0.959553,2.340698,0.262440,0.103469,0.206286,-12.292915,24.980877,-36.510872,18.823418,1.2177423,-1.0272005,2.172275,0.33036047,0.107901715,-0.016844139
20231225 03:27:32,0.227057,-1.131849,1.762111,0.306119,0.051267,0.223332,-12.407661,24.687588,-36.358894,16.58347,1.2279797,-1.1304452,1.4839001,0.37897128,0.051081855,-0.021336555
20231225 03:27:32,0.631516,-1.270123,1.139499,0.311446,0.015045,0.216940,-12.356056,24.507629,-36.748543,13.761891,1.1557608,-1.2573619,0.7224557,0.37930423,0.008989503,-0.028248653
20231225 03:27:32,0.957160,-1.388618,0.652046,0.289074,-0.011589,0.189241,-11.985596,24.154922,-36.453896,11.351368,1.0693415,-1.4132966,0.10048148,0.3423544,-0.021301111,-0.03761691
20231225 03:27:32,1.162628,-1.444860,0.271179,0.235806,-0.045680,0.155150,-12.082024,23.859783,-36.033684,9.796828,0.93976605,-1.5249774,-0.36003277,0.27553236,-0.055623002,-0.029838644
20231225 03:27:32,1.317865,-1.511092,0.001566,0.154840,-0.080837,0.107209,-12.523048,22.876667,-35.437996,9.475592,0.83655167,-1.6446737,-0.6835185,0.17801666,-0.08682486,-0.013053328
20231225 03:27:32,1.346954,-1.509111,-0.149483,0.051501,-0.115993,0.070987,-12.162704,23.004608,-35.978661,8.838772,0.7584146,-1.6603961,-0.8294929,0.07333954,-0.11334553,0.03175606
20231225 03:27:32,1.287656,-1.509293,-0.183867,-0.077406,-0.146888,0.053942,-12.487190,23.256744,-35.462456,9.882733,0.7026867,-1.6492484,-0.79324305,-0.03663465,-0.13197845,0.10996288
20231225 03:27:32,1.193668,-1.524616,-0.058115,-0.219097,-0.187371,0.057138,-12.363487,23.645058,-35.620552,10.314983,0.749182,-1.6355561,-0.6025163,-0.14702345,-0.1591337,0.20965633
20231225 03:27:32,1.158927,-1.609517,0.222043,-0.343743,-0.221463,0.074183,-12.557106,23.438560,-35.341057,11.395226,0.92633146,-1.6893444,-0.3009007,-0.23975638,-0.18255763,0.3049294
20231225 03:27:32,1.135330,-1.676994,0.610328,-0.428971,-0.233181,0.104013,-12.733566,23.805878,-35.634727,11.796208,1.1623677,-1.7309405,0.09924498,-0.30339265,-0.1844204,0.37203997
20231225 03:27:32,1.121113,-1.777692,1.064401,-0.457735,-0.232116,0.117862,-12.336594,23.930115,-35.638893,11.593292,1.4070668,-1.806824,0.56140846,-0.33398357,-0.18006122,0.38561282
20231225 03:27:32,1.190074,-1.931831,1.518718,-0.434297,-0.233181,0.106144,-13.044998,24.841198,-37.447029,11.426378,1.6745949,-1.9461646,0.9889251,-0.33245406,-0.17895879,0.35278058
20231225 03:27:32,1.303165,-2.011337,1.797819,-0.361854,-0.232116,0.056072,-12.548256,25.434990,-36.677025,10.444075,1.8890681,-2.022824,1.1862452,-0.30011857,-0.18491971,0.26621538
20231225 03:27:32,1.339249,-1.973907,1.819135,-0.263842,-0.207613,-0.023829,-12.548256,25.434990,-36.677025,10.621565,1.9447854,-1.9856224,1.1620853,-0.2523326,-0.17843032,0.14789698
20231225 03:27:32,1.218187,-1.771170,1.725869,-0.154111,-0.166064,-0.116514,-12.803596,25.889095,-36.843178,11.74795,1.852144,-1.7703462,1.0612406,-0.20190287,-0.15807359,0.016204566
20231225 03:27:32,0.817450,-1.370391,1.465940,-0.062491,-0.115993,-0.192154,-12.716133,26.089211,-37.257271,14.2685585,1.4826255,-1.3601286,0.94908726,-0.16599154,-0.11868449,-0.09138632
20231225 03:27:32,0.222676,-0.894977,1.227064,-0.001766,-0.061660,-0.215592,-12.882858,26.167774,-36.996132,19.402939,0.9833691,-0.9312638,0.9850422,-0.1351317,-0.053029764,-0.14042886
20231225 03:27:32,-0.333123,-0.474717,1.164827,0.038717,-0.028635,-0.187892,-12.600624,25.998726,-36.848305,20.53025,0.5198934,-0.56700814,1.1768191,-0.08899571,-0.014362263,-0.15191972
20231225 03:27:32,-0.785419,-0.144047,1.112499,0.065351,-0.012654,-0.122906,-12.767349,26.077282,-36.587166,22.822672,0.14551693,-0.3289629,1.3311231,-0.029573094,0.0057861847,-0.12462771
20231225 03:27:32,-1.068790,-0.014668,1.069423,0.101573,-0.005197,-0.025960,-12.794243,25.792225,-36.568825,24.166315,-0.099975705,-0.26768446,1.4434845,0.05967684,0.010526368,-0.08346143
20231225 03:27:32,-1.159618,-0.046258,0.902520,0.145252,0.009718,0.085902,-12.857384,25.318977,-36.806496,24.227365,-0.25679493,-0.28797394,1.4025474,0.16345048,0.017851558,-0.04240644
20231225 03:27:32,-0.986680,-0.171684,0.638750,0.180408,0.036352,0.187110,-12.784897,25.695354,-36.294456,22.562258,-0.2807867,-0.32430434,1.15092,0.25506195,0.03680043,-0.005511254
20231225 03:27:32,-0.577523,-0.385002,0.387321,0.191062,0.049136,0.249966,-12.698090,24.377846,-35.939644,20.351799,-0.14160508,-0.43658942,0.75704634,0.30693835,0.046726488,0.02973701
20231225 03:27:32,-0.165474,-0.588611,0.158386,0.181474,0.045940,0.268077,-12.352715,24.682037,-35.554146,17.346014,-0.0039234906,-0.59362644,0.35174388,0.31481192,0.0447966,0.053295016
20231225 03:27:32,0.184894,-0.752542,-0.008691,0.166559,0.045940,0.257423,-12.352715,24.682037,-35.554146,14.978051,0.11464181,-0.75605917,0.0085769,0.2985643,0.047418028,0.05804959
20231225 03:27:32,0.470904,-0.771470,-0.162157,0.145252,0.045940,0.226528,-12.741493,25.036602,-36.117058,13.221642,0.18961489,-0.8003807,-0.31395233,0.26368922,0.049440935,0.050024055
20231225 03:27:32,0.641791,-0.762401,-0.319223,0.115422,0.056593,0.181783,-12.293686,25.364655,-37.071815,11.139623,0.18107557,-0.82182807,-0.570343,0.21317895,0.06063135,0.03723961
20231225 03:27:32,0.746908,-0.650844,-0.384744,0.085592,0.076835,0.141300,-12.549675,24.301132,-36.469063,11.314682,0.19847187,-0.7284225,-0.7096292,0.1660667,0.08067619,0.024649486
20231225 03:27:32,0.734165,-0.511228,-0.382906,0.057893,0.110926,0.110405,-12.223389,24.990959,-36.912758,11.114321,0.20002586,-0.58142585,-0.72132885,0.12674499,0.114092134,0.01853374
20231225 03:27:32,0.663541,-0.341402,-0.237095,0.034456,0.132233,0.088033,-12.159485,25.080429,-36.114128,12.138019,0.26869446,-0.38682395,-0.5905845,0.09435476,0.13481314,0.015279263
20231225 03:27:32,0.514235,-0.110726,-0.136233,0.016345,0.141821,0.086967,-12.335175,25.063969,-35.846855,13.690983,0.24925065,-0.13177755,-0.4474021,0.07933996,0.14411204,0.022971056
20231225 03:27:32,0.353491,0.060800,0.018091,-0.004962,0.134364,0.106144,-12.320198,24.887707,-36.772987,14.596029,0.2572939,0.055430457,-0.255089,0.07588362,0.13619995,0.050963923
20231225 03:27:32,0.169192,0.128175,0.223013,-0.024138,0.110926,0.139169,-12.013641,24.445530,-37.276970,15.317505,0.2779664,0.1281966,0.004437834,0.083267465,0.11098586,0.09030849
20231225 03:27:32,0.074464,0.088722,0.383361,-0.018812,0.094946,0.179653,-11.957275,25.573837,-36.680199,15.467462,0.32246083,0.0875268,0.19312382,0.11277021,0.09417531,0.1182129
20231225 03:27:32,0.078963,-0.020725,0.553676,0.006757,0.083227,0.218005,-12.257446,25.552845,-36.815788,15.558846,0.4378315,-0.0203567,0.33726665,0.15478559,0.083391994,0.13171056
20231225 03:27:32,0.182804,-0.265771,0.639510,0.045109,0.055528,0.238247,-12.072403,25.472435,-36.808693,14.69334,0.5635692,-0.26094675,0.38279888,0.19467247,0.057578884,0.12920655
20231225 03:27:32,0.233156,-0.469748,0.574896,0.085592,0.035286,0.242508,-11.870209,25.965843,-37.374794,13.35252,0.5476326,-0.4621839,0.3386823,0.22691017,0.038664334,0.111458525
20231225 03:27:32,0.418489,-0.601827,0.441636,0.127141,0.029960,0.233985,-11.729218,25.026558,-36.776176,11.716634,0.5772271,-0.6010274,0.12622426,0.25285286,0.03446013,0.078545
20231225 03:27:32,0.627965,-0.698013,0.172926,0.156971,0.036352,0.206286,-11.860085,25.485195,-36.539482,10.607421,0.5285811,-0.727232,-0.21434988,0.2575145,0.038834155,0.034705587
20231225 03:27:32,0.746434,-0.683099,-0.067122,0.162297,0.047005,0.167934,-11.993141,25.193756,-36.655754,9.970938,0.42988512,-0.74342614,-0.48798093,0.23644163,0.04702042,-0.002389945
20231225 03:27:32,0.741503,-0.572700,-0.246622,0.155905,0.062985,0.128516,-11.429443,25.239433,-36.921074,9.473991,0.2912961,-0.64211583,-0.63910365,0.20489302,0.061085075,-0.03233926
20231225 03:27:32,0.601744,-0.361452,-0.388178,0.134598,0.085358,0.101882,-11.701942,25.119728,-36.514061,11.202881,0.09803489,-0.4144019,-0.6540375,0.17064816,0.08390447,-0.04341814
20231225 03:27:32,0.391205,-0.144300,-0.404366,0.106899,0.108795,0.092294,-11.604362,24.839199,-36.092857,13.296908,-0.048380047,-0.16366293,-0.5317378,0.14270136,0.10868132,-0.03737853
20231225 03:27:32,0.133189,0.011804,-0.355359,0.088788,0.130102,0.091229,-11.473114,24.188671,-36.049095,15.111392,-0.17895928,0.013194476,-0.32858902,0.12675652,0.13006257,-0.030919287
20231225 03:27:32,-0.137447,0.180516,-0.169013,0.084527,0.142886,0.107209,-11.580040,24.566067,-36.744637,16.601185,-0.22272195,0.1817574,-0.0376748,0.13221715,0.14184912,-0.022639304
20231225 03:27:32,-0.317474,0.300934,-0.018917,0.097311,0.140756,0.137039,-11.235054,25.062157,-36.639626,16.761976,-0.23614511,0.29033205,0.1683796,0.16150203,0.1385784,-0.012886152
20231225 03:27:32,-0.346480,0.295819,-0.056971,0.113291,0.139690,0.171130,-11.128899,25.068535,-36.505013,16.881258,-0.28312352,0.28481898,0.1691187,0.19724354,0.13634643,-0.00455606
20231225 03:27:32,-0.251263,0.265819,-0.163218,0.119684,0.137560,0.210548,-11.270912,24.682079,-36.615166,15.513175,-0.2927336,0.26478276,0.039172195,0.2349167,0.13569319,0.019019976
20231225 03:27:32,-0.003866,0.087525,-0.257034,0.112226,0.125841,0.229724,-10.910568,24.810013,-37.155815,12.835797,-0.19513553,0.08352654,-0.17421977,0.24895,0.12788783,0.04386925
20231225 03:27:32,0.286458,-0.058312,-0.425710,0.082396,0.111991,0.229724,-11.183456,24.882195,-37.029274,10.864747,-0.13690138,-0.09335862,-0.4829585,0.2330943,0.120003566,0.07144214
20231225 03:27:32,0.529912,-0.189648,-0.507890,0.033390,0.090684,0.212678,-11.140045,24.223442,-36.851875,8.956834,-0.04287103,-0.26932955,-0.70974946,0.18798251,0.105293706,0.10478744
20231225 03:27:32,0.720080,-0.350556,-0.455042,-0.025204,0.056593,0.175391,-10.707214,24.727757,-36.880486,7.7234645,0.11946848,-0.44953218,-0.8041607,0.11679743,0.07430135,0.13060427
20231225 03:27:32,0.781190,-0.433309,-0.344172,-0.066752,0.024633,0.128516,-11.173332,24.401546,-36.193977,7.9645677,0.2388158,-0.53574204,-0.76343536,0.05029293,0.04336019,0.13321161
20231225 03:27:32,0.786864,-0.422697,-0.314994,-0.075275,0.029960,0.076314,-11.049248,24.597969,-36.071587,8.61102,0.27338165,-0.51164174,-0.7436443,0.0063684694,0.04257731,0.10345401
20231225 03:27:32,0.632415,-0.245008,-0.230739,-0.040119,0.089619,0.031569,-10.918381,24.139332,-36.308281,10.05708,0.24548426,-0.2958711,-0.58931553,0.0015025418,0.09364238,0.03992276
20231225 03:27:32,0.387285,-0.153963,-0.050683,0.001430,0.121580,-0.001457,-10.936691,24.141182,-36.576530,12.012677,0.2214009,-0.16741863,-0.29566368,0.0039393036,0.121362545,-0.019240135
20231225 03:27:32,0.131851,-0.008374,-0.066651,0.031260,0.114122,-0.018502,-10.847427,25.283264,-36.918144,13.442757,0.037694324,-0.009210242,-0.14033438,0.007446558,0.11390933,-0.052940585
20231225 03:27:32,-0.070345,0.185343,-0.281606,0.046175,0.113057,-0.003587,-10.371582,25.320709,-37.049812,13.555199,-0.2617323,0.18703008,-0.15138823,0.026249107,0.11337746,-0.054613378
20231225 03:27:32,-0.096458,0.245956,-0.308324,0.069612,0.117318,0.037961,-10.689285,24.917793,-36.892708,14.382121,-0.30255204,0.24897818,-0.15430304,0.071989715,0.11755967,-0.04887507
20231225 03:27:32,-0.060656,0.271623,-0.479159,0.079200,0.115187,0.067791,-10.670967,24.915943,-36.624458,13.167017,-0.40843272,0.2686269,-0.2857959,0.103339545,0.11520744,-0.03645373
20231225 03:27:32,0.051855,0.244135,-0.732729,0.083462,0.111991,0.072052,-10.433945,24.463684,-36.726555,12.384965,-0.54691267,0.23193343,-0.5073579,0.10967058,0.11210028,-0.038196936
20231225 03:27:32,0.135322,0.350463,-0.992731,0.082396,0.120514,0.065660,-10.398476,25.035652,-37.031487,11.563713,-0.7197474,0.32161883,-0.7159971,0.1044554,0.120631345,-0.043727066
20231225 03:27:32,0.167596,0.473319,-1.180311,0.081331,0.147148,0.050746,-10.459419,25.312481,-36.916191,11.518353,-0.8664266,0.43611535,-0.8435718,0.09192924,0.1469247,-0.055716857
20231225 03:27:32,0.138362,0.610270,-1.369953,0.078135,0.198285,0.037961,-10.364418,24.473763,-37.128426,12.251034,-1.0601376,0.5880068,-0.92104137,0.07760215,0.19805022,-0.06806266
20231225 03:27:32,0.020080,0.794936,-1.339431,0.078135,0.247291,0.032635,-10.204086,24.858372,-36.750023,13.529186,-1.1211638,0.8086143,-0.82611644,0.06736222,0.24745522,-0.07977791
20231225 03:27:32,-0.171071,0.885664,-1.224965,0.091984,0.286708,0.041157,-9.746162,24.705784,-36.869484,15.551923,-1.1633109,0.9455168,-0.638703,0.06902888,0.28716186,-0.09726353
20231225 03:27:32,-0.422696,1.001576,-1.114565,0.099442,0.299493,0.072052,-9.887794,24.127434,-36.699165,17.715996,-1.2454802,1.0693126,-0.40192038,0.08833796,0.29728097,-0.0953368
20231225 03:27:32,-0.585499,1.040439,-1.011351,0.086658,0.272859,0.131712,-9.357384,24.351227,-36.306587,17.555414,-1.2601635,1.0927911,-0.2253108,0.13078244,0.2639834,-0.047884725
20231225 03:27:32,-0.470222,0.951324,-1.007730,0.047240,0.216396,0.202025,-9.516949,23.582836,-36.124046,15.777754,-1.1511703,0.9888653,-0.298119,0.18093725,0.20604356,0.036758825
20231225 03:27:32,-0.094231,0.738817,-1.117575,-0.022008,0.142886,0.257423,-9.429104,23.591068,-36.257683,11.404821,-0.96764755,0.7224338,-0.6161801,0.20327257,0.1470607,0.14355345
20231225 03:27:32,0.396772,0.562762,-1.156071,-0.111497,0.057659,0.276599,-9.518867,24.542282,-37.526405,6.73818,-0.6705169,0.4312254,-1.0157568,0.168268,0.089009985,0.24386133
20231225 03:27:32,0.825232,0.393127,-1.227524,-0.195660,-0.003066,0.268077,-9.464695,24.920509,-37.282616,3.0201664,-0.45428026,0.11312166,-1.3914263,0.10286624,0.058296323,0.31400532
20231225 03:27:32,1.224692,0.279304,-1.251788,-0.260646,0.001195,0.235051,-9.322292,25.115082,-36.891991,-0.022975504,-0.20279497,-0.15464708,-1.7271467,0.030625314,0.085478,0.34910607
20231225 03:27:32,1.423552,0.246275,-1.158507,-0.303260,0.022502,0.164738,-9.304749,25.497005,-37.184685,-0.89613855,0.016040742,-0.22722797,-1.8317462,-0.051038876,0.10368726,0.341501
20231225 03:27:32,1.440564,0.254077,-1.017854,-0.329893,0.067247,0.070987,-9.295784,25.592026,-37.190788,0.30245095,0.14829272,-0.15183197,-1.7629598,-0.13502249,0.12636681,0.30400944
20231225 03:27:32,1.206564,0.411777,-0.733542,-0.349070,0.086423,-0.030221,-9.259926,25.972103,-37.215248,3.7964864,0.2316041,0.19021371,-1.4175317,-0.22847061,0.116679855,0.25189045
20231225 03:27:32,0.723243,0.625178,-0.458138,-0.350135,0.102403,-0.114383,-8.950794,26.088112,-37.085777,7.9601765,0.12977123,0.5681252,-0.90223026,-0.30269238,0.111080736,0.19325387
20231225 03:27:32,0.099566,0.947592,-0.123035,-0.311782,0.130102,-0.155932,-9.198975,25.695278,-37.330544,13.2793865,-0.061460994,0.95288074,-0.2887705,-0.32044664,0.12724446,0.12957434
20231225 03:27:32,-0.587932,1.302042,0.114257,-0.248927,0.154605,-0.145279,-9.013550,25.422974,-37.042976,17.686357,-0.4165309,1.2288775,0.27819505,-0.28439304,0.14744958,0.07766058
20231225 03:27:32,-1.178239,1.610693,0.195495,-0.175418,0.173782,-0.088815,-8.650635,26.109104,-36.950188,19.998558,-0.82975936,1.4051595,0.6955528,-0.20398039,0.16265297,0.048765533
20231225 03:27:32,-1.493061,1.844106,0.167370,-0.088059,0.199350,0.003870,-8.844639,26.094494,-36.951164,21.61813,-1.1215512,1.5578259,0.8517066,-0.08688644,0.18118246,0.026197016
20231225 03:27:32,-1.503813,1.843777,0.085938,0.008887,0.230245,0.102948,-8.670364,24.977097,-37.010460,21.064192,-1.159168,1.5925833,0.8395213,0.046385407,0.20874666,0.0010427311
20231225 03:27:32,-1.150956,1.738684,-0.172144,0.110095,0.270728,0.179653,-8.395294,25.654995,-36.784035,17.995787,-1.0380979,1.6315941,0.51537097,0.17369176,0.25470218,-0.03738699
20231225 03:27:32,-0.691134,1.529370,-0.511139,0.184670,0.309081,0.212678,-8.307449,25.663223,-36.917671,14.719138,-0.92738783,1.5248917,0.05667892,0.2566138,0.3016919,-0.07776431
20231225 03:27:32,-0.207955,1.325809,-0.801536,0.219826,0.331453,0.211613,-8.176701,27.105991,-38.484230,10.80252,-0.8011586,1.3365515,-0.41255802,0.29316056,0.3303591,-0.09930945
20231225 03:27:32,0.184852,1.195077,-1.007853,0.226218,0.343172,0.190306,-7.805470,26.369511,-37.628624,7.734493,-0.6953664,1.1558703,-0.79650795,0.29524845,0.34422988,-0.10937851
20231225 03:27:32,0.456925,1.172414,-1.139642,0.199585,0.339976,0.159411,-7.663452,26.755966,-37.518471,6.109168,-0.6345441,1.0835038,-1.0681778,0.26237804,0.340896,-0.10080394
20231225 03:27:32,0.569848,1.360299,-1.163726,0.129272,0.320800,0.130647,-7.665257,25.814003,-37.590981,5.3211823,-0.5737237,1.240128,-1.167555,0.20320225,0.32322216,-0.05579015
20231225 03:27:32,0.708981,1.617666,-1.095585,0.012083,0.269663,0.106144,-7.507111,25.448532,-37.565544,3.8403063,-0.3826496,1.4546194,-1.2406619,0.12218249,0.27753475,0.036647543
20231225 03:27:32,0.848233,1.717816,-0.847904,-0.130673,0.210003,0.080575,-7.444359,26.113667,-37.608330,3.1757524,-0.046274483,1.5531698,-1.2281611,0.016376011,0.22613412,0.1469003
20231225 03:27:32,1.016654,1.798323,-0.431765,-0.251058,0.176978,0.039027,-6.862347,26.157497,-37.605400,1.7197409,0.4559228,1.6441092,-1.1089634,-0.094466835,0.20073469,0.22355765
20231225 03:27:32,1.091019,1.945867,0.178578,-0.339481,0.181239,-0.032352,-6.824951,25.770020,-36.507988,3.2154903,0.9903828,1.8707867,-0.81651795,-0.21794243,0.20138626,0.2411553
20231225 03:27:32,0.778907,2.065194,0.905796,-0.403402,0.174847,-0.112253,-6.906784,25.490513,-37.294380,6.917663,1.2542982,2.0705688,-0.16706485,-0.34283763,0.18154179,0.21969339
20231225 03:27:32,0.211625,2.030577,1.627049,-0.449212,0.157801,-0.153801,-6.817139,26.440708,-37.355507,9.932927,1.2775003,1.9998823,0.71438694,-0.42524722,0.15192607,0.20040421
20231225 03:27:32,-0.214510,1.793330,2.408410,-0.456670,0.139690,-0.153801,-6.517357,26.653580,-37.500389,11.036245,1.3925428,1.6853,1.6361476,-0.44620758,0.12572052,0.17693913
20231225 03:27:32,-0.480887,1.518074,3.169342,-0.395945,0.133298,-0.128233,-6.296459,26.953251,-37.517754,11.785346,1.5475683,1.3268714,2.4686465,-0.3943211,0.115138896,0.13166836
20231225 03:27:33,-0.627200,1.032578,3.726126,-0.263842,0.148213,-0.078162,-6.553986,26.657280,-38.036873,13.1277075,1.6140063,0.77204525,3.1152184,-0.26748496,0.13164166,0.06616027
20231225 03:27:33,-0.770624,0.359209,3.962151,-0.086994,0.178043,-0.016371,-6.005646,27.071110,-37.656517,12.706452,1.4984124,0.08156058,3.5887222,-0.09124563,0.17094053,0.0015973356
20231225 03:27:33,-0.724756,-0.267764,3.961898,0.099442,0.194023,0.030504,-6.129734,26.874691,-37.778908,12.602468,1.4433396,-0.50317836,3.730129,0.091851994,0.19936913,-0.062399253
20231225 03:27:33,-0.588214,-0.929375,3.587083,0.242199,0.180174,0.052876,-6.163406,27.244690,-37.401482,12.366861,1.3182734,-1.1150644,3.5000913,0.22866519,0.19457787,-0.109919086
20231225 03:27:33,-0.464278,-1.507167,3.045238,0.321034,0.137560,0.060334,-5.890522,27.172508,-37.528023,11.610339,1.1118171,-1.637564,3.1020775,0.30544776,0.1552365,-0.12747166
20231225 03:27:33,-0.296522,-2.099856,2.535581,0.350864,0.070443,0.052876,-6.041504,26.691032,-37.632072,11.309592,0.97841495,-2.1797993,2.7003202,0.33291516,0.08677006,-0.1304803
20231225 03:27:33,-0.097328,-2.582451,1.937722,0.351929,0.001195,0.036896,-6.120384,26.777821,-37.504555,10.07542,0.83756775,-2.611104,2.1417422,0.32966697,0.010259911,-0.12921797
20231225 03:27:33,0.150680,-2.968025,1.431950,0.346603,-0.049942,0.012393,-5.980938,26.606091,-38.027840,8.434988,0.7892648,-2.9693415,1.5804098,0.31433314,-0.049164552,-0.14028737
20231225 03:27:33,0.449701,-3.199017,0.938882,0.338080,-0.073379,-0.019567,-5.574230,26.441570,-37.477165,5.5733747,0.77258694,-3.1945264,0.8918851,0.2885411,-0.08624744,-0.16853955
20231225 03:27:33,0.761543,-3.347374,0.381871,0.324230,-0.060595,-0.072835,-6.085945,26.024048,-37.321037,3.868812,0.7072233,-3.376622,0.16017996,0.24549362,-0.08841386,-0.21753253
20231225 03:27:33,0.980144,-3.379136,-0.105584,0.298662,-0.012654,-0.135690,-6.015263,25.458462,-36.881508,2.6739914,0.5871716,-3.4566147,-0.46725747,0.18357506,-0.048369914,-0.2710357
20231225 03:27:33,1.087172,-3.167187,-0.514803,0.242199,0.065116,-0.210265,-5.872864,25.653023,-36.490868,1.4916264,0.3693584,-3.2942312,-0.9743732,0.085161775,0.02327137,-0.31209993
20231225 03:27:33,1.082635,-2.768833,-0.686591,0.121814,0.104534,-0.309342,-5.698322,26.245152,-37.599541,2.2305,0.26061684,-2.8876827,-1.1197848,-0.08511418,0.07392854,-0.32225606
20231225 03:27:33,0.754793,-2.329038,-0.630414,-0.019877,0.111991,-0.400962,-5.277412,26.288151,-38.535957,5.578846,0.14329806,-2.3510885,-0.7908553,-0.2698621,0.106406055,-0.3025637
20231225 03:27:33,0.236037,-1.758845,-0.292586,-0.132804,0.121580,-0.457426,-5.408276,26.746788,-38.299263,10.4638815,0.07401301,-1.7255336,-0.13137321,-0.40613124,0.1365256,-0.2680847
20231225 03:27:33,-0.459564,-1.099345,0.166246,-0.199921,0.130102,-0.447837,-5.672192,26.913986,-38.178825,15.573777,-0.108581364,-1.1626682,0.64534855,-0.4562655,0.15382846,-0.21849346
20231225 03:27:33,-1.111879,-0.664812,0.641534,-0.221228,0.133298,-0.366871,-5.477425,26.544823,-37.616905,18.042465,-0.34134534,-0.9392247,1.3422266,-0.41992158,0.1458094,-0.15336092
20231225 03:27:33,-1.446515,-0.450878,1.009857,-0.193529,0.135429,-0.242225,-5.556686,26.823498,-37.769875,18.963337,-0.4106021,-0.8760124,1.7728593,-0.3206113,0.13283658,-0.08543797
20231225 03:27:33,-1.543407,-0.324424,1.282170,-0.126412,0.131168,-0.102665,-5.213886,26.569511,-38.017815,18.370403,-0.35130256,-0.8038038,1.9992697,-0.18119803,0.119318336,-0.026823133
20231225 03:27:33,-1.334519,-0.299356,1.288802,-0.048641,0.118383,0.016654,-5.144356,26.579586,-38.419701,16.981127,-0.17030376,-0.69403625,1.8691654,-0.04331215,0.10514953,0.017023064
20231225 03:27:33,-1.018105,-0.294404,1.116712,0.017410,0.103469,0.113601,-5.566422,27.112255,-38.324699,15.110054,-0.014133036,-0.5469505,1.5395064,0.074925885,0.09144164,0.0510218
20231225 03:27:33,-0.535333,-0.365752,0.870360,0.061089,0.090684,0.176457,-5.150364,26.850868,-37.499672,11.800639,0.20492002,-0.47248045,1.0476241,0.15572366,0.08209235,0.07417116
20231225 03:27:33,-0.055960,-0.514008,0.615423,0.088788,0.084292,0.200960,-4.941002,26.497326,-38.144356,8.803066,0.3884407,-0.5375012,0.54749525,0.19732364,0.08050573,0.07841777
20231225 03:27:33,0.353775,-0.668219,0.417710,0.095181,0.076835,0.190306,-4.595631,26.801525,-37.758873,5.9757786,0.54409474,-0.6682759,0.122938424,0.19799048,0.07663222,0.070771955
20231225 03:27:33,0.588645,-0.807635,0.320926,0.084527,0.059789,0.151954,-4.709988,26.316349,-37.326424,4.948954,0.63999647,-0.8124956,-0.10393961,0.1653291,0.060653362,0.05223816
20231225 03:27:33,0.714710,-0.888358,0.304760,0.074939,0.036352,0.093359,-5.230667,25.803802,-37.164177,5.557285,0.7220574,-0.89653003,-0.18242073,0.11859163,0.036487386,0.017235328
20231225 03:27:33,0.637686,-0.900981,0.299819,0.069612,0.016110,0.030504,-4.703209,25.661293,-37.685524,6.02711,0.6749018,-0.9012169,-0.131527,0.07225813,0.016083047,-0.024976632
20231225 03:27:33,0.365594,-0.862895,0.390296,0.076004,0.003326,-0.017437,-4.967896,26.212265,-38.126015,8.125654,0.5537062,-0.861738,0.1379866,0.045244552,0.0058849677,-0.063678496
20231225 03:27:33,0.115183,-0.798940,0.492955,0.090919,-0.026504,-0.040874,-5.001953,26.774155,-38.029060,9.4337435,0.44583866,-0.81282854,0.38726318,0.042447243,-0.020240506,-0.08707373
20231225 03:27:33,0.036775,-0.810289,0.534153,0.110095,-0.065922,-0.058985,-4.571308,26.528397,-38.410652,9.408314,0.42026967,-0.83255273,0.4703032,0.0469721,-0.056559358,-0.10837652
20231225 03:27:33,-0.035384,-0.791742,0.464176,0.132468,-0.095751,-0.078162,-4.764927,26.321896,-38.131157,9.69488,0.32280046,-0.8149684,0.46348852,0.051422656,-0.084037125,-0.13380057
20231225 03:27:33,-0.036234,-0.757883,0.369479,0.149513,-0.115993,-0.094142,-5.117077,26.672752,-38.157555,10.592912,0.26698947,-0.7791218,0.39462167,0.053531595,-0.10039066,-0.15358233
20231225 03:27:33,-0.158973,-0.720140,0.199510,0.153775,-0.120254,-0.107991,-4.816528,26.501858,-37.741508,11.123903,0.07297729,-0.7428366,0.35249567,0.04682321,-0.09988701,-0.16574913
20231225 03:27:33,-0.249527,-0.737574,0.080333,0.151644,-0.113862,-0.111187,-4.764927,26.321896,-38.131157,11.812678,-0.06277855,-0.7607682,0.33844274,0.04263576,-0.09034005,-0.16669151
20231225 03:27:33,-0.317395,-0.709286,0.018672,0.149513,-0.097882,-0.116514,-5.126041,26.577736,-38.151436,12.621448,-0.15173973,-0.7347423,0.34488094,0.0364888,-0.07246205,-0.17018539
20231225 03:27:33,-0.364826,-0.719087,0.074185,0.144187,-0.106405,-0.122906,-5.047161,26.490948,-38.278969,12.965991,-0.14344199,-0.7559255,0.4210627,0.030223101,-0.07902375,-0.16898398
20231225 03:27:33,-0.472256,-0.750086,0.019298,0.147383,-0.127712,-0.132494,-4.693211,27.082054,-38.180061,12.959325,-0.24822588,-0.79483104,0.4623882,0.02859608,-0.09635815,-0.1746247
20231225 03:27:33,-0.505971,-0.731075,-0.049595,0.159101,-0.142627,-0.141017,-5.152935,26.292675,-38.133110,14.0897045,-0.31001663,-0.7734183,0.4492948,0.030468822,-0.10676903,-0.18461694
20231225 03:27:33,-0.520570,-0.643567,-0.263236,0.174016,-0.139431,-0.146344,-4.994789,25.927208,-38.107674,14.259862,-0.46980894,-0.66295564,0.30902696,0.03306561,-0.09964463,-0.20001277
20231225 03:27:33,-0.512810,-0.547619,-0.451377,0.182539,-0.120254,-0.149540,-4.394085,25.777302,-37.556038,13.733023,-0.6034814,-0.54076767,0.17466015,0.028073996,-0.07828218,-0.21375015
20231225 03:27:33,-0.489026,-0.347057,-0.621752,0.178278,-0.095751,-0.147409,-5.088261,25.998371,-36.773537,14.425254,-0.73866504,-0.31562406,0.037048638,0.017659225,-0.055642985,-0.21279217
20231225 03:27:33,-0.432899,-0.187042,-0.751534,0.153775,-0.068052,-0.136756,-4.923344,24.977844,-37.107201,13.789095,-0.8254117,-0.13682958,-0.10163742,0.0017945766,-0.0352584,-0.19282155
20231225 03:27:33,-0.371509,-0.032688,-0.727696,0.104769,-0.059530,-0.119710,-4.773129,25.843102,-37.564095,13.129778,-0.78958285,0.01825235,-0.14967757,-0.019599266,-0.03482077,-0.14622311
20231225 03:27:33,-0.351938,0.010119,-0.693640,0.022737,-0.070183,-0.096273,-4.976479,25.925362,-37.839439,13.368706,-0.7544404,0.05730558,-0.1577029,-0.050920106,-0.05594104,-0.06671024
20231225 03:27:33,-0.256348,0.065621,-0.510720,-0.066752,-0.105340,-0.081358,-5.021305,25.450264,-37.808876,12.296625,-0.5587278,0.093245715,-0.1354149,-0.09465303,-0.10212298,0.014140978
20231225 03:27:33,-0.204463,0.093104,-0.253370,-0.133869,-0.122385,-0.086684,-4.985447,25.830341,-37.833321,12.112966,-0.33233225,0.09897907,-0.024819374,-0.1419802,-0.12443198,0.060779214
20231225 03:27:33,-0.296419,0.078727,0.075777,-0.149850,-0.120254,-0.090946,-5.391384,25.611088,-37.823051,13.71188,-0.1558425,0.040663186,0.2541399,-0.1553514,-0.12416799,0.06866204
20231225 03:27:33,-0.590903,0.095700,0.394325,-0.116824,-0.108536,-0.088815,-5.152554,26.100792,-37.852638,15.014055,-0.14878798,-0.03051186,0.6712534,-0.1302738,-0.110064656,0.043073058
20231225 03:27:33,-0.845616,0.121537,0.610384,-0.079537,-0.094686,-0.084554,-5.249363,25.997543,-37.712898,16.415228,-0.19318062,-0.09242113,0.987666,-0.10101017,-0.09194106,0.01780929
20231225 03:27:33,-1.072506,0.238961,0.677549,0.081331,-0.053138,-0.047267,-4.958164,25.923512,-37.571190,17.570194,-0.32490912,-0.060887493,1.1665039,0.033396408,-0.030094815,-0.07828175
20231225 03:27:33,-1.225879,0.298472,0.441788,0.176147,-0.039288,0.003870,-5.071102,26.572189,-37.346718,18.260464,-0.5809896,-0.005759649,1.1178056,0.1303793,-0.008170653,-0.11768347
20231225 03:27:33,-1.109472,0.287346,0.083874,0.228349,-0.036092,0.062464,-4.764160,25.938122,-37.570213,17.03171,-0.7162633,0.094866835,0.835319,0.20190582,-0.01116898,-0.12638345
20231225 03:27:33,-0.806373,0.333077,-0.298859,0.235806,-0.051007,0.113601,-4.764160,25.938122,-37.570213,14.851246,-0.784484,0.27527285,0.39073518,0.242619,-0.03876174,-0.10579905
20231225 03:27:33,-0.429605,0.280530,-0.666467,0.213434,-0.061660,0.145562,-5.382420,25.706104,-37.829170,12.863556,-0.8146132,0.31275105,-0.09326178,0.25083005,-0.059244454,-0.074420094
20231225 03:27:33,-0.048887,0.124649,-0.891654,0.170820,-0.059530,0.146627,-4.880440,26.412388,-38.540123,9.623513,-0.74662626,0.17704323,-0.5032535,0.22327286,-0.06044121,-0.04322274
20231225 03:27:33,0.226402,-0.010980,-0.964208,0.121814,-0.058464,0.114666,-4.861740,26.218647,-37.991402,8.117384,-0.6280923,0.029255122,-0.75805986,0.16703042,-0.059175067,-0.022981048
20231225 03:27:33,0.254936,-0.006736,-0.910958,0.082396,-0.066987,0.069922,-4.933456,25.458492,-37.942497,8.385048,-0.5640693,0.033951297,-0.7520681,0.108104914,-0.06714544,-0.0169513
20231225 03:27:33,0.216902,0.026441,-0.841475,0.053632,-0.079771,0.025177,-5.028847,26.489098,-38.010719,9.166045,-0.5351911,0.076834925,-0.6806295,0.056589406,-0.07881066,-0.019650482
20231225 03:27:33,0.109451,0.063873,-0.790915,0.030194,-0.100013,-0.016371,-4.509975,26.059681,-38.245476,9.115766,-0.56111395,0.11549021,-0.5701221,0.011451187,-0.09738485,-0.02409317
20231225 03:27:33,-0.029704,0.248752,-0.715940,0.007822,-0.129843,-0.048332,-4.739452,25.473103,-37.941521,10.839455,-0.6069181,0.30458692,-0.42788112,-0.022967998,-0.1246788,-0.02012584
20231225 03:27:33,-0.146641,0.303244,-0.712203,-0.007093,-0.133039,-0.065377,-4.897598,25.838570,-37.966957,11.708993,-0.6799134,0.35772243,-0.3434411,-0.04338321,-0.12644532,-0.01679958
20231225 03:27:33,-0.242996,0.382242,-0.587328,-0.006028,-0.124516,-0.078162,-5.390999,25.419197,-37.542580,12.361493,-0.64576715,0.4167727,-0.20806065,-0.053560212,-0.1168197,-0.025583778
20231225 03:27:33,-0.229980,0.463071,-0.447972,0.012083,-0.110666,-0.084554,-5.267677,25.999393,-37.981133,12.14893,-0.5354582,0.48491,-0.14815757,-0.04839293,-0.10109275,-0.046057023
20231225 03:27:33,-0.299406,0.444387,-0.316984,0.033390,-0.092555,-0.084554,-5.063938,25.725239,-37.425331,12.122957,-0.47490752,0.44801122,-0.022240564,-0.03530424,-0.08133828,-0.065805964
20231225 03:27:33,-0.248044,0.271259,-0.124717,0.063220,-0.095751,-0.092011,-5.257942,25.710632,-37.426308,11.91028,-0.27826995,0.26220602,0.07313839,-0.020409055,-0.082789645,-0.093703404
20231225 03:27:33,-0.213424,0.079969,-0.086156,0.095181,-0.119189,-0.110122,-5.197380,25.625694,-37.822075,11.359899,-0.21092364,0.07193811,0.09510106,-0.010986432,-0.103831105,-0.12726396
20231225 03:27:33,-0.095497,-0.107989,-0.141200,0.122880,-0.158607,-0.134625,-5.108765,25.250141,-37.394768,10.5331,-0.1619731,-0.103869356,-0.0057973787,-0.010796055,-0.14264517,-0.1605545
20231225 03:27:33,0.002207,-0.172610,-0.392950,0.136729,-0.195894,-0.158063,-5.003757,25.832188,-38.101555,9.797868,-0.29176325,-0.14917062,-0.2283858,-0.023958802,-0.17964247,-0.1833466
20231225 03:27:33,0.099303,-0.196898,-0.767809,0.133533,-0.211874,-0.177239,-5.063557,25.533352,-37.144859,9.595712,-0.5370405,-0.15135585,-0.51943654,-0.047781505,-0.19645306,-0.19081146
20231225 03:27:33,0.113066,-0.153647,-1.187695,0.115422,-0.196960,-0.180435,-5.514320,24.838997,-37.104012,10.955263,-0.90000844,-0.06734711,-0.7382708,-0.06920725,-0.17867017,-0.17432511
20231225 03:27:33,-0.017500,-0.023027,-1.533830,0.080266,-0.143692,-0.164455,-5.426086,24.655342,-36.957176,12.297247,-1.2871931,0.1202493,-0.796486,-0.08012658,-0.12244823,-0.13803814
20231225 03:27:33,-0.126314,0.155180,-1.587767,0.025933,-0.090425,-0.139952,-5.436207,25.135990,-37.792488,13.226259,-1.4057676,0.32314184,-0.7553422,-0.0920095,-0.07197123,-0.08468955
20231225 03:27:33,-0.200343,0.175960,-1.334389,-0.012420,-0.085098,-0.130364,-4.994026,25.543434,-37.546730,12.799604,-1.2174671,0.30910635,-0.6044964,-0.10328963,-0.07054865,-0.05191998
20231225 03:27:33,-0.255238,0.098377,-1.036161,-0.014550,-0.104274,-0.162324,-5.557724,25.497757,-37.281425,13.866516,-0.9903657,0.19696298,-0.40014118,-0.12614258,-0.085392326,-0.06634548
20231225 03:27:33,-0.385556,0.293173,-0.874587,0.005691,-0.150084,-0.197481,-5.602932,25.214546,-37.531319,15.505315,-0.9668715,0.37512857,-0.22149345,-0.13316186,-0.11856892,-0.09189684
20231225 03:27:33,-0.576341,0.586951,-0.805744,0.008887,-0.219332,-0.210265,-5.806286,25.296806,-37.806664,16.693815,-1.072271,0.6390254,-0.07626951,-0.12735489,-0.18008615,-0.08754399
20231225 03:27:33,-0.581951,0.731830,-0.797147,0.000365,-0.308821,-0.202807,-5.955082,25.565407,-37.557732,16.47338,-1.0895386,0.7818421,-0.06379968,-0.11597347,-0.27121773,-0.06030049
20231225 03:27:33,-0.503288,0.994594,-0.902729,-0.048641,-0.395114,-0.181500,-5.673229,25.588245,-37.690407,14.914203,-1.1575713,1.0598452,-0.19858652,-0.12189143,-0.36909816,2.110973E-4
20231225 03:27:33,-0.298063,1.030556,-0.969508,-0.114693,-0.461166,-0.159128,-5.521862,25.877834,-37.305885,12.681377,-1.0746293,1.1022035,-0.38899374,-0.14775908,-0.44907126,0.06671874
20231225 03:27:33,-0.095793,1.020492,-0.971883,-0.190333,-0.478211,-0.148475,-6.263439,25.065620,-37.126259,11.899524,-0.9295931,1.0797281,-0.5644015,-0.19562554,-0.47506443,0.13249269
20231225 03:27:33,0.068530,0.938620,-0.642701,-0.248927,-0.502714,-0.161259,-5.839954,25.666801,-37.429237,10.434805,-0.5295198,0.97344494,-0.52547675,-0.24948436,-0.502625,0.16215104
20231225 03:27:33,-0.016360,0.857850,-0.296351,-0.261711,-0.494192,-0.182566,-6.429131,26.469925,-37.353554,11.970497,-0.30118898,0.87382126,-0.27347952,-0.2708133,-0.49375057,0.16034406
20231225 03:27:33,-0.143794,0.791719,0.123525,-0.230816,-0.467558,-0.199611,-6.580109,25.988445,-37.457603,12.139444,-0.048991323,0.7735582,0.08007355,-0.2715733,-0.46572134,0.11338292
20231225 03:27:33,-0.270953,0.656291,0.471262,-0.164764,-0.463297,-0.229441,-6.280334,26.201324,-37.602470,12.605319,0.11879875,0.59941894,0.41316703,-0.2452214,-0.45482898,0.040603116
20231225 03:27:33,-0.383155,0.499925,0.675319,-0.071014,-0.459035,-0.273120,-6.799206,26.630745,-37.367744,14.087386,0.18333268,0.40620506,0.6443248,-0.20636812,-0.4377588,-0.05300075
20231225 03:27:33,-0.537036,0.464397,0.766654,0.037652,-0.465427,-0.323192,-7.168900,26.599674,-37.101448,15.670783,0.14206517,0.32662812,0.81043327,-0.15992594,-0.42297202,-0.1537508
20231225 03:27:33,-0.771183,0.670647,0.550139,0.143121,-0.459035,-0.353021,-7.072094,26.702923,-37.241188,17.229177,-0.1817511,0.49275395,0.79872745,-0.10777897,-0.38584056,-0.23949377
20231225 03:27:33,-1.014126,1.111567,0.171732,0.208107,-0.435598,-0.355152,-7.329617,26.406956,-37.760323,19.623384,-0.6735502,0.9147841,0.6863554,-0.074008465,-0.3319371,-0.27936077
20231225 03:27:33,-1.233950,1.890148,-0.264318,0.195323,-0.421748,-0.315734,-7.592770,26.190380,-37.078941,22.054132,-1.3126186,1.6993008,0.50793487,-0.05288127,-0.30710137,-0.23696893
20231225 03:27:33,-1.356089,2.534918,-0.527216,0.097311,-0.446251,-0.231572,-7.478031,26.483662,-37.230904,22.73106,-1.7509654,2.3592994,0.40505397,-0.031086385,-0.3570057,-0.104588024
20231225 03:27:33,-1.254739,2.809917,-0.664206,-0.063556,-0.490996,-0.125037,-8.377747,26.036922,-37.076729,21.726137,-1.7680395,2.7140937,0.23995137,-0.036386102,-0.4590002,0.08805624
20231225 03:27:33,-0.832005,2.795962,-0.571987,-0.244666,-0.520825,-0.027025,-7.989357,25.874252,-36.794304,16.521448,-1.2434287,2.7772977,0.011839122,-0.089254506,-0.53018093,0.27252585
20231225 03:27:33,-0.243750,2.551743,-0.179730,-0.402337,-0.508041,0.030504,-8.252506,25.657673,-36.112938,12.741803,-0.3844329,2.5494685,-0.21413824,-0.18167248,-0.5192796,0.4123461
20231225 03:27:33,0.190613,2.159819,0.430622,-0.507806,-0.451578,0.036896,-8.288368,25.277596,-36.088493,10.602589,0.45844015,2.1601384,-0.13341004,-0.28672904,-0.45107287,0.4722582
20231225 03:27:33,0.355356,1.734359,1.238827,-0.556813,-0.381265,0.020916,-8.420387,26.311905,-36.693199,10.190056,1.1609657,1.7407868,0.36209717,-0.36704296,-0.3773744,0.46737334
20231225 03:27:33,0.317784,1.238327,1.909134,-0.544028,-0.284318,-0.001457,-8.639484,26.954197,-36.603340,10.661722,1.5333892,1.2449749,0.99507236,-0.40204814,-0.28180397,0.40651062
20231225 03:27:33,0.187640,0.730171,2.713974,-0.473715,-0.206548,-0.029156,-8.603622,27.334274,-36.627785,11.557712,1.8325878,0.7122652,1.8482261,-0.38717347,-0.21060754,0.3052202
20231225 03:27:33,-0.082973,0.215148,3.191439,-0.323501,-0.114928,-0.056855,-8.418964,27.445755,-36.901161,13.132065,1.759692,0.12613831,2.550351,-0.2942325,-0.12562239,0.1621052
20231225 03:27:33,-0.436388,-0.297399,3.543425,-0.124281,-0.062726,-0.077096,-8.825287,27.418385,-37.171364,15.309111,1.5690107,-0.4764738,3.1706288,-0.143415,-0.0674203,0.019144297
20231225 03:27:34,-0.830207,-0.595458,3.527049,0.103703,-0.044615,-0.088815,-8.664955,27.802994,-36.792961,16.747997,1.2461357,-0.8923081,3.429742,0.041831017,-0.02875163,-0.11698251
20231225 03:27:34,-1.161570,-0.573638,3.068353,0.334884,-0.016916,-0.083488,-8.576344,27.427444,-36.365654,18.488102,0.8474932,-0.99128026,3.196608,0.22779799,0.033605568,-0.25321358
20231225 03:27:34,-1.356379,-0.361494,2.206546,0.538365,0.038482,-0.060051,-8.612587,27.239258,-36.621681,20.011234,0.36166894,-0.83031905,2.5597997,0.37518594,0.12626937,-0.3942491
20231225 03:27:34,-1.496519,-0.109815,1.210104,0.669403,0.084292,-0.020633,-8.316147,27.277729,-37.960945,20.994953,-0.25524002,-0.54930305,1.8785233,0.45776328,0.19716181,-0.4972213
20231225 03:27:34,-1.543500,0.064711,0.363242,0.722671,0.105599,0.033700,-8.189754,26.322811,-36.155739,22.857058,-0.78546584,-0.28903568,1.3544147,0.48636165,0.22532827,-0.5438467
20231225 03:27:34,-1.569712,0.198525,-0.464262,0.699233,0.117318,0.123189,-8.331772,25.936352,-36.265892,23.930916,-1.3663803,0.01546406,0.919307,0.49939772,0.20904553,-0.5085722
20231225 03:27:34,-1.296361,0.203326,-1.120263,0.609744,0.134364,0.239312,-8.324612,25.089405,-36.344490,22.18027,-1.6752193,0.23857835,0.4183311,0.5139636,0.16829288,-0.4001147
20231225 03:27:34,-0.823799,0.009212,-1.535666,0.469118,0.141821,0.359696,-8.342541,24.899368,-36.332268,17.75089,-1.7213788,0.13102517,-0.12977207,0.5388832,0.13454601,-0.22356658
20231225 03:27:34,-0.200528,-0.365747,-1.676711,0.283747,0.139690,0.454512,-8.635277,25.740955,-37.595863,11.5757265,-1.4877081,-0.34308147,-0.72730273,0.5331141,0.13587035,0.003828019
20231225 03:27:34,0.394675,-0.851542,-1.595255,0.064285,0.104534,0.523760,-8.635277,25.740955,-37.595863,5.715655,-1.0868559,-1.0059426,-1.2298265,0.46051854,0.14368811,0.26087186
20231225 03:27:34,0.993150,-1.314349,-1.311065,-0.174353,0.034221,0.546132,-8.456245,25.931824,-36.668739,0.3837642,-0.4748398,-1.6380471,-1.613272,0.27855167,0.14603731,0.49860555
20231225 03:27:34,1.548718,-1.839667,-0.825234,-0.389553,-0.042484,0.524825,-8.271206,25.851414,-36.661644,-3.0458777,0.30135256,-2.245202,-1.7143031,0.031505704,0.13854423,0.6491707
20231225 03:27:34,1.990659,-2.233100,-0.219515,-0.542963,-0.113862,0.463035,-8.183361,25.859642,-36.795280,-4.6166544,1.0872757,-2.658523,-1.4915353,-0.20109904,0.10931384,0.68499666
20231225 03:27:34,2.229227,-2.472976,0.310452,-0.632452,-0.162868,0.373546,-8.129955,26.621647,-37.112434,-5.1907153,1.6094129,-2.8812854,-1.1413975,-0.36530116,0.07506999,0.643911
20231225 03:27:34,2.329840,-2.522658,0.840733,-0.668674,-0.214005,0.274469,-8.066051,26.711117,-36.313820,-4.2931995,2.0211565,-2.874298,-0.64504284,-0.47078985,0.009245973,0.56561315
20231225 03:27:34,2.264863,-2.541786,1.143918,-0.650563,-0.212940,0.191371,-8.445858,27.160698,-36.882820,-3.02904,2.154504,-2.830097,-0.25724953,-0.50182915,-0.019397762,0.48061076
20231225 03:27:34,2.207110,-2.478460,1.417442,-0.614341,-0.170326,0.111470,-8.736290,26.850948,-36.463570,-1.843207,2.27186,-2.7219152,0.10424304,-0.5080089,-0.005778446,0.38956407
20231225 03:27:34,2.079126,-2.443729,1.710002,-0.578120,-0.144757,0.020916,-8.566994,27.330578,-36.091286,-0.31634825,2.3436131,-2.6149495,0.504125,-0.5152633,-0.017743671,0.2925306
20231225 03:27:34,1.866151,-2.248889,2.129080,-0.524852,-0.135169,-0.073900,-8.709396,27.136009,-36.481911,1.7149798,2.4182017,-2.3311012,1.052911,-0.5095263,-0.047025442,0.1864995
20231225 03:27:34,1.462860,-2.049177,2.473012,-0.428971,-0.104274,-0.158063,-8.789043,27.606575,-36.915337,4.699856,2.3126976,-2.044348,1.6209877,-0.45880795,-0.060418956,0.072796136
20231225 03:27:34,0.924548,-1.804607,2.814199,-0.289410,-0.080837,-0.211330,-8.777893,28.451672,-36.568474,7.7139497,2.0943766,-1.7544811,2.207241,-0.35830143,-0.06839329,-0.03405787
20231225 03:27:34,0.356155,-1.498871,2.935461,-0.124281,-0.069118,-0.221984,-8.736023,28.560471,-37.512978,10.024436,1.768159,-1.4667807,2.5409453,-0.22022492,-0.06922039,-0.11559792
20231225 03:27:34,-0.093062,-1.176690,2.817286,0.050436,-0.068052,-0.196415,-8.964085,29.107750,-37.416985,11.946065,1.4394064,-1.1963897,2.5822923,-0.062250204,-0.06620523,-0.17736433
20231225 03:27:34,-0.369038,-0.838473,2.388862,0.208107,-0.074445,-0.148475,-9.105331,28.337513,-36.966194,13.041088,1.1055692,-0.89197403,2.2608666,0.084190056,-0.06625307,-0.22510353
20231225 03:27:34,-0.433247,-0.515820,1.618056,0.316773,-0.070183,-0.084554,-9.026070,28.058838,-36.813255,12.849678,0.7101004,-0.5608278,1.5789918,0.19131227,-0.060275722,-0.2536996
20231225 03:27:34,-0.307434,-0.264890,0.808135,0.367910,-0.043549,-0.021698,-9.026070,28.058838,-36.813255,11.856068,0.33744547,-0.27651963,0.82411957,0.2518813,-0.039338686,-0.26265046
20231225 03:27:34,-0.059789,-0.076696,0.191744,0.361518,-0.009458,0.024112,-8.895203,27.600197,-37.049965,10.163811,0.09767458,-0.073534764,0.18215452,0.26517972,-0.013471291,-0.24587637
20231225 03:27:34,0.064820,-0.038062,-0.307303,0.306119,0.027829,0.058203,-8.971897,28.437065,-36.569450,9.181796,-0.1865681,-0.04886335,-0.246661,0.24841353,0.021401634,-0.1926158
20231225 03:27:34,0.189161,-0.083560,-0.532369,0.224088,0.057659,0.075249,-8.991245,27.113171,-36.349266,8.488466,-0.2762509,-0.1148067,-0.4824784,0.20736663,0.052030616,-0.12409211
20231225 03:27:34,0.271292,-0.182988,-0.456792,0.145252,0.087488,0.077379,-9.070126,27.199963,-36.221748,8.393749,-0.15859483,-0.21626739,-0.48800337,0.15952945,0.08458332,-0.063174784
20231225 03:27:34,0.319168,-0.334659,-0.238459,0.091984,0.105599,0.069922,-8.938488,26.357540,-35.897499,8.472208,0.0381449,-0.35919785,-0.35852128,0.11905229,0.10445637,-0.028173428
20231225 03:27:34,0.289702,-0.494752,0.035742,0.062155,0.114122,0.065660,-8.920944,26.739471,-36.190208,8.803094,0.21512131,-0.5041703,-0.12009114,0.0945813,0.11397611,-0.008716244
20231225 03:27:34,0.227413,-0.645458,0.261908,0.048305,0.117318,0.069922,-8.851418,26.749550,-36.592079,9.126348,0.3245687,-0.6443844,0.11293675,0.086385146,0.117721386,0.0046197996
20231225 03:27:34,0.219973,-0.730730,0.410465,0.058959,0.116253,0.078445,-8.788662,27.414684,-36.634880,8.685296,0.4119622,-0.7241503,0.23880637,0.10012564,0.11652086,0.0055360757
20231225 03:27:34,0.276557,-0.833549,0.444954,0.084527,0.127972,0.083771,-8.691853,27.517937,-36.774620,7.977348,0.4664787,-0.8263152,0.2331573,0.12407478,0.1272252,-0.007224459
20231225 03:27:34,0.335864,-0.899734,0.383408,0.117553,0.142886,0.085902,-8.931450,27.412003,-37.305962,7.973182,0.46482795,-0.8973737,0.15296105,0.15119946,0.14049684,-0.029545791
20231225 03:27:34,0.372131,-0.898585,0.247835,0.144187,0.154605,0.080575,-8.534092,27.344357,-37.029671,7.209942,0.39637786,-0.904087,0.013668433,0.16838886,0.15030932,-0.052595112
20231225 03:27:34,0.443061,-0.851135,0.064035,0.153775,0.157801,0.065660,-9.037220,27.213741,-37.160118,7.4603486,0.316603,-0.87070876,-0.18047947,0.16520967,0.15194963,-0.07404126
20231225 03:27:34,0.443263,-0.813760,-0.133216,0.144187,0.153540,0.048615,-8.842834,27.036457,-36.878654,7.3009872,0.17392565,-0.8439893,-0.33325976,0.14506467,0.14757724,-0.08145337
20231225 03:27:34,0.456253,-0.758776,-0.249713,0.121814,0.143952,0.030504,-8.463409,26.778770,-36.590126,6.4755697,0.09537244,-0.8005028,-0.43874764,0.11644612,0.13762075,-0.07673661
20231225 03:27:34,0.486596,-0.735908,-0.319743,0.099442,0.129037,0.000674,-8.384911,26.883869,-36.998131,6.223088,0.06261611,-0.78456765,-0.5149256,0.07818996,0.122242086,-0.08060887
20231225 03:27:34,0.463174,-0.697317,-0.388757,0.078135,0.118383,-0.030221,-8.543056,27.249340,-37.023552,6.870491,-0.001655817,-0.74329805,-0.54404885,0.03895793,0.11192023,-0.08703795
20231225 03:27:34,0.403325,-0.657423,-0.439909,0.061089,0.119449,-0.063247,-8.490303,26.493710,-36.571785,7.6536856,-0.075852364,-0.69523937,-0.53254426,0.0014792457,0.113409325,-0.09832103
20231225 03:27:34,0.260010,-0.547373,-0.451360,0.053632,0.126906,-0.084554,-8.772148,26.470871,-36.439125,8.725809,-0.17421183,-0.5724778,-0.4375305,-0.020734113,0.121736586,-0.10923858
20231225 03:27:34,0.111661,-0.394149,-0.475177,0.050436,0.140756,-0.087750,-8.534359,25.634838,-35.980278,10.283193,-0.28403825,-0.40065894,-0.34809908,-0.030132856,0.13922435,-0.11192247
20231225 03:27:34,-0.047367,-0.269876,-0.446461,0.049371,0.151409,-0.077096,-8.208836,26.708439,-36.984917,10.977155,-0.36294556,-0.26508623,-0.22040832,-0.026933534,0.15280886,-0.106162205
20231225 03:27:34,-0.153867,-0.176827,-0.401179,0.049371,0.151409,-0.050463,-8.605808,26.584202,-36.980766,11.332842,-0.40072417,-0.17434819,-0.122452065,-0.006472748,0.15227367,-0.089482
20231225 03:27:34,-0.035241,-0.174997,-0.367839,0.053632,0.136494,-0.032352,-8.569950,26.964279,-37.005211,10.359816,-0.30156988,-0.17652905,-0.19008793,0.011377871,0.13613255,-0.07745693
20231225 03:27:34,0.133558,-0.139784,-0.506508,0.042978,0.123710,-0.024894,-8.103062,26.906704,-37.130775,8.761359,-0.30337328,-0.15282558,-0.41144568,0.011360291,0.12236833,-0.06087131
20231225 03:27:34,0.264960,-0.137108,-0.691382,0.013149,0.116253,-0.025960,-7.839142,26.739506,-37.251198,7.390741,-0.3712448,-0.17200328,-0.62845016,-0.007225003,0.11469,-0.035973243
20231225 03:27:34,0.338500,-0.058057,-0.727655,-0.033727,0.111991,-0.036613,-8.024563,27.011803,-37.538765,7.3965697,-0.35141408,-0.0990714,-0.7137269,-0.04506539,0.111462556,-0.0059344396
20231225 03:27:34,0.373950,-0.028624,-0.707630,-0.076341,0.114122,-0.045136,-8.394642,27.172626,-37.552956,7.9746327,-0.30472142,-0.06749662,-0.73333424,-0.07914354,0.11468612,0.01990518
20231225 03:27:34,0.296015,-0.020655,-0.446383,-0.097647,0.132233,-0.060051,-7.706474,27.222836,-37.415413,8.135791,-0.14711986,-0.036080174,-0.5102817,-0.10616916,0.13269511,0.023400705
20231225 03:27:34,0.174894,0.069747,-0.234870,-0.102974,0.141821,-0.073900,-8.042492,26.821766,-37.526543,9.646611,-0.058752686,0.06787713,-0.2923746,-0.12299165,0.14190339,0.012645006
20231225 03:27:34,0.058216,0.202818,0.038450,-0.076341,0.155671,-0.085619,-7.936337,26.828148,-37.391945,10.627011,0.064948514,0.20296212,-0.043080214,-0.116651684,0.15586352,-0.01852123
20231225 03:27:34,-0.154556,0.402724,0.186774,-0.024138,0.168455,-0.094142,-8.120991,26.716667,-37.118553,12.710898,0.019848198,0.38861147,0.17767707,-0.09327865,0.1712162,-0.067641646
20231225 03:27:34,-0.427750,0.634210,0.181158,0.046175,0.189762,-0.080292,-7.811481,26.640789,-36.708611,14.71371,-0.1913578,0.58650476,0.33491895,-0.046231467,0.19836439,-0.11673142
20231225 03:27:34,-0.721718,0.853253,0.042028,0.106899,0.212134,-0.033417,-7.953495,26.254330,-36.818764,16.505033,-0.5151286,0.77657205,0.43324235,0.01855167,0.22311202,-0.14117044
20231225 03:27:34,-0.814416,0.922266,-0.176454,0.138860,0.212134,0.029439,-7.574837,26.380421,-37.091164,16.40309,-0.7471514,0.8579,0.3776327,0.08342019,0.21904634,-0.12894827
20231225 03:27:34,-0.706164,0.846029,-0.483465,0.137794,0.197219,0.092294,-7.672417,26.660946,-37.512367,15.373518,-0.89326066,0.8344796,0.15036684,0.13592353,0.19675395,-0.08817822
20231225 03:27:34,-0.400445,0.691576,-0.740102,0.109030,0.179108,0.137039,-7.857452,26.741356,-37.519447,12.5097275,-0.8663695,0.712162,-0.1933423,0.16600636,0.17598315,-0.031689197
20231225 03:27:34,-0.011130,0.511103,-0.953270,0.057893,0.157801,0.151954,-7.567410,27.242992,-38.219154,9.129309,-0.77794516,0.5106091,-0.59118754,0.15707953,0.15785874,0.026519042
20231225 03:27:34,0.349263,0.284435,-1.050313,-0.001766,0.151409,0.134908,-7.724789,27.224686,-37.683647,6.575216,-0.6218616,0.21926002,-0.92007446,0.11475901,0.15785377,0.07072722
20231225 03:27:34,0.604982,0.093201,-1.017356,-0.046511,0.157801,0.094425,-7.400299,26.972538,-38.199837,5.3439965,-0.42392203,0.0014707968,-1.1045724,0.055494137,0.1653494,0.08539535
20231225 03:27:34,0.632110,0.007982,-0.891832,-0.069948,0.178043,0.043288,-7.336781,27.253902,-37.681694,5.9306927,-0.29941756,-0.06337799,-1.0483118,-8.9528784E-4,0.18272905,0.07002059
20231225 03:27:34,0.482630,0.057789,-0.604931,-0.057164,0.202546,-0.005718,-7.187599,26.793415,-37.650154,7.573908,-0.16224709,0.036496837,-0.75784487,-0.036250096,0.2033409,0.023835912
20231225 03:27:34,0.199653,0.237833,-0.467984,-0.026269,0.212134,-0.034482,-7.427193,26.687481,-38.181496,10.646199,-0.24451225,0.25402454,-0.4719576,-0.048818566,0.21236002,-0.025493862
20231225 03:27:34,-0.197944,0.448894,-0.491650,0.005691,0.202546,-0.028090,-7.020489,26.522964,-37.630836,13.739606,-0.5458053,0.4751526,-0.20208159,-0.035885196,0.20413522,-0.05074718
20231225 03:27:34,-0.536716,0.659854,-0.603922,0.023802,0.191893,0.023046,-7.372639,26.873825,-37.657249,15.52822,-0.87379515,0.67664695,-0.019051492,0.011020934,0.18941392,-0.036475707
20231225 03:27:34,-0.563885,0.816558,-0.791375,0.028064,0.176978,0.082706,-7.133041,26.979752,-37.125893,14.764393,-1.0519636,0.85126483,-0.09808305,0.06469756,0.16891573,-0.0029178746
20231225 03:27:34,-0.347516,0.800560,-1.114525,0.017410,0.171651,0.131712,-7.311302,26.405106,-37.492073,13.030229,-1.1727242,0.8598536,-0.41507626,0.10667048,0.16256946,0.03534712
20231225 03:27:34,-0.056196,0.761674,-1.304183,-0.014550,0.171651,0.159411,-7.039185,26.716702,-38.179543,9.494633,-1.1360204,0.7818874,-0.722601,0.12292916,0.16890799,0.08247337
20231225 03:27:34,0.292503,0.641562,-1.383645,-0.062491,0.166324,0.155150,-6.888588,27.390072,-38.355980,6.8173566,-0.97117245,0.598998,-1.0477856,0.09880025,0.17150332,0.12650311
20231225 03:27:34,0.516326,0.572573,-1.303734,-0.096582,0.164193,0.128516,-6.924450,27.009991,-38.331535,5.688761,-0.7669747,0.49240363,-1.1822255,0.06079136,0.17319593,0.14234045
20231225 03:27:34,0.617771,0.697150,-1.204694,-0.123216,0.173782,0.093359,-6.773846,27.683357,-38.507957,4.8788753,-0.60881513,0.6017817,-1.2175852,0.018106427,0.18356134,0.14589614
20231225 03:27:34,0.576107,0.863779,-1.059922,-0.141327,0.169520,0.056072,-6.358944,27.997631,-38.524345,5.3981495,-0.5147829,0.80569226,-1.1170704,-0.026886139,0.17532682,0.1391665
20231225 03:27:34,0.440833,0.983397,-0.892896,-0.154111,0.152475,0.039027,-6.924450,27.009991,-38.331535,7.8484635,-0.4693028,0.9717399,-0.94529694,-0.05491031,0.15388077,0.13649613
20231225 03:27:34,0.291143,1.065221,-0.684051,-0.162634,0.124776,0.048615,-6.703934,27.501549,-38.629356,8.074892,-0.38611713,1.0656542,-0.7189702,-0.055487543,0.1246953,0.14993073
20231225 03:27:34,0.322781,1.156860,-0.469160,-0.163699,0.080031,0.075249,-6.649761,27.879780,-38.385582,6.899611,-0.16251965,1.1433004,-0.61967057,-0.03569808,0.08368707,0.17023185
20231225 03:27:34,0.410806,1.148762,-0.388275,-0.164764,0.029960,0.096556,-6.473686,27.704346,-38.372368,5.0499063,-0.0032018423,1.1138899,-0.6230625,-0.022630386,0.040331416,0.18763493
20231225 03:27:34,0.614203,1.009861,-0.086550,-0.160503,-0.043549,0.100817,-7.410034,27.261299,-38.754677,6.454311,0.3563952,0.9850092,-0.6046601,-0.023084417,-0.0341676,0.19100298
20231225 03:27:34,0.663686,1.041523,-0.047663,-0.150915,-0.092555,0.112536,-6.870659,27.580109,-38.368217,4.3599715,0.44831914,0.9996783,-0.5958045,-0.0137048215,-0.07690594,0.19232902
20231225 03:27:34,0.893204,1.088972,0.049276,-0.130673,-0.140496,0.101882,-6.967087,27.284973,-37.947990,3.1129458,0.69996274,1.0211989,-0.69796026,-0.016810171,-0.12099806,0.17038605
20231225 03:27:34,1.005577,1.041811,0.023063,-0.108301,-0.169261,0.077379,-6.977200,27.765617,-38.783302,2.7385368,0.7490624,0.9607134,-0.7967114,-0.024464726,-0.1527252,0.13789049
20231225 03:27:34,1.019916,0.990876,0.039177,-0.083798,-0.176718,0.051811,-7.365208,27.736397,-38.785255,2.723258,0.77539766,0.9028866,-0.7941409,-0.031027623,-0.16318038,0.10294171
20231225 03:27:34,1.031534,0.902704,-0.052876,-0.061426,-0.152215,0.012393,-6.712246,28.924160,-39.392159,2.0685892,0.7023875,0.8092938,-0.8499925,-0.04416509,-0.14500913,0.058757212
20231225 03:27:34,0.873302,0.863393,-0.013809,-0.026269,-0.120254,-0.033417,-7.515541,28.772556,-39.658211,4.5312333,0.60767895,0.80852497,-0.7239087,-0.05072964,-0.120566964,0.004974637
20231225 03:27:34,0.754576,0.801023,-0.057889,0.017410,-0.059530,-0.083488,-7.038918,28.426220,-39.228951,6.284736,0.46253768,0.7777207,-0.6742292,-0.055187777,-0.062715985,-0.062126543
20231225 03:27:34,0.242750,1.011531,0.049197,0.070678,-0.027569,-0.110122,-7.508381,27.925602,-39.736824,9.150578,0.18552479,1.0123402,-0.2592206,-0.040755074,-0.026622014,-0.12064324
20231225 03:27:34,-0.013920,1.288019,-0.014192,0.126076,0.002261,-0.117579,-7.524506,28.677536,-39.652092,10.843103,-0.0663125,1.2868313,-0.14299437,-0.018093124,0.009948447,-0.17043442
20231225 03:27:34,-0.164894,1.644043,-0.226575,0.154840,0.039548,-0.112253,-7.666138,28.099186,-39.481773,11.869977,-0.3630334,1.6465279,-0.18601398,-0.004984647,0.05063982,-0.19451132
20231225 03:27:34,-0.270859,2.124903,-0.322541,0.127141,0.039548,-0.100534,-7.551018,28.200588,-39.353279,12.7642565,-0.5657482,2.127557,-0.20441815,-0.016622111,0.052266866,-0.16490227
20231225 03:27:34,-0.440100,2.301287,-0.440334,0.050436,0.031025,-0.071770,-8.150959,27.966717,-39.343987,14.867985,-0.8245394,2.3014457,-0.18050854,-0.035562344,0.040721126,-0.08428431
20231225 03:27:34,-0.502897,2.375745,-0.471415,-0.029465,0.045940,-0.028090,-7.878456,28.086426,-39.750999,14.193098,-0.88055,2.3732476,-0.17363891,-0.04375261,0.046369974,0.002508333
20231225 03:27:34,-0.464349,2.092358,0.103488,-0.073144,0.093880,-0.003587,-7.402603,28.123875,-39.882668,12.890063,-0.35384196,2.050282,0.14250252,-0.054423388,0.08966358,0.042799223
20231225 03:27:34,-0.503673,1.635526,0.738679,-0.073144,0.136494,-0.021698,-8.056332,27.319893,-39.836693,14.627316,0.08679491,1.5304159,0.5775074,-0.0755337,0.13225426,0.018329192
20231225 03:27:34,-0.768239,1.270278,1.181558,-0.045445,0.172716,-0.041940,-7.984234,27.888157,-39.605141,15.9088745,0.16059941,1.0706028,1.1005205,-0.07813976,0.17075747,-0.029972585
20231225 03:27:34,-1.063940,0.791158,1.767428,0.033390,0.205742,-0.048332,-7.392487,27.643227,-39.047371,17.104616,0.29751897,0.4390639,1.7929215,-0.031360373,0.21252489,-0.10128884
20231225 03:27:34,-1.395677,0.443333,1.937735,0.147383,0.252617,0.006001,-7.931477,27.132530,-39.153374,19.149755,0.118104815,-0.02145274,2.187733,0.083521344,0.26893535,-0.15447669
20231225 03:27:34,-1.397939,-0.028935,1.963492,0.214500,0.279251,0.048615,-7.694839,26.872166,-39.535942,18.69384,0.12379074,-0.4660064,2.3326232,0.1639904,0.30000043,-0.1683638
20231225 03:27:34,-1.214718,-0.461171,1.709740,0.399870,0.319734,0.161542,-7.404793,27.373798,-40.235649,16.82043,0.1739794,-0.7802906,2.1392612,0.3780113,0.3489228,-0.2049122
20231225 03:27:35,-0.813894,-0.684490,1.280591,0.472314,0.299493,0.209482,-7.405178,27.565685,-40.516121,14.786747,0.25206184,-0.8548003,1.6045352,0.4715919,0.32460812,-0.20846121
20231225 03:27:35,-0.438245,-0.903923,0.820991,0.490425,0.246225,0.227593,-7.580868,27.549225,-40.248848,13.080916,0.2743124,-0.97360826,1.0387415,0.50210685,0.26291564,-0.20594604
20231225 03:27:35,-0.108555,-0.967398,0.219416,0.446745,0.201481,0.227593,-7.325912,27.287006,-40.363182,10.355761,0.10177354,-0.9747824,0.352338,0.47183996,0.20667593,-0.18321997
20231225 03:27:35,0.274679,-0.873952,-0.279648,0.356191,0.157801,0.216940,-7.194279,26.444595,-40.038933,8.304625,-0.027081937,-0.8765378,-0.30458996,0.40070823,0.15727623,-0.13510151
20231225 03:27:35,0.399682,-0.864733,-0.754073,0.214500,0.157801,0.204156,-7.176731,26.826519,-40.331642,7.0574703,-0.32964796,-0.8892003,-0.7219383,0.29817995,0.15816806,-0.04288952
20231225 03:27:35,0.516119,-0.938978,-0.820055,0.045109,0.175912,0.194568,-6.860058,25.903694,-40.000298,6.235322,-0.2959898,-0.97847944,-0.86020577,0.18048407,0.18060815,0.082613274
20231225 03:27:35,0.579074,-1.090339,-0.461051,-0.120020,0.178043,0.181783,-7.176346,26.634632,-40.051155,7.0993953,0.06733987,-1.1135821,-0.63558924,0.045200236,0.18483467,0.19715798
20231225 03:27:35,0.398932,-1.357859,0.188972,-0.188202,0.172716,0.171130,-7.045097,25.984108,-40.007393,9.036106,0.43142432,-1.3568705,0.04853022,-0.034146667,0.1713689,0.22978872
20231225 03:27:35,0.101999,-1.603581,0.973141,-0.302194,0.133298,0.170065,-7.266380,25.876324,-40.270500,11.268544,0.68613684,-1.6212387,0.9706115,-0.1495102,0.11976604,0.29050964
20231225 03:27:35,-0.161549,-1.876568,1.512493,-0.309652,0.085358,0.195633,-7.399818,25.776775,-40.667244,12.374924,0.77851176,-1.9285394,1.6422696,-0.14788863,0.06488905,0.31748652
20231225 03:27:35,-0.221736,-2.098941,1.971860,-0.295802,0.052332,0.209482,-7.063797,26.177841,-40.556099,11.80397,0.885186,-2.1555204,2.1322374,-0.14566822,0.034654893,0.31960154
20231225 03:27:35,-0.134877,-2.213933,2.041492,-0.199921,-0.048876,0.225463,-7.443222,26.435532,-40.844643,11.501243,0.97348005,-2.2531154,2.163429,-0.05465208,-0.058836177,0.3006612
20231225 03:27:35,0.010431,-2.285599,1.712348,-0.115758,-0.047811,0.212678,-7.365879,27.116295,-42.094048,10.287435,0.94216526,-2.303261,1.7681451,0.015300378,-0.052049607,0.2460256
20231225 03:27:35,0.138775,-2.121035,1.323198,-0.041184,0.001195,0.174326,-7.011543,27.515514,-41.714668,9.042467,0.8696994,-2.126118,1.2770337,0.06415079,1.1458667E-4,0.16529459
20231225 03:27:35,0.111250,-1.875212,1.028688,0.007822,0.076835,0.121058,-7.505325,27.288025,-41.570747,10.68426,0.73709583,-1.8904747,1.0239704,0.07704617,0.0747672,0.07937749
20231225 03:27:35,-0.199542,-1.493937,0.965132,0.021672,0.116253,0.081641,-7.187614,27.690945,-41.727882,12.602646,0.5122529,-1.5498977,1.1200209,0.06152783,0.11317407,0.02929981
20231225 03:27:35,-0.591205,-1.169092,0.964603,0.023802,0.122645,0.069922,-7.223862,27.502754,-41.983879,15.15814,0.24882531,-1.3009884,1.3309042,0.052020177,0.11809405,0.012258846
20231225 03:27:35,-0.969687,-0.842854,0.940312,0.028064,0.116253,0.096556,-7.499699,27.208633,-42.771263,17.479137,-0.030509531,-1.0663218,1.5041718,0.070087954,0.10708814,0.02486442
20231225 03:27:35,-1.204270,-0.599155,0.863856,0.035521,0.119449,0.157280,-7.284428,27.587692,-41.588112,18.091755,-0.25222516,-0.8762869,1.5539253,0.11380267,0.10172763,0.05994787
20231225 03:27:35,-1.239413,-0.464319,0.797836,0.045109,0.127972,0.233985,-6.711380,27.536499,-41.579079,16.95348,-0.32000852,-0.7271991,1.5009884,0.17288162,0.102273494,0.10641481
20231225 03:27:35,-1.109974,-0.414196,0.591531,0.047240,0.142886,0.307494,-6.879528,26.481209,-41.109962,16.124498,-0.3523364,-0.6040422,1.2610378,0.22798876,0.11224575,0.15212257
20231225 03:27:35,-0.774302,-0.433487,0.471663,0.032325,0.162063,0.363958,-6.916534,26.676796,-41.926918,13.562066,-0.1954861,-0.5282124,0.94131446,0.26280496,0.13570103,0.20400022
20231225 03:27:35,-0.360747,-0.542390,0.355531,0.000365,0.167389,0.379938,-6.828693,26.685024,-42.060555,10.724972,0.008294895,-0.5692329,0.5744199,0.25775984,0.1527271,0.24558975
20231225 03:27:35,-0.022276,-0.641468,0.313666,-0.037988,0.183370,0.358631,-6.599979,27.655380,-42.925453,8.215702,0.20547633,-0.6444126,0.30697924,0.21769887,0.17980877,0.2645857
20231225 03:27:35,0.160784,-0.730648,0.450951,-0.064622,0.202546,0.313886,-6.511368,27.279831,-42.498146,7.395289,0.42043817,-0.72987133,0.2919488,0.16411272,0.20362473,0.25438923
20231225 03:27:35,0.154480,-0.763178,0.708314,-0.062491,0.214265,0.261684,-6.723682,27.267071,-42.767357,8.060878,0.5856785,-0.76459366,0.50516146,0.1252473,0.21337448,0.2132994
20231225 03:27:35,0.107319,-0.779356,0.805442,-0.035857,0.224918,0.211613,-6.502018,27.182961,-42.223778,7.7730713,0.6090723,-0.78013897,0.6129799,0.11108844,0.22462657,0.15901262
20231225 03:27:35,0.088091,-0.785489,0.928529,0.006757,0.220657,0.164738,-6.334522,26.720627,-41.923988,8.236753,0.6810966,-0.792575,0.7221773,0.1110155,0.2192795,0.09494025
20231225 03:27:35,-0.016487,-0.763561,0.829942,0.057893,0.215330,0.124255,-6.291504,26.253757,-42.027061,8.814939,0.55270606,-0.7776685,0.71051186,0.12222829,0.21425706,0.028499208
20231225 03:27:35,-0.085232,-0.663625,0.696925,0.100507,0.192958,0.099752,-6.122589,26.925274,-41.935234,9.056854,0.42724857,-0.682922,0.6395569,0.13664475,0.193047,-0.01829242
20231225 03:27:35,-0.098711,-0.599840,0.468991,0.121814,0.160997,0.081641,-5.858673,26.758072,-42.055672,8.672499,0.27174413,-0.6138424,0.4655587,0.14010477,0.1619838,-0.04466204
20231225 03:27:35,-0.072750,-0.537280,0.147103,0.118618,0.125841,0.074183,-6.220551,27.397694,-42.636909,8.606883,0.06593465,-0.5417073,0.2097976,0.13321748,0.12667409,-0.046828605
20231225 03:27:35,-0.010234,-0.531607,-0.093372,0.094115,0.103469,0.065660,-5.930122,27.707436,-43.056145,7.5345497,-0.068289414,-0.5305332,-0.008358512,0.111213684,0.1037418,-0.03259751
20231225 03:27:35,0.018023,-0.514548,-0.148782,0.079200,0.096011,0.059268,-5.808605,27.345669,-43.567207,7.5717983,-0.08792281,-0.51200247,-0.06792565,0.096089475,0.09622521,-0.025712896
20231225 03:27:35,0.035733,-0.525594,-0.141430,0.038717,0.060855,0.034765,-6.097614,28.169773,-43.355934,7.407136,-0.073772304,-0.5240664,-0.07575975,0.05134029,0.060866,-0.009850893
20231225 03:27:35,0.121595,-0.510933,-0.129279,0.021672,0.042744,0.007066,-5.613831,26.976501,-43.005287,7.1965356,-0.0036357194,-0.50816447,-0.13226348,0.019620087,0.04288966,-0.014507533
20231225 03:27:35,0.028027,-0.443958,0.006402,0.016345,0.001195,-0.025960,-5.878521,27.527477,-43.445808,8.235263,0.034351572,-0.44325194,0.027850572,-0.0075782845,0.0021671352,-0.029663887
20231225 03:27:35,-0.070502,-0.403171,-0.061848,0.019541,-0.019046,-0.053659,-5.606022,27.647186,-43.852821,7.9768047,-0.083240114,-0.40304384,0.04773463,-0.025209174,-0.017233292,-0.048825566
20231225 03:27:35,-0.127026,-0.303368,-0.074154,0.051501,-0.007328,-0.069639,-5.429562,27.279865,-43.559135,8.862769,-0.12820308,-0.30465445,0.075368345,-0.015880622,-0.0025462136,-0.0837449
20231225 03:27:35,-0.238665,-0.230031,-0.074253,0.093050,0.018241,-0.072835,-5.579128,27.932247,-43.871162,9.640294,-0.20368816,-0.23689754,0.15290639,0.008115128,0.02636233,-0.119194046
20231225 03:27:35,-0.272004,-0.135716,-0.087975,0.129272,0.029960,-0.060051,-5.949471,26.383545,-42.835960,10.426596,-0.23951401,-0.14375672,0.1612757,0.040017065,0.03936703,-0.1393145
20231225 03:27:35,-0.239061,-0.168169,-0.113468,0.152709,0.016110,-0.044070,-5.616409,26.418312,-43.638741,9.548376,-0.23536742,-0.17252861,0.12304379,0.06770286,0.024630807,-0.14483753
20231225 03:27:35,-0.207914,-0.151382,-0.177081,0.149513,-0.002001,-0.034482,-5.976753,26.290371,-43.098076,8.929258,-0.26548007,-0.15145177,0.05566281,0.07317431,0.0032268898,-0.13443004
20231225 03:27:35,0.020441,-0.288444,-0.290311,0.123945,-0.052072,-0.024894,-6.223507,27.031391,-43.550819,7.677749,-0.20084336,-0.28534797,-0.18054144,0.06408336,-0.050726455,-0.104516834
20231225 03:27:35,0.181544,-0.396631,-0.325844,0.063220,-0.128777,-0.039809,-5.669926,27.557716,-44.651436,5.766309,-0.12269296,-0.400315,-0.32542157,0.01194795,-0.12950394,-0.06476524
20231225 03:27:35,0.255133,-0.477096,-0.287355,0.042978,-0.154346,-0.050463,-5.905804,27.434307,-43.707939,5.4083447,-0.04830526,-0.4865187,-0.35099274,-0.0110120885,-0.15594782,-0.055799868
20231225 03:27:35,0.386579,-0.622855,-0.315579,-0.023073,-0.227855,-0.086684,-6.233624,27.512035,-44.386116,5.156798,0.015865773,-0.64018893,-0.45901275,-0.085143566,-0.22942205,-0.02793949
20231225 03:27:35,0.381829,-0.616564,-0.193307,-0.060360,-0.257684,-0.111187,-6.003380,27.714832,-44.129128,5.1707106,0.107940435,-0.6287241,-0.37159216,-0.12802538,-0.25877842,-0.016229298
20231225 03:27:35,0.362693,-0.585029,-0.128521,-0.072079,-0.270469,-0.123972,-5.880444,28.486923,-44.848152,5.2677784,0.14859974,-0.59306103,-0.3129807,-0.14395541,-0.271332,-0.016354673
20231225 03:27:35,0.303397,-0.621593,0.040457,-0.065687,-0.283253,-0.155932,-6.558495,27.956066,-44.150398,7.497228,0.24259502,-0.6208976,-0.13237853,-0.15668926,-0.28300282,-0.03519477
20231225 03:27:35,0.019027,-0.454758,0.123415,0.025933,-0.265142,-0.213461,-6.197384,27.700222,-44.130104,8.913658,0.116339564,-0.45750687,0.117918134,-0.12977847,-0.25788096,-0.1352027
20231225 03:27:35,-0.120561,-0.344843,0.040295,0.066416,-0.239574,-0.230506,-6.851494,27.088127,-44.364601,10.927398,-0.034628212,-0.35143673,0.15978947,-0.113508195,-0.22480294,-0.17095946
20231225 03:27:35,-0.722214,-0.042587,-0.185488,0.137794,-0.205482,-0.248617,-6.815636,27.468208,-44.389046,15.944542,-0.60323226,-0.09850437,0.43983984,-0.069466196,-0.15460359,-0.2234632
20231225 03:27:35,-0.934031,0.059947,-0.251132,0.178278,-0.198025,-0.234768,-7.125801,26.026455,-44.030098,18.08024,-0.7896338,-0.021400113,0.5621532,-0.03463933,-0.13410327,-0.24035053
20231225 03:27:35,-1.129632,0.290916,-0.517214,0.175082,-0.224659,-0.175108,-7.141544,26.586494,-43.664894,18.33861,-1.1453574,0.22228232,0.5246954,0.011434495,-0.16784798,-0.19658425
20231225 03:27:35,-1.112306,0.301766,-0.546183,0.166559,-0.238508,-0.153801,-7.204300,25.921360,-43.622093,18.256178,-1.1527876,0.24423227,0.50351864,0.021653846,-0.18765728,-0.17535263
20231225 03:27:35,-0.878251,0.333646,-0.809504,0.145252,-0.251292,-0.113318,-7.214027,26.210117,-44.176918,16.262888,-1.207617,0.35151392,0.1951353,0.02939827,-0.21818982,-0.13992377
20231225 03:27:35,-0.785899,0.328958,-0.887435,0.127141,-0.233181,-0.080292,-7.612537,26.853432,-45.294640,15.343798,-1.2102633,0.3630792,0.08708319,0.03698027,-0.21072021,-0.11237982
20231225 03:27:35,-0.588244,0.256610,-0.969280,0.105834,-0.195894,-0.067508,-7.338886,26.397476,-44.860237,14.2064295,-1.1503379,0.31000784,-0.1059508,0.02702279,-0.17987186,-0.09613903
20231225 03:27:35,-0.546123,0.278100,-0.969063,0.093050,-0.177783,-0.077096,-7.354630,26.957516,-44.495064,14.50383,-1.1287076,0.33739913,-0.14280131,0.011022467,-0.16089714,-0.093184605
20231225 03:27:35,-0.586569,0.286776,-0.954957,0.074939,-0.169261,-0.089880,-7.330688,26.876274,-45.427315,14.630391,-1.1418767,0.34240073,-0.1088694,-0.009628251,-0.15187104,-0.08663126
20231225 03:27:35,-0.618221,0.257084,-0.910991,0.064285,-0.169261,-0.094142,-7.594227,26.851582,-45.026405,14.6787405,-1.1206392,0.30217284,-0.06659496,-0.019079112,-0.1530364,-0.080334365
20231225 03:27:35,-0.576571,0.191983,-0.728182,0.009953,-0.195894,-0.098403,-7.409569,26.963062,-45.299782,14.311544,-0.9433141,0.22007081,0.0061168373,-0.052035607,-0.18357828,-0.036227543
20231225 03:27:35,-0.604784,0.224976,-0.672011,-0.031596,-0.225724,-0.088815,-7.666710,26.475204,-45.538445,13.469664,-0.91756773,0.23936817,0.036444277,-0.07073915,-0.21940063,0.0038183108
20231225 03:27:35,-0.488447,0.118272,-0.471380,-0.055034,-0.249162,-0.084554,-7.251041,26.405704,-44.993889,12.004808,-0.6798469,0.12269339,0.07469848,-0.084537685,-0.24584207,0.023399316
20231225 03:27:35,-0.213836,-0.092338,-0.286912,-0.088059,-0.288580,-0.090946,-7.515728,26.956684,-45.434395,10.811837,-0.35323882,-0.087869965,-0.0058754236,-0.11455208,-0.28748924,0.044913962
20231225 03:27:35,-0.100136,-0.103427,-0.314216,-0.100844,-0.304560,-0.107991,-8.275616,26.146317,-45.523033,9.9512415,-0.3036715,-0.100419715,-0.11078147,-0.1435769,-0.30421233,0.04269419
20231225 03:27:35,-0.026060,-0.048154,-0.254810,-0.076341,-0.272599,-0.165520,-7.948177,26.260475,-45.125313,10.410623,-0.21177551,-0.042223945,-0.1339015,-0.16927935,-0.26985818,-0.013401769
20231225 03:27:35,-0.209447,0.145478,-0.250035,-0.051838,-0.247031,-0.201742,-8.211712,26.235790,-44.724403,12.394033,-0.33319217,0.14934042,-0.009946093,-0.17646511,-0.23823377,-0.05009038
20231225 03:27:35,-0.324560,0.274261,-0.252333,-0.042249,-0.238508,-0.218788,-8.317486,26.037518,-44.578545,14.925141,-0.42164314,0.27263308,0.06499709,-0.17621218,-0.21998833,-0.05812548
20231225 03:27:35,-0.608423,0.553583,-0.331608,-0.034792,-0.231051,-0.233702,-8.397518,26.699974,-45.292427,16.068748,-0.69055676,0.53382784,0.20154342,-0.17978236,-0.20551324,-0.06895331
20231225 03:27:35,-0.891510,0.811751,-0.416527,-0.048641,-0.238508,-0.231572,-8.255886,27.278324,-45.462761,17.93308,-0.9766149,0.76321805,0.34028998,-0.17711361,-0.20521747,-0.04714027
20231225 03:27:35,-1.067237,0.967167,-0.474123,-0.081667,-0.251292,-0.214526,-8.414028,27.643791,-45.488182,18.847744,-1.1574517,0.8998031,0.4236666,-0.17729296,-0.22066998,-0.004644297
20231225 03:27:35,-1.139642,1.109508,-0.453713,-0.120020,-0.263011,-0.188958,-8.874519,27.238194,-46.002174,19.498976,-1.2072339,1.0267494,0.46501464,-0.17665471,-0.24032478,0.045324355
20231225 03:27:35,-1.099502,1.198785,-0.404921,-0.143457,-0.253423,-0.166585,-8.546314,26.968571,-45.043510,18.997807,-1.1578264,1.1126622,0.4385429,-0.17573807,-0.23832113,0.07236021
20231225 03:27:35,-1.095833,1.260251,-0.221220,-0.137065,-0.215070,-0.143148,-8.811386,27.711445,-45.764488,18.698315,-1.0188571,1.1472361,0.5160616,-0.16164434,-0.20477372,0.07055468
20231225 03:27:35,-1.079315,1.284735,-0.089482,-0.097647,-0.161803,-0.115449,-8.777328,27.149551,-45.861458,18.453932,-0.9072937,1.1570888,0.56723225,-0.1256741,-0.15289792,0.04301098
20231225 03:27:35,-1.035211,1.251320,-0.007230,-0.044380,-0.121320,-0.087750,-8.644276,27.440990,-45.745171,17.819435,-0.8072893,1.123784,0.5858926,-0.07882234,-0.112019196,0.007083658
