Timestamp,linacce_x,linacce_y,linacce_z,gyro_x,gyro_y,gyro_z,X-magnetometer,Y-magnetometer,Z-magnetometer,Yaw, worldXAccel,worldYAccel,worldZAccel,worldXgyro,worldYgyro,worldZgyro
20231225 03:28:01,0.013108,0.468339,-0.550735,0.053632,-0.071248,-0.415877,-5.096775,29.428741,-32.040611,7.034979,-0.3916389,0.471715,-0.4270359,-0.26294264,-0.06843273,-0.31808403
20231225 03:28:01,-0.199072,0.316894,-0.433976,0.060024,-0.052072,-0.380720,-5.415634,29.601494,-32.724922,8.968306,-0.458866,0.32438648,-0.19402568,-0.22687048,-0.037512578,-0.3011366
20231225 03:28:01,-0.422854,0.165192,-0.451009,0.074939,-0.027569,-0.343433,-5.157726,29.705574,-31.925331,10.078862,-0.6261189,0.1661211,-0.037121385,-0.1867488,-0.0039868616,-0.28916165
20231225 03:28:01,-0.636563,-0.011098,-0.390796,0.094115,0.003326,-0.298689,-5.469807,29.223267,-32.968727,11.79585,-0.72861326,-0.032315265,0.1608698,-0.13577738,0.033287197,-0.27763408
20231225 03:28:01,-0.790742,-0.228381,-0.385178,0.126076,0.042744,-0.248617,-5.291164,29.606026,-32.322075,12.890371,-0.81873137,-0.27190864,0.29480726,-0.07735935,0.07934683,-0.27090043
20231225 03:28:01,-0.959504,-0.489620,-0.293960,0.164428,0.065116,-0.185762,-5.338173,28.380848,-32.644478,13.706984,-0.86621284,-0.56506115,0.50068104,-0.002611868,0.10186775,-0.25572723
20231225 03:28:01,-0.903800,-0.784413,-0.320343,0.192127,0.054463,-0.143148,-4.983837,28.780067,-32.265099,12.7142725,-0.8268749,-0.8458986,0.47007662,0.052274197,0.08776227,-0.23940763
20231225 03:28:01,-0.713173,-1.014455,-0.273557,0.215565,-0.009458,-0.130364,-5.301929,28.569035,-32.388451,12.062513,-0.65179014,-1.051633,0.40581,0.08665668,0.019290755,-0.23321903
20231225 03:28:01,-0.520051,-1.154675,-0.472540,0.225153,-0.109601,-0.142082,-5.434601,28.085712,-32.224266,11.025453,-0.637368,-1.1581341,0.15191907,0.08580932,-0.086724,-0.2361528
20231225 03:28:01,-0.308023,-1.203184,-0.446477,0.215565,-0.233181,-0.177239,-5.459309,28.550732,-31.852943,9.872457,-0.47805128,-1.1973925,0.026552916,0.055202723,-0.21616994,-0.24317744
20231225 03:28:01,-0.107196,-1.008208,-0.940055,0.203846,-0.302429,-0.226245,-5.451759,27.511894,-31.651100,8.2330065,-0.7161815,-0.99746156,-0.49193332,-0.006152585,-0.296788,-0.2714858
20231225 03:28:01,0.193302,-0.638101,-1.203418,0.167624,-0.325867,-0.279512,-5.821453,27.480824,-31.384804,6.7885914,-0.78552336,-0.6654414,-0.88674366,-0.1046753,-0.33433193,-0.28394383
20231225 03:28:01,0.440876,-0.038862,-1.613783,0.082396,-0.292841,-0.366871,-5.363533,27.328236,-31.504250,4.1718817,-1.0160452,-0.15178867,-1.3238401,-0.25824982,-0.31697133,-0.2742551
20231225 03:28:01,0.590538,0.557158,-1.797204,-0.067818,-0.273665,-0.462752,-5.699940,27.119057,-31.895851,4.5555315,-1.1064205,0.4222969,-1.5284401,-0.43495813,-0.2980877,-0.19374488
20231225 03:28:01,0.464468,0.942183,-1.932220,-0.255319,-0.233181,-0.570352,-6.014042,28.600071,-31.593742,6.8192196,-1.3363838,0.8849361,-1.5018597,-0.6226587,-0.24330746,-0.08187486
20231225 03:28:01,0.188979,1.471091,-1.672865,-0.427905,-0.162868,-0.663038,-6.086529,28.223694,-32.105782,10.435315,-1.343058,1.5469708,-1.225497,-0.7811716,-0.1464462,0.0066904724
20231225 03:28:01,-0.352134,1.857525,-1.176286,-0.560009,-0.062726,-0.738677,-6.077564,28.318714,-32.111900,14.363169,-1.3666258,1.945879,-0.65435046,-0.91310203,-0.02309125,0.042428434
20231225 03:28:01,-0.908702,2.223455,-0.408734,-0.640975,0.032090,-0.799402,-6.162453,28.676785,-31.064339,17.578623,-1.2597843,2.1153064,0.051198393,-1.0148747,0.08116546,0.021650314
20231225 03:28:01,-1.645665,2.600923,0.128502,-0.656955,0.131168,-0.806860,-5.925808,28.416409,-31.446907,21.304134,-1.5915859,2.1059077,0.72558624,-1.040647,0.18509743,-0.013394833
20231225 03:28:01,-2.549286,3.098118,0.676489,-0.638844,0.227049,-0.729089,-6.286541,28.480366,-31.186745,24.530079,-2.1269205,2.0213742,1.4307573,-0.992488,0.25101298,-0.038809806
20231225 03:28:01,-3.291217,3.224246,1.297477,-0.572793,0.252617,-0.571418,-5.977413,28.596371,-31.057259,25.967028,-2.4729948,1.5323284,2.1495368,-0.84660995,0.22750767,-0.037898272
20231225 03:28:01,-3.606418,3.172863,1.524372,-0.513133,0.244095,-0.462752,-6.038364,28.873203,-30.941963,26.515512,-2.634722,1.23113,2.4478424,-0.73223686,0.19576538,-0.025249332
20231225 03:28:01,-3.834056,2.592636,1.747962,-0.225489,0.218526,-0.077096,-6.117626,29.151882,-31.094902,25.908083,-2.5646229,0.6216477,2.863878,-0.27698544,0.14706919,0.025340147
20231225 03:28:01,-3.314505,2.089322,1.480611,0.029129,0.221722,0.162607,-5.641392,28.997440,-30.946129,23.684855,-2.095108,0.5880492,2.5985682,0.06446369,0.17074811,0.025073797
20231225 03:28:01,-2.459464,1.535898,0.824248,0.256048,0.232376,0.340520,-5.438808,29.298962,-31.231743,20.543009,-1.59589,0.7005955,1.8524148,0.3565844,0.20536932,-0.0020709038
20231225 03:28:01,-1.520647,0.898666,0.080093,0.410524,0.223853,0.433205,-5.404366,28.545181,-31.048210,17.3927,-1.180581,0.5983373,0.92993695,0.5497987,0.21454586,-0.04113072
20231225 03:28:01,-0.692840,0.384996,-0.474669,0.497882,0.171651,0.450251,-5.571857,29.007519,-31.348000,13.169509,-0.8583586,0.36143485,0.110342175,0.6502098,0.1736768,-0.07639846
20231225 03:28:01,0.078182,0.025807,-0.997716,0.534104,0.085358,0.402310,-6.005459,28.886978,-31.880333,9.68104,-0.6821909,0.058014877,-0.72571045,0.6547534,0.087941326,-0.13489875
20231225 03:28:01,0.531464,-0.230407,-1.518566,0.513862,-0.013720,0.321344,-5.467888,28.263824,-31.566353,6.272626,-0.81760895,-0.26837307,-1.3658636,0.5772135,-0.015936172,-0.18397108
20231225 03:28:01,0.809765,-0.279993,-2.035628,0.439288,-0.100013,0.243574,-5.838352,28.616531,-31.861015,4.1653233,-1.1309437,-0.4565724,-1.8683414,0.45372504,-0.10599959,-0.19520406
20231225 03:28:01,1.023812,-0.349560,-2.387119,0.323165,-0.180979,0.180718,-5.249176,27.813412,-31.936699,1.6672715,-1.3389904,-0.6614225,-2.2310343,0.31761414,-0.18522999,-0.15056324
20231225 03:28:01,1.104182,-0.336113,-2.709936,0.180408,-0.240639,0.119993,-6.235710,28.684185,-32.137337,1.1890388,-1.6431046,-0.7999193,-2.4274936,0.16645773,-0.23764922,-0.079570234
20231225 03:28:01,1.246481,-0.297805,-2.869595,0.013149,-0.261946,0.069922,-6.288078,29.247921,-32.308617,-0.06893852,-1.7205979,-0.88611865,-2.6152039,0.02239661,-0.24716304,0.02713878
20231225 03:28:01,1.271062,-0.230694,-2.870350,-0.158372,-0.256619,0.008132,-6.474918,28.386360,-32.388206,0.015217036,-1.6465304,-0.83044416,-2.6674,-0.12413857,-0.23287897,0.13545707
20231225 03:28:01,1.233433,-0.225251,-2.547923,-0.316044,-0.261946,-0.074966,-6.375538,29.047802,-31.894508,1.8435998,-1.3028711,-0.64964175,-2.5097888,-0.2810126,-0.23892632,0.21304287
20231225 03:28:01,0.992739,-0.215740,-2.097815,-0.435363,-0.286449,-0.161259,-6.402435,28.762745,-31.876167,5.093203,-1.0025554,-0.39393693,-2.079638,-0.41776854,-0.2735506,0.25124276
20231225 03:28:01,0.625329,-0.114376,-1.560360,-0.508872,-0.307756,-0.249683,-6.375153,28.855911,-31.614037,8.376206,-0.74619555,-0.1179444,-1.4841915,-0.52588665,-0.30740887,0.24445593
20231225 03:28:01,0.167327,0.060672,-1.056749,-0.538702,-0.319475,-0.328518,-6.781090,28.636654,-31.603752,11.842817,-0.6563274,0.119188085,-0.8390352,-0.59242624,-0.32737926,0.21701796
20231225 03:28:01,-0.220528,0.303967,-0.605517,-0.540832,-0.310952,-0.396701,-7.062172,28.230042,-30.910164,14.36642,-0.6070496,0.3332373,-0.30941972,-0.6355467,-0.32019067,0.16788238
20231225 03:28:01,-0.540558,0.558169,-0.080267,-0.508872,-0.313082,-0.464883,-7.466309,28.952744,-30.827400,16.098135,-0.5008628,0.50330657,0.20864387,-0.65362203,-0.31603017,0.09458679
20231225 03:28:01,-0.865868,0.856936,0.202680,-0.457735,-0.330128,-0.542653,-7.318279,29.067924,-31.637260,17.45509,-0.59339726,0.70036525,0.5574707,-0.65711087,-0.31516206,0.018507868
20231225 03:28:01,-1.263075,1.218275,0.366841,-0.389553,-0.313082,-0.603378,-8.067402,29.294544,-31.659492,20.780657,-0.86049855,0.89789957,0.82165796,-0.63421464,-0.26806733,-0.050082624
20231225 03:28:01,-1.810220,1.734180,0.609282,-0.307521,-0.281122,-0.604443,-7.759041,29.794331,-32.090965,22.690294,-1.2516843,1.1298857,1.1950357,-0.5632365,-0.20530854,-0.10390803
20231225 03:28:01,-2.369475,2.068123,0.820859,-0.198856,-0.259815,-0.532000,-8.234509,29.564995,-31.678810,25.222034,-1.6719191,1.1427336,1.5466659,-0.426251,-0.164212,-0.1283266
20231225 03:28:01,-2.735392,2.125093,0.897991,-0.071014,-0.247031,-0.402027,-8.568729,30.105892,-31.717445,26.314373,-1.9456987,1.0082827,1.7920678,-0.24592473,-0.14516908,-0.13215378
20231225 03:28:01,-2.773932,2.081229,0.803670,0.052567,-0.256619,-0.235833,-8.391884,29.546688,-31.143303,26.032291,-1.996414,1.0076622,1.7967899,-0.050114334,-0.16518173,-0.1078241
20231225 03:28:02,-2.348136,1.777318,0.425064,0.137794,-0.280057,-0.087750,-8.197498,29.369404,-30.861870,23.813112,-1.7715054,1.0690901,1.4272491,0.100950316,-0.21556862,-0.07420185
20231225 03:28:02,-1.613471,1.343724,-0.036324,0.180408,-0.305625,-0.005718,-8.797443,29.135536,-30.852577,21.261051,-1.3699282,1.0536531,0.7989886,0.17222935,-0.26733473,-0.056537814
20231225 03:28:02,-0.841364,0.886713,-0.455998,0.195323,-0.334389,-0.002522,-8.709595,29.143768,-30.986198,17.446884,-0.9968029,0.8431324,0.13274911,0.16652806,-0.31178078,-0.075250335
20231225 03:28:02,-0.278001,0.640637,-0.852580,0.186800,-0.361023,-0.057920,-9.018341,28.835869,-30.835213,15.815414,-0.85944784,0.67827016,-0.4602208,0.10648005,-0.3444065,-0.11008538
20231225 03:28:02,0.006991,0.513846,-1.160690,0.153775,-0.363154,-0.134625,-9.194794,29.203186,-31.128868,14.441062,-0.890145,0.56102914,-0.82807523,0.014640711,-0.35157308,-0.14207217
20231225 03:28:02,0.073901,0.536219,-1.262390,0.103703,-0.366350,-0.210265,-9.346931,29.297379,-32.074333,14.306773,-0.9284633,0.5868686,-0.940022,-0.0774073,-0.35427508,-0.15244593
20231225 03:28:02,0.061745,0.622488,-1.264507,0.047240,-0.347174,-0.276316,-9.593307,29.846508,-32.246605,14.542236,-0.93934774,0.6742678,-0.94987893,-0.1638785,-0.33401772,-0.1536946
20231225 03:28:02,0.010642,0.679310,-0.930393,0.011018,-0.300298,-0.338107,-9.699078,29.648235,-32.100731,15.2469015,-0.7077928,0.72290725,-0.7375187,-0.22615327,-0.28297603,-0.17571709
20231225 03:28:02,-0.071701,0.802475,-0.414504,0.022737,-0.282187,-0.396701,-9.742100,30.115105,-31.997673,15.578917,-0.3878527,0.81848794,-0.3791824,-0.2516493,-0.2592327,-0.23068933
20231225 03:28:02,-0.256704,0.919194,0.044144,0.073874,-0.280057,-0.464883,-10.263161,29.794449,-32.115898,17.21147,-0.21445085,0.894296,0.01576964,-0.25248092,-0.24231522,-0.3095397
20231225 03:28:02,-0.491575,1.074540,0.393195,0.171886,-0.273665,-0.546915,-10.307983,29.319351,-32.085320,19.084446,-0.18012697,0.9787665,0.3593395,-0.23138587,-0.2018313,-0.42512077
20231225 03:28:02,-0.915362,1.430090,0.578676,0.310381,-0.229985,-0.627881,-10.484055,29.494778,-32.098534,21.89682,-0.44364998,1.1889905,0.65432316,-0.1871464,-0.09167093,-0.569831
20231225 03:28:02,-1.417717,1.963471,0.701697,0.477641,-0.147954,-0.670495,-10.502373,29.496628,-32.366783,24.485853,-0.85075676,1.5049747,0.9160408,-0.11798465,0.07183415,-0.723744
20231225 03:28:02,-1.958330,2.663132,0.742574,0.631051,-0.059530,-0.642796,-10.670898,28.633224,-32.178123,27.901743,-1.4201272,1.9054024,1.0886879,-0.028071314,0.24027812,-0.8306638
20231225 03:28:02,-2.460697,3.198170,0.616239,0.715213,0.015045,-0.527738,-10.688835,28.443188,-32.165901,29.99814,-2.0752792,2.18867,1.1821773,0.08722687,0.3389799,-0.84569716
20231225 03:28:02,-2.588277,3.363797,0.679103,0.708821,0.016110,-0.340237,-11.015503,27.945251,-32.002663,29.93589,-2.1002913,2.3564966,1.2866516,0.20653412,0.27196857,-0.7380928
20231225 03:28:02,-2.142140,3.451299,0.843184,0.611874,-0.079771,-0.117579,-10.927277,27.761589,-31.855843,26.69045,-1.4698914,2.744812,1.1746502,0.31188607,0.05771347,-0.5209893
20231225 03:28:02,-1.200664,3.424389,0.749609,0.400935,-0.227855,0.059268,-10.944824,27.379662,-31.563133,21.924282,-0.60310584,3.1542432,0.59258723,0.32172084,-0.19146116,-0.23135361
20231225 03:28:02,-0.261639,3.079025,0.538909,0.091984,-0.374873,0.171130,-11.228203,28.124378,-32.552376,17.339481,0.113603085,3.0367393,-0.040558398,0.20969513,-0.37903765,0.0960008
20231225 03:28:02,0.372695,2.529524,0.354208,-0.256384,-0.387657,0.249966,-11.394928,28.202938,-32.291206,14.229979,0.5401421,2.5297687,-0.46465743,0.024573863,-0.3821896,0.4127424
20231225 03:28:02,0.850021,1.902738,0.842506,-0.581316,-0.235312,0.306429,-12.038277,28.627827,-32.459312,13.744827,1.2531979,1.9004002,-0.33561838,-0.20629042,-0.20827407,0.65983903
20231225 03:28:02,0.684803,0.799075,1.766875,-0.799712,-0.008393,0.331997,-11.677551,28.563873,-32.719505,15.083834,1.5895718,0.8029192,0.818823,-0.45671707,-0.0014822016,0.7281495
20231225 03:28:02,0.306099,-0.479953,2.852756,-0.861502,0.243029,0.318148,-11.790100,29.020668,-32.214561,17.809105,1.6093228,-0.51982874,2.3893015,-0.61794466,0.2083192,0.60413
20231225 03:28:02,-0.238688,-1.562264,4.096306,-0.767751,0.430530,0.289383,-11.587135,29.130295,-32.219688,20.137163,1.2553167,-1.6854702,4.1875772,-0.6288381,0.36624238,0.38562888
20231225 03:28:02,-0.741094,-2.655671,4.983011,-0.533375,0.424138,0.243574,-10.916512,28.798576,-31.789452,22.132027,0.5919545,-2.8593318,5.6236777,-0.46803927,0.3565236,0.19680409
20231225 03:28:02,-1.101755,-3.635661,5.753284,-0.179679,0.188696,0.178587,-11.235756,29.163212,-32.754219,23.49181,0.086881995,-3.867134,6.8124447,-0.14689827,0.16254254,0.12113279
20231225 03:28:02,-1.107301,-4.076295,5.748934,0.277355,-0.201221,0.101882,-11.278770,29.630081,-32.651161,23.127363,0.08792138,-4.299687,6.972867,0.29593387,-0.17084904,0.11683434
20231225 03:28:02,-0.788797,-3.763123,4.219392,0.745043,-0.466493,0.042223,-11.587517,29.322182,-32.500160,21.416414,0.57142216,-3.9320755,5.3019943,0.7376868,-0.3989679,-0.016445871
20231225 03:28:02,-0.284858,-2.875488,2.296754,1.082758,-0.549590,0.039027,-11.993843,29.294815,-32.770363,18.676373,0.7896986,-2.93378,2.9186497,1.0062271,-0.50113165,-0.27286562
20231225 03:28:02,0.139896,-2.261889,0.334313,1.232972,-0.502714,0.050746,-12.011002,28.721001,-32.197197,16.0956,0.30869696,-2.2620811,0.700168,1.0435019,-0.50009805,-0.54694235
20231225 03:28:02,0.514819,-1.709053,-0.998196,1.212731,-0.418552,0.081641,-12.392616,28.228611,-32.838692,12.636115,-0.41115597,-1.7866062,-0.78942084,0.907805,-0.48089758,-0.71738446
20231225 03:28:02,0.904987,-1.258107,-2.078490,1.062517,-0.310952,0.122124,-12.419121,27.751663,-32.539894,8.141808,-1.2058382,-1.6342343,-1.8820591,0.71464473,-0.40919542,-0.7254618
20231225 03:28:02,1.285155,-0.931353,-2.710311,0.818552,-0.194829,0.153019,-12.579071,27.175163,-32.637825,3.5199978,-1.6231459,-1.7393023,-2.5637398,0.5405702,-0.2839682,-0.57933813
20231225 03:28:02,1.510631,-0.871030,-2.972804,0.511732,-0.082967,0.162607,-12.475105,26.431469,-32.856194,0.9193107,-1.6802664,-1.9308424,-2.92736,0.394569,-0.13125971,-0.32707107
20231225 03:28:02,1.668293,-1.066082,-2.799437,0.181474,-0.016916,0.147692,-12.834679,25.919758,-31.754585,3.1961827,-1.2951448,-2.011489,-3.0112915,0.21894866,-0.015457053,-0.049076237
20231225 03:28:02,1.579214,-1.367256,-2.103888,-0.110432,-0.030765,0.113601,-12.668335,26.033077,-32.296211,5.791935,-0.6098233,-1.9666367,-2.4943678,-0.0030348375,0.009101529,0.16011009
20231225 03:28:02,1.328462,-1.589050,-1.343148,-0.326697,-0.071248,0.081641,-12.836594,26.879200,-33.156944,8.979351,-0.06318939,-1.8945138,-1.6878101,-0.20000279,-0.017802678,0.28498307
20231225 03:28:02,1.080206,-1.660738,-0.597617,-0.454539,-0.096817,0.067791,-13.179779,27.325077,-33.189461,11.859861,0.35184065,-1.7977239,-0.861634,-0.3219085,-0.04715854,0.34983605
20231225 03:28:02,0.872474,-1.628951,-0.114861,-0.517395,-0.094686,0.068856,-13.073242,27.139568,-32.774376,13.126675,0.54089427,-1.6970458,-0.3079954,-0.38215858,-0.049097713,0.377455
20231225 03:28:02,0.801790,-1.600812,0.365883,-0.532310,-0.073379,0.072052,-13.389145,27.678616,-32.544777,14.296732,0.7907673,-1.6320385,0.1544227,-0.39831996,-0.03403899,0.37733662
20231225 03:28:02,0.762198,-1.445406,0.646939,-0.511003,-0.011589,0.076314,-13.318848,27.304916,-32.385704,14.613315,0.9299177,-1.461837,0.3924767,-0.38082838,0.024569824,0.35023242
20231225 03:28:02,0.652093,-1.359205,1.079988,-0.460931,0.029960,0.077379,-13.177597,28.075153,-32.836494,14.819938,1.0902508,-1.3534731,0.80441475,-0.34162724,0.056732945,0.30938792
20231225 03:28:02,0.641398,-1.257762,1.358201,-0.393814,0.086423,0.064595,-13.124840,27.319527,-32.384727,15.483428,1.2296585,-1.2454792,1.0465765,-0.29566595,0.1068211,0.2437447
20231225 03:28:02,0.534626,-1.163692,1.807797,-0.310717,0.088554,0.041157,-13.336777,27.114876,-32.373482,16.809381,1.3818935,-1.1454015,1.4785156,-0.24119301,0.09865992,0.17488042
20231225 03:28:02,0.328855,-1.080626,1.999262,-0.223359,0.066181,0.034765,-13.343933,27.961823,-32.294868,17.667929,1.3217826,-1.0724037,1.7293582,-0.17163876,0.06839361,0.12816463
20231225 03:28:02,0.143274,-1.015842,2.052641,-0.136000,0.037417,0.044353,-13.265053,27.875031,-32.422386,17.975851,1.1932069,-1.0142356,1.8576145,-0.09278776,0.037652098,0.09715215
20231225 03:28:02,0.058296,-1.007712,2.056724,-0.039053,0.019306,0.058203,-13.478142,28.246056,-33.252541,18.219383,1.1245934,-1.0123792,1.9054401,-0.003020756,0.019014705,0.06238743
20231225 03:28:02,0.079196,-1.066579,1.947979,0.070678,0.013979,0.063530,-13.247894,28.448849,-32.995567,17.809399,1.0855069,-1.06873,1.8189127,0.09342835,0.014040882,0.011058386
20231225 03:28:02,0.157506,-1.192901,1.672310,0.180408,0.039548,0.049680,-13.839256,28.501892,-33.272835,18.098087,1.0213234,-1.1894253,1.5748844,0.17923693,0.038970396,-0.06654917
20231225 03:28:02,0.160291,-1.178394,1.332881,0.286943,0.088554,0.023046,-13.141731,28.455231,-32.860939,17.2142,0.87033725,-1.1756729,1.2600467,0.2516794,0.087544076,-0.16278292
20231225 03:28:02,0.151640,-1.004036,1.006193,0.386021,0.139690,-0.001457,-13.371986,28.252434,-33.117943,17.255922,0.7088302,-1.0009723,0.93090594,0.3124225,0.1376441,-0.26098135
20231225 03:28:02,0.117147,-0.903558,0.631741,0.457399,0.194023,-0.022763,-12.816864,28.011204,-33.096672,17.411219,0.4905859,-0.9077054,0.6137977,0.3436996,0.19930641,-0.34552392
20231225 03:28:02,0.015891,-0.690374,0.298406,0.492555,0.228114,-0.029156,-13.159668,28.265194,-32.848717,17.973913,0.21580534,-0.69401926,0.36657128,0.351559,0.23623374,-0.39537343
20231225 03:28:02,-0.025725,-0.436568,0.020636,0.500013,0.240899,-0.021698,-12.895363,27.906101,-32.688683,18.067722,0.0040394245,-0.43734306,0.13076258,0.3454489,0.25191224,-0.41126454
20231225 03:28:02,-0.019780,-0.190583,-0.191517,0.486163,0.228114,-0.006783,-12.412727,27.288494,-33.179436,17.045008,-0.1489513,-0.1880553,-0.07396123,0.3288773,0.23491748,-0.40120712
20231225 03:28:02,0.094296,0.109070,-0.619556,0.432896,0.232376,0.018785,-12.809319,26.972366,-32.894814,16.877155,-0.40481842,0.11040268,-0.48184764,0.29846936,0.23305719,-0.35860458
20231225 03:28:02,0.237277,0.323985,-0.830741,0.348733,0.223853,0.050746,-12.941986,26.489040,-32.730614,16.06379,-0.48203036,0.30575362,-0.7495229,0.26564246,0.21958198,-0.27682605
20231225 03:28:02,0.358177,0.429821,-1.066596,0.240068,0.234506,0.074183,-12.669106,26.416859,-32.857170,15.3209305,-0.60341996,0.39638242,-0.9894925,0.21284606,0.23154363,-0.18235387
20231225 03:28:02,0.458707,0.474025,-0.955867,0.109030,0.233441,0.108274,-13.004745,25.823906,-32.687813,15.623978,-0.4312595,0.43444002,-1.0207269,0.15970552,0.2338122,-0.05778887
20231225 03:28:02,0.503511,0.388241,-0.682172,-0.007093,0.225984,0.144496,-12.651558,26.798786,-33.149849,14.141286,-0.15800297,0.34217826,-0.8790945,0.11210116,0.23172338,0.061779648
20231225 03:28:02,0.641133,0.204846,-0.194271,-0.083798,0.216396,0.158346,-12.406723,27.017212,-34.099480,13.008075,0.3228677,0.16523623,-0.6212916,0.06358424,0.2273167,0.13382387
20231225 03:28:02,0.803480,0.021586,0.252002,-0.117889,0.197219,0.140235,-12.539009,26.341999,-33.654808,12.724134,0.76065314,-0.013427087,-0.37057114,0.020073183,0.21176524,0.14864028
20231225 03:28:02,0.925234,-0.176134,0.544751,-0.116824,0.185500,0.096556,-12.439621,27.003433,-33.161095,12.027567,1.0417273,-0.2082412,-0.18178958,-0.012512244,0.19944374,0.118961215
20231225 03:28:02,0.966166,-0.292553,0.763330,-0.086994,0.189762,0.025177,-12.599190,26.235050,-32.978569,12.848953,1.2115685,-0.3133785,-0.0065711737,-0.0391445,0.19644108,0.042734027
20231225 03:28:02,0.871321,-0.332108,0.833250,-0.034792,0.207873,-0.050463,-12.438858,26.619656,-32.600166,13.795515,1.1878875,-0.34005904,0.12054995,-0.050239507,0.20704372,-0.05315425
20231225 03:28:02,0.633074,-0.298690,0.909355,0.033390,0.255813,-0.117579,-12.247040,25.884193,-32.952156,15.614158,1.0670257,-0.29628184,0.3181997,-0.047103345,0.2535313,-0.16034076
20231225 03:28:02,0.204527,-0.167385,0.971273,0.109030,0.299493,-0.158063,-11.605232,26.226856,-33.905937,17.62088,0.79171234,-0.18993862,0.6084074,-0.029218689,0.30801064,-0.2541889
20231225 03:28:02,-0.280122,-0.034229,1.057538,0.180408,0.323996,-0.156997,-12.027290,26.759521,-33.810936,20.664751,0.4772864,-0.13143875,0.9412533,0.01176101,0.34790257,-0.31563765
20231225 03:28:02,-0.672233,0.022028,1.064904,0.250721,0.328257,-0.123972,-11.709587,27.162441,-33.968040,22.125216,0.18587476,-0.16469553,1.1786983,0.07436653,0.36605188,-0.34460208
20231225 03:28:02,-0.955773,0.102024,0.940940,0.321034,0.327192,-0.070704,-11.745064,26.590473,-33.663124,23.720436,-0.09834367,-0.14804757,1.2499275,0.1501245,0.37436095,-0.36120757
20231225 03:28:02,-1.042072,0.198380,0.626245,0.381759,0.326126,0.000674,-11.596268,26.321877,-33.912041,24.370842,-0.34971458,-0.04777708,1.0761349,0.22817126,0.37516078,-0.36190578
20231225 03:28:02,-1.056845,0.206959,0.191944,0.413720,0.337845,0.084837,-11.526352,26.140064,-34.033470,24.436808,-0.6343805,0.020620907,0.81872505,0.29807782,0.3778713,-0.33980066
20231225 03:28:02,-0.861379,0.070056,-0.169912,0.421177,0.355956,0.163672,-11.799232,26.212246,-33.906914,23.435751,-0.7197135,-0.01390098,0.50344944,0.35899514,0.3802547,-0.3016762
20231225 03:28:02,-0.496148,-0.098042,-0.487375,0.407328,0.367675,0.221201,-11.420578,26.338337,-34.179329,20.599146,-0.68188083,-0.09331223,0.087079346,0.40058553,0.37841928,-0.250996
20231225 03:28:02,-0.120666,-0.250074,-0.724044,0.370040,0.368740,0.256358,-11.095322,25.702415,-34.134575,18.097307,-0.6081829,-0.21349692,-0.3113284,0.41468126,0.37155893,-0.19339058
20231225 03:28:02,0.203657,-0.403732,-0.876889,0.314642,0.357021,0.271273,-10.970848,25.706944,-33.731712,15.511968,-0.52407753,-0.38640067,-0.6356525,0.40504146,0.3569417,-0.12982732
20231225 03:28:02,0.523110,-0.510040,-1.107599,0.243264,0.346368,0.263815,-11.244118,25.971016,-33.885643,13.275716,-0.52423286,-0.54862297,-1.0184882,0.36705863,0.3476779,-0.072341844
20231225 03:28:02,0.801185,-0.536757,-1.127961,0.163363,0.334649,0.240377,-10.813469,25.725254,-34.267235,10.992141,-0.38372928,-0.63107085,-1.2581267,0.30672884,0.33944538,-0.01591675
20231225 03:28:02,0.912372,-0.531944,-1.187091,0.094115,0.336780,0.207352,-10.990318,26.284462,-34.841377,10.431528,-0.36091387,-0.65121937,-1.386159,0.2401034,0.34372073,0.018869355
20231225 03:28:02,0.999681,-0.565567,-1.150454,0.036586,0.338911,0.164738,-10.619469,25.739864,-34.266258,10.347615,-0.26832128,-0.6826974,-1.4281148,0.16948505,0.3458762,0.03711164
20231225 03:28:02,0.903530,-0.535280,-1.024711,-0.022008,0.331453,0.114666,-10.513313,25.746243,-34.131645,11.311175,-0.21430492,-0.60974276,-1.2713883,0.086706266,0.3365436,0.04752694
20231225 03:28:02,0.755174,-0.405525,-0.843554,-0.067818,0.301623,0.072052,-10.716278,25.636620,-34.126503,12.9650345,-0.15840626,-0.43392247,-1.0490389,0.016493373,0.30401835,0.05321563
20231225 03:28:02,0.653275,-0.172802,-0.711355,-0.095517,0.264336,0.043288,-9.975739,25.123089,-33.817680,12.739662,-0.12636957,-0.18547887,-0.9219654,-0.025611937,0.26555732,0.062815
20231225 03:28:02,0.562969,0.022951,-0.691458,-0.118954,0.237702,0.030504,-10.539055,24.885517,-33.271889,14.47987,-0.17434001,0.027438616,-0.86412406,-0.053201247,0.23719963,0.07263422
20231225 03:28:02,0.474398,0.160031,-0.642245,-0.140261,0.220657,0.032635,-10.638435,24.224083,-33.765587,15.267918,-0.19710883,0.1750865,-0.7866806,-0.06709111,0.21845552,0.09144202
20231225 03:28:02,0.480363,0.257460,-0.530100,-0.159438,0.207873,0.043288,-10.284477,24.815186,-33.666679,14.672303,-0.101503074,0.27033657,-0.73939574,-0.07206303,0.20538893,0.115318075
20231225 03:28:02,0.467770,0.257669,-0.347742,-0.167960,0.172716,0.053942,-10.382065,25.095718,-34.087883,15.079287,0.03440836,0.27316952,-0.61729527,-0.071771264,0.16853006,0.13230589
20231225 03:28:02,0.446917,0.284644,-0.436936,-0.178614,0.132233,0.066726,-10.277817,26.061539,-35.355629,13.993189,-0.04438016,0.29526278,-0.66005623,-0.06735264,0.12935536,0.15691626
20231225 03:28:02,0.507145,0.161586,-0.430966,-0.175418,0.142886,0.074183,-9.677494,26.103519,-35.084450,12.684486,0.010809571,0.16395764,-0.6819173,-0.06051271,0.14226745,0.1588055
20231225 03:28:02,0.627720,0.150743,-0.316879,-0.157307,0.146083,0.053942,-9.985855,25.603733,-34.652977,12.731259,0.18293564,0.14545506,-0.69614625,-0.063726395,0.14724855,0.1309002
20231225 03:28:02,0.616052,0.011921,-0.299538,-0.132804,0.153540,0.012393,-10.293182,26.429688,-34.709953,13.879046,0.19266908,0.019671753,-0.65337384,-0.081548594,0.15232807,0.08158566
20231225 03:28:02,0.428844,0.101658,-0.313873,-0.105105,0.154605,-0.038744,-10.038223,26.167473,-34.824257,15.45279,0.040541187,0.12926252,-0.5399076,-0.1043879,0.15225828,0.027835887
20231225 03:28:02,0.121318,0.366501,-0.457760,-0.086994,0.165259,-0.074966,-9.729099,26.283474,-34.694786,17.769543,-0.3062129,0.41305253,-0.4417742,-0.12729053,0.1644835,-0.010249045
20231225 03:28:02,-0.249444,0.713617,-0.535593,-0.086994,0.167389,-0.080292,-10.084198,26.268036,-35.635109,20.945827,-0.66769296,0.74951166,-0.27129912,-0.13917994,0.16638671,-0.015063334
20231225 03:28:02,-0.555525,1.038789,-0.663965,-0.116824,0.148213,-0.047267,-9.941418,26.270718,-34.964012,22.634468,-1.0311075,1.0568403,-0.16424507,-0.13262977,0.13774067,0.0329142
20231225 03:28:02,-0.671362,1.217161,-0.739697,-0.169026,0.127972,0.016654,-10.143234,25.585426,-34.117470,23.435158,-1.1951232,1.2315359,-0.14417922,-0.10938759,0.09989689,0.1154387
20231225 03:28:02,-0.580175,1.302680,-0.831130,-0.224424,0.123710,0.098686,-9.904789,26.267017,-34.427528,21.779911,-1.2069488,1.3425696,-0.26679537,-0.07295404,0.07988066,0.2085592
20231225 03:28:02,-0.348961,1.264305,-0.820856,-0.274495,0.141821,0.177522,-9.394878,25.742580,-34.656166,18.8706,-1.0069631,1.3162851,-0.42423496,-0.038332388,0.09631232,0.29331744
20231225 03:28:02,0.016542,0.999189,-0.684566,-0.309652,0.168455,0.229724,-9.519352,25.738052,-35.059013,15.696102,-0.5796001,1.036121,-0.5932712,-0.023966983,0.1409447,0.3515007
20231225 03:28:02,0.427781,0.662642,-0.462273,-0.335220,0.168455,0.225463,-9.517551,26.680016,-34.986519,13.087341,-0.08284846,0.6744626,-0.7152548,-0.048940733,0.16104086,0.37271065
20231225 03:28:03,0.681014,0.379048,-0.330724,-0.359723,0.149279,0.173261,-9.490269,26.773182,-34.724388,11.46996,0.21523874,0.3669796,-0.7733031,-0.11031304,0.15558405,0.3609935
20231225 03:28:03,0.848235,0.244102,-0.198765,-0.369311,0.131168,0.088033,-10.002747,26.739437,-35.129189,11.794765,0.43390173,0.22780344,-0.7888166,-0.18389723,0.13822842,0.3114867
20231225 03:28:03,0.733232,0.392514,-0.146339,-0.363984,0.131168,-0.000391,-9.605392,26.671787,-34.852867,12.401615,0.38809142,0.39262137,-0.69375974,-0.24649109,0.13112402,0.24878782
20231225 03:28:03,0.529181,0.588334,-0.052572,-0.335220,0.147148,-0.071770,-9.490654,26.965073,-35.004860,14.229082,0.29854482,0.6057768,-0.5225012,-0.28407538,0.13909386,0.17603286
20231225 03:28:03,0.209269,0.891743,0.053137,-0.283018,0.165259,-0.111187,-9.454796,27.345150,-35.029305,16.380749,0.113702565,0.8971316,-0.2895978,-0.28243667,0.15438461,0.11030239
20231225 03:28:03,-0.101399,1.231423,0.086194,-0.214836,0.199350,-0.111187,-9.464527,27.633911,-35.584129,17.858349,-0.12551779,1.2029984,-0.11583685,-0.24372934,0.19016261,0.054038852
20231225 03:28:03,-0.318921,1.474495,0.057348,-0.143457,0.223853,-0.077096,-8.607063,28.163746,-35.074318,18.061956,-0.34534395,1.4143677,-0.014119964,-0.17835842,0.21549483,0.01831853
20231225 03:28:03,-0.393693,1.580385,-0.007051,-0.075275,0.236637,-0.021698,-9.014801,27.002525,-35.136528,18.939463,-0.45682174,1.5183846,-0.027946614,-0.094496325,0.22825843,-0.0040538805
20231225 03:28:03,-0.265852,1.496807,-0.154996,-0.010289,0.234506,0.034765,-9.269371,27.072853,-34.741737,18.08588,-0.44690824,1.4757459,-0.18300879,-0.0049177464,0.2276586,-0.017280702
20231225 03:28:03,0.025137,1.265372,-0.355753,0.041913,0.220657,0.063530,-8.977787,26.806934,-34.319572,15.780114,-0.3489972,1.2868204,-0.4528413,0.05980553,0.21762949,-0.03179356
20231225 03:28:03,0.367889,0.999883,-0.571902,0.080266,0.198285,0.055007,-9.093296,26.897423,-34.728539,14.045655,-0.25803733,1.0337039,-0.7847005,0.08492036,0.19838054,-0.05950674
20231225 03:28:03,0.577750,0.859540,-0.840330,0.099442,0.183370,0.030504,-9.297417,27.363461,-35.564827,12.955077,-0.32892007,0.88726276,-1.0762911,0.08101378,0.18431363,-0.085580826
20231225 03:28:03,0.704259,0.855071,-1.021127,0.100507,0.172716,-0.001457,-9.112762,27.474941,-35.838203,11.890148,-0.40027368,0.86812806,-1.2691946,0.057765953,0.17335746,-0.10257966
20231225 03:28:03,0.844156,0.855958,-1.063053,0.082396,0.167389,-0.040874,-9.200607,27.466709,-35.704567,11.421452,-0.35662925,0.85221916,-1.3969922,0.016103163,0.16716395,-0.109736025
20231225 03:28:03,0.874353,0.904257,-1.297732,0.031260,0.202546,-0.079227,-8.716175,27.791065,-36.122826,10.282361,-0.5311411,0.88530946,-1.5509536,-0.043935932,0.20153485,-0.0921538
20231225 03:28:03,0.971542,1.033531,-1.024180,-0.053968,0.212134,-0.123972,-8.848461,27.115849,-35.678154,10.686847,-0.2281943,1.0186371,-1.495924,-0.12976933,0.211415,-0.053454928
20231225 03:28:03,0.899203,1.223858,-0.649758,-0.147719,0.165259,-0.176174,-8.548294,27.136841,-35.542580,11.509306,0.03080082,1.2398033,-1.2513664,-0.23173934,0.16595083,-0.011013873
20231225 03:28:03,0.754775,1.377501,-0.321428,-0.237208,0.089619,-0.212395,-8.882130,27.485851,-35.300728,12.779851,0.18884127,1.401573,-0.975603,-0.3166502,0.09010479,0.041419223
20231225 03:28:03,0.629251,1.582808,0.001697,-0.328828,0.009718,-0.228376,-8.460835,27.336956,-35.956688,13.175446,0.3295843,1.6025875,-0.7146983,-0.38486916,0.007982871,0.11316465
20231225 03:28:03,0.439453,1.727391,0.104028,-0.443886,-0.036092,-0.203873,-8.812218,27.304035,-35.422142,14.578972,0.2624242,1.737842,-0.55136544,-0.43935072,-0.045831323,0.21824872
20231225 03:28:03,0.458443,1.607039,0.449023,-0.557878,-0.051007,-0.177239,-8.803253,27.399055,-35.428261,14.189091,0.56119645,1.6022049,-0.308438,-0.5061265,-0.067544244,0.30136022
20231225 03:28:03,0.386586,1.384826,0.854941,-0.656955,-0.045680,-0.165520,-8.767006,27.587250,-35.172234,14.719165,0.7947494,1.3560387,0.07392073,-0.5851516,-0.073507346,0.34883022
20231225 03:28:03,0.301324,0.894681,1.414590,-0.713419,0.016110,-0.172978,-8.466846,27.608238,-35.036659,14.408018,1.0867293,0.8419978,0.6940193,-0.6610647,-0.01706815,0.32124174
20231225 03:28:03,0.257416,0.473750,2.205173,-0.709157,0.075770,-0.218788,-8.555073,27.791897,-35.183495,14.946505,1.4626509,0.38586366,1.486493,-0.70767736,0.039145023,0.22332983
20231225 03:28:03,0.147825,0.075076,2.857343,-0.646302,0.148213,-0.310407,-8.368999,29.037231,-35.664833,15.546847,1.6258361,-0.06636866,2.2403145,-0.71977305,0.10838184,0.05463025
20231225 03:28:03,-0.347324,-0.082937,3.592859,-0.516329,0.201481,-0.405223,-8.571968,28.927601,-35.659706,18.355024,1.4598577,-0.39885613,3.1585777,-0.6619991,0.16123654,-0.13419639
20231225 03:28:03,-1.011518,-0.199621,4.045277,-0.339481,0.217461,-0.462752,-8.245678,29.617428,-36.103401,20.570312,1.0014037,-0.79297173,3.87644,-0.5350824,0.19547164,-0.28805688
20231225 03:28:03,-1.730743,-0.261262,4.121246,-0.155176,0.221722,-0.437184,-8.605640,29.297600,-35.282280,23.762638,0.31396198,-1.1809146,4.2390895,-0.35846955,0.23039666,-0.36377156
20231225 03:28:03,-2.198957,-0.573070,4.073232,0.041913,0.253683,-0.351956,-8.411636,29.312210,-35.281303,25.147823,-0.22327852,-1.6834686,4.49542,-0.14102241,0.299496,-0.4024059
20231225 03:28:03,-2.626803,-0.868907,3.991231,0.268832,0.290970,-0.236898,-8.192924,28.861801,-35.651634,26.877676,-0.6996262,-2.191181,4.688079,0.11032805,0.39007372,-0.4237074
20231225 03:28:03,-2.771629,-1.287112,3.692960,0.497882,0.312277,-0.103730,-7.998535,28.684525,-35.370186,27.358658,-0.97050214,-2.6146903,4.6580696,0.37318993,0.4669179,-0.4155658
20231225 03:28:03,-2.599240,-1.650515,3.075682,0.705625,0.302689,0.039027,-8.053093,28.498184,-35.894463,27.730227,-0.9873365,-2.8219817,4.2412276,0.6176588,0.5058531,-0.38121152
20231225 03:28:03,-2.104923,-2.083424,2.224215,0.852643,0.271794,0.148758,-7.806339,27.757164,-35.441719,26.60383,-0.73259616,-2.9096093,3.5368237,0.79430884,0.49204382,-0.34926182
20231225 03:28:03,-1.461255,-2.370131,1.297343,0.933609,0.216396,0.222267,-8.220856,27.251003,-35.144859,25.733648,-0.42960447,-2.8295758,2.6197965,0.90008104,0.42807704,-0.32403487
20231225 03:28:03,-0.952145,-2.591564,0.419780,0.937871,0.156736,0.262750,-8.134430,26.125374,-35.070518,24.64452,-0.26681036,-2.7771292,1.742084,0.91745734,0.34051046,-0.3160588
20231225 03:28:03,-0.328352,-2.572161,-0.564253,0.860100,0.139690,0.269142,-7.852962,26.340103,-35.483650,21.040405,-0.2610009,-2.4981914,0.5128905,0.84088916,0.2596248,-0.31907284
20231225 03:28:03,0.285917,-2.507078,-1.329795,0.706690,0.148213,0.233985,-7.650764,26.833511,-36.049721,17.192062,-0.37078178,-2.3085957,-0.5896083,0.675787,0.20780644,-0.31482875
20231225 03:28:03,0.601427,-2.139982,-1.901279,0.479771,0.176978,0.161542,-7.607742,26.366642,-36.152809,15.740049,-0.7312727,-1.8914866,-1.3030051,0.4332875,0.20388375,-0.26837426
20231225 03:28:03,0.695938,-1.710272,-2.200690,0.186800,0.194023,0.084837,-7.377495,26.569435,-35.895805,16.444935,-0.98986304,-1.3649937,-1.5909227,0.16317135,0.20064992,-0.12389003
20231225 03:28:03,0.420532,-1.291324,-2.055880,-0.112562,0.190827,0.033700,-7.892548,25.977501,-36.934059,19.856728,-1.0059068,-0.88056064,-1.3147643,-0.080972254,0.16529392,0.061260056
20231225 03:28:03,-0.019034,-1.023129,-1.331044,-0.341612,0.185500,0.027308,-7.571884,26.746719,-36.177254,21.50284,-0.7244184,-0.7547197,-0.60799456,-0.26057553,0.11122699,0.20659924
20231225 03:28:03,-0.441438,-0.820630,-0.390167,-0.464127,0.172716,0.060334,-7.332291,26.852646,-35.645897,21.896025,-0.4371805,-0.8131803,0.24261785,-0.34657577,0.060703058,0.29357296
20231225 03:28:03,-0.682552,-0.748627,0.367029,-0.495022,0.147148,0.119993,-7.174911,26.870956,-36.181419,21.635136,-0.20504162,-0.9233449,0.9053684,-0.34533754,0.019596044,0.34725374
20231225 03:28:03,-0.697299,-0.784292,0.855974,-0.457735,0.110926,0.184979,-7.077332,26.590427,-35.760216,20.880625,0.027643621,-1.0199931,1.2834812,-0.28339595,-0.009200493,0.37488717
20231225 03:28:03,-0.601662,-0.948105,1.222219,-0.384226,0.057659,0.232920,-6.882561,26.221260,-35.198296,19.862106,0.2875833,-1.1861308,1.5559046,-0.1979269,-0.042902738,0.38059908
20231225 03:28:03,-0.479700,-1.043339,1.326801,-0.291541,-0.003066,0.264880,-7.235092,26.764008,-35.505165,19.187334,0.4314011,-1.2480444,1.5959616,-0.09976205,-0.08061753,0.37029335
20231225 03:28:03,-0.234454,-1.102069,1.252760,-0.196725,-0.036092,0.273403,-7.137516,26.483479,-35.083977,17.784178,0.59616965,-1.2378603,1.4015027,-0.0102285,-0.08932448,0.33493316
20231225 03:28:03,-0.049302,-1.090835,1.211305,-0.098713,-0.044615,0.268077,-7.623486,26.926678,-35.787605,17.658516,0.720451,-1.1899283,1.2613167,0.06923011,-0.08050631,0.27841103
20231225 03:28:03,0.049639,-1.148516,1.200409,0.002495,-0.044615,0.247835,-7.402588,27.226349,-35.804970,16.82442,0.78954124,-1.2273676,1.2083482,0.14091167,-0.06394315,0.20727338
20231225 03:28:03,0.058887,-1.248875,1.191697,0.118618,-0.055268,0.218005,-7.332668,27.044533,-35.926369,16.620115,0.7996552,-1.3234391,1.2171111,0.2224398,-0.057790436,0.12178652
20231225 03:28:03,0.006985,-1.256378,1.035282,0.235806,-0.075510,0.186045,-6.969368,27.538773,-35.553108,16.60851,0.6881622,-1.3309745,1.1162844,0.30488002,-0.06016109,0.033832476
20231225 03:28:03,-0.116038,-1.249977,0.774369,0.343407,-0.102144,0.167934,-7.669464,27.027245,-36.598457,18.420944,0.47353452,-1.3261542,0.98895586,0.38620937,-0.06814869,-0.042112887
20231225 03:28:03,-0.165712,-1.300849,0.379783,0.430765,-0.130908,0.165803,-7.272106,26.959591,-36.322136,18.213264,0.23807453,-1.3452666,0.7122687,0.45660156,-0.08335908,-0.10118376
20231225 03:28:03,-0.118984,-1.273179,-0.094722,0.479771,-0.150084,0.163672,-7.483654,26.563061,-36.030403,18.383936,-0.0024125166,-1.2572805,0.31652504,0.4906693,-0.09819874,-0.14708105
20231225 03:28:03,-0.047178,-1.195260,-0.508333,0.480837,-0.161803,0.159411,-7.617477,26.655399,-36.707634,18.356617,-0.2216104,-1.1182218,-0.04717052,0.48205864,-0.11273075,-0.17174378
20231225 03:28:03,0.033451,-0.958990,-0.818588,0.435027,-0.184175,0.160476,-7.316162,26.100719,-35.730629,17.391155,-0.43108833,-0.84220195,-0.37332386,0.44162115,-0.14837669,-0.16042078
20231225 03:28:03,0.198034,-0.773849,-1.067914,0.322100,-0.238508,0.148758,-7.624138,25.409050,-35.018684,16.7936,-0.5565081,-0.6323265,-0.6889637,0.35251024,-0.21992451,-0.09197818
20231225 03:28:03,0.361411,-0.587276,-1.244684,0.158036,-0.309886,0.118928,-7.220001,24.686337,-35.101448,14.899254,-0.64546055,-0.45034117,-0.9631423,0.21934822,-0.30630493,0.00854449
20231225 03:28:03,0.498510,-0.379471,-1.297045,-0.020942,-0.341847,0.059268,-8.039425,25.286655,-35.282768,14.667425,-0.6278523,-0.26158363,-1.1339369,0.054101262,-0.34570256,0.10978328
20231225 03:28:03,0.485861,-0.212254,-0.969090,-0.162634,-0.318409,-0.032352,-7.529247,26.471737,-36.560799,14.465342,-0.36881977,-0.09992139,-0.95526534,-0.108192876,-0.32570806,0.15272279
20231225 03:28:03,0.139979,0.000057,-0.413688,-0.246796,-0.275795,-0.130364,-8.004715,26.242401,-36.148643,18.004025,-0.19150525,0.065552294,-0.37623185,-0.23223844,-0.28542945,0.14819255
20231225 03:28:03,-0.530376,0.205660,0.231678,-0.274495,-0.222528,-0.194285,-8.136734,27.276707,-36.753349,22.124989,-0.27004993,0.05743621,0.46296424,-0.2891384,-0.23233962,0.11772066
20231225 03:28:03,-1.363683,0.450609,0.796194,-0.249992,-0.146888,-0.197481,-7.952080,27.388184,-37.026741,24.717947,-0.6321289,-0.06771889,1.296377,-0.280917,-0.15834936,0.074230835
20231225 03:28:03,-2.023640,0.620387,1.388904,-0.163699,-0.073379,-0.135690,-7.887787,27.285767,-35.947639,26.47027,-0.89943886,-0.2934848,2.022994,-0.1905633,-0.08361439,0.03369139
20231225 03:28:03,-2.457322,0.571610,2.028564,-0.017746,-0.028635,-0.030221,-8.188721,27.648556,-36.644173,27.526138,-0.97391593,-0.64996547,2.698065,-0.0246475,-0.025181308,-2.932269E-4
20231225 03:28:03,-2.675027,0.417306,2.319486,0.192127,-0.003066,0.099752,-8.330738,27.262100,-36.754326,28.038782,-1.0124344,-0.92553693,3.0623095,0.21077451,0.033706233,-0.03908077
20231225 03:28:03,-2.651293,0.356863,2.230318,0.427569,0.001195,0.241443,-8.207031,27.650406,-36.912407,27.449604,-0.9413159,-0.94611925,3.0474975,0.47603762,0.07312681,-0.08784297
20231225 03:28:03,-2.211575,0.336945,1.516269,0.606548,-0.004132,0.367154,-8.093712,26.809837,-36.856407,26.131516,-0.83278066,-0.5912678,2.357682,0.6864644,0.072206624,-0.14120495
20231225 03:28:03,-1.475582,0.219244,0.556838,0.699233,-0.013720,0.449186,-8.357246,26.785152,-36.455513,24.078821,-0.7164597,-0.21301872,1.3374882,0.8014313,0.039490364,-0.1982393
20231225 03:28:03,-0.765966,0.161112,-0.339735,0.719474,-0.012654,0.482212,-7.792015,26.063271,-35.598930,20.702085,-0.7834542,0.09792613,0.32428217,0.83059263,0.014703199,-0.23588485
20231225 03:28:03,-0.368387,0.127102,-0.939472,0.682187,-0.013720,0.480081,-7.916103,25.866856,-35.721336,19.134987,-0.9766396,0.22662735,-0.26782277,0.78957057,-0.0077304095,-0.26689342
20231225 03:28:03,0.023731,0.238155,-1.626855,0.589502,0.005457,0.468362,-8.305912,24.895668,-35.795784,17.633015,-1.35737,0.43513274,-0.9162102,0.71124923,-0.00403098,-0.24567695
20231225 03:28:03,0.290529,0.344549,-2.006380,0.454203,0.037417,0.441728,-7.936604,25.118626,-36.342537,15.161765,-1.5872751,0.538709,-1.2982129,0.6076604,0.02223175,-0.1727753
20231225 03:28:03,0.453576,0.298075,-2.172096,0.297597,0.089619,0.404441,-8.255077,25.099483,-36.746376,13.867292,-1.6296337,0.44491562,-1.5245395,0.49403957,0.07599455,-0.060201764
20231225 03:28:03,0.507285,0.198092,-1.891468,0.153775,0.121580,0.366089,-8.079388,25.115944,-37.013649,13.300672,-1.2919111,0.3174647,-1.4752421,0.38234228,0.10725285,0.056062102
20231225 03:28:03,0.440882,0.122119,-1.406003,0.036586,0.126906,0.324540,-8.042763,25.112244,-36.477165,13.906965,-0.8649803,0.22819406,-1.188814,0.2731148,0.108320504,0.14133608
20231225 03:28:03,0.298344,0.101708,-0.836362,-0.047576,0.096011,0.297906,-8.139572,25.008995,-36.337410,14.854395,-0.4590413,0.17854425,-0.7616237,0.19146577,0.07153663,0.20444821
20231225 03:28:03,0.174218,0.117475,-0.333596,-0.090190,0.035286,0.291514,-7.603539,25.153389,-37.145317,14.269274,-0.14079118,0.15202117,-0.36427438,0.15435755,0.00842255,0.24936058
20231225 03:28:03,0.108573,0.116443,0.035851,-0.095517,-0.030765,0.301102,-7.849140,25.318745,-36.756645,14.614773,0.09162165,0.12044514,-0.07620621,0.15771265,-0.058108672,0.27301848
20231225 03:28:03,0.097977,0.167554,0.162976,-0.057164,-0.071248,0.316017,-7.778458,24.753159,-36.317116,14.301055,0.1750458,0.16218026,0.006537378,0.1980088,-0.094791025,0.2609746
20231225 03:28:03,0.108357,0.244083,0.128010,0.012083,-0.066987,0.326671,-7.637207,25.523392,-36.767891,13.78286,0.15189125,0.24135618,-0.03549777,0.25289494,-0.08661385,0.21555853
20231225 03:28:03,0.051880,0.172174,0.060269,0.089854,-0.056334,0.323475,-7.867069,25.128704,-36.744423,14.130864,0.06856051,0.17074603,-0.02727421,0.3022196,-0.071239285,0.15425348
20231225 03:28:03,0.178244,-0.164768,-0.131134,0.139925,-0.048876,0.304298,-7.784851,25.216328,-35.677559,12.640638,0.03350289,-0.15324596,-0.19265705,0.31879604,-0.055297047,0.109651424
20231225 03:28:03,0.397246,-0.469891,-0.132392,0.165494,-0.075510,0.249966,-7.769108,24.656288,-36.042763,10.379395,0.18152659,-0.46870896,-0.31757867,0.29498166,-0.07571633,0.060992643
20231225 03:28:03,0.694026,-0.655573,-0.201861,0.168690,-0.143692,0.167934,-7.831478,23.799263,-35.719490,8.950326,0.32175732,-0.6754352,-0.5669302,0.23459125,-0.14350064,0.009406738
20231225 03:28:03,0.814442,-0.777993,-0.417515,0.152709,-0.220397,0.085902,-7.787041,24.466251,-36.030540,7.687665,0.21933079,-0.82296413,-0.8071161,0.15820014,-0.22228663,-0.033669952
20231225 03:28:03,0.902212,-0.886288,-0.782574,0.114357,-0.281122,0.001740,-7.796772,24.755009,-36.585365,6.747975,-0.029863417,-0.96687764,-1.1214077,0.06262945,-0.28565517,-0.062336877
20231225 03:28:03,0.884212,-0.833175,-1.100044,0.053632,-0.343978,-0.077096,-8.227802,25.192654,-36.484245,6.738737,-0.33774143,-0.9438589,-1.3146179,-0.04669129,-0.35038662,-0.06442064
20231225 03:28:03,0.899840,-0.835145,-1.486277,-0.029465,-0.347174,-0.158063,-8.449467,25.276768,-37.027824,6.681241,-0.6663661,-0.97775465,-1.5587964,-0.1652202,-0.35490304,-0.048711255
20231225 03:28:03,0.897256,-0.702033,-1.471286,-0.116824,-0.362089,-0.242225,-8.309254,24.721256,-36.990166,7.187362,-0.66787297,-0.8224923,-1.5436141,-0.2837084,-0.3699035,-0.024641246
20231225 03:28:03,0.766092,-0.491361,-1.558335,-0.218032,-0.355696,-0.328518,-8.730934,25.062038,-36.614693,9.358869,-0.81056273,-0.5552559,-1.4830761,-0.40433094,-0.36049527,0.01677595
20231225 03:28:03,0.543587,-0.192746,-1.351378,-0.327763,-0.369546,-0.405223,-9.534229,24.910431,-36.880745,12.988034,-0.7512007,-0.1665494,-1.1993487,-0.51529604,-0.36711615,0.07487939
20231225 03:28:03,0.193815,0.093494,-1.030838,-0.425775,-0.417487,-0.473406,-9.046452,25.409195,-36.104622,15.750234,-0.69894075,0.17625096,-0.77690053,-0.60416496,-0.4057617,0.12653568
20231225 03:28:03,-0.235366,0.476642,-0.687130,-0.514199,-0.466493,-0.525608,-9.143265,25.305954,-35.964867,18.430588,-0.7318307,0.5276061,-0.31611115,-0.675121,-0.4487457,0.1832785
20231225 03:28:03,-0.617976,0.902830,-0.220970,-0.563205,-0.502714,-0.557568,-9.206017,24.640816,-35.922066,20.977877,-0.6945714,0.84311575,0.13752997,-0.7066643,-0.48008588,0.21598575
20231225 03:28:03,-1.009569,1.237524,0.136313,-0.561074,-0.504845,-0.578875,-9.661369,25.351589,-35.169167,23.77035,-0.78146195,1.0170435,0.52714604,-0.6980533,-0.4709329,0.21630451
20231225 03:28:03,-1.482323,1.554075,0.448529,-0.505676,-0.460101,-0.578875,-9.936440,24.673695,-35.395607,26.493282,-0.99678135,1.1074468,0.9165257,-0.65074164,-0.4121514,0.1712971
20231225 03:28:03,-1.867963,1.760123,0.765134,-0.398076,-0.398310,-0.540523,-9.461353,25.094921,-36.088234,27.482233,-1.1572794,1.0672848,1.282127,-0.55000675,-0.3350429,0.09195089
20231225 03:28:03,-2.325691,1.826291,0.977230,-0.259580,-0.327997,-0.470210,-9.796345,26.019596,-36.687798,28.944498,-1.4268517,0.8790398,1.653665,-0.41213578,-0.24999776,0.0113011
20231225 03:28:03,-2.573250,1.726891,1.122516,-0.107236,-0.276861,-0.369002,-10.016861,25.528042,-36.389961,29.957787,-1.5411603,0.643891,1.888241,-0.24606006,-0.19013849,-0.053554803
20231225 03:28:04,-2.551701,1.439955,1.170732,0.045109,-0.245966,-0.262467,-9.899544,26.379517,-35.908501,28.852936,-1.4226646,0.40984786,2.0150275,-0.077998385,-0.15382977,-0.1111874
20231225 03:28:04,-2.253758,1.104518,0.961793,0.192127,-0.235312,-0.174043,-10.490906,26.432556,-36.185783,28.111229,-1.2251365,0.30732816,1.8097088,0.07542693,-0.1389974,-0.16477484
20231225 03:28:04,-1.781778,0.747849,0.598412,0.324230,-0.212940,-0.123972,-10.096123,25.806717,-36.542931,26.22189,-0.99458504,0.23399556,1.4147625,0.18645078,-0.113092974,-0.24311432
20231225 03:28:04,-1.374232,0.507477,0.163829,0.436092,-0.175653,-0.103730,-9.892769,25.724457,-36.267586,24.585775,-0.9201407,0.21751903,0.95963293,0.2582759,-0.07343162,-0.33255902
20231225 03:28:04,-1.083072,0.344275,-0.261946,0.520254,-0.133039,-0.101599,-10.500908,25.011795,-35.691231,24.944084,-0.9723866,0.20628577,0.5547271,0.2964153,-0.026366336,-0.41260657
20231225 03:28:04,-0.973866,0.298301,-0.558822,0.582045,-0.094686,-0.104795,-10.440338,24.926853,-36.086998,25.17697,-1.094539,0.24152663,0.34940574,0.310154,0.021647926,-0.48392767
20231225 03:28:04,-0.965219,0.574222,-0.857990,0.600156,-0.078706,-0.097338,-10.211517,23.995800,-35.622032,26.28295,-1.3622162,0.5864767,0.17705971,0.29520717,0.042223223,-0.51586294
20231225 03:28:04,-0.980569,1.124417,-1.201374,0.549019,-0.096817,-0.073900,-10.147995,24.277161,-35.103874,26.949398,-1.769806,1.2162179,-0.024461865,0.2593296,0.010033619,-0.47452044
20231225 03:28:04,-0.954401,1.639551,-1.505711,0.424373,-0.157542,-0.036613,-10.239563,24.286407,-36.445107,26.694378,-2.1284926,1.8096726,-0.19416463,0.21685001,-0.08357886,-0.35064223
20231225 03:28:04,-0.739488,2.091117,-1.743401,0.231545,-0.239574,0.002805,-10.397705,24.651875,-36.470543,24.690542,-2.282751,2.3181267,-0.46021292,0.1579192,-0.2087094,-0.15945253
20231225 03:28:04,-0.324865,2.499998,-1.880988,-0.011354,-0.270469,0.045419,-11.340828,24.863884,-36.493767,20.726355,-2.109833,2.6784813,-0.85735744,0.06686212,-0.27411377,0.07032772
20231225 03:28:04,0.168657,2.720919,-1.629993,-0.284083,-0.244900,0.067791,-11.340828,24.863884,-36.493767,16.249554,-1.4446397,2.775196,-1.2478828,-0.06654458,-0.25191525,0.31350204
20231225 03:28:04,0.470546,2.633799,-0.751080,-0.530179,-0.201221,0.066726,-10.663811,24.068996,-36.703072,13.2516365,-0.3500916,2.6262288,-1.1269212,-0.23717143,-0.19828403,0.50392747
20231225 03:28:04,0.643651,2.337650,0.348354,-0.723007,-0.155411,0.056072,-10.740501,24.905861,-36.222588,12.74543,0.71598035,2.3341272,-0.61015147,-0.41581926,-0.14449225,0.6167355
20231225 03:28:04,0.614160,1.789183,1.442164,-0.855110,-0.125581,0.047549,-10.625763,25.199154,-36.374550,13.247956,1.4586738,1.7950467,0.28457564,-0.5809835,-0.118748665,0.64981526
20231225 03:28:04,0.488837,0.924843,2.456547,-0.899855,-0.091490,0.049680,-10.571205,25.385490,-35.850288,14.259922,1.9074032,0.9203895,1.3829753,-0.67388237,-0.09435051,0.6146127
20231225 03:28:04,0.282978,0.014692,3.257201,-0.891332,-0.048876,0.058203,-10.719620,25.462204,-35.320900,16.36175,1.9714637,-0.030907223,2.4922235,-0.7229728,-0.0728415,0.53315306
20231225 03:28:04,0.079160,-0.823157,3.989699,-0.725138,0.054463,0.109340,-10.349541,25.301380,-35.306725,17.143251,1.9148321,-0.8982823,3.567084,-0.59534097,0.024456896,0.4111688
20231225 03:28:04,-0.138518,-1.563320,4.422462,-0.550420,0.042744,0.159411,-10.217255,25.976601,-35.751396,17.797682,1.6371292,-1.6598004,4.3673205,-0.44477585,0.012536304,0.34347808
20231225 03:28:04,-0.142683,-2.366893,4.573209,-0.337351,-0.025439,0.178587,-10.684525,26.226059,-35.906288,18.292204,1.434106,-2.4316087,4.836794,-0.25734773,-0.04046057,0.2806589
20231225 03:28:04,0.157437,-2.990148,4.504237,-0.080602,-0.144757,0.157280,-10.594879,27.176254,-35.967430,16.213896,1.5778158,-2.9972594,4.84593,-0.026522417,-0.14546423,0.20710418
20231225 03:28:04,0.560429,-3.102004,3.860290,0.191062,-0.252358,0.099752,-10.488724,27.182632,-35.832817,13.486868,1.8160655,-3.0690289,4.009043,0.21040128,-0.257699,0.08036974
20231225 03:28:04,1.029879,-2.956540,2.633065,0.395609,-0.285383,0.019850,-10.727928,26.884819,-36.083687,10.462588,1.9115789,-2.9294915,2.4169207,0.35719195,-0.31667387,-0.09925685
20231225 03:28:04,1.334903,-2.507985,1.473745,0.486163,-0.290710,-0.071770,-10.639702,26.701157,-35.936852,8.016756,1.7215463,-2.5422416,0.90729326,0.36777192,-0.34800622,-0.26793694
20231225 03:28:04,1.391954,-2.050182,0.513040,0.472314,-0.275795,-0.153801,-10.472595,26.430706,-35.917534,7.243319,1.268296,-2.1460085,-0.17607692,0.27614504,-0.33815223,-0.3686819
20231225 03:28:04,1.323745,-1.812621,0.217295,0.386021,-0.255554,-0.187892,-11.107628,25.432983,-35.322853,8.338014,1.0075288,-1.9152719,-0.4675306,0.15943176,-0.3092723,-0.35950935
20231225 03:28:04,1.203923,-1.285614,-0.366215,0.249656,-0.241704,-0.183631,-11.037712,25.251175,-35.444252,8.495032,0.54769796,-1.420171,-0.9301753,0.044553287,-0.2789094,-0.27509633
20231225 03:28:04,1.141520,-1.148287,-0.528207,0.095181,-0.251292,-0.155932,-11.594246,24.358551,-35.257561,9.644599,0.39866978,-1.2856197,-1.0105613,-0.05413883,-0.27073237,-0.14662506
20231225 03:28:04,1.030852,-1.163033,-0.554983,-0.067818,-0.268338,-0.120776,-11.107239,25.241096,-35.042381,9.440006,0.31350994,-1.2828128,-0.953387,-0.15056486,-0.27001393,-0.010733649
20231225 03:28:04,0.964843,-1.303127,-0.403913,-0.206313,-0.273665,-0.090946,-11.911308,25.473267,-35.869362,10.909137,0.4041138,-1.3954641,-0.73132527,-0.23381479,-0.26239067,0.102815084
20231225 03:28:04,0.956757,-1.441350,-0.013397,-0.258515,-0.275795,-0.084554,-11.285240,26.375969,-36.457939,9.86215,0.66700155,-1.5111421,-0.39219055,-0.273462,-0.25893292,0.12753567
20231225 03:28:04,0.953159,-1.530954,0.370992,-0.325632,-0.282187,-0.110122,-11.655319,26.536793,-36.472115,10.732472,0.9077238,-1.5764569,-0.02478978,-0.34400946,-0.2622513,0.14382906
20231225 03:28:04,0.884556,-1.506642,0.638608,-0.309652,-0.271534,-0.152736,-11.461311,26.551403,-36.471138,11.062141,1.0188087,-1.5308998,0.24235737,-0.3537099,-0.2570264,0.09761737
20231225 03:28:04,0.813087,-1.359663,0.802255,-0.289410,-0.255554,-0.176174,-11.548767,26.351284,-36.057030,12.548409,1.0833714,-1.3683158,0.40245646,-0.34599817,-0.24776778,0.07406394
20231225 03:28:04,0.561404,-1.053832,0.885469,-0.235077,-0.206548,-0.219853,-11.731239,26.989880,-35.430687,14.348233,0.9661417,-1.0519443,0.561336,-0.32242998,-0.20531255,0.010841101
20231225 03:28:04,0.263996,-0.717025,1.015772,-0.144523,-0.115993,-0.253944,-11.591789,26.818150,-35.953972,16.102528,0.83938265,-0.7263485,0.7689971,-0.26785198,-0.11502151,-0.0794497
20231225 03:28:04,-0.195003,-0.421099,1.171534,-0.081667,-0.053138,-0.244356,-12.058296,26.683830,-35.547920,19.362988,0.5847608,-0.48922485,1.1017057,-0.21156871,-0.046149723,-0.117714256
20231225 03:28:04,-0.606788,-0.226058,1.384052,-0.006028,-0.000936,-0.201742,-11.600754,26.723129,-35.947853,20.833372,0.3724539,-0.38956892,1.459254,-0.1266373,0.013812235,-0.145598
20231225 03:28:04,-0.981604,-0.159299,1.541911,0.093050,0.047005,-0.128233,-11.777214,27.090446,-36.241539,22.188824,0.16140467,-0.42104417,1.7781354,-0.0075096264,0.06976482,-0.1649401
20231225 03:28:04,-1.104031,-0.143238,1.577555,0.209173,0.093880,-0.030221,-11.618301,26.341202,-35.655144,22.667618,0.07646108,-0.43512556,1.8709642,0.13943955,0.122285426,-0.17753075
20231225 03:28:04,-1.096119,-0.334091,1.472947,0.322100,0.132233,0.075249,-11.318138,26.362190,-35.519569,22.028437,0.021937072,-0.5994126,1.850293,0.290571,0.16331248,-0.17637844
20231225 03:28:04,-0.849185,-0.558832,1.252026,0.419046,0.137560,0.166868,-11.045258,26.290009,-35.646111,20.082903,0.11696917,-0.724945,1.60274,0.42395148,0.16416056,-0.16657414
20231225 03:28:04,-0.417543,-0.813167,0.870461,0.475510,0.123710,0.225463,-11.293434,25.897171,-35.890877,18.026602,0.24311519,-0.86953646,1.1063137,0.507609,0.13915257,-0.1558484
20231225 03:28:04,0.020188,-1.015072,0.383064,0.491490,0.104534,0.244639,-10.878532,26.211449,-35.907265,14.449139,0.26190215,-1.0163169,0.47013712,0.53487605,0.10578212,-0.14832282
20231225 03:28:04,0.385650,-1.133348,0.014881,0.491490,0.104534,0.233985,-10.843437,26.975307,-36.492653,11.934699,0.27354333,-1.1435829,-0.06198324,0.5279917,0.095788114,-0.16246541
20231225 03:28:04,0.651482,-1.162402,-0.366816,0.475510,0.145017,0.202025,-10.951019,25.835072,-36.419304,10.758142,0.18131618,-1.2105992,-0.5442494,0.49428055,0.12952727,-0.19293027
20231225 03:28:04,0.768970,-1.084517,-0.421162,0.446745,0.182304,0.164738,-11.347610,25.518944,-36.134682,10.929268,0.20787928,-1.147468,-0.6812779,0.44643104,0.16535628,-0.21640258
20231225 03:28:04,0.743118,-0.915928,-0.572973,0.398805,0.228114,0.132777,-11.126328,25.626724,-35.871559,10.925582,0.07726818,-0.98123324,-0.79974574,0.38791314,0.21374017,-0.21932572
20231225 03:28:04,0.717015,-0.777607,-0.543804,0.371106,0.236637,0.121058,-11.346451,24.943275,-35.293266,12.006563,0.08530083,-0.8307833,-0.7698412,0.3573556,0.22544521,-0.21489641
20231225 03:28:04,0.649956,-0.585135,-0.430377,0.275224,0.233441,0.095490,-10.845512,24.323818,-35.515770,11.784595,0.11838135,-0.6248439,-0.6776449,0.268487,0.226609,-0.16660103
20231225 03:28:04,0.589992,-0.388565,-0.314733,0.207042,0.200415,0.097621,-10.748314,24.235180,-35.375053,12.556014,0.16774344,-0.4107813,-0.5813768,0.2184037,0.19775358,-0.11465079
20231225 03:28:04,0.531722,-0.257051,-0.297789,0.126076,0.141821,0.110405,-10.749855,25.002731,-36.496941,12.007238,0.1395312,-0.2788816,-0.550531,0.17063719,0.1415032,-0.03828211
20231225 03:28:04,0.516608,-0.211285,-0.243594,0.051501,0.093880,0.128516,-10.562241,25.480511,-35.856407,11.776257,0.16960524,-0.2319777,-0.51052654,0.13160786,0.09610785,0.03535101
20231225 03:28:04,0.566639,-0.180106,-0.177999,-0.003897,0.070443,0.147692,-10.361458,24.840061,-36.214516,11.187242,0.25426197,-0.20435865,-0.5075208,0.106868714,0.075546056,0.09303912
20231225 03:28:04,0.647670,-0.172098,-0.099348,-0.030531,0.083227,0.161542,-10.695679,25.380959,-36.253151,11.149233,0.37209803,-0.20047867,-0.5102326,0.09801997,0.09064296,0.12093245
20231225 03:28:04,0.664510,-0.236999,0.075871,-0.026269,0.122645,0.168999,-10.485931,24.835533,-36.617378,10.934307,0.5174232,-0.25978208,-0.38121006,0.104437485,0.13002133,0.12007576
20231225 03:28:04,0.693163,-0.316667,0.347001,-0.002831,0.147148,0.160476,-10.334953,25.317009,-36.513329,10.540331,0.7298935,-0.33204448,-0.18249802,0.11339255,0.1535147,0.09744747
20231225 03:28:04,0.697405,-0.412269,0.573973,0.013149,0.145017,0.148758,-10.289352,25.408333,-35.982948,10.871254,0.8867136,-0.4189164,0.009199262,0.11453273,0.14969043,0.07936361
20231225 03:28:04,0.643549,-0.397651,0.745603,0.052567,0.127972,0.109340,-9.901352,25.437550,-35.980995,10.635818,0.9635721,-0.39614245,0.16807824,0.11635326,0.12949017,0.027093895
20231225 03:28:04,0.581309,-0.343012,0.709677,0.129272,0.085358,0.039027,-10.131210,25.042866,-35.957512,11.682121,0.9006144,-0.3408769,0.16479897,0.12326213,0.08298158,-0.07260112
20231225 03:28:04,0.461528,-0.249139,0.496116,0.188931,0.086423,-0.002522,-10.342766,24.646328,-35.665810,13.034051,0.67475986,-0.24884585,0.058472186,0.1332245,0.08467406,-0.14855808
20231225 03:28:04,0.266557,-0.130455,0.146113,0.232610,0.117318,-0.029156,-10.034401,25.146114,-36.097282,14.417869,0.2917316,-0.12808518,-0.075558215,0.13515943,0.12276796,-0.20902573
20231225 03:28:04,0.077425,0.007899,0.030019,0.242199,0.134364,-0.032352,-9.689800,25.834084,-36.272728,14.717012,0.07393036,0.009394813,-0.039185487,0.13376866,0.14363128,-0.22334269
20231225 03:28:04,-0.306902,0.246562,-0.177559,0.239003,0.157801,-0.014241,-9.937981,25.441246,-36.517494,18.043463,-0.35566252,0.23725988,0.07164952,0.13194449,0.17599963,-0.22157945
20231225 03:28:04,-0.513727,0.326629,-0.217824,0.202781,0.165259,0.049680,-10.177193,25.143433,-36.768364,19.125189,-0.53112984,0.301525,0.18574618,0.15305625,0.17623572,-0.1584914
20231225 03:28:04,-0.460630,0.264798,-0.257627,0.174016,0.160997,0.097621,-9.761520,25.073929,-36.223808,18.057936,-0.517393,0.25083125,0.13765539,0.17240608,0.16444501,-0.10439654
20231225 03:28:04,-0.380172,0.188144,-0.301774,0.161232,0.157801,0.116797,-9.788029,24.596985,-35.924995,17.607944,-0.4890165,0.18589202,0.07108492,0.17993534,0.1583658,-0.08303404
20231225 03:28:04,-0.278872,0.149209,-0.493463,0.114357,0.173782,0.173261,-9.621304,24.518421,-36.186165,16.866549,-0.5664732,0.16712473,-0.11659996,0.19331823,0.16749267,-0.013756953
20231225 03:28:04,-0.138707,0.059876,-0.426527,0.100507,0.173782,0.188175,-9.825691,23.274940,-35.973061,16.608639,-0.4177393,0.07734588,-0.16910568,0.19826698,0.16741142,0.007636167
20231225 03:28:04,-0.080070,0.020714,-0.506256,0.078135,0.192958,0.207352,-9.241108,23.876961,-35.336678,14.994116,-0.43722373,0.03957726,-0.2602044,0.19983162,0.18657856,0.038249798
20231225 03:28:04,0.071203,-0.114080,-0.396066,0.089854,0.234506,0.188175,-9.375313,24.161186,-36.294365,13.99223,-0.24681976,-0.10140319,-0.28921777,0.1940648,0.23135464,0.015781224
20231225 03:28:04,0.090919,-0.155795,-0.316494,0.104769,0.246225,0.175391,-9.445232,24.342995,-36.172951,14.355514,-0.17248765,-0.14292736,-0.24520425,0.19288018,0.24332578,-0.0068255216
20231225 03:28:04,-0.010399,-0.043229,-0.363534,0.133533,0.262205,0.172195,-8.900230,24.582409,-36.986992,14.271964,-0.28074682,-0.026997065,-0.21395226,0.20548366,0.259085,-0.035157263
20231225 03:28:04,-0.043944,0.014368,-0.333879,0.134598,0.252617,0.183914,-8.917393,24.008591,-36.413826,14.006362,-0.28413177,0.025636088,-0.17697729,0.217621,0.24961405,-0.02759713
20231225 03:28:04,0.135095,0.084077,-0.466218,0.110095,0.214265,0.212678,-8.706226,24.597019,-36.986015,11.628856,-0.27767232,0.08866589,-0.40323135,0.23281531,0.21326907,0.01849448
20231225 03:28:04,0.576383,0.030971,-0.726007,0.067481,0.184435,0.235051,-8.493908,24.609779,-36.716789,7.586927,-0.20406765,-0.033593908,-0.90213466,0.23530446,0.19382875,0.07758178
20231225 03:28:04,0.725454,0.010115,-0.692285,0.012083,0.142886,0.238247,-8.714806,24.310112,-36.699425,6.7228265,-0.08937287,-0.08315561,-0.99627066,0.20399185,0.15908743,0.12700307
20231225 03:28:04,0.990468,-0.002421,-0.862402,-0.045445,0.127972,0.219071,-8.396713,24.521137,-36.576057,4.4119687,-0.049741387,-0.17505571,-1.3104167,0.15461306,0.15348652,0.16569674
20231225 03:28:04,1.120500,0.048777,-0.796939,-0.098713,0.149279,0.143431,-8.299522,24.432499,-36.435341,4.047871,0.087130666,-0.135993,-1.3738234,0.06574668,0.17203748,0.15981682
20231225 03:28:04,1.008887,0.112075,-0.586565,-0.093386,0.192958,0.074183,-8.502872,24.514759,-36.710670,6.548503,0.19466406,0.011348374,-1.1579559,0.011748597,0.20283629,0.10501272
20231225 03:28:04,0.635266,0.270346,-0.349429,-0.063556,0.225984,0.015589,-8.157887,25.010845,-36.605659,9.682555,0.13838583,0.2591452,-0.73814183,-0.025549103,0.22682199,0.034604065
20231225 03:28:04,0.411638,0.348605,-0.238530,-0.042249,0.232376,-0.001457,-8.210907,24.056950,-36.008034,12.000309,0.071366236,0.35980943,-0.51212204,-0.032567706,0.23164696,9.138482E-4
20231225 03:28:04,-0.071077,0.517169,-0.136777,0.000365,0.228114,-0.008914,-7.999355,24.453491,-36.299751,14.708683,-0.18682179,0.5205674,-0.11173312,-0.022685282,0.22781973,-0.04238097
20231225 03:28:04,-0.390650,0.637007,-0.182667,0.042978,0.212134,0.015589,-7.771297,23.906212,-36.395744,16.757013,-0.45355636,0.61708766,0.0827287,0.01589529,0.21210918,-0.062412776
20231225 03:28:04,-0.640731,0.772175,-0.463912,0.073874,0.197219,0.093359,-8.272629,24.717556,-36.453682,18.40629,-0.8515519,0.7598485,0.10465866,0.0920227,0.18950418,-0.043485712
20231225 03:28:04,-0.586418,0.772137,-0.721961,0.076004,0.196154,0.124255,-7.860298,24.473648,-37.103508,17.001898,-1.0138148,0.7997439,-0.056490093,0.12089117,0.185753,-0.026019357
20231225 03:28:04,-0.474886,0.735032,-0.820906,0.064285,0.199350,0.180718,-7.595989,24.114555,-36.943474,14.343257,-0.9997654,0.77023315,-0.16687185,0.16881405,0.18775997,0.018820904
20231225 03:28:04,-0.011669,0.549307,-1.109703,0.019541,0.206807,0.220136,-7.727242,24.765087,-36.987236,12.187074,-0.94314647,0.59334254,-0.66911566,0.18402135,0.19816871,0.08084125
20231225 03:28:04,0.177078,0.410264,-1.222624,-0.000701,0.212134,0.221201,-7.850563,24.184891,-36.548683,11.815645,-0.92066973,0.4485762,-0.86882365,0.17603377,0.20564409,0.098234095
20231225 03:28:04,0.224158,0.386021,-1.187851,-0.033727,0.230245,0.209482,-7.417347,24.497318,-36.296822,10.800956,-0.8534243,0.41345778,-0.89297223,0.14771135,0.22539628,0.12072551
20231225 03:28:04,0.213827,0.257793,-1.186964,-0.062491,0.231310,0.198829,-7.205410,24.701965,-36.308067,10.62597,-0.8467831,0.28776544,-0.87992936,0.12017546,0.22575745,0.13966745
20231225 03:28:04,0.211594,0.172621,-1.152459,-0.095517,0.232376,0.192437,-7.153427,24.330116,-36.417259,10.630806,-0.8156987,0.20257205,-0.85168743,0.095055714,0.2262736,0.16294304
20231225 03:28:04,0.202450,0.178228,-1.122843,-0.127477,0.225984,0.192437,-6.960190,24.728504,-36.977226,10.2630005,-0.79690385,0.20769157,-0.82824296,0.076408826,0.21927378,0.19055805
20231225 03:28:04,0.204764,0.226635,-1.138798,-0.167960,0.221722,0.204156,-6.967354,25.575451,-36.898613,10.149903,-0.8114729,0.25603384,-0.8424051,0.06303675,0.21419092,0.23081216
20231225 03:28:04,0.212931,0.265656,-1.074077,-0.214836,0.205742,0.222267,-6.647724,25.018925,-35.653358,9.405388,-0.7488063,0.28105226,-0.81891376,0.051610425,0.20097317,0.28287804
20231225 03:28:04,0.357304,0.381679,-1.024921,-0.254254,0.185500,0.232920,-6.938919,25.092953,-35.795067,8.401784,-0.61711234,0.3679367,-0.91626465,0.041762978,0.18993622,0.32516533
20231225 03:28:04,0.475838,0.528567,-1.004903,-0.285149,0.184435,0.213744,-6.525822,24.465267,-35.883949,6.9007425,-0.5352066,0.4901946,-0.99811405,0.01685962,0.19607784,0.34258413
20231225 03:28:04,0.535339,0.709910,-1.005479,-0.288345,0.192958,0.200960,-6.341553,24.768631,-36.437813,6.9710755,-0.5075314,0.6805712,-1.0567999,0.0054220706,0.20136279,0.33730328
20231225 03:28:04,0.401687,0.919990,-1.025395,-0.283018,0.222788,0.167934,-6.412621,25.526108,-37.157799,8.368094,-0.6267278,0.92616355,-0.9776622,-0.021229595,0.22106668,0.30924517
20231225 03:28:04,0.177076,1.165110,-0.917969,-0.270234,0.243029,0.137039,-6.412235,25.334221,-36.877342,10.590255,-0.7081511,1.2078586,-0.77430737,-0.049182802,0.22901808,0.27408606
20231225 03:28:05,-0.072535,1.294017,-0.847890,-0.251058,0.254748,0.128516,-5.970440,25.933559,-36.912071,12.238872,-0.8447963,1.3536388,-0.5620868,-0.057094388,0.22860785,0.24770084
20231225 03:28:05,-0.284367,1.421267,-0.795519,-0.224424,0.281382,0.141300,-5.969669,25.549782,-36.351112,13.242124,-0.95096076,1.4699159,-0.3916697,-0.03988055,0.25025204,0.2261611
20231225 03:28:05,-0.387372,1.424402,-0.623967,-0.193529,0.308015,0.167934,-5.661694,26.241451,-37.063057,12.4768505,-0.86232924,1.4471691,-0.22127403,-0.0064148307,0.27729118,0.2139849
20231225 03:28:05,-0.287208,1.289030,-0.467127,-0.157307,0.328257,0.193502,-5.670273,25.954544,-36.776466,10.490621,-0.6168283,1.2996507,-0.19449717,0.03900145,0.3098131,0.2042422
20231225 03:28:05,-0.061085,1.089226,-0.350882,-0.089125,0.347433,0.212678,-5.697170,25.669483,-36.758125,8.645452,-0.33876446,1.0957985,-0.26775527,0.10386433,0.34069622,0.16776732
20231225 03:28:05,0.205128,0.920204,-0.315243,-0.063556,0.352760,0.209482,-5.291615,26.080635,-37.048882,7.1583076,-0.12466083,0.92401314,-0.42763287,0.12065595,0.35064748,0.15219466
20231225 03:28:05,0.500659,0.719639,-0.264053,-0.011354,0.368740,0.183914,-5.069950,25.996521,-36.505302,5.120978,0.12738603,0.7043483,-0.59486866,0.14364856,0.37289983,0.10365952
20231225 03:28:05,0.638471,0.683609,-0.331111,0.040848,0.383655,0.134908,-4.858017,26.201168,-36.516563,4.707069,0.15538248,0.6625766,-0.7400123,0.14041278,0.3859902,0.03214244
20231225 03:28:05,0.568188,0.828424,-0.408411,0.091984,0.425204,0.084837,-4.399708,25.856693,-36.355522,5.2782135,0.013855964,0.823338,-0.7439101,0.1254795,0.42529514,-0.047075786
20231225 03:28:05,0.489857,1.148302,-0.489253,0.135664,0.461426,0.042223,-4.480778,25.193409,-36.580986,6.4949474,-0.13055259,1.1587797,-0.75581944,0.10701798,0.46205392,-0.116617866
20231225 03:28:05,0.264258,1.669056,-0.580407,0.128206,0.477406,-0.005718,-4.117477,25.687641,-36.207726,7.82861,-0.42050597,1.7006867,-0.6560513,0.042826887,0.48071012,-0.14607376
20231225 03:28:05,0.083508,2.374068,-0.652475,0.045109,0.436923,-0.022763,-3.763908,26.470638,-36.389275,9.119451,-0.70413756,2.4197774,-0.5948069,-0.031144787,0.4389967,-0.08574995
20231225 03:28:05,-0.133281,2.705635,-0.702549,-0.116824,0.364479,-0.024894,-3.800922,26.666225,-37.206245,10.774551,-0.9640176,2.751779,-0.5016757,-0.12149126,0.35646316,0.05245492
20231225 03:28:05,-0.194604,2.712055,-0.416684,-0.296868,0.310146,0.000674,-3.342613,26.321743,-37.045235,8.693235,-0.6702038,2.72256,-0.29164225,-0.1882079,0.2929275,0.22196338
20231225 03:28:05,0.098205,2.380470,0.207415,-0.418317,0.316538,0.013458,-3.088039,26.251415,-37.440025,5.7909665,0.14779453,2.3746343,-0.09687877,-0.26927587,0.3048987,0.30778816
20231225 03:28:05,0.276918,1.949109,1.100022,-0.469454,0.366610,-0.022763,-2.909779,26.826061,-37.073845,5.595825,0.9355487,1.921841,0.41134456,-0.34670997,0.35380146,0.30484626
20231225 03:28:05,0.153679,1.440126,2.081809,-0.446016,0.415616,-0.087750,-3.403950,26.790459,-37.210396,8.2759905,1.3872124,1.3341997,1.3096175,-0.4181313,0.39110273,0.17797275
20231225 03:28:05,-0.136408,1.064384,2.918491,-0.374638,0.410289,-0.147409,-2.943836,27.387951,-36.976891,8.287562,1.66207,0.87424123,2.2084928,-0.4079371,0.38958707,0.077102154
20231225 03:28:05,-0.458974,0.909492,3.522155,-0.272365,0.355956,-0.175108,-2.246319,27.341286,-36.564995,8.950012,1.694042,0.5837474,2.9265482,-0.34931493,0.33921057,-0.015169248
20231225 03:28:05,-0.704267,0.788429,3.708961,-0.139196,0.301623,-0.154867,-2.451859,26.673470,-37.193291,10.120362,1.5410067,0.38923222,3.2474606,-0.22824095,0.29569393,-0.083105475
20231225 03:28:05,-0.782728,0.512146,3.582329,0.022737,0.268598,-0.093076,-2.309837,27.059929,-37.083138,10.099078,1.4112327,0.10548082,3.2383428,-0.059017055,0.2764161,-0.12549537
20231225 03:28:05,-0.625594,0.210917,3.159047,0.169755,0.285643,-0.019567,-1.743183,27.471909,-36.434532,8.582575,1.3145545,-0.10235585,2.8709803,0.10396129,0.30279803,-0.14979373
20231225 03:28:05,-0.352854,-0.324406,2.701724,0.284813,0.315473,0.031569,-1.903515,27.087299,-36.812935,7.747176,1.2702184,-0.52042735,2.4318714,0.23191406,0.33682728,-0.17244157
20231225 03:28:05,-0.094021,-0.942224,2.425491,0.362583,0.317604,0.051811,-1.772266,26.436768,-36.769173,6.885312,1.2982177,-1.0661619,2.1563058,0.31529295,0.3410862,-0.18845496
20231225 03:28:05,0.126419,-1.525046,2.114327,0.406262,0.256879,0.045419,-1.631668,25.689373,-36.451042,5.9507837,1.2819238,-1.5944144,1.8514656,0.3588073,0.27945867,-0.19929361
20231225 03:28:05,0.320255,-2.015406,1.760574,0.415850,0.134364,0.026243,-1.701969,26.063072,-36.610115,5.2174206,1.2460995,-2.0483537,1.488121,0.3649715,0.15341158,-0.2042099
20231225 03:28:05,0.486947,-2.418108,1.272645,0.387086,-0.022242,-0.000391,-1.367096,27.039806,-37.340401,3.197631,1.1103868,-2.423814,0.9485912,0.3309603,-0.013315545,-0.20020199
20231225 03:28:05,0.984913,-2.905754,0.450788,0.307185,-0.212940,-0.062181,-2.003670,26.809643,-37.867577,0.6449079,1.0125529,-2.9274206,-0.109939605,0.22345674,-0.22455804,-0.21306404
20231225 03:28:05,1.122400,-2.988602,0.249990,0.283747,-0.256619,-0.090946,-1.200375,26.961246,-37.601540,-1.6958886,0.9740517,-3.0354025,-0.46896684,0.18100859,-0.2749859,-0.23590173
20231225 03:28:05,1.403935,-3.117759,-0.280362,0.243264,-0.272599,-0.160193,-1.878811,26.622280,-37.184242,-2.8399053,0.824888,-3.241694,-1.1424296,0.09715243,-0.30228922,-0.27954736
20231225 03:28:05,1.529829,-3.126298,-0.618668,0.201715,-0.222528,-0.242225,-2.099709,26.322613,-37.166893,-3.4102912,0.6355499,-3.3020256,-1.5541713,0.0033891797,-0.25913423,-0.3249703
20231225 03:28:05,1.575728,-2.927505,-0.908842,0.111161,-0.125581,-0.350891,-1.888157,26.719151,-37.458611,-3.1831176,0.50025177,-3.1160033,-1.8065095,-0.13185221,-0.15947951,-0.35150012
20231225 03:28:05,1.302118,-2.666357,-0.615015,-0.025204,-0.141561,-0.474471,-1.553940,26.178249,-37.419975,4.091982,0.7047528,-2.6049469,-1.1428443,-0.31161255,-0.12979981,-0.3463454
20231225 03:28:05,0.603250,-2.264093,-0.308429,-0.163699,-0.185241,-0.563960,-2.178589,26.409401,-37.039375,7.6272373,0.41767368,-2.187361,-0.38258973,-0.46811157,-0.16192773,-0.31335187
20231225 03:28:05,-0.163214,-1.712420,0.171546,-0.260646,-0.218267,-0.581006,-2.205097,25.932453,-36.740547,12.778602,0.19840279,-1.7243514,0.52704555,-0.5326007,-0.18046084,-0.23871124
20231225 03:28:05,-0.853216,-1.280840,0.591487,-0.305390,-0.228920,-0.529869,-2.026070,26.123325,-35.813438,15.405541,-0.09933004,-1.5099964,1.2438256,-0.51935184,-0.1963521,-0.16140695
20231225 03:28:05,-1.307820,-0.958421,0.945749,-0.308586,-0.227855,-0.427596,-2.186401,25.738716,-36.191841,17.59334,-0.2974066,-1.4015397,1.743796,-0.45161653,-0.21112618,-0.077023685
20231225 03:28:05,-1.606822,-0.705004,1.199157,-0.281953,-0.217201,-0.283774,-2.178589,26.409401,-37.039375,17.762835,-0.4476322,-1.2869935,2.0549333,-0.3474405,-0.22230989,0.009909391
20231225 03:28:05,-1.578373,-0.632636,1.526090,-0.229751,-0.226789,-0.128233,-2.567364,26.763962,-37.602257,17.23313,-0.27942735,-1.2287127,2.2626996,-0.21875039,-0.24795148,0.09336367
20231225 03:28:05,-1.322527,-0.687624,1.626745,-0.163699,-0.238508,0.006001,-2.407036,27.148567,-37.223854,14.742398,-0.016539156,-1.1578696,2.192027,-0.09328973,-0.26398557,0.15119724
20231225 03:28:05,-0.852302,-0.771839,1.557172,-0.107236,-0.239574,0.100817,-2.397301,26.859810,-36.669029,10.157819,0.31625533,-0.99966276,1.8453915,-0.0043943524,-0.25835434,0.17753369
20231225 03:28:05,-0.274312,-0.881639,1.410327,-0.068883,-0.231051,0.144496,-2.107254,27.361446,-37.368752,8.32944,0.68163615,-0.999601,1.3835926,0.04701662,-0.24597912,0.18251866
20231225 03:28:05,0.188311,-1.065331,1.307015,-0.047576,-0.224659,0.130647,-2.442123,26.384712,-36.638466,6.4070673,0.9689586,-1.1037574,1.0269768,0.048070848,-0.23171216,0.15278119
20231225 03:28:05,0.470225,-1.204236,1.274784,-0.031596,-0.216136,0.074183,-2.503841,27.045319,-37.084114,5.6664014,1.1632411,-1.2208809,0.84662044,0.02419397,-0.21927291,0.095572166
20231225 03:28:05,0.453069,-1.243047,1.342147,0.001430,-0.201221,0.001740,-2.625362,27.407089,-36.573067,6.373602,1.1953689,-1.2662445,0.9290138,0.009372302,-0.2008355,0.018686535
20231225 03:28:05,0.231608,-1.176198,1.416990,0.053632,-0.183110,-0.061116,-2.511658,26.374630,-36.236595,7.622146,1.0771718,-1.228182,1.1267822,0.017062109,-0.17545798,-0.060872756
20231225 03:28:05,-0.041303,-1.014684,1.466944,0.115422,-0.175653,-0.111187,-2.502308,26.277767,-35.962227,9.358037,0.9088357,-1.1194859,1.3198259,0.040003873,-0.15454678,-0.13392818
20231225 03:28:05,-0.333859,-0.840767,1.432918,0.179343,-0.177783,-0.137821,-2.829361,25.971718,-36.079475,11.311559,0.67780375,-1.0076412,1.4481541,0.07606569,-0.14041527,-0.18880485
20231225 03:28:05,-0.507168,-0.728754,1.197806,0.237937,-0.179914,-0.146344,-2.821938,26.834290,-37.207466,12.090003,0.43026257,-0.91990507,1.3475091,0.113953374,-0.12824856,-0.23179807
20231225 03:28:05,-0.593643,-0.577624,0.931367,0.278420,-0.176718,-0.145279,-2.830902,26.739273,-37.201363,12.882154,0.21770713,-0.77174413,1.1732906,0.14075476,-0.11401281,-0.25891817
20231225 03:28:05,-0.655797,-0.551179,0.665814,0.300793,-0.168195,-0.138886,-2.591690,27.037090,-36.950493,12.920811,0.021380365,-0.72988373,1.0127456,0.15624705,-0.10003742,-0.27350128
20231225 03:28:05,-0.686594,-0.506844,0.330589,0.298662,-0.146888,-0.120776,-3.113132,26.908321,-37.349190,13.976833,-0.20279282,-0.649795,0.79377943,0.15741068,-0.07965157,-0.26458192
20231225 03:28:05,-0.655159,-0.464510,0.165514,0.268832,-0.138365,-0.099469,-2.583107,27.323994,-37.237068,12.938369,-0.29326183,-0.5760169,0.6453798,0.14617386,-0.080944575,-0.23389569
20231225 03:28:05,-0.560308,-0.541988,0.094045,0.226218,-0.141561,-0.086684,-3.370277,26.420464,-37.587822,13.811146,-0.26517564,-0.625099,0.547225,0.1240564,-0.09392149,-0.19299789
20231225 03:28:05,-0.483342,-0.645219,0.055632,0.192127,-0.142627,-0.083488,-2.874691,27.589920,-37.659233,11.976831,-0.23027124,-0.70422506,0.47070757,0.099350296,-0.105049655,-0.17068084
20231225 03:28:05,-0.375476,-0.760484,0.000785,0.169755,-0.130908,-0.088815,-2.839481,26.452366,-36.914787,12.001398,-0.17804871,-0.7966291,0.3742417,0.078387424,-0.09626217,-0.16038443
20231225 03:28:05,-0.304433,-0.887474,-0.004511,0.159101,-0.112797,-0.097338,-2.804386,27.216221,-37.500175,11.197244,-0.12552905,-0.91123503,0.33093375,0.062621936,-0.08152159,-0.16263261
20231225 03:28:05,-0.268028,-0.893545,0.010298,0.159101,-0.107470,-0.107991,-3.016323,27.011570,-37.488930,11.463593,-0.088678785,-0.9145127,0.32039058,0.05471956,-0.07522047,-0.1705808
20231225 03:28:05,-0.280759,-0.884295,-0.000520,0.168690,-0.107470,-0.117579,-3.069729,26.249565,-37.171776,11.832372,-0.100676745,-0.90557534,0.3249503,0.05359236,-0.072176926,-0.18400219
20231225 03:28:05,-0.235439,-0.787275,-0.134830,0.180408,-0.106405,-0.127168,-2.778530,26.175537,-37.030067,11.159908,-0.17070831,-0.78836405,0.18110262,0.050346553,-0.07009968,-0.20137215
20231225 03:28:05,-0.184666,-0.674285,-0.315866,0.181474,-0.098948,-0.131429,-3.150028,25.202503,-36.836281,11.896683,-0.27316168,-0.64838403,0.01747173,0.042108715,-0.06160605,-0.20623161
20231225 03:28:05,-0.183330,-0.597258,-0.470163,0.168690,-0.082967,-0.129298,-3.183315,25.380608,-36.178383,11.638505,-0.39666986,-0.5540689,-0.09311178,0.028780103,-0.048730634,-0.19874415
20231225 03:28:05,-0.128545,-0.478659,-0.527168,0.139925,-0.078706,-0.132494,-3.071148,25.115711,-36.963799,11.021351,-0.4218787,-0.42784962,-0.1874792,0.003985435,-0.049443647,-0.18097569
20231225 03:28:05,-0.033101,-0.398843,-0.548169,0.098377,-0.102144,-0.139952,-2.965755,25.505867,-37.390144,10.764322,-0.38446411,-0.33747974,-0.28239226,-0.027399257,-0.07609969,-0.1521231
20231225 03:28:05,-0.025026,-0.297120,-0.503183,0.049371,-0.131973,-0.148475,-3.263733,26.234955,-37.172752,11.200399,-0.3586132,-0.23886952,-0.2663784,-0.06362135,-0.10868186,-0.11587709
20231225 03:28:05,-0.094703,-0.154124,-0.459671,0.006757,-0.149019,-0.152736,-3.574661,25.176979,-37.374733,12.269461,-0.3863924,-0.10599859,-0.20056644,-0.09146403,-0.12771837,-0.08197932
20231225 03:28:05,-0.253558,0.010142,-0.263802,-0.018812,-0.168195,-0.146344,-3.254768,26.329971,-37.178856,13.037431,-0.36342633,0.01559162,0.018170536,-0.09613767,-0.14665765,-0.055220604
20231225 03:28:05,-0.416919,0.098868,-0.237771,-0.035857,-0.199090,-0.117579,-3.466316,25.933437,-36.887154,13.843674,-0.46497124,0.077589616,0.14547995,-0.080279514,-0.1821024,-0.016930502
20231225 03:28:05,-0.487664,0.015900,-0.169710,-0.034792,-0.187371,-0.087750,-3.663277,25.552532,-37.802040,14.195249,-0.45144886,-0.024177786,0.25114122,-0.059329137,-0.17513727,-1.5548244E-4
20231225 03:28:05,-0.416444,0.059321,-0.108784,-0.030531,-0.191633,-0.061116,-3.342613,26.321743,-37.045235,12.7941475,-0.3660143,0.022291943,0.22997242,-0.03910231,-0.1838505,0.011229392
20231225 03:28:05,-0.321012,-0.132127,-0.104994,-0.022008,-0.180979,-0.041940,-3.432259,25.371548,-36.984093,12.30567,-0.27764264,-0.15355726,0.18555145,-0.02329111,-0.1758446,0.014549587
20231225 03:28:05,-0.125886,-0.223429,-0.090962,-0.011354,-0.176718,-0.039809,-3.244652,25.849327,-36.343559,10.157583,-0.13125245,-0.22412568,0.05756725,-0.020229902,-0.17259416,0.0028001368
20231225 03:28:05,0.110123,-0.410967,-0.118867,0.014214,-0.145823,-0.056855,-3.077541,25.578880,-36.324242,8.646293,0.018595092,-0.39303258,-0.11843693,-0.021065496,-0.14008008,-0.03382857
20231225 03:28:05,0.256138,-0.420445,-0.149113,0.046175,-0.107470,-0.088815,-3.166153,25.954426,-36.751549,7.7680306,0.09219118,-0.39684474,-0.2484661,-0.02639813,-0.0995923,-0.084052846
20231225 03:28:05,0.330100,-0.505898,-0.107299,0.081331,-0.087229,-0.132494,-3.378857,26.133556,-37.301247,8.371576,0.18221045,-0.47768733,-0.26116085,-0.03384834,-0.07380934,-0.14058027
20231225 03:28:05,0.219633,-0.466342,-0.127399,0.120749,-0.078706,-0.187892,-3.766865,26.104340,-37.303200,10.178414,0.09684246,-0.43551576,-0.18957043,-0.046930365,-0.05310593,-0.20508417
20231225 03:28:05,-0.043998,-0.276151,-0.156363,0.164428,-0.088294,-0.231572,-3.564278,26.405857,-37.588799,12.534029,-0.1091133,-0.25695965,-0.028371103,-0.05086258,-0.03857164,-0.2601903
20231225 03:28:05,-0.422224,0.080958,-0.390420,0.188931,-0.101078,-0.244356,-3.476048,26.222195,-37.441978,15.732934,-0.57589006,0.0866567,0.073630944,-0.04436566,-0.02352811,-0.2778987
20231225 03:28:05,-0.828895,0.347673,-0.627547,0.184670,-0.120254,-0.218788,-3.723843,25.637470,-37.406273,19.297396,-1.0654496,0.32547083,0.21597224,-0.020847395,-0.02656475,-0.2482159
20231225 03:28:05,-1.135456,0.463513,-0.798016,0.160167,-0.135169,-0.156997,-3.669670,26.015697,-37.162468,20.828476,-1.4152493,0.41102183,0.3329945,0.019029707,-0.050790064,-0.1869475
20231225 03:28:05,-1.098144,0.296004,-0.826869,0.121814,-0.161803,-0.076031,-3.821037,25.726112,-37.546989,19.1796,-1.3696756,0.27216396,0.31622604,0.05713713,-0.11332436,-0.107101515
20231225 03:28:05,-0.695974,0.156896,-0.796466,0.082396,-0.205482,-0.011045,-3.766865,26.104340,-37.303200,15.285397,-1.0681539,0.19598898,0.042777777,0.0788489,-0.18683262,-0.037564028
20231225 03:28:05,-0.208202,-0.029651,-0.745788,0.024868,-0.248096,0.004936,-4.127590,26.168289,-37.043022,11.653717,-0.70308596,0.032725595,-0.29138443,0.046013653,-0.2441193,0.0150267845
20231225 03:28:05,0.234235,-0.144810,-0.702556,-0.049707,-0.299233,-0.009979,-4.330563,26.058662,-37.037880,8.848583,-0.3877353,-0.094595544,-0.60569674,-0.02238756,-0.3001571,0.061384074
20231225 03:28:05,0.556581,-0.199536,-0.636716,-0.132804,-0.354631,-0.049397,-4.030785,26.271534,-37.182762,5.88537,-0.13404211,-0.1848707,-0.8193947,-0.11789124,-0.3553819,0.094293684
20231225 03:28:05,0.791799,-0.214886,-0.589509,-0.211640,-0.398310,-0.116514,-4.080849,25.683945,-35.671242,4.9010687,0.05985099,-0.22352107,-0.9719965,-0.22837177,-0.3978651,0.10858331
20231225 03:28:05,0.845165,-0.174516,-0.426139,-0.268103,-0.414291,-0.200677,-4.507286,24.716461,-36.282173,5.8385825,0.23293352,-0.1756939,-0.904263,-0.3277829,-0.41425726,0.09893815
20231225 03:28:05,0.617257,-0.092231,-0.147084,-0.289410,-0.391918,-0.291231,-4.436722,26.052280,-37.172493,8.135478,0.31003013,-0.064242624,-0.545972,-0.39444077,-0.39025205,0.05760917
20231225 03:28:05,0.101687,0.062956,0.262346,-0.260646,-0.353566,-0.364740,-4.770557,26.401291,-36.930656,12.573856,0.251086,0.04601157,0.09557553,-0.40554485,-0.33895037,-0.0069147944
20231225 03:28:05,-0.572868,0.217864,0.779376,-0.174353,-0.323736,-0.396701,-4.797451,26.116234,-36.912331,16.316204,0.08940831,0.0072926357,0.89157844,-0.34674388,-0.28330696,-0.08540474
20231225 03:28:05,-1.180599,0.375813,1.087111,-0.049707,-0.316279,-0.388178,-4.858398,26.393059,-36.797020,19.150312,-0.20053351,-0.080230325,1.4693394,-0.2339128,-0.24002126,-0.15541112
20231225 03:28:05,-1.622844,0.531868,0.934900,0.086658,-0.305625,-0.342368,-5.200432,26.263275,-35.988121,21.618473,-0.6515912,-0.07547851,1.6193886,-0.09761649,-0.19289786,-0.20722997
20231225 03:28:05,-1.837847,0.694805,0.752361,0.223022,-0.303494,-0.261401,-4.954826,26.097923,-36.376793,22.908085,-0.94049615,0.009232447,1.6193085,0.055104032,-0.16281429,-0.24588256
20231225 03:28:05,-1.838249,0.750016,0.261984,0.331688,-0.289645,-0.158063,-5.148060,25.699535,-35.816841,23.599407,-1.2284824,0.19060078,1.3460498,0.18590316,-0.14802904,-0.26899666
20231225 03:28:05,-1.577595,0.752189,-0.394231,0.406262,-0.274730,-0.055789,-4.894642,26.204868,-37.053047,22.550749,-1.4674737,0.47567186,0.8441771,0.28383917,-0.15516034,-0.2875392
20231225 03:28:05,-1.384064,0.702256,-0.724484,0.423308,-0.268338,-0.009979,-4.876328,26.203018,-36.784798,21.475554,-1.5554891,0.5873676,0.56572616,0.3133219,-0.16927686,-0.2888232
20231225 03:28:05,-0.672513,0.487084,-1.594607,0.390282,-0.269403,0.067791,-5.406357,25.787346,-36.896919,18.724953,-1.7704442,0.7232252,-0.3050254,0.31870994,-0.22365552,-0.25259697
20231225 03:28:05,-0.302690,0.350300,-2.042561,0.300793,-0.282187,0.081641,-5.670273,25.954544,-36.776466,16.496744,-1.9521631,0.66378224,-0.7496426,0.26605484,-0.26153225,-0.18383503
20231225 03:28:05,0.027253,0.221157,-2.313284,0.169755,-0.293906,0.064595,-5.501362,26.626060,-36.684654,13.277504,-2.0301268,0.49434584,-1.1180406,0.17173286,-0.28803945,-0.087408625
20231225 03:28:06,0.195010,0.321691,-2.407424,0.014214,-0.310952,0.033700,-6.128197,26.107136,-36.657021,13.104043,-2.0526156,0.56820315,-1.3070604,0.06701805,-0.31157964,0.035948996
20231225 03:28:06,0.211323,0.398955,-2.206971,-0.147719,-0.324801,-0.005718,-5.715485,25.671333,-37.026375,12.204668,-1.8430003,0.60841143,-1.2870255,-0.04809856,-0.33009964,0.15963404
20231225 03:28:06,0.079017,0.500229,-1.788587,-0.276626,-0.345043,-0.039809,-6.074024,26.485367,-36.413231,13.759459,-1.5157406,0.6990544,-1.0529629,-0.14225715,-0.3568605,0.25742593
20231225 03:28:06,-0.085394,0.587253,-1.205104,-0.366115,-0.366350,-0.061116,-6.022041,26.113514,-36.522423,14.26673,-1.0929016,0.71457076,-0.6857942,-0.21756619,-0.3855084,0.31724727
20231225 03:28:06,-0.242618,0.719821,-0.647892,-0.406598,-0.396180,-0.071770,-6.488926,26.171085,-36.396843,15.1498375,-0.7420583,0.766696,-0.29960823,-0.25576404,-0.41993058,0.34430236
20231225 03:28:06,-0.376887,0.772920,-0.247365,-0.397010,-0.410029,-0.077096,-6.418629,25.797386,-36.237785,15.310166,-0.51855725,0.75709176,0.014357835,-0.26056623,-0.43414634,0.32988933
20231225 03:28:06,-0.432521,0.810865,0.093456,-0.350135,-0.410029,-0.089880,-6.020622,27.247372,-36.730385,14.482328,-0.30178708,0.7483734,0.25885487,-0.24564439,-0.42902806,0.2780212
20231225 03:28:06,-0.534901,0.946108,0.284179,-0.276626,-0.392984,-0.105861,-6.480347,26.457996,-36.683434,15.757219,-0.2514906,0.8413501,0.41767925,-0.21015023,-0.40387982,0.21358088
20231225 03:28:06,-0.766576,1.092775,0.422786,-0.185006,-0.363154,-0.113318,-6.672165,27.193462,-36.331429,17.23884,-0.34352466,0.9133152,0.63478273,-0.15119587,-0.36286122,0.14027427
20231225 03:28:06,-1.007629,1.247439,0.512970,-0.095517,-0.333324,-0.098403,-6.620178,26.821617,-36.440605,18.447556,-0.48363653,0.98754376,0.8248901,-0.07948637,-0.32243404,0.08041985
20231225 03:28:06,-1.180720,1.347883,0.549814,-0.014550,-0.310952,-0.063247,-7.025730,26.410469,-36.149879,19.588402,-0.5981207,1.0377443,0.93974507,-0.0016807616,-0.29364726,0.04010537
20231225 03:28:06,-1.237867,1.473557,0.551924,0.057893,-0.307756,-0.017437,-7.122540,26.307220,-36.010109,20.004023,-0.647521,1.143831,0.96097577,0.080008075,-0.28707057,0.012338035
20231225 03:28:06,-1.238427,1.637188,0.386940,0.104769,-0.313082,0.033700,-7.015999,26.121708,-35.595024,19.661798,-0.76717496,1.3460042,0.8576739,0.14734791,-0.2957826,0.0024800636
20231225 03:28:06,-1.056635,1.869495,0.129432,0.102638,-0.332259,0.086967,-7.376728,26.185658,-35.334862,18.947378,-0.8293663,1.6807184,0.56929207,0.18433258,-0.32722977,0.028873201
20231225 03:28:06,-0.765578,1.987409,-0.207601,0.046175,-0.349304,0.138104,-7.033161,25.547894,-35.021873,16.135221,-0.84770644,1.9258064,0.20523459,0.18174532,-0.3584873,0.09205294
20231225 03:28:06,-0.268691,1.927555,-0.352384,-0.045445,-0.342912,0.177522,-7.255207,25.823891,-35.845924,12.522353,-0.5510764,1.9324436,-0.2115577,0.1393747,-0.35392562,0.17804918
20231225 03:28:06,0.150741,1.814698,-0.233948,-0.173287,-0.352500,0.189241,-7.757305,27.019016,-36.464806,9.708641,-0.101359755,1.8147488,-0.4368049,0.05170791,-0.35254726,0.2846134
20231225 03:28:06,0.458188,1.619703,0.025692,-0.238273,-0.356762,0.184979,-7.633221,27.215435,-36.342430,7.941702,0.34749022,1.609544,-0.48292953,-0.011395112,-0.34632376,0.3309703
20231225 03:28:06,0.613721,1.382531,0.518253,-0.378899,-0.320540,0.153019,-7.500549,27.698765,-36.506630,7.1338563,0.8434634,1.3802286,-0.23534346,-0.14653105,-0.30276683,0.4111947
20231225 03:28:06,0.624338,1.069901,0.994760,-0.425775,-0.275795,0.124255,-7.640377,28.062382,-36.263817,7.4835863,1.1801426,1.0809251,0.14989346,-0.21927875,-0.25817335,0.4149301
20231225 03:28:06,0.539193,0.742027,1.527091,-0.447082,-0.238508,0.099752,-7.533836,27.876873,-35.848732,8.069638,1.4393785,0.76195234,0.6833459,-0.27017066,-0.22538838,0.39780778
20231225 03:28:06,0.400464,0.291965,2.104994,-0.434297,-0.227855,0.080575,-8.107651,28.311840,-36.418724,9.756467,1.6342477,0.30244115,1.3257809,-0.28914678,-0.22379889,0.36436293
20231225 03:28:06,0.273024,-0.081526,2.367282,-0.383161,-0.220397,0.068856,-8.116234,28.024937,-36.132133,10.213637,1.6062979,-0.07484945,1.7412522,-0.2711674,-0.2183802,0.31084728
20231225 03:28:06,0.191095,-0.570695,2.717604,-0.264907,-0.171391,0.045419,-7.789558,28.522869,-36.295357,9.959293,1.6574593,-0.5672,2.2096467,-0.19616681,-0.17074907,0.20814902
20231225 03:28:06,0.113006,-0.917094,2.811444,-0.091255,-0.076575,0.003870,-7.859474,28.704681,-36.173943,10.698482,1.5689319,-0.92947847,2.4420671,-0.075438485,-0.077295005,0.063024335
20231225 03:28:06,-0.017255,-1.122725,3.186647,0.147383,-0.011589,-0.054724,-7.834000,27.855881,-35.984322,12.202077,1.6295602,-1.1806667,2.8922057,0.09910489,-0.0060480274,-0.11905852
20231225 03:28:06,-0.342227,-1.139226,3.033708,0.404132,0.023567,-0.103730,-7.851547,27.473953,-35.691612,13.9088545,1.3515115,-1.2706469,2.9132106,0.28750676,0.051721364,-0.3038777
20231225 03:28:06,-0.666522,-0.976799,2.478368,0.635312,0.021437,-0.122906,-7.984215,26.990627,-35.527412,15.701115,0.94982755,-1.1865354,2.544603,0.44489455,0.085317284,-0.46999592
20231225 03:28:06,-0.853131,-0.652394,1.545658,0.806833,0.031025,-0.103730,-7.854118,26.915764,-36.325066,16.065334,0.39647794,-0.8582665,1.8218809,0.54568183,0.1180338,-0.60492396
20231225 03:28:06,-0.798775,-0.453434,0.545269,0.910172,0.062985,-0.060051,-7.809292,27.390862,-36.355629,16.17343,-0.13689494,-0.5809451,1.0245991,0.59424955,0.1574864,-0.6977176
20231225 03:28:06,-0.723927,-0.370070,-0.245124,0.949590,0.119449,0.007066,-7.651150,27.025394,-36.330208,15.639296,-0.62143314,-0.40493128,0.45719755,0.61610585,0.19956245,-0.7335912
20231225 03:28:06,-0.500050,-0.378788,-0.870995,0.926152,0.171651,0.084837,-7.847340,26.260712,-36.684151,14.802022,-0.95747614,-0.33756927,-0.07411468,0.629462,0.22488528,-0.7000453
20231225 03:28:06,-0.267926,-0.523171,-1.232160,0.837728,0.175912,0.160476,-8.119072,25.757225,-35.716194,13.3238325,-1.1179125,-0.47108817,-0.434172,0.6228697,0.19885054,-0.5999644
20231225 03:28:06,0.139585,-0.801189,-1.542143,0.688579,0.154605,0.223332,-7.900360,25.306816,-36.086540,8.32378,-1.1770668,-0.8523308,-0.9547222,0.59538066,0.14536446,-0.43328604
20231225 03:28:06,0.623254,-1.165975,-1.604722,0.494686,0.090684,0.255292,-7.699196,24.474480,-36.164162,3.2702193,-1.0094124,-1.3872402,-1.4303415,0.5120976,0.07577644,-0.2398137
20231225 03:28:06,1.090220,-1.559896,-1.734597,0.274159,0.038482,0.251031,-7.793816,25.121307,-35.671455,-0.97543395,-0.88162166,-1.991038,-1.9636035,0.36983997,0.041628566,-0.05020219
20231225 03:28:06,1.438498,-1.830662,-1.558585,0.033390,-0.026504,0.218005,-7.549366,25.531620,-36.901543,-3.6192071,-0.52273166,-2.3415086,-2.1873035,0.17270382,0.012736119,0.11974748
20231225 03:28:06,1.665476,-2.070998,-1.331940,-0.197790,-0.063791,0.165803,-7.662300,26.180302,-36.677055,-4.543915,-0.10773355,-2.6074388,-2.2297828,-0.04582618,0.015405562,0.2526012
20231225 03:28:06,1.839264,-2.293903,-0.795347,-0.388487,-0.078706,0.089098,-7.855919,25.973801,-36.397560,-4.0323105,0.49442583,-2.7539086,-1.9122227,-0.25804865,0.028124874,0.31314147
20231225 03:28:06,1.862742,-2.370840,-0.165827,-0.523787,-0.077641,-0.005718,-7.821865,25.411915,-36.494530,-1.9205378,1.0470017,-2.6905644,-1.3103112,-0.4346175,0.027578106,0.3065187
20231225 03:28:06,1.712082,-2.446817,0.496376,-0.603688,-0.072314,-0.105861,-7.943768,25.965569,-36.263939,0.45649996,1.4092064,-2.6286368,-0.53185236,-0.5664125,0.019622784,0.2509939
20231225 03:28:06,1.447491,-2.427141,1.006392,-0.638844,-0.066987,-0.198546,-7.652950,26.083431,-36.402702,2.7804506,1.5579231,-2.5030088,0.17477089,-0.65020376,-3.4691207E-4,0.17682149
20231225 03:28:06,1.132840,-2.328900,1.515875,-0.647367,-0.073379,-0.275251,-7.747955,26.922146,-36.190453,5.5568666,1.6315382,-2.3350365,0.8908699,-0.6991092,-0.03217731,0.10921499
20231225 03:28:06,0.782732,-2.204195,1.935935,-0.628191,-0.087229,-0.321061,-7.571499,26.554829,-35.896782,7.4428887,1.5883634,-2.1815834,1.501937,-0.7065711,-0.06430544,0.05458033
20231225 03:28:06,0.525978,-2.097790,2.146596,-0.586642,-0.098948,-0.346629,-8.020458,26.802441,-35.783440,9.565306,1.4972483,-2.078349,1.8717214,-0.68276656,-0.08888936,0.011679769
20231225 03:28:06,0.272973,-1.968168,2.518333,-0.512068,-0.112797,-0.359413,-8.206264,27.266628,-36.351463,10.719105,1.4837312,-1.9598236,2.326513,-0.6235174,-0.11064044,-0.032765597
20231225 03:28:06,0.219073,-1.796278,2.668194,-0.405533,-0.106405,-0.370067,-7.993179,26.895607,-35.521309,10.903415,1.520216,-1.7935252,2.454819,-0.53628546,-0.10600425,-0.09484744
20231225 03:28:06,0.209551,-1.639246,2.653635,-0.274495,-0.104274,-0.396701,-7.931580,28.136410,-36.405510,10.597036,1.5358919,-1.6414905,2.3955677,-0.43839258,-0.10433849,-0.17879002
20231225 03:28:06,0.123632,-1.436430,2.464732,-0.132804,-0.079771,-0.432922,-8.171173,28.030483,-36.936867,11.374558,1.449058,-1.4554691,2.2038057,-0.34515214,-0.07784722,-0.27192122
20231225 03:28:06,-0.000693,-1.040198,2.147722,-0.001766,-0.040353,-0.461687,-8.081524,28.980679,-36.997993,12.043793,1.2796507,-1.0907196,1.8799955,-0.27032134,-0.029335845,-0.35834402
20231225 03:28:06,-0.239649,-0.517118,1.718701,0.107965,0.005457,-0.472340,-8.011612,28.798866,-37.119408,13.785348,0.93116075,-0.62312895,1.5361527,-0.21606526,0.037823766,-0.42378962
20231225 03:28:06,-0.591663,0.005010,1.233633,0.184670,0.051267,-0.447837,-8.179371,27.551685,-36.369804,17.178217,0.40239227,-0.1868871,1.2632974,-0.1735058,0.11702226,-0.44943517
20231225 03:28:06,-1.088015,0.475990,0.792921,0.219826,0.094946,-0.380720,-8.479534,27.530697,-36.505394,20.501638,-0.2744326,0.17533235,1.182598,-0.12924954,0.18566512,-0.4290132
20231225 03:28:06,-1.394528,0.872005,0.467978,0.237937,0.143952,-0.265663,-8.569565,26.772392,-36.724739,22.519054,-0.76321137,0.5148463,1.1019034,-0.05892931,0.2304839,-0.37793833
20231225 03:28:06,-1.567054,1.067054,0.245734,0.253917,0.192958,-0.126102,-8.091526,27.559914,-36.503441,22.603819,-1.0674645,0.6918318,1.0671203,0.03368728,0.25758263,-0.31675488
20231225 03:28:06,-1.535724,1.013892,-0.010467,0.261375,0.240899,0.021981,-7.970009,27.198147,-37.014503,22.405066,-1.2123278,0.70649964,0.9145094,0.13515404,0.2733309,-0.24553911
20231225 03:28:06,-1.279913,0.788087,-0.181866,0.250721,0.282447,0.157280,-7.642185,27.120415,-36.336311,20.00785,-1.0987239,0.610549,0.693166,0.22959705,0.28451785,-0.15847154
20231225 03:28:06,-0.835706,0.472395,-0.231742,0.227284,0.295231,0.257423,-7.086681,26.687298,-36.034569,16.534033,-0.7780866,0.40509406,0.39905837,0.30409676,0.28366297,-0.06551528
20231225 03:28:06,-0.360444,0.084522,-0.295003,0.207042,0.288839,0.319213,-7.491852,26.084263,-35.463356,13.898161,-0.46478668,0.08244525,0.06571148,0.35546815,0.2784243,0.0049925745
20231225 03:28:06,0.080542,-0.291411,-0.443498,0.179343,0.283512,0.341586,-7.783051,26.158291,-35.605049,11.418999,-0.27015874,-0.27978384,-0.3114232,0.3677119,0.27934673,0.05218014
20231225 03:28:06,0.480714,-0.568927,-0.576917,0.145252,0.289905,0.341586,-7.414124,26.573135,-36.432289,7.8751945,-0.114925504,-0.59308726,-0.68779314,0.35696316,0.29477596,0.09429394
20231225 03:28:06,0.785236,-0.755005,-0.528315,0.116487,0.295231,0.310690,-7.344589,26.583214,-36.834160,6.0279045,0.119178236,-0.8169,-0.87695134,0.3199703,0.30456826,0.10647893
20231225 03:28:06,0.938977,-0.892993,-0.501102,0.079200,0.297362,0.259554,-7.573036,27.322388,-37.018669,5.362465,0.24004501,-0.9780174,-0.963084,0.2592932,0.30766112,0.10383158
20231225 03:28:06,0.981409,-0.975490,-0.376101,0.054697,0.293101,0.196698,-6.965546,26.517414,-36.826103,5.1157904,0.37126344,-1.0480486,-0.8988744,0.19403955,0.30015048,0.0808767
20231225 03:28:06,0.836902,-0.852964,-0.231436,0.048305,0.294166,0.134908,-6.869125,26.812553,-37.246315,6.7021227,0.39945084,-0.88289297,-0.68664646,0.13831341,0.2964424,0.035735928
20231225 03:28:06,0.539259,-0.684947,-0.125508,0.055763,0.308015,0.104013,-6.787285,27.092064,-36.459923,8.992955,0.29378414,-0.68075186,-0.39570567,0.111247316,0.30769277,-0.0013488159
20231225 03:28:06,0.249808,-0.568069,0.066969,0.071743,0.313342,0.098686,-6.435524,26.933094,-36.713997,10.108598,0.24083999,-0.5620884,-0.059902,0.111065514,0.3122458,-0.021024361
20231225 03:28:06,0.099803,-0.522128,0.253321,0.102638,0.304819,0.110405,-6.656807,26.825317,-36.977104,11.35653,0.27188522,-0.5278526,0.17968334,0.13690236,0.3039196,-0.037829384
20231225 03:28:06,0.070347,-0.433206,0.324533,0.144187,0.282447,0.122124,-6.392883,26.658112,-37.097542,10.7738,0.29613966,-0.44280887,0.23352575,0.17671339,0.28289542,-0.054199405
20231225 03:28:06,0.124867,-0.435669,0.307704,0.183604,0.261140,0.126385,-6.674351,26.443390,-36.684410,10.843527,0.32239634,-0.44175926,0.18005726,0.20933364,0.26274335,-0.078462705
20231225 03:28:06,0.218041,-0.438237,0.097491,0.209173,0.241964,0.127451,-6.012691,26.016647,-36.248055,9.3944,0.2319569,-0.43517107,-0.042701475,0.23020127,0.2436285,-0.092352495
20231225 03:28:06,0.302709,-0.356037,-0.065243,0.216630,0.225984,0.121058,-6.560646,25.410931,-36.347939,9.488015,0.15949176,-0.35057655,-0.2289401,0.23121431,0.22710563,-0.10622062
20231225 03:28:06,0.400836,-0.281128,-0.351959,0.195323,0.216396,0.113601,-6.588310,25.509651,-36.890541,8.914157,-0.0062978864,-0.27534002,-0.5023965,0.21123719,0.21681902,-0.09788633
20231225 03:28:06,0.482156,-0.288261,-0.561030,0.150579,0.217461,0.102948,-6.077366,26.310955,-37.607613,7.2310257,-0.12663305,-0.29353368,-0.703135,0.17649114,0.21733661,-0.06839519
20231225 03:28:06,0.578690,-0.222756,-0.605783,0.094115,0.228114,0.086967,-5.723412,26.902058,-37.508705,6.3779726,-0.09990555,-0.23539822,-0.81391454,0.12966703,0.22819328,-0.03350886
20231225 03:28:06,0.588625,-0.249384,-0.434480,0.046175,0.238768,0.063530,-5.820225,26.798809,-37.368965,6.8338985,0.054082215,-0.25561482,-0.7080776,0.079842016,0.23891541,-0.012301706
20231225 03:28:06,0.521754,-0.239439,-0.195189,0.009953,0.223853,0.034765,-5.916649,26.503677,-36.948753,8.165821,0.20381574,-0.23190641,-0.49558765,0.030036148,0.22353218,-0.0056946427
20231225 03:28:06,0.350942,-0.220095,0.036294,-0.008158,0.207873,0.011328,-5.704716,26.708321,-36.959999,9.494012,0.27234003,-0.20935377,-0.20943417,-0.004791965,0.20692842,-0.009647721
20231225 03:28:06,0.152206,-0.080338,0.232692,-0.002831,0.182304,-0.002522,-5.944309,26.602390,-37.491341,10.71073,0.2782532,-0.08501383,0.05154617,-0.013218598,0.18185233,-0.02239613
20231225 03:28:06,-0.005919,0.046270,0.240705,0.031260,0.174847,-0.011045,-5.564503,26.152813,-36.922340,11.847987,0.17121585,0.027245572,0.15490326,-7.416513E-4,0.1769016,-0.054419123
20231225 03:28:06,-0.218534,0.249080,0.115138,0.074939,0.178043,-0.004653,-5.467690,26.256062,-37.062080,13.237561,-0.07927221,0.21568777,0.20266959,0.026199626,0.18342957,-0.08650793
20231225 03:28:06,-0.371027,0.434260,-0.116890,0.110095,0.206807,0.017720,-5.416473,26.267990,-37.732216,14.511159,-0.37763053,0.40511417,0.15175489,0.055523857,0.21302095,-0.10769671
20231225 03:28:06,-0.487276,0.650219,-0.317061,0.133533,0.232376,0.052876,-5.255371,26.268822,-36.792854,15.078242,-0.6369246,0.6317745,0.100492656,0.08863577,0.23553619,-0.11201258
20231225 03:28:06,-0.513538,0.718237,-0.483856,0.150579,0.262205,0.094425,-5.627640,25.679562,-37.160011,15.779501,-0.7938194,0.7220849,0.024612576,0.12477528,0.26004088,-0.110026956
20231225 03:28:06,-0.435605,0.708296,-0.663159,0.162297,0.289905,0.128516,-5.080719,24.959538,-36.571693,14.8376875,-0.8855189,0.74756163,-0.12341669,0.1559248,0.28361407,-0.10303095
20231225 03:28:06,-0.325302,0.580492,-0.764710,0.156971,0.290970,0.142365,-5.001835,24.872746,-36.699211,14.218797,-0.88123035,0.64412796,-0.24591222,0.16639066,0.28286412,-0.089557916
20231225 03:28:06,-0.207063,0.477471,-0.888265,0.139925,0.264336,0.153019,-5.152168,25.908901,-37.572166,13.386345,-0.8956803,0.5618796,-0.39042795,0.17237778,0.25483724,-0.064173445
20231225 03:28:06,-0.082195,0.354374,-1.020243,0.119684,0.233441,0.155150,-4.994026,25.543434,-37.546730,11.886323,-0.9152094,0.4459077,-0.54056793,0.17198753,0.22470896,-0.039629966
20231225 03:28:06,0.110059,0.230227,-1.150827,0.115422,0.222788,0.145562,-4.676315,25.946350,-37.703850,10.254198,-0.90639,0.3243962,-0.74721146,0.16737475,0.21654354,-0.037803717
20231225 03:28:06,0.220951,0.152149,-1.350793,0.105834,0.234506,0.129581,-4.463997,25.959110,-37.434624,9.651316,-1.0268991,0.25972885,-0.916061,0.1487563,0.22913696,-0.041681163
20231225 03:28:06,0.281308,0.175639,-1.551049,0.077070,0.263271,0.119993,-4.481544,25.577183,-37.141930,8.992995,-1.1829827,0.2781433,-1.0543922,0.12660258,0.25827652,-0.025313322
20231225 03:28:06,0.374870,0.249161,-1.679172,0.021672,0.282447,0.107209,-4.436337,25.860394,-36.892036,8.697504,-1.2534721,0.3547875,-1.1994599,0.08701999,0.27660716,0.014206812
20231225 03:28:06,0.372146,0.293042,-1.574736,-0.053968,0.280316,0.099752,-4.588089,25.762691,-37.557014,9.1000595,-1.1549857,0.40070182,-1.1616105,0.039175346,0.27161512,0.07443095
20231225 03:28:06,0.381173,0.363193,-1.404678,-0.129608,0.250487,0.097621,-4.518555,25.772770,-37.958885,8.268928,-0.98675287,0.43993205,-1.1041731,-4.0066987E-4,0.24159727,0.1417137
20231225 03:28:06,0.431239,0.375602,-1.145062,-0.189267,0.217461,0.093359,-4.376156,25.967342,-37.568260,7.544095,-0.7188008,0.42752838,-1.0214142,-0.036864802,0.20918866,0.19258723
20231225 03:28:06,0.505988,0.365240,-0.911904,-0.231881,0.191893,0.085902,-4.349644,26.444290,-37.867073,6.6674185,-0.4561562,0.39350814,-0.96266544,-0.06909924,0.18621072,0.22536154
20231225 03:28:06,0.608287,0.271223,-0.749142,-0.249992,0.166324,0.076314,-3.952286,26.376637,-37.590752,5.0287733,-0.23946539,0.27344057,-0.9473969,-0.088035695,0.16583988,0.23735389
20231225 03:28:06,0.738209,0.266920,-0.588012,-0.253188,0.139690,0.057138,-3.988533,26.188450,-37.846779,4.1168,-0.018176436,0.25056994,-0.9541852,-0.10559087,0.14320885,0.23006424
20231225 03:28:06,0.889331,0.236597,-0.525538,-0.254254,0.117318,0.029439,-3.979565,26.283466,-37.852898,3.0143745,0.13690275,0.19715692,-1.0321026,-0.12860535,0.124534406,0.21525899
20231225 03:28:06,0.969282,0.199526,-0.492022,-0.254254,0.102403,-0.011045,-4.367573,26.254250,-37.854851,3.2235212,0.21520898,0.15343958,-1.0734487,-0.16117376,0.10917021,0.19027217
20231225 03:28:07,0.951154,0.272894,-0.422773,-0.254254,0.101338,-0.060051,-3.803871,26.299923,-38.120155,3.7644315,0.26072624,0.25452122,-1.0193293,-0.20290014,0.103509426,0.15854695
20231225 03:28:07,0.771633,0.403795,-0.308253,-0.253188,0.094946,-0.098403,-3.925392,26.661697,-37.609093,5.317416,0.23249908,0.41061264,-0.81919587,-0.23470616,0.094187185,0.13276829
20231225 03:28:07,0.565774,0.527315,-0.203365,-0.245731,0.078966,-0.119710,-4.031933,26.847202,-38.024178,7.251712,0.17175421,0.5516973,-0.6101072,-0.24932107,0.07599505,0.112730436
20231225 03:28:07,0.353457,0.753004,-0.091094,-0.231881,0.058724,-0.126102,-3.555698,26.692768,-37.875389,8.224032,0.09705594,0.7741274,-0.4004277,-0.24545038,0.055005673,0.10103405
20231225 03:28:07,0.145489,0.962810,-0.083173,-0.207378,0.049136,-0.117579,-4.076374,26.180218,-37.713158,10.326305,-0.062066153,0.9740413,-0.27035058,-0.22333024,0.04514297,0.08864476
20231225 03:28:07,-0.010847,1.172685,-0.125971,-0.175418,0.037417,-0.101599,-4.073803,26.738403,-37.079704,11.398616,-0.2334626,1.1746069,-0.20493554,-0.18996403,0.033772446,0.075835474
20231225 03:28:07,-0.116374,1.365479,-0.245329,-0.146653,0.027829,-0.078162,-3.485783,26.510952,-37.996803,11.042081,-0.4242074,1.3702195,-0.19830996,-0.15159066,0.024386466,0.071316816
20231225 03:28:07,-0.055987,1.431551,-0.407646,-0.120020,0.051267,-0.058985,-3.722424,26.771324,-37.614235,11.175978,-0.5275477,1.4597559,-0.34288296,-0.12260708,0.047863513,0.05937864
20231225 03:28:07,-0.014490,1.397602,-0.524458,-0.099778,0.077900,-0.046201,-3.935123,26.950451,-38.163918,11.144694,-0.58973813,1.4418415,-0.43671888,-0.10324571,0.074596,0.04734253
20231225 03:28:07,0.046724,1.309926,-0.577374,-0.089125,0.080031,-0.043005,-4.490623,27.383572,-38.465675,11.558444,-0.58580613,1.3644273,-0.5091795,-0.09437916,0.07733305,0.040260397
20231225 03:28:07,0.050196,1.269757,-0.732350,-0.086994,0.083227,-0.044070,-3.863022,27.518723,-37.932365,10.987895,-0.71350443,1.3437587,-0.5822023,-0.094348,0.080770865,0.03864638
20231225 03:28:07,0.030352,1.174596,-0.817365,-0.085929,0.100273,-0.047267,-4.139629,27.608379,-39.280678,11.636025,-0.7901208,1.2615726,-0.6095265,-0.0989101,0.09790301,0.033523716
20231225 03:28:07,0.026408,1.072482,-0.875613,-0.083798,0.121580,-0.050463,-3.926929,27.429249,-38.730995,11.622404,-0.8248977,1.168845,-0.63587344,-0.10357167,0.11928723,0.02644718
20231225 03:28:07,-0.124397,0.970370,-0.737217,-0.073144,0.130102,-0.049397,-4.218510,27.695164,-39.153160,13.240123,-0.7986893,1.0472977,-0.45062867,-0.10078889,0.12757178,0.013546342
20231225 03:28:07,-0.217414,0.905831,-0.605316,-0.047576,0.135429,-0.034482,-3.979679,28.184872,-39.182747,13.05696,-0.73679864,0.9545927,-0.30265176,-0.07511227,0.13306183,-4.508961E-4
20231225 03:28:07,-0.205597,0.815389,-0.540709,0.003561,0.158867,-0.009979,-4.111965,27.509659,-38.738075,13.365572,-0.6649673,0.85724974,-0.2681984,-0.028463699,0.1580875,-0.030906813
20231225 03:28:07,-0.174635,0.783386,-0.431132,0.072808,0.184435,0.007066,-3.690285,27.168880,-39.113548,11.616715,-0.53880626,0.81006974,-0.21551809,0.0276671,0.18819816,-0.07612317
20231225 03:28:07,0.033562,0.708497,-0.428936,0.142056,0.192958,-0.005718,-3.972137,27.146042,-38.980888,11.512762,-0.39953887,0.75309634,-0.36520767,0.059026353,0.20387428,-0.1399577
20231225 03:28:07,-0.022231,0.928615,-0.546124,0.186800,0.191893,-0.034482,-3.449921,26.891029,-38.021248,11.79249,-0.5781272,0.98674333,-0.39548665,0.053336613,0.21116547,-0.19501129
20231225 03:28:07,0.002534,1.416408,-0.844759,0.170820,0.167389,-0.055789,-4.007610,26.574074,-38.675972,13.042334,-0.9114312,1.518899,-0.60737056,0.019408956,0.18862613,-0.19368608
20231225 03:28:07,0.014618,1.759843,-1.105099,0.063220,0.107730,-0.070704,-3.840500,26.303623,-38.656654,12.441516,-1.182005,1.892855,-0.7467153,-0.043587953,0.12140161,-0.10106515
20231225 03:28:07,0.183290,1.969839,-1.202690,-0.114693,0.026764,-0.071770,-3.444298,26.811638,-39.221748,9.671129,-1.1435032,2.088197,-0.9132645,-0.12158073,0.027188461,0.062077332
20231225 03:28:07,0.520911,2.038393,-1.041910,-0.310717,-0.021177,-0.064312,-3.875710,27.441177,-39.401100,6.713347,-0.6983645,2.087871,-1.1045984,-0.21498513,-0.025846794,0.2340887
20231225 03:28:07,0.910334,1.834575,-0.604035,-0.474781,-0.005197,-0.076031,-3.708984,27.362617,-39.662270,4.121569,0.04028061,1.8284914,-1.16718,-0.3358957,-0.003939305,0.34440392
20231225 03:28:07,0.974452,1.280732,0.091995,-0.600492,0.048071,-0.117579,-3.954590,27.527969,-39.273582,5.1867757,0.6964915,1.2860785,-0.7540028,-0.4813826,0.045177996,0.3756532
20231225 03:28:07,0.708072,0.803375,1.075084,-0.671870,0.088554,-0.166585,-4.236824,27.697014,-39.421394,8.208129,1.2140177,0.78794533,0.2126491,-0.6089845,0.06403247,0.32773882
20231225 03:28:07,0.170693,0.286271,2.298554,-0.668674,0.096011,-0.204938,-3.867130,27.728085,-39.687691,10.908918,1.4927733,0.12768392,1.6518131,-0.6628592,0.04425247,0.2293429
20231225 03:28:07,-0.494637,-0.125608,3.260682,-0.569597,0.088554,-0.207069,-4.139629,27.608379,-39.280678,13.432779,1.3751391,-0.48641723,2.9415946,-0.59569144,0.028294004,0.12945503
20231225 03:28:07,-0.893880,-0.414907,3.906512,-0.402337,0.076835,-0.171912,-4.696281,28.617161,-40.423836,15.626228,1.1844196,-0.9301981,3.8012953,-0.44014055,0.025134522,0.040067255
20231225 03:28:07,-1.167288,-0.881301,4.346216,-0.153046,0.015045,-0.146344,-3.961483,30.084435,-40.244362,14.650881,1.108649,-1.473417,4.4436693,-0.20461221,0.0022636056,-0.0538994
20231225 03:28:07,-1.111447,-0.761862,3.989732,0.104769,-0.021177,-0.113318,-3.996960,29.512470,-39.939430,14.882311,1.164334,-1.3581542,4.038156,0.033946577,0.009290678,-0.1433951
20231225 03:28:07,-0.983243,-0.463486,3.213680,0.289074,-0.023308,-0.067508,-4.060097,29.039223,-40.177116,14.829714,1.016895,-0.98489356,3.217606,0.20402141,0.033155363,-0.21205881
20231225 03:28:07,-0.784655,-0.438075,2.374704,0.392413,-0.009458,-0.015306,-4.308659,28.838272,-40.702354,14.779509,0.8047988,-0.83201504,2.4025393,0.30769014,0.05468666,-0.2432925
20231225 03:28:07,-0.608158,-0.529028,1.754645,0.437157,0.022502,0.039027,-4.069061,28.944202,-40.170998,13.910855,0.64165604,-0.8125593,1.8172472,0.36565906,0.08237085,-0.2432828
20231225 03:28:07,-0.350131,-0.722888,1.303916,0.433961,0.048071,0.090163,-4.017078,28.572353,-40.280174,12.854587,0.5912487,-0.89165723,1.3432243,0.3915362,0.094750635,-0.20685768
20231225 03:28:07,-0.116407,-1.128562,1.083198,0.397739,0.044874,0.119993,-3.956512,28.487411,-40.675941,11.620874,0.6515892,-1.2220764,1.0962976,0.38479155,0.0785775,-0.15420574
20231225 03:28:07,0.118986,-1.496991,0.891064,0.335949,0.013979,0.130647,-4.416622,27.889927,-40.909462,11.024659,0.72410655,-1.53668,0.8614594,0.34620607,0.0356435,-0.09931479
20231225 03:28:07,0.314816,-1.742896,0.768303,0.258179,-0.051007,0.123189,-4.380379,28.078117,-40.653450,9.711269,0.7918949,-1.7531664,0.66874033,0.2838021,-0.038817525,-0.045487203
20231225 03:28:07,0.518617,-1.968307,0.632288,0.177212,-0.105340,0.096556,-4.468224,28.069889,-40.519814,8.557368,0.86092484,-1.9614232,0.44115627,0.20390545,-0.099752896,-0.013537928
20231225 03:28:07,0.680465,-2.096740,0.483307,0.105834,-0.124516,0.050746,-4.750458,28.238934,-40.667625,8.0187845,0.88925874,-2.082703,0.22515592,0.11870961,-0.12189381,-0.007338684
20231225 03:28:07,0.711055,-2.145466,0.384429,0.035521,-0.107470,-0.009979,-4.522015,27.499771,-40.483131,8.157514,0.8653383,-2.124964,0.13157976,0.025994625,-0.10556251,-0.01668401
20231225 03:28:07,0.599397,-2.112434,0.359956,-0.026269,-0.068052,-0.070704,-4.550060,27.790375,-41.306206,9.059555,0.78305817,-2.0883303,0.20066267,-0.060068067,-0.0664444,-0.03214454
20231225 03:28:07,0.337156,-1.953003,0.556363,-0.079537,-0.037157,-0.130364,-4.769920,28.816452,-41.777290,11.645852,0.73934126,-1.9458266,0.5554964,-0.13816923,-0.0352652,-0.0494773
20231225 03:28:07,-0.062060,-1.701518,0.803811,-0.123216,-0.028635,-0.174043,-4.742641,28.909622,-41.515160,14.349203,0.59583056,-1.7676427,1.004797,-0.19765455,-0.027555827,-0.057403028
20231225 03:28:07,-0.576625,-1.450124,1.057557,-0.138131,-0.027569,-0.192154,-4.717937,28.444603,-41.886467,17.08139,0.34471488,-1.6630408,1.4988405,-0.21832098,-0.026186613,-0.059435375
20231225 03:28:07,-1.036604,-1.134202,1.195453,-0.118954,-0.019046,-0.172978,-4.489105,27.513550,-41.421501,19.528038,0.050234973,-1.524393,1.8266394,-0.19149181,-0.015859982,-0.054019183
20231225 03:28:07,-1.403383,-0.926375,1.253812,-0.074210,0.003326,-0.116514,-4.690273,28.345882,-41.343864,20.717539,-0.22750646,-1.4590123,2.0432844,-0.12667592,0.0065842923,-0.043084987
20231225 03:28:07,-1.602827,-0.785168,1.248817,-0.013485,0.029960,-0.030221,-4.831909,27.767536,-41.173561,22.05145,-0.39315218,-1.4106576,2.128467,-0.034110375,0.030839624,-0.02288407
20231225 03:28:07,-1.643687,-0.733162,1.110118,0.053632,0.061920,0.073118,-4.416622,27.889927,-40.909462,21.220078,-0.49603897,-1.3355407,2.0380547,0.07248567,0.057583757,0.0028139986
20231225 03:28:07,-1.467646,-0.789621,0.938491,0.109030,0.075770,0.167934,-4.629322,28.069057,-41.459160,20.649334,-0.42469525,-1.2865801,1.8226207,0.17048235,0.06554994,0.032700144
20231225 03:28:07,-1.154381,-0.866995,0.625189,0.145252,0.083227,0.242508,-4.180748,28.013332,-41.852974,18.185286,-0.34763706,-1.1819208,1.4041429,0.24690048,0.06813831,0.06334601
20231225 03:28:07,-0.738878,-0.994774,0.381928,0.162297,0.080031,0.285122,-4.399841,28.655632,-41.763115,16.147165,-0.16450725,-1.1526954,0.9704851,0.2927143,0.063180745,0.083269775
20231225 03:28:07,-0.348638,-1.152041,0.056475,0.158036,0.084292,0.302168,-4.357208,28.380650,-42.146645,14.014855,-0.08143004,-1.1871141,0.48122108,0.3054667,0.06744688,0.097906284
20231225 03:28:07,-0.055750,-1.243845,-0.103812,0.136729,0.069377,0.295776,-4.648022,28.262794,-42.007866,12.941279,0.019701838,-1.224324,0.1686881,0.2905812,0.053318523,0.10957526
20231225 03:28:07,0.133290,-1.300038,-0.299212,0.104769,0.056593,0.276599,-4.393066,28.000572,-42.122200,11.456866,0.010969013,-1.2497576,-0.1163602,0.25836843,0.041605882,0.11913055
20231225 03:28:07,0.210151,-1.320344,-0.329067,0.077070,0.042744,0.251031,-4.595654,27.699055,-41.836586,11.238175,0.037298813,-1.265202,-0.19195507,0.22371286,0.028419584,0.11985423
20231225 03:28:07,0.239855,-1.252401,-0.387351,0.050436,0.024633,0.227593,-4.955997,27.571117,-41.295937,11.403614,0.007762611,-1.1937193,-0.26092234,0.19029316,0.0107206255,0.12355897
20231225 03:28:07,0.274592,-1.249521,-0.395026,0.023802,0.001195,0.205221,-4.737286,27.120712,-41.666267,11.029239,0.021903396,-1.1894225,-0.29751778,0.15845394,-0.012702889,0.12850256
20231225 03:28:07,0.304742,-1.211174,-0.426329,-0.001766,-0.013720,0.173261,-4.270012,26.871246,-41.511360,10.018095,0.0065627396,-1.1528323,-0.36264285,0.1203223,-0.026027407,0.12483327
20231225 03:28:07,0.336739,-1.111273,-0.375629,-0.020942,-0.010524,0.128516,-4.262199,27.541935,-42.358894,9.862453,0.055996418,-1.0549974,-0.3643751,0.075571075,-0.02104292,0.106171474
20231225 03:28:07,0.252619,-0.954784,-0.271558,-0.047576,-0.012654,0.080575,-4.429691,28.004272,-42.658684,10.763544,0.06969401,-0.905117,-0.23992485,0.023006622,-0.023096047,0.09153796
20231225 03:28:07,0.025892,-0.808427,-0.033455,-0.071014,-0.028635,0.045419,-4.235306,27.826992,-42.377235,12.1712055,0.07876019,-0.79323846,0.08192869,-0.017545579,-0.040612936,0.08549066
20231225 03:28:07,-0.204011,-0.682354,0.235839,-0.078471,-0.045680,0.033700,-4.605381,27.987816,-42.391411,13.408398,0.08583037,-0.7242113,0.4227917,-0.029684162,-0.058344156,0.08520198
20231225 03:28:07,-0.285528,-0.606531,0.442000,-0.066752,-0.055268,0.029439,-4.632278,27.702755,-42.373070,14.351353,0.15492912,-0.6889598,0.62028134,-0.02320559,-0.06694352,0.07612732
20231225 03:28:07,-0.508175,-0.591652,0.565062,-0.039053,-0.055268,0.031569,-4.605381,27.987816,-42.391411,15.475203,0.07170111,-0.7348784,0.8623041,-8.7849423E-4,-0.06443145,0.059703853
20231225 03:28:07,-0.740053,-0.512143,0.675874,0.005691,-0.048876,0.050746,-4.429691,28.004272,-42.658684,16.074682,-0.041702718,-0.7220369,1.0830034,0.044263273,-0.054183543,0.04286356
20231225 03:28:07,-0.858228,-0.570239,0.749321,0.069612,-0.048876,0.090163,-4.730240,28.175171,-43.074745,17.035122,-0.08151439,-0.8217723,1.2298636,0.117576435,-0.049074523,0.030148532
20231225 03:28:07,-0.885698,-0.678328,0.669620,0.139925,-0.041419,0.138104,-4.817699,27.975056,-42.660637,17.174086,-0.12989575,-0.91989243,1.2157215,0.20015088,-0.036989488,0.015864573
20231225 03:28:07,-0.758283,-0.736099,0.463616,0.195323,-0.044615,0.178587,-4.192665,27.552013,-42.760765,15.396774,-0.14353839,-0.9049945,0.986373,0.268323,-0.03881479,0.002741851
20231225 03:28:07,-0.462186,-0.720644,0.060730,0.213434,-0.056334,0.206286,-4.332500,27.915630,-42.517967,13.637907,-0.19273303,-0.7748853,0.4890615,0.30154943,-0.05464915,-4.4728816E-4
20231225 03:28:07,-0.123863,-0.665038,-0.369518,0.178278,-0.070183,0.209482,-4.588875,27.043999,-42.195671,11.607461,-0.29081526,-0.634882,-0.06184399,0.28033885,-0.074126475,0.015641972
20231225 03:28:07,0.200714,-0.513026,-0.709118,0.088788,-0.091490,0.187110,-4.649441,27.128941,-41.799904,9.697168,-0.3772198,-0.45071524,-0.54726493,0.20615055,-0.098862946,0.060292304
20231225 03:28:07,0.377106,-0.330730,-0.923578,-0.024138,-0.091490,0.150888,-4.740238,26.754410,-42.580193,8.952027,-0.45976752,-0.26075315,-0.8349189,0.106883705,-0.100834034,0.12154302
20231225 03:28:07,0.324395,-0.133950,-0.787087,-0.131739,-0.070183,0.104013,-4.528305,26.959057,-42.591438,9.649994,-0.38860714,-0.05857885,-0.7297513,0.0010298714,-0.08497121,0.1743621
20231225 03:28:07,0.085634,0.081321,-0.397451,-0.202052,-0.042484,0.055007,-4.484253,27.817928,-43.182945,11.590764,-0.24909452,0.12862895,-0.33095193,-0.08722571,-0.065601125,0.19338429
20231225 03:28:07,-0.322012,0.297753,0.073339,-0.219097,-0.029700,0.021981,-4.820271,27.416866,-43.294090,14.72685,-0.20645142,0.24090539,0.23378953,-0.12829155,-0.060292937,0.1807663
20231225 03:28:07,-0.759543,0.475909,0.490145,-0.187137,-0.017981,0.020916,-4.572094,27.809704,-43.049309,16.501532,-0.26271692,0.2590254,0.7793796,-0.112122335,-0.051063064,0.1522705
20231225 03:28:07,-1.066295,0.567136,0.674818,-0.115758,0.009718,0.049680,-4.881226,27.693691,-43.178780,17.856184,-0.37816563,0.24015808,1.0907314,-0.048059374,-0.019862423,0.11384582
20231225 03:28:07,-1.272583,0.671794,0.745388,-0.014550,0.047005,0.105078,-4.572479,28.001595,-43.329796,18.646952,-0.5078931,0.25320446,1.2543837,0.05288294,0.02160519,0.06941898
20231225 03:28:07,-1.317333,0.706573,0.735330,0.095181,0.096011,0.188175,-4.439812,28.484917,-43.493980,18.206484,-0.5413319,0.28643793,1.2809751,0.17762549,0.07335471,0.034415223
20231225 03:28:07,-1.202909,0.637677,0.592449,0.192127,0.111991,0.273403,-4.369511,28.111221,-43.334923,17.006275,-0.5197934,0.30572888,1.1374476,0.30429232,0.09156746,0.016272038
20231225 03:28:07,-0.857438,0.538560,0.305888,0.264571,0.110926,0.344782,-4.378860,28.208088,-43.609276,14.768766,-0.42608136,0.3646497,0.7472374,0.4111657,0.09167753,0.003992468
20231225 03:28:07,-0.422103,0.468323,-0.132881,0.309316,0.118383,0.388461,-4.538425,27.439701,-43.426735,12.3737755,-0.42371398,0.438293,0.17980602,0.47944885,0.101561725,-0.013981357
20231225 03:28:07,-0.059297,0.426753,-0.519857,0.326361,0.126906,0.402310,-4.441227,27.351063,-43.286018,10.171192,-0.4824054,0.46456033,-0.31027466,0.5052484,0.11328447,-0.031553254
20231225 03:28:07,0.201884,0.260521,-0.828677,0.308250,0.120514,0.392722,-4.238644,27.652584,-43.571617,7.6545033,-0.5539612,0.3077112,-0.6745033,0.49267095,0.11240683,-0.023212135
20231225 03:28:07,0.503533,0.082268,-1.002252,0.266702,0.093880,0.353304,-3.710808,27.318180,-43.812492,4.5615635,-0.5043638,0.092164926,-1.0041249,0.44196856,0.092762165,-0.008320957
20231225 03:28:07,0.777090,-0.046767,-1.056908,0.223022,0.058724,0.287253,-4.010586,27.105305,-43.667610,2.429422,-0.3817573,-0.10170814,-1.2535583,0.36537614,0.06271504,-0.008192301
20231225 03:28:07,0.947472,-0.098009,-1.098121,0.181474,0.029960,0.216940,-3.983307,27.198475,-43.405464,1.3522016,-0.31638044,-0.19003658,-1.4145907,0.28357887,0.034060054,-0.01610215
20231225 03:28:07,1.003854,-0.248735,-1.130439,0.138860,0.004391,0.134908,-4.003807,26.450245,-44.026695,0.8047395,-0.30537814,-0.36012727,-1.4809523,0.19138242,0.0061232294,-0.029039867
20231225 03:28:07,0.973516,-0.302428,-1.063271,0.095181,-0.031831,0.053942,-3.729774,25.802399,-43.311821,1.5143589,-0.27041507,-0.3813984,-1.413223,0.09904201,-0.032588437,-0.04270699
20231225 03:28:07,0.848839,-0.285911,-0.999441,0.060024,-0.060595,-0.017437,-3.693527,25.990585,-43.055794,2.9836164,-0.29294866,-0.31870303,-1.2695944,0.020980971,-0.061833024,-0.056521
20231225 03:28:07,0.531870,-0.144830,-1.041262,0.033390,-0.057399,-0.069639,-3.791492,26.463005,-43.757469,6.712398,-0.508862,-0.08723615,-1.0349686,-0.033433773,-0.0535529,-0.064132564
20231225 03:28:07,0.102507,0.061872,-0.833337,0.036586,-0.039288,-0.093076,-4.065140,26.918964,-44.191872,10.797342,-0.60213786,0.15411076,-0.584101,-0.047336057,-0.026661137,-0.080009475
20231225 03:28:07,-0.344849,0.198170,-0.610706,0.066416,-0.020112,-0.088815,-3.640888,27.136372,-43.933891,13.521245,-0.71398675,0.245659,-0.1261528,-0.02417536,0.0016506668,-0.102729216
20231225 03:28:07,-0.692334,0.097512,-0.405012,0.111161,-0.000936,-0.073900,-4.092037,26.633907,-44.173531,16.180412,-0.7633233,0.06387603,0.26525086,0.016169023,0.02900611,-0.13066036
20231225 03:28:07,-0.908195,-0.015257,-0.270763,0.146317,-0.020112,-0.039809,-4.268112,26.809334,-44.186729,16.488708,-0.7908529,-0.106896654,0.5192063,0.07016544,0.010172261,-0.13184042
20231225 03:28:07,-0.791214,-0.139352,-0.240118,0.147383,-0.101078,-0.003587,-4.179115,26.241901,-43.478935,14.765807,-0.67419523,-0.20412074,0.46987224,0.10913335,-0.079053916,-0.09690536
20231225 03:28:07,-0.463356,-0.224364,-0.397458,0.100507,-0.226789,0.028373,-3.705448,25.529266,-43.963600,11.342641,-0.5738582,-0.22048086,0.13716114,0.11048923,-0.21850902,-0.031366017
20231225 03:28:07,0.028072,-0.353375,-0.731634,0.001430,-0.343978,0.041157,-4.240829,26.902504,-43.924583,7.4530053,-0.5406315,-0.3201678,-0.44318613,0.04804616,-0.34518752,0.051816978
20231225 03:28:07,0.561148,-0.566071,-1.020956,-0.124281,-0.421748,0.018785,-4.455338,26.139668,-44.546791,2.5535405,-0.4784991,-0.621193,-1.0551035,-0.07796615,-0.4168156,0.12100328
20231225 03:28:07,1.041005,-0.676595,-1.044409,-0.247862,-0.446251,-0.050463,-5.010838,26.572788,-44.848518,-0.81440634,-0.20739305,-0.8578176,-1.4732587,-0.23977855,-0.42759246,0.15562993
20231225 03:28:08,1.328761,-0.707346,-0.837092,-0.325632,-0.424944,-0.165520,-4.708870,27.535744,-44.640450,-2.0542238,0.1552816,-0.91888696,-1.5700846,-0.38324687,-0.4078527,0.13016005
20231225 03:28:08,1.306632,-0.568276,-0.479275,-0.346939,-0.353566,-0.298689,-5.124157,27.413353,-44.904518,0.43710795,0.48538482,-0.6944379,-1.2850429,-0.48063338,-0.35021546,0.056540325
20231225 03:28:08,0.938044,-0.380547,0.063985,-0.312848,-0.282187,-0.428661,-4.806068,27.624386,-44.781166,4.3685555,0.6899692,-0.3921958,-0.6129623,-0.5298415,-0.28394112,-0.05505407
20231225 03:28:08,0.311161,-0.049734,0.600144,-0.231881,-0.227855,-0.518150,-5.237095,28.062031,-44.680046,9.413033,0.64709675,-0.06479064,0.20035313,-0.5188067,-0.2122514,-0.16802007
20231225 03:28:08,-0.322681,0.365925,1.007764,-0.131739,-0.223593,-0.554372,-4.966400,27.239773,-45.159569,12.708748,0.45347223,0.22607787,0.8600595,-0.46248278,-0.17733558,-0.24773942
20231225 03:28:08,-0.748288,0.769479,1.120461,-0.034792,-0.263011,-0.542653,-5.115578,27.700260,-45.191109,15.080875,0.18692422,0.5017129,1.1485387,-0.37667185,-0.18700059,-0.28517336
20231225 03:28:08,-0.969168,1.118244,0.890254,0.034456,-0.310952,-0.500039,-5.530865,27.577873,-45.455193,17.16982,-0.1658209,0.794767,1.0741076,-0.29365283,-0.21241659,-0.2778607
