Timestamp,linacce_x,linacce_y,linacce_z,gyro_x,gyro_y,gyro_z,X-magnetometer,Y-magnetometer,Z-magnetometer,Yaw, worldXAccel,worldYAccel,worldZAccel,worldXgyro,worldYgyro,worldZgyro
20231225 09:59:54,1.034751,-0.388492,-1.427885,-0.617203,-0.061218,0.038123,-28.345707,-4.723644,-10.697289,70.024216,-0.44881952,-0.74020714,-0.8657012,-0.3826728,0.028234068,0.51466674
20231225 09:59:54,1.042055,-0.448779,-1.075096,-0.738652,-0.094243,0.009358,-28.185757,-4.147148,-10.599342,71.02833,-0.12758404,-0.7302861,-0.71267426,-0.509255,0.0062461533,0.60400593
20231225 09:59:54,0.987320,-0.443740,-0.689827,-0.813227,-0.120877,-0.050301,-28.661610,-4.184597,-10.467674,74.37356,0.16965553,-0.6218988,-0.525969,-0.62424016,-0.03582188,0.6469682
20231225 09:59:54,0.732562,-0.400916,-0.234997,-0.817488,-0.115550,-0.123810,-28.459408,-3.691189,-11.033745,76.84699,0.35978085,-0.46218067,-0.24413846,-0.69443154,-0.06826286,0.6127885
20231225 09:59:54,0.225953,-0.459426,0.299162,-0.740783,-0.102766,-0.210103,-28.265408,-3.676579,-11.032768,80.64706,0.36028934,-0.4589976,0.23813245,-0.70295703,-0.09509603,0.52888376
20231225 09:59:54,-0.334503,-0.323248,0.645161,-0.586308,-0.053760,-0.293200,-27.904293,-3.932419,-11.012474,84.46976,0.171131,-0.3697696,0.5090997,-0.63489926,-0.07207967,0.3956457
20231225 09:59:54,-1.010688,-0.101358,0.815768,-0.363650,0.038925,-0.356056,-28.573765,-4.176369,-10.601295,88.782265,-0.2429691,-0.30592528,0.742309,-0.50861186,0.030754559,0.19891219
20231225 09:59:54,-1.701498,0.283265,0.793441,-0.120751,0.131610,-0.369906,-28.433933,-4.539986,-10.844124,91.93977,-0.78250146,-0.1705973,0.92126524,-0.35322726,0.1674809,-0.006136545
20231225 09:59:54,-2.298381,0.935053,0.406662,0.066751,0.210446,-0.302789,-28.054890,-4.605789,-10.836052,94.52617,-1.5440074,0.27090308,0.97514373,-0.20766273,0.28449667,-0.17746791
20231225 09:59:54,-2.574457,1.375523,0.000648,0.141325,0.223230,-0.174947,-27.966663,-4.789448,-10.689217,95.948326,-2.0756783,0.6795506,1.0125719,-0.08723623,0.28833467,-0.24114664
20231225 09:59:54,-2.474716,1.589547,-0.406089,0.096580,0.153983,-0.021537,-28.027607,-4.512619,-10.573921,94.50697,-2.275891,1.0808157,0.92503047,0.0061239824,0.17114943,-0.17102654
20231225 09:59:54,-1.879633,1.600150,-0.730622,-0.048307,0.028272,0.097782,-27.940540,-4.120613,-11.268501,88.58288,-2.0191793,1.4124047,0.4958509,0.039970234,0.0013866462,0.022374075
20231225 09:59:54,-1.124855,1.473545,-1.048192,-0.231547,-0.066544,0.146788,-28.161053,-4.612164,-10.970665,83.95383,-1.657301,1.4847494,-0.02184496,-0.012175158,-0.099104196,0.23510325
20231225 09:59:54,-0.393706,1.381816,-1.085765,-0.417983,-0.089982,0.125481,-27.685200,-4.574718,-11.102348,78.63191,-1.1218612,1.3933839,-0.64213485,-0.15342599,-0.09668933,0.4004228
20231225 09:59:54,0.144151,1.190713,-0.781287,-0.565001,-0.051629,0.025339,-28.406651,-4.446815,-10.581978,77.92251,-0.4688201,1.1644685,-0.96859074,-0.34749305,-0.037397902,0.46705303
20231225 09:59:54,0.325765,1.155651,-0.170680,-0.657686,-0.004754,-0.121679,-28.161434,-4.420277,-11.251137,78.13671,0.12561086,1.1438786,-1.0354376,-0.5388226,0.006869871,0.46568215
20231225 09:59:54,0.103979,1.164764,0.395198,-0.696039,0.042121,-0.268697,-28.212650,-4.432205,-10.581001,82.21189,0.33638123,1.1610578,-0.85947984,-0.6859858,0.03670253,0.43078333
20231225 09:59:55,-0.300949,1.140037,0.929734,-0.670470,0.082604,-0.375232,-27.895329,-3.837402,-11.018593,83.58959,0.3477502,1.0752618,-0.55634075,-0.75138545,0.06482524,0.36097142
20231225 09:59:55,-0.800930,1.177501,1.300965,-0.578850,0.136937,-0.432761,-27.906483,-4.682499,-11.365456,87.2636,0.13495463,0.97292304,-0.31876856,-0.73032516,0.11509757,0.25954345
20231225 09:59:55,-1.326087,1.164292,1.511415,-0.414787,0.200858,-0.435957,-27.958469,-4.310654,-11.256279,89.32179,-0.20070392,0.7582143,-0.019467004,-0.6179571,0.19024166,0.110421695
20231225 09:59:55,-1.790931,1.162261,1.331550,-0.208109,0.259452,-0.399735,-27.897129,-4.779369,-11.091103,91.88746,-0.6824442,0.585838,0.27344063,-0.45364022,0.27766448,-0.04800528
20231225 09:59:55,-2.043535,1.303484,0.883223,-0.031261,0.267975,-0.334749,-27.852306,-4.304272,-11.121666,92.8344,-1.1732494,0.6282208,0.42053688,-0.29612347,0.31699193,-0.16143669
20231225 09:59:55,-2.319321,1.467875,0.124188,0.110430,0.253060,-0.244194,-27.731174,-4.474148,-11.913200,94.10416,-1.8814454,0.7728981,0.69001955,-0.15743984,0.32706457,-0.24104771
20231225 09:59:55,-2.369385,1.626662,-0.825052,0.214834,0.275432,-0.120614,-27.845150,-5.151218,-11.200279,97.58295,-2.5903947,1.1435447,0.8849278,-0.035566263,0.3444086,-0.32900578
20231225 09:59:55,-2.176810,1.534343,-1.682244,0.256383,0.305262,0.008293,-27.864223,-4.765591,-12.029472,95.613655,-3.0264945,1.4341514,0.9537011,0.058128018,0.33763632,-0.38672495
20231225 09:59:55,-1.654028,1.234631,-2.239154,0.221226,0.290347,0.106305,-27.422047,-4.358139,-11.783714,91.52169,-3.0144851,1.4619541,0.68997765,0.12964284,0.28681743,-0.3487848
20231225 09:59:55,-0.944562,0.814949,-2.446620,0.128541,0.213642,0.152115,-27.581997,-4.934635,-11.881660,85.64606,-2.6532784,1.1047753,0.22817485,0.15910906,0.19800115,-0.21899341
20231225 09:59:55,-0.122775,0.431919,-2.638694,0.017745,0.155048,0.142527,-27.616817,-3.988972,-12.345650,74.38092,-2.2533286,0.4510855,-0.5324955,0.1266272,0.1540623,-0.07711239
20231225 09:59:55,0.712249,0.211111,-2.534022,-0.078137,0.165702,0.069018,-27.501308,-4.079460,-11.936684,68.95784,-1.5610733,-0.11067107,-1.2338161,0.02516963,0.17759529,-0.015375445
20231225 09:59:55,1.251470,0.109562,-2.002218,-0.121816,0.238145,-0.042844,-27.327808,-4.813080,-12.556908,68.71161,-0.6487357,-0.28911734,-1.4879243,-0.08137746,0.2428175,-0.06444521
20231225 09:59:55,1.403075,0.044418,-1.160285,-0.119685,0.296739,-0.172816,-27.592113,-4.453991,-12.716957,72.09391,0.20986342,-0.20851338,-1.2639352,-0.17632665,0.2890402,-0.15721056
20231225 09:59:55,1.224688,-0.185877,-0.338470,-0.074941,0.327635,-0.301723,-27.213451,-4.327904,-12.989357,75.886765,0.7023696,-0.27886677,-0.7210376,-0.2349842,0.31524906,-0.2488947
20231225 09:59:55,0.927414,-0.370934,0.453882,0.006026,0.332961,-0.401866,-27.010098,-4.410164,-12.714027,79.97331,1.0057955,-0.38667902,-0.20440342,-0.23038198,0.3243143,-0.32110238
20231225 09:59:55,0.686918,-0.269965,1.118883,0.133868,0.293543,-0.490290,-27.100132,-5.168472,-12.933357,82.91946,1.2148651,-0.27041167,-0.07669972,-0.18138081,0.29525444,-0.36309272
20231225 09:59:55,0.357825,-0.197351,1.439192,0.259579,0.181682,-0.584040,-27.020870,-5.447147,-12.780418,85.72701,1.1338675,-0.2291247,0.038994253,-0.13443531,0.21374114,-0.3337906
20231225 09:59:55,-0.140873,-0.321197,1.301823,0.344807,0.026141,-0.666072,-26.924442,-5.152012,-13.200630,86.82612,0.6784522,-0.43275094,0.39961958,-0.11719993,0.11261934,-0.25555515
20231225 09:59:55,-0.702147,-0.092997,1.058772,0.386355,-0.150707,-0.731059,-27.153538,-5.930477,-12.616219,90.853355,0.11590654,-0.34429854,0.5010042,-0.12843153,0.011537664,-0.11686008
20231225 09:59:55,-1.383303,0.422158,0.561499,0.411923,-0.306248,-0.764084,-26.516964,-5.700306,-12.089012,94.27803,-0.738243,-0.04890211,0.60876685,-0.12698841,-0.024868593,-0.01749669
20231225 09:59:55,-2.062873,0.984762,-0.208401,0.444949,-0.324359,-0.739581,-26.925091,-6.669640,-12.431709,99.341934,-1.8506017,0.34679434,0.8808182,-0.0847379,0.07465574,-0.02877748
20231225 09:59:55,-2.667894,1.462214,-1.045809,0.473714,-0.233804,-0.672464,-26.634281,-6.551788,-12.570503,103.65405,-2.9938893,0.73854434,1.2876664,-0.032579362,0.24471377,-0.11448494
20231225 09:59:55,-3.082143,1.571250,-1.568303,0.448145,-0.120877,-0.586171,-26.712772,-6.656883,-12.162498,108.3373,-3.6597793,0.7809898,1.7437781,-0.015037954,0.3568144,-0.15558293
20231225 09:59:55,-3.436414,1.539425,-1.787852,0.346937,-0.050564,-0.472179,-26.564365,-6.733593,-12.691902,108.8179,-4.020681,0.64569175,2.0535855,-0.029702574,0.3320742,-0.13541889
20231225 09:59:55,-3.485845,1.400301,-1.523915,0.198854,-0.074002,-0.329422,-26.509037,-6.931034,-11.606682,109.02855,-3.8583713,0.39761853,2.050442,-0.029786006,0.17011604,-0.030293308
20231225 09:59:55,-3.301838,1.158432,-1.192182,0.063555,-0.156034,-0.167489,-26.484715,-7.204163,-12.258476,105.98408,-3.457112,0.18163204,1.8585497,0.00566002,-0.03764859,0.08863355
20231225 09:59:55,-2.857513,0.750024,-0.975540,-0.020608,-0.215693,-0.015145,-26.299671,-7.284573,-12.251381,103.744225,-2.8641548,-0.005392134,1.7090311,0.054950297,-0.1876271,0.16294955
20231225 09:59:55,-2.345444,0.465680,-0.838470,-0.042980,-0.219954,0.087129,-26.396870,-7.195930,-12.392113,99.87514,-2.3294241,-0.026725084,1.4466075,0.09244856,-0.23826963,0.17240024
20231225 09:59:55,-1.816251,0.200880,-0.716496,-0.001432,-0.200778,0.100978,-26.079159,-6.793015,-12.549232,97.19669,-1.8014448,-0.10839966,1.2159978,0.12023932,-0.21337536,0.13203333
20231225 09:59:55,-1.670667,0.248456,-0.846511,0.085927,-0.124073,0.049842,-26.272778,-6.999516,-12.269722,98.053,-1.7819647,0.021568552,1.1311595,0.12780637,-0.10523815,0.016618304
20231225 09:59:55,-1.807041,0.601051,-0.912132,0.163697,-0.014342,-0.010883,-26.166241,-7.185020,-11.854637,99.63279,-2.0070891,0.33039168,1.0593481,0.105749205,0.03569315,-0.11182646
20231225 09:59:55,-2.113722,1.204250,-0.871723,0.190331,0.067690,-0.033256,-26.105671,-7.269962,-12.250404,100.495384,-2.3706741,0.762679,0.9621561,0.07600228,0.12715623,-0.1847615
20231225 09:59:55,-2.263700,1.817626,-0.679801,0.117887,0.088997,0.018947,-25.973003,-6.786636,-12.414604,98.446556,-2.5137744,1.2502604,0.67668825,0.058248363,0.106149495,-0.14874674
20231225 09:59:55,-1.964431,2.261555,-0.206168,-0.072810,0.006965,0.157442,-25.903088,-6.968449,-12.536018,93.86179,-1.9815173,1.7730417,0.060216855,0.06521377,-0.048356533,0.044429302
20231225 09:59:55,-1.092403,2.186843,0.609968,-0.309317,-0.137923,0.304460,-25.857494,-6.877125,-12.005638,88.121635,-0.5645758,1.9635082,-0.6756429,0.025639996,-0.20675538,0.327145
20231225 09:59:55,0.197704,1.825894,1.567619,-0.487230,-0.266830,0.406733,-26.024220,-6.798561,-11.744499,83.67727,1.2016481,1.8267297,-1.3483303,-0.08725169,-0.26624534,0.5570882
20231225 09:59:55,1.373250,1.244017,2.536068,-0.536236,-0.319032,0.410995,-25.742756,-6.583836,-12.157616,81.930824,2.678825,1.2786212,-1.5201074,-0.20807406,-0.24804498,0.6190127
20231225 09:59:55,2.119481,0.340239,3.388608,-0.463793,-0.328620,0.285284,-26.270596,-6.249435,-11.916756,83.926735,3.573712,0.32859683,-1.078387,-0.2739604,-0.25167018,0.54531974
20231225 09:59:55,2.082615,-0.346597,3.777258,-0.296533,-0.310509,0.062626,-25.513279,-5.997261,-12.461555,85.12144,3.646471,-0.34085175,-0.44379568,-0.24199782,-0.28174534,0.4198535
20231225 09:59:55,1.178136,-0.388141,3.594194,-0.068548,-0.266830,-0.163228,-25.847492,-5.456364,-12.500191,86.1991,2.8911016,-0.40004554,-0.08549328,-0.14208639,-0.2664363,0.25341418
20231225 09:59:55,-0.145982,-0.079267,2.801381,0.171155,-0.170948,-0.307050,-25.963001,-5.365871,-12.909157,88.83776,1.4664112,-0.34623414,0.19504917,-0.01734054,-0.11962819,0.0375513
20231225 09:59:55,-1.528475,0.263084,1.878372,0.378898,-0.053760,-0.327292,-25.786541,-5.733192,-12.615501,94.27711,-0.17384064,-0.4828652,0.61235917,0.1210468,0.1043676,-0.1690381
20231225 09:59:55,-2.574357,0.380365,1.122046,0.524850,0.052775,-0.218626,-25.783970,-5.175003,-11.982048,97.35697,-1.4585115,-0.74342465,1.2074592,0.2702616,0.268285,-0.34790093
20231225 09:59:55,-2.869447,0.286320,0.570822,0.617536,0.093258,-0.023667,-25.513660,-5.805370,-12.742043,98.319244,-1.9307518,-0.85252106,1.5832993,0.42977795,0.2949668,-0.4682762
20231225 09:59:55,-2.570948,0.240951,-0.069150,0.632451,0.075147,0.204317,-25.283802,-5.410683,-12.765511,95.680466,-1.9692035,-0.503299,1.6076548,0.5658938,0.19528128,-0.50559837
20231225 09:59:55,-1.662009,0.010702,-0.605170,0.554680,0.008030,0.409929,-25.812023,-4.884396,-12.805122,89.215775,-1.5851414,-0.18868805,1.1683087,0.6691898,0.03430357,-0.39606842
20231225 09:59:55,-0.365038,-0.595685,-0.888650,0.408727,-0.098505,0.532444,-25.585766,-6.373638,-12.973610,82.81188,-0.8540232,-0.56971467,0.5979784,0.66866696,-0.103865184,-0.16980565
20231225 09:59:55,0.912027,-1.170962,-0.874073,0.245729,-0.180537,0.568666,-25.802670,-4.981266,-12.530754,74.464905,0.016195476,-1.3273389,0.07432981,0.5400294,-0.15405096,0.084350474
20231225 09:59:55,2.131717,-1.571270,-0.399597,0.127476,-0.243392,0.522856,-25.398151,-5.895863,-12.333061,72.88717,1.2517768,-2.0872629,-0.09844746,0.35017306,-0.17357191,0.24223204
20231225 09:59:55,3.226680,-1.989127,0.243448,0.079535,-0.300921,0.386492,-25.299152,-5.042534,-12.119835,71.0821,2.4835513,-2.8271756,-0.008755401,0.19605212,-0.22912091,0.30841106
20231225 09:59:55,3.687559,-1.972421,0.691432,0.093384,-0.306248,0.234147,-25.766041,-4.984966,-11.994270,71.8394,3.1223142,-2.9100573,-0.05854565,0.13031848,-0.26825446,0.26699388
20231225 09:59:55,3.667773,-1.923223,1.008714,0.154109,-0.237000,0.119089,-25.413509,-5.527714,-11.687386,75.01667,3.3023343,-2.7573235,0.0052464455,0.14640228,-0.24778566,0.14814958
20231225 09:59:55,3.357594,-1.677528,1.478729,0.247860,-0.146445,0.031731,-24.960560,-4.083279,-11.375252,73.06184,3.33064,-2.2222857,-0.042357355,0.20331982,-0.19788377,-0.0039169732
20231225 09:59:55,2.844158,-1.135425,1.675096,0.346937,-0.076132,0.005097,-25.377651,-5.147633,-11.711845,76.028984,3.11415,-1.4568815,-0.31137452,0.28185338,-0.1442613,-0.12860833
20231225 09:59:55,2.399108,-0.775279,1.762715,0.410858,-0.095309,-0.014079,-25.643757,-5.730511,-11.944389,76.90958,2.8625736,-0.94500947,-0.469846,0.31351468,-0.16293035,-0.16803059
20231225 09:59:55,1.980244,-0.417102,1.593180,0.435361,-0.180537,-0.037517,-25.791790,-5.845692,-11.134514,77.77741,2.4814172,-0.5058405,-0.6568365,0.2971224,-0.24065898,-0.14071968
20231225 09:59:55,1.694109,-0.032311,1.241124,0.440688,-0.291333,-0.079065,-25.485226,-6.287868,-11.638481,76.08173,2.0744383,-0.09737705,-0.8967277,0.24245547,-0.34724125,-0.10169879
20231225 09:59:55,1.428770,0.406735,0.701033,0.432165,-0.356319,-0.133398,-25.509937,-5.822849,-11.267174,75.073685,1.5295384,0.34107044,-1.1762851,0.17172332,-0.40409407,-0.09615979
20231225 09:59:55,1.110032,0.744927,0.166677,0.438557,-0.339273,-0.194123,-25.176105,-6.171856,-11.509010,75.566895,0.8940933,0.6947504,-1.2851888,0.117998764,-0.3728751,-0.15048113
20231225 09:59:55,0.569670,0.816473,-0.121315,0.466256,-0.252980,-0.253783,-25.359989,-6.667114,-10.674690,82.22507,0.25793108,0.82639444,-0.9661647,0.10813533,-0.24201337,-0.21946374
20231225 09:59:55,-0.238930,0.632533,-0.243390,0.502478,-0.174144,-0.297462,-25.202229,-6.840694,-10.929741,87.867226,-0.40973747,0.63025254,-0.23111404,0.11917329,-0.09041895,-0.27877054
20231225 09:59:55,-0.956600,0.413693,-0.331247,0.529112,-0.097439,-0.279351,-24.971592,-6.829788,-10.392265,93.2468,-0.95235497,0.3073386,0.44810334,0.16926876,0.04011082,-0.31800765
20231225 09:59:55,-1.419136,0.038445,-0.148956,0.563203,-0.060152,-0.202646,-25.226933,-6.375675,-10.558418,94.21602,-1.0926002,-0.19957311,1.0060298,0.26039267,0.087164536,-0.3549801
20231225 09:59:55,-1.430532,-0.221459,-0.193438,0.616470,-0.045237,-0.086523,-25.253834,-6.660732,-10.540077,94.06598,-1.0767883,-0.43190962,1.2007726,0.3712444,0.082210325,-0.4127958
20231225 09:59:55,-1.155564,-0.391170,-0.367628,0.663346,-0.026061,0.034927,-25.201458,-7.224472,-10.368782,92.69928,-0.98738647,-0.48860908,1.1267589,0.478171,0.0621315,-0.4717343
20231225 09:59:55,-0.687594,-0.649248,-0.530934,0.681457,-0.018604,0.127612,-25.192112,-7.321342,-10.094429,90.10535,-0.79074484,-0.65373266,0.9462892,0.557307,0.029940944,-0.48789033
20231225 09:59:55,-0.102293,-1.079445,-0.675999,0.670803,-0.022865,0.171291,-25.034733,-7.303036,-10.629936,84.8293,-0.54295677,-1.0686357,0.76912117,0.5846221,-0.014559237,-0.4625958
20231225 09:59:55,0.522013,-1.304174,-0.615798,0.660150,-0.035649,0.156376,-24.583210,-6.992455,-10.109840,80.95234,-0.15509331,-1.3576729,0.4380377,0.5647656,-0.059449807,-0.43899947
20231225 09:59:55,0.899679,-1.207265,-0.682657,0.660150,-0.044172,0.100978,-24.998486,-7.114845,-10.373924,77.1542,-0.023064226,-1.3396108,0.009983331,0.50958157,-0.090515696,-0.4494261
20231225 09:59:55,1.396995,-1.372841,-1.065161,0.626058,-0.065479,0.041319,-25.147671,-6.654354,-10.405464,66.72417,-0.212075,-1.8035694,-0.55164796,0.4118544,-0.16660723,-0.4368506
20231225 09:59:55,1.534494,-0.936190,-1.629653,0.508870,-0.063348,-0.122745,-25.440670,-7.522289,-10.619667,69.7437,-0.6096022,-1.3455342,-1.0926539,0.17628235,-0.1370159,-0.4113685
20231225 09:59:55,1.040896,-0.396365,-1.702728,0.375702,-0.081459,-0.218626,-24.691166,-7.940800,-10.316948,73.54833,-0.9622375,-0.59679806,-0.9477679,-0.0029366612,-0.11954573,-0.31506643
20231225 09:59:55,0.273624,-0.232094,-2.112473,0.255317,-0.043107,-0.233541,-25.476917,-7.710480,-10.875694,83.312386,-1.6840385,0.0047960877,-0.24742115,-0.07623115,-0.0039739814,-0.21641824
20231225 09:59:55,-0.445787,-0.022499,-2.094899,0.146652,0.014422,-0.173881,-24.955090,-7.773602,-10.196526,90.15141,-1.9905379,0.33689672,0.40133113,-0.07757663,0.06420015,-0.13437079
20231225 09:59:55,-0.639646,-0.053328,-1.800723,0.044378,0.022945,-0.088654,-24.673237,-7.750763,-10.329170,89.53083,-1.8268037,0.19569021,0.5653199,-0.054748412,0.042851344,-0.05020414
20231225 09:59:55,-0.459802,-0.078105,-1.598625,-0.039784,-0.028192,-0.027929,-24.779011,-7.949028,-10.183311,87.449715,-1.5762037,0.09534466,0.39531457,-0.040648468,-0.027400898,0.0479908
20231225 09:59:55,-0.208636,-0.186546,-1.773852,-0.127143,-0.066544,-0.004491,-24.734188,-7.473930,-10.213890,83.63552,-1.6073934,-0.049704462,0.17334554,-0.06355595,-0.07212888,0.14281079
20231225 09:59:55,0.055387,-0.262729,-1.704555,-0.223024,-0.079328,0.005097,-24.592548,-6.895588,-10.384193,79.699135,-1.4077802,-0.21945783,-0.07152426,-0.11215247,-0.082889386,0.23090935
20231225 09:59:55,0.356055,-0.032192,-1.429352,-0.277357,-0.072936,-0.003426,-24.309551,-7.448410,-9.675438,79.918365,-1.0078254,-0.046977613,-0.41765064,-0.15398724,-0.07136663,0.2716294
20231225 09:59:55,0.444902,0.028699,-1.187026,-0.317840,-0.039911,-0.011949,-24.442608,-7.739849,-9.791710,80.72268,-0.72444534,0.010408978,-0.49099457,-0.1906946,-0.03737056,0.28296387
20231225 09:59:55,0.399260,0.206911,-0.685352,-0.362585,-0.021800,0.015751,-24.082256,-7.611916,-10.332359,80.75962,-0.30702806,0.19868474,-0.5079734,-0.20510913,-0.019399015,0.30451098
20231225 09:59:55,0.490384,0.444468,-0.068341,-0.387088,-0.049499,0.055168,-24.400356,-7.822941,-10.455727,80.61898,0.2652554,0.43123552,-0.66380084,-0.19994941,-0.039214224,0.3385089
20231225 09:59:55,0.648080,0.472208,0.275558,-0.389218,-0.085721,0.080737,-24.048588,-7.981911,-10.709785,79.62006,0.65308726,0.45685837,-0.7627171,-0.19432087,-0.06409856,0.3610261
20231225 09:59:55,0.928612,0.537985,0.528053,-0.371107,-0.107028,0.083933,-24.267300,-7.531506,-10.339439,78.04804,1.0505645,0.5111027,-0.974421,-0.1895026,-0.072096616,0.3601935
20231225 09:59:55,1.221879,0.604660,0.676437,-0.329559,-0.110224,0.060495,-24.591785,-7.279362,-9.823250,77.45955,1.3772002,0.55409235,-1.2080607,-0.18597844,-0.07085156,0.3265943
20231225 09:59:55,1.285007,0.639802,0.753830,-0.274161,-0.089982,0.001901,-24.185467,-7.251995,-9.553062,78.35172,1.4757531,0.5953988,-1.275844,-0.18962418,-0.06467761,0.26376775
20231225 09:59:55,1.086430,0.781259,0.723214,-0.199586,-0.050564,-0.066281,-24.372692,-7.921658,-9.913109,80.63367,1.3064432,0.76431507,-1.2489295,-0.18381672,-0.043476824,0.17651056
20231225 09:59:55,0.621466,0.860126,0.670088,-0.103705,0.027206,-0.118483,-23.967136,-7.510513,-10.203865,83.08621,0.9153519,0.86045355,-0.97528225,-0.15738475,0.027134629,0.051753834
20231225 09:59:55,-0.013144,0.956558,0.720225,0.009222,0.111369,-0.142986,-23.976101,-7.605534,-10.197746,86.950584,0.4785442,0.90772223,-0.58410615,-0.10951328,0.12040314,-0.08401429
20231225 09:59:55,-0.546370,1.069025,0.683602,0.141325,0.194466,-0.136594,-24.091221,-7.706936,-10.326241,89.808914,0.042059213,0.9268423,-0.27123103,-0.034063287,0.22141689,-0.233757
20231225 09:59:55,-0.822959,1.000569,0.549629,0.276624,0.262648,-0.107830,-24.240025,-7.438335,-10.077324,90.981445,-0.24359137,0.8129547,-0.0038497937,0.05666037,0.30509496,-0.37924698
20231225 09:59:55,-0.850669,0.926325,0.146304,0.393813,0.323373,-0.083327,-24.179073,-7.715164,-10.192619,90.9784,-0.54643726,0.788917,0.103096955,0.12828064,0.37570322,-0.5084682
20231225 09:59:55,-0.790218,0.792783,-0.300099,0.470518,0.371314,-0.073739,-23.828075,-7.490356,-11.007622,88.20561,-0.82026297,0.7381741,0.17885564,0.15673408,0.42748928,-0.5998822
20231225 09:59:55,-0.598743,0.732190,-0.780911,0.496086,0.409666,-0.063085,-23.606792,-7.382572,-10.744514,87.22705,-1.0817959,0.77941525,0.0811646,0.15674067,0.46174023,-0.6407354
20231225 09:59:55,-0.382219,0.694798,-1.134549,0.485433,0.463999,-0.053497,-23.748806,-7.769035,-10.854683,85.363,-1.243284,0.8008566,-0.08725992,0.15146652,0.50362116,-0.65836275
20231225 09:59:55,-0.197019,0.673083,-1.248935,0.451341,0.517267,-0.043909,-23.130939,-7.345127,-10.876198,83.5983,-1.2380689,0.7973441,-0.25049257,0.13705629,0.54919666,-0.6549844
20231225 09:59:55,-0.173111,0.733090,-1.083510,0.382094,0.521528,-0.023667,-23.185108,-7.723358,-11.119987,83.51547,-1.0812265,0.83144045,-0.30476394,0.12714154,0.5454598,-0.60026515
20231225 09:59:55,0.012854,0.951063,-0.910405,0.242533,0.468260,0.007228,-23.229939,-8.198456,-11.089409,81.87192,-0.8267471,1.0104127,-0.5792245,0.10307923,0.47658992,-0.45113382
20231225 09:59:55,0.282683,1.151617,-0.558219,0.077404,0.379837,0.046646,-23.150677,-8.477135,-10.936470,80.22161,-0.34046257,1.1679456,-0.9061327,0.07265407,0.37977883,-0.26426366
20231225 09:59:56,0.577396,1.215045,-0.154579,-0.055764,0.311654,0.064757,-22.993298,-8.458824,-11.471977,77.898224,0.22297588,1.2064595,-1.1732146,0.025696505,0.3131586,-0.12140666
20231225 09:59:56,0.734205,1.403390,0.314296,-0.181475,0.243472,0.084998,-23.123783,-8.192078,-10.954811,79.19012,0.71660376,1.3985709,-1.3756167,-0.035127252,0.2476201,0.012866473
20231225 09:59:56,0.897311,1.689825,1.008622,-0.313579,0.168898,0.103109,-22.727188,-7.875950,-11.239449,77.621544,1.4192684,1.6998827,-1.5955279,-0.10761042,0.18377557,0.15625554
20231225 09:59:56,1.163720,1.813611,1.530762,-0.431832,0.088997,0.108436,-22.966785,-7.981876,-11.770790,76.666595,2.0317378,1.8413771,-1.8021611,-0.19313192,0.119339116,0.28791964
20231225 09:59:56,1.306174,1.630975,2.088336,-0.511733,0.035729,0.060495,-22.559044,-6.820652,-11.708580,76.73223,2.5029683,1.6743817,-1.7106099,-0.30498758,0.06616738,0.35815275
20231225 09:59:56,1.081622,1.300289,2.431503,-0.525583,0.033598,-0.018341,-22.667007,-7.768997,-11.915672,82.178246,2.4878466,1.3242546,-1.4396231,-0.3912365,0.043500263,0.3381469
20231225 09:59:56,0.465295,0.968473,2.989579,-0.458466,0.084735,-0.088654,-22.903648,-7.508629,-11.533119,87.5806,2.2614198,0.88230026,-0.94176495,-0.40877452,0.06912471,0.23101604
20231225 09:59:56,-0.253488,0.539155,3.670626,-0.293337,0.167832,-0.114222,-22.339565,-7.654842,-11.517952,91.96744,1.9523199,0.2530656,-0.37863424,-0.31439307,0.14727506,0.04559218
20231225 09:59:56,-0.906503,0.125194,4.066172,-0.016346,0.276498,-0.090784,-22.762012,-6.930283,-11.703438,93.15807,1.5128641,-0.3911871,0.22625874,-0.09061378,0.27894416,-0.21406452
20231225 09:59:56,-1.371344,-0.483717,3.931455,0.319238,0.394751,-0.034321,-22.233791,-7.456570,-11.663826,96.14233,1.020923,-1.1854289,0.803879,0.20152728,0.44705945,-0.50027037
20231225 09:59:56,-1.495642,-1.062444,3.194130,0.630320,0.471456,0.043450,-22.348530,-7.749859,-11.511848,97.09626,0.6083915,-1.7134998,1.377056,0.48974895,0.5721437,-0.74293005
20231225 09:59:56,-1.248692,-1.596597,2.079873,0.868958,0.495959,0.112697,-22.057331,-7.823887,-11.370140,96.69439,0.37272686,-2.058555,1.8189588,0.7054497,0.6281451,-0.9168014
20231225 09:59:56,-0.798657,-2.154701,0.810505,0.998930,0.478914,0.159573,-21.926849,-8.090641,-11.887321,94.06704,0.13187209,-2.3325348,2.1330755,0.8205974,0.6016158,-1.0053734
20231225 09:59:56,-0.170869,-2.681304,-0.464494,0.999996,0.424581,0.173422,-21.926464,-8.282528,-11.606850,90.340485,-0.19870159,-2.6326985,2.0743382,0.8087589,0.50110817,-0.9945901
20231225 09:59:56,0.408255,-3.017195,-1.461421,0.863631,0.352138,0.134004,-21.908535,-8.092491,-11.619087,83.8304,-0.713572,-2.971087,1.646456,0.6799099,0.36823517,-0.8596355
20231225 09:59:56,0.752508,-3.071383,-1.980680,0.652692,0.255191,0.063691,-21.954128,-8.183811,-12.149452,78.203995,-1.1039841,-3.0707357,0.9986508,0.450055,0.25530243,-0.6609628
20231225 09:59:56,0.708543,-2.642528,-2.296308,0.390617,0.189139,-0.009818,-21.645386,-7.875912,-12.300453,78.2528,-1.3653443,-2.4999666,0.6067227,0.20227376,0.20246884,-0.42824057
20231225 09:59:56,0.376889,-2.178937,-2.190252,0.106169,0.125218,-0.054562,-21.514133,-8.526440,-12.256676,83.97176,-1.2971048,-1.8276204,0.7661376,-0.0021569096,0.1402707,-0.16073534
20231225 09:59:56,-0.002313,-1.742424,-1.817539,-0.165495,0.074082,-0.073739,-21.858471,-7.504898,-13.130608,85.13564,-1.125473,-1.3748198,0.9299677,-0.16857468,0.064004645,0.087053165
20231225 09:59:56,-0.327894,-1.207767,-1.069834,-0.396676,-0.001558,-0.072673,-21.143021,-7.361519,-12.730934,87.15102,-0.79266244,-1.0219622,0.9732581,-0.3014369,-0.04661429,0.3095795
20231225 09:59:56,-0.542663,-0.802615,-0.441800,-0.563935,-0.052695,-0.062020,-21.390049,-8.330021,-12.134300,91.00954,-0.5272655,-0.78144515,0.9378617,-0.40060383,-0.12897488,0.46498564
20231225 09:59:56,-0.786225,-0.480437,0.177933,-0.654490,-0.055891,-0.053497,-21.777672,-8.551128,-11.855766,93.49867,-0.31918553,-0.6338131,0.89509994,-0.47274452,-0.15730019,0.51987875
20231225 09:59:56,-0.974764,-0.307513,0.743046,-0.674732,-0.033519,-0.043909,-21.601982,-8.534672,-12.123055,93.97382,-0.11702466,-0.6129722,0.87313104,-0.49788994,-0.14765663,0.5058889
20231225 09:59:56,-1.133108,-0.146225,1.220634,-0.644902,0.005899,-0.041778,-21.795601,-8.741165,-11.843544,95.485405,0.024376988,-0.5736594,0.8051645,-0.49442035,-0.1078419,0.44503933
20231225 09:59:56,-1.274110,-0.061860,1.557634,-0.552217,0.069820,-0.043909,-21.274925,-8.228622,-12.005806,95.030304,0.098285854,-0.5999588,0.8122051,-0.44624394,-0.034369975,0.3276849
20231225 09:59:56,-1.426988,-0.015152,1.725866,-0.406264,0.160375,-0.032190,-20.975143,-8.015747,-12.150688,95.35677,0.04202819,-0.6477493,0.8425986,-0.3539288,0.07322413,0.15411106
20231225 09:59:56,-1.517817,-0.167014,1.727064,-0.224089,0.240276,-0.004491,-21.265575,-8.325493,-11.731438,96.905815,-0.011407137,-0.81929636,0.97329295,-0.21679798,0.18231364,-0.030065898
20231225 09:59:56,-1.472002,-0.267749,1.489216,-0.050438,0.291413,0.020012,-21.178112,-8.125374,-12.145546,95.78481,-0.068587005,-0.87931436,1.0813634,-0.08301479,0.26303586,-0.18089928
20231225 09:59:56,-1.322857,-0.295346,0.920732,0.095515,0.304197,0.050907,-20.666019,-7.899734,-12.021217,94.387985,-0.24080777,-0.7562978,1.0990099,0.0368131,0.29947403,-0.28375134
20231225 09:59:56,-1.046883,-0.374410,0.050591,0.187135,0.295674,0.073279,-20.959785,-8.383892,-12.796364,92.26988,-0.5550185,-0.5729471,1.0387644,0.106477976,0.30160806,-0.3357796
20231225 09:59:56,-0.720967,-0.302788,-0.904830,0.211638,0.291413,0.088194,-21.039047,-8.105213,-12.949303,89.86407,-1.0410435,-0.18637954,0.76276743,0.11607399,0.29235002,-0.34056765
20231225 09:59:56,-0.514768,-0.198335,-1.601700,0.158371,0.259452,0.105240,-21.011768,-8.012047,-12.687172,88.78193,-1.5136626,0.14897701,0.5241065,0.10019412,0.24482992,-0.2700452
20231225 09:59:56,-0.260516,-0.199902,-2.104033,0.042248,0.191270,0.127612,-20.729538,-8.181091,-12.539360,85.42555,-1.8575569,0.26009345,0.24340767,0.08403022,0.1603932,-0.12402587
20231225 09:59:56,0.142272,-0.122027,-2.328710,-0.112228,0.117761,0.145723,-20.932892,-8.098831,-12.814705,79.30372,-1.9528573,0.2436567,-0.27009553,0.057947487,0.08514492,0.05879576
20231225 09:59:56,0.442939,-0.044753,-2.309226,-0.263507,0.039991,0.142527,-20.623383,-8.174713,-12.404762,77.8576,-1.8032247,0.23158851,-0.5994977,-0.0046608,0.008881654,0.22771633
20231225 09:59:56,0.537822,-0.211182,-2.024937,-0.425440,-0.049499,0.116959,-20.429379,-8.160107,-12.403786,76.94844,-1.4302106,-0.052808627,-0.5901903,-0.11838912,-0.07455871,0.40217847
20231225 09:59:56,0.578757,-0.008985,-1.418722,-0.526648,-0.123008,0.090325,-20.808418,-8.094303,-12.411842,78.02483,-0.8506629,0.09289688,-0.6395958,-0.21234247,-0.14777738,0.51456887
20231225 09:59:56,0.534131,0.098002,-0.806449,-0.573524,-0.173079,0.053038,-20.596485,-7.889656,-12.423088,79.98815,-0.3181613,0.17020433,-0.567779,-0.29714224,-0.20199381,0.564264
20231225 09:59:56,0.436697,0.121516,-0.244166,-0.574589,-0.216758,0.010424,-20.314636,-7.866817,-12.555748,81.36974,0.08709706,0.15976128,-0.43514743,-0.3481102,-0.24722801,0.578718
20231225 09:59:56,0.331049,0.125556,0.267570,-0.510668,-0.213562,-0.037517,-20.614418,-8.079693,-12.410866,83.90688,0.4118669,0.12738492,-0.30931336,-0.3583459,-0.2409383,0.517381
20231225 09:59:56,0.184432,0.113478,0.695425,-0.407329,-0.201844,-0.092915,-20.263035,-8.046776,-12.945396,85.08245,0.6131786,0.06938104,-0.16923557,-0.3337753,-0.22611913,0.42626643
20231225 09:59:56,-0.081622,-0.000597,0.944081,-0.282683,-0.194386,-0.136594,-20.383785,-8.068783,-11.873390,89.63186,0.5866001,-0.109178305,0.06127755,-0.2770058,-0.2088305,0.33528778
20231225 09:59:56,-0.415653,-0.143294,1.163044,-0.156972,-0.211432,-0.165359,-20.418991,-6.931232,-12.617851,88.06544,0.48256803,-0.33912098,0.4151464,-0.19966784,-0.20869106,0.2577533
20231225 09:59:56,-0.562185,-0.255333,1.163346,-0.029131,-0.256176,-0.189862,-20.093353,-7.759037,-12.292641,90.57157,0.38736212,-0.48240584,0.55897135,-0.11369677,-0.23076111,0.21025804
20231225 09:59:56,-0.682980,-0.370240,0.775744,0.095515,-0.284941,-0.229280,-20.269047,-7.775497,-12.025383,91.65748,0.10109687,-0.59927136,0.7264713,-0.041719005,-0.22409958,0.14114943
20231225 09:59:56,-0.964282,-0.224455,0.108477,0.196723,-0.260438,-0.261240,-20.005127,-7.942699,-12.145805,94.093864,-0.5183272,-0.44859186,0.8592108,0.01181443,-0.14074495,0.041509792
20231225 09:59:56,-1.539163,0.092051,-0.506859,0.260644,-0.186929,-0.261240,-20.323215,-8.153725,-12.269157,98.485855,-1.3683163,-0.1771475,1.1702456,0.049009338,-0.008673303,-0.056594666
20231225 09:59:56,-2.170888,0.500110,-0.772012,0.276624,-0.125138,-0.204777,-20.489944,-8.075165,-12.008018,102.28884,-2.0794423,0.040285885,1.4844985,0.08655593,0.062325455,-0.11088433
20231225 09:59:56,-2.511312,0.901286,-0.686417,0.262775,-0.119812,-0.090784,-20.049950,-8.417797,-12.115242,102.6097,-2.3961914,0.23546237,1.4961377,0.15247838,0.018674467,-0.11862802
20231225 09:59:56,-2.451897,1.026660,-0.535622,0.229749,-0.183733,0.034927,-20.243954,-8.432407,-12.116219,100.97526,-2.2488554,0.38146266,1.4161681,0.2344577,-0.10600446,-0.07933823
20231225 09:59:56,-1.838162,1.105965,-0.891162,0.133868,-0.198647,0.118024,-19.811123,-7.928089,-12.144829,94.440926,-2.089252,0.8828873,0.88592935,0.22898039,-0.18986832,0.0019670287
20231225 09:59:56,-1.031149,0.760164,-0.710263,0.058228,-0.223150,0.130808,-19.704964,-7.921707,-12.010216,88.58952,-1.3220596,0.724295,0.37036046,0.18283318,-0.23389933,0.08712222
20231225 09:59:56,-0.341373,0.603723,-0.544440,0.019875,-0.198647,0.057299,-20.092201,-8.334705,-11.451225,86.88193,-0.71614677,0.6337053,-0.11110758,0.084136814,-0.20146252,0.10613431
20231225 09:59:56,-0.196477,0.495607,-0.002910,0.027333,-0.128334,-0.044974,-20.040600,-8.514660,-11.840874,88.84813,-0.1990923,0.46432787,-0.17753576,0.0021863766,-0.116785385,0.063114874
20231225 09:59:56,-0.633734,0.430213,0.649323,0.095515,-0.093178,-0.111026,-19.934444,-8.508282,-11.706261,92.54601,-0.049751103,0.20412663,0.14619607,0.0030565262,-0.0560458,-0.0022053274
20231225 09:59:56,-1.167140,0.389143,0.973644,0.188200,-0.079328,-0.105699,-20.339996,-8.919434,-11.415520,96.85922,-0.23755044,-0.07230225,0.47865263,0.07670564,-0.014922582,-0.06992969
20231225 09:59:56,-1.535300,0.478393,0.914518,0.289408,-0.085721,-0.048170,-19.897430,-8.703873,-10.889305,98.39281,-0.54107594,-0.11919288,0.7008541,0.18617529,-0.0033271825,-0.14757614
20231225 09:59:56,-1.754985,0.490922,0.887199,0.394878,-0.119812,0.041319,-19.651821,-8.869225,-11.277977,98.385216,-0.6891411,-0.19301568,0.8913095,0.32476777,-0.028901912,-0.21788314
20231225 09:59:56,-1.564137,0.497427,-0.008799,0.407662,-0.124073,0.095652,-19.951603,-9.082100,-11.133095,97.843445,-1.1247902,0.11867492,0.9104273,0.359592,-0.051586036,-0.24873272
20231225 09:59:56,-1.370039,0.625707,-0.407749,0.372506,-0.110224,0.126547,-19.872723,-9.168888,-11.260612,96.68907,-1.3014812,0.41220042,0.7555888,0.34870005,-0.060450822,-0.24208221
20231225 09:59:56,-1.289639,0.770754,-0.469361,0.293670,-0.099570,0.135070,-19.554630,-8.957863,-11.137260,95.79436,-1.3347175,0.5918085,0.60062283,0.3047115,-0.07085279,-0.18378417
20231225 09:59:56,-1.301114,0.966152,-0.099779,0.190331,-0.149641,0.154246,-19.721355,-8.879303,-10.876106,95.58544,-1.1134725,0.6933194,0.43713537,0.26939845,-0.14348352,-0.06722785
20231225 09:59:56,-1.291980,1.267768,0.621684,0.121083,-0.232739,0.190468,-19.139729,-8.643585,-11.153648,93.01372,-0.6162604,0.87070584,0.18265618,0.2673905,-0.24335492,0.04642366
20231225 09:59:56,-1.161384,1.609118,0.935893,0.153044,-0.265764,0.234147,-19.703426,-8.689262,-10.888329,92.98732,-0.33759695,1.1767833,-0.113931045,0.32644802,-0.279756,0.036704965
20231225 09:59:56,-1.174076,1.729201,0.812722,0.202050,-0.242327,0.284218,-19.916130,-8.510132,-11.438011,91.56848,-0.45476967,1.3043493,-0.12595513,0.39177924,-0.2612395,-0.018803425
20231225 09:59:56,-1.187277,1.889466,0.704838,0.187135,-0.246588,0.358793,-19.790886,-8.889381,-10.474220,92.88338,-0.5358497,1.5124587,-0.18831803,0.44008142,-0.2829947,-0.01478554
20231225 09:59:56,-0.860477,1.919479,0.709519,0.112561,-0.279614,0.440824,-20.054810,-8.722179,-10.353798,89.50476,-0.21994144,1.7024062,-0.45083988,0.4545172,-0.32512113,0.07874259
20231225 09:59:56,-0.241613,1.528368,0.810896,0.034790,-0.301986,0.506876,-19.915359,-8.893913,-10.877083,84.57351,0.40638417,1.4758292,-0.7125521,0.43194556,-0.32500833,0.19026919
20231225 09:59:56,0.605517,0.723922,0.921505,0.017745,-0.256176,0.503680,-20.027916,-8.437122,-10.372139,81.18133,1.123533,0.74063915,-0.8341787,0.3720203,-0.231734,0.20850363
20231225 09:59:56,1.260259,-0.219275,1.118559,0.072077,-0.154968,0.412060,-19.685112,-8.691109,-10.620079,82.36334,1.6611189,-0.2366179,-0.5924219,0.31917787,-0.12649138,0.103125334
20231225 09:59:56,1.370938,-1.067702,1.411529,0.163697,-0.064414,0.261846,-19.596882,-8.874775,-10.473244,86.79922,1.8774136,-1.0797634,0.020604827,0.28706607,-0.059919484,-0.042304203
20231225 09:59:56,1.070063,-1.532004,1.747629,0.288343,-0.018604,0.110566,-20.221149,-8.835510,-9.812157,91.39682,1.8539205,-1.5186634,0.5443292,0.29605827,-0.02764683,-0.1609406
20231225 09:59:56,0.651526,-1.815970,1.720001,0.423642,-0.015408,-0.002360,-19.758369,-8.683712,-11.693062,89.48324,1.5543125,-1.8142523,1.0664358,0.336236,-0.016522834,-0.24354243
20231225 09:59:56,0.349344,-1.946469,1.312853,0.530177,-0.016473,-0.057759,-19.920605,-9.006405,-9.396111,94.25758,1.1116829,-1.9569037,1.2306777,0.3805791,-0.007395124,-0.31222785
20231225 09:59:56,0.241966,-2.077248,1.028889,0.589837,-0.046303,-0.058824,-19.435783,-8.873943,-9.533897,92.97041,0.87510115,-2.0877895,1.3991113,0.4165553,-0.034720987,-0.33930326
20231225 09:59:56,0.275036,-2.043201,0.577269,0.599425,-0.092113,-0.004491,-19.454098,-8.872093,-9.802132,90.13655,0.59933805,-2.0441883,1.3261796,0.44095305,-0.08964827,-0.33493423
20231225 09:59:56,0.594250,-2.061379,0.061689,0.541896,-0.141119,0.095652,-19.383797,-9.245789,-9.643074,85.60812,0.3334613,-2.0874555,1.048267,0.44343573,-0.16965912,-0.27543062
20231225 09:59:56,1.305419,-2.039322,-0.372437,0.410858,-0.232739,0.183010,-19.674229,-9.555534,-9.223839,78.23752,0.26499593,-2.2581022,0.34984884,0.36887217,-0.2607922,-0.120730326
20231225 09:59:56,2.031553,-1.850914,-0.924892,0.215899,-0.338208,0.224559,-19.681389,-8.708588,-9.145226,64.41459,0.07341188,-2.4920127,-0.7595457,0.19365191,-0.29663217,0.0891695
20231225 09:59:56,2.537430,-1.454603,-1.446980,-0.031261,-0.408521,0.221363,-19.575615,-8.510319,-9.291084,54.91542,-0.06389636,-2.5544837,-1.8225772,-0.018908039,-0.26539832,0.30041108
20231225 09:59:56,2.652308,-0.941482,-1.547734,-0.293337,-0.458592,0.167030,-19.629402,-9.080437,-9.254402,55.670616,0.027554035,-2.1169343,-2.2332726,-0.21880361,-0.26703405,0.5106273
20231225 09:59:56,2.291101,-0.309028,-1.383783,-0.527714,-0.478834,0.084998,-19.689587,-9.187386,-8.578178,64.26204,0.052644253,-1.112429,-2.102946,-0.3555383,-0.32791677,0.69695854
20231225 09:59:56,1.513556,0.354473,-0.952811,-0.717345,-0.460723,0.005097,-19.408119,-8.972660,-8.991310,73.21863,0.08080703,0.07811819,-1.6050005,-0.44939515,-0.38842282,0.84271663
20231225 09:59:56,0.599002,0.797816,-0.246940,-0.849449,-0.430893,-0.047105,-19.736328,-8.703041,-9.949959,81.127686,0.1541366,0.7945079,-0.9692921,-0.53735036,-0.42814118,0.9337064
20231225 09:59:56,-0.145739,0.936675,0.637720,-0.899520,-0.394672,-0.070543,-19.742722,-8.239872,-9.310402,87.90721,0.34268922,0.8932175,-0.4754747,-0.611085,-0.43073985,0.9407949
20231225 09:59:56,-0.588411,0.749579,1.471288,-0.829207,-0.319032,-0.079065,-19.567417,-8.031521,-9.858131,90.24304,0.5759917,0.5931831,-0.10977955,-0.6134061,-0.371951,0.81538653
20231225 09:59:56,-0.794809,0.521519,2.210609,-0.645967,-0.217824,-0.089719,-19.635796,-8.617268,-8.614861,95.64762,0.8608687,0.2891338,-0.005390659,-0.52004397,-0.26226246,0.602937
20231225 09:59:56,-0.886184,0.267354,2.507397,-0.379630,-0.109158,-0.098242,-19.469456,-8.503941,-9.156471,95.4601,0.9453821,-0.007070869,0.20099854,-0.34198242,-0.13452879,0.3382348
20231225 09:59:56,-0.905540,-0.000923,2.375166,-0.087725,-0.000493,-0.092915,-19.539753,-8.130241,-9.315529,94.65188,0.8577008,-0.27626115,0.4475696,-0.1266345,-0.0011700462,0.063472286
20231225 09:59:56,-0.856779,-0.305533,1.920648,0.163697,0.079408,-0.079065,-19.151363,-8.292915,-9.033119,94.46024,0.65337855,-0.506928,0.6861508,0.06423519,0.09747367,-0.16345435
20231225 09:59:56,-0.513390,-0.588005,1.176339,0.323500,0.118826,-0.062020,-19.020496,-8.751553,-9.269814,91.36318,0.48211706,-0.65261924,0.7591032,0.18221611,0.13370033,-0.31070918
20231225 09:59:56,-0.043263,-0.617679,0.360549,0.397009,0.138003,-0.052432,-19.480606,-9.349041,-9.503334,87.70678,0.23977174,-0.6181928,0.45480585,0.22652723,0.1385303,-0.3886973
20231225 09:59:56,0.321058,-0.863703,-0.398467,0.409793,0.151852,-0.057759,-19.037659,-9.325367,-8.696648,85.646416,-0.13252299,-0.8875585,0.2852458,0.22366343,0.13676073,-0.41456473
20231225 09:59:56,0.563802,-1.041576,-0.887976,0.360787,0.148656,-0.056693,-18.940849,-9.222118,-8.836388,81.10439,-0.43397084,-1.1459608,0.10587172,0.19036293,0.11972101,-0.3800133
20231225 09:59:56,0.838186,-0.973881,-1.246918,0.274494,0.109238,-0.054562,-18.922535,-9.223969,-8.568153,77.45372,-0.637385,-1.1896232,-0.28823608,0.12878576,0.07720539,-0.29230836
20231225 09:59:56,0.944478,-0.965046,-1.592888,0.157305,0.075147,-0.054562,-19.125504,-9.333599,-8.563011,75.032234,-0.9244636,-1.2721832,-0.49881822,0.05312674,0.050948925,-0.17900242
20231225 09:59:56,0.950402,-0.785880,-1.904590,0.013483,0.053840,-0.051366,-18.931885,-9.127098,-8.842506,72.508194,-1.2183317,-1.1343493,-0.71811515,-0.028341219,0.044429973,-0.04637171
20231225 09:59:56,0.866483,-0.476362,-1.875237,-0.130339,0.046383,-0.044974,-18.774124,-9.300682,-9.097557,73.91131,-1.1954591,-0.7433308,-0.773385,-0.10038268,0.049807373,0.08198078
20231225 09:59:56,0.719643,-0.319406,-1.574286,-0.241135,0.045317,-0.026863,-18.950199,-9.125248,-9.110756,77.51517,-0.94047785,-0.47084796,-0.61742055,-0.15121707,0.05493246,0.17420387
20231225 09:59:56,0.566773,-0.068433,-1.030560,-0.296533,0.037860,-0.003426,-18.473194,-9.663467,-8.401009,83.10512,-0.5129683,-0.14099912,-0.4941455,-0.17277734,0.048310198,0.21958785
20231225 09:59:57,0.517269,0.079398,-0.563186,-0.311448,0.021880,0.010424,-18.464996,-9.184673,-8.968086,82.686,-0.13579878,0.044465788,-0.5038296,-0.17808084,0.03081074,0.23666032
20231225 09:59:57,0.489550,0.095844,-0.276790,-0.301860,0.000573,0.028535,-18.983101,-9.139027,-8.172386,85.07981,0.089740425,0.06670506,-0.45845687,-0.16424918,0.012222737,0.23838575
20231225 09:59:57,0.590881,0.149775,-0.076176,-0.276291,-0.003689,0.041319,-18.570770,-9.382938,-8.822212,83.88329,0.32618248,0.11609595,-0.5557732,-0.1442223,0.012201058,0.2182905
20231225 09:59:57,0.753558,0.098974,0.226655,-0.232612,0.006965,0.038123,-18.825077,-7.603085,-9.476814,79.11635,0.67438245,0.066779695,-0.6016294,-0.124685034,0.024583083,0.17485738
20231225 09:59:57,0.904843,0.042960,0.563435,-0.165495,0.015487,0.029600,-18.137672,-7.169102,-9.900200,77.30611,1.0299814,0.019579828,-0.606154,-0.09002635,0.03057187,0.115211196
20231225 09:59:57,1.016616,-0.043959,0.809559,-0.069614,0.037860,0.016816,-18.361408,-9.736481,-9.466911,84.486534,1.2801087,-0.059515715,-0.6457461,-0.033002596,0.04521556,0.02491561
20231225 09:59:57,1.145197,-0.132051,0.895276,0.041182,0.073016,-0.008752,-18.358452,-9.370178,-8.553001,86.54282,1.4256393,-0.15557598,-0.6733332,0.030056732,0.06761049,-0.08115111
20231225 09:59:57,1.191472,-0.348947,1.073022,0.164763,0.090062,-0.037517,-18.395081,-9.366478,-9.089485,85.7033,1.5615896,-0.36140004,-0.51796013,0.10160121,0.06904224,-0.18100491
20231225 09:59:57,1.233449,-0.426898,0.934189,0.259579,0.075147,-0.072673,-18.404430,-9.269611,-9.363853,83.93484,1.4844508,-0.4526798,-0.5000737,0.14049461,0.041496374,-0.24160305
20231225 09:59:57,1.094894,-0.545580,0.486434,0.302193,0.054905,-0.098242,-18.352444,-9.641460,-9.473030,83.57114,1.0517044,-0.58952844,-0.39215913,0.14010772,0.020447575,-0.26549354
20231225 09:59:57,0.947408,-0.524664,0.097104,0.298997,0.026141,-0.106765,-18.341293,-8.796364,-9.126167,81.865486,0.6557331,-0.57935447,-0.36131904,0.11921047,-0.0029585501,-0.25190738
20231225 09:59:57,0.748821,-0.476594,-0.285105,0.261709,0.005899,-0.111026,-18.394695,-9.558369,-8.809013,83.426285,0.21590018,-0.5298074,-0.30982062,0.07727235,-0.013946202,-0.2160478
20231225 09:59:57,0.583632,-0.282617,-0.585780,0.218030,0.027206,-0.105699,-17.928192,-9.424053,-9.215050,81.89645,-0.13725069,-0.31819662,-0.35430264,0.044606715,0.017789852,-0.20061447
20231225 09:59:57,0.370354,-0.048231,-0.793108,0.178612,0.100715,-0.091850,-18.121429,-9.822433,-8.655083,85.312256,-0.4345751,-0.052632757,-0.3122291,0.028382003,0.09980428,-0.2081362
20231225 09:59:57,0.237630,0.106606,-0.665531,0.143456,0.157179,-0.086523,-17.999912,-10.184212,-9.166145,85.73622,-0.4053393,0.116081275,-0.28393435,0.010984413,0.1593077,-0.21151638
20231225 09:59:57,0.074422,0.423456,-0.497806,0.118953,0.167832,-0.111026,-18.051514,-10.004250,-8.776482,88.50831,-0.3957835,0.45687345,-0.30646718,-0.035459865,0.17945847,-0.1942404
20231225 09:59:57,-0.403246,0.790797,-0.573148,0.121083,0.230688,-0.122745,-17.373459,-9.473392,-9.474251,89.51168,-0.8043492,0.82266194,-0.10081382,-0.06675133,0.25576043,-0.22857097
20231225 09:59:57,-0.872745,0.925155,-0.530593,0.120018,0.287151,-0.109961,-17.470387,-7.675232,-10.664360,86.989746,-1.0911942,0.8902936,0.19705805,-0.07726813,0.31582916,-0.26229036
20231225 09:59:57,-1.035925,1.040411,-0.395089,0.098711,0.297805,-0.083327,-17.875053,-10.371567,-8.482826,96.831604,-1.0941107,0.956186,0.30553082,-0.06770429,0.3182067,-0.24188884
20231225 09:59:57,-0.844995,1.123677,-0.252636,0.034790,0.256256,-0.046040,-17.804756,-10.745262,-8.323753,95.33735,-0.8398367,1.0614971,0.08476091,-0.0544274,0.26234514,-0.16957107
20231225 09:59:57,-0.315971,1.110619,-0.025295,-0.055764,0.209381,-0.008752,-17.947159,-10.939835,-8.714378,90.58099,-0.25529107,1.0999264,-0.39719164,-0.049109936,0.20766339,-0.07793491
20231225 09:59:57,0.383005,0.993137,0.512134,-0.142057,0.141199,-0.006622,-17.717293,-10.545147,-8.737846,87.014175,0.67663765,0.9998016,-0.9021191,-0.08854082,0.1451216,0.022571601
20231225 09:59:57,0.916852,0.777826,0.896346,-0.182541,0.111369,-0.053497,-17.532257,-10.625557,-8.730766,87.53469,1.3194218,0.7821324,-1.1768427,-0.15272497,0.11688766,0.06512924
20231225 09:59:57,0.831514,0.730086,1.291700,-0.185737,0.150787,-0.117418,-17.126701,-10.214409,-9.021507,89.543335,1.528968,0.7402447,-1.0994378,-0.20886388,0.15173429,0.035371773
20231225 09:59:57,0.352095,0.880974,1.614831,-0.167626,0.201923,-0.158967,-17.250404,-10.602722,-8.863426,94.442795,1.3882356,0.8348519,-0.94221246,-0.23754084,0.20177537,-0.0064985184
20231225 09:59:57,-0.233173,0.887103,2.003307,-0.147384,0.226426,-0.164293,-16.438915,-9.972317,-9.164436,96.197266,1.1819444,0.6870059,-0.6009692,-0.2392836,0.22650681,-0.03957571
20231225 09:59:57,-0.787356,0.999385,2.261255,-0.109032,0.232819,-0.142986,-17.110958,-10.774448,-9.386711,99.93618,0.8855204,0.61216426,-0.42301974,-0.20490602,0.23330331,-0.0687456
20231225 09:59:57,-1.152768,0.929217,2.416952,-0.044045,0.260518,-0.084392,-16.996220,-10.481159,-9.538689,100.42949,0.6822332,0.41454333,-0.17608929,-0.124810785,0.26064378,-0.14325361
20231225 09:59:57,-1.180991,0.718227,2.348445,0.047574,0.298870,0.005097,-17.138237,-10.867619,-9.648842,100.562706,0.6477689,0.2574436,-0.00850758,5.2145286E-4,0.29952377,-0.24623853
20231225 09:59:57,-0.744957,0.205052,1.998235,0.138129,0.334027,0.078606,-16.880711,-10.571651,-9.129707,99.565994,0.79604,-0.048474357,0.121239856,0.12386464,0.3372749,-0.34407672
20231225 09:59:57,-0.212255,-0.386635,1.435847,0.218030,0.372379,0.104174,-16.669163,-10.175110,-9.421440,95.96564,0.85655844,-0.47901273,0.31676894,0.20835525,0.37814614,-0.426266
20231225 09:59:57,0.036036,-0.910022,0.802382,0.286212,0.428843,0.093521,-16.723721,-10.361450,-9.945702,94.97888,0.6364109,-0.95200175,0.57559377,0.2449351,0.43921095,-0.5117502
20231225 09:59:57,0.046829,-1.328172,0.287959,0.321369,0.472522,0.071149,-16.653034,-10.927036,-9.506157,97.03171,0.32500476,-1.3383598,0.87421066,0.24561071,0.48720014,-0.5650295
20231225 09:59:57,-0.019843,-1.543227,-0.050969,0.305389,0.492763,0.043450,-16.504623,-11.003754,-10.035561,96.71208,0.08513346,-1.5287797,1.0939626,0.20190938,0.51156324,-0.5645703
20231225 09:59:57,-0.155331,-1.595884,-0.077515,0.263840,0.485306,0.025339,-16.493473,-10.158653,-9.688698,96.90718,-0.0013204738,-1.5870906,1.2409132,0.15542966,0.50475657,-0.53003526
20231225 09:59:57,-0.297582,-1.597818,0.112700,0.218030,0.439496,0.020012,-16.141708,-10.317623,-9.942772,98.188515,0.057972126,-1.6242474,1.330085,0.11672136,0.45758918,-0.46596688
20231225 09:59:57,-0.483450,-1.508263,0.200353,0.150913,0.370248,0.040254,-16.256447,-10.610912,-9.790794,99.943436,0.012668222,-1.5755962,1.3709342,0.08140077,0.3785509,-0.37019765
20231225 09:59:57,-0.630161,-1.273520,0.257664,0.052901,0.273302,0.087129,-16.107651,-10.879513,-10.039726,99.72833,-0.070124686,-1.377072,1.2988915,0.05656412,0.26181254,-0.23691915
20231225 09:59:57,-0.588013,-1.090955,0.215377,-0.058960,0.169963,0.139331,-16.495274,-11.100620,-9.761208,99.93208,-0.08251673,-1.1842827,1.1391822,0.032769546,0.13632679,-0.088253684
20231225 09:59:57,-0.563085,-0.859291,0.099115,-0.180410,0.082604,0.183010,-15.974216,-10.779961,-9.642982,98.53055,-0.17428878,-0.9334213,0.97742534,-3.7388504E-4,0.028236747,0.061084874
20231225 09:59:57,-0.541552,-0.642553,0.200218,-0.303990,0.010161,0.214971,-16.343910,-10.811031,-9.376701,98.767815,-0.12328525,-0.729637,0.80691504,-0.047989488,-0.06062269,0.19737974
20231225 09:59:57,-0.468706,-0.395270,0.334351,-0.414787,-0.044172,0.219232,-16.071022,-10.883209,-9.503227,98.01447,-0.016665712,-0.48928082,0.5790306,-0.11135803,-0.1221074,0.31707618
20231225 09:59:57,-0.504084,-0.137247,0.607995,-0.501080,-0.074002,0.213905,-16.168221,-10.794571,-9.643959,97.83298,0.11766744,-0.27503613,0.40719217,-0.174217,-0.16092783,0.39892778
20231225 09:59:57,-0.549759,-0.033998,0.738560,-0.542628,-0.053760,0.210709,-15.965633,-10.493053,-9.929573,96.76553,0.14779642,-0.17977136,0.35910302,-0.22032578,-0.13761503,0.41070756
20231225 09:59:57,-0.492310,0.025525,1.273733,-0.525583,0.025076,0.187272,-16.318169,-9.950306,-10.236458,95.79588,0.5207421,-0.15996107,0.23217115,-0.25099093,-0.051018707,0.33441696
20231225 09:59:57,-0.580249,-0.011243,1.820693,-0.427571,0.145460,0.154246,-15.912231,-9.731045,-10.246727,97.341545,0.75855666,-0.2683403,0.21873865,-0.23429576,0.077460155,0.16061671
20231225 09:59:57,-0.829958,-0.040714,2.349988,-0.237939,0.264779,0.130808,-16.398853,-10.805481,-10.181435,101.84103,0.8441649,-0.4185456,0.19007504,-0.13067761,0.21345468,-0.06793948
20231225 09:59:57,-0.921829,-0.233297,2.487808,-0.004628,0.373444,0.126547,-16.150673,-10.412643,-9.936653,101.802345,0.85278773,-0.6247326,0.36277577,0.03421827,0.35340247,-0.30111307
20231225 09:59:57,-0.749009,-0.332615,2.311420,0.236141,0.425647,0.116959,-16.062828,-10.404415,-10.070290,100.00832,0.95308757,-0.6585978,0.43176252,0.2102184,0.4366054,-0.48726213
20231225 09:59:57,-0.541861,-0.444221,1.424578,0.446015,0.455476,0.090325,-16.080757,-10.594452,-10.058052,98.29428,0.64302504,-0.6695014,0.54564697,0.32852238,0.49204493,-0.6434063
20231225 09:59:57,-0.401033,-0.650435,0.277140,0.551484,0.454411,0.065822,-16.011223,-10.584370,-10.459938,93.84419,0.023181438,-0.7195048,0.71663564,0.35498524,0.4998419,-0.71652323
20231225 09:59:57,-0.271701,-0.571305,-0.167123,0.580248,0.417124,0.045580,-16.090492,-10.305695,-10.612907,88.423256,-0.219953,-0.56779176,0.55071115,0.3215252,0.4589259,-0.71379584
20231225 09:59:57,0.039809,-0.567808,-1.455664,0.530177,0.378771,0.027469,-15.342136,-10.148537,-11.151588,82.98699,-1.1293712,-0.37753594,0.17071776,0.25691,0.4124663,-0.64705676
20231225 09:59:57,0.246450,-0.508792,-1.955733,0.414054,0.311654,0.014685,-15.286812,-10.345978,-10.066383,82.53578,-1.5276018,-0.28519595,-0.094856985,0.17997426,0.33186683,-0.51088387
20231225 09:59:57,0.367742,-0.444527,-2.189563,0.263840,0.223230,0.004032,-15.798527,-10.763504,-9.910255,82.3599,-1.7090725,-0.23393221,-0.25379258,0.10846249,0.23410372,-0.33674392
20231225 09:59:57,0.388054,-0.478229,-2.175086,0.090188,0.119892,-0.004491,-15.519245,-11.298855,-10.676353,81.91988,-1.6601679,-0.24751425,-0.25875998,0.028217409,0.12435153,-0.13660875
20231225 09:59:57,0.328716,-0.415259,-1.789923,-0.077071,0.020814,-0.014079,-15.515903,-11.124439,-9.481972,87.685265,-1.3039398,-0.20994526,-0.10225771,-0.05417842,0.017319104,0.054676805
20231225 09:59:57,0.267241,-0.431432,-1.370648,-0.191064,-0.038845,-0.028994,-15.340599,-10.916096,-10.029701,88.704994,-0.9214957,-0.2647615,0.00760819,-0.12816395,-0.0493292,0.17891145
20231225 09:59:57,0.118363,-0.453454,-0.766697,-0.239004,-0.048433,-0.047105,-15.568275,-10.560703,-9.653252,92.798355,-0.47063917,-0.34816656,0.20949584,-0.17851052,-0.064273365,0.21933047
20231225 09:59:57,-0.163207,-0.437533,-0.078257,-0.220893,-0.065479,-0.058824,-15.216129,-10.911564,-9.626839,96.71383,-0.11049943,-0.4394961,0.4149791,-0.18086249,-0.08146792,0.21359546
20231225 09:59:57,-0.301231,-0.478487,0.354931,-0.153776,-0.088917,-0.058824,-15.394775,-11.294323,-10.273491,97.48151,0.109209955,-0.55042076,0.51244646,-0.13632815,-0.098145604,0.1777777
20231225 09:59:57,-0.280306,-0.554924,0.572665,-0.109032,-0.102766,-0.057759,-15.383240,-10.641113,-9.646156,97.535515,0.27763402,-0.6430908,0.530925,-0.10498383,-0.10676121,0.15444766
20231225 09:59:57,-0.160464,-0.631782,0.523988,0.016679,-0.156034,-0.078000,-15.128666,-10.711445,-10.040947,95.84115,0.33374164,-0.69569707,0.5109531,-0.02852016,-0.14464681,0.09963673
20231225 09:59:57,-0.154074,-0.631344,0.270296,0.066751,-0.189059,-0.103568,-15.304356,-10.727905,-9.773689,95.78019,0.16832265,-0.6703242,0.51522726,-0.010386944,-0.16830885,0.082476474
20231225 09:59:57,-0.171548,-0.590324,-0.013229,0.093384,-0.212497,-0.129137,-15.179886,-10.723373,-9.370842,96.6261,-0.044360492,-0.59896123,0.512276,-0.008381873,-0.18211319,0.075761095
20231225 09:59:57,-0.310060,-0.550640,-0.344564,0.109365,-0.212497,-0.155771,-15.234058,-11.101601,-9.614616,96.914604,-0.36866766,-0.5234637,0.6097873,-0.016426668,-0.16888575,0.058354735
20231225 09:59:57,-0.498305,-0.552297,-0.642853,0.112561,-0.193321,-0.184535,-15.216515,-10.719673,-9.907326,96.973206,-0.681285,-0.47942102,0.7768841,-0.032437325,-0.1304403,0.041537754
20231225 09:59:57,-0.819064,-0.352745,-0.861555,0.097646,-0.168818,-0.201581,-15.383240,-10.641113,-9.646156,99.925385,-1.042872,-0.2608397,0.9539814,-0.050072864,-0.085098155,0.039651334
20231225 09:59:57,-1.141362,-0.147634,-0.982929,0.061424,-0.152837,-0.197319,-15.040440,-10.895103,-9.894112,101.159676,-1.3598571,-0.08607888,1.1231402,-0.06621756,-0.067878425,0.05955662
20231225 09:59:57,-1.319626,0.107169,-0.963650,0.009222,-0.168818,-0.178143,-14.855015,-11.167404,-9.606544,103.33604,-1.5138841,0.1113597,1.1488848,-0.07205191,-0.09298998,0.11017295
20231225 09:59:57,-1.483421,0.333420,-0.994227,-0.051503,-0.182667,-0.149378,-14.960789,-11.365673,-9.460701,104.929535,-1.7052531,0.28589204,1.1760982,-0.07731135,-0.12647836,0.16569027
20231225 09:59:57,-1.630918,0.524078,-0.850018,-0.095182,-0.199713,-0.114222,-15.303970,-10.919792,-9.493217,104.66993,-1.7577791,0.36285794,1.1536717,-0.070575446,-0.16496888,0.20697355
20231225 09:59:57,-1.688434,0.627979,-0.630412,-0.122881,-0.219954,-0.085458,-14.898418,-10.508648,-9.783958,103.17102,-1.6692276,0.3639164,1.0923594,-0.059011795,-0.20032209,0.2366273
20231225 09:59:57,-1.768194,0.878262,-0.482235,-0.110097,-0.207170,-0.052432,-15.251987,-11.291641,-9.602394,105.247604,-1.6986699,0.51725185,0.9978703,-0.032901973,-0.19744517,0.21526375
20231225 09:59:57,-1.856227,0.808544,-0.344757,-0.083463,-0.179471,-0.010883,-14.811226,-12.018047,-9.148689,108.23125,-1.648257,0.3714619,1.0717728,0.0015757205,-0.18046948,0.17200819
20231225 09:59:57,-1.802770,0.784968,-0.126627,-0.063222,-0.177341,0.042384,-15.312557,-11.206699,-9.206642,104.9192,-1.4335258,0.3480623,0.97586775,0.044740953,-0.1915089,0.14848894
20231225 09:59:57,-1.620939,0.730715,-0.048283,-0.055764,-0.175210,0.065822,-15.127518,-11.287109,-9.199547,102.69391,-1.2306231,0.3984215,0.81329036,0.05449255,-0.19308525,0.14204933
20231225 09:59:57,-0.974006,0.346389,0.262226,-0.011020,-0.174144,0.107370,-15.013813,-12.319569,-8.863075,103.52717,-0.49487108,0.1463292,0.48672178,0.10327202,-0.18997394,0.101519026
20231225 09:59:57,-0.567036,0.036184,0.370311,0.014549,-0.163491,0.109501,-14.941708,-11.751301,-8.631508,102.14688,-0.10293427,-0.09171638,0.35383412,0.11472806,-0.17462522,0.07870908
20231225 09:59:57,-0.479055,-0.078701,0.323135,0.130672,-0.123008,0.078606,-15.207432,-12.526062,-8.583580,103.86314,-0.05948873,-0.18963781,0.36302152,0.16236487,-0.11534376,-0.033727758
20231225 09:59:57,-0.624486,-0.069040,0.139245,0.200985,-0.112354,0.060495,-14.950672,-11.846321,-8.625389,102.47651,-0.27533776,-0.1845712,0.50874037,0.19266585,-0.090598345,-0.09534454
20231225 09:59:57,-0.694015,0.008435,-0.042652,0.223357,-0.115550,0.057299,-15.108433,-11.672737,-8.370354,102.65539,-0.4450599,-0.09581582,0.5605383,0.20219308,-0.087319374,-0.12098313
20231225 09:59:57,-0.931752,0.366961,-0.691523,0.216965,-0.152837,0.066887,-14.986534,-12.226398,-8.600945,103.22626,-1.1602688,0.36561137,0.6630677,0.21377456,-0.12424645,-0.10587237
20231225 09:59:57,-1.047076,0.635120,-0.964250,0.173286,-0.173079,0.076475,-14.889339,-12.315037,-8.460228,103.94016,-1.5092716,0.6851944,0.6814456,0.20364188,-0.15289667,-0.06696311
20231225 09:59:57,-1.197689,1.005960,-0.984449,0.100842,-0.198647,0.097782,-15.134941,-12.149685,-8.071541,104.52234,-1.7119306,1.0181866,0.64421964,0.19018492,-0.19689503,0.0012340834
20231225 09:59:57,-1.148266,1.423831,-0.666967,-0.024869,-0.231673,0.139331,-15.232140,-12.061043,-8.212257,102.18464,-1.5067766,1.3441153,0.2859906,0.15508649,-0.25961894,0.12778558
20231225 09:59:57,-1.065864,1.639996,-0.234927,-0.096248,-0.281745,0.164899,-14.868835,-11.566811,-7.838997,99.53816,-1.0591543,1.5289159,-0.038881354,0.12081374,-0.31292802,0.22305962
20231225 09:59:57,-0.395775,1.916050,0.898015,-0.256050,-0.457527,0.230951,-15.178734,-11.299038,-8.529427,94.55781,0.30802637,1.7953237,-0.8588936,0.074103475,-0.49284244,0.46603245
20231225 09:59:57,0.020091,2.110076,1.250027,-0.292272,-0.480965,0.244800,-15.205631,-11.584095,-8.511086,93.35916,0.91684127,2.0566,-1.3410088,0.036172822,-0.49954745,0.5152261
20231225 09:59:57,0.331038,2.147625,1.706842,-0.301860,-0.466050,0.227755,-15.205631,-11.584095,-8.511086,93.498,1.5083196,2.1345356,-1.6848506,-0.011986569,-0.47031832,0.5199403
20231225 09:59:57,0.514627,2.118875,2.205305,-0.291206,-0.457527,0.185141,-15.345074,-11.412369,-7.987801,95.40189,2.0078294,2.1279135,-1.9152825,-0.05533287,-0.4552318,0.5078372
20231225 09:59:57,0.533546,2.033794,2.374472,-0.231547,-0.394672,0.136135,-15.644852,-11.625248,-7.842903,98.56408,2.0811136,2.0224533,-2.0106845,-0.05746998,-0.39679345,0.42231566
20231225 09:59:57,0.169340,1.400718,2.831711,-0.095182,-0.258307,0.100978,-15.256462,-11.787914,-7.560493,103.873375,2.0236351,1.3140463,-1.5963733,0.00858441,-0.26449,0.22991969
20231225 09:59:57,-0.191506,0.672962,3.061580,0.111495,-0.107028,0.084998,-15.265808,-11.691048,-7.834831,106.18581,1.801337,0.50539255,-1.0166934,0.14521343,-0.10440214,-0.012186345
20231225 09:59:57,-0.326998,0.285771,3.090509,0.358656,0.018684,0.071149,-15.194088,-10.930893,-7.883736,106.1283,1.641765,0.07048328,-0.68296564,0.32358906,0.04178123,-0.25283495
20231225 09:59:57,-0.504597,-0.412388,2.904438,0.485433,0.062363,0.066887,-15.035946,-11.296360,-7.858315,107.37113,1.421874,-0.62489307,-0.05853659,0.41830385,0.09518652,-0.3634201
20231225 09:59:57,-0.194675,-1.419572,1.532072,0.796514,0.142264,0.023208,-15.043110,-10.449413,-7.779701,102.69388,0.91555715,-1.4945812,0.9203181,0.6113923,0.1819615,-0.6297387
20231225 09:59:57,0.055399,-1.824831,0.457346,0.857239,0.157179,0.001901,-14.981773,-10.918129,-7.614525,100.84351,0.39624274,-1.8325726,1.1910698,0.61564606,0.17628346,-0.7058716
20231225 09:59:57,0.218945,-1.976311,0.030313,0.912637,0.167832,-0.038582,-15.148499,-10.839569,-7.353371,98.56126,0.1644876,-1.9772462,1.2105081,0.61308163,0.16281104,-0.763219
20231225 09:59:57,0.669590,-2.264385,-0.739613,0.819952,0.114565,-0.101438,-14.663681,-10.707104,-7.491158,89.929375,-0.33908325,-2.3775592,0.98615617,0.47569788,0.031032987,-0.6926919
20231225 09:59:58,1.082092,-2.329697,-1.053231,0.679326,0.013357,-0.129137,-14.706318,-10.432125,-7.107613,84.03161,-0.5171334,-2.6093931,0.5613012,0.335405,-0.10731865,-0.54253227
20231225 09:59:58,1.485896,-2.291030,-1.318920,0.591967,-0.042041,-0.136594,-15.146961,-11.607124,-6.231483,87.082054,-0.5505314,-2.7380419,0.22689605,0.25818354,-0.17032391,-0.4403952
20231225 09:59:58,1.883576,-2.198993,-1.423375,0.394878,-0.153903,-0.146182,-14.787655,-12.804932,-6.283699,82.701,-0.5860765,-2.904238,-0.29482627,0.0834568,-0.27869514,-0.23395887
20231225 09:59:58,2.188891,-1.954217,-1.536911,0.179678,-0.247653,-0.166424,-15.076664,-11.980820,-6.072426,79.83809,-0.43366325,-2.8036866,-0.75766635,-0.09284697,-0.32299352,-0.014885904
20231225 09:59:58,2.265722,-1.666417,-1.385639,-0.040849,-0.303052,-0.182404,-14.918903,-12.154400,-6.327461,81.25965,-0.15415251,-2.461954,-0.94278836,-0.24930272,-0.32630217,0.19637345
20231225 09:59:58,2.149145,-1.321222,-0.834116,-0.262442,-0.372299,-0.193058,-15.282589,-12.456749,-6.981194,86.59565,0.43766463,-1.8368958,-0.8720204,-0.39147875,-0.3525466,0.4305909
20231225 09:59:58,1.583202,-0.534338,0.220893,-0.496818,-0.487357,-0.180274,-15.070271,-12.443989,-6.711983,94.8768,1.1202527,-0.64565563,-0.89282507,-0.50634915,-0.4579524,0.70208544
20231225 09:59:58,1.026458,-0.160604,0.610238,-0.569262,-0.516121,-0.156836,-14.937603,-11.960663,-6.876183,97.11875,1.1219677,-0.17419913,-0.7247917,-0.51602906,-0.49776572,0.7781654
20231225 09:59:58,0.834523,-0.023923,0.870736,-0.584177,-0.523579,-0.150444,-14.761143,-12.327984,-6.582497,100.06086,1.2029022,-0.018680815,-0.7158689,-0.51348436,-0.5108049,0.7962395
20231225 09:59:58,0.425773,0.543127,1.124563,-0.510668,-0.489488,-0.169620,-14.908134,-11.117416,-6.261070,99.62058,1.1281332,0.5341926,-0.7916129,-0.45294788,-0.49244523,0.7197258
20231225 09:59:58,0.039995,0.645420,1.067780,-0.416917,-0.406390,-0.186666,-14.768955,-12.998665,-5.734978,106.93034,0.814999,0.5930294,-0.6222693,-0.3891339,-0.4133495,0.60366976
20231225 09:59:58,-0.233868,0.751490,0.987932,-0.323167,-0.331816,-0.193058,-15.033642,-12.447689,-6.175484,105.24369,0.5573176,0.6653548,-0.44622058,-0.33061963,-0.33560228,0.48530924
20231225 09:59:58,-0.314968,0.703136,0.947309,-0.232612,-0.275353,-0.189862,-14.840023,-12.241196,-6.454979,104.89868,0.4659496,0.5855089,-0.3371204,-0.26717758,-0.2732469,0.37906024
20231225 09:59:58,-0.488859,0.526005,0.637433,-0.147384,-0.215693,-0.171751,-14.761143,-12.327984,-6.582497,104.92437,0.13308138,0.41789585,-0.04067278,-0.20338537,-0.20853889,0.27321324
20231225 09:59:58,-0.511785,0.277228,0.351926,-0.078137,-0.176275,-0.148313,-14.927483,-12.441307,-6.040871,106.191864,-0.07374409,0.20302415,0.17146567,-0.14705138,-0.16686022,0.19270638
20231225 09:59:58,-0.426012,-0.030408,0.075374,-0.050438,-0.167752,-0.134464,-15.069885,-12.635880,-6.431511,104.69364,-0.20319085,-0.06522379,0.34034202,-0.121883,-0.15875646,0.16146407
20231225 09:59:58,-0.193244,-0.340616,-0.356451,-0.021673,-0.165622,-0.107830,-14.557407,-12.602131,-6.026695,103.59207,-0.38083625,-0.327743,0.40402636,-0.0894998,-0.15998882,0.12946375
20231225 09:59:58,0.096736,-0.589051,-0.826384,-0.034457,-0.168818,-0.086523,-14.857185,-12.815014,-5.881813,100.757805,-0.6093575,-0.58161527,0.34959364,-0.08895689,-0.16829883,0.13427447
20231225 09:59:58,0.574697,-0.880041,-1.176843,-0.078137,-0.178406,-0.071608,-14.584301,-12.887188,-6.008354,96.951225,-0.6745521,-0.97782063,0.12469221,-0.114823386,-0.17885242,0.17171791
20231225 09:59:58,0.688094,-0.897030,-1.191869,-0.142057,-0.199713,-0.068412,-14.537941,-13.179646,-4.917046,100.00437,-0.637748,-1.042803,0.080654256,-0.15618342,-0.1954278,0.23727559
20231225 09:59:58,0.932610,-0.892128,-1.189784,-0.203848,-0.219954,-0.080131,-14.680344,-13.374210,-5.307671,97.263115,-0.5168098,-1.1193575,-0.14644624,-0.21187796,-0.20853274,0.29909438
20231225 09:59:58,1.076416,-0.811946,-1.158621,-0.249658,-0.211432,-0.095046,-14.540127,-13.929726,-5.270012,98.781105,-0.39961094,-1.0501361,-0.29770422,-0.24951807,-0.19778356,0.33326572
20231225 09:59:58,0.955555,-0.446496,-0.926192,-0.300794,-0.207170,-0.117418,-14.582764,-13.654743,-4.886482,101.49262,-0.22569376,-0.5751673,-0.41193864,-0.28737488,-0.19809091,0.37639838
20231225 09:59:58,0.804360,-0.301788,-0.863699,-0.349800,-0.222085,-0.140856,-14.785732,-13.764378,-4.881340,102.62465,-0.24916297,-0.38136932,-0.3726666,-0.33028254,-0.21544924,0.42849922
20231225 09:59:58,0.431887,0.000962,-0.688557,-0.367911,-0.194386,-0.155771,-14.706852,-13.851158,-5.008858,105.51771,-0.30919886,0.0091782855,-0.24487971,-0.3390063,-0.1952583,0.43246856
20231225 09:59:58,-0.003450,0.320294,-0.471221,-0.330624,-0.102766,-0.147248,-14.839909,-14.142601,-5.125130,110.088615,-0.40245456,0.35583252,-0.08065686,-0.30752176,-0.11025279,0.35272282
20231225 09:59:58,-0.326751,0.560874,-0.123209,-0.306121,-0.074002,-0.135529,-14.901241,-13.673885,-5.290306,110.31989,-0.35440266,0.54267937,-0.03539718,-0.28536803,-0.08375472,0.31368083
20231225 09:59:58,-0.547325,0.680717,0.055647,-0.246462,-0.027126,-0.101438,-15.033913,-14.157211,-5.126106,111.79407,-0.36366957,0.62286264,0.035587706,-0.2270343,-0.03640558,0.23363976
20231225 09:59:58,-0.563966,0.693517,0.164834,-0.177214,0.027206,-0.049236,-14.599926,-14.228561,-4.313301,114.312965,-0.28341737,0.6349591,0.007027298,-0.15084818,0.01895902,0.13604435
20231225 09:59:58,-0.315874,0.567779,0.159883,-0.098378,0.084735,0.000836,-14.424622,-14.020210,-4.861046,111.07626,-0.09211033,0.5599669,-0.13806203,-0.0644093,0.08320527,0.023864653
20231225 09:59:58,0.319256,0.113049,0.300322,0.009222,0.092193,0.004032,-14.381599,-14.487083,-4.964119,110.79712,0.4372995,0.113429524,-0.3806551,0.010389293,0.09212017,-0.06391123
20231225 09:59:58,0.431627,0.050419,0.214320,0.052901,0.096454,-0.004491,-14.239582,-14.100624,-4.853966,109.4837,0.44277474,0.046593904,-0.40719867,0.033034246,0.09514327,-0.098001465
20231225 09:59:58,0.600286,-0.093023,-0.158016,0.157305,0.131610,-0.044974,-14.088596,-13.619144,-4.749901,106.76863,0.24781999,-0.12292968,-0.38431305,0.06950638,0.12332158,-0.19344296
20231225 09:59:58,0.719423,-0.190097,-0.507270,0.175416,0.146525,-0.057759,-14.390564,-14.582100,-4.958000,105.80741,0.018703192,-0.25547126,-0.38011184,0.06908202,0.13412386,-0.2154612
20231225 09:59:58,0.772526,-0.129085,-0.864657,0.193527,0.182747,-0.076935,-14.142384,-14.189270,-4.713219,103.9792,-0.26847783,-0.21907528,-0.43937945,0.06040725,0.16850361,-0.24962986
20231225 09:59:58,0.609638,-0.001793,-0.887045,0.158371,0.247733,-0.085458,-14.311684,-14.668892,-5.085518,105.89082,-0.37327477,-0.025724957,-0.35716212,0.025978714,0.24408938,-0.253269
20231225 09:59:58,0.493009,0.132199,-0.755095,0.146652,0.257322,-0.082262,-13.780891,-14.636993,-4.412468,110.734505,-0.32775667,0.15578824,-0.3163406,0.013387457,0.26123145,-0.24256735
20231225 09:59:58,0.243505,0.345635,-0.476011,0.133868,0.251995,-0.056693,-14.160698,-14.187416,-4.981468,108.33062,-0.25762975,0.3700179,-0.3018421,0.022408284,0.25752974,-0.23780185
20231225 09:59:58,0.139882,0.549685,-0.396991,0.120018,0.227492,-0.020471,-14.195793,-14.951271,-4.396080,110.94246,-0.26948816,0.5699301,-0.32659233,0.041909996,0.2315909,-0.21550925
20231225 09:59:58,0.158918,0.758812,-0.517819,0.096580,0.204054,0.008293,-13.993206,-14.649757,-4.681679,107.871544,-0.36650214,0.77634066,-0.44272804,0.05418662,0.20553157,-0.1889319
20231225 09:59:58,0.303863,0.916420,-0.580668,0.050771,0.211512,0.027469,-14.320267,-14.955795,-4.798943,106.43789,-0.3066002,0.91023093,-0.6498239,0.05271299,0.21145132,-0.1592855
20231225 09:59:58,0.500326,0.922475,-0.430524,0.046509,0.223230,0.018947,-14.380447,-15.062744,-4.122704,108.6307,-0.05647844,0.90788907,-0.8284028,0.046007432,0.22293617,-0.16103278
20231225 09:59:58,0.598585,0.790411,-0.192766,0.065685,0.272236,-0.020471,-13.641056,-15.000618,-4.655281,110.09529,0.20508891,0.7845065,-0.8822459,0.024777189,0.2715826,-0.19978514
20231225 09:59:58,0.473867,0.786260,0.204618,0.117887,0.326569,-0.073739,-13.932259,-14.926575,-4.796989,111.59109,0.4363518,0.7890213,-0.86719495,0.0073300824,0.32954443,-0.26201043
20231225 09:59:58,0.164948,0.826761,0.445448,0.181808,0.362791,-0.105699,-13.914326,-14.736534,-4.809212,113.2299,0.39907953,0.8036702,-0.702941,0.0046970844,0.37739086,-0.32229993
20231225 09:59:58,-0.106058,0.971093,0.461172,0.228684,0.373444,-0.099307,-13.871689,-15.011528,-5.192757,112.931595,0.21882492,0.9182353,-0.55878556,0.025497802,0.3947918,-0.3659983
20231225 09:59:58,-0.174327,1.146340,0.345891,0.185004,0.294609,-0.044974,-13.438473,-14.699089,-4.940895,110.89416,0.11361483,1.1157612,-0.5471498,0.052846204,0.30418402,-0.3006971
20231225 09:59:58,0.136464,1.176938,0.182994,0.140260,0.245603,-0.026863,-13.693043,-14.628769,-4.546104,109.59291,0.2050483,1.1748811,-0.78145105,0.053413495,0.24797714,-0.24226794
20231225 09:59:58,0.722743,1.016582,0.087457,0.043313,0.174224,-0.021537,-13.692661,-14.820648,-4.265617,108.6749,0.540313,0.99452376,-1.1650457,0.016007042,0.17144819,-0.12740809
20231225 09:59:58,1.113351,0.739978,0.123880,-0.006758,0.172094,-0.054562,-13.359211,-14.977768,-4.787941,110.33751,0.81337816,0.70672935,-1.3312184,-0.039698474,0.16970073,-0.08211825
20231225 09:59:58,0.978192,0.579341,0.376919,-0.060026,0.178486,-0.122745,-13.244083,-14.876373,-4.659431,114.20037,0.91619325,0.57928234,-1.1886061,-0.13267745,0.17847607,-0.02597922
20231225 09:59:58,0.643965,0.562588,0.832211,-0.073875,0.161440,-0.144052,-13.738255,-14.911972,-4.796013,114.50855,1.0384192,0.5560911,-1.046036,-0.16108026,0.16316277,-2.7168915E-4
20231225 09:59:58,0.199486,0.626763,1.121415,-0.089855,0.142264,-0.165359,-13.105022,-14.856209,-5.463188,116.472855,0.9187964,0.546956,-0.85010636,-0.19427279,0.14840335,0.032103952
20231225 09:59:58,-0.451077,0.686517,1.251659,-0.048307,0.204054,-0.140856,-13.501228,-15.364227,-4.898094,123.05463,0.46670067,0.37670517,-0.52348024,-0.16873085,0.21496378,-0.028529223
20231225 09:59:58,-1.141643,0.763511,1.513144,-0.025935,0.225361,-0.108895,-12.998482,-15.041725,-5.048119,123.69459,0.13348323,0.248007,-0.1834243,-0.13676998,0.23355302,-0.068459615
20231225 09:59:58,-1.476742,0.758156,1.749063,0.023071,0.229622,-0.014079,-13.253048,-14.971397,-4.653328,124.96903,0.02700138,0.11823496,-0.0793215,-0.03759079,0.22823812,-0.14240697
20231225 09:59:58,-1.202091,0.488684,1.701141,0.061424,0.212577,0.091390,-13.235119,-14.781357,-4.665550,123.1916,0.26952565,0.041719705,-0.0817858,0.074610256,0.20305061,-0.2035519
20231225 09:59:58,-0.537639,0.064188,1.419071,0.077404,0.191270,0.159573,-13.077744,-14.763046,-5.201073,119.782845,0.62245333,-0.10365657,-0.14960787,0.15080081,0.1826985,-0.22711653
20231225 09:59:58,0.184156,-0.412907,1.083477,0.079535,0.187009,0.177683,-12.751068,-14.265106,-5.364296,116.865,0.9115881,-0.43789247,-0.2162613,0.17699635,0.18407908,-0.23017828
20231225 09:59:58,0.660269,-0.750454,0.825628,0.092319,0.229622,0.154246,-13.579723,-15.469330,-4.490105,119.81679,1.0491943,-0.75019276,-0.29518846,0.17460594,0.2297202,-0.2607045
20231225 09:59:58,0.774719,-1.023344,0.813838,0.117887,0.289282,0.112697,-13.077358,-14.954933,-4.920601,120.14645,1.1254487,-1.0232755,-0.18132195,0.16202238,0.28932664,-0.30457187
20231225 09:59:58,0.646662,-1.351629,1.000373,0.135998,0.315916,0.080737,-13.068394,-14.859909,-4.926704,121.76096,1.1714001,-1.3560979,0.04175979,0.14940627,0.3172067,-0.32357153
20231225 09:59:58,0.445573,-1.390972,1.228890,0.179678,0.308458,0.054103,-13.210796,-15.054482,-5.317345,122.11425,1.2030993,-1.4202031,0.10474965,0.1570513,0.31469697,-0.33683902
20231225 09:59:58,0.007356,-1.574199,1.054277,0.226553,0.293543,0.028535,-13.316574,-15.252754,-5.171486,124.19231,0.84453064,-1.659462,0.53080916,0.16055046,0.3131068,-0.3439824
20231225 09:59:58,-0.376653,-1.629363,0.803710,0.212703,0.259452,0.029600,-12.883354,-14.940323,-4.919624,124.66573,0.45055473,-1.7506979,0.90696526,0.1455037,0.28007263,-0.3134353
20231225 09:59:58,-0.525972,-1.320138,0.781490,0.193527,0.212577,0.040254,-13.086708,-14.858063,-5.194954,123.66842,0.3334072,-1.4857835,0.8450607,0.13677786,0.23186716,-0.27771994
20231225 09:59:58,-0.783723,-1.309234,0.609149,0.156240,0.172094,0.060495,-12.910252,-15.225380,-4.901283,125.845924,0.07765794,-1.5167192,1.0513072,0.12260003,0.18426877,-0.23435278
20231225 09:59:58,-0.913551,-1.073549,0.574640,0.098711,0.133741,0.092456,-13.226540,-14.494446,-4.952141,123.43997,-0.049161613,-1.3124138,1.0564646,0.107849926,0.13004565,-0.18455608
20231225 09:59:58,-0.942583,-0.813668,0.666755,0.032660,0.095389,0.126547,-13.059429,-14.764893,-4.932823,123.8576,-0.056436896,-1.0739025,0.88473296,0.09300384,0.075376794,-0.12838188
20231225 09:59:58,-0.840577,-0.646343,0.839128,-0.034457,0.041056,0.156376,-12.892323,-15.035347,-4.913506,123.9309,0.09383115,-0.8939246,0.6458761,0.07781004,0.009946728,-0.060735017
20231225 09:59:58,-0.593374,-0.528337,0.967273,-0.086659,-0.007950,0.162769,-13.155857,-15.060036,-4.512596,123.14511,0.3450613,-0.7242305,0.36805573,0.056405563,-0.040620804,0.0054687895
20231225 09:59:58,-0.406819,-0.341059,0.998053,-0.110097,-0.018604,0.149984,-13.528507,-15.457405,-5.160240,121.03069,0.4722087,-0.49620193,0.14131206,0.03343661,-0.047700725,0.03739494
20231225 09:59:58,-0.329352,-0.243897,1.003573,-0.105836,0.010161,0.120155,-13.147278,-14.773117,-4.799202,120.72112,0.5255753,-0.39209557,0.032921582,0.012961306,-0.015255137,0.029225238
20231225 09:59:58,-0.323417,-0.168931,0.974501,-0.073875,0.090062,0.080737,-13.262398,-14.874519,-4.927681,120.495,0.5029618,-0.32010305,-0.0013466775,-0.002946686,0.07084282,-0.026806856
20231225 09:59:58,-0.445715,-0.148769,1.008976,-0.012085,0.187009,0.050907,-13.095287,-15.144966,-4.908363,122.21013,0.4336602,-0.33984333,0.040517837,0.0027022175,0.1752926,-0.11864819
20231225 09:59:58,-0.602892,-0.213905,1.047177,0.079535,0.285021,0.042384,-13.219379,-15.341393,-5.030754,122.622894,0.35567686,-0.4420035,0.1700117,0.044216916,0.2841983,-0.23919493
20231225 09:59:58,-0.607998,-0.361115,0.899796,0.180743,0.348941,0.045580,-12.762226,-15.110207,-5.711159,121.199715,0.27790415,-0.5808302,0.33422557,0.10246876,0.36029512,-0.35252026
20231225 09:59:58,-0.588824,-0.497192,0.610375,0.270232,0.367052,0.056234,-12.883354,-14.940323,-4.919624,122.06922,0.12243599,-0.6666088,0.5006802,0.16477314,0.38857326,-0.42936298
20231225 09:59:58,-0.428863,-0.681137,0.180321,0.350133,0.359595,0.058364,-13.164822,-15.155052,-4.506493,121.33665,-0.03280835,-0.7513672,0.6420562,0.21199322,0.38880828,-0.48510203
20231225 09:59:58,-0.248405,-0.773306,-0.474743,0.398074,0.344680,0.047711,-12.707664,-14.923866,-5.186897,116.88205,-0.40255544,-0.7142898,0.74081635,0.2228711,0.37681547,-0.51583964
20231225 09:59:58,-0.095241,-0.721332,-0.996259,0.393813,0.296739,0.038123,-12.928181,-15.415421,-4.889061,116.407555,-0.741315,-0.5477419,0.68427813,0.19942161,0.32869595,-0.48451978
20231225 09:59:58,0.028150,-0.711063,-1.406241,0.320304,0.193401,0.034927,-12.636982,-15.489449,-4.747353,114.03043,-1.0610414,-0.4777633,0.604084,0.16401617,0.21463142,-0.37285596
20231225 09:59:58,0.221429,-0.616796,-1.801320,0.202050,0.087931,0.035992,-12.786163,-15.028961,-4.778908,109.735954,-1.3716216,-0.33573934,0.36971527,0.11471653,0.09715684,-0.22288951
20231225 09:59:58,0.303279,-0.587047,-2.005363,0.059293,0.010161,0.037057,-12.971203,-14.948555,-4.785988,108.28485,-1.5367091,-0.30040732,0.28577626,0.058784813,0.009306425,-0.062366873
20231225 09:59:58,0.363867,-0.560936,-1.831197,-0.083463,-0.055891,0.032796,-12.891556,-15.419121,-4.352562,112.469505,-1.3212615,-0.30485258,0.29180834,-0.0065994486,-0.06524338,0.09185181
20231225 09:59:58,0.183925,-0.397725,-1.334388,-0.208109,-0.151772,0.027469,-12.901287,-15.130363,-4.907387,113.811356,-0.94870853,-0.18310459,0.33399078,-0.068096876,-0.17274153,0.24414209
20231225 09:59:58,0.056316,-0.428881,-0.946979,-0.296533,-0.248719,0.021077,-12.998482,-15.041725,-5.048119,114.75812,-0.67458487,-0.2837485,0.40122047,-0.11674081,-0.27692086,0.36734453
20231225 09:59:58,-0.058399,-0.397801,-0.605393,-0.328493,-0.282810,0.004032,-12.670658,-15.119453,-4.369926,118.661316,-0.45876998,-0.31022882,0.4232508,-0.1491718,-0.3133067,0.41048536
20231225 09:59:58,-0.229984,-0.265680,-0.308729,-0.293337,-0.252980,-0.011949,-13.076973,-15.146820,-4.640114,120.12378,-0.33473328,-0.23812062,0.41856277,-0.14803532,-0.28380498,0.36954814
20231225 09:59:58,-0.507736,-0.312937,0.010066,-0.232612,-0.212497,-0.027929,-13.068394,-14.859909,-4.926704,120.247215,-0.2617439,-0.38010374,0.560191,-0.13222578,-0.23577239,0.3052124
20231225 09:59:58,-0.762571,-0.179621,0.283628,-0.115424,-0.176275,-0.058824,-12.803707,-15.410896,-4.486198,124.5152,-0.24757268,-0.36488184,0.5735832,-0.081428304,-0.1777456,0.20350602
20231225 09:59:58,-0.903299,-0.175729,0.258917,-0.084529,-0.168818,-0.066281,-12.803707,-15.410896,-4.486198,125.11846,-0.35376823,-0.39726058,0.68711,-0.06501131,-0.1624926,0.17822999
20231225 09:59:58,-1.189941,-0.079726,0.179741,-0.027000,-0.149641,-0.068412,-13.040733,-14.958633,-4.384117,125.11161,-0.6087632,-0.37133908,0.8915777,-0.02897253,-0.12959416,0.124044545
20231225 09:59:58,-1.312399,0.022209,-0.026259,0.017745,-0.135792,-0.055628,-13.067631,-15.243690,-4.365776,125.48272,-0.8365973,-0.25675017,1.029963,0.007500842,-0.10794235,0.074348316
20231225 09:59:58,-1.288949,0.018847,-0.412827,0.028398,-0.116616,-0.041778,-12.970432,-15.332329,-4.225044,125.37402,-1.0854712,-0.13782658,1.1669369,0.018705115,-0.091237046,0.048540935
20231225 09:59:58,-1.141067,-0.003964,-0.680819,0.018810,-0.098505,-0.037517,-12.909866,-15.417274,-4.620796,123.57013,-1.1767478,-0.039673343,1.1513313,0.01072933,-0.077380516,0.04389718
20231225 09:59:58,-1.047343,0.043342,-0.917778,-0.001432,-0.072936,-0.042844,-12.916260,-14.954109,-3.981255,123.98786,-1.3083267,0.10404575,1.135419,-0.012336083,-0.055662714,0.048275836
20231225 09:59:58,-1.081157,0.130217,-1.088871,-0.030196,-0.064414,-0.055628,-12.944309,-14.663490,-4.804329,121.38958,-1.4756052,0.24260913,1.1546199,-0.039048523,-0.048113964,0.07117238
20231225 09:59:58,-1.170960,0.290393,-1.163700,-0.056830,-0.060152,-0.060955,-13.034340,-15.421806,-5.023659,121.87944,-1.6276473,0.40600502,1.1856802,-0.05790467,-0.047117267,0.09262404
20231225 09:59:58,-1.205117,0.372692,-1.218655,-0.079202,-0.059087,-0.058824,-12.697552,-15.404510,-4.351585,124.110275,-1.7134275,0.4973388,1.2200058,-0.06802546,-0.051193897,0.110625334
20231225 09:59:59,-1.201214,0.501586,-1.184424,-0.132469,-0.068675,-0.036452,-12.619438,-15.107521,-5.040047,120.81823,-1.7291014,0.5990402,1.1091183,-0.07778286,-0.07865802,0.15346211
20231225 09:59:59,-1.098393,0.507897,-1.100610,-0.152711,-0.072936,-0.023667,-12.961853,-15.045425,-4.511620,121.460014,-1.6111952,0.59023154,0.9991022,-0.080259405,-0.09028621,0.16873014
20231225 09:59:59,-0.859440,0.365655,-0.795148,-0.170822,-0.067610,-0.005556,-12.801907,-14.468925,-4.413704,119.99548,-1.2020102,0.39768094,0.7526783,-0.085486956,-0.09155369,0.17536362
20231225 09:59:59,-0.669960,0.288834,-0.443525,-0.161234,-0.071871,0.009358,-12.952888,-14.950409,-4.517738,119.796,-0.79937136,0.27109385,0.52271235,-0.07388507,-0.09460278,0.1641929
20231225 09:59:59,-0.496907,0.280581,-0.206459,-0.138861,-0.095309,0.017881,-12.723026,-14.555717,-4.541222,118.71434,-0.5071022,0.24590978,0.3098334,-0.052948955,-0.1139024,0.15611207
20231225 09:59:59,-0.364701,0.285395,-0.119180,-0.122881,-0.126204,0.021077,-13.041115,-14.766747,-4.664574,117.80836,-0.35634798,0.25663626,0.17218009,-0.038575195,-0.14111735,0.15941167
20231225 09:59:59,-0.301495,0.348990,0.011951,-0.096248,-0.150707,0.006162,-13.083752,-14.491760,-4.281029,118.79524,-0.22856805,0.3038918,0.050796226,-0.029782303,-0.16026278,0.15481927
20231225 09:59:59,-0.513317,0.515793,0.042247,-0.051503,-0.161360,-0.010883,-12.847496,-14.560249,-4.944069,118.11044,-0.37218818,0.41953027,0.12886596,-0.008226747,-0.16193493,0.1292777
20231225 09:59:59,-0.785968,0.691561,-0.045877,-0.013150,-0.151772,-0.008752,-12.634796,-14.739372,-4.394386,121.48262,-0.6568429,0.54463834,0.29688993,0.019444143,-0.14598168,0.090101
20231225 09:59:59,-0.967003,0.659201,-0.121604,0.013483,-0.135792,0.000836,-13.226154,-14.686333,-4.671669,120.61588,-0.8256137,0.49039742,0.47262987,0.040421993,-0.12774095,0.058843534
20231225 09:59:59,-1.041779,0.594260,-0.068194,0.037986,-0.110224,0.002966,-12.970818,-15.140442,-4.505516,123.0826,-0.82896626,0.38901573,0.5470959,0.052060038,-0.09862635,0.02499956
20231225 09:59:59,-1.196605,0.446702,0.015731,0.062489,-0.095309,0.010424,-12.694977,-14.846321,-3.718147,125.87921,-0.8414218,0.18874672,0.70628625,0.069874495,-0.08099802,-0.004713647
20231225 09:59:59,-1.271688,0.273933,0.166308,0.098711,-0.088917,0.008293,-12.906910,-15.050972,-3.706886,126.93761,-0.75645316,-0.04285715,0.77744436,0.09099789,-0.06598637,-0.034026064
20231225 09:59:59,-1.363027,0.201889,0.116456,0.156240,-0.093178,0.005097,-12.970432,-15.332329,-4.225044,126.1959,-0.8186626,-0.13698111,0.9217204,0.12638092,-0.05498878,-0.077224985
20231225 09:59:59,-1.537530,0.336997,-0.191762,0.209507,-0.078263,0.005097,-12.546566,-14.923035,-4.247536,126.80432,-1.1714551,-2.4631247E-4,1.136861,0.15460359,-0.02283377,-0.13180721
20231225 09:59:59,-1.835010,0.581302,-0.502401,0.236141,-0.056956,0.025339,-12.976826,-14.869156,-3.585487,129.36151,-1.6404808,0.22112398,1.4234605,0.17588045,0.00208983,-0.17675835
20231225 09:59:59,-1.980104,0.921731,-0.798911,0.218030,-0.054825,0.086063,-12.915493,-15.337875,-3.420296,130.44252,-2.040497,0.6101115,1.5563976,0.20458841,-0.02544488,-0.19014956
20231225 09:59:59,-1.829365,1.114683,-0.796276,0.117887,-0.095309,0.184076,-12.749149,-15.224556,-3.961937,126.047386,-1.9887927,0.8819603,1.2984053,0.23778233,-0.12388582,-0.11588928
20231225 09:59:59,-1.276499,1.256083,-0.451702,-0.017412,-0.178406,0.275695,-12.573460,-15.208092,-4.229195,120.52168,-1.3549337,1.1159658,0.61381453,0.25577918,-0.23978278,0.022036657
20231225 09:59:59,-0.599750,1.521060,-0.091948,-0.113293,-0.216758,0.330028,-13.065056,-14.685501,-3.732323,117.59027,-0.643871,1.4464812,-0.21816866,0.24217463,-0.27630755,0.11618881
20231225 09:59:59,-0.324793,1.515791,0.211558,-0.212370,-0.250850,0.360923,-13.224621,-15.453888,-3.549782,118.32161,-0.1730251,1.4569898,-0.5508605,0.19957754,-0.302508,0.20276488
20231225 09:59:59,-0.019381,1.796283,0.934236,-0.303990,-0.316901,0.380100,-13.022034,-15.152367,-3.835381,116.989586,0.6376541,1.7418987,-1.202165,0.13701327,-0.34855062,0.30895653
20231225 09:59:59,0.349777,1.825011,1.466995,-0.344474,-0.365907,0.366250,-13.055710,-14.782364,-3.457954,117.182755,1.348141,1.8179504,-1.7181228,0.06908676,-0.36972564,0.36707854
20231225 09:59:59,0.681484,1.509433,1.936249,-0.341278,-0.365907,0.326832,-13.453060,-14.714722,-3.734276,116.83854,1.9371672,1.549795,-1.9990608,1.21086836E-4,-0.34534264,0.37282494
20231225 09:59:59,0.971371,1.036083,2.470873,-0.256050,-0.298790,0.254388,-13.365219,-14.706490,-3.867897,119.60494,2.4460454,1.0948355,-2.207286,-0.023359463,-0.2762762,0.2735622
20231225 09:59:59,0.944007,0.364123,3.010919,-0.070679,-0.179471,0.167030,-13.152901,-14.693726,-3.598686,123.517715,2.6649897,0.4141526,-2.1134913,0.0481688,-0.17259605,0.0893824
20231225 09:59:59,0.665479,-0.220100,3.272011,0.178612,-0.048433,0.096717,-13.416435,-14.718422,-3.197792,125.802574,2.529418,-0.21953192,-1.7797122,0.20042574,-0.04846492,-0.123032585
20231225 09:59:59,0.204115,-0.700892,3.112808,0.436427,0.043187,0.051972,-13.443718,-14.811584,-3.459908,126.27859,2.0640495,-0.75790566,-1.1388128,0.37755704,0.053648226,-0.316922
20231225 09:59:59,0.119854,-1.154716,2.359249,0.644169,0.081539,0.021077,-13.301697,-14.425133,-3.349754,124.79135,1.6055585,-1.1955444,-0.3840205,0.5108446,0.09585457,-0.46851075
20231225 09:59:59,0.271967,-1.525249,1.347712,0.772011,0.088997,-0.014079,-13.219864,-14.145622,-2.563362,123.80926,1.1076459,-1.5287738,0.20348364,0.56490743,0.09196303,-0.5647875
20231225 09:59:59,0.562379,-1.807426,0.354479,0.809298,0.057036,-0.037517,-13.364067,-15.282158,-3.026482,121.13768,0.57343423,-1.8123308,0.5482584,0.5399529,0.02386508,-0.6004298
20231225 09:59:59,0.982947,-1.919260,-0.515582,0.748573,0.003769,-0.049236,-13.591743,-14.926773,-2.650032,115.22189,0.033827305,-2.0490413,0.5169969,0.44787955,-0.07255081,-0.5591865
20231225 09:59:59,1.430773,-1.865319,-1.062438,0.606882,-0.063348,-0.044974,-13.273651,-14.715736,-2.526680,109.46051,-0.32723612,-2.2544904,0.16080624,0.3236697,-0.16928734,-0.43434107
20231225 09:59:59,1.965969,-1.787781,-1.347904,0.410858,-0.137923,-0.034321,-13.273266,-14.907623,-2.246223,106.81371,-0.32869256,-2.5040274,-0.28476554,0.1834569,-0.23130655,-0.24007343
20231225 09:59:59,2.356238,-1.629083,-1.223620,0.191396,-0.224216,-0.038582,-13.731186,-14.755035,-2.126762,105.572105,0.059672832,-2.4505644,-0.6865344,0.020272728,-0.26456252,-0.011288291
20231225 09:59:59,2.370408,-1.338844,-0.933058,-0.004628,-0.321163,-0.051366,-13.185036,-15.091293,-2.099373,108.587036,0.37643176,-2.0511324,-0.91425097,-0.13408528,-0.31249598,0.20014314
20231225 09:59:59,2.224798,-0.916641,-0.660881,-0.168691,-0.398933,-0.064151,-13.476234,-15.017258,-2.241081,108.37684,0.6135793,-1.4496348,-1.1250433,-0.24881819,-0.36374605,0.3750156
20231225 09:59:59,1.890153,-0.402655,-0.280244,-0.307186,-0.450070,-0.079065,-13.388775,-14.817139,-2.655174,109.1581,0.8357674,-0.7013181,-1.2343353,-0.32767394,-0.41073337,0.5157442
20231225 09:59:59,1.397071,0.165296,0.165708,-0.397741,-0.470311,-0.088654,-13.822376,-14.937675,-3.187508,110.72145,0.99054325,0.0699892,-1.243321,-0.35946822,-0.44383764,0.6014129
20231225 09:59:59,0.950253,0.540240,0.628582,-0.428636,-0.460723,-0.084392,-13.343178,-14.725822,-2.124809,116.9908,1.1107347,0.53216875,-1.2208898,-0.35711014,-0.44540444,0.6144578
20231225 09:59:59,0.607739,0.623758,1.098704,-0.403068,-0.440481,-0.090784,-13.494549,-15.015411,-2.509315,119.39959,1.2420099,0.63438797,-1.1644671,-0.33847126,-0.43566412,0.58453673
20231225 09:59:59,0.341957,0.523002,1.497183,-0.306121,-0.408521,-0.106765,-13.227673,-14.816307,-1.715828,123.48907,1.3351407,0.5189528,-1.1029891,-0.28371185,-0.40910396,0.49542862
20231225 09:59:59,0.137706,0.241549,1.664641,-0.159103,-0.359515,-0.136594,-13.476234,-15.017258,-2.241081,123.42055,1.2964628,0.2212961,-0.8714464,-0.2038947,-0.3596543,0.37412736
20231225 09:59:59,0.089933,-0.148548,1.509184,0.000699,-0.316901,-0.177078,-13.272881,-15.099518,-1.965736,124.757805,1.1559855,-0.17376165,-0.57491755,-0.121932834,-0.3136514,0.2489955
20231225 09:59:59,0.057584,-0.255245,1.108539,0.157305,-0.261503,-0.212234,-13.484814,-15.304169,-1.954491,123.88469,0.8685515,-0.27988303,-0.31431174,-0.04649499,-0.25308678,0.10720907
20231225 09:59:59,0.005285,-0.526093,0.551394,0.283016,-0.198647,-0.237802,-13.502361,-15.686089,-1.661797,124.45446,0.4407457,-0.543209,0.07471159,0.00796625,-0.18312092,-0.023185171
20231225 09:59:59,0.036935,-0.671003,-0.045846,0.342676,-0.169883,-0.248456,-13.466885,-15.114128,-1.966713,120.90029,0.003272619,-0.6688196,0.33997732,0.019589692,-0.15700345,-0.101635866
20231225 09:59:59,0.147077,-0.806284,-0.511202,0.354395,-0.161360,-0.250587,-13.263153,-15.388275,-1.410912,121.3548,-0.31580758,-0.7978366,0.44286072,0.008181527,-0.15448117,-0.12868564
20231225 09:59:59,0.235852,-0.962742,-0.972728,0.333088,-0.158164,-0.244194,-13.360344,-15.299629,-1.551643,117.68577,-0.6922789,-0.9771014,0.524858,-0.021265566,-0.16410872,-0.13733092
20231225 09:59:59,0.412896,-1.042846,-1.397151,0.274494,-0.140053,-0.244194,-13.360344,-15.299629,-1.551643,115.24148,-1.0064541,-1.1013714,0.45988223,-0.06779702,-0.15483113,-0.11171071
20231225 09:59:59,0.526256,-1.025625,-1.670264,0.189266,-0.126204,-0.254848,-12.592907,-15.528107,-1.261139,116.67195,-1.2122638,-1.0943522,0.38526657,-0.12897944,-0.13895279,-0.048973512
20231225 09:59:59,0.389850,-0.818741,-1.663307,0.066751,-0.134727,-0.259109,-12.971951,-15.462303,-1.269203,117.04439,-1.2468963,-0.81354,0.40053138,-0.19122739,-0.13390686,0.060353674
20231225 09:59:59,0.181071,-0.561992,-1.568516,-0.067483,-0.167752,-0.243129,-12.911003,-15.739136,-1.384514,118.63693,-1.2514943,-0.4911654,0.454592,-0.237592,-0.15894659,0.18846813
20231225 09:59:59,0.031669,-0.291165,-1.412793,-0.187867,-0.183733,-0.213299,-13.016777,-15.937401,-1.238640,120.95335,-1.1817001,-0.19017544,0.46266153,-0.26533386,-0.17584269,0.29663986
20231225 09:59:59,-0.034671,-0.141340,-1.113409,-0.270965,-0.190125,-0.178143,-13.192467,-15.953857,-0.971375,122.6006,-0.95309734,-0.06533496,0.4067655,-0.2801767,-0.1887267,0.36507237
20231225 09:59:59,-0.041524,-0.011612,-0.815720,-0.313579,-0.183733,-0.153640,-13.007813,-15.842384,-1.244751,122.02199,-0.70798546,0.030466342,0.27297306,-0.2881509,-0.18584101,0.39196387
20231225 09:59:59,0.038736,0.162689,-0.662390,-0.323167,-0.163491,-0.137660,-13.105007,-15.753746,-1.385490,121.275734,-0.54015654,0.19168049,0.07930529,-0.28460258,-0.16637059,0.3860588
20231225 09:59:59,0.121435,0.284397,-0.507420,-0.323167,-0.135792,-0.130202,-12.796261,-15.445847,-1.536476,120.61584,-0.36692542,0.30352023,-0.09408519,-0.2814557,-0.13837348,0.3706991
20231225 09:59:59,0.157582,0.381802,-0.292616,-0.309317,-0.095309,-0.133398,-12.804840,-15.732758,-1.249893,122.71597,-0.15846479,0.39052245,-0.22250101,-0.28405505,-0.09707761,0.3408727
20231225 09:59:59,0.251205,0.439525,0.031013,-0.262442,-0.055891,-0.144052,-13.017925,-15.361740,-2.080055,120.23745,0.17027695,0.44098517,-0.4372311,-0.2714615,-0.056372155,0.2827885
20231225 09:59:59,0.371831,0.391250,0.336735,-0.184671,-0.015408,-0.160032,-13.007813,-15.842384,-1.244751,123.87642,0.49696678,0.3915195,-0.60902077,-0.24002096,-0.0155015895,0.2082266
20231225 09:59:59,0.467003,0.271179,0.605527,-0.077071,0.013357,-0.176012,-12.919582,-16.026039,-1.097923,125.166794,0.7688855,0.27492416,-0.72272336,-0.18474837,0.011424875,0.11693896
20231225 09:59:59,0.545560,0.159205,0.495155,0.040117,0.032533,-0.195188,-13.007813,-15.842384,-1.244751,123.421585,0.7311392,0.16071455,-0.679449,-0.12678558,0.026548788,0.018658917
20231225 09:59:59,0.650516,0.091140,0.171632,0.133868,0.054905,-0.213299,-12.823154,-15.730904,-1.518135,121.444496,0.53066874,0.08036008,-0.62072945,-0.08825698,0.04425061,-0.068406075
20231225 09:59:59,0.614254,0.030234,-0.220805,0.195658,0.071951,-0.222887,-13.017159,-15.745506,-1.519112,119.8731,0.17061394,0.015134867,-0.45619893,-0.06934344,0.06356777,-0.13277179
20231225 09:59:59,0.575047,-0.012093,-0.662837,0.225488,0.103911,-0.217561,-13.104622,-15.945633,-1.105011,120.11436,-0.2377553,-0.032566216,-0.2918589,-0.055721268,0.09668607,-0.17778182
20231225 09:59:59,0.603984,-0.060251,-0.817542,0.216965,0.102846,-0.209038,-12.841087,-15.920944,-1.505913,118.428406,-0.3720543,-0.084874265,-0.27624243,-0.059434466,0.09570657,-0.17889974
20231225 09:59:59,0.607743,-0.083345,-1.118951,0.175416,0.092193,-0.191992,-13.159176,-16.131973,-1.629265,116.65757,-0.6465397,-0.12318909,-0.22302288,-0.07136137,0.0841526,-0.14831704
20231225 09:59:59,0.702550,-0.005595,-1.198679,0.113626,0.065559,-0.181339,-12.752476,-16.296494,-1.078606,118.102974,-0.68900955,-0.05547748,-0.3255197,-0.098510206,0.057838343,-0.084787264
20231225 09:59:59,0.613351,0.140392,-1.262012,0.036921,0.048513,-0.177078,-13.201817,-15.856995,-1.245728,116.81158,-0.79458153,0.13198672,-0.31460863,-0.13557658,0.047478847,-0.014079444
20231225 09:59:59,0.453764,0.338187,-1.192444,-0.024869,0.054905,-0.166424,-12.656048,-16.001350,-1.498817,118.99575,-0.82703507,0.39274478,-0.25634003,-0.1590861,0.060625743,0.037709422
20231225 09:59:59,0.184651,0.555436,-0.995886,-0.063222,0.090062,-0.151509,-13.247025,-16.140198,-1.495644,120.862434,-0.8065998,0.64272,-0.14197162,-0.1694012,0.09895797,0.05472615
20231225 09:59:59,-0.013508,0.745428,-0.673203,-0.082398,0.126284,-0.139790,-12.577164,-16.088142,-1.626335,123.78557,-0.65460145,0.8111407,-0.11802985,-0.17488986,0.13481617,0.0555893
20231225 09:59:59,-0.243603,0.887897,-0.342711,-0.081333,0.153983,-0.129137,-12.322212,-16.350365,-1.740669,126.31954,-0.53937423,0.9013995,-0.07358384,-0.17249097,0.16249411,0.042475376
20231225 09:59:59,-0.441040,0.959913,-0.088368,-0.038719,0.207250,-0.111026,-12.469852,-16.657433,-0.650322,131.30168,-0.4740986,0.9075683,-0.009030294,-0.1450466,0.21688165,-0.014442708
20231225 09:59:59,-0.511732,0.816190,0.224485,0.020941,0.281825,-0.082262,-12.339756,-16.732292,-1.447960,130.06587,-0.23535363,0.7234392,-0.04380384,-0.09096176,0.2910253,-0.11333087
20231225 09:59:59,-0.420363,0.886250,0.625935,0.116822,0.326569,-0.059889,-12.885910,-16.396042,-1.475349,128.68013,0.12467933,0.74903345,-0.31222823,-0.02068777,0.3416103,-0.22383998
20231225 09:59:59,-0.460125,0.763626,0.432099,0.196723,0.346811,-0.031125,-12.728531,-16.377739,-2.010857,127.2866,-0.033683598,0.6433906,-0.13751009,0.041483447,0.36606726,-0.3101405
20231225 09:59:59,-0.174521,0.719679,0.250283,0.160501,0.295674,0.013620,-12.419022,-16.453606,-1.600914,125.71888,0.05147852,0.68891686,-0.27296484,0.080519795,0.30175596,-0.27324212
20231225 09:59:59,0.444430,1.029844,0.236150,0.065685,0.176355,0.041319,-12.620190,-15.621269,-1.523277,120.54453,0.43659276,1.030168,-0.9275299,0.06972802,0.17636447,-0.15040316
20231225 09:59:59,0.905131,0.958157,0.004906,-0.077071,0.095389,0.054103,-12.710987,-15.995804,-2.303566,116.59667,0.55220824,0.92657727,-1.2290107,0.007217832,0.10049136,0.0037342831
20231225 09:59:59,1.123465,1.179617,0.350373,-0.220893,0.051709,0.045580,-12.771553,-15.910866,-1.907799,118.711365,1.0032556,1.1507065,-1.6121199,-0.08760212,0.06332841,0.14135829
20231225 09:59:59,1.141318,1.346374,0.939499,-0.343408,-0.001558,0.017881,-12.604443,-16.181313,-1.888481,121.92451,1.4884036,1.3476893,-1.8997697,-0.19318606,0.009017135,0.26882145
20231225 09:59:59,0.859681,1.546281,1.491220,-0.441420,-0.042041,-0.021537,-13.001415,-16.305557,-1.884315,124.21751,1.6927254,1.5424676,-1.9997265,-0.29410255,-0.04363504,0.3727153
20231225 09:59:59,0.372316,1.605094,2.032564,-0.462727,-0.011146,-0.060955,-12.701637,-16.092682,-2.029198,127.853905,1.6625841,1.4961603,-1.950604,-0.35246527,-0.032498714,0.3762591
20231225 09:59:59,-0.351909,1.389053,2.745437,-0.381761,0.080474,-0.079065,-12.640690,-16.369499,-2.144508,132.11339,1.4965247,1.0189698,-1.7951669,-0.33552262,0.044559255,0.26358575
20231225 09:59:59,-1.127500,1.078957,3.391606,-0.203848,0.193401,-0.051366,-12.780518,-16.005882,-1.901680,134.45857,1.177217,0.38630345,-1.6256498,-0.2140225,0.16291562,0.05736066
20231225 09:59:59,-1.594198,0.695671,3.844163,0.030529,0.278628,0.029600,-12.595478,-16.086296,-1.894585,136.17001,1.0091819,-0.18950081,-1.5253389,3.3424422E-4,0.2719244,-0.18572965
20231225 09:59:59,-1.466867,0.020900,3.678998,0.280886,0.330831,0.128677,-12.825729,-16.289093,-2.151588,135.26689,1.0715747,-0.67850965,-1.1585674,0.25693184,0.35266984,-0.42851564
20231225 09:59:59,-0.827848,-0.717680,2.747232,0.492890,0.370248,0.181945,-13.338207,-16.322845,-2.556389,132.11874,1.1610134,-1.0739887,-0.48265874,0.45847797,0.40623575,-0.61973584
20231225 09:59:59,-0.203371,-1.351137,1.546397,0.612209,0.409666,0.191533,-12.807415,-16.290947,-1.883339,132.14655,0.98055726,-1.4698766,0.11026794,0.55181277,0.44174016,-0.7316948
20231225 09:59:59,0.287445,-1.754264,0.519206,0.640973,0.426712,0.165965,-12.755424,-16.662796,-1.992516,129.84659,0.63543594,-1.760623,0.50519395,0.5516773,0.4430508,-0.7614323
20231225 09:59:59,0.608012,-2.084517,-0.344300,0.587706,0.435235,0.110566,-13.311314,-16.037781,-2.574730,124.22141,0.19975853,-2.061923,0.82633555,0.46391523,0.44506156,-0.7193694
20231225 09:59:59,0.535608,-2.139075,-0.801979,0.485433,0.423516,0.050907,-13.001801,-16.113663,-2.164787,126.056305,-0.11929503,-2.0411441,0.99576426,0.31923306,0.44679987,-0.6113164
20231225 09:59:59,0.210787,-2.069318,-0.980333,0.351199,0.384098,0.014685,-13.116924,-16.215057,-2.293282,127.77041,-0.33069634,-1.87964,1.2539396,0.18133764,0.41531473,-0.46978205
20231225 09:59:59,-0.231173,-1.924282,-0.804047,0.194593,0.293543,0.008293,-13.055977,-16.491890,-2.408577,130.52725,-0.3711759,-1.7427768,1.4497362,0.073812336,0.31394604,-0.29582694
20231225 09:59:59,-0.654019,-1.627206,-0.567430,0.039052,0.184878,0.038123,-13.222702,-16.413330,-2.147438,132.32292,-0.44965413,-1.543305,1.5173762,0.009254158,0.17462692,-0.13396025
20231225 09:59:59,-0.972618,-1.193298,-0.342256,-0.116489,0.088997,0.100978,-12.720337,-15.898941,-2.577904,132.06297,-0.5717738,-1.2468385,1.4623687,-0.024699286,0.033605255,0.0029242411
20231225 09:59:59,-1.059395,-0.931618,0.024684,-0.259246,0.008030,0.169161,-13.592777,-16.252510,-2.161613,131.76015,-0.47063342,-1.1016446,1.2443454,-0.05046408,-0.08059777,0.11735997
20231225 09:59:59,-0.897428,-0.699173,0.474705,-0.373238,-0.059087,0.213905,-13.011150,-16.016792,-2.439140,130.86949,-0.13143367,-0.9167538,0.81161463,-0.086049855,-0.16010278,0.21270639
20231225 10:00:00,-0.751858,-0.538046,0.893458,-0.441420,-0.105962,0.239474,-13.029846,-15.823059,-2.987862,128.8187,0.2054683,-0.77665454,0.45146894,-0.11521037,-0.20621386,0.27542964
20231225 10:00:00,-0.531478,-0.594150,1.081961,-0.459531,-0.086786,0.245866,-13.141632,-15.750046,-1.921974,130.52661,0.45135498,-0.778683,0.19896516,-0.14233825,-0.16986312,0.25928494
20231225 10:00:00,-0.278391,-0.592316,1.514122,-0.398806,-0.009016,0.219232,-13.072868,-15.356186,-2.884789,127.75085,0.8894703,-0.75265145,-0.13941926,-0.13750917,-0.06733354,0.18352824
20231225 10:00:00,-0.228306,-0.733378,1.763420,-0.275226,0.108173,0.165965,-13.539757,-15.298622,-2.759224,128.04741,1.0679523,-0.91396713,-0.22540408,-0.10444736,0.06325718,0.045037225
20231225 10:00:00,-0.394108,-0.828596,1.899092,-0.121816,0.221100,0.108436,-13.098728,-14.315506,-3.354897,126.32846,1.0449399,-1.073821,-0.07860291,-0.043817222,0.19125547,-0.099580325
20231225 10:00:00,-0.654109,-0.724619,1.818280,0.050771,0.310589,0.073279,-13.249714,-14.796974,-3.458931,127.317184,0.83302855,-1.0671068,0.059368253,0.041835867,0.30110082,-0.24815804
20231225 10:00:00,-0.913752,-0.688205,1.354899,0.204181,0.359595,0.066887,-13.477386,-14.441589,-3.082481,127.07473,0.41071492,-1.0680935,0.4604931,0.1258201,0.3722357,-0.3753736
20231225 10:00:00,-0.928779,-0.676950,0.667669,0.310715,0.378771,0.075410,-13.241127,-14.510071,-3.745522,125.083916,0.0044546723,-0.95883024,0.808082,0.18195081,0.40535584,-0.46685034
20231225 10:00:00,-0.886542,-0.647235,-0.101271,0.359721,0.361726,0.084998,-13.504280,-14.726646,-3.064140,125.42364,-0.46978077,-0.75427145,1.0598037,0.20090087,0.39067385,-0.49505746
20231225 10:00:00,-0.710410,-0.633927,-0.815412,0.354395,0.324438,0.091390,-12.992954,-14.117233,-3.500755,121.791,-0.8782141,-0.5158814,1.1271952,0.18571885,0.3454796,-0.47435674
20231225 10:00:00,-0.563794,-0.492805,-1.519881,0.293670,0.293543,0.099913,-13.328976,-14.518303,-3.611900,119.80887,-1.3884838,-0.121640086,1.0685942,0.14169648,0.2956434,-0.40471813
20231225 10:00:00,-0.444100,-0.302287,-1.915493,0.172220,0.249864,0.118024,-13.213470,-14.608795,-3.202919,120.37114,-1.7203852,0.2085053,0.96100366,0.10502942,0.22747976,-0.27975705
20231225 10:00:00,-0.430118,-0.166978,-1.998347,0.017745,0.168898,0.146788,-13.231400,-14.798828,-3.190697,119.561874,-1.8409324,0.33277616,0.8980453,0.08562789,0.12249145,-0.11567895
20231225 10:00:00,-0.284456,-0.169090,-1.845478,-0.130339,0.090062,0.163834,-13.733494,-13.603706,-3.809593,113.993774,-1.6655651,0.21784168,0.6813868,0.05678112,0.034183428,0.043608293
20231225 10:00:00,-0.209036,-0.139352,-1.415545,-0.247527,0.026141,0.168095,-13.364834,-14.898376,-3.587440,117.98773,-1.2595854,0.117433414,0.5864972,0.0066776425,-0.03696768,0.15896875
20231225 10:00:00,-0.149725,-0.120180,-1.007927,-0.333820,-0.046303,0.169161,-13.138695,-14.486214,-5.085762,113.15394,-0.8889812,0.036934778,0.40158403,-0.034995675,-0.11086804,0.26693752
20231225 10:00:00,-0.146676,-0.199199,-0.605457,-0.379630,-0.072936,0.162769,-13.796246,-14.268837,-3.766792,116.980515,-0.54206663,-0.12722206,0.38357425,-0.08202943,-0.13224195,0.30265588
20231225 10:00:00,-0.053262,-0.278356,-0.123054,-0.368977,-0.077198,0.140396,-13.266220,-13.853165,-3.654686,117.93849,-0.09682499,-0.26613867,0.22962296,-0.11027277,-0.12557417,0.2914187
20231225 10:00:00,-0.074820,-0.380000,0.291071,-0.300794,-0.046303,0.106305,-13.645264,-13.787361,-3.662758,118.53639,0.21039121,-0.41352764,0.1833987,-0.11044526,-0.083866954,0.22215846
20231225 10:00:00,-0.170741,-0.318269,0.619720,-0.203848,-0.027126,0.071149,-13.716984,-14.547523,-3.613853,121.4547,0.38359845,-0.40788117,0.09350167,-0.07918686,-0.057385776,0.14340904
20231225 10:00:00,-0.380171,-0.257288,0.675611,-0.110097,-0.028192,0.053038,-13.214233,-14.225014,-3.763863,121.767654,0.28736088,-0.3985511,0.19662723,-0.02900818,-0.049277913,0.08040198
20231225 10:00:00,-0.566640,-0.211099,0.458595,-0.038719,-0.034584,0.046646,-13.388508,-13.107624,-3.704567,119.490524,0.014535069,-0.35990936,0.40755144,0.015781023,-0.04680413,0.034273658
20231225 10:00:00,-0.618830,-0.242777,0.160943,-0.002497,-0.048433,0.037057,-13.321930,-13.463837,-5.020363,116.41925,-0.21916202,-0.35582516,0.57469106,0.0354705,-0.05423372,0.018718913
20231225 10:00:00,-0.680314,-0.201941,-0.159972,0.016679,-0.060152,0.021077,-13.478924,-13.674038,-4.204384,118.670715,-0.4914117,-0.26686403,0.69634664,0.03856039,-0.059905503,0.012311906
20231225 10:00:00,-0.767116,-0.195468,-0.476583,0.018810,-0.052695,0.001901,-13.434486,-13.007050,-4.515419,117.15325,-0.77347505,-0.20544568,0.8509723,0.024837371,-0.04770582,0.011727506
20231225 10:00:00,-0.908857,-0.148235,-0.660781,0.017745,-0.034584,-0.011949,-13.321545,-13.655727,-4.739891,118.94542,-0.9991118,-0.13813664,1.0004356,0.010246341,-0.0262441,0.0066114934
20231225 10:00:00,-1.096250,-0.091414,-0.703421,0.015614,-0.022865,-0.009818,-13.779469,-13.503132,-4.620430,119.67315,-1.1458652,-0.10784678,1.1409696,0.008150699,-0.0153745115,0.0016317025
20231225 10:00:00,-1.206682,-0.058532,-0.808270,0.009222,-0.022865,0.006162,-13.758583,-12.946796,-3.718758,121.545525,-1.2867529,-0.062489167,1.2612975,0.016887212,-0.021189684,0.0016694489
20231225 10:00:00,-1.172471,-0.042027,-0.968629,-0.011020,-0.032453,0.025339,-13.681507,-13.975555,-3.918770,122.29675,-1.3858113,0.01868254,1.2823317,0.023484357,-0.040228184,0.01687615
20231225 10:00:00,-1.102075,0.021177,-1.109036,-0.046176,-0.042041,0.037057,-13.805210,-14.363861,-3.760674,122.58758,-1.4712542,0.14209306,1.2402124,0.01687236,-0.059682935,0.047184728
20231225 10:00:00,-1.064543,0.141294,-1.187526,-0.086659,-0.063348,0.045580,-13.718136,-13.971855,-4.455269,119.34237,-1.545928,0.29264283,1.1459899,0.009647094,-0.08969647,0.0909288
20231225 10:00:00,-1.079217,0.385436,-1.204745,-0.134600,-0.088917,0.050907,-13.690472,-14.070580,-3.912651,121.04624,-1.6376615,0.5344831,1.0745252,-6.6937506E-4,-0.12465845,0.14104724
20231225 10:00:00,-1.098104,0.660421,-1.178033,-0.183606,-0.107028,0.058364,-13.823524,-14.362015,-4.028938,120.501366,-1.7113717,0.7774737,0.9570961,-0.014336556,-0.15205567,0.18969128
20231225 10:00:00,-1.037076,0.875277,-1.030803,-0.218763,-0.112354,0.064757,-13.611206,-14.349251,-3.759697,120.52266,-1.6193707,0.9420604,0.77051383,-0.027763575,-0.16261627,0.22044624
20231225 10:00:00,-1.039233,1.031109,-0.930821,-0.231547,-0.109158,0.070083,-13.611591,-14.157372,-4.040184,119.41198,-1.5764396,1.0484449,0.6352709,-0.040671106,-0.16115475,0.2275506
20231225 10:00:00,-0.890711,0.935374,-0.297068,-0.249658,-0.083590,0.092456,-13.866547,-13.895142,-3.925850,118.12326,-0.9367335,0.8403095,0.32996425,-0.05473154,-0.13476297,0.22103812
20231225 10:00:00,-0.625681,0.832086,0.334429,-0.209174,-0.063348,0.105240,-13.875126,-14.182053,-3.639275,119.56168,-0.2576469,0.69207543,-0.06442534,-0.040066928,-0.10286397,0.16558504
20231225 10:00:00,-0.514008,0.235712,0.696096,-0.136731,-0.059087,0.102044,-13.884476,-14.085182,-3.913628,119.89045,0.13806415,0.091289885,0.013518915,-0.009391457,-0.08572167,0.10190915
20231225 10:00:00,-0.330735,-0.234107,1.014584,-0.055764,-0.093178,0.082867,-13.848618,-13.705109,-3.938072,119.28184,0.5151757,-0.35433894,0.034852415,0.028875863,-0.10493926,0.06841068
20231225 10:00:00,-0.198194,-0.378292,1.016434,0.077404,-0.112354,0.035992,-14.226891,-14.023087,-3.385201,120.65376,0.63476443,-0.4970191,0.011928022,0.090464786,-0.10748532,-0.002595339
20231225 10:00:00,-0.373256,-0.460772,0.591649,0.209507,-0.086786,-0.009818,-13.893826,-13.988312,-4.187996,119.201866,0.25901127,-0.58345693,0.3560966,0.1426852,-0.057737626,-0.10514964
20231225 10:00:00,-0.672285,-0.150546,0.098336,0.280886,-0.072936,-0.036452,-14.031586,-10.973206,-4.922050,111.557144,-0.3024243,-0.2741293,0.59659785,0.15841877,-0.01743244,-0.17339166
20231225 10:00:00,-1.111774,0.258508,-0.382112,0.286212,-0.062283,-0.027929,-14.149548,-13.342312,-4.634621,118.34669,-1.0039644,0.13254938,0.8844248,0.15998092,0.005131186,-0.19545205
20231225 10:00:00,-1.421921,0.643163,-0.524931,0.238272,-0.066544,0.010424,-13.866547,-13.895142,-3.925850,122.19498,-1.3991895,0.46295357,1.0271463,0.16228238,-0.015593638,-0.16850872
20231225 10:00:00,-1.448206,0.934389,-0.329952,0.160501,-0.099570,0.054103,-14.192184,-13.067341,-4.251076,118.92072,-1.3437116,0.6873138,0.8144982,0.1613279,-0.07737368,-0.09709257
20231225 10:00:00,-1.353650,1.090666,0.034791,0.082731,-0.158164,0.094586,-14.043392,-13.335938,-4.500008,117.76944,-1.0324715,0.79237694,0.52244854,0.1602037,-0.1593095,-0.010899484
20231225 10:00:00,-1.205829,1.135640,0.445543,0.051836,-0.197582,0.125481,-13.829384,-10.479801,-5.488152,108.32888,-0.61260366,0.81722665,0.23730126,0.16916008,-0.20885117,0.04707992
20231225 10:00:00,-0.959459,1.272179,0.767716,0.068881,-0.197582,0.144658,-14.156326,-12.687260,-4.275536,114.656975,-0.20074338,0.98247933,-0.12327854,0.18853,-0.20895147,0.016812187
20231225 10:00:00,-0.702936,1.443072,0.992561,0.079535,-0.198647,0.156376,-14.068863,-12.487137,-4.689629,111.458565,0.16028583,1.2184129,-0.47346702,0.19739948,-0.20864207,0.013992257
20231225 10:00:00,-0.491479,1.629856,1.303411,0.076339,-0.226346,0.169161,-14.198582,-12.604168,-3.611519,113.14547,0.56702584,1.4490447,-0.82883847,0.20236859,-0.23564397,0.025201391
20231225 10:00:00,-0.201805,1.661063,1.416947,0.068881,-0.233804,0.180879,-14.208961,-13.833046,-3.397438,115.06848,0.8835498,1.5569582,-1.1386452,0.1991047,-0.24102652,0.029066417
20231225 10:00:00,0.155662,1.470029,1.563485,0.077404,-0.222085,0.185141,-13.803795,-13.230011,-3.968651,111.948616,1.280785,1.4478829,-1.3623422,0.19531614,-0.22388583,0.027636882
20231225 10:00:00,0.575153,1.020741,1.758433,0.097646,-0.206105,0.162769,-14.562649,-12.714630,-4.545738,108.14379,1.7188594,1.0493163,-1.4387965,0.18162642,-0.20423575,0.023627013
20231225 10:00:00,0.910842,0.468513,1.840243,0.132802,-0.172014,0.123351,-14.666500,-13.872337,-2.997505,114.70837,1.9818183,0.5187074,-1.4836683,0.17157319,-0.17172284,-0.023911398
20231225 10:00:00,1.129233,-0.101045,1.774469,0.178612,-0.128334,0.074345,-14.655735,-12.835358,-2.931129,113.323395,2.038611,-0.061554432,-1.2269051,0.17121895,-0.13448125,-0.062382787
20231225 10:00:00,1.119496,-0.705268,1.600674,0.238272,-0.067610,0.029600,-14.326393,-12.783112,-5.208763,109.44745,1.8652909,-0.677427,-0.67154384,0.18953319,-0.08091403,-0.12416559
20231225 10:00:00,1.066923,-1.241845,1.336730,0.294735,-0.012212,-0.025798,-13.934776,-10.869961,-5.061806,106.1124,1.6226239,-1.2294924,-0.11275408,0.19960873,-0.03014441,-0.18485938
20231225 10:00:00,0.866314,-1.572029,1.168849,0.342676,0.005899,-0.078000,-14.561493,-13.290295,-3.704323,115.03385,1.3677554,-1.5606065,0.094987094,0.19907048,-0.011377717,-0.21223095
20231225 10:00:00,0.775726,-1.681370,0.797040,0.373571,-0.005819,-0.117418,-14.569691,-13.769089,-3.137245,116.30178,1.0518699,-1.6789824,0.2799009,0.18415782,-0.02338486,-0.22091323
20231225 10:00:00,0.759149,-1.758154,0.270358,0.377832,-0.032453,-0.145117,-14.106911,-13.617294,-5.018150,109.722694,0.6404053,-1.7729603,0.4995144,0.14772362,-0.052601334,-0.2243256
20231225 10:00:00,0.776402,-1.685928,-0.305752,0.334153,-0.054825,-0.155771,-14.789936,-12.551125,-3.888802,106.316055,0.17258248,-1.7310365,0.48727018,0.09029109,-0.0769915,-0.19613454
20231225 10:00:00,0.921802,-1.543465,-0.557639,0.226553,-0.111289,-0.151509,-14.588005,-13.767239,-3.405495,107.808235,-0.003584206,-1.6447712,0.28229862,0.011018686,-0.1390643,-0.08490883
20231225 10:00:00,1.153469,-1.229491,-0.637072,0.086992,-0.182667,-0.142986,-14.605934,-13.957283,-3.393272,105.06638,0.022331059,-1.3924814,-0.13657871,-0.08498657,-0.20532018,0.055326656
20231225 10:00:00,1.263106,-0.956190,-0.670501,-0.054699,-0.229543,-0.134464,-15.099720,-14.184769,-3.249367,104.98855,0.08800036,-1.144369,-0.37524337,-0.16841374,-0.2386422,0.19521697
20231225 10:00:00,1.285443,-0.747082,-0.466877,-0.193194,-0.274287,-0.125941,-14.542797,-13.484032,-3.155586,105.03902,0.30160528,-0.9104875,-0.533504,-0.24822322,-0.26911315,0.33218083
20231225 10:00:00,1.237815,-0.399726,-0.097369,-0.293337,-0.299856,-0.120614,-14.245205,-14.021233,-3.653450,107.23609,0.63578904,-0.4978084,-0.7344656,-0.3022507,-0.287593,0.4286459
20231225 10:00:00,1.116921,-0.110158,0.297421,-0.358323,-0.304117,-0.111026,-14.514099,-12.257011,-3.101433,106.08052,0.9141643,-0.15133575,-0.86461425,-0.32996622,-0.29060617,0.48125455
20231225 10:00:00,0.961902,0.138886,0.677281,-0.386022,-0.295594,-0.103568,-14.321896,-13.184364,-3.172951,110.30852,1.1391206,0.13331458,-0.9756334,-0.33875045,-0.28482613,0.49707162
20231225 10:00:00,0.711764,0.216268,1.002379,-0.370042,-0.276418,-0.106765,-14.632828,-14.242340,-3.374931,113.469795,1.2294897,0.22554207,-0.92935044,-0.3274225,-0.27139094,0.47370318
20231225 10:00:00,0.518980,0.272947,1.135334,-0.312513,-0.227412,-0.120614,-14.869087,-14.173859,-2.711891,116.245735,1.1959128,0.26684025,-0.8809972,-0.29355937,-0.22872029,0.40469497
20231225 10:00:00,0.209262,0.222826,1.230642,-0.215567,-0.158164,-0.141921,-14.499779,-13.950897,-3.258675,116.91293,1.047406,0.18081358,-0.65925086,-0.2429396,-0.15995012,0.29751027
20231225 10:00:00,-0.117933,0.121456,1.276854,-0.089855,-0.099570,-0.162163,-14.711712,-14.155548,-3.247414,118.26083,0.8604266,0.026691489,-0.38671827,-0.17345971,-0.09358014,0.17665577
20231225 10:00:00,-0.320051,-0.006262,1.012961,0.037986,-0.044172,-0.170685,-14.869469,-13.981964,-2.992363,118.785065,0.5470904,-0.12292905,-0.07643306,-0.09859465,-0.025445323,0.05096981
20231225 10:00:00,-0.369672,-0.248488,0.554137,0.146652,0.015487,-0.174947,-14.384270,-14.041397,-2.849693,119.12757,0.21079369,-0.32810748,0.2509079,-0.041471586,0.043454118,-0.06714708
20231225 10:00:00,-0.291011,-0.414854,0.157438,0.229749,0.068755,-0.173881,-14.463150,-13.954597,-2.722160,118.373764,-0.020904087,-0.44801956,0.40847197,0.001983285,0.10135369,-0.16577075
20231225 10:00:00,-0.203082,-0.644750,-0.292151,0.263840,0.082604,-0.162163,-14.984211,-14.275261,-2.840401,116.81486,-0.293011,-0.6269491,0.58560807,0.020849884,0.115964256,-0.21183318
20231225 10:00:00,-0.092224,-0.813097,-0.743665,0.243598,0.073016,-0.136594,-14.544601,-14.425995,-3.228096,114.28677,-0.6025795,-0.7622927,0.67610747,0.023113012,0.094366744,-0.20549002
20231225 10:00:00,0.206523,-0.967288,-1.115324,0.180743,0.033598,-0.113157,-14.402580,-14.039543,-3.117928,110.73651,-0.7930057,-0.93616706,0.5434123,0.0043256357,0.039285786,-0.14609367
20231225 10:00:00,0.538657,-1.160138,-1.508487,0.093384,-0.000493,-0.103568,-14.570461,-13.385311,-3.698204,102.75685,-1.0510336,-1.2220522,0.29665697,-0.040271863,-0.0059752353,-0.06783958
20231225 10:00:00,0.787090,-1.136668,-1.817316,-0.014216,0.012291,-0.107830,-14.429096,-14.516495,-2.819130,105.62118,-1.2393724,-1.2883368,0.12520066,-0.09901157,0.0054835696,0.020975102
20231225 10:00:00,0.880719,-1.056746,-1.708364,-0.121816,0.015487,-0.116353,-14.720676,-14.250572,-3.241310,104.42909,-1.0672345,-1.1857007,-0.0063934475,-0.16138723,0.012930166,0.11155854
20231225 10:00:00,0.764264,-0.865646,-1.536328,-0.216632,0.012291,-0.112091,-14.730026,-14.153694,-3.515648,105.083755,-0.9383927,-0.92458564,-0.00890559,-0.2080906,0.012880026,0.1939434
20231225 10:00:00,0.597253,-0.552703,-1.256967,-0.292272,0.017618,-0.093980,-14.466103,-14.320900,-3.636101,107.73338,-0.7406578,-0.54885316,-0.017692283,-0.23588249,0.017403407,0.25320593
20231225 10:00:00,0.452642,-0.327262,-0.924295,-0.359389,-0.002623,-0.057759,-14.738605,-14.440605,-3.229073,110.66316,-0.51243836,-0.30477336,-0.026395574,-0.24716255,-0.0059408494,0.3118239
20231225 10:00:00,0.402077,-0.168134,-0.685954,-0.405198,-0.033519,-0.020471,-14.139812,-13.631077,-4.079796,107.96241,-0.3373819,-0.14523128,-0.12395537,-0.24375461,-0.0395682,0.35667926
20231225 10:00:00,0.452373,-0.007154,-0.527918,-0.429702,-0.047368,0.011489,-14.763695,-13.783699,-3.138222,109.68496,-0.1751124,-0.0079123555,-0.26599947,-0.23596117,-0.047088847,0.37602547
20231225 10:00:00,0.609755,0.087674,-0.359797,-0.432898,-0.046303,0.017881,-14.544601,-14.425995,-3.228096,110.9738,0.066852,0.07220792,-0.46698377,-0.23973161,-0.039913062,0.37258637
20231225 10:00:00,0.695118,0.134401,-0.174953,-0.412656,-0.034584,0.007228,-14.562145,-14.807922,-2.935402,113.35202,0.27931303,0.12127307,-0.58872616,-0.24227995,-0.028621377,0.34757966
20231225 10:00:00,0.645974,0.260920,0.121609,-0.361519,-0.009016,-0.009818,-14.828255,-15.390800,-3.167946,114.81354,0.49515694,0.25775692,-0.6864664,-0.23005037,-0.0067728176,0.2927101
20231225 10:00:00,0.523312,0.421983,0.474884,-0.279487,0.009095,-0.022602,-14.871658,-14.732048,-3.345345,114.48583,0.69374675,0.42139852,-0.7719414,-0.19306095,0.007007182,0.21830454
20231225 10:00:00,0.368917,0.501028,0.559100,-0.187867,0.008030,-0.021537,-14.933376,-14.071442,-3.790993,112.2672,0.6553506,0.49468324,-0.70965004,-0.134167,0.0050586117,0.14732061
20231225 10:00:00,0.315100,0.586409,0.523443,-0.099444,0.012291,-0.015145,-14.651527,-14.048599,-3.923653,111.838295,0.5901345,0.5782837,-0.70204157,-0.07326866,0.010557619,0.07501901
20231225 10:00:00,0.325702,0.670989,0.315374,-0.017412,0.020814,-0.008752,-14.660877,-13.951729,-4.198006,109.43265,0.43296194,0.66918314,-0.69992083,-0.01781162,0.02072149,0.0040943106
20231225 10:00:00,0.379784,0.731433,0.018434,0.052901,0.048513,-0.008752,-14.720676,-14.250572,-3.241310,111.57686,0.21704504,0.7366277,-0.7053784,0.022143332,0.04950548,-0.06736704
20231225 10:00:00,0.411499,0.742299,-0.313191,0.100842,0.084735,0.000836,-14.886749,-12.654377,-3.749062,105.74829,-0.03801538,0.7503544,-0.69408184,0.05619078,0.0856548,-0.12937017
20231225 10:00:00,0.566099,0.535686,-0.428215,0.101907,0.088997,0.014685,-15.163624,-14.274246,-4.047997,106.387405,-0.01920557,0.5170334,-0.6892013,0.07191556,0.08771091,-0.1347105
20231225 10:00:00,0.884082,0.432762,-0.395250,0.091254,0.066624,0.010424,-14.553181,-14.712906,-2.941505,109.95109,0.2055724,0.37606445,-0.880859,0.06436348,0.063545205,-0.11270645
20231225 10:00:00,0.868437,0.397282,-0.513490,0.098711,0.037860,-0.017275,-14.880623,-14.827065,-3.339226,108.45349,0.06283048,0.36295685,-0.84277785,0.04117736,0.035250373,-0.099147595
20231225 10:00:00,0.704786,0.156754,-0.918586,0.052901,-0.006885,-0.033256,-14.934528,-13.495770,-4.632408,100.89827,-0.3907388,0.11064114,-0.58401203,1.3367459E-4,-0.00913049,-0.03762675
20231225 10:00:00,0.841253,0.302439,-0.951599,0.004961,-0.037780,-0.064151,-15.276176,-13.817444,-3.543037,103.6001,-0.3569234,0.24658401,-0.75312907,-0.053396974,-0.04028318,0.022941036
20231225 10:00:01,0.591727,0.323793,-1.105107,-0.028065,-0.007950,-0.093980,-14.976013,-13.796463,-3.407448,106.840576,-0.64572704,0.35568136,-0.5008941,-0.094730884,-0.0062642302,0.042049054
20231225 10:00:01,0.261109,0.476352,-0.932914,-0.057895,0.049579,-0.101438,-15.181168,-14.656166,-3.755287,110.82259,-0.6740305,0.5531714,-0.28103328,-0.119857475,0.053974982,0.043103226
20231225 10:00:01,-0.019868,0.627603,-0.449683,-0.063222,0.079408,-0.095046,-15.039150,-14.269707,-3.645134,113.479805,-0.4449079,0.6683434,-0.2081017,-0.121852845,0.084189594,0.03231538
20231225 10:00:01,-0.304075,0.677948,-0.237577,-0.044045,0.099650,-0.082262,-15.356861,-14.672623,-3.488014,116.08459,-0.45830542,0.6718566,-0.041062135,-0.10519918,0.10522722,0.005395582
20231225 10:00:01,-0.458147,0.707367,-0.150506,0.001764,0.133741,-0.059889,-14.696350,-14.523697,-3.893074,116.20896,-0.49051374,0.66980106,0.044413105,-0.066750295,0.14055966,-0.055615064
20231225 10:00:01,-0.429732,0.657211,-0.167238,0.061424,0.178486,-0.040713,-15.208832,-14.557449,-4.297890,114.07074,-0.47406757,0.6285672,0.047159243,-0.022821054,0.18762708,-0.13423914
20231225 10:00:01,-0.328075,0.620035,-0.317374,0.118953,0.227492,-0.027929,-15.066429,-14.362877,-3.907265,113.90233,-0.52556086,0.62459195,0.02539783,0.013849828,0.23894748,-0.20885657
20231225 10:00:01,-0.158166,0.606233,-0.563440,0.144521,0.248799,-0.023667,-14.696735,-14.331802,-4.173561,111.02694,-0.62141305,0.65107816,-0.06244439,0.031197056,0.25924996,-0.24222352
20231225 10:00:01,0.081860,0.579397,-0.792837,0.146652,0.283955,-0.035386,-14.978970,-14.162758,-4.321358,108.264595,-0.6721017,0.6441751,-0.22936958,0.025218002,0.29283553,-0.2614219
20231225 10:00:01,0.188173,0.746419,-0.684318,0.140260,0.302066,-0.054562,-15.094093,-14.264160,-4.449867,107.72616,-0.53452826,0.803748,-0.42587298,0.005507432,0.31156301,-0.2625863
20231225 10:00:01,0.221935,0.961723,-0.490882,0.107234,0.274367,-0.066281,-15.064625,-13.420914,-3.834755,108.41957,-0.3686226,1.0064335,-0.5925263,-0.019609414,0.28357425,-0.21861504
20231225 10:00:01,0.249403,1.171828,-0.260630,0.048640,0.221100,-0.068412,-15.023792,-14.637856,-4.290794,108.64872,-0.14766708,1.1924151,-0.76598775,-0.04313913,0.22609337,-0.14252385
20231225 10:00:01,0.414611,1.282042,0.031159,-0.000366,0.184878,-0.058824,-15.093708,-14.456047,-4.169395,108.80484,0.21472219,1.2895316,-1.0305088,-0.05516785,0.18672854,-0.0873754
20231225 10:00:01,0.584353,1.207871,0.397789,-0.011020,0.188074,-0.056693,-14.987549,-14.449669,-4.034798,110.24087,0.6468166,1.2081438,-1.2236748,-0.055270754,0.18883032,-0.08403969
20231225 10:00:01,0.639560,1.021508,0.866517,0.022006,0.214708,-0.064151,-14.504269,-13.549648,-5.294472,107.70013,1.0542866,1.0137155,-1.2733649,-0.040703725,0.21635348,-0.13311324
20231225 10:00:01,0.562872,0.854825,1.296652,0.075273,0.217904,-0.080131,-15.078850,-12.730900,-6.425392,104.16499,1.3221319,0.82597226,-1.1713345,-0.019664831,0.22261684,-0.18151885
20231225 10:00:01,0.351461,0.754673,1.472030,0.144521,0.213642,-0.097176,-15.243389,-11.902264,-5.811272,105.66864,1.2906543,0.6847597,-1.0059946,0.010171033,0.22603577,-0.22701578
20231225 10:00:01,0.098405,0.617056,1.518866,0.228684,0.209381,-0.106765,-15.201019,-13.886765,-5.145424,113.26915,1.1381546,0.48420957,-0.8478414,0.05364497,0.23563457,-0.27073577
20231225 10:00:01,-0.189498,0.446361,1.342580,0.293670,0.208315,-0.099307,-14.697502,-13.948036,-4.734489,116.16785,0.81390333,0.2588752,-0.5152625,0.09592067,0.2487824,-0.3148721
20231225 10:00:01,-0.339472,0.256106,1.118388,0.317107,0.177420,-0.075869,-14.979088,-12.261349,-5.651222,110.28052,0.5745407,0.06671834,-0.1559664,0.1284757,0.22086497,-0.33121812
20231225 10:00:01,-0.323260,0.067720,0.902867,0.305389,0.141199,-0.051366,-15.032104,-13.215248,-5.053612,113.31914,0.4557026,-0.08404247,-0.028263614,0.14258432,0.17925791,-0.30288085
20231225 10:00:01,-0.177174,-0.111993,0.710074,0.263840,0.111369,-0.030059,-15.199482,-14.654320,-4.023537,117.69738,0.43188596,-0.20823814,-0.015055731,0.13601398,0.13901114,-0.25565368
20231225 10:00:01,0.013207,-0.271629,0.606811,0.192462,0.092193,-0.025798,-15.351616,-14.560127,-4.969002,114.4195,0.49126104,-0.32600644,-0.012324348,0.09716377,0.10959029,-0.19377778
20231225 10:00:01,0.082822,-0.314610,0.737451,0.153044,0.118826,-0.022602,-15.360199,-14.847038,-4.682411,116.62479,0.6340002,-0.37978262,-0.09464386,0.07253048,0.1339352,-0.17828032
20231225 10:00:01,-0.018123,-0.549336,0.860866,0.132802,0.163571,-0.011949,-15.323956,-14.658852,-4.426399,118.10094,0.66034836,-0.631059,0.06759709,0.06667142,0.17569564,-0.19178127
20231225 10:00:01,0.081162,-0.770507,1.202880,0.125345,0.191270,-0.007687,-15.544857,-14.958511,-4.409035,119.21971,0.95066136,-0.8536856,0.004753053,0.06963876,0.20083283,-0.2044129
20231225 10:00:01,0.116606,-1.062696,1.486566,0.140260,0.187009,-0.013014,-15.111641,-14.646088,-4.157173,120.62197,1.1726189,-1.1645803,0.03642696,0.07923237,0.19894707,-0.2085156
20231225 10:00:01,0.015730,-1.285989,1.458027,0.172220,0.177420,-0.017275,-15.657791,-14.309837,-4.184547,119.53667,1.1060729,-1.4034357,0.28348368,0.09917044,0.19409452,-0.22396535
20231225 10:00:01,-0.120953,-1.393531,1.200447,0.211638,0.177420,-0.024733,-15.236111,-14.650620,-4.560020,120.665306,0.89341867,-1.531727,0.5086148,0.1154248,0.20447135,-0.247233
20231225 10:00:01,-0.352299,-1.419096,0.846041,0.231880,0.175290,-0.024733,-15.166195,-14.832428,-4.681435,121.26412,0.5566765,-1.570972,0.7960245,0.11936237,0.21091437,-0.26091403
20231225 10:00:01,-0.578906,-1.297024,0.522029,0.216965,0.140133,-0.020471,-15.157612,-14.545517,-4.968025,120.54464,0.23034653,-1.4586096,1.0039893,0.105615854,0.1789039,-0.2339739
20231225 10:00:01,-0.827027,-1.061562,0.227648,0.166893,0.086866,-0.002360,-14.918400,-14.247704,-4.717125,121.2044,-0.11961529,-1.2323732,1.1421283,0.08613024,0.11742357,-0.17422521
20231225 10:00:01,-0.952626,-0.732672,-0.075966,0.080600,0.030402,0.025339,-15.421535,-14.378311,-4.847588,120.06654,-0.45555025,-0.8675873,1.1641657,0.060782067,0.03868018,-0.08742399
