Timestamp,linacce_x,linacce_y,linacce_z,gyro_x,gyro_y,gyro_z,X-magnetometer,Y-magnetometer,Z-magnetometer,Yaw, worldXAccel,worldYAccel,worldZAccel,worldXgyro,worldYgyro,worldZgyro
20231225 09:58:29,0.102245,-0.007556,-0.478806,-0.102640,0.229622,0.065822,31.297903,-23.691498,-27.219765,-88.6902,-0.2584805,-0.02736824,-0.0842684,-0.020506896,0.23518847,0.23760623
20231225 09:58:29,-0.312319,0.879318,0.858955,-0.882474,0.044252,-0.180274,30.927441,-23.338791,-27.514412,-83.85321,0.2974859,0.80766946,0.92352325,-0.77466273,-6.2685553E-4,0.6141884
20231225 09:58:29,-0.930124,1.129079,1.376424,-0.726934,0.115630,-0.218626,31.111328,-22.843536,-28.348732,-79.53059,0.09380674,0.8627224,1.6342345,-0.69810915,0.052045807,0.53935856
20231225 09:58:29,-1.642476,1.318877,1.493087,-0.526648,0.189139,-0.199450,31.660051,-22.621597,-27.687920,-75.91096,-0.46635634,0.75446826,2.319325,-0.55166996,0.12211099,0.4515785
20231225 09:58:29,-2.338370,1.555621,1.515933,-0.310383,0.236015,-0.106765,31.889147,-21.843132,-28.272331,-70.24576,-1.0947268,0.66421354,3.030642,-0.34642363,0.17729695,0.3452316
20231225 09:58:29,-2.688489,1.520533,1.191789,-0.122881,0.218969,0.038123,31.862251,-22.128189,-28.253990,-68.15036,-1.5638435,0.5401043,3.1796222,-0.114187196,0.16972806,0.24364069
20231225 09:58:29,-2.389592,1.078136,0.707814,0.014549,0.166767,0.185141,32.403431,-20.867416,-27.795021,-69.27742,-1.4951837,0.41909057,2.5463624,0.10021022,0.12854166,0.15278465
20231225 09:58:29,-1.573499,0.620262,0.118587,0.101907,0.091127,0.266107,31.447735,-22.634354,-27.957130,-75.288765,-1.1348631,0.38230765,1.543989,0.24276674,0.068884075,0.041814033
20231225 09:58:29,-0.772312,0.239351,-0.447904,0.141325,-0.000493,0.281022,31.360542,-21.124962,-28.592400,-75.07194,-0.8750564,0.21776232,0.63253856,0.29875454,-0.009946615,-0.05054334
20231225 09:58:29,-0.170398,-0.001790,-0.936899,0.155175,-0.048433,0.253323,31.695145,-21.857742,-28.273308,-79.14531,-0.7968913,0.01020536,0.001025483,0.29129782,-0.050064936,-0.11250053
20231225 09:58:29,0.218868,-0.266862,-1.282976,0.143456,-0.086786,0.197925,31.316868,-22.175720,-27.720436,-82.73973,-0.7887199,-0.30487064,-0.45221248,0.24008083,-0.08513193,-0.14623114
20231225 09:58:29,0.459616,-0.431679,-1.555477,0.102973,-0.141119,0.130808,31.997494,-21.086678,-27.784752,-82.347496,-0.86193866,-0.53831756,-0.7672488,0.15808058,-0.13870333,-0.15856197
20231225 09:58:29,0.566488,-0.422782,-1.794569,0.041182,-0.183733,0.066887,31.536348,-23.009895,-27.529808,-83.75722,-1.0209904,-0.5800583,-0.8304105,0.06456779,-0.18074079,-0.14517285
20231225 09:58:29,0.626980,-0.313460,-2.075613,-0.034457,-0.190125,0.008293,31.263462,-22.937721,-27.403282,-82.80901,-1.237189,-0.5190487,-0.8464194,-0.030496798,-0.18620987,-0.09107433
20231225 09:58:29,0.581353,-0.169987,-2.167448,-0.121816,-0.178406,-0.059889,31.341961,-22.832626,-27.811272,-79.80194,-1.3599322,-0.32684714,-0.7971733,-0.13261843,-0.17579938,-0.018065583
20231225 09:58:29,0.318879,0.097051,-2.164789,-0.230481,-0.170948,-0.130202,31.808849,-22.890190,-27.936836,-75.660614,-1.5306274,0.08067129,-0.5213169,-0.24422982,-0.17063747,0.063920595
20231225 09:58:29,-0.162870,0.421498,-1.932537,-0.330624,-0.168818,-0.179208,31.405481,-22.551262,-27.293129,-70.543144,-1.656488,0.55360925,-0.020827532,-0.3303684,-0.17361362,0.12892678
20231225 09:58:29,-0.678938,0.744874,-1.604220,-0.409460,-0.169883,-0.187731,31.245533,-23.127762,-27.391045,-69.11552,-1.7473149,0.86325,0.60448414,-0.3818723,-0.18555987,0.17461379
20231225 09:58:29,-1.033735,0.864779,-1.109229,-0.456335,-0.175210,-0.176012,31.377436,-22.260651,-28.116188,-67.937805,-1.6224306,0.87690336,1.029383,-0.40716213,-0.2040328,0.19057861
20231225 09:58:29,-1.224127,0.843957,-0.610733,-0.473381,-0.186929,-0.156836,31.147572,-22.655342,-28.092705,-72.267654,-1.3985435,0.74968076,1.3071704,-0.41587514,-0.22486836,0.18055372
20231225 09:58:29,-1.268171,0.692424,-0.087577,-0.454204,-0.196517,-0.134464,31.219675,-22.087082,-27.861153,-76.79382,-1.0732652,0.52841324,1.3404763,-0.40030384,-0.23609053,0.14458887
20231225 09:58:29,-1.202269,0.556034,0.421900,-0.397741,-0.218889,-0.106765,31.658901,-22.045937,-28.529320,-80.28306,-0.69853175,0.37053108,1.251327,-0.34971255,-0.25156194,0.08021888
20231225 09:58:29,-1.066177,0.326816,0.726364,-0.312513,-0.247653,-0.085458,31.059727,-22.663567,-27.959084,-85.37295,-0.407322,0.15707983,0.9670556,-0.27664667,-0.27025634,-0.0023027156
20231225 09:58:29,-0.938356,0.192013,0.808786,-0.212370,-0.279614,-0.085458,31.201744,-22.277115,-27.848930,-86.35345,-0.25167093,0.055002462,0.77210516,-0.20031929,-0.29041266,-0.091761336
20231225 09:58:29,-0.825078,0.289336,0.698964,-0.120751,-0.324359,-0.105699,31.192396,-22.180244,-28.123268,-83.1785,-0.20104495,0.16950661,0.8158029,-0.1371538,-0.3250217,-0.17731649
20231225 09:58:29,-0.855015,0.585540,0.190924,-0.052568,-0.331816,-0.118483,30.893002,-22.585007,-27.697929,-78.68294,-0.53417814,0.48896286,1.0337199,-0.09109241,-0.32382697,-0.21452989
20231225 09:58:29,-0.928690,0.897736,-0.333144,-0.002497,-0.271091,-0.127006,30.539318,-21.466599,-28.846214,-70.0443,-0.97124046,0.8306984,1.1769723,-0.06443165,-0.25482523,-0.20190826
20231225 09:58:29,-1.070731,1.241743,-0.853130,0.017745,-0.187994,-0.147248,30.919128,-21.916176,-28.277214,-65.829346,-1.4985796,1.2165561,1.3239688,-0.07442048,-0.16324294,-0.1624451
20231225 09:58:29,-1.221044,1.474102,-1.127173,0.009222,-0.077198,-0.162163,30.645859,-21.652115,-28.431129,-62.36659,-1.8606074,1.4630132,1.4408662,-0.10473113,-0.04870104,-0.09813391
20231225 09:58:29,-1.440890,1.670556,-0.965955,0.011353,0.010161,-0.170685,31.209175,-21.414543,-28.976921,-60.56339,-1.9409312,1.5829672,1.7339368,-0.12180925,0.041711047,-0.056895137
20231225 09:58:29,-1.625283,1.694066,-0.618361,0.022006,0.054905,-0.171751,31.324682,-21.505035,-28.567940,-63.24527,-1.8456907,1.4850626,2.032982,-0.118428454,0.088216305,-0.035310857
20231225 09:58:29,-1.936366,1.613701,-0.117791,0.053967,0.035729,-0.156836,31.182663,-21.891487,-28.678108,-65.55487,-1.7496455,1.2128485,2.3753777,-0.07623984,0.074406624,-0.061131366
20231225 09:58:29,-2.167060,1.583097,0.345800,0.118953,-0.035649,-0.102503,31.218523,-21.511406,-28.702568,-66.636475,-1.6312168,1.0294307,2.6486976,0.024097934,0.0086440705,-0.13535807
20231225 09:58:29,-2.160313,1.470777,0.552245,0.208442,-0.102766,-0.020471,31.334030,-21.601906,-28.293602,-69.154076,-1.4619007,0.91626906,2.6267006,0.15589319,-0.05645043,-0.21844064
20231225 09:58:29,-1.936279,1.289791,0.491526,0.292605,-0.153903,0.062626,31.309322,-21.136887,-27.922279,-71.56095,-1.2791771,0.8654825,2.3314893,0.27848816,-0.11186954,-0.29249305
20231225 09:58:29,-1.490228,0.943528,0.304244,0.327761,-0.218889,0.143592,30.946407,-21.822998,-28.015068,-76.30107,-0.97375417,0.7367241,1.7425666,0.35841343,-0.19522883,-0.3550817
20231225 09:58:29,-0.706742,0.776400,0.187833,0.283016,-0.325424,0.198990,30.882500,-21.912476,-28.813698,-80.28744,-0.3942346,0.75406945,1.0640539,0.3493184,-0.32303336,-0.40319833
20231225 09:58:29,0.180208,0.796143,0.271044,0.165828,-0.484161,0.219232,31.200977,-21.893341,-28.409859,-85.589035,0.36656314,0.7986753,0.4496955,0.24228244,-0.4791631,-0.44700342
20231225 09:58:29,1.059766,1.174618,0.075634,-0.007824,-0.602414,0.229885,30.240307,-22.063248,-28.140388,-91.090294,0.9798349,0.99558127,0.07143552,0.060618892,-0.5510843,-0.4210797
20231225 09:58:29,2.069990,1.302762,0.144103,-0.207044,-0.654616,0.209644,30.397301,-21.853058,-28.956367,-95.374855,1.8777002,0.76641315,-0.5351803,-0.16301437,-0.51802063,-0.33379555
20231225 09:58:29,2.962666,1.390513,0.345529,-0.416917,-0.627983,0.130808,29.955502,-22.452393,-28.921638,-100.486176,2.7945771,0.46223125,-1.0096982,-0.4019661,-0.4105252,-0.1984128
20231225 09:58:29,3.540967,1.146554,0.956818,-0.592700,-0.487357,-0.031125,30.160275,-21.400795,-28.854286,-101.87539,3.63094,0.18528017,-1.3731474,-0.60453886,-0.27403888,-0.023327086
20231225 09:58:30,3.233771,0.658491,2.489010,-0.647032,-0.354188,-0.250587,29.913517,-20.659782,-29.307014,-100.79324,4.103139,0.24743575,-1.5397224,-0.72717124,-0.22930174,0.08247268
20231225 09:58:30,1.910574,0.210327,3.822960,-0.522387,-0.244457,-0.448741,29.850378,-21.133026,-29.544701,-101.07053,3.4842556,0.22213033,-1.3647653,-0.68408984,-0.2136594,0.11020652
20231225 09:58:30,0.227608,-0.230551,4.470843,-0.233677,-0.148576,-0.566995,29.780464,-20.951218,-29.423286,-100.74546,2.172925,-0.28504828,-1.0521533,-0.45708773,-0.14728032,0.06661898
20231225 09:58:30,-1.582723,-0.419699,4.699876,0.187135,-0.109158,-0.572322,30.265282,-20.818748,-29.561089,-98.27631,0.64430046,-1.0230894,-0.2851701,-0.07117024,-0.034090832,-0.10527276
20231225 09:58:30,-3.038899,-0.359525,3.909211,0.655888,-0.117681,-0.463656,30.495913,-20.807846,-29.023613,-92.891884,-0.871663,-1.6845647,0.94086266,0.38640368,0.12398727,-0.39201468
20231225 09:58:30,-3.692571,-0.578907,2.128547,1.010649,-0.126204,-0.264436,30.362858,-21.099281,-29.139900,-83.39151,-1.9993585,-2.1015115,1.6509572,0.7567348,0.24930322,-0.6616183
20231225 09:58:30,-3.198588,-1.020612,0.308338,1.173647,-0.133661,-0.051366,30.460052,-21.187927,-28.999168,-77.442154,-2.2459815,-1.8620769,1.0981343,0.95283145,0.19057876,-0.7960519
20231225 09:58:30,-1.804301,-1.569172,-0.755138,1.182170,-0.177341,0.102044,30.212643,-21.964531,-28.682991,-83.16475,-1.7481402,-1.6768992,-0.1543793,0.99929446,-0.0647216,-0.8682797
20231225 09:58:30,-0.179350,-1.769809,-1.667710,1.098008,-0.212497,0.176618,30.133764,-21.877747,-28.555458,-90.905464,-1.4144626,-1.8989877,-1.1784468,0.91242063,-0.31720456,-0.89313626
20231225 09:58:30,1.315674,-2.061627,-2.086925,0.930748,-0.245523,0.190468,30.080359,-22.639748,-28.238319,-101.89984,-0.7732098,-2.828413,-2.0612473,0.75826126,-0.45785886,-0.81657684
20231225 09:58:30,2.366713,-2.269283,-2.378176,0.688914,-0.299856,0.151050,30.521387,-21.656639,-28.833992,-106.91568,-0.1332146,-3.7286859,-2.6242156,0.5179869,-0.49765748,-0.68538696
20231225 09:58:30,3.182597,-2.514915,-2.362903,0.384224,-0.370169,0.079671,29.835789,-21.148659,-28.338097,-110.37269,0.6474657,-4.4327245,-3.0833626,0.21849379,-0.4571551,-0.5273871
20231225 09:58:30,3.618635,-2.658856,-2.289687,0.050771,-0.445808,-0.008752,29.816441,-22.472549,-28.117882,-113.652885,1.1339147,-4.817058,-3.247294,-0.1210087,-0.36726928,-0.36683783
20231225 09:58:30,3.934031,-2.654953,-2.088281,-0.266703,-0.427697,-0.111026,29.709896,-22.287048,-28.532967,-113.376625,1.6191647,-4.908857,-3.4289572,-0.41702798,-0.2145762,-0.15749946
20231225 09:58:30,4.065158,-2.345483,-1.463410,-0.526648,-0.349927,-0.235672,30.255280,-22.239517,-29.066536,-110.61199,2.0563152,-4.369577,-3.5994508,-0.65686953,-0.09755534,0.07629855
20231225 09:58:30,3.624251,-1.823995,-0.703907,-0.718411,-0.260438,-0.364579,30.185749,-22.249588,-28.664650,-107.2689,2.1779292,-3.2301607,-3.2926097,-0.8443763,-0.040290847,0.28376842
20231225 09:58:30,2.836089,-1.124706,0.111523,-0.820684,-0.157099,-0.481767,30.142729,-21.782730,-28.561577,-101.66347,2.1350846,-1.8129344,-2.5742085,-0.9617618,-0.018697508,0.4357875
20231225 09:58:30,1.756312,-0.309272,0.969928,-0.826011,-0.048433,-0.578714,30.248119,-21.392563,-28.987907,-94.37968,1.9388897,-0.4446464,-1.3797288,-1.0069741,0.00497669,0.5036474
20231225 09:58:30,0.570424,0.615332,1.655173,-0.748241,0.030402,-0.645831,29.879078,-19.906006,-29.490532,-84.58739,1.5079291,0.6343502,0.2270704,-0.987424,0.0354841,0.45437506
20231225 09:58:30,-0.728302,1.299973,2.160611,-0.643836,0.069820,-0.667138,30.159122,-20.825134,-29.695702,-80.02426,0.7029235,1.0757914,1.742002,-0.92300195,0.060851272,0.37123552
20231225 09:58:30,-2.005205,1.511549,2.547787,-0.506407,0.073016,-0.621328,30.273478,-20.339951,-30.128151,-75.30011,-0.25594676,0.7938065,2.8955824,-0.7818973,0.067374706,0.24233401
20231225 09:58:30,-2.883410,1.561975,2.876898,-0.325297,0.108173,-0.479636,30.533192,-19.293915,-29.256050,-75.06713,-0.94716144,0.4312233,3.515847,-0.5518936,0.10929576,0.17584702
20231225 09:58:30,-3.160039,1.208814,3.268015,-0.087725,0.127349,-0.279351,30.558281,-19.950821,-29.346886,-81.18432,-1.064325,0.016503662,3.1586003,-0.24037287,0.14403385,0.11766937
20231225 09:58:30,-2.718635,0.618658,3.177130,0.200985,0.158244,-0.089719,30.374012,-20.254181,-28.793037,-86.77974,-0.68520486,-0.1929839,2.1328542,0.105214596,0.19854568,0.020922061
20231225 09:58:30,-1.823285,0.075090,2.878584,0.515262,0.190205,0.047711,30.522808,-20.522789,-29.041954,-89.96616,-0.021725178,-0.30053484,1.0381188,0.44863334,0.23877446,-0.1141537
20231225 09:58:30,-0.870055,-0.396217,2.005354,0.768815,0.158244,0.121220,30.866375,-21.160553,-28.728981,-91.74885,0.4106635,-0.4480161,0.10963891,0.7019008,0.17418559,-0.30346286
20231225 09:58:30,-0.012190,-0.729891,0.843743,0.922225,0.126284,0.165965,30.319839,-20.632408,-29.036812,-88.9886,0.4847169,-0.7020199,-0.55689937,0.833761,0.09416207,-0.46405432
20231225 09:58:30,0.508342,-0.708139,-0.236654,0.964839,0.073016,0.196860,30.374779,-20.637955,-28.232079,-88.69982,0.14976092,-0.7761295,-0.8694148,0.85025716,-0.0088714715,-0.59425986
20231225 09:58:30,1.135978,-0.803779,-1.650034,0.888134,0.009095,0.194729,30.787495,-21.073761,-28.601448,-90.269936,-0.6509274,-1.3819551,-1.3811666,0.7180017,-0.12346447,-0.67183673
20231225 09:58:30,1.609204,-0.821754,-2.932233,0.705960,0.066624,0.163834,31.221478,-21.145111,-27.788658,-95.401955,-1.4468081,-2.2168956,-1.6160439,0.5616269,-0.06924465,-0.5372526
20231225 09:58:30,1.840364,-0.908626,-3.335177,0.467322,0.151852,0.109501,30.646244,-21.843994,-28.150658,-95.60069,-1.6939839,-2.570259,-1.8371288,0.40659007,0.050235257,-0.30068636
20231225 09:58:30,1.673576,-0.815081,-3.294875,0.207377,0.183813,0.045580,31.140411,-21.808388,-28.014091,-91.144966,-1.8284605,-2.1586719,-1.8046265,0.20989962,0.13935408,-0.06823304
20231225 09:58:30,1.197274,-0.670425,-3.088042,-0.021673,0.213642,0.009358,30.955372,-21.727982,-28.021187,-84.41546,-1.8978604,-1.4328578,-1.5359272,0.037547424,0.21211243,0.14038487
20231225 09:58:30,0.657518,-0.539772,-2.346363,-0.174018,0.243472,0.008293,31.273849,-21.708847,-27.617348,-81.38851,-1.4570494,-0.7848432,-1.0662736,-0.081203684,0.2547285,0.28703445
20231225 09:58:30,0.215081,-0.256776,-1.613232,-0.250723,0.218969,0.038123,31.185234,-21.333290,-28.044670,-78.09388,-1.0779728,-0.2817024,-0.54595244,-0.13300109,0.22249173,0.33495337
20231225 09:58:30,-0.199498,-0.015568,-0.881077,-0.261377,0.172094,0.095652,31.113899,-22.285339,-27.715294,-79.20274,-0.77775264,0.0027824994,0.021821082,-0.113937594,0.16295274,0.31849825
20231225 09:58:30,-0.490129,0.036204,-0.538004,-0.245396,0.113500,0.191533,31.070496,-21.626595,-27.892693,-78.494576,-0.7280684,0.03848394,0.2984349,-0.04116173,0.094588205,0.2796272
20231225 09:58:30,-0.501023,0.014994,-0.184696,-0.210240,0.086866,0.301264,30.806576,-21.459389,-27.772270,-81.533195,-0.48936915,0.007653461,0.33845973,0.05536832,0.07548125,0.23964427
20231225 09:58:30,-0.133535,0.151229,0.172921,-0.151646,0.060232,0.390753,31.212898,-21.432014,-27.502068,-85.9997,0.025413774,0.16041888,0.21017656,0.15850708,0.076528504,0.16748421
20231225 09:58:30,0.448176,0.275689,0.426300,-0.078137,0.046383,0.439759,31.086889,-20.668999,-29.026802,-87.42284,0.63859195,0.2682237,-0.08307658,0.23929493,0.08858628,0.10146654
20231225 09:58:30,1.048873,0.325141,0.674765,0.013483,0.017618,0.433367,31.000580,-21.444778,-27.771294,-92.70908,1.2643352,0.25764957,-0.47844818,0.2953627,0.06867908,-0.011118053
20231225 09:58:30,1.355503,0.258039,0.591817,0.104038,0.000573,0.390753,31.335182,-22.177567,-27.452187,-94.96825,1.434098,0.121402904,-0.74531037,0.3313582,0.038748026,-0.09391725
20231225 09:58:30,1.477159,0.215905,0.445749,0.185004,-0.005819,0.342812,30.549816,-22.139137,-27.730446,-94.71032,1.4197446,0.029056504,-0.858218,0.3602292,0.015410136,-0.14925908
20231225 09:58:30,1.491368,0.132418,0.298256,0.254252,-0.018604,0.284218,30.840631,-22.021278,-27.869225,-94.689186,1.3183641,-0.086813614,-0.92553043,0.37082893,-0.017183244,-0.20220426
20231225 09:58:30,1.472616,-0.105924,-0.121977,0.288343,-0.040976,0.205382,30.786842,-22.591393,-27.832542,-95.01018,0.9698532,-0.3933677,-1.0813342,0.33891916,-0.056848306,-0.24090698
20231225 09:58:30,1.410342,-0.147184,-0.477067,0.296866,-0.046303,0.116959,30.895840,-20.317299,-28.113869,-91.89577,0.65510786,-0.4982003,-1.0828964,0.28202784,-0.07908489,-0.24398011
20231225 09:58:30,1.458630,-0.191366,-0.936129,0.285147,-0.069740,0.020012,30.780064,-21.936333,-27.473457,-91.98295,0.261038,-0.64687544,-1.1938198,0.18983701,-0.11552935,-0.25957865
20231225 09:58:30,1.229168,0.220196,-1.271025,0.238272,-0.015408,-0.088654,30.779682,-21.744446,-27.753929,-88.22277,-0.13700897,-0.2293442,-0.8401574,0.08061973,-0.06993441,-0.19638784
20231225 09:58:30,0.913314,0.494925,-1.371804,0.197789,0.057036,-0.168555,30.707962,-22.504601,-27.705025,-83.300385,-0.45166564,0.23134659,-0.5196423,-0.0036144704,0.016497372,-0.13383
20231225 09:58:30,0.297544,0.788319,-1.197842,0.161567,0.123088,-0.191992,30.532272,-22.521057,-27.437752,-78.29318,-0.73297703,0.71561354,0.08273357,-0.048800074,0.107121184,-0.0793804
20231225 09:58:30,-0.118405,1.033246,-0.866749,0.128541,0.150787,-0.170685,31.265652,-22.187645,-27.050301,-76.94472,-0.74772966,1.0289371,0.595557,-0.053388968,0.14927495,-0.033689193
20231225 09:58:30,-0.239901,1.050379,-0.560181,0.109365,0.142264,-0.134464,31.053719,-22.392296,-27.039055,-78.457985,-0.5762273,1.047277,0.7677577,-0.03319914,0.14037555,-0.013030389
20231225 09:58:30,-0.065422,0.922757,-0.384404,0.107234,0.142264,-0.099307,30.992767,-22.115463,-26.923759,-81.68175,-0.29901993,0.90952885,0.6105187,4.2098016E-4,0.13498883,0.001616084
20231225 09:58:30,0.252502,0.704647,-0.144335,0.121083,0.147591,-0.082262,30.999928,-22.962410,-27.002373,-86.7543,0.116780564,0.67402774,0.28684366,0.032761786,0.13288616,0.008019702
20231225 09:58:30,0.607435,0.466667,-0.023052,0.158371,0.156113,-0.096111,31.424179,-22.744995,-26.744392,-89.38529,0.44871995,0.40519166,-0.114549875,0.055866644,0.13126434,-0.0066619907
20231225 09:58:30,0.688608,0.410446,0.148707,0.213769,0.178486,-0.113157,31.424179,-22.744995,-26.744392,-89.354614,0.62218034,0.36260128,-0.20406742,0.08444496,0.14963993,-0.028895143
20231225 09:58:30,0.509010,0.352795,0.218819,0.272363,0.188074,-0.117418,31.266418,-22.571419,-26.489357,-87.84472,0.53253865,0.3352118,-0.11164008,0.11782786,0.16489199,-0.066393055
20231225 09:58:30,0.383191,0.379654,0.132854,0.341611,0.211512,-0.103568,31.019011,-23.348038,-26.173180,-87.64365,0.3807331,0.36481273,-0.019301562,0.16948143,0.18521592,-0.109663986
20231225 09:58:30,0.313633,0.683568,0.068998,0.420446,0.254125,-0.102503,31.512409,-22.928665,-26.597557,-83.27246,0.28050566,0.6763607,0.2172703,0.20841898,0.23882996,-0.1575352
20231225 09:58:30,0.022975,0.687467,-0.187550,0.488629,0.310589,-0.101438,31.672356,-22.352165,-26.499641,-79.80953,-0.1260861,0.6867429,0.39759025,0.23883614,0.30880535,-0.1876716
20231225 09:58:30,-0.223012,0.993268,-0.254691,0.545092,0.358530,-0.092915,31.760201,-22.343941,-26.633263,-73.998245,-0.38158774,0.99529403,0.71929944,0.24573065,0.3808444,-0.23420973
20231225 09:58:30,-0.659720,1.333185,-0.398973,0.572791,0.417124,-0.040713,32.371296,-21.264969,-26.295708,-68.36325,-0.83766675,1.315448,1.1788157,0.26719484,0.45839977,-0.24022967
20231225 09:58:30,-0.817080,1.511581,-0.415100,0.521654,0.404340,0.053038,31.991217,-22.524910,-25.815331,-70.89645,-0.94145554,1.4883286,1.4224244,0.31679243,0.42953205,-0.18535808
20231225 09:58:30,-0.419770,1.486845,-0.395624,0.385290,0.294609,0.142527,32.363483,-21.935661,-25.448174,-76.23618,-0.57477856,1.4873041,1.1326936,0.34006268,0.29534343,-0.12382764
20231225 09:58:30,0.357410,1.417022,-0.336166,0.230814,0.179551,0.184076,32.167675,-22.892227,-25.521645,-83.826324,0.07491681,1.3524342,0.5305084,0.3008771,0.17955896,-0.06728476
20231225 09:58:30,1.068348,1.345978,-0.288269,0.048640,0.102846,0.178749,32.140781,-23.177284,-25.503304,-89.58659,0.6503197,1.1398617,-0.011725327,0.18410869,0.1230353,0.025963362
20231225 09:58:30,1.661731,1.191988,0.226514,-0.134600,0.043187,0.129743,32.458874,-22.966263,-25.379951,-95.229385,1.5060662,0.9014456,-0.45910934,0.011856064,0.09087915,0.12104928
20231225 09:58:30,2.168358,1.076085,0.873350,-0.265638,0.015487,0.026404,32.380379,-23.071358,-24.971962,-98.27623,2.3338287,0.78784096,-0.86913526,-0.16689916,0.07083983,0.19598109
20231225 09:58:30,2.119181,0.898907,1.481497,-0.334886,0.036794,-0.106765,32.124653,-22.425369,-25.418587,-96.82231,2.6709542,0.7565658,-0.9105313,-0.3113228,0.0738277,0.2632752
20231225 09:58:30,1.429300,0.584751,1.995936,-0.348735,0.099650,-0.234606,32.246555,-22.979019,-25.649178,-95.354645,2.4105802,0.6012793,-0.6178384,-0.4105624,0.11088494,0.31727463
20231225 09:58:30,0.297529,0.331401,2.628518,-0.307186,0.174224,-0.308115,32.336971,-22.412605,-25.149361,-93.61332,1.8165283,0.28286457,-0.048128754,-0.4345694,0.17201118,0.33959177
20231225 09:58:30,-0.949426,0.074839,3.335639,-0.185737,0.220034,-0.304919,32.513046,-22.588036,-25.136162,-94.29273,1.0556617,-0.31149292,0.38670135,-0.34073102,0.22015499,0.30470848
20231225 09:58:30,-1.898358,-0.016336,3.848368,0.035856,0.242407,-0.210103,32.212883,-22.609024,-25.271751,-94.073395,0.45595682,-0.78633237,0.78953046,-0.10922794,0.2672251,0.19591577
20231225 09:58:30,-2.228154,-0.156888,3.736176,0.295801,0.234949,-0.052432,32.636749,-22.199722,-25.294258,-92.997215,0.14503896,-0.96592605,0.9209786,0.19321238,0.28731975,0.037480034
20231225 09:58:30,-1.692042,-0.618057,3.025745,0.512066,0.199793,0.087129,32.600891,-22.579803,-25.269798,-94.62656,0.3034761,-1.052454,0.22357596,0.45799536,0.25166082,-0.124378085
20231225 09:58:30,-0.657471,-1.322888,2.036854,0.628189,0.115630,0.129743,32.840488,-22.473869,-24.738441,-95.025536,0.69824755,-1.4046122,-0.8261702,0.58151996,0.13635324,-0.2843816
20231225 09:58:30,0.149757,-1.358545,0.694502,0.700633,0.148656,0.144658,32.919754,-22.752556,-24.585487,-94.462585,0.5150406,-1.338691,-1.1723707,0.63349026,0.124764495,-0.34768254
20231225 09:58:30,0.761013,-1.701950,-0.148914,0.746443,0.270106,0.095652,32.744446,-22.960899,-24.037758,-96.445305,0.34015393,-1.7690675,-1.7592974,0.6438078,0.20958085,-0.30037385
20231225 09:58:30,0.880209,-1.979078,-0.686286,0.723005,0.315916,0.004032,33.132454,-22.931679,-24.035805,-93.86139,0.04914537,-2.0722334,-2.0076916,0.5491328,0.266794,-0.26598555
20231225 09:58:30,0.452745,-1.912478,-1.003006,0.618601,0.278628,-0.081196,32.726898,-23.342827,-23.745049,-88.39051,-0.40534785,-1.9108574,-1.6727134,0.37075025,0.27939042,-0.25340068
20231225 09:58:30,-0.033491,-1.708684,-1.219910,0.468387,0.207250,-0.129137,33.202370,-23.113495,-24.157204,-80.69734,-0.8062711,-1.6144733,-1.2257632,0.19996354,0.2457534,-0.22821562
20231225 09:58:30,-0.582508,-1.356542,-1.227598,0.312846,0.150787,-0.134464,33.018097,-23.416855,-23.603355,-76.44689,-1.0977483,-1.2297536,-0.61875385,0.085024655,0.2061602,-0.15979423
20231225 09:58:30,-0.956865,-1.174626,-1.005250,0.169024,0.101781,-0.111026,33.045376,-23.323692,-23.341225,-75.37257,-1.1598914,-1.1169696,-0.22517884,0.015763924,0.14530048,-0.07788913
20231225 09:58:30,-1.223206,-0.950589,-0.581196,0.039052,0.063428,-0.065216,33.363468,-23.112656,-23.217857,-77.09881,-1.0878057,-1.0243111,0.1563635,-0.029869482,0.07933331,0.0043522427
20231225 09:58:30,-1.243877,-0.726532,0.059582,-0.062156,0.013357,-0.018341,33.169464,-23.127266,-23.218834,-81.102585,-0.73916364,-0.9061697,0.36617762,-0.058879476,0.006414059,0.05094743
20231225 09:58:30,-1.092063,-0.619164,0.598484,-0.127143,-0.038845,0.024273,33.248344,-23.214066,-23.346352,-84.59979,-0.32122332,-0.8199642,0.3369849,-0.071898684,-0.057325624,0.060280293
20231225 09:58:30,-0.867921,-0.539644,0.930923,-0.151646,-0.059087,0.073279,33.514069,-22.439293,-23.394279,-86.61691,0.02120471,-0.6982677,0.22272386,-0.058736686,-0.079389215,0.061078902
20231225 09:58:30,-0.711194,-0.565283,1.101054,-0.134600,-0.042041,0.093521,33.080853,-22.751724,-23.646141,-88.97642,0.2313365,-0.668915,0.06648793,-0.036040384,-0.05549065,0.05950088
20231225 09:58:30,-0.285452,-0.505514,1.280361,-0.081333,0.006965,0.082867,33.593330,-22.717972,-23.241341,-90.321304,0.658525,-0.56624895,-0.19198717,-0.005769629,2.6075193E-4,0.05905076
20231225 09:58:30,-0.121157,-0.538553,1.162455,-0.006758,0.094323,0.037057,33.257694,-23.310928,-23.071999,-91.08007,0.7093336,-0.5839215,-0.33365586,0.016499672,0.09260683,0.073874354
20231225 09:58:30,-0.301398,-0.466523,1.096416,0.084862,0.196597,-0.016210,32.878265,-23.053238,-23.360527,-87.442894,0.55748,-0.5645221,-0.0989503,0.0370618,0.20311627,0.08501167
20231225 09:58:30,-0.779254,-0.340952,0.927949,0.183939,0.290347,-0.047105,33.469627,-23.106277,-23.083260,-83.34806,0.11336559,-0.55795574,0.37306437,0.063387975,0.31591436,0.07664741
20231225 09:58:30,-1.411238,-0.205240,0.738874,0.287278,0.371314,-0.025798,33.548893,-23.384949,-22.930290,-77.54761,-0.45124638,-0.61738545,0.97178876,0.11213852,0.41791305,0.048002847
20231225 09:58:30,-1.869774,-0.083865,0.376595,0.390617,0.425647,0.045580,33.779137,-23.182159,-22.673317,-72.900826,-1.0023481,-0.57697076,1.3823379,0.2001025,0.47830555,0.0036500534
20231225 09:58:30,-1.820424,-0.213017,-0.170749,0.460930,0.455476,0.111632,33.725349,-23.752274,-22.636635,-69.61931,-1.2616132,-0.55506897,1.2046497,0.26727352,0.50202817,-0.042613618
20231225 09:58:30,-1.580899,-0.350404,-0.812462,0.476910,0.452280,0.157442,33.841240,-24.034653,-21.947182,-67.29373,-1.4851713,-0.4373089,0.859964,0.2933126,0.48218083,-0.08438431
20231225 09:58:30,-1.393475,-0.432383,-1.141885,0.426838,0.421385,0.189402,34.026665,-24.306946,-21.659615,-66.50438,-1.5867047,-0.37086987,0.6601597,0.2903418,0.42849934,-0.08769818
20231225 09:58:30,-0.777470,-0.634160,-1.827899,0.324565,0.355334,0.214971,34.308514,-24.284111,-21.792290,-67.933525,-1.7989119,-0.3616277,-0.02345258,0.28230846,0.34419554,-0.055351313
20231225 09:58:30,-0.317252,-0.658985,-2.311463,0.180743,0.270106,0.227755,33.845230,-22.342613,-21.521721,-69.78902,-2.0914798,-0.42952096,-0.4094371,0.25696012,0.25472292,0.0029392801
20231225 09:58:30,0.177131,-0.731405,-2.628888,0.001764,0.221100,0.210709,34.123859,-24.395599,-21.518898,-75.53191,-2.2534244,-0.6887494,-0.7747539,0.18528448,0.21778229,0.118939295
20231225 09:58:31,0.490418,-0.732285,-2.667899,-0.188933,0.204054,0.170226,34.213890,-23.637291,-21.299553,-81.17386,-2.1296945,-0.87558365,-0.9774361,0.06733244,0.21723345,0.27555346
20231225 09:58:31,0.719094,-0.903122,-2.307394,-0.354062,0.164636,0.095652,34.001957,-23.841934,-21.288307,-85.9206,-1.6342193,-1.1184639,-1.1755012,-0.094669014,0.18919802,0.39078072
20231225 09:58:31,1.011050,-1.005893,-1.811762,-0.493622,0.126284,-0.006622,34.222855,-23.542267,-21.305672,-88.13549,-0.984746,-1.2057104,-1.4377223,-0.27695972,0.15307428,0.47719735
20231225 09:58:31,0.730471,-0.423140,-1.207685,-0.596961,0.083670,-0.065216,34.469231,-24.091393,-21.133400,-86.5992,-0.54621255,-0.45519873,-0.8811234,-0.40515465,0.09055363,0.52777827
20231225 09:58:31,0.363186,-0.095971,-0.511826,-0.670470,-0.010081,-0.098242,34.213890,-23.637291,-21.299553,-86.622284,-0.14920843,-0.06804704,-0.3578617,-0.51007867,-0.026152665,0.49917865
20231225 09:58:31,-0.061218,-0.087703,0.072002,-0.699235,-0.184798,-0.120614,34.035629,-24.211929,-21.665733,-86.15946,0.018263962,-0.09603358,-0.009893307,-0.54474694,-0.2188922,0.39048785
20231225 09:58:31,-0.175019,-0.033835,0.193899,-0.690712,-0.258307,-0.127006,33.744431,-24.137901,-21.807442,-85.2408,0.027947016,-0.062382326,0.11780365,-0.5364446,-0.29745695,0.33165023
20231225 09:58:31,-0.397906,-0.026419,0.204374,-0.574589,-0.299856,-0.140856,34.019119,-23.268120,-21.861488,-84.30515,-0.1203576,-0.078227915,0.28710502,-0.46673882,-0.333219,0.20763731
20231225 09:58:31,-0.498864,-0.133495,0.196014,-0.470185,-0.260438,-0.136594,34.274075,-23.530334,-21.975792,-85.14116,-0.19517809,-0.20012774,0.27660096,-0.39871898,-0.28986993,0.14824271
20231225 09:58:31,-0.564113,-0.270637,0.341225,-0.377499,-0.241261,-0.132333,33.700260,-23.095367,-22.545784,-84.757454,-0.13611944,-0.36305824,0.22668639,-0.33535787,-0.2647244,0.085612364
20231225 09:58:31,-0.698028,-0.286713,0.461823,-0.286945,-0.239131,-0.132333,33.918587,-23.353889,-23.196587,-84.33539,-0.15240222,-0.41579288,0.31320325,-0.27015892,-0.25442383,0.019188419
20231225 09:58:31,-0.853185,-0.256149,0.536315,-0.191064,-0.233804,-0.131268,33.726387,-22.426529,-23.125069,-82.61053,-0.22091362,-0.43351924,0.4550325,-0.19760531,-0.23857732,-0.048097264
20231225 09:58:31,-0.993129,-0.241576,0.534011,-0.090921,-0.224216,-0.133398,33.761860,-21.854568,-23.429985,-80.45847,-0.3251522,-0.45961106,0.57603586,-0.124151066,-0.2140953,-0.11355786
20231225 09:58:31,-1.215768,-0.214705,0.665910,0.020941,-0.231673,-0.132333,33.549541,-21.867325,-23.699211,-78.93323,-0.3968178,-0.50926113,0.7804009,-0.038124308,-0.20189558,-0.1971459
20231225 09:58:31,-1.309630,-0.003964,0.475472,0.118953,-0.255111,-0.135529,33.612682,-21.394081,-23.461525,-74.67323,-0.58211637,-0.313808,1.0237858,0.034001514,-0.20267628,-0.28179014
20231225 09:58:31,-1.436227,0.372018,0.148800,0.211638,-0.303052,-0.132333,34.061256,-21.449806,-23.855339,-68.13543,-0.9085613,0.06587756,1.3488955,0.10570078,-0.22502959,-0.37620988
20231225 09:58:31,-1.529914,0.813064,-0.515235,0.262775,-0.328620,-0.128071,33.745350,-20.910751,-23.625740,-59.031044,-1.5092478,0.6110215,1.4901602,0.14337653,-0.22690934,-0.4172933
20231225 09:58:31,-1.667645,1.451295,-1.105432,0.272363,-0.308378,-0.113157,33.470661,-21.780540,-23.571693,-51.504837,-2.2133105,1.3665465,1.6520449,0.15307133,-0.19600272,-0.39607933
20231225 09:58:31,-1.791949,1.807885,-1.538229,0.251056,-0.217824,-0.073739,33.568626,-22.252960,-22.870018,-49.98658,-2.7567344,1.8108803,1.7381866,0.14756757,-0.12115095,-0.32568395
20231225 09:58:31,-1.927269,1.995949,-1.264289,0.195658,-0.140053,-0.019406,33.595520,-21.967903,-22.888359,-54.40722,-2.6529975,1.8591404,2.0996833,0.13475566,-0.08481001,-0.23227234
20231225 09:58:31,-1.713337,1.871108,-0.593071,0.166893,-0.114485,0.041319,33.689373,-22.230949,-23.942039,-61.669933,-1.9090761,1.6345128,2.1885116,0.15705319,-0.09051516,-0.18281163
20231225 09:58:31,-1.576933,1.903214,0.099233,0.185004,-0.105962,0.099913,33.771976,-22.335213,-22.594688,-69.44991,-1.2940458,1.562495,2.3653574,0.21224725,-0.09269551,-0.1846939
20231225 09:58:31,-1.454694,1.466787,0.648537,0.242533,-0.116616,0.168095,33.310715,-22.357033,-23.669624,-72.19797,-0.7286068,1.094718,2.1432157,0.3026391,-0.106285445,-0.22260022
20231225 09:58:31,-1.319699,1.129704,0.924120,0.286212,-0.129400,0.203252,33.469627,-23.106277,-23.083260,-76.221855,-0.38887691,0.7642097,1.8618176,0.35954857,-0.11786718,-0.2648689
20231225 09:58:31,-1.219024,0.841879,0.978239,0.466256,-0.170948,0.294872,33.487942,-23.108131,-22.815010,-80.817,-0.21547037,0.5866497,1.5653105,0.5501158,-0.15300654,-0.4250774
20231225 09:58:31,-0.687063,0.291196,0.453722,0.552549,-0.153903,0.332159,33.373199,-23.401413,-22.663033,-82.089264,-0.14431337,0.19598985,0.74683666,0.6269207,-0.13899896,-0.48419973
20231225 09:58:31,-0.540846,0.143475,0.270187,0.558942,-0.162426,0.359858,33.161266,-23.606064,-22.651787,-81.15971,-0.1360612,0.10104269,0.53683764,0.6390481,-0.15673266,-0.50218123
20231225 09:58:31,-0.155231,0.189623,-0.527390,0.452407,-0.197582,0.377969,33.709873,-21.482719,-23.320808,-76.90205,-0.524897,0.20638451,0.1638413,0.5796095,-0.19931187,-0.4285325
20231225 09:58:31,-0.006095,0.380105,-0.808869,0.267036,-0.271091,0.404603,32.860336,-23.243279,-23.348305,-78.28816,-0.67950666,0.3838578,0.11993417,0.48604,-0.2721505,-0.32385874
20231225 09:58:31,0.186265,0.656850,-0.984732,0.052901,-0.324359,0.429106,32.515350,-23.739372,-23.453331,-80.40174,-0.702237,0.6180283,0.10617189,0.3774991,-0.3104113,-0.1792562
20231225 09:58:31,0.381132,0.848173,-0.872128,-0.120751,-0.322228,0.432302,32.878651,-23.245125,-23.080070,-82.5931,-0.4663273,0.7736689,0.07809006,0.2746538,-0.28843868,-0.042717256
20231225 09:58:31,0.442689,0.920218,-0.811063,-0.246462,-0.255111,0.403537,32.436470,-23.652573,-23.325813,-84.81591,-0.34156826,0.84103703,0.12602706,0.16850379,-0.21515709,0.07537113
20231225 09:58:31,0.442967,1.057017,0.091651,-0.349800,-0.207170,0.350270,32.321346,-23.753983,-23.454308,-87.03083,0.40115684,1.0418133,0.31955975,0.04284741,-0.17554909,0.15422136
20231225 09:58:31,0.360747,1.037451,1.053398,-0.422244,-0.199713,0.288480,32.375134,-23.183861,-23.490990,-90.650955,1.0579981,1.0674784,0.4434204,-0.09040518,-0.16834176,0.16689682
20231225 09:58:31,0.410261,0.749105,2.061349,-0.410525,-0.193321,0.229885,32.365788,-23.086990,-23.765343,-94.47178,1.7134148,0.8153959,0.16084996,-0.15959826,-0.16400108,0.11827078
20231225 09:58:31,0.477085,0.287013,2.847510,-0.288010,-0.135792,0.172357,32.577335,-22.690453,-24.057076,-97.831894,2.1252148,0.38191873,-0.37353107,-0.1288208,-0.112053566,0.05083656
20231225 09:58:31,0.521518,-0.369812,3.465809,-0.077071,-0.047368,0.100978,32.807583,-22.487648,-23.800072,-101.39763,2.3260548,-0.2678033,-1.1614532,-0.010615271,-0.039026365,-0.012948737
20231225 09:58:31,0.469304,-0.929702,3.810094,0.053967,-0.011146,0.059430,32.453247,-22.886871,-24.179451,-102.90172,2.3708181,-0.8412031,-1.7416182,0.0767716,-0.011930113,-0.04887998
20231225 09:58:31,0.320530,-1.241494,3.605518,0.492890,0.087931,-0.052432,32.435699,-23.268799,-23.886757,-103.41494,2.1410837,-1.1607773,-1.9053934,0.39326668,0.066136286,-0.17715666
20231225 09:58:31,0.293824,-1.449645,3.227016,0.614340,0.106042,-0.078000,32.338890,-23.372047,-23.747002,-103.60802,1.9230016,-1.3310591,-1.9842494,0.47974765,0.06289855,-0.22911602
20231225 09:58:31,0.639128,-2.139922,1.714020,0.818887,0.090062,-0.131268,32.357590,-23.565788,-23.198296,-103.81131,1.3409941,-2.0676146,-2.4099443,0.6062573,-0.0037211478,-0.36747518
20231225 09:58:31,0.792060,-2.318874,1.173366,0.839128,0.067690,-0.145117,32.206608,-24.047264,-23.302330,-103.96076,1.0271375,-2.2442493,-2.4811153,0.5808604,-0.092906035,-0.439511
20231225 09:58:31,1.434667,-2.594162,-0.574107,0.760292,-0.002623,-0.191992,32.551979,-23.743065,-22.916832,-104.091644,0.12606928,-2.9160001,-2.7177238,0.4327346,-0.2187427,-0.48479286
20231225 09:58:31,1.665538,-2.525205,-1.459358,0.584510,-0.042041,-0.223953,32.967262,-23.620674,-22.652763,-103.84931,-0.60868907,-3.1756573,-2.6443133,0.2251136,-0.25271347,-0.42604014
20231225 09:58:31,1.716097,-2.145164,-2.012869,0.337349,-0.103831,-0.235672,32.720890,-23.071548,-22.825020,-101.60341,-1.1310928,-3.040922,-2.392107,-0.0018293858,-0.25555927,-0.3017951
20231225 09:58:31,1.521288,-1.597021,-2.085093,0.056097,-0.208236,-0.227149,32.269745,-23.574013,-23.064659,-96.480255,-1.2432196,-2.3896346,-2.0154698,-0.20609863,-0.2714613,-0.14722955
20231225 09:58:31,1.371057,-1.288281,-2.106532,-0.235808,-0.333947,-0.190927,33.133221,-23.315460,-23.474861,-90.837906,-1.266809,-1.8943213,-1.8310552,-0.35493588,-0.33166862,0.022025665
20231225 09:58:31,0.903114,-0.139507,-1.635017,-0.488296,-0.455396,-0.141921,32.614731,-23.077927,-22.959633,-86.298416,-0.94462204,-0.48953038,-0.90189433,-0.44260085,-0.4233171,0.18416286
20231225 09:58:31,0.673947,0.565913,-1.356381,-0.699235,-0.504402,-0.104634,32.791840,-21.927612,-23.434868,-83.00333,-0.72492254,0.34788907,-0.36747736,-0.5142212,-0.4605047,0.3279496
20231225 09:58:31,0.450056,1.215111,-0.705901,-0.852645,-0.503337,-0.098242,32.631126,-22.120338,-24.093742,-80.571625,-0.25947836,1.1452012,0.22068676,-0.5844315,-0.47115973,0.4294699
20231225 09:58:31,0.139084,1.560653,0.146182,-0.913370,-0.430893,-0.109961,32.285755,-22.424530,-24.479240,-81.89062,0.25214487,1.5606167,0.8404482,-0.65628976,-0.41105133,0.45708293
20231225 09:58:31,-0.047994,1.580352,1.221180,-0.900585,-0.376561,-0.118483,32.567604,-22.401695,-24.611900,-85.43913,0.86906666,1.5863594,1.174117,-0.70187205,-0.37312114,0.39741886
20231225 09:58:31,-0.211182,1.167161,2.484159,-0.671535,-0.187994,-0.144052,32.366821,-21.761246,-24.253792,-90.469734,1.4732385,1.1564729,1.0018079,-0.5993475,-0.1904281,0.3019157
20231225 09:58:31,-0.269027,0.871421,3.016036,-0.368977,-0.099570,-0.150444,32.420227,-20.999237,-24.570946,-92.72277,1.6145641,0.8501635,0.74089277,-0.38378227,-0.10165211,0.15104756
20231225 09:58:31,-0.312806,0.302768,3.556217,-0.019542,-0.042041,-0.145117,32.242348,-21.765778,-24.656639,-95.69587,1.8305964,0.30645743,0.14141825,-0.100907534,-0.042150483,-0.010777478
20231225 09:58:31,-0.092321,-0.513624,3.002616,0.303258,-0.027126,-0.130202,32.675564,-21.453346,-24.404793,-95.72254,1.6958373,-0.4649632,-0.59824216,0.16678804,-0.03552736,-0.19093938
20231225 09:58:31,0.281790,-1.235178,2.045234,0.571726,-0.009016,-0.142986,32.764179,-21.828896,-23.977486,-96.87546,1.4131873,-1.143767,-1.3326467,0.36226505,-0.054173604,-0.3456272
20231225 09:58:31,0.510743,-0.923762,0.826640,0.774142,0.016553,-0.121679,32.385136,-21.763092,-23.985558,-93.6349,0.85735273,-0.8932689,-1.0595344,0.4823222,-0.062196255,-0.5129312
20231225 09:58:31,0.797613,-1.368188,0.089195,0.900918,0.044252,-0.132333,32.806816,-22.103874,-24.361031,-92.906525,0.4500029,-1.4300656,-1.5237746,0.53334755,-0.0758374,-0.6162233
20231225 09:58:31,0.906728,-1.147952,-0.863113,0.917964,0.039991,-0.132333,32.762375,-22.770866,-24.049980,-92.48472,-0.2675924,-1.3856039,-1.4042598,0.48762393,-0.10612319,-0.6816552
20231225 09:58:31,0.971668,-1.101384,-1.097605,0.835932,-0.048433,-0.130202,32.798618,-22.582672,-23.793953,-90.12825,-0.5617641,-1.4213207,-1.4199035,0.35265723,-0.18664931,-0.72012156
20231225 09:58:31,0.978381,-0.646924,-2.145371,0.681457,-0.105962,-0.107830,32.719738,-22.495872,-23.666435,-90.18351,-1.471211,-1.3336277,-1.1665972,0.2170142,-0.23181266,-0.6454917
20231225 09:58:31,1.213871,-0.536401,-2.483038,0.496086,-0.119812,-0.106765,32.579906,-22.132263,-23.423622,-92.522064,-1.6665113,-1.533066,-1.2742541,0.09989509,-0.23199439,-0.49351728
20231225 09:58:31,1.267205,-0.390286,-2.590474,0.294735,-0.104897,-0.122745,32.782494,-21.830742,-23.709236,-91.76422,-1.6699107,-1.4139123,-1.2658521,0.002362594,-0.18730715,-0.30787888
20231225 09:58:31,1.264786,-0.353399,-2.448982,0.203115,-0.096374,-0.135529,32.561211,-21.938522,-23.972343,-91.01918,-1.5194428,-1.2890047,-1.2588847,-0.043853253,-0.16549256,-0.22330983
20231225 09:58:31,1.020164,-0.268116,-1.803978,-0.016346,-0.112354,-0.179208,32.879684,-21.919388,-23.568520,-87.295586,-1.016772,-0.730493,-1.0542241,-0.17906855,-0.14212051,-0.04912786
20231225 09:58:31,0.895652,-0.253063,-1.572633,-0.069614,-0.128334,-0.189862,32.775063,-22.693314,-22.581230,-87.03402,-0.8517394,-0.5466137,-0.933589,-0.2127952,-0.14658925,-0.016420363
20231225 09:58:31,0.586010,-0.129766,-1.130856,-0.198521,-0.177341,-0.186666,32.729088,-22.592751,-23.392082,-84.79422,-0.62503433,-0.29625043,-0.6165603,-0.2834589,-0.18186271,0.05858393
20231225 09:58:31,0.529713,-0.123720,-1.065232,-0.229416,-0.182667,-0.177078,32.905163,-22.768181,-23.378868,-84.706825,-0.59410906,-0.26386768,-0.56312984,-0.29204792,-0.18361315,0.07970817
20231225 09:58:31,0.526400,-0.203297,-0.746129,-0.297598,-0.159230,-0.150444,32.817314,-22.776413,-23.245247,-88.13548,-0.29704118,-0.32570225,-0.5575068,-0.3152342,-0.14978871,0.13944025
20231225 09:58:31,0.631937,-0.191689,-0.512555,-0.307186,-0.156034,-0.146182,32.757786,-21.365730,-23.337914,-87.826965,-0.03156674,-0.3025324,-0.6276937,-0.320741,-0.14389643,0.14241058
20231225 09:58:31,0.704085,-0.087822,-0.052530,-0.256050,-0.154968,-0.179208,32.834862,-22.394485,-23.537941,-88.5191,0.3977993,-0.14431894,-0.6011957,-0.31398952,-0.15112989,0.09699587
20231225 09:58:31,0.578539,-0.245033,-0.107623,-0.213436,-0.116616,-0.202646,32.939484,-21.620544,-24.525215,-86.53513,0.27592456,-0.2879802,-0.60313064,-0.30052227,-0.11758553,0.07892086
20231225 09:58:31,0.476502,-0.353789,0.047992,-0.145254,-0.078263,-0.219691,32.623196,-20.889610,-24.576073,-85.10128,0.3199532,-0.37663916,-0.5888169,-0.26622558,-0.084574856,0.048463874
20231225 09:58:31,0.438826,-0.282023,0.023296,-0.100509,-0.046303,-0.228214,32.764179,-21.828896,-23.977486,-86.42563,0.28280675,-0.30276304,-0.51602566,-0.24160892,-0.05513599,0.037933588
20231225 09:58:31,0.225663,-0.488302,-0.026730,0.008157,0.052775,-0.203711,33.081501,-21.234085,-24.415062,-84.8805,0.109510295,-0.49638522,-0.4916976,-0.14565475,0.04448758,0.016509622
20231225 09:58:31,0.234781,-0.574150,-0.009665,0.034790,0.062363,-0.185600,33.293819,-21.221329,-24.145836,-86.50122,0.11257923,-0.58527315,-0.5542896,-0.11264181,0.049119912,0.0073121865
20231225 09:58:31,0.423847,-0.606899,-0.053885,0.088058,0.065559,-0.157901,32.878532,-21.343719,-24.409935,-86.90312,0.17991553,-0.6386464,-0.7166618,-0.057403125,0.045019537,-0.030565651
20231225 09:58:31,0.617502,-0.613971,-0.275873,0.124280,0.013357,-0.158967,32.975342,-21.240463,-24.549675,-84.436584,0.08868508,-0.6831672,-0.87644,-0.05061426,-0.012038574,-0.1008267
20231225 09:58:31,0.638911,-0.366696,-0.760591,0.115757,0.006965,-0.163228,33.144642,-20.760841,-24.177376,-82.167435,-0.28739655,-0.4717964,-0.7911502,-0.06627512,-0.014771082,-0.10372943
20231225 09:58:31,0.382818,0.141532,-1.068319,0.051836,0.014422,-0.163228,33.356956,-20.748077,-23.908150,-75.22658,-0.71999085,0.10272314,-0.39852506,-0.11360933,0.008614602,-0.05870649
20231225 09:58:31,-0.009787,0.900835,-1.276032,-0.028065,0.010161,-0.140856,33.543800,-19.886528,-23.828575,-70.60728,-1.133378,0.9181059,0.21485962,-0.13695431,0.01187388,0.0065490548
20231225 09:58:31,-0.080619,1.063225,-1.306609,-0.076006,0.016553,-0.127006,33.119549,-20.103935,-24.086540,-69.62394,-1.2051084,1.0883504,0.33149916,-0.14821446,0.018264305,0.05279652
20231225 09:58:31,-0.115508,1.214903,-1.232125,-0.171887,0.041056,-0.086523,33.102005,-20.485855,-23.793846,-74.0094,-1.1035599,1.2012887,0.5230999,-0.161798,0.04123579,0.155686
20231225 09:58:31,0.084870,1.140126,-0.918793,-0.260311,0.073016,-0.049236,33.481049,-20.551666,-23.785774,-76.32749,-0.7017633,1.1121032,0.39981464,-0.17757317,0.07617091,0.25220516
20231225 09:58:31,0.341342,0.994176,-0.430786,-0.312513,0.108173,-0.014079,33.056793,-20.769066,-24.043755,-82.84316,-0.06750083,0.9390903,0.28110158,-0.18928793,0.123876065,0.31394434
20231225 09:58:31,0.613618,0.929672,0.110756,-0.295468,0.149721,0.011489,33.614754,-18.742599,-24.438408,-81.258896,0.52925724,0.89851356,0.07660901,-0.15808675,0.16692738,0.3258932
20231225 09:58:31,0.480563,1.105353,0.532281,-0.270965,0.166767,0.053038,33.260147,-20.851334,-23.768410,-82.594284,0.7645253,1.110806,0.33289003,-0.11641343,0.17841394,0.31968522
20231225 09:58:31,0.435304,1.289416,0.619448,-0.289076,0.136937,0.079671,33.877636,-20.235535,-24.070412,-81.71858,0.81510305,1.300351,0.48808143,-0.10703796,0.15066688,0.31871352
20231225 09:58:31,0.575052,1.601878,0.809701,-0.387088,0.015487,0.137200,33.427258,-21.121780,-23.749092,-86.361115,1.139194,1.6240374,0.5686081,-0.13090575,0.05727968,0.31912282
20231225 09:58:31,1.228083,1.846628,1.034029,-0.523452,-0.137923,0.148919,33.699375,-20.810181,-24.436592,-91.31278,1.8945174,1.800885,0.19328234,-0.24264708,-0.028145893,0.3177214
20231225 09:58:31,1.830580,1.991843,1.142525,-0.644902,-0.213562,0.083933,33.709759,-19.581314,-24.650673,-90.97386,2.4087543,1.8545696,-0.16402881,-0.3885845,-0.08529222,0.36216536
20231225 09:58:31,2.021038,2.206367,1.359696,-0.734391,-0.176275,-0.031125,33.207008,-19.903816,-24.500648,-91.01205,2.7090318,2.081123,-0.123400524,-0.530607,-0.06579453,0.44508687
20231225 09:58:31,1.589963,2.138952,1.845617,-0.772744,-0.076132,-0.161097,33.682095,-19.482590,-25.193260,-85.90918,2.5271704,2.1467295,0.46876878,-0.6622617,-0.04755994,0.48652107
20231225 09:58:31,0.583818,1.867557,2.661715,-0.714149,0.062363,-0.278286,33.296276,-18.761734,-24.842247,-83.74316,2.2479844,1.8589296,1.1549469,-0.7098111,0.060371246,0.5146099
20231225 09:58:31,-0.794721,1.546010,3.439575,-0.531975,0.237080,-0.328357,33.571346,-18.083832,-24.615822,-81.095436,1.3951243,1.1111227,2.0967765,-0.6396911,0.20406109,0.4790887
20231225 09:58:31,-2.201462,0.781748,4.030230,-0.263507,0.417124,-0.275090,33.508591,-18.748970,-24.573036,-84.575806,0.2660463,-0.24780065,2.1959877,-0.42548442,0.38869768,0.470056
20231225 09:58:31,-3.004124,0.065582,4.618975,0.061424,0.494894,-0.139790,33.922726,-18.050911,-25.150368,-85.95789,-0.28838396,-1.2927703,1.8857944,-0.08668989,0.51015055,0.38263732
20231225 09:58:31,-2.994870,-0.532516,4.437161,0.415120,0.481045,0.028535,33.862160,-17.965981,-24.754601,-87.52249,-0.3230102,-1.7527287,1.2326812,0.30857927,0.5527272,0.20319709
20231225 09:58:31,-2.080254,-1.274311,3.086301,0.723005,0.507678,0.146788,34.181404,-18.330612,-23.789818,-88.417366,0.022621274,-1.913019,0.12609917,0.6326801,0.60051787,0.038955577
20231225 09:58:32,-1.119640,-1.865536,1.514156,0.928617,0.616344,0.187272,34.066280,-18.432014,-23.918312,-87.95317,0.086939216,-2.076841,-0.83392245,0.8209347,0.6937847,-0.026458817
20231225 09:58:32,-0.378494,-2.351965,0.462137,1.034087,0.734597,0.177683,34.085747,-19.009529,-22.808647,-90.79414,0.05445206,-2.3819501,-1.6653734,0.9095796,0.77581835,-0.030403104
20231225 09:58:32,0.110323,-2.745631,-0.159750,1.022368,0.776146,0.123351,34.843449,-18.949242,-23.072990,-90.98709,-0.0053166896,-2.7449102,-2.2264915,0.87892824,0.77889526,-0.021607209
20231225 09:58:32,0.365999,-2.807474,-0.547797,0.909441,0.727140,0.056234,34.630863,-20.671524,-22.292824,-89.980705,-0.07372376,-2.7990484,-2.3229513,0.704221,0.7352164,-0.07423711
20231225 09:58:32,0.291461,-2.603979,-0.748451,0.721940,0.624867,0.008293,34.896969,-20.088646,-22.060295,-86.87859,-0.23904535,-2.5730765,-2.1003785,0.50735223,0.6446646,-0.053389397
20231225 09:58:32,0.019031,-2.146754,-0.850912,0.512066,0.498090,-0.004491,35.212494,-20.435806,-22.570366,-80.87422,-0.44859618,-2.0707664,-1.5436852,0.30695474,0.53116816,-0.04297047
20231225 09:58:32,-0.305942,-1.686883,-0.959878,0.295801,0.373444,0.015751,35.196751,-19.875771,-22.205177,-74.17876,-0.6839415,-1.5617917,-0.986189,0.15146679,0.39982235,0.009721715
20231225 09:58:32,-0.709160,-1.259963,-0.987898,0.066751,0.249864,0.055168,35.276012,-20.154442,-22.052223,-69.51376,-0.9498224,-1.1417308,-0.4047141,0.03575361,0.24194992,0.10691338
20231225 09:58:32,-0.956815,-0.872874,-0.914278,-0.158038,0.160375,0.099913,35.505875,-19.759758,-22.075706,-67.14071,-1.0989382,-0.80744743,0.028021738,-0.05703582,0.10651315,0.23980606
20231225 09:58:32,-1.061548,-0.590430,-0.664637,-0.366846,0.108173,0.138266,35.020676,-19.700340,-22.218376,-68.81743,-1.0546246,-0.61420214,0.30877906,-0.15408498,0.015586488,0.37832537
20231225 09:58:32,-1.080365,-0.356221,-0.000796,-0.533040,0.088997,0.162769,35.160507,-20.063965,-22.461189,-75.00772,-0.6804809,-0.5052069,0.5566929,-0.26049054,-0.016193446,0.47756252
20231225 09:58:32,-0.900672,-0.287992,0.848747,-0.610811,0.107107,0.172357,35.426228,-19.289200,-22.509132,-79.81079,-0.03943014,-0.49639377,0.5258056,-0.33706138,0.009150023,0.5202199
20231225 09:58:32,-0.827441,-0.302454,1.759346,-0.583112,0.168898,0.171291,35.523041,-19.185936,-22.648872,-84.50234,0.5196144,-0.5507976,0.432795,-0.35149837,0.08809662,0.51728463
20231225 09:58:32,-0.716561,-0.384725,2.543449,-0.445682,0.242407,0.179814,35.507298,-18.625908,-22.283669,-87.7379,0.9912897,-0.6430435,0.20918345,-0.26409113,0.18326151,0.46864703
20231225 09:58:32,-0.623946,-0.600835,2.962425,-0.243266,0.296739,0.198990,35.067303,-18.283272,-22.176445,-89.532745,1.2601669,-0.82962424,-0.100834124,-0.09885497,0.2627026,0.3843329
20231225 09:58:32,-0.309315,-0.779653,2.794212,-0.018477,0.348941,0.205382,35.365280,-19.012367,-22.393822,-90.91257,1.4371227,-0.91663814,-0.4801391,0.091485366,0.33804008,0.2892637
20231225 09:58:32,-0.122131,-0.964936,2.236806,0.183939,0.352138,0.206448,35.620617,-19.466476,-22.227669,-89.78371,1.3366079,-1.0656059,-0.6719547,0.25702757,0.35234627,0.16138922
20231225 09:58:32,-0.038408,-1.047287,1.169391,0.345872,0.355334,0.201121,35.417648,-19.576103,-22.222542,-85.86882,0.8161085,-1.1006109,-0.67591053,0.37342414,0.36232603,0.033741444
20231225 09:58:32,0.010389,-0.992936,0.115927,0.446015,0.375575,0.177683,35.418415,-19.959885,-21.661598,-81.64056,0.15369251,-0.99610317,-0.65202475,0.40654892,0.3878754,-0.067001306
20231225 09:58:32,-0.045451,-0.879085,-0.871096,0.469452,0.376641,0.147854,35.885303,-20.017456,-21.787163,-74.27459,-0.636102,-0.78780305,-0.6018067,0.35746497,0.39335883,-0.1415189
20231225 09:58:32,-0.228966,-0.645920,-1.632990,0.410858,0.334027,0.126547,35.603840,-20.232178,-21.374031,-66.00746,-1.375184,-0.3741138,-0.4532156,0.26092973,0.3482308,-0.16695398
20231225 09:58:32,-0.375515,-0.436986,-2.375009,0.280886,0.295674,0.128677,35.594875,-20.327194,-21.367912,-60.792118,-2.1205416,0.03979966,-0.387126,0.17856768,0.29114127,-0.098576546
20231225 09:58:32,-0.424541,-0.288889,-2.411458,0.108299,0.227492,0.142527,35.666592,-19.567039,-21.416817,-61.508354,-2.2016613,0.16316283,-0.30301756,0.12724292,0.20431009,0.033882115
20231225 09:58:32,-0.333797,-0.328878,-2.028748,-0.054699,0.109238,0.155311,35.701035,-20.320808,-21.233315,-68.550255,-1.8315814,-0.05970463,-0.26267093,0.08612107,0.08028583,0.12940848
20231225 09:58:32,-0.101172,-0.375922,-1.599805,-0.183606,-0.024996,0.158507,35.614223,-19.003304,-21.588112,-72.25849,-1.349678,-0.23778644,-0.38165045,0.03251724,-0.049677916,0.16669664
20231225 09:58:32,0.168401,-0.398902,-1.303503,-0.269899,-0.100635,0.160638,35.656860,-19.278282,-21.971642,-77.51378,-0.9489407,-0.3554492,-0.5277397,-0.023566365,-0.11129512,0.18245831
20231225 09:58:32,0.412084,-0.533874,-0.806178,-0.328493,-0.129400,0.147854,35.481171,-19.294746,-21.704384,-82.26308,-0.369674,-0.53368825,-0.7207304,-0.09071716,-0.12946697,0.18802643
20231225 09:58:32,0.487467,-0.400161,-0.234784,-0.329559,-0.159230,0.112697,35.490135,-19.199722,-21.710503,-83.7156,0.1409304,-0.3998711,-0.6457054,-0.12993596,-0.15940501,0.15413967
20231225 09:58:32,0.351302,-0.613838,-0.053783,-0.306121,-0.176275,0.053038,35.577980,-19.191490,-21.844139,-83.79923,0.21426164,-0.6044713,-0.67662907,-0.16526224,-0.18420869,0.108974636
20231225 09:58:32,0.130934,-0.712933,0.183430,-0.277357,-0.173079,-0.003426,36.377934,-19.214294,-22.772484,-82.543495,0.25372562,-0.7140987,-0.5689531,-0.18770228,-0.18430424,0.079796165
20231225 09:58:32,-0.122650,-0.517895,0.495029,-0.194260,-0.146445,-0.047105,35.676979,-18.338165,-21.630898,-80.982544,0.30513242,-0.56303674,-0.21705572,-0.15817767,-0.1568621,0.031752348
20231225 09:58:32,-0.526122,-0.572623,0.549861,-0.101574,-0.112354,-0.071608,35.578747,-19.575264,-21.283195,-80.37958,0.08035523,-0.69596267,0.037108928,-0.10793804,-0.114347205,-0.0151205165
20231225 09:58:32,-0.987823,-0.324282,0.522767,-0.023804,-0.104897,-0.059889,35.975338,-19.259148,-21.567818,-75.66913,-0.26129445,-0.5534078,0.5867413,-0.04167034,-0.09621973,-0.06321759
20231225 09:58:32,-1.229465,-0.129153,0.341115,0.033725,-0.098505,-0.023667,35.612419,-19.945274,-21.660622,-72.162674,-0.5481616,-0.4047881,0.90474486,0.024596186,-0.084622115,-0.092441425
20231225 09:58:32,-1.300886,-0.107664,0.037129,0.069947,-0.095309,0.013620,36.141678,-19.145813,-22.109459,-69.87516,-0.80648756,-0.33560959,0.9225933,0.07472649,-0.082597345,-0.10845024
20231225 09:58:32,-1.254964,-0.117091,-0.285141,0.090188,-0.081459,0.042384,35.409065,-19.863007,-21.935951,-69.06498,-0.98952806,-0.2681866,0.83009505,0.105758905,-0.071837306,-0.10830982
20231225 09:58:32,-1.183605,-0.139627,-0.533522,0.096580,-0.060152,0.055168,35.692719,-18.898201,-21.996101,-66.966255,-1.1122054,-0.22036216,0.71340513,0.11434175,-0.05340848,-0.09650768
20231225 09:58:32,-1.138381,-0.121544,-0.728588,0.080600,-0.053760,0.063691,35.910660,-18.964844,-22.927391,-64.788925,-1.2270582,-0.15001571,0.641173,0.10927057,-0.05202796,-0.07684768
20231225 09:58:32,-1.074461,-0.152633,-0.761919,0.067816,-0.054825,0.064757,35.373207,-20.243088,-21.911491,-67.653305,-1.2064035,-0.15951817,0.5923018,0.102074526,-0.055632476,-0.06972748
20231225 09:58:32,-1.096824,0.075232,-0.815016,0.056097,-0.054825,0.059430,36.062412,-18.867134,-22.262398,-63.229286,-1.2954198,0.07565225,0.7094895,0.09156193,-0.05682242,-0.058394518
20231225 09:58:32,-1.295719,0.336751,-0.959825,0.042248,-0.051629,0.065822,35.726776,-19.460091,-22.093071,-59.75014,-1.5746496,0.33447564,0.95416474,0.08896615,-0.058539033,-0.041222803
20231225 09:58:32,-1.513601,0.715873,-0.997865,0.018810,-0.036715,0.088194,35.788109,-19.928810,-21.927879,-57.471684,-1.828148,0.6649221,1.2944934,0.089775965,-0.05649325,-0.006452391
20231225 09:58:32,-1.696221,1.143355,-0.920620,-0.015281,-0.037780,0.122285,35.363476,-19.954338,-22.466331,-56.39635,-1.9930207,1.0083404,1.6565061,0.09776272,-0.0741075,0.032817964
20231225 09:58:32,-1.680491,1.112702,-0.750374,-0.037653,-0.035649,0.160638,35.656860,-19.278282,-21.971642,-58.97169,-1.8425415,0.9364646,1.7044094,0.112907164,-0.08470635,0.060695402
20231225 09:58:32,-1.542734,1.161708,-0.442887,-0.019542,-0.013277,0.193664,35.602688,-19.656509,-22.215446,-63.237812,-1.5101641,0.9625888,1.7421384,0.14274073,-0.06040881,0.05974995
20231225 09:58:32,-1.288903,1.022247,-0.215229,0.030529,0.024010,0.219232,35.605259,-19.098320,-21.581993,-67.959785,-1.1363775,0.8503389,1.5509192,0.18386956,-0.013666909,0.038623195
20231225 09:58:32,-1.027880,0.843940,0.042280,0.094450,0.057036,0.229885,35.814621,-19.451866,-22.226692,-71.13025,-0.73754066,0.6944211,1.3100717,0.22637244,0.031958696,0.00587805
20231225 09:58:32,-0.902619,0.676302,0.261118,0.169024,0.065559,0.233082,35.585911,-20.422218,-21.361809,-75.48845,-0.45656824,0.53708965,1.1546733,0.27636814,0.05207552,-0.054598097
20231225 09:58:32,-0.725105,0.583267,0.231763,0.243598,0.060232,0.227755,35.576176,-20.133453,-21.916634,-74.71599,-0.34044537,0.48047692,0.9556973,0.32057047,0.055414863,-0.117474645
20231225 09:58:32,-0.631199,0.631777,0.081397,0.308585,0.070886,0.213905,35.505875,-19.759758,-22.075706,-73.616394,-0.39279053,0.56014115,0.8836913,0.34758788,0.07275092,-0.16677256
20231225 09:58:32,-0.712686,0.623886,0.010236,0.358656,0.079408,0.192598,35.621002,-19.658356,-21.947197,-72.14536,-0.5076778,0.5403652,0.92866176,0.35754043,0.08909159,-0.20387942
20231225 09:58:32,-0.823142,0.665787,-0.033105,0.400205,0.073016,0.174487,36.070728,-20.289749,-21.499596,-71.09859,-0.6196826,0.561977,1.0299575,0.36347452,0.090631604,-0.2478047
20231225 09:58:32,-1.045129,1.078437,-0.128350,0.423642,0.074082,0.186206,35.742901,-20.212021,-22.177788,-65.620834,-0.9086777,0.9300572,1.3879112,0.3746356,0.09281081,-0.26689774
20231225 09:58:32,-1.220529,1.305229,-0.145824,0.379963,0.047448,0.241604,35.559399,-20.899170,-21.062996,-68.535286,-1.0516354,1.1419481,1.663447,0.4001261,0.049781024,-0.23831084
20231225 09:58:32,-0.929855,1.363361,0.025331,0.265971,-0.046303,0.312983,35.698845,-21.070892,-21.586281,-72.83086,-0.67030555,1.2688369,1.5086659,0.41141427,-0.06142672,-0.19181427
20231225 09:58:32,-0.388290,1.519204,0.275351,0.161567,-0.126204,0.375838,35.646862,-20.699043,-21.477089,-77.953,-0.05653438,1.4949841,1.195869,0.40591568,-0.13691275,-0.1585367
20231225 09:58:32,0.131239,1.549156,0.665301,0.062489,-0.189059,0.413125,35.522388,-20.703575,-21.879951,-83.14866,0.66096187,1.5652609,0.8484655,0.364469,-0.17783435,-0.13213234
20231225 09:58:32,0.616753,1.568896,0.723342,-0.057895,-0.230608,0.430171,35.637127,-20.410286,-22.031929,-87.4438,1.086185,1.5810536,0.4878242,0.28257954,-0.18663171,-0.08304873
20231225 09:58:32,1.275455,1.175267,1.228570,-0.155907,-0.249784,0.398210,35.276398,-20.346336,-21.771751,-93.7889,1.9197235,1.1684526,-0.2379157,0.15377797,-0.16627072,-0.0647165
20231225 09:58:32,1.765752,0.775851,1.637846,-0.183606,-0.221020,0.303394,35.397915,-20.708107,-22.282799,-96.67242,2.4990947,0.740672,-0.85022295,0.047181726,-0.13954906,-0.048080936
20231225 09:58:32,1.674985,0.361495,2.181843,-0.142057,-0.174144,0.173422,35.239769,-20.342636,-22.308235,-96.27312,2.7277298,0.39549708,-1.039032,-0.009655312,-0.13416292,-0.04622993
20231225 09:58:32,1.113839,-0.117451,2.418123,-0.034457,-0.140053,0.056234,35.505108,-19.375977,-22.636635,-93.022064,2.413921,-0.04749556,-0.9160277,0.002240438,-0.13360603,-0.08508678
20231225 09:58:32,0.441099,-0.463732,2.340325,0.106169,-0.080394,-0.031125,35.178051,-19.682030,-22.753883,-90.854774,1.8496324,-0.4476642,-0.66559255,0.05990439,-0.08175515,-0.12969434
20231225 09:58:32,-0.260939,-0.705954,2.104472,0.277690,-0.030322,-0.085458,35.169853,-20.160828,-22.186836,-88.84646,1.207587,-0.7999306,-0.33008337,0.15503451,-0.014206261,-0.20618996
20231225 09:58:32,-0.653526,-0.877002,1.571997,0.453472,0.011226,-0.113157,35.671185,-20.972176,-22.128883,-86.9365,0.6405296,-1.0102108,-0.13468467,0.25462124,0.04726519,-0.30504698
20231225 09:58:32,-0.691417,-1.143564,0.752461,0.569595,0.057036,-0.142986,35.644287,-21.257233,-22.110542,-83.80947,0.13877082,-1.2489913,-0.24659228,0.29329306,0.111829676,-0.37741083
20231225 09:58:32,-0.695626,-1.338631,0.081455,0.611144,0.082604,-0.154705,35.954185,-21.525002,-21.420113,-83.19948,-0.30557176,-1.3868529,-0.37657708,0.2922604,0.13747689,-0.40819412
20231225 09:58:32,-0.428448,-1.531913,-0.342053,0.579183,0.063428,-0.138725,35.858795,-20.494400,-21.488350,-84.03121,-0.48405963,-1.5315782,-0.72095215,0.2808254,0.087496296,-0.39901114
20231225 09:58:32,-0.036208,-1.738298,-0.545774,0.495021,0.004834,-0.109961,35.858795,-20.494400,-21.488350,-86.46353,-0.48034886,-1.7496419,-1.1172912,0.23677921,-0.0077121276,-0.37858
20231225 09:58:32,0.506261,-1.792558,-0.610525,0.368244,-0.068675,-0.053497,36.059574,-21.134842,-21.846458,-93.31893,-0.32077035,-1.894846,-1.5479481,0.1984421,-0.112719715,-0.31788465
20231225 09:58:32,1.239037,-2.003717,-0.630415,0.230814,-0.170948,-0.014079,36.148571,-21.702278,-21.138680,-100.3631,-0.048392564,-2.2963905,-2.165853,0.10805145,-0.21192251,-0.28223386
20231225 09:58:32,1.906457,-1.978844,-0.771444,0.065685,-0.263634,0.001901,35.795654,-20.967651,-21.726021,-103.47839,0.17106098,-2.5545952,-2.5841556,-0.03268087,-0.25871345,-0.22120683
20231225 09:58:32,2.441935,-1.817337,-0.925619,-0.112228,-0.338208,-0.005556,35.795273,-20.775757,-22.006508,-105.75909,0.34726572,-2.6915119,-2.8239315,-0.19802019,-0.26496115,-0.1288941
20231225 09:58:32,2.650344,-1.418544,-1.019591,-0.305056,-0.385083,-0.031125,35.725357,-20.593941,-21.885078,-105.28789,0.47130358,-2.427594,-2.744543,-0.3571209,-0.2570316,0.0043879463
20231225 09:58:32,2.535159,-0.770297,-0.832007,-0.495753,-0.411717,-0.057759,35.495110,-20.796745,-22.142082,-101.725494,0.7151049,-1.6240618,-2.3566728,-0.4820034,-0.26595896,0.14896764
20231225 09:58:32,2.148049,-0.112607,-0.336618,-0.664078,-0.444743,-0.076935,35.336578,-20.239395,-22.447990,-96.428154,1.037496,-0.61486226,-1.7418512,-0.57765645,-0.30997476,0.25858042
20231225 09:58:32,1.720234,0.552981,0.353536,-0.784462,-0.492684,-0.093980,35.671833,-19.454544,-22.897804,-91.44109,1.438382,0.3578737,-1.0082328,-0.64752233,-0.3854213,0.30911782
20231225 09:58:32,1.224917,1.082663,0.936104,-0.838795,-0.526775,-0.120614,35.617661,-19.832764,-23.141579,-88.57945,1.6180317,1.0622427,-0.24387403,-0.6857686,-0.45506728,0.31146607
20231225 09:58:32,0.752938,1.185461,1.462662,-0.806835,-0.502272,-0.154705,35.483841,-19.740433,-23.818810,-86.78387,1.6655838,1.232895,0.28558394,-0.68709487,-0.46246818,0.25935143
20231225 09:58:32,0.370408,1.015020,2.016398,-0.682189,-0.439416,-0.199450,35.863266,-19.998123,-23.530266,-88.22432,1.7261777,1.0764693,0.49810323,-0.63948,-0.4204116,0.16864641
20231225 09:58:32,0.194920,0.709583,2.494196,-0.471250,-0.348862,-0.252717,35.713318,-19.153854,-24.122765,-87.573555,1.8472611,0.7550212,0.4668143,-0.5247012,-0.34352776,0.05524255
20231225 09:58:32,-0.059255,0.424327,2.627258,-0.202782,-0.260438,-0.295331,35.024765,-19.012177,-24.540764,-86.117,1.7088158,0.41427255,0.4871112,-0.34718865,-0.260175,-0.072869495
20231225 09:58:32,-0.388410,0.144312,2.304831,0.064620,-0.185863,-0.307050,35.467331,-18.796616,-24.014549,-84.10315,1.2700129,0.058700465,0.54290354,-0.15449922,-0.1738417,-0.20294715
20231225 09:58:32,-0.571101,-0.213316,1.598660,0.278755,-0.129400,-0.278286,35.722282,-19.058838,-24.128868,-83.26491,0.70079154,-0.28302518,0.37794393,0.012691677,-0.11113294,-0.30929545
20231225 09:58:32,-0.353697,-0.524687,0.858833,0.419381,-0.120877,-0.240998,35.449017,-18.794769,-24.282799,-82.49575,0.38138127,-0.5204749,-0.021927632,0.111370176,-0.12311896,-0.4091523
20231225 09:58:32,0.058685,-0.632818,-0.094034,0.504609,-0.135792,-0.217561,35.618313,-18.315140,-23.910500,-81.51257,-0.06725532,-0.6383972,-0.44476473,0.13830297,-0.16537966,-0.49827898
20231225 09:58:32,0.389284,-0.982985,-1.305294,0.460930,-0.151772,-0.216495,35.687843,-18.305061,-24.312386,-82.02198,-0.9628784,-1.1557999,-0.9719758,0.06484386,-0.21195462,-0.48244768
20231225 09:58:32,0.655700,-0.897438,-1.844602,0.340545,-0.197582,-0.220757,35.422119,-19.079826,-24.264458,-83.78208,-1.373611,-1.275255,-1.1224511,-0.04618077,-0.2686171,-0.40533566
20231225 09:58:32,0.782845,-0.792379,-2.368232,0.200985,-0.206105,-0.220757,35.467331,-18.796616,-24.014549,-84.83476,-1.8154935,-1.3822128,-1.1663486,-0.13725293,-0.27217817,-0.28407365
20231225 09:58:32,0.845631,-0.850750,-2.416337,0.046509,-0.179471,-0.222887,35.616127,-19.065216,-24.263481,-85.723976,-1.7832662,-1.4534447,-1.2476249,-0.20217901,-0.227886,-0.13839035
20231225 09:58:32,0.909693,-0.866354,-1.962105,-0.078137,-0.174144,-0.229280,35.651985,-18.685135,-24.287926,-86.00381,-1.2781751,-1.336683,-1.3072207,-0.26353064,-0.20408002,-0.03726872
20231225 09:58:32,0.881225,-0.772275,-1.481869,-0.156972,-0.164556,-0.232476,35.580917,-17.927666,-25.007927,-84.08331,-0.8051609,-1.0908973,-1.2505072,-0.30295163,-0.18080893,0.020529166
20231225 09:58:32,0.758055,-0.662138,-1.130244,-0.203848,-0.150707,-0.232476,36.041794,-17.713951,-24.213478,-83.54709,-0.53098416,-0.85834825,-1.0757588,-0.324129,-0.15896785,0.060006913
20231225 09:58:32,0.585587,-0.521104,-0.756304,-0.224089,-0.138988,-0.220757,35.997356,-18.380936,-23.902443,-83.033295,-0.2871369,-0.6204862,-0.834933,-0.3222469,-0.14243189,0.07827822
20231225 09:58:32,0.441800,-0.396270,-0.632919,-0.220893,-0.118746,-0.200515,36.059341,-17.332031,-24.506172,-80.97153,-0.26725343,-0.4717855,-0.64839906,-0.30189878,-0.120816454,0.086370535
20231225 09:58:32,0.461010,-0.298330,-0.530852,-0.210240,-0.077198,-0.183470,35.890045,-17.811661,-24.878456,-80.76098,-0.15015793,-0.3551949,-0.5970882,-0.27869254,-0.07810841,0.099934086
20231225 09:58:32,0.349379,-0.141677,-0.189028,-0.184671,-0.083590,-0.162163,35.838058,-17.439804,-24.769279,-79.74096,0.061873436,-0.16471088,-0.38135648,-0.2456977,-0.08421825,0.07580258
20231225 09:58:32,0.266593,-0.073101,-0.257111,-0.161234,-0.093178,-0.133398,35.714355,-17.828110,-24.611198,-79.822784,-0.041026205,-0.09486732,-0.28224275,-0.20863917,-0.09334357,0.055809088
20231225 09:58:32,0.296065,-0.058388,-0.227849,-0.151646,-0.107028,-0.106765,36.058956,-17.140137,-24.786644,-79.83032,6.389022E-4,-0.08486319,-0.29322553,-0.18357596,-0.10602907,0.042623542
20231225 09:58:32,0.432355,0.034666,-0.303250,-0.146319,-0.116616,-0.086523,36.472324,-16.058304,-25.924904,-78.916405,0.027509928,-0.017949015,-0.3574513,-0.16704574,-0.11383358,0.03602215
20231225 09:58:33,0.626592,-0.035519,-0.313349,-0.137796,-0.099570,-0.086523,35.952797,-17.146523,-24.921257,-83.34765,0.14420272,-0.12622634,-0.5345348,-0.1640144,-0.095926486,0.039829373
20231225 09:58:33,0.714107,0.226705,-0.346841,-0.125012,-0.077198,-0.074804,35.625359,-17.260674,-25.318977,-81.83618,0.18251467,0.12475383,-0.46378782,-0.14316152,-0.07420461,0.047175735
20231225 09:58:33,0.874225,0.082709,-0.211284,-0.096248,-0.027126,-0.080131,35.941647,-17.991615,-25.268105,-84.298164,0.3967588,-0.025293374,-0.6413437,-0.1252815,-0.027091527,0.052878756
20231225 09:58:33,0.819597,0.052171,0.021545,-0.065352,-0.015408,-0.093980,36.215950,-16.929939,-25.602638,-82.41529,0.5469919,-0.01105854,-0.5938441,-0.11492778,-0.019015906,0.032390717
20231225 09:58:33,0.678093,0.031570,0.117640,-0.025935,-0.015408,-0.098242,35.970730,-16.956482,-24.933479,-82.39664,0.5286183,-0.0054541808,-0.48871973,-0.09269941,-0.021538334,0.001645294
20231225 09:58:33,0.594421,0.034733,0.142565,0.017745,-0.009016,-0.091850,35.934486,-17.144669,-25.189507,-81.42605,0.49288988,0.010000457,-0.4200404,-0.059364192,-0.016366182,-0.028119579
20231225 09:58:33,0.511139,0.018472,0.120594,0.063555,0.016553,-0.085458,36.340424,-16.925407,-25.199776,-81.01198,0.4208188,-0.0015988993,-0.36883464,-0.02361457,0.0074295076,-0.046893254
20231225 09:58:33,0.467462,0.183576,0.149785,0.104038,0.036794,-0.081196,36.234264,-16.931786,-25.334373,-79.81849,0.42085168,0.16933085,-0.23365404,0.004561685,0.026741603,-0.06722825
20231225 09:58:33,0.441359,0.384079,0.050357,0.134933,0.051709,-0.076935,36.473476,-16.633972,-25.083488,-78.57021,0.32947385,0.3665185,-0.117256016,0.023634702,0.041164596,-0.08592674
20231225 09:58:33,0.404218,0.486963,-0.197545,0.134933,0.070886,-0.081196,36.431606,-16.742767,-24.139015,-78.70828,0.105477676,0.45798296,-0.06940878,0.017705351,0.060572635,-0.07772014
20231225 09:58:33,0.390269,0.640128,-0.316089,0.132802,0.092193,-0.086523,36.455547,-16.824013,-25.071266,-76.545906,-0.0035147965,0.60889465,-0.006969027,0.009627938,0.08288168,-0.06933467
20231225 09:58:33,0.292420,0.735207,-0.429242,0.147717,0.140133,-0.097176,36.571823,-17.298279,-24.101357,-76.87231,-0.16195607,0.71245325,0.10944407,0.008594863,0.13304186,-0.056911256
20231225 09:58:33,0.234804,0.659545,-0.464407,0.154109,0.199793,-0.102503,36.595760,-17.379517,-25.033607,-75.89607,-0.22557,0.6405089,0.11016194,0.010559984,0.19343343,-0.029217107
20231225 09:58:33,0.245952,0.600506,-0.224095,0.166893,0.250929,-0.113157,36.897343,-16.224678,-25.105995,-75.10576,-0.02376774,0.590768,0.106033,0.0117249265,0.24530748,-0.010646928
20231225 09:58:33,0.207685,0.755625,-0.083398,0.196723,0.269040,-0.118483,36.579250,-16.435699,-25.229362,-74.149605,0.062843606,0.7524209,0.23981291,0.021399371,0.2655366,-0.028650876
20231225 09:58:33,0.144684,0.789058,-0.131825,0.221226,0.292478,-0.115287,36.879799,-16.606606,-24.813301,-73.71578,-0.025037222,0.7891722,0.29591057,0.0327508,0.29261076,-0.038140967
20231225 09:58:33,0.099526,0.814267,-0.107000,0.214834,0.296739,-0.109961,36.977375,-16.887131,-24.392113,-75.15826,-0.023777328,0.812945,0.35834742,0.03676319,0.29482284,-0.02557098
20231225 09:58:33,0.204030,0.972119,0.026520,0.166893,0.251995,-0.097176,37.462193,-16.754669,-24.529900,-75.845085,0.15968342,0.9693246,0.37991387,0.02203583,0.24738455,-0.00936603
20231225 09:58:33,0.468930,1.061018,0.095798,0.102973,0.188074,-0.089719,37.216202,-16.397423,-24.421700,-78.12496,0.4130627,1.0436995,0.22604944,-0.0023276806,0.17762403,0.011195224
20231225 09:58:33,0.794203,1.043506,0.112358,0.050771,0.153983,-0.113157,37.604210,-16.368210,-24.419746,-80.1014,0.64322805,0.997626,-0.039739467,-0.04868169,0.13996781,0.035319358
20231225 09:58:33,0.880080,1.172729,0.218021,-0.015281,0.129480,-0.153640,37.225552,-16.494293,-24.147331,-80.135994,0.7852292,1.1328427,-0.020690748,-0.1225165,0.11709773,0.07139117
20231225 09:58:33,0.778054,1.282570,0.451302,-0.120751,0.080474,-0.182404,37.507786,-16.663338,-23.999519,-80.00833,0.90668607,1.2705098,0.17137188,-0.21281257,0.07422057,0.12540652
20231225 09:58:33,0.706220,1.436871,0.780887,-0.208109,0.024010,-0.212234,37.650188,-16.468781,-23.608894,-79.44645,1.1108786,1.4455904,0.3731177,-0.2934515,0.021548238,0.15693647
20231225 09:58:33,0.467194,1.394453,0.821845,-0.233677,0.044252,-0.254848,37.544029,-16.475159,-23.743507,-76.55004,0.9317224,1.3928496,0.57032824,-0.344568,0.044511274,0.17560585
20231225 09:58:33,-0.102390,1.298190,0.833274,-0.214501,0.151852,-0.276155,37.727917,-15.979904,-24.577827,-70.914635,0.48505855,1.2208523,1.0123563,-0.3603723,0.15931979,0.20108521
20231225 09:58:33,-0.794499,1.167277,1.095546,-0.175083,0.251995,-0.244194,37.842655,-15.686607,-24.729820,-66.92891,0.12904489,0.8850969,1.5810272,-0.33282146,0.26109222,0.2215446
20231225 09:58:33,-1.399436,0.955230,1.312866,-0.134600,0.298870,-0.149378,37.853806,-14.841515,-24.382957,-65.44394,-0.17247039,0.47005755,1.9872699,-0.25059986,0.2948329,0.24089418
20231225 09:58:33,-1.461499,0.595099,1.425346,-0.090921,0.306328,-0.013014,37.984291,-15.108261,-24.900124,-68.36841,-0.099146724,0.16069841,1.8007553,-0.117833875,0.28861523,0.25978082
20231225 09:58:33,-0.926258,0.031758,1.247192,-0.040849,0.310589,0.094586,38.248978,-15.659241,-24.459602,-74.043236,0.23052466,-0.17076685,0.92259645,0.009170912,0.29526284,0.25655112
20231225 09:58:33,-0.255548,-0.495105,0.893852,-0.015281,0.331896,0.144658,38.390995,-15.272781,-24.349449,-77.93541,0.4702795,-0.5390478,-0.029250145,0.07850642,0.32517415,0.26150146
20231225 09:58:33,0.292381,-0.928564,0.724502,-0.019542,0.348941,0.155311,38.179443,-15.669312,-24.057732,-83.204834,0.697842,-0.92327315,-0.8094024,0.09652594,0.3510703,0.27909514
20231225 09:58:33,0.715417,-1.379902,0.806377,-0.008889,0.359595,0.122285,38.612278,-15.165001,-24.086342,-85.91408,1.018486,-1.3786745,-1.4660388,0.08581804,0.36378166,0.2840262
20231225 09:58:33,0.823440,-1.749956,0.982947,0.043313,0.376641,0.059430,38.703728,-13.272839,-24.074974,-84.758575,1.2083249,-1.7493863,-1.8041649,0.08143161,0.37642312,0.2694423
20231225 09:58:33,0.631430,-2.007670,1.017878,0.111495,0.401143,-0.002360,39.018600,-15.137634,-23.816139,-86.008,1.1250689,-2.0078158,-1.9121366,0.086223096,0.40124676,0.24705034
20231225 09:58:33,0.299689,-2.051134,1.072437,0.173286,0.409666,-0.035386,38.770805,-15.722366,-23.780434,-84.97788,0.9546685,-2.0691433,-1.7235491,0.10300784,0.41687766,0.21362354
20231225 09:58:33,-0.014936,-1.985265,1.044953,0.197789,0.372379,-0.050301,39.334503,-15.676682,-24.045753,-82.02211,0.758328,-2.0380492,-1.4042227,0.10059148,0.38769907,0.156175
20231225 09:58:33,-0.280592,-1.786716,0.906472,0.191396,0.314850,-0.049236,39.133724,-15.036232,-23.687645,-78.3771,0.5286797,-1.8766415,-1.0016851,0.08586556,0.33527553,0.100462705
20231225 09:58:33,-0.441925,-1.539918,0.661844,0.157305,0.253060,-0.048170,38.894127,-15.142159,-24.219002,-74.85754,0.28636807,-1.6424142,-0.6607205,0.05570059,0.27315867,0.06248676
20231225 09:58:33,-0.618234,-1.231460,0.502953,0.100842,0.201923,-0.062020,39.494835,-15.292076,-23.667351,-72.33466,0.07626727,-1.362319,-0.29061162,0.0012274496,0.22050656,0.05243547
20231225 09:58:33,-0.850905,-0.848228,0.494954,0.028398,0.160375,-0.073739,39.634933,-13.946175,-24.959557,-66.07795,-0.101322055,-1.0475065,0.21288258,-0.059003115,0.17300542,0.060638476
20231225 09:58:33,-1.128112,-0.501945,0.447394,-0.055764,0.126284,-0.063085,39.494450,-15.100189,-23.947838,-65.06541,-0.350449,-0.7841384,0.6458655,-0.10788475,0.12369525,0.10067148
20231225 09:58:33,-1.301800,-0.160922,0.496166,-0.144188,0.142264,-0.032190,39.920506,-13.940811,-23.617363,-63.46031,-0.498152,-0.51442504,1.0103182,-0.15058742,0.11480662,0.18253922
20231225 09:58:33,-1.404680,-0.147797,0.717446,-0.227285,0.181682,0.015751,40.348194,-14.552872,-24.912849,-65.3771,-0.45782572,-0.54286206,1.1203583,-0.1827059,0.129484,0.28260538
20231225 09:58:33,-1.171725,0.015589,1.238513,-0.274161,0.205119,0.057299,39.769524,-14.422295,-23.721397,-69.95391,0.011298656,-0.36540952,1.1355574,-0.18811768,0.14735465,0.34370038
20231225 09:58:33,-1.108100,0.003126,1.574459,-0.256050,0.211512,0.059430,39.900772,-15.072815,-23.677620,-72.14181,0.23465258,-0.42030948,1.1108181,-0.18025765,0.1549033,0.33517542
20231225 09:58:33,-1.139493,-0.338102,1.595948,-0.211305,0.228557,0.056234,40.042789,-14.686356,-23.567467,-73.254814,0.24157,-0.7443608,0.8623615,-0.15362924,0.18097274,0.31607965
20231225 09:58:33,-0.889399,-0.433428,1.622173,-0.103705,0.278628,0.049842,40.158684,-14.968735,-22.878029,-75.10881,0.47966808,-0.75686306,0.6007863,-0.078821585,0.2528106,0.27779043
20231225 09:58:33,-0.735830,-0.476249,1.182270,0.039052,0.363856,0.034927,40.061104,-14.688210,-23.299217,-72.18384,0.34539163,-0.7437839,0.4464491,-2.2569485E-4,0.3568544,0.22916277
20231225 09:58:33,-0.798846,-0.584838,0.611235,0.147717,0.441627,0.046646,40.379196,-14.477180,-23.175865,-69.24867,-0.023826957,-0.7923842,0.35132635,0.06308216,0.44563645,0.18889447
20231225 09:58:33,-0.700938,-0.613099,-0.048523,0.204181,0.475718,0.065822,40.440533,-14.945900,-23.010674,-66.274124,-0.37612408,-0.6950098,0.16010213,0.09335231,0.4813868,0.14245528
20231225 09:58:33,-0.679941,-0.603395,-0.762940,0.196723,0.453346,0.081802,40.371384,-15.147865,-22.328346,-62.49315,-0.86155933,-0.5240692,0.012349248,0.08088383,0.45024595,0.10615834
20231225 09:58:33,-0.624110,-0.599658,-1.364924,0.142390,0.400078,0.095652,40.432335,-15.424698,-22.443626,-59.22612,-1.282108,-0.3412782,-0.16340744,0.057230845,0.38226694,0.102194004
20231225 09:58:33,-0.515486,-0.563426,-1.827177,0.051836,0.339353,0.110566,40.846855,-14.918533,-22.740486,-57.5324,-1.6183839,-0.16788337,-0.3308806,0.033606134,0.30544895,0.13844001
20231225 09:58:33,-0.397954,-0.640893,-2.028441,-0.064287,0.266910,0.121220,40.867237,-12.268894,-23.449120,-55.176876,-1.7226182,-0.1882827,-0.524822,0.0030844733,0.21822296,0.20339677
20231225 09:58:33,-0.233572,-0.562659,-2.055025,-0.195325,0.179551,0.128677,41.182491,-14.325577,-22.909828,-60.27528,-1.723727,-0.16956449,-0.5757017,-0.028618477,0.12617972,0.28056052
20231225 09:58:33,-0.027744,-0.543734,-1.817214,-0.314644,0.097519,0.139331,41.016533,-14.630791,-22.087730,-65.86003,-1.4458117,-0.27548268,-0.64295596,-0.0675312,0.04691815,0.34377983
20231225 09:58:33,0.210567,-0.570380,-1.560657,-0.411591,0.044252,0.140396,41.103611,-14.238785,-22.782310,-69.7946,-1.0987107,-0.41241854,-0.78834796,-0.12559283,0.0052419053,0.38886037
20231225 09:58:33,0.304491,-0.550792,-1.041552,-0.458466,0.024010,0.125481,41.173527,-14.420593,-22.903709,-72.9447,-0.5881322,-0.45752543,-0.75361884,-0.18681653,-0.010612953,0.39735207
20231225 09:58:33,0.324669,-0.572095,-0.420936,-0.445682,0.028272,0.108436,40.979523,-14.435196,-22.904686,-75.62749,-0.06716615,-0.5289841,-0.67881477,-0.21484348,-0.0011183945,0.37050697
20231225 09:58:33,0.341899,-0.673541,0.109385,-0.388153,0.027206,0.078606,41.482655,-14.304588,-22.774239,-77.15969,0.35890096,-0.6568366,-0.68565744,-0.21568292,-0.0017319475,0.30931175
20231225 09:58:33,0.165085,-0.639841,0.619515,-0.298664,0.002703,0.054103,41.145866,-14.321877,-23.446312,-76.95271,0.5935843,-0.66913486,-0.462448,-0.17765999,-0.023931202,0.21815394
20231225 09:58:33,-0.054834,-0.521034,0.936771,-0.189998,-0.053760,0.039188,41.218735,-14.137390,-22.653801,-77.26631,0.6445425,-0.59840024,-0.180588,-0.10630711,-0.07281882,0.09937959
20231225 09:58:33,-0.214539,-0.426134,0.931569,-0.065352,-0.100635,0.024273,41.137283,-14.608788,-23.159737,-75.02932,0.5371907,-0.5421309,0.028348207,-0.019228647,-0.10903722,-0.019080581
20231225 09:58:33,-0.320673,-0.301215,0.691548,0.057163,-0.135792,0.014685,41.024345,-13.960098,-22.935249,-72.060036,0.3120802,-0.41815418,0.18258843,0.06632825,-0.12907813,-0.12716389
20231225 09:58:33,-0.422815,-0.147902,0.113890,0.141325,-0.137923,0.004032,41.403774,-14.217796,-22.646706,-68.690895,-0.16448349,-0.2159709,0.26142207,0.114866056,-0.11784192,-0.18992274
20231225 09:58:33,-0.533337,0.105817,-0.397222,0.169024,-0.124073,0.001901,41.509548,-14.019524,-22.792580,-64.43265,-0.64973235,0.10160053,0.3789479,0.12641412,-0.097546674,-0.20180798
20231225 09:58:33,-0.702151,0.223915,-0.778775,0.162632,-0.096374,0.004032,41.270721,-14.509232,-22.762993,-60.99999,-1.0681556,0.27583253,0.46200326,0.12021558,-0.06700566,-0.1800073
20231225 09:58:33,-0.928785,0.316344,-0.930820,0.125345,-0.067610,0.015751,41.128319,-14.703804,-23.153618,-58.097786,-1.3394862,0.36904877,0.6271289,0.1020454,-0.04559218,-0.1305738
20231225 09:58:33,-1.103981,0.289016,-0.939350,0.082731,-0.053760,0.031731,41.367146,-14.214096,-23.183205,-56.56838,-1.4447489,0.30693787,0.7260622,0.08775514,-0.042605054,-0.08288419
20231225 09:58:33,-1.277181,0.276268,-0.879338,0.055032,-0.050564,0.057299,41.349216,-14.404137,-23.170982,-55.04077,-1.495942,0.24176416,0.8677549,0.09039396,-0.05213005,-0.049518164
20231225 09:58:33,-1.408244,0.264550,-0.926038,0.051836,-0.017538,0.081802,41.233326,-14.121758,-23.860420,-53.17986,-1.609992,0.20582348,0.92193013,0.09697252,-0.029315019,-0.020544164
20231225 09:58:33,-1.507642,0.066374,-0.946178,0.052901,0.003769,0.107370,41.621334,-14.092537,-23.858467,-53.03137,-1.6271012,-0.0013347566,0.88710964,0.10955402,-0.017335957,-0.0011603571
20231225 09:58:33,-1.461909,-0.045374,-0.978175,0.041182,0.008030,0.131873,41.200035,-13.943649,-23.202522,-54.758118,-1.5924811,-0.07892373,0.8049196,0.12024294,-0.022309875,0.01689393
20231225 09:58:33,-1.267385,-0.017538,-0.991939,0.029464,-0.005819,0.145723,41.684856,-13.811180,-23.340324,-55.97916,-1.497474,-0.0017436147,0.6793133,0.1290242,-0.039879344,0.021990087
20231225 09:58:33,-1.137244,0.022802,-1.044895,0.017745,-0.017538,0.154246,41.270336,-14.317345,-23.043449,-57.161716,-1.4709799,0.08319147,0.6072428,0.13363877,-0.05409064,0.025610045
20231225 09:58:33,-0.963359,0.130792,-1.180120,-0.009954,-0.026061,0.162769,41.974251,-14.827179,-23.271126,-58.172543,-1.5047116,0.2559492,0.5104612,0.12938252,-0.06706673,0.04398459
20231225 09:58:33,-0.810175,0.355428,-1.167109,-0.061091,-0.036715,0.167030,41.498398,-14.864624,-23.139442,-59.40698,-1.4643812,0.48600397,0.51608,0.10850308,-0.08282538,0.08042684
20231225 09:58:33,-0.758946,0.553934,-1.110230,-0.109032,-0.056956,0.170226,41.949543,-14.362152,-22.899803,-59.902916,-1.433494,0.6710646,0.59617484,0.09163963,-0.107704,0.11120881
20231225 09:58:33,-0.701765,0.853029,-1.088286,-0.161234,-0.053760,0.168095,41.886406,-14.835403,-23.137489,-60.04726,-1.448297,0.9629635,0.6970735,0.062067553,-0.11033739,0.15606177
20231225 09:58:33,-0.804352,1.066166,-0.864626,-0.203848,-0.039911,0.172357,42.090141,-15.109550,-22.581673,-62.87465,-1.3597906,1.0984516,0.9770334,0.032040447,-0.10109815,0.19289705
20231225 09:58:33,-0.825301,1.063612,-0.386054,-0.218763,-0.047368,0.181945,41.471886,-15.341568,-22.840630,-65.06942,-0.98874325,0.99398005,1.1404815,0.02069319,-0.1093066,0.19582544
20231225 09:58:33,-0.719132,0.814264,0.296254,-0.155907,-0.061218,0.192598,42.035583,-15.295891,-23.105949,-70.07262,-0.35659575,0.6724662,1.108458,0.052699372,-0.10600392,0.12434644
20231225 09:58:33,-0.674779,0.721887,0.524258,-0.118620,-0.074002,0.192598,42.035583,-15.295891,-23.105949,-70.99549,-0.15164033,0.55943614,1.0691144,0.075135395,-0.11290813,0.08474099
20231225 09:58:33,-0.623057,0.485984,0.608416,-0.023804,-0.091047,0.179814,42.043781,-14.817093,-23.672997,-70.58197,-0.02648896,0.32771873,0.90429145,0.12885125,-0.1158178,5.788207E-4
20231225 09:58:33,-0.661880,0.378428,0.467825,0.083796,-0.084655,0.155311,41.877056,-14.738533,-23.411842,-69.43973,-0.13804564,0.22349414,0.83994883,0.18232861,-0.09499787,-0.07961408
20231225 09:58:33,-0.805550,0.477316,0.175643,0.186070,-0.054825,0.132939,41.744389,-15.221863,-23.247643,-65.89492,-0.45506135,0.31611282,0.9461952,0.22704466,-0.05054132,-0.14284249
20231225 09:58:33,-1.105517,0.727776,-0.184820,0.253187,-0.021800,0.130808,41.743233,-14.646187,-24.089058,-59.455498,-0.96701545,0.5513565,1.2059314,0.256193,-0.007937215,-0.1753966
20231225 09:58:33,-1.384493,1.165616,-0.425574,0.249991,-0.022865,0.174487,41.850163,-15.023590,-23.393501,-56.986923,-1.4166796,0.9708237,1.5644708,0.2831485,-0.023080349,-0.16450763
20231225 09:58:33,-1.287585,1.469857,-0.512274,0.155175,-0.077198,0.254388,42.062096,-14.818939,-23.404747,-59.700504,-1.4527745,1.338815,1.631734,0.307243,-0.10823766,-0.09510067
20231225 09:58:33,-0.828887,1.459700,-0.414127,0.007091,-0.184798,0.334290,41.964901,-14.730309,-23.545479,-64.77861,-1.0188187,1.4146352,1.3242574,0.30536145,-0.23145242,-0.019619115
20231225 09:58:33,-0.347708,1.539763,-0.179597,-0.129273,-0.284941,0.388622,41.990376,-15.579094,-23.355843,-71.6713,-0.44125938,1.5316726,1.0741334,0.2671,-0.31448773,0.024235636
20231225 09:58:33,0.210993,1.534765,-0.018336,-0.272030,-0.375495,0.417387,42.096535,-15.572723,-23.221230,-77.12087,0.12006297,1.5331655,0.68421257,0.18202867,-0.36996612,0.06589021
20231225 09:58:33,0.741575,1.472461,0.269569,-0.437159,-0.482030,0.415256,41.600563,-16.550278,-23.430305,-82.942795,0.77685905,1.4422805,0.30250016,0.030089825,-0.42031908,0.09364091
20231225 09:58:33,1.231482,1.444987,0.527557,-0.590569,-0.556605,0.383296,41.653587,-15.596382,-24.027931,-86.05452,1.3695674,1.3619407,-0.03260473,-0.15027013,-0.43403703,0.12838662
20231225 09:58:33,1.691071,1.319191,1.081039,-0.653425,-0.547016,0.300198,41.379547,-14.948540,-24.742805,-87.953354,2.1186326,1.2225895,-0.32480314,-0.30665445,-0.4034068,0.11762996
20231225 09:58:33,1.754614,0.957623,1.645535,-0.607615,-0.464984,0.170226,41.492485,-15.597221,-24.967262,-88.930046,2.5037827,0.9224125,-0.5090983,-0.37670842,-0.36103743,0.09036785
20231225 09:58:33,1.276982,0.624710,2.197358,-0.502145,-0.358450,0.028535,41.370968,-15.235458,-24.456215,-86.74946,2.4493132,0.6683311,-0.2958674,-0.37611482,-0.32199064,0.07019491
20231225 09:58:33,0.536976,0.397513,2.702071,-0.341278,-0.283875,-0.070543,41.413872,-13.800919,-25.889137,-82.45302,2.1125898,0.39735126,0.24671367,-0.31005985,-0.2839034,-0.0124378465
20231225 09:58:33,-0.314530,0.090350,2.977263,-0.112228,-0.228477,-0.129137,41.892029,-14.914795,-24.337990,-83.38558,1.5351678,-0.063526794,0.5348371,-0.15683441,-0.22870798,-0.12525018
20231225 09:58:33,-0.922573,-0.262918,3.076228,0.162632,-0.181602,-0.146182,41.422188,-15.223526,-25.126320,-82.000656,1.0590196,-0.58323026,0.6763116,0.060335048,-0.15264608,-0.25750348
20231225 09:58:34,-1.193539,-0.569190,2.748576,0.439623,-0.159230,-0.132333,42.040825,-15.183403,-24.586906,-81.15558,0.7247795,-0.9245229,0.60393083,0.28641823,-0.097938925,-0.40584087
20231225 09:58:34,-0.954092,-1.025588,1.800551,0.634581,-0.094243,-0.101438,41.730930,-14.915619,-25.277336,-81.42292,0.39934832,-1.1899602,-0.006034851,0.44538912,-0.042622562,-0.4739239
20231225 09:58:34,-0.289654,-1.424819,1.224197,0.756031,-0.023930,-0.081196,41.855789,-15.102989,-24.594002,-84.817924,0.5449769,-1.4353454,-0.8435706,0.5412419,-0.017039644,-0.4950861
20231225 09:58:34,0.277758,-1.700914,0.839643,0.838063,-0.004754,-0.075869,41.607609,-15.495819,-24.838768,-87.53702,0.6789267,-1.6806259,-1.4739954,0.60813123,-0.04495266,-0.5284471
20231225 09:58:34,0.776993,-2.235820,0.253395,0.842324,-0.044172,-0.073739,42.060173,-13.859497,-24.807121,-89.172714,0.54780895,-2.2773104,-2.223183,0.604281,-0.14996119,-0.5655006
20231225 09:58:34,1.431159,-2.464244,-0.184014,0.774142,-0.154968,-0.067347,41.537312,-15.122124,-24.997826,-94.588295,0.51936793,-2.7082005,-2.7878096,0.5198815,-0.33065668,-0.6144092
20231225 09:58:34,2.238667,-2.509493,-0.738838,0.645235,-0.277483,-0.076935,41.422188,-15.223526,-25.126320,-99.48951,0.51280797,-3.1938238,-3.2463217,0.3565097,-0.47889873,-0.62409425
20231225 09:58:34,2.846981,-2.351566,-1.260104,0.456668,-0.373365,-0.111026,41.741047,-15.396271,-24.442024,-104.79746,0.37551594,-3.5655167,-3.3894198,0.11517938,-0.5334689,-0.5575882
20231225 09:58:34,3.329930,-1.968617,-1.611297,0.214834,-0.425567,-0.173881,41.722351,-15.202538,-24.990746,-105.89192,0.45857108,-3.631312,-3.4283938,-0.1416473,-0.50486296,-0.40352905
20231225 09:58:34,3.257035,-1.341725,-1.557550,-0.044045,-0.476703,-0.258044,41.563053,-14.261406,-25.857582,-101.09347,0.48816073,-2.8961563,-3.1643667,-0.3953188,-0.4938678,-0.23081224
20231225 09:58:34,2.683100,-0.447283,-1.291755,-0.286945,-0.518252,-0.323030,41.614002,-15.958992,-25.478325,-94.7954,0.46468252,-1.4658577,-2.3736527,-0.5772427,-0.51213956,-0.053597637
20231225 09:58:34,1.732611,0.437846,-0.796031,-0.489361,-0.537428,-0.354991,41.492104,-15.405327,-25.247749,-84.433846,0.422821,0.08925189,-1.2185812,-0.6555923,-0.52841145,0.07720135
20231225 09:58:34,0.727832,1.057358,-0.100493,-0.616137,-0.545951,-0.358187,41.182976,-15.521339,-25.377220,-76.583786,0.38066295,1.0352323,-0.0012640273,-0.66940224,-0.5425301,0.13973409
20231225 09:58:34,-0.169867,1.471871,0.530343,-0.665143,-0.524644,-0.343272,41.271587,-15.896889,-24.949898,-72.238106,0.2198761,1.4249382,1.0925169,-0.6446346,-0.53393114,0.15513986
20231225 09:58:34,-0.929283,1.593041,1.146087,-0.612941,-0.467115,-0.307050,41.790344,-14.424896,-26.514519,-68.314896,0.07374287,1.363364,1.9495986,-0.58024216,-0.48674133,0.10411571
20231225 09:58:34,-1.272045,1.236135,1.639582,-0.469119,-0.366972,-0.261240,41.472904,-13.118294,-27.406792,-68.32402,0.12415588,0.9039746,2.1376364,-0.47299165,-0.38470384,0.02662798
20231225 09:58:34,-1.267015,0.719433,2.127512,-0.253919,-0.279614,-0.221822,41.668060,-13.679348,-26.564400,-73.12108,0.41858757,0.3916292,1.8188615,-0.31017244,-0.2822019,-0.074173465
20231225 09:58:34,-1.094766,0.148988,2.174673,-0.006758,-0.212497,-0.195188,41.431034,-13.227093,-26.462303,-75.100586,0.57526076,-0.09941441,1.247983,-0.11673835,-0.19772872,-0.18885416
20231225 09:58:34,-0.782466,-0.397332,1.749901,0.218030,-0.179471,-0.173881,41.403755,-13.320271,-26.724434,-76.1872,0.5895285,-0.52295285,0.5424031,0.05701199,-0.1587874,-0.3060922
20231225 09:58:34,-0.398852,-0.853241,0.971811,0.389551,-0.161360,-0.162163,41.650131,-13.869385,-26.552177,-77.443184,0.3977773,-0.8817277,-0.17576331,0.17405143,-0.14941712,-0.4080832
20231225 09:58:34,0.017680,-1.150305,0.011187,0.482237,-0.147511,-0.151509,41.235611,-14.375557,-26.255302,-79.304306,-0.017229863,-1.1493347,-0.78336066,0.21392731,-0.16698131,-0.47047502
20231225 09:58:34,0.517225,-1.338682,-0.927095,0.493955,-0.133661,-0.154705,41.686375,-13.681198,-26.296150,-81.57758,-0.5379642,-1.4795465,-1.3237493,0.17829311,-0.19658427,-0.48064205
20231225 09:58:34,0.902204,-1.377640,-1.569522,0.427904,-0.134727,-0.180274,41.710697,-13.954330,-26.947945,-83.094246,-0.9593117,-1.7418692,-1.6427929,0.08394943,-0.21916302,-0.43786496
20231225 09:58:34,1.087465,-1.272634,-2.065773,0.313911,-0.123008,-0.202646,41.623234,-14.154442,-26.533836,-85.005745,-1.3678476,-1.8612593,-1.7000699,-0.021002203,-0.21173325,-0.33965093
20231225 09:58:34,1.210602,-1.129239,-2.297268,0.179678,-0.092113,-0.226084,41.720428,-14.243095,-26.393105,-84.844215,-1.5213455,-1.8074212,-1.7267901,-0.11365603,-0.16840881,-0.21174647
20231225 09:58:34,1.021476,-0.939360,-2.251721,0.039052,-0.064414,-0.235672,41.544353,-14.067665,-26.406303,-81.07704,-1.507591,-1.4305298,-1.5392123,-0.18731375,-0.109149516,-0.08575082
20231225 09:58:34,0.772285,-0.724527,-1.934885,-0.090921,-0.070806,-0.220757,41.869991,-14.895462,-26.081093,-78.96911,-1.2850751,-1.0047837,-1.2327789,-0.24153829,-0.08936931,0.016522812
20231225 09:58:34,0.559372,-0.478556,-1.604613,-0.200652,-0.103831,-0.183470,41.536160,-14.546463,-25.839241,-76.59148,-1.058666,-0.62060463,-0.92887676,-0.27073827,-0.10711858,0.08802296
20231225 09:58:34,0.380100,-0.276867,-1.326107,-0.282683,-0.124073,-0.131268,41.605690,-14.536377,-26.241127,-75.28287,-0.90436804,-0.36454263,-0.6519975,-0.2728909,-0.12057157,0.14983055
20231225 09:58:34,0.399473,-0.018793,-1.118213,-0.325297,-0.124073,-0.084392,41.632198,-14.059425,-26.539940,-75.354385,-0.690323,-0.09948583,-0.49973524,-0.2616679,-0.11560151,0.186831
20231225 09:58:34,0.473159,-0.100641,-1.004565,-0.359389,-0.114485,-0.055628,42.022011,-13.088245,-26.465477,-76.46945,-0.54410255,-0.20008963,-0.57849556,-0.26311144,-0.098967284,0.21942237
20231225 09:58:34,0.619569,0.001574,-0.695093,-0.384957,-0.100635,-0.040713,41.825050,-13.469154,-27.380379,-78.34785,-0.16969058,-0.113037564,-0.57599556,-0.27631974,-0.07492251,0.24032201
20231225 09:58:34,0.810634,0.068859,-0.392631,-0.382826,-0.108093,-0.047105,41.966686,-12.890808,-27.550697,-78.9052,0.20864323,-0.04121962,-0.6386758,-0.28660792,-0.07990655,0.22746547
20231225 09:58:34,0.865489,0.049558,-0.235970,-0.356192,-0.092113,-0.059889,41.755138,-13.287350,-27.258965,-80.28359,0.38296604,-0.052442327,-0.6568872,-0.28424004,-0.06600354,0.20783025
20231225 09:58:34,0.943926,-0.038495,-0.067738,-0.309317,-0.068675,-0.075869,41.619781,-12.427452,-29.058067,-79.138,0.5688348,-0.13824362,-0.7421563,-0.2682879,-0.046025585,0.17826673
20231225 09:58:34,0.976920,-0.098457,0.163744,-0.248592,-0.051629,-0.091850,42.002930,-12.702618,-27.294670,-81.54334,0.76899904,-0.17654681,-0.76956046,-0.24056008,-0.036354348,0.13957459
20231225 09:58:34,1.014385,-0.116858,0.322976,-0.170822,-0.032453,-0.102503,41.648594,-13.101837,-27.674049,-81.42849,0.9120659,-0.18035795,-0.7894463,-0.19395542,-0.026260847,0.093001604
20231225 09:58:34,0.912843,-0.097373,0.344519,-0.084529,0.003769,-0.105699,41.959908,-12.235748,-27.191612,-80.324455,0.8628681,-0.14196458,-0.6949023,-0.13404666,0.0012863223,0.052389026
20231225 09:58:34,0.866380,-0.016377,0.321959,-0.016346,0.013357,-0.102503,42.127018,-12.506195,-27.172295,-79.9064,0.81408465,-0.056630455,-0.6192949,-0.085592434,0.0054081855,0.008983956
20231225 09:58:34,0.783954,0.156149,0.100884,0.019875,0.009095,-0.085458,42.329987,-12.396572,-27.177422,-78.696396,0.593892,0.10639628,-0.4899921,-0.05152535,8.263253E-5,-0.020265548
20231225 09:58:34,0.802490,0.376698,-0.172675,0.016679,-0.015408,-0.066281,42.205513,-12.401104,-27.580284,-77.8066,0.39207086,0.29300284,-0.43370798,-0.043493416,-0.023346208,-0.030940115
20231225 09:58:34,0.818474,0.552081,-0.556429,-0.017412,-0.015408,-0.070543,42.090775,-12.694389,-27.428322,-76.74944,0.07775834,0.43312338,-0.43143824,-0.06875722,-0.02117114,-0.0037869755
20231225 09:58:34,0.647035,0.767722,-0.791373,-0.061091,0.034664,-0.076935,42.825188,-11.035229,-27.529305,-73.54808,-0.23328376,0.6724894,-0.24942106,-0.09508965,0.031848654,0.05703405
20231225 09:58:34,0.499278,1.021364,-0.682192,-0.096248,0.112434,-0.080131,41.942364,-12.617680,-26.898903,-73.270966,-0.22946063,0.9753621,0.037098728,-0.11580369,0.11171077,0.1273361
20231225 09:58:34,0.259120,1.171111,-0.252793,-0.105836,0.176355,-0.087588,42.868595,-11.693985,-27.351891,-71.02813,-0.04267524,1.1685877,0.40109873,-0.13235368,0.17629823,0.16731681
20231225 09:58:34,-0.028736,1.062466,0.070260,-0.085594,0.240276,-0.083327,42.911999,-12.352741,-27.174492,-70.28532,2.502501E-4,1.0582243,0.6628066,-0.12675309,0.24054861,0.19067594
20231225 09:58:34,-0.331224,0.937706,0.564765,-0.009954,0.305262,-0.064151,42.684322,-11.997353,-26.798042,-70.19819,0.15601224,0.88843083,0.9546497,-0.07154282,0.30749774,0.18179354
20231225 09:58:34,-0.465878,0.762172,0.837475,0.104038,0.354268,-0.028994,42.965790,-11.782627,-27.211174,-70.05114,0.25760353,0.68315303,1.0190496,0.02717264,0.36057198,0.14051239
20231225 09:58:34,-0.379930,0.483983,0.805168,0.219095,0.401143,0.011489,43.178871,-12.153645,-26.381004,-72.879974,0.3190508,0.44007736,0.75240064,0.14121917,0.407713,0.099203415
20231225 09:58:34,0.007065,0.282707,0.604764,0.327761,0.446953,0.038123,43.373260,-12.330925,-26.099556,-75.55894,0.45576578,0.28340217,0.27782547,0.24746196,0.44665635,0.050644055
20231225 09:58:34,0.315454,0.233273,0.343347,0.401270,0.470391,0.038123,43.761269,-12.301704,-26.097603,-76.240234,0.47176152,0.23520702,-0.0436317,0.29941007,0.4622694,-0.008038951
20231225 09:58:34,0.592556,0.275957,-0.096943,0.394878,0.449084,0.040254,43.558685,-12.603222,-25.812004,-77.634514,0.30336773,0.24108529,-0.31608573,0.3010463,0.4314698,-0.03825548
20231225 09:58:34,0.890745,0.313561,-0.464214,0.296866,0.391555,0.031731,43.577381,-12.796963,-25.263283,-80.15317,0.18849531,0.19394207,-0.5824783,0.24193054,0.36877406,-0.007994657
20231225 09:58:34,1.168345,0.367482,-0.630689,0.178612,0.325504,-0.000230,43.840534,-12.580379,-25.944664,-80.93134,0.21636683,0.16157041,-0.8026943,0.1476771,0.3034248,0.039367557
20231225 09:58:34,1.169783,0.526753,-0.810329,0.069947,0.314850,-0.056693,44.247623,-12.936790,-25.113518,-78.525406,0.030521572,0.37792426,-0.7739366,0.020901646,0.30348042,0.1074428
20231225 09:58:34,0.601632,0.876936,-0.672743,-0.058960,0.329765,-0.087588,44.071163,-12.569473,-25.407204,-72.5613,-0.21608192,0.8752929,-0.1398439,-0.10508246,0.32969272,0.21104221
20231225 09:58:34,0.139660,1.175239,-0.120377,-0.220893,0.306328,-0.079065,44.186672,-12.659966,-24.998222,-71.70768,-0.058736365,1.1825745,0.5315762,-0.20713061,0.30265352,0.33603176
20231225 09:58:34,0.041442,1.337138,0.702790,-0.361519,0.234949,-0.066281,44.380291,-12.453465,-25.277718,-73.26608,0.51133823,1.3097695,0.9257784,-0.29300085,0.22544762,0.4090166
20231225 09:58:34,-0.001934,1.162114,1.397444,-0.416917,0.185943,-0.071608,44.831821,-12.142891,-24.757607,-75.06822,0.96626663,1.1017042,1.0175098,-0.34551102,0.17223465,0.41412976
20231225 09:58:34,-0.163582,0.827192,1.899130,-0.383892,0.209381,-0.088654,44.574295,-12.438854,-25.276741,-75.92199,1.1375164,0.714002,1.0311838,-0.35088682,0.19178787,0.39562303
20231225 09:58:34,-0.421530,0.401608,2.425175,-0.280553,0.275432,-0.107830,44.698383,-12.242435,-25.154350,-76.152885,1.2047274,0.17631495,1.01283,-0.30423656,0.25651896,0.36571112
20231225 09:58:34,-0.881194,0.089172,2.806210,-0.121816,0.360660,-0.096111,44.786228,-12.234207,-25.287987,-75.96742,0.9927062,-0.29950905,1.1460996,-0.18985197,0.35000247,0.33271825
20231225 09:58:34,-1.161131,-0.395658,2.895546,0.051836,0.444823,-0.040713,45.043373,-11.746349,-25.049339,-76.02924,0.766261,-0.88468003,0.9350203,-0.030357253,0.4492688,0.31172365
20231225 09:58:34,-1.313772,-0.678073,2.919231,0.232945,0.477849,0.048776,45.053104,-12.035107,-24.494514,-76.802505,0.67697215,-1.1974018,0.7704712,0.163732,0.49986568,0.25148585
20231225 09:58:34,-1.179680,-1.091640,2.227613,0.401270,0.491698,0.130808,45.007896,-12.318314,-24.744408,-75.43243,0.49191064,-1.5357429,0.30756295,0.33786526,0.5311864,0.16790627
20231225 09:58:34,-1.000292,-1.573791,1.059358,0.491825,0.540704,0.201121,45.201900,-12.303703,-24.743431,-73.46499,0.09005195,-1.8295101,-0.29271913,0.4362128,0.5797305,0.13006875
20231225 09:58:34,-0.631931,-1.684407,0.251530,0.525916,0.589710,0.241604,45.572746,-12.848309,-24.168312,-73.78855,-0.104577824,-1.7683152,-0.7148316,0.48066336,0.61946577,0.11247872
20231225 09:58:34,-0.407731,-1.882399,-0.494579,0.508870,0.623801,0.253323,45.670708,-13.320721,-23.466637,-72.82792,-0.39882416,-1.8422807,-1.0846447,0.45845604,0.6457154,0.1134788
20231225 09:58:34,-0.274440,-1.981686,-1.030876,0.408727,0.612082,0.262911,45.899921,-14.443672,-22.721214,-73.82781,-0.7147676,-1.8697473,-1.2670276,0.39760077,0.61704427,0.14085798
20231225 09:58:34,-0.034395,-1.834319,-1.330883,0.243598,0.527920,0.263977,45.978802,-14.530457,-22.848732,-73.298965,-0.8624252,-1.6917112,-1.3304989,0.3051577,0.5173656,0.18055266
20231225 09:58:34,0.093986,-1.688121,-1.515032,0.037986,0.413928,0.251192,46.023624,-14.055359,-22.879295,-73.20135,-0.9877904,-1.5463303,-1.3399947,0.18562964,0.39315936,0.2590784
20231225 09:58:34,0.189667,-1.388137,-1.442871,-0.175083,0.297805,0.232016,46.104691,-13.392075,-22.653847,-72.461876,-0.9058533,-1.2440921,-1.2182419,0.051498458,0.26474863,0.3539646
20231225 09:58:34,0.059748,-0.961028,-1.076771,-0.365781,0.210446,0.217101,46.086761,-13.582115,-22.641609,-72.61971,-0.7017805,-0.84485775,-0.8235245,-0.0819848,0.15935749,0.45153084
20231225 09:58:34,-0.080945,-0.612119,-0.441273,-0.511733,0.147591,0.210709,46.271801,-13.662521,-22.634529,-73.63564,-0.32221842,-0.56975627,-0.40565968,-0.19269866,0.08093453,0.5181051
20231225 09:58:34,-0.181284,-0.312893,0.258696,-0.608680,0.099650,0.203252,46.253872,-13.852562,-22.622292,-75.98748,0.08749125,-0.34954992,-0.03644777,-0.28576556,0.027596446,0.53975004
20231225 09:58:34,-0.276306,-0.135424,1.065189,-0.649163,0.057036,0.188337,46.465420,-13.456028,-22.914024,-77.15227,0.53930306,-0.2500044,0.2663122,-0.34674317,-0.017718745,0.51781917
20231225 09:58:34,-0.374977,-0.004431,1.729274,-0.621464,0.033598,0.181945,46.023624,-14.055359,-22.879295,-79.17832,0.8587867,-0.17542484,0.48845047,-0.34782964,-0.03679944,0.46255475
20231225 09:58:34,-0.299237,0.109668,2.184485,-0.535171,0.044252,0.175553,46.272186,-13.854408,-22.354057,-80.841446,1.1691275,-0.06739813,0.5412868,-0.2982809,-0.012080844,0.40082312
20231225 09:58:34,-0.379056,0.007016,2.555794,-0.393480,0.090062,0.149984,46.272186,-13.854408,-22.354057,-81.73445,1.2840499,-0.21020529,0.5289724,-0.22152236,0.04331346,0.33165237
20231225 09:58:34,-0.482496,-0.043058,2.679743,-0.195325,0.162506,0.137200,46.614986,-14.108398,-22.601997,-81.74886,1.2735982,-0.28830403,0.56742454,-0.0809725,0.13263252,0.2627255
20231225 09:58:34,-0.502975,-0.132738,2.606518,0.028398,0.246668,0.122285,46.759190,-12.971867,-22.138878,-80.65663,1.2214428,-0.3882012,0.54134715,0.07804735,0.23781534,0.18872324
20231225 09:58:34,-0.467767,-0.438221,1.816148,0.240402,0.305262,0.113763,46.467995,-12.897831,-22.280571,-78.80211,0.8516001,-0.6374184,0.24522084,0.22979136,0.31697467,0.08825516
20231225 09:58:34,-0.408060,-0.563663,1.413360,0.408727,0.330831,0.099913,46.713982,-13.255074,-22.388786,-78.28925,0.68268394,-0.719163,0.07594368,0.34171557,0.3584909,-0.017546449
20231225 09:58:34,-0.189245,-0.658272,0.505032,0.511001,0.319112,0.076475,46.961124,-14.187981,-21.655571,-77.227585,0.2895342,-0.7163795,-0.23238704,0.3801115,0.35502106,-0.13951269
20231225 09:58:34,-0.116640,-0.750647,-0.526242,0.539765,0.280759,0.049842,46.819107,-14.574432,-21.765724,-74.053215,-0.3996215,-0.6987427,-0.45642406,0.349702,0.31889316,-0.23957084
20231225 09:58:34,-0.016000,-0.811877,-1.420366,0.490759,0.237080,0.013620,47.234390,-14.452042,-21.501656,-70.88162,-1.062703,-0.6285533,-0.6891234,0.26145408,0.27474925,-0.27306896
20231225 09:58:34,-0.021236,-0.688867,-2.056865,0.377832,0.176355,-0.014079,46.679661,-14.402710,-21.242439,-66.58132,-1.6373022,-0.34667996,-0.72125506,0.15239233,0.21166556,-0.2452669
20231225 09:58:34,-0.093597,-0.490936,-2.453081,0.211638,0.112434,-0.022602,47.013878,-14.943604,-21.203804,-64.49943,-2.0598962,-0.03432405,-0.6342746,0.06088438,0.13544802,-0.14205591
20231225 09:58:34,-0.106572,-0.287283,-2.423974,0.035856,0.067690,-0.026863,46.953312,-14.858673,-20.808037,-65.41128,-2.065363,0.15062669,-0.5299444,-0.017661538,0.07477538,-0.006540368
20231225 09:58:34,-0.155602,-0.157042,-2.035277,-0.119685,0.024010,-0.024733,46.529060,-15.076065,-21.066017,-67.27661,-1.754116,0.16810942,-0.35673356,-0.08750577,0.015381367,0.108453594
20231225 09:58:34,-0.255734,0.092089,-1.391292,-0.232612,-0.037780,-0.016210,46.916683,-14.854973,-21.344551,-68.56425,-1.2816623,0.28826374,-0.030450761,-0.1393386,-0.06065719,0.16783375
20231225 09:58:34,-0.360291,0.110319,-0.895813,-0.308252,-0.114485,-0.010883,47.005680,-15.422401,-20.636757,-71.288956,-0.93461967,0.20650034,0.17641123,-0.17676795,-0.14747308,0.17786181
20231225 09:58:34,-0.388471,-0.055930,-0.497962,-0.349800,-0.174144,-0.002360,47.005680,-15.422401,-20.636757,-73.881905,-0.6172027,-0.030682482,0.17609394,-0.20115522,-0.21132258,0.16170235
20231225 09:58:34,-0.351220,-0.076656,-0.091475,-0.329559,-0.207170,-0.010883,46.847534,-15.056931,-20.662193,-75.38426,-0.29054642,-0.10288442,0.19885518,-0.20035762,-0.23924686,0.11247742
20231225 09:58:34,-0.331239,-0.087452,0.182685,-0.256050,-0.195451,-0.035386,46.538025,-14.981049,-21.072136,-76.36279,-0.081720755,-0.14098138,0.21530934,-0.17728804,-0.21558818,0.05408384
20231225 09:58:34,-0.334293,-0.126864,0.378606,-0.168691,-0.161360,-0.073739,46.988403,-14.094810,-21.393456,-75.94848,0.053192377,-0.20366935,0.21992391,-0.15118489,-0.16924633,0.001212297
20231225 09:58:34,-0.447091,-0.075958,0.580963,-0.074941,-0.133661,-0.105699,46.317513,-15.472610,-20.774300,-77.37686,0.10628903,-0.19801944,0.35671458,-0.110712305,-0.12780489,-0.053693168
20231225 09:58:34,-0.599140,-0.059734,0.720579,0.016679,-0.133661,-0.131268,46.889023,-14.756248,-21.887138,-75.10742,0.093069315,-0.23124957,0.5166925,-0.06271376,-0.11190152,-0.12607642
20231225 09:58:34,-0.727902,-0.010818,0.634475,0.091254,-0.140053,-0.141921,46.495003,-14.514183,-20.969078,-73.49095,-0.050306916,-0.21770889,0.6448259,-0.015768282,-0.10104789,-0.18641019
20231225 09:58:34,-0.848943,-0.028535,0.348048,0.141325,-0.140053,-0.131268,46.652378,-14.495872,-21.504585,-71.98623,-0.32567334,-0.21666947,0.6761728,0.025969185,-0.09279974,-0.22185424
20231225 09:58:35,-0.820159,-0.178281,0.072903,0.177547,-0.154968,-0.121679,46.713715,-14.964592,-21.339409,-71.60499,-0.4629894,-0.31104538,0.5143182,0.056386247,-0.103011884,-0.25595382
20231225 09:58:35,-0.795512,-0.248657,-0.325792,0.203115,-0.169883,-0.115287,46.916683,-14.854973,-21.344551,-69.05613,-0.7045424,-0.30602244,0.3864303,0.07738144,-0.10963446,-0.28403458
20231225 09:58:35,-0.788781,-0.274783,-0.839108,0.210573,-0.176275,-0.113157,46.731262,-14.582657,-21.632103,-65.01125,-1.0576285,-0.21075174,0.2617898,0.08041325,-0.108335555,-0.29329097
20231225 09:58:35,-0.887735,-0.191031,-1.243350,0.193527,-0.180537,-0.111026,46.354790,-13.958679,-21.006721,-62.03771,-1.4292921,-0.026480556,0.2884427,0.07171956,-0.108720034,-0.28026313
20231225 09:58:35,-0.967900,0.006488,-1.509838,0.149848,-0.205040,-0.111026,46.528294,-14.692291,-21.626961,-58.440075,-1.7177236,0.25677812,0.37509146,0.054697335,-0.13195676,-0.25335795
20231225 09:58:35,-1.145346,0.323866,-1.715036,0.083796,-0.231673,-0.095046,46.404587,-15.080597,-21.468880,-54.30037,-2.0513244,0.6393847,0.5943654,0.04674302,-0.16396698,-0.19828977
20231225 09:58:35,-1.277401,0.659180,-1.977810,-0.007824,-0.227412,-0.059889,46.413551,-14.985580,-21.474983,-51.38293,-2.4319782,1.0480539,0.73842424,0.03284346,-0.18544373,-0.10198253
20231225 09:58:35,-1.447264,0.841704,-1.831100,-0.110097,-0.206105,-0.001295,46.404587,-15.080597,-21.468880,-53.347103,-2.4756331,1.0926039,1.0082133,0.012954219,-0.21130414,0.0057409285
20231225 09:58:35,-1.355041,0.812015,-1.285556,-0.191064,-0.215693,0.064757,46.643799,-14.782784,-21.217995,-59.980896,-1.9922557,0.8619192,1.1495564,0.002294585,-0.25797966,0.069661796
20231225 09:58:35,-1.118047,0.547377,-0.837603,-0.225155,-0.246588,0.104174,46.307396,-14.991959,-21.609596,-65.14062,-1.435946,0.525728,0.98100233,-5.444065E-4,-0.2973737,0.072077364
20231225 09:58:35,-0.890965,0.318249,-0.440458,-0.218763,-0.275353,0.116959,46.210583,-15.095207,-21.469856,-70.56893,-0.9505861,0.26259422,0.7861327,-0.0048227757,-0.31812066,0.029035069
20231225 09:58:35,-0.578451,0.160311,0.021402,-0.171887,-0.320097,0.102044,46.183304,-15.188385,-21.731972,-74.624535,-0.38611656,0.09441468,0.5397674,2.2420287E-4,-0.3464211,-0.057415463
20231225 09:58:35,-0.368792,0.140657,0.229967,-0.103705,-0.368038,0.077541,46.025162,-14.822914,-21.757408,-75.67194,-0.08442405,0.086168185,0.4048484,0.025245748,-0.3812378,-0.1438512
20231225 09:58:35,-0.241697,0.277013,0.156162,-0.039784,-0.376561,0.056234,45.962025,-15.296165,-21.995094,-75.96235,-0.062376842,0.24355105,0.3826828,0.049811795,-0.38194892,-0.19723262
20231225 09:58:35,-0.252176,0.315937,0.075302,0.013483,-0.359515,0.039188,45.891724,-14.922462,-22.154152,-74.80789,-0.13453458,0.28637826,0.40175635,0.07253034,-0.35940295,-0.22648661
20231225 09:58:35,-0.286387,0.343711,0.053236,0.071012,-0.337143,0.025339,45.864445,-15.015633,-22.416283,-73.26078,-0.18379217,0.3057019,0.4408755,0.10391968,-0.32928157,-0.2573905
20231225 09:58:35,-0.643278,0.357046,0.005752,0.124280,-0.319032,0.014685,45.387054,-14.285522,-23.406487,-69.25007,-0.45948157,0.27109274,0.709355,0.13738643,-0.30014524,-0.28301916
20231225 09:58:35,-0.904574,0.409491,0.002413,0.172220,-0.308378,0.026404,45.882374,-14.825592,-22.428505,-68.90657,-0.6475193,0.26798588,0.9403981,0.1833987,-0.28015408,-0.3102849
20231225 09:58:35,-1.144266,0.456406,-0.009247,0.215899,-0.311574,0.049842,45.634197,-15.218437,-22.673286,-67.29826,-0.82168126,0.26198146,1.1490672,0.23456785,-0.2770185,-0.3370903
20231225 09:58:35,-1.297296,0.485897,-0.175248,0.261709,-0.326489,0.075410,45.431614,-15.519951,-22.387672,-64.83883,-1.0392611,0.27933687,1.2472733,0.29085115,-0.28442195,-0.36841592
20231225 09:58:35,-1.423907,0.679895,-0.445125,0.290474,-0.338208,0.097782,45.255154,-15.152634,-22.681358,-61.01028,-1.3508043,0.49741155,1.3744698,0.33116436,-0.2928208,-0.38104343
20231225 09:58:35,-1.540473,1.027523,-0.667274,0.277690,-0.347796,0.125481,44.822323,-15.656944,-22.652733,-58.997227,-1.6594172,0.87329966,1.577997,0.34685504,-0.31264827,-0.36072037
20231225 09:58:35,-1.487829,1.416711,-0.682977,0.192462,-0.372299,0.175553,44.909782,-15.456833,-23.066841,-61.271126,-1.69478,1.2921062,1.7450508,0.33232966,-0.3688611,-0.29429582
20231225 09:58:35,-1.090366,1.634325,-0.158799,0.059293,-0.459658,0.230951,45.059731,-16.301094,-22.474342,-70.31248,-0.967981,1.5344533,1.74622,0.28043115,-0.47843128,-0.252666
20231225 09:58:35,-0.416514,1.637413,0.401660,-0.062156,-0.544886,0.246931,44.599236,-16.706696,-22.988350,-77.00765,0.017653197,1.6112609,1.3383456,0.18009304,-0.55453604,-0.23312104
20231225 09:58:35,0.262770,1.936768,0.624936,-0.134600,-0.522513,0.243735,44.414581,-16.818169,-22.714958,-81.49245,0.70122075,1.9458861,1.0130557,0.09915933,-0.51411515,-0.18563485
20231225 09:58:35,0.527578,1.886327,1.414132,-0.214501,-0.515056,0.210709,44.274368,-16.262665,-22.752617,-84.727066,1.5213648,1.9353259,0.90150696,-0.008178845,-0.49155462,-0.15695997
20231225 09:58:35,0.874658,1.915024,1.939836,-0.267769,-0.533167,0.161703,44.300877,-15.785721,-23.051430,-85.77705,2.1495595,1.985122,0.72863626,-0.09655493,-0.5034111,-0.15020552
20231225 09:58:35,0.852028,1.898437,2.437741,-0.254984,-0.486291,0.090325,43.779049,-15.722595,-23.730598,-85.43187,2.4282532,1.9752592,0.8549943,-0.13931158,-0.4676392,-0.15290698
20231225 09:58:35,0.422907,1.246691,2.786416,-0.170822,-0.360580,0.029600,44.015690,-15.982964,-24.113152,-85.2449,2.1868033,1.2716435,0.8157593,-0.11145419,-0.3581398,-0.1519851
20231225 09:58:35,-0.109232,0.742695,3.333829,0.027333,-0.200778,-0.016210,43.999561,-15.231033,-24.028435,-83.8587,1.9984862,0.64325756,0.9178238,0.01666776,-0.19915897,-0.17334485
20231225 09:58:35,-0.767530,0.222956,3.418845,0.322434,-0.030322,-0.032190,43.548035,-15.541626,-24.548531,-82.60383,1.437774,-0.0653999,0.9912771,0.23885876,-6.493663E-4,-0.22282273
20231225 09:58:35,-1.253300,-0.329210,3.055583,0.632451,0.074082,-0.014079,43.866894,-15.714363,-23.864235,-81.61505,0.88129264,-0.74431944,0.8598522,0.48588702,0.14794219,-0.32955012
20231225 09:58:35,-1.248945,-0.779327,2.032294,0.876415,0.113500,0.022143,43.434059,-16.218681,-23.835625,-80.05985,0.44210595,-1.075324,0.5023784,0.6670549,0.19880906,-0.48624915
20231225 09:58:35,-0.671362,-1.169771,0.619574,0.993604,0.134806,0.035992,43.928997,-16.566864,-23.138115,-81.18676,0.015679479,-1.2219708,-0.27057853,0.71955156,0.1746561,-0.6077229
20231225 09:58:35,-0.030003,-1.520887,-0.495518,0.995734,0.157179,0.022143,43.804909,-16.763275,-23.260490,-84.109184,-0.45721623,-1.5383716,-1.0043719,0.67729694,0.121127255,-0.6466982
20231225 09:58:35,0.636136,-1.785561,-1.183183,0.922225,0.157179,-0.009818,43.768280,-16.759583,-23.796989,-88.35655,-0.7712097,-2.0017545,-1.6332798,0.59186536,0.044801075,-0.6219113
20231225 09:58:35,1.207180,-2.017180,-1.660305,0.792253,0.146525,-0.042844,43.817478,-14.784325,-23.121605,-93.15022,-1.0113733,-2.5634058,-2.1317687,0.48964176,-0.025462907,-0.5353864
20231225 09:58:35,1.673215,-2.164804,-1.809978,0.614340,0.117761,-0.069477,43.690937,-17.440353,-22.547585,-99.90551,-0.8915246,-2.9674852,-2.448529,0.37654883,-0.069075346,-0.39403087
20231225 09:58:35,2.070669,-2.324431,-1.627161,0.405531,0.043187,-0.096111,43.893520,-17.138824,-22.833183,-102.35588,-0.46699923,-3.237949,-2.825152,0.22178611,-0.11429246,-0.25934634
20231225 09:58:35,2.423880,-2.365671,-1.291634,0.190331,-0.051629,-0.128071,43.680168,-18.477325,-22.613960,-104.32989,0.10951489,-3.2918482,-3.1118774,0.034795552,-0.14732918,-0.14884022
20231225 09:58:35,2.560218,-2.222009,-0.761077,-0.008889,-0.168818,-0.162163,43.566849,-17.636757,-22.669960,-102.50388,0.6733451,-3.003646,-3.2263868,-0.15991807,-0.19852577,-0.085767224
20231225 09:58:35,2.421798,-1.873595,-0.462501,-0.187867,-0.276418,-0.197319,43.276417,-17.946518,-22.250725,-100.52576,0.8476075,-2.4824808,-2.9670632,-0.33674353,-0.26192006,-0.025588881
20231225 09:58:35,2.101214,-1.286396,-0.214108,-0.339147,-0.340339,-0.221822,42.938091,-17.196243,-24.044685,-94.577866,0.9550428,-1.6924154,-2.4112265,-0.45952922,-0.30705175,0.04006727
20231225 09:58:35,1.605225,-0.603824,0.027426,-0.442486,-0.368038,-0.229280,43.495781,-16.879288,-23.389977,-90.51007,0.9371445,-0.80736107,-1.6239672,-0.51590854,-0.33647367,0.109777674
20231225 09:58:35,1.131167,0.092108,0.278126,-0.498949,-0.355254,-0.225018,43.459152,-16.875587,-23.926460,-85.088356,0.9261632,0.031629965,-0.8165841,-0.51888156,-0.33611143,0.1606382
20231225 09:58:35,0.605921,0.688736,0.563063,-0.510668,-0.333947,-0.210103,43.513710,-16.689247,-23.402199,-81.91681,0.8457085,0.6918174,-0.013539102,-0.49308622,-0.32529593,0.18351093
20231225 09:58:35,0.196662,1.085901,0.763395,-0.492557,-0.307313,-0.200515,42.991882,-16.626129,-24.081352,-78.20601,0.72283953,1.084984,0.58920854,-0.45924547,-0.30758128,0.18103684
20231225 09:58:35,-0.158001,1.322803,1.006163,-0.437159,-0.271091,-0.186666,42.755241,-16.365761,-23.698799,-76.54613,0.64311934,1.2808509,1.0668632,-0.40764588,-0.27650577,0.15254673
20231225 09:58:35,-0.395922,1.196674,1.012100,-0.342343,-0.223150,-0.171751,42.781750,-15.888809,-23.997612,-75.24382,0.46733052,1.1218654,1.2015035,-0.33719635,-0.2284111,0.10108045
20231225 09:58:35,-0.435468,0.854335,0.932820,-0.216632,-0.167752,-0.153640,42.914803,-15.597382,-23.881340,-76.381226,0.38952532,0.7937186,1.0113395,-0.249486,-0.16882394,0.036302112
20231225 09:58:35,-0.281729,0.380633,0.792028,-0.084529,-0.125138,-0.145117,42.772785,-15.983826,-23.991493,-78.59492,0.4011675,0.35682443,0.56098515,-0.161958,-0.123464406,-0.036161363
20231225 09:58:35,-0.009422,-0.123690,0.527626,0.024137,-0.104897,-0.147248,42.623604,-15.523338,-24.023048,-80.72292,0.38580447,-0.11659475,-0.01760526,-0.095193885,-0.10710839,-0.10271971
20231225 09:58:35,0.325521,-0.484626,0.168672,0.098711,-0.108093,-0.155771,42.799294,-15.506882,-24.290321,-82.501656,0.31565586,-0.48946533,-0.5467105,-0.05779489,-0.12039477,-0.15820335
20231225 09:58:35,0.578820,-0.839194,-0.296629,0.134933,-0.115550,-0.172816,42.676243,-14.377556,-24.901131,-82.70039,0.07750334,-0.902536,-1.0047079,-0.053371377,-0.13988999,-0.19127116
20231225 09:58:35,0.777431,-1.101018,-0.660904,0.118953,-0.132596,-0.190927,43.073601,-14.445213,-24.624825,-84.16921,-0.1389113,-1.2379447,-1.3382536,-0.08580676,-0.16426007,-0.18792224
20231225 09:58:35,0.920687,-1.104830,-0.930649,0.069947,-0.154968,-0.207973,42.828377,-14.471756,-23.955681,-85.09284,-0.30491975,-1.309727,-1.4519519,-0.13934462,-0.18789762,-0.16105843
20231225 09:58:35,0.924793,-1.045605,-1.098650,0.008157,-0.173079,-0.217561,42.561886,-14.862740,-24.468697,-84.15414,-0.45109344,-1.269774,-1.4310691,-0.18978485,-0.20046191,-0.12312589
20231225 09:58:35,0.832944,-0.970549,-1.276000,-0.063222,-0.176275,-0.223953,42.526413,-15.434708,-24.163765,-83.57993,-0.67173964,-1.1964422,-1.319355,-0.23957986,-0.19696479,-0.06399599
20231225 09:58:35,0.739514,-0.702351,-1.384358,-0.140992,-0.158164,-0.230345,42.773819,-14.658096,-24.479942,-80.824554,-0.7877883,-0.89172095,-1.1266507,-0.2845279,-0.17071426,0.007351041
20231225 09:58:35,0.497426,-0.470611,-1.237949,-0.213436,-0.142184,-0.231410,43.177570,-15.188904,-24.843193,-77.30085,-0.7648181,-0.541773,-0.82224643,-0.3175328,-0.14591536,0.07012498
20231225 09:58:35,0.170301,-0.192201,-1.164044,-0.273095,-0.132596,-0.210103,42.719265,-14.844429,-25.004204,-72.90788,-0.8720137,-0.17835365,-0.43333688,-0.32483828,-0.13228056,0.122712
20231225 09:58:35,-0.092537,0.038931,-1.085218,-0.324232,-0.102766,-0.180274,42.164913,-14.986977,-24.464531,-71.00361,-0.9522809,0.08966846,-0.099918455,-0.32522136,-0.10446684,0.18196046
20231225 09:58:35,-0.227448,0.166221,-0.952790,-0.350866,-0.066544,-0.157901,42.884838,-14.347321,-26.106773,-67.06143,-0.9235612,0.23336908,0.063418806,-0.32272995,-0.07335752,0.2192021
20231225 09:58:35,-0.570890,0.484966,-0.661927,-0.350866,-0.029257,-0.123810,42.482239,-14.392166,-24.902107,-66.7687,-0.91768706,0.50945127,0.57379186,-0.2982051,-0.042222314,0.24441618
20231225 09:58:35,-0.678986,0.539066,-0.548095,-0.340212,0.020814,-0.078000,42.506947,-14.857185,-25.273430,-67.61058,-0.8959279,0.5401068,0.7193842,-0.2649905,0.0026982026,0.26885238
20231225 09:58:35,-0.548362,0.468001,-0.313931,-0.316775,0.061297,-0.027929,42.703136,-14.092499,-24.919472,-71.240295,-0.61187774,0.4597221,0.6432718,-0.21908247,0.047512017,0.28098616
20231225 09:58:35,-0.194760,0.328483,-0.176278,-0.284814,0.086866,0.011489,42.421288,-14.115334,-24.786827,-75.01635,-0.26330072,0.32872772,0.32129017,-0.16870686,0.08378676,0.27732876
20231225 09:58:35,0.228474,0.141990,-0.151268,-0.261377,0.103911,0.037057,42.675476,-13.993782,-25.462074,-78.12319,0.03377662,0.1298059,-0.107701674,-0.13402353,0.11275017,0.27121153
20231225 09:58:35,0.416668,0.025684,-0.117805,-0.250723,0.102846,0.041319,42.466496,-13.832130,-24.536919,-80.24255,0.18085396,0.0015093866,-0.3145401,-0.1252783,0.11561057,0.26136887
20231225 09:58:35,0.842396,-0.182769,0.005653,-0.231547,0.064494,0.024273,42.113964,-13.289387,-24.843803,-82.76394,0.544603,-0.25098592,-0.75095063,-0.12914401,0.08556765,0.21792717
20231225 09:58:35,0.940563,-0.232587,-0.010177,-0.219828,0.057036,0.007228,42.156986,-13.756256,-24.946861,-83.892136,0.59560746,-0.31903926,-0.8557639,-0.13534892,0.077720374,0.20212755
20231225 09:58:35,1.047181,-0.394464,0.068308,-0.135665,0.075147,-0.069477,42.667931,-12.954948,-25.663933,-82.43747,0.7235996,-0.47335204,-1.0288733,-0.13577835,0.07964299,0.14404033
20231225 09:58:35,0.950409,-0.399146,0.067984,-0.060026,0.100715,-0.118483,42.325897,-13.084736,-24.855049,-79.547874,0.6537528,-0.43560144,-0.9673322,-0.123693086,0.09721435,0.09614345
20231225 09:58:35,0.384235,0.014743,-0.239992,0.003895,0.148656,-0.131268,42.166332,-13.853127,-24.672493,-75.91795,0.05309269,0.014659923,-0.3273701,-0.099959314,0.14863555,0.06717284
20231225 09:58:35,0.170961,0.184547,-0.275304,0.020941,0.166767,-0.123810,42.696743,-13.629333,-24.279915,-72.95293,-0.12154133,0.20102768,-0.07729721,-0.092177406,0.17229822,0.058387168
20231225 09:58:35,-0.169487,0.595024,-0.407170,0.016679,0.143329,-0.066281,42.660500,-13.817528,-24.535942,-71.073685,-0.4603613,0.60891944,0.38950226,-0.051514257,0.14719301,0.0532235
20231225 09:58:35,-0.183734,0.732553,-0.496793,0.002830,0.125218,-0.044974,42.590202,-13.443821,-24.695000,-70.45581,-0.54361475,0.7466146,0.44479355,-0.040712096,0.1269452,0.055062182
20231225 09:58:35,-0.058274,1.008426,-0.710828,-0.029131,0.118826,0.001901,42.342793,-14.220444,-24.378838,-72.22059,-0.6468807,1.0239978,0.46182805,-0.01745172,0.11826839,0.08746997
20231225 09:58:35,0.223532,1.082284,-0.642197,-0.053634,0.117761,0.032796,42.475460,-13.737110,-24.543022,-73.255554,-0.4100196,1.077673,0.27702242,-0.001081124,0.118152186,0.111614875
20231225 09:58:35,0.359956,1.288759,-0.697237,-0.064287,0.226426,0.044515,42.405930,-13.747196,-24.141151,-79.03638,-0.26504275,1.2259164,0.38550478,0.011236582,0.23141591,0.18908834
20231225 09:58:35,0.720124,1.096105,-0.073664,-0.042980,0.247733,0.025339,42.641804,-13.623787,-25.084648,-79.07562,0.45529863,1.0509002,0.0823577,0.0098255,0.25072488,0.18602829
20231225 09:58:35,0.843969,1.164367,0.422386,0.077404,0.304197,-0.072673,42.502739,-13.643936,-24.280891,-80.25919,0.93054175,1.1443911,0.10837667,0.011280369,0.29473892,0.120250046
20231225 09:58:35,0.714250,1.205870,0.684373,0.123214,0.327635,-0.102503,42.697128,-13.821228,-23.999458,-78.855576,1.0151784,1.2077878,0.28340656,0.008139297,0.3218,0.096336134
20231225 09:58:35,0.326896,1.217441,0.819282,0.237206,0.399013,-0.131268,42.627213,-13.639412,-23.878029,-75.97437,0.81670725,1.2068081,0.6273907,0.042580485,0.40502334,0.04364564
20231225 09:58:35,-0.060783,1.333944,0.829099,0.361852,0.452280,-0.114222,42.732986,-13.441143,-24.023903,-71.93604,0.50489223,1.2644833,1.0107005,0.10768939,0.47992903,-0.031234026
20231225 09:58:35,-0.453992,1.263155,0.681026,0.487563,0.472522,-0.001295,43.314999,-13.397312,-24.020973,-69.8531,0.14125896,1.1586028,1.2265337,0.25261772,0.5042966,-0.11576541
20231225 09:58:35,-0.158970,0.981122,0.183913,0.483302,0.427777,0.084998,43.191677,-13.977509,-23.582420,-73.86302,0.012206793,0.9678271,0.72424626,0.34131294,0.43832907,-0.12507291
20231225 09:58:35,0.114573,0.799470,0.040299,0.461995,0.387294,0.115893,43.368137,-14.344826,-23.288734,-80.363235,0.14517985,0.79503113,0.38391802,0.39061058,0.3736317,-0.13003272
20231225 09:58:35,0.856786,0.384098,-0.261213,0.399139,0.289282,0.122285,42.946842,-14.195946,-22.632790,-82.474396,0.32209706,0.29837838,-0.49707416,0.35797864,0.27186066,-0.14960256
20231225 09:58:35,1.235825,0.308784,-0.844649,0.318173,0.259452,0.084998,42.901249,-14.287262,-23.163170,-83.11013,0.030816436,0.08868038,-0.9147398,0.2799216,0.23981616,-0.116346374
20231225 09:58:35,1.255500,0.325417,-1.048293,0.207377,0.283955,0.041319,43.192062,-14.169403,-23.301933,-81.82963,-0.14842564,0.105509385,-0.9583372,0.18033728,0.27034444,-0.017503224
20231225 09:58:35,1.189610,0.580213,-0.380346,0.036921,0.266910,0.018947,43.113834,-12.564980,-23.943321,-80.25085,0.4345031,0.4532215,-0.6806931,0.06349472,0.2641707,0.12307262
20231225 09:58:35,1.019532,0.901806,0.200808,-0.170822,0.146525,-0.017275,43.273132,-13.506111,-23.076485,-79.05007,0.81082976,0.8802304,-0.24894595,-0.11223639,0.150424,0.2210863
20231225 09:58:35,0.777059,0.776819,0.292417,-0.217697,0.127349,-0.039648,42.999863,-13.242050,-23.230415,-77.52483,0.7192731,0.7743149,-0.09435694,-0.1658849,0.12835254,0.24235322
20231225 09:58:35,0.301402,0.469443,0.647174,-0.275226,0.143329,-0.068412,42.734909,-14.400589,-22.621529,-77.41761,0.6641636,0.45251673,0.16993095,-0.23926835,0.13572149,0.289132
20231225 09:58:35,-0.126389,0.509552,1.268380,-0.246462,0.196597,-0.083327,43.044033,-14.284576,-22.492073,-75.48645,0.7312149,0.3497678,0.66747856,-0.2551458,0.17572857,0.29356113
20231225 09:58:35,-0.728063,0.243079,1.703144,-0.155907,0.265844,-0.069477,43.607731,-14.238907,-22.757393,-74.82199,0.52905923,-0.11553701,0.99238384,-0.1988527,0.24507299,0.2817185
20231225 09:58:35,-1.237345,-0.055228,2.077972,-0.035523,0.322308,-0.002360,43.008560,-14.856537,-22.187141,-76.179695,0.38938624,-0.5665333,1.1421711,-0.07541347,0.30846393,0.26011446
20231225 09:58:36,-1.232746,-0.660795,2.016877,0.162632,0.340419,0.148919,43.026871,-14.858391,-21.918907,-78.50459,0.39158267,-1.09358,0.59545195,0.17505193,0.33967593,0.17658986
20231225 09:58:36,-1.032502,-0.914267,1.741704,0.210573,0.331896,0.192598,43.000362,-15.335335,-21.620079,-80.56368,0.3988335,-1.2241714,0.18407111,0.2473548,0.33375198,0.14210334
20231225 09:58:36,-0.363143,-1.424577,1.065769,0.268102,0.318046,0.238408,43.255699,-15.789444,-21.453941,-83.59807,0.50408036,-1.5086685,-0.7453611,0.33875048,0.32108188,0.084552564
20231225 09:58:36,0.186659,-1.810100,0.380882,0.292605,0.329765,0.235212,43.300140,-15.122467,-21.764961,-83.70706,0.44278213,-1.8133992,-1.4225671,0.36575913,0.33175853,0.06331132
20231225 09:58:36,0.505027,-2.057044,-0.126162,0.291539,0.358530,0.207513,43.510269,-15.859787,-21.848732,-85.40512,0.28365383,-2.0562084,-1.8460767,0.35404533,0.35865706,0.07229671
20231225 09:58:36,0.637856,-2.214163,-0.443477,0.260644,0.378771,0.161703,43.333813,-15.492455,-22.142387,-83.73306,0.14725408,-2.2106514,-2.0455534,0.29767063,0.37909108,0.09603782
20231225 09:58:36,0.595297,-2.234129,-0.621979,0.188200,0.371314,0.120155,43.291176,-15.217484,-21.758858,-82.7207,0.0072108805,-2.2158492,-2.0339308,0.21215285,0.37219295,0.13486154
20231225 09:58:36,0.444699,-2.064764,-0.593610,0.083796,0.318046,0.093521,42.913284,-15.727348,-20.925514,-82.13921,-0.031281292,-2.0199203,-1.8013077,0.11248027,0.31705114,0.16847627
