Timestamp,linacce_x,linacce_y,linacce_z,gyro_x,gyro_y,gyro_z,X-magnetometer,Y-magnetometer,Z-magnetometer,Yaw, worldXAccel,worldYAccel,worldZAccel,worldXgyro,worldYgyro,worldZgyro
20240312 02:43:22,-0.416525,0.080778,0.017651,0.039092,-0.514400,-0.194128,-0.198460,37.964336,-16.191910,4.5409775,-0.34240294,0.013727051,0.2444918,-0.02155412,-0.4791251,-0.14816827
20240312 02:43:22,-0.487145,-0.081736,-0.116137,0.005000,-0.422780,-0.113162,-0.788666,37.441711,-15.627777,5.178062,-0.4598711,-0.14147109,0.18178877,-0.015529294,-0.40379283,-0.06466375
20240312 02:43:22,-0.351361,-0.166508,-0.051925,-0.022699,-0.282154,-0.027934,0.208630,37.607925,-15.360779,3.2732854,-0.3053733,-0.20670077,0.16060472,-0.00886832,-0.27899382,0.0028660279
20240312 02:43:22,-0.263381,-0.080823,-0.031495,-0.047202,-0.147920,0.043445,-0.479538,37.557720,-15.498306,4.108639,-0.22826147,-0.11048197,0.12705214,-0.0021103658,-0.15589204,0.07114416
20240312 02:43:22,-0.224276,0.058942,0.130769,-0.057855,-0.047778,0.081797,-0.314350,38.246712,-16.881348,3.7367833,-0.11851789,0.021996688,0.23022662,9.0574473E-4,-0.060447972,0.10260124
20240312 02:43:22,-0.119374,0.037906,0.304984,-0.040809,-0.020078,0.089255,-0.472115,38.420296,-16.626312,3.513525,0.064573534,0.0045103226,0.31786478,0.016119972,-0.030218834,0.09785534
20240312 02:43:22,-0.010459,0.022204,0.368426,-0.004588,-0.037124,0.075405,-0.507587,37.848328,-16.321381,3.2715166,0.19105715,-0.0013588071,0.31203645,0.039598335,-0.041916277,0.0671951
20240312 02:43:22,0.052986,0.065723,0.342981,0.032700,-0.068019,0.059425,-0.134933,38.245693,-15.673752,2.587857,0.22910976,0.0495574,0.25338703,0.06403118,-0.06823762,0.033853605
20240312 02:43:22,0.097721,0.075139,0.291459,0.047614,-0.076542,0.051967,-0.285919,37.764217,-15.777817,2.789683,0.23927364,0.06595057,0.18281747,0.0729723,-0.07503962,0.019246599
20240312 02:43:23,0.035990,0.086369,0.226596,0.106209,-0.040320,0.039183,-0.497086,37.175789,-15.205612,3.2318347,0.14912409,0.07498967,0.1644809,0.11254065,-0.03248318,-0.02428485
20240312 02:43:23,-0.047670,-0.005703,0.465859,0.175456,-0.041385,0.031726,-0.340096,37.385990,-16.021591,3.3058398,0.21231437,-0.0418289,0.41623127,0.1670542,-0.02508699,-0.06704196
20240312 02:43:23,-0.196796,-0.019337,0.404117,0.241508,-0.072281,0.027464,-0.155823,37.689354,-16.575455,3.6378045,0.05750121,-0.07558966,0.44603115,0.22234821,-0.04429446,-0.1063164
20240312 02:43:23,-0.362283,-0.108304,0.122315,0.278795,-0.083999,0.050902,-0.216774,37.966187,-16.460144,4.3193393,-0.22443226,-0.17063116,0.309069,0.26791957,-0.047424212,-0.1069668
20240312 02:43:23,-0.527143,-0.224476,-0.098781,0.288383,-0.087195,0.071144,-0.674698,38.118774,-16.340698,5.2985997,-0.46705517,-0.29254416,0.23128185,0.2872103,-0.047977697,-0.09636709
20240312 02:43:23,-0.586286,-0.251730,-0.277892,0.284122,-0.097849,0.119084,-0.410007,37.567799,-15.900192,4.8254395,-0.6112963,-0.30783698,0.12152617,0.31070822,-0.065190844,-0.05645226
20240312 02:43:23,-0.465144,-0.182601,-0.352070,0.243638,-0.154312,0.179809,-0.658955,37.558739,-16.705902,5.0593853,-0.5615921,-0.20955412,5.1388144E-4,0.31682765,-0.13594815,0.013894722
20240312 02:43:23,-0.345631,-0.176506,-0.551695,0.211678,-0.156443,0.203247,-0.322548,37.767914,-16.314301,4.0723643,-0.5852981,-0.1668278,-0.22810692,0.30386952,-0.14682832,0.04668946
20240312 02:43:23,-0.205892,-0.189297,-0.532358,0.172260,-0.177750,0.196855,-0.516552,37.753307,-16.315277,3.9867506,-0.46297577,-0.16652808,-0.2945824,0.26903117,-0.17298688,0.06573365
20240312 02:43:23,-0.152567,-0.163111,-0.506389,0.139234,-0.206514,0.172352,-0.420128,38.048443,-16.735489,3.8171525,-0.40799004,-0.13722725,-0.30645308,0.23026386,-0.20332436,0.06634863
20240312 02:43:23,-0.171621,-0.146681,-0.484809,0.128581,-0.225691,0.152110,-0.731438,37.182358,-17.217926,4.3098435,-0.4136781,-0.12506598,-0.27536067,0.21122767,-0.22213073,0.05795873
20240312 02:43:23,-0.131544,-0.169742,-0.501863,0.123254,-0.232083,0.140391,-0.942989,36.785820,-16.926224,4.3549147,-0.3904158,-0.14474593,-0.31268975,0.19899309,-0.22849147,0.052910596
20240312 02:43:23,-0.103688,-0.173038,-0.445786,0.120058,-0.226756,0.138261,-0.693661,36.602993,-15.840027,3.762297,-0.33459115,-0.1505183,-0.28679448,0.19400078,-0.2235152,0.05146144
20240312 02:43:23,-0.132615,-0.187877,-0.433132,0.127516,-0.215037,0.137195,-0.711205,36.221066,-15.547333,3.812586,-0.3492616,-0.16863686,-0.25836438,0.19871241,-0.21105233,0.04562322
20240312 02:43:23,-0.159934,-0.167367,-0.410711,0.128581,-0.201188,0.140391,-0.621555,37.171261,-15.608459,3.6398096,-0.36061767,-0.1520294,-0.22345771,0.20090494,-0.19752449,0.045161985
20240312 02:43:23,-0.126231,-0.170866,-0.535257,0.110470,-0.173489,0.142522,-0.711975,36.604843,-16.108276,3.6022687,-0.4121853,-0.14571866,-0.33936572,0.18512748,-0.17234503,0.054641597
20240312 02:43:23,-0.020272,-0.181599,-0.640008,0.063595,-0.158574,0.139326,-1.577370,37.305733,-17.100433,4.435819,-0.3963201,-0.14749707,-0.48110208,0.14385286,-0.16105492,0.080628075
20240312 02:43:23,0.099119,-0.126410,-0.634979,-0.008849,-0.164966,0.127607,-0.649990,37.653755,-16.712021,2.7704155,-0.30580783,-0.09003302,-0.5559342,0.07917511,-0.17104529,0.11215448
20240312 02:43:23,0.145972,-0.037590,-0.541952,-0.087685,-0.171358,0.109496,-1.046577,37.337631,-16.427383,3.219353,-0.21444073,-0.005404556,-0.5152984,0.0052186623,-0.18069595,0.14772803
20240312 02:43:23,0.150190,-0.027001,-0.371986,-0.146279,-0.175619,0.091385,-0.843994,37.639145,-16.712997,2.7692919,-0.10313065,-0.0043945927,-0.3858764,-0.05468722,-0.1864956,0.16781868
20240312 02:43:23,0.162361,-0.029288,-0.215387,-0.175043,-0.162835,0.074340,-1.046963,37.529518,-16.707855,2.7848494,0.0038637966,-0.01526201,-0.26836354,-0.09153077,-0.17260198,0.17005217
20240312 02:43:23,0.171503,-0.041230,-0.052665,-0.178239,-0.137267,0.059425,-1.180016,37.238079,-16.824127,3.033836,0.10984541,-0.03165114,-0.14108701,-0.10553579,-0.14709304,0.15816894
20240312 02:43:23,0.102816,-0.026908,0.114879,-0.164390,-0.120221,0.054098,-1.310497,37.504829,-16.306946,3.3034585,0.15117009,-0.025797497,0.035250735,-0.0985146,-0.1301185,0.14485875
20240312 02:43:23,0.033877,-0.009715,0.252210,-0.142018,-0.123417,0.066882,-1.176674,37.412491,-15.629730,3.244917,0.1716392,-0.017629988,0.18803428,-0.07383566,-0.1337276,0.1415564
20240312 02:43:23,0.003040,-0.013704,0.312183,-0.130299,-0.127679,0.078601,-1.424850,37.019653,-15.874512,3.60908,0.18098454,-0.025439572,0.2546743,-0.057248693,-0.13755122,0.14542276
20240312 02:43:23,-0.013203,0.051425,0.305168,-0.088750,-0.134071,0.118019,-1.637169,37.006893,-16.143738,3.936305,0.16158585,0.038841534,0.25423557,-1.5237182E-4,-0.14319511,0.15489158
20240312 02:43:23,-0.017043,0.030450,0.271222,-0.077031,-0.137267,0.130803,-0.828636,37.270996,-17.358673,2.7766645,0.14028251,0.01930157,0.2303866,0.017011508,-0.1459996,0.156642
20240312 02:43:23,0.025417,0.074470,0.371691,-0.058920,-0.172423,0.159568,-1.256710,38.074947,-16.343628,2.7628393,0.23111504,0.066188395,0.28729787,0.046902984,-0.17825003,0.17130569
20240312 02:43:23,0.134915,0.128047,0.428231,-0.052528,-0.191600,0.159568,-1.301918,37.791740,-16.593536,2.625268,0.35256252,0.12351142,0.26951212,0.05151252,-0.19597736,0.16808416
20240312 02:43:23,0.402508,0.152334,0.499780,-0.014176,-0.170293,0.119084,-1.292183,37.502983,-16.038696,1.7444961,0.61515534,0.15210757,0.1800042,0.05530116,-0.16992566,0.11040798
20240312 02:43:23,0.479210,0.127614,0.520957,0.010327,-0.142594,0.097777,-1.486187,37.488373,-16.039673,1.8600763,0.6908375,0.12643908,0.1542229,0.062949814,-0.14203605,0.07849913
20240312 02:43:23,0.508058,0.092826,0.385225,0.056137,-0.071215,0.061555,-1.292568,37.694870,-16.319183,1.5225543,0.63780993,0.09014767,0.02271691,0.08071235,-0.071355365,0.019847322
20240312 02:43:23,0.506215,0.064807,0.278458,0.077444,-0.025405,0.031726,-1.593113,37.865768,-16.735245,2.1013672,0.5743681,0.063238226,-0.06655908,0.08147295,-0.025683403,-0.01800254
20240312 02:43:23,0.330834,0.157011,0.221244,0.065725,-0.037124,0.010419,-1.416656,37.498451,-16.441559,2.8392472,0.39424244,0.16149159,-0.025966182,0.05973981,-0.035511136,-0.029336989
20240312 02:43:23,0.104085,0.277229,0.112103,0.044418,-0.048843,0.007223,-1.634598,37.565083,-15.510284,3.2605577,0.1438261,0.27767962,0.015318282,0.041132342,-0.047570996,-0.018410122
20240312 02:43:23,0.078856,0.213297,0.051252,0.043353,-0.058431,0.009353,-1.503735,37.106441,-15.746994,3.080365,0.08897387,0.21439816,-0.015070993,0.0417245,-0.05726633,-0.015800176
20240312 02:43:23,0.061344,0.200270,0.035339,0.044418,-0.062692,0.009353,-1.600540,37.003197,-15.607239,3.1537597,0.066139564,0.20114319,-0.016925873,0.04259319,-0.061591882,-0.016103614
20240312 02:43:23,0.056275,0.044093,-0.013952,0.028438,-0.098914,0.033856,-1.415886,37.114674,-15.880615,3.0078032,0.036833636,0.046289098,-0.045766156,0.045116972,-0.0986781,0.015411554
20240312 02:43:23,0.022379,-0.133229,-0.032192,0.009262,-0.104241,0.055163,-1.504501,37.490219,-16.307922,4.0040965,0.004664764,-0.12991202,-0.031704806,0.045606107,-0.105955236,0.043968838
20240312 02:43:23,-0.285273,0.346508,0.020205,0.005000,-0.072281,0.093516,-1.637939,37.390671,-16.704666,4.0349717,-0.22729917,0.32914048,0.17223167,0.06445135,-0.07583878,0.07445781
20240312 02:43:23,-0.002133,0.401410,0.098727,0.088098,-0.021144,0.118019,-1.822979,37.471081,-16.711761,2.407539,0.05640943,0.40184426,0.06833703,0.13963506,-0.021180639,0.047176022
20240312 02:43:23,0.462128,-0.064519,0.123063,0.122189,-0.037124,0.057294,-1.601696,37.578861,-16.448654,1.9983108,0.44544333,-0.068239234,-0.1710499,0.13221392,-0.037925534,-0.024669535
20240312 02:43:23,0.407633,0.018932,-0.007489,0.129646,-0.030732,0.034922,-1.831944,37.376060,-16.705643,2.529479,0.3214417,0.01757951,-0.25151297,0.12455092,-0.031070057,-0.048901536
20240312 02:43:23,0.297979,0.063604,-0.098614,0.128581,-0.023275,0.016811,-1.143772,37.426270,-16.568115,1.810642,0.18003823,0.065725766,-0.2584882,0.11331935,-0.022610016,-0.062636204
20240312 02:43:23,0.234441,0.013025,-0.120388,0.121123,-0.046712,0.000831,-1.390144,37.975395,-16.740372,2.2027953,0.115851805,0.015592613,-0.23700902,0.097856954,-0.04575538,-0.0703216
20240312 02:43:23,0.184008,-0.013361,-0.177903,0.114731,-0.065888,-0.018346,-1.698891,37.667500,-16.589386,2.9009986,0.039835334,-0.008301078,-0.25213352,0.081302,-0.06383261,-0.08109384
20240312 02:43:23,0.122490,-0.016847,-0.239800,0.092359,-0.066954,-0.040718,-1.683529,37.299351,-17.235046,3.0758593,-0.04926081,-0.010231188,-0.26367706,0.049341023,-0.06426928,-0.08578266
20240312 02:43:23,0.022416,-0.010779,-0.371045,0.028438,-0.029667,-0.060960,-1.815048,36.240356,-16.229431,3.549058,-0.20737948,-0.0020768177,-0.30714756,-0.013808567,-0.027516795,-0.064139344
20240312 02:43:23,-0.000917,-0.009358,-0.310159,-0.005653,-0.019013,-0.066286,-1.610661,37.483841,-16.442535,3.2426786,-0.18716912,-0.0020589205,-0.24622506,-0.04395594,-0.01761086,-0.04856762
20240312 02:43:23,-0.053038,-0.068146,-0.184316,-0.017372,-0.023275,-0.064156,-1.956028,37.179642,-16.828033,3.9473712,-0.14942475,-0.064948425,-0.11353174,-0.05114308,-0.022120345,-0.04018402
20240312 02:43:23,-0.107373,-0.131204,0.006654,-0.029091,-0.050974,-0.056698,-1.883930,37.747910,-16.596466,4.0122676,-0.079049505,-0.13617487,0.075412855,-0.054934308,-0.050357115,-0.02612094
20240312 02:43:23,-0.215691,-0.088601,0.054353,-0.023764,-0.068019,-0.041783,-1.831173,36.992287,-16.144714,4.1651278,-0.14099418,-0.10180435,0.1744484,-0.040987343,-0.06756332,-0.016155707
20240312 02:43:23,-0.219675,-0.101365,0.098625,0.005000,-0.061627,-0.020476,-1.628204,37.101913,-16.149841,3.8021524,-0.11812573,-0.11580211,0.21310125,-0.0055720434,-0.060519967,-0.016212652
20240312 02:43:23,-0.142161,-0.165495,0.105428,0.040157,-0.069084,0.001896,-1.575451,36.346287,-15.698090,3.480223,-0.050412323,-0.17406864,0.17623854,0.035846032,-0.06742818,-0.018241938
20240312 02:43:23,-0.122394,-0.144334,0.093748,0.042288,-0.078673,0.004027,-1.982159,36.510807,-16.248749,4.0392866,-0.041111104,-0.15156661,0.15551706,0.038940944,-0.0770421,-0.016808974
20240312 02:43:23,-0.044058,-0.119145,-0.059253,0.044418,-0.083999,0.006157,-1.795700,37.564251,-16.449631,3.4874992,-0.06776939,-0.11907706,-0.015873153,0.041419443,-0.08267743,-0.017140083
20240312 02:43:23,-0.038285,-0.101658,-0.160130,0.035896,-0.073346,0.000831,-1.867802,36.995983,-16.681198,3.6364849,-0.12362243,-0.099063024,-0.10047124,0.031045644,-0.07218366,-0.016954832
20240312 02:43:23,-0.028705,-0.133054,-0.295533,0.014589,-0.047778,-0.006627,-1.646519,37.103764,-16.418076,3.238385,-0.19754356,-0.12742636,-0.21259865,0.008710964,-0.047186144,-0.011897153
20240312 02:43:23,-0.054826,-0.152881,-0.332804,-0.015241,-0.022209,-0.011954,-2.007248,37.167713,-16.157913,3.8102453,-0.24025884,-0.14681478,-0.22426252,-0.01885166,-0.022383245,8.1241876E-4
20240312 02:43:23,-0.064521,-0.115365,-0.252739,-0.048267,-0.022209,-0.005561,-1.469677,36.544556,-15.843933,3.143124,-0.19925492,-0.11116192,-0.15934597,-0.041548375,-0.023667326,0.02523601
20240312 02:43:23,-0.065548,-0.099900,-0.105094,-0.063182,-0.054170,-0.002365,-1.663296,36.338058,-15.564438,3.40735,-0.11240116,-0.09946091,-0.041473158,-0.051192857,-0.056136962,0.037862785
20240312 02:43:23,-0.062177,-0.069370,-0.062341,-0.059986,-0.086130,-0.004496,-1.769455,36.331676,-15.699066,3.6120806,-0.08522004,-0.06987469,-0.009989634,-0.048917208,-0.087991565,0.03616775
20240312 02:43:23,-0.053789,-0.049617,-0.008132,-0.050398,-0.112764,-0.006627,-2.051685,36.500729,-15.846863,3.9303706,-0.04719124,-0.05108669,0.02774823,-0.042123318,-0.114113115,0.030478625
20240312 02:43:23,-0.045052,-0.049628,0.000695,-0.040809,-0.127679,-0.005561,-2.121605,36.682537,-15.725464,3.9523168,-0.03517591,-0.050936524,0.029577235,-0.03372224,-0.12867895,0.026406253
20240312 02:43:23,-0.066284,-0.047742,0.097370,-0.030156,-0.138332,-0.000235,-2.034527,37.074543,-16.420029,3.7547483,0.0040106215,-0.051541142,0.12011779,-0.021818217,-0.13909112,0.02477816
20240312 02:43:23,-0.061790,-0.052173,0.101189,-0.007784,-0.123417,0.000831,-1.716434,37.285572,-16.296677,3.2850332,0.0102737285,-0.05593016,0.120489165,-0.0033141405,-0.123578474,0.010964218
20240312 02:43:23,-0.032059,-0.018247,0.059011,0.012458,-0.089326,0.005092,-2.007633,37.359604,-16.438370,3.5347195,0.009099143,-0.019915467,0.06739402,0.014520058,-0.08909654,0.0012284177
20240312 02:43:23,-0.000617,0.006791,0.018588,0.018850,-0.061627,0.015746,-2.052841,37.076393,-16.688278,3.5206308,0.01037366,0.006518526,0.015004978,0.025364127,-0.061470333,0.004617881
20240312 02:43:23,0.015064,0.005357,0.000369,0.013523,-0.050974,0.025334,-2.271938,37.718693,-16.598419,3.8469336,0.012302883,0.005667144,-0.008873496,0.026637074,-0.051060874,0.015207027
20240312 02:43:23,0.021087,0.042013,0.135985,0.015654,-0.069084,0.028530,-1.935528,37.927872,-16.206818,3.064347,0.097098224,0.041170925,0.09520865,0.03003506,-0.069134645,0.016690468
20240312 02:43:23,0.079514,0.070467,0.084834,0.034830,-0.078673,0.017876,-1.953075,37.545944,-15.914108,3.099921,0.11373126,0.07063657,0.018420476,0.03924229,-0.07844947,-0.0026968522
20240312 02:43:23,0.054948,0.054584,0.004992,0.049745,-0.049908,0.004027,-1.873425,37.075375,-15.480698,3.0174441,0.04664969,0.05505897,-0.03115928,0.042630244,-0.049468074,-0.02441219
20240312 02:43:23,0.045680,0.064124,-0.141363,0.038026,-0.012621,0.001896,-1.849102,36.802246,-16.132477,3.157612,-0.049933825,0.06641526,-0.1428118,0.03155905,-0.012068791,-0.020959238
20240312 02:43:23,-0.029125,0.089049,-0.179713,0.007131,0.010817,0.006157,-1.803509,36.893566,-15.602097,3.2938266,-0.13348585,0.091369025,-0.12917,0.009222454,0.010865905,7.6097436E-5
20240312 02:43:23,-0.051830,0.104380,-0.136547,-0.028025,0.009751,0.008288,-2.281284,37.815559,-16.872772,3.9225879,-0.12577574,0.1055205,-0.08258167,-0.017430995,0.008970153,0.023037525
20240312 02:43:23,-0.031826,0.109927,-0.093901,-0.054659,0.001228,0.008288,-2.175125,37.821941,-16.738174,3.70179,-0.083715744,0.11069104,-0.06118111,-0.03860759,-1.4370176E-5,0.03951266
20240312 02:43:23,0.010924,0.117201,0.001398,-0.063182,-0.010490,-0.000235,-2.114559,37.737000,-17.133926,3.4043584,0.008402074,0.117319815,-0.010981934,-0.05074732,-0.011357144,0.037994206
20240312 02:43:23,0.054657,0.091776,0.085238,-0.058920,-0.025405,-0.013019,-1.962421,37.642811,-16.188477,3.115886,0.0938568,0.09168339,0.03208005,-0.05496122,-0.025916487,0.025598507
20240312 02:43:23,0.045333,0.068652,0.130418,-0.046136,-0.032863,-0.025803,-2.253239,37.524952,-16.049698,3.7158828,0.112521,0.06781595,0.07499668,-0.05208918,-0.033310115,0.00803129
20240312 02:43:23,-0.036950,0.080454,0.130609,-0.026960,-0.029667,-0.026868,-2.227760,36.676155,-15.860077,3.9186625,0.045301802,0.077451095,0.1227657,-0.037101798,-0.029824875,-0.004264666
20240312 02:43:23,-0.086780,0.029049,0.148610,-0.005653,-0.026471,-0.017280,-2.297295,36.666077,-15.458191,4.313763,0.015779458,0.022662409,0.16918199,-0.014058078,-0.026225528,-0.00905473
20240312 02:43:23,-0.138423,-0.002182,0.200696,0.014589,-0.032863,0.000831,-2.094326,36.775707,-15.463333,3.9242458,0.0037806556,-0.010681264,0.24351126,0.013067672,-0.03241741,-0.0059638475
20240312 02:43:23,-0.103684,-0.006493,0.207784,0.043353,-0.041385,0.015746,-2.209831,36.866196,-15.872299,3.8980484,0.036714494,-0.012443662,0.22927323,0.045110818,-0.04061147,-0.010177299
20240312 02:43:23,-0.030467,-0.038733,0.115143,0.068921,-0.039255,0.018942,-2.139919,36.684387,-15.993698,3.6436853,0.042649783,-0.040739648,0.11320307,0.067583844,-0.038255207,-0.022670543
20240312 02:43:23,0.008284,-0.031780,0.100573,0.074248,-0.052039,0.011484,-2.660976,36.363731,-16.111938,4.286406,0.06608893,-0.03259656,0.0782021,0.067302525,-0.051197283,-0.0312179
20240312 02:43:23,0.048373,-0.034712,-0.031786,0.066791,-0.047778,-0.000235,-2.412800,36.756569,-15.867157,3.8554626,0.02029528,-0.03393,-0.052375585,0.053960912,-0.04704755,-0.037295725
20240312 02:43:23,0.049097,-0.015494,-0.060544,0.054006,-0.030732,-0.010888,-2.218410,36.579288,-15.585709,3.614551,0.0036635362,-0.014407158,-0.07698687,0.037239105,-0.030010749,-0.039265737
20240312 02:43:23,-0.031155,-0.058381,-0.045040,0.044418,-0.008360,-0.018346,-2.148499,36.397476,-15.707123,3.720439,-0.05094845,-0.058330543,-0.014781896,0.025100984,-0.0072795236,-0.04058433
20240312 02:43:23,-0.077783,-0.076222,-0.043400,0.045484,0.006555,-0.017280,-2.509613,36.653316,-15.727417,4.4568048,-0.08693353,-0.07741184,0.015590694,0.026477885,0.008099737,-0.041110657
20240312 02:43:23,-0.131883,-0.040586,-0.030573,0.055072,0.003359,-0.007692,-2.351467,36.287849,-15.701996,4.3199015,-0.12347631,-0.043682992,0.056080375,0.0397276,0.0050910455,-0.039024435
20240312 02:43:23,-0.121950,-0.037268,-0.033723,0.062529,-0.005164,0.005092,-2.254654,36.391098,-15.841736,4.1177764,-0.11730323,-0.039837603,0.04774677,0.05336681,-0.0035908544,-0.032857046
20240312 02:43:23,-0.102237,-0.053397,-0.126548,0.055072,-0.020078,0.013615,-2.139534,36.492496,-15.713242,4.007097,-0.15643902,-0.05358524,-0.0369782,0.052697908,-0.01877178,-0.020947862
20240312 02:43:23,-0.119653,-0.021023,-0.183160,0.035896,-0.028601,0.018942,-2.121220,36.490646,-15.444992,3.9637222,-0.2053141,-0.020494193,-0.072659545,0.040658474,-0.027981084,-0.004952331
20240312 02:43:23,-0.109266,-0.051589,-0.204565,0.011393,-0.029667,0.022138,-2.245308,36.294231,-15.567368,4.000344,-0.20940623,-0.05056951,-0.094452925,0.022909127,-0.029772764,0.012446021
20240312 02:43:23,-0.028465,-0.082016,-0.172444,-0.015241,-0.036059,0.023203,-1.718620,36.535496,-16.649658,2.9720936,-0.124778524,-0.08046964,-0.11780269,0.0020225942,-0.036551084,0.02918932
20240312 02:43:23,-0.035155,-0.045816,-0.100026,-0.038679,-0.049908,0.024268,-2.307411,37.146725,-16.293488,3.8723028,-0.0871022,-0.04509941,-0.056858987,-0.016006842,-0.050924785,0.04517419
20240312 02:43:23,-0.016277,-0.056096,-0.020416,-0.040809,-0.044581,0.028530,-2.122372,37.066315,-16.286407,3.5026336,-0.02458324,-0.056106232,-0.004080971,-0.015637787,-0.045480177,0.0492697
20240312 02:43:23,0.012195,-0.049815,0.067676,-0.023764,-0.032863,0.028530,-2.458778,36.857136,-16.678009,3.7714102,0.049952,-0.050085265,0.050069187,-0.0022479873,-0.03318883,0.03874892
20240312 02:43:23,0.090613,-0.031048,0.053453,-0.002457,-0.028601,0.025334,-2.494637,36.477058,-16.653564,3.6812437,0.10473786,-0.030966673,-0.008742731,0.012987665,-0.028634153,0.023349818
20240312 02:43:23,0.163526,-0.047167,0.045493,0.006066,-0.039255,0.015746,-2.045296,36.037560,-16.486435,2.8383706,0.15845451,-0.047936812,-0.058473215,0.014047999,-0.03922094,0.010633908
20240312 02:43:24,0.154106,0.026459,-0.009386,0.002870,-0.052039,-0.003431,-2.290516,36.011021,-15.817276,3.400972,0.118138336,0.026361793,-0.10066031,2.3517432E-4,-0.052042186,-0.0019819955
20240312 02:43:24,0.098349,0.037761,-0.044831,-0.000326,-0.038189,-0.013019,-2.306644,36.762947,-15.732559,3.6309943,0.051822744,0.038830373,-0.09657194,-0.00781135,-0.038111158,-0.00828233
20240312 02:43:24,-0.025642,0.011230,-0.075050,-0.001392,-0.009425,-0.009823,-2.606037,36.358181,-15.307205,4.317151,-0.06545676,0.01167685,-0.045460276,-0.006869521,-0.009335264,-0.006463196
20240312 02:43:24,-0.101066,0.006410,0.077741,-0.000326,0.004425,0.000831,-2.315609,36.667927,-15.726440,4.0471215,-0.036147773,0.0028815398,0.121788934,1.5242037E-4,0.004402016,6.094525E-4
20240312 02:43:24,-0.111196,0.022635,0.154538,0.016719,0.005490,0.017876,-2.510380,37.037094,-16.288361,4.3447,4.0078163E-4,0.017174639,0.1886366,0.023930743,0.00557851,0.00426088
20240312 02:43:24,-0.107703,0.091464,0.250529,0.050810,-0.005164,0.032791,-1.910824,37.462852,-16.578125,3.370311,0.0574632,0.08510111,0.261533,0.06046925,-0.0045640217,-0.0028735343
20240312 02:43:24,-0.061693,0.059037,0.299344,0.093424,-0.057366,0.031726,-2.253624,37.716843,-16.330170,3.7850692,0.124405384,0.05350008,0.27507928,0.09512393,-0.055948596,-0.02598508
20240312 02:43:24,-0.096591,0.154223,0.307419,0.129646,-0.137267,0.020007,-2.477093,36.858986,-16.946259,4.2628145,0.102613054,0.14677814,0.29465315,0.11841267,-0.1345964,-0.0529053
20240312 02:43:24,-0.101370,0.168941,0.272392,0.152019,-0.238475,0.008288,-2.191902,37.056236,-15.884521,3.6573114,0.07714213,0.1640538,0.27051088,0.13035585,-0.2360731,-0.07087943
20240312 02:43:24,-0.059448,0.036038,0.181695,0.146692,-0.340748,-0.016215,-2.712967,36.735580,-16.002747,4.2989645,0.060817365,0.03390664,0.17856586,0.11058942,-0.33898503,-0.08028683
20240312 02:43:24,-0.028311,0.047792,0.002625,0.133908,-0.374839,-0.024738,-2.766369,35.973572,-15.685608,4.3388515,-0.021317083,0.04758887,0.016182007,0.09417901,-0.37381223,-0.07736309
20240312 02:43:24,-0.051215,0.018038,-0.027621,0.127516,-0.362055,-0.009823,-2.872910,36.159081,-16.100693,4.3272834,-0.057574145,0.017967235,0.0076147728,0.09673438,-0.36174187,-0.06250679
20240312 02:43:24,0.009724,-0.126875,-0.107517,0.112601,-0.308788,0.014680,-2.802227,35.593494,-15.661148,3.9624257,-0.057501666,-0.1276827,-0.08467572,0.09684886,-0.3096871,-0.038671013
20240312 02:43:24,0.063644,-0.223083,-0.162855,0.091294,-0.225691,0.026399,-2.475555,36.091431,-15.824371,3.3407774,-0.04726493,-0.22520876,-0.158176,0.08721227,-0.22650763,-0.022340927
20240312 02:43:24,0.096719,-0.155164,-0.041533,0.076379,-0.152182,0.034922,-3.066914,36.144470,-16.101669,4.0010815,0.051040232,-0.15742141,-0.08209491,0.08014846,-0.15305498,-0.008836729
20240312 02:43:24,0.160790,-0.141793,-0.114569,0.072117,-0.071215,0.033856,-3.086380,36.721989,-17.211319,3.758339,0.057923846,-0.14716405,-0.1803779,0.07685777,-0.07221904,-0.012363391
20240312 02:43:24,0.171050,-0.163866,-0.084840,0.061464,-0.021144,0.017876,-2.759323,37.028034,-17.094070,3.1835632,0.08373684,-0.16966681,-0.16266766,0.05960696,-0.022344511,-0.021363372
20240312 02:43:24,0.137581,-0.120656,-0.027975,0.048680,-0.015817,-0.004496,-3.058720,36.623268,-16.668716,3.9343295,0.09167848,-0.12331442,-0.09831887,0.036023457,-0.016695186,-0.031952873
20240312 02:43:24,0.032795,-0.039496,-0.010481,0.040157,-0.022209,-0.019411,-2.995583,37.096516,-16.431030,4.1928973,0.019803427,-0.039686732,-0.025733259,0.02039357,-0.022465838,-0.03828633
20240312 02:43:24,-0.034428,-0.025664,0.112655,0.044418,-0.027536,-0.027934,-2.750359,37.123055,-17.100189,3.7461367,0.0394399,-0.024938399,0.11211003,0.01886674,-0.02793492,-0.047422238
20240312 02:43:24,-0.045980,-0.043150,0.125626,0.067856,-0.008360,-0.031130,-2.555592,36.753887,-16.538269,3.7363966,0.037508447,-0.04326764,0.13046706,0.036178857,-0.008282805,-0.06481484
20240312 02:43:24,-0.114391,-0.149930,0.097460,0.096620,0.019339,-0.031130,-2.926048,37.106594,-16.832916,4.3849607,-0.033630535,-0.15107964,0.15531015,0.059250593,0.020079592,-0.08347944
20240312 02:43:24,-0.194031,-0.126907,0.014316,0.108339,0.043842,-0.020476,-3.234409,36.606812,-16.401443,5.248857,-0.1443368,-0.13038726,0.13782044,0.073404096,0.045953747,-0.08489004
20240312 02:43:24,-0.285691,-0.017413,-0.086231,0.094490,0.064084,0.012549,-2.998154,36.538330,-17.064484,5.151458,-0.27816242,-0.022899114,0.10863987,0.081070594,0.06618071,-0.05263038
20240312 02:43:24,-0.271912,-0.016898,-0.200161,0.062529,0.086456,0.050902,-3.059105,36.815159,-16.949188,4.995966,-0.33721024,-0.018939521,0.01220344,0.07939781,0.08683649,-0.004644301
20240312 02:43:24,-0.164505,0.031373,-0.169980,0.022046,0.088587,0.075405,-3.057568,36.047604,-15.827301,4.7116785,-0.23439676,0.031237293,-0.03416144,0.06351657,0.08842831,0.03989128
20240312 02:43:24,0.020045,0.065446,-0.076636,-0.009914,0.069411,0.075405,-3.136448,36.134392,-15.699783,4.31796,-0.030595802,0.064426064,-0.07650702,0.03916759,0.07027281,0.061303433
20240312 02:43:24,0.195875,0.077203,-0.047915,-0.015241,0.058757,0.049837,-3.260918,36.129864,-16.102646,3.9040003,0.12733471,0.06991957,-0.16193755,0.01987447,0.060382158,0.045473065
20240312 02:43:24,0.298512,0.024847,0.046762,-0.008849,0.043842,0.008288,-2.846016,36.444141,-16.119019,3.1057892,0.26673904,0.015260734,-0.14429122,-8.370774E-4,0.044346884,0.01004917
20240312 02:43:24,0.289419,-0.017986,0.033515,0.010327,0.033189,-0.026868,-3.067684,36.528248,-16.662598,3.5020957,0.2503099,-0.0263512,-0.14751941,-0.007212136,0.03218703,-0.029218055
20240312 02:43:24,0.218369,-0.030981,0.060077,0.039092,0.045973,-0.054567,-2.468128,36.954006,-16.952377,2.8549235,0.2099885,-0.03492036,-0.082306355,-8.276999E-4,0.044122454,-0.068879485
20240312 02:43:24,0.106117,-0.057744,0.026261,0.066791,0.065149,-0.071613,-2.846786,36.827919,-16.679962,3.9582026,0.10006744,-0.058233257,-0.04031489,0.009998713,0.064456,-0.10088352
20240312 02:43:24,-0.096301,-0.019900,-0.059926,0.083836,0.097110,-0.065221,-3.085999,36.530098,-16.930847,4.990894,-0.11255445,-0.020676292,0.013377074,0.024946127,0.09920437,-0.10942826
20240312 02:43:24,-0.258213,0.037680,-0.129676,0.077444,0.117351,-0.032195,-3.121090,35.766243,-16.345444,5.5409894,-0.28385627,0.033303693,0.05555086,0.03834312,0.12014502,-0.0819984
20240312 02:43:24,-0.264737,0.066971,-0.116161,0.052941,0.105633,0.013615,-3.006351,36.059532,-16.497421,5.1787863,-0.28102833,0.06296446,0.06817914,0.048099596,0.10655691,-0.029596426
20240312 02:43:24,-0.166259,0.040979,-0.116405,0.029503,0.093914,0.043445,-2.847439,35.310287,-15.911041,4.71889,-0.20304404,0.04003589,0.008853048,0.04911144,0.093843676,0.009741053
20240312 02:43:24,-0.066954,0.004962,-0.120051,0.025242,0.096044,0.057294,-2.802227,35.593494,-15.661148,4.269143,-0.12660506,0.0049786563,-0.053571634,0.055081055,0.096032605,0.023913559
20240312 02:43:24,0.056334,-0.013713,-0.081140,0.028438,0.091783,0.055163,-3.269501,35.842957,-15.816055,4.723619,-0.005651664,-0.0144870905,-0.09751354,0.056839824,0.09187488,0.019846197
20240312 02:43:24,0.139672,0.012625,-0.094569,0.025242,0.081130,0.048771,-2.917736,35.683983,-16.070114,3.9039931,0.051174197,0.009230987,-0.1612826,0.051043734,0.08132312,0.01820778
20240312 02:43:24,0.166694,0.027303,-0.183657,0.012458,0.077934,0.035987,-2.459816,35.531391,-16.189575,3.155876,0.016682886,0.021728694,-0.24845065,0.033237625,0.07820072,0.017024733
20240312 02:43:24,0.158058,0.016913,-0.137406,-0.008849,0.061953,0.022138,-2.829510,35.500324,-15.923264,4.003281,0.03986609,0.014484785,-0.2062952,0.007122497,0.062188357,0.019437648
20240312 02:43:24,0.090093,0.034184,0.013337,-0.016306,0.038516,0.010419,-2.405640,35.909622,-15.945770,3.4923308,0.0796032,0.03388506,-0.046094626,-0.006446387,0.038606253,0.016332097
20240312 02:43:24,0.072307,-0.005470,0.102274,-0.000326,0.039581,0.001896,-2.635506,35.514935,-15.922287,3.8534353,0.119263195,-0.005451673,0.038327504,9.974721E-4,0.03958746,-4.1758653E-4
20240312 02:43:24,0.026924,-0.067532,0.212177,0.035896,0.054496,-0.001300,-2.687489,35.886784,-15.813126,4.1287646,0.14820693,-0.06801241,0.15784293,0.027907368,0.05463138,-0.025576618
20240312 02:43:24,-0.101820,-0.010653,0.313169,0.076379,0.058757,0.009353,-2.483753,35.612633,-15.257324,4.24306,0.10594554,-0.016090866,0.31177193,0.06607534,0.059869513,-0.041721378
20240312 02:43:24,-0.117392,-0.010311,0.311079,0.120058,0.061953,0.024268,-2.926701,35.588966,-16.064011,4.9440627,0.09211249,-0.01673782,0.31928957,0.10987034,0.06381183,-0.056723915
20240312 02:43:24,-0.115037,0.002746,0.363329,0.170129,0.040646,0.054098,-2.654968,36.092449,-17.031967,4.0511613,0.122964576,6.164792E-4,0.359831,0.16887684,0.041369732,-0.059819564
20240312 02:43:24,0.036971,-0.117610,0.278203,0.207417,0.003359,0.067948,-2.743195,36.276108,-17.178787,3.7976382,0.19567606,-0.11656124,0.20640428,0.20681408,0.002402599,-0.07009966
20240312 02:43:24,0.116734,-0.075415,0.104285,0.223397,-0.034993,0.063686,-2.424339,36.103359,-16.494492,3.2321024,0.15543947,-0.07582623,0.014678277,0.21556163,-0.036993377,-0.08430713
20240312 02:43:24,0.138484,-0.024818,0.011858,0.205286,-0.071215,0.043445,-2.697605,36.367428,-16.648422,3.4903271,0.11608393,-0.02678511,-0.0748135,0.18760316,-0.07381538,-0.08891593
20240312 02:43:24,0.137032,0.059861,0.065828,0.169064,-0.092522,0.018942,-2.530880,36.288868,-16.909576,3.3168046,0.14884642,0.058782645,-0.03645472,0.14325288,-0.09445575,-0.08612595
20240312 02:43:24,0.124898,0.077379,0.008394,0.139234,-0.056300,-0.004496,-2.761127,36.086067,-17.166565,3.7077143,0.10400543,0.076106325,-0.07457024,0.10617971,-0.05782271,-0.08674965
20240312 02:43:24,0.082222,-0.014531,0.096813,0.128581,-0.001968,-0.021542,-2.697990,36.559319,-16.928894,3.686192,0.124219865,-0.014585394,0.026659288,0.08836655,-0.0031025645,-0.09571075
20240312 02:43:24,0.071114,-0.085672,0.093455,0.130712,0.033189,-0.022607,-2.681862,35.807392,-17.013626,3.8416872,0.11316902,-0.085667275,0.034832705,0.08969421,0.032636095,-0.09953901
20240312 02:43:24,0.048087,-0.082434,0.170846,0.125385,0.044908,-0.006627,-2.768940,35.415382,-16.319031,3.9932747,0.14236255,-0.081956014,0.10970642,0.09519525,0.04417104,-0.0845586
20240312 02:43:24,0.060412,-0.033969,0.073816,0.128581,0.066215,0.014680,-3.078072,35.299377,-16.448517,4.502681,0.09306328,-0.033977177,0.022285908,0.11015689,0.06569111,-0.07241564
20240312 02:43:24,0.054542,-0.003261,0.069190,0.143496,0.091783,0.020007,-2.584671,35.718750,-16.872894,3.6524258,0.085647985,-0.0032610989,0.020637482,0.12551405,0.09102898,-0.07772749
20240312 02:43:24,0.080605,-0.019084,0.207474,0.155215,0.070476,0.013615,-2.488628,36.205776,-17.573578,3.481186,0.19053653,-0.018756319,0.11556872,0.13139832,0.06987908,-0.08749172
20240312 02:43:24,0.047594,0.016347,0.288803,0.171195,0.033189,0.005092,-2.302822,35.741589,-17.005554,3.4318292,0.21574198,0.016241303,0.19662195,0.13779718,0.03328797,-0.103262015
20240312 02:43:24,-0.016930,-0.002422,0.195805,0.205286,0.052365,0.004027,-2.585052,35.910641,-17.153366,4.0375953,0.107952006,-0.0036312449,0.1639914,0.16340286,0.05378934,-0.12684943
20240312 02:43:24,-0.078791,-0.063790,0.085208,0.243638,0.074737,0.014680,-2.293472,35.644722,-16.731186,3.8205283,-0.007751867,-0.06558154,0.11892408,0.19877663,0.07756906,-0.14452647
20240312 02:43:24,-0.124901,-0.067249,-0.083070,0.255357,0.078999,0.034922,-2.822731,34.845268,-16.282364,4.865581,-0.1482814,-0.0681504,0.02015064,0.21802613,0.08266949,-0.14099988
20240312 02:43:24,-0.114948,0.016543,-0.184228,0.230854,0.070476,0.062621,-2.540882,34.868107,-16.415024,4.3537664,-0.20744723,0.017113015,-0.06527106,0.21505487,0.07279345,-0.10724807
20240312 02:43:24,-0.054759,0.094120,-0.368499,0.189306,0.107763,0.083928,-2.558811,34.678066,-16.402802,4.356937,-0.28477192,0.0971892,-0.24586406,0.1966466,0.10908434,-0.06782706
20240312 02:43:24,-0.004910,0.052841,-0.232234,0.163737,0.152508,0.096712,-2.337914,34.977734,-16.420166,3.3717177,-0.15358263,0.05159578,-0.17607075,0.18827829,0.15197235,-0.03903698
20240312 02:43:24,0.142461,-0.026507,-0.154613,0.157345,0.164227,0.098843,-2.232136,35.176003,-16.566025,3.1198592,0.008702144,-0.028825767,-0.2087749,0.18513843,0.16359065,-0.03311152
20240312 02:43:24,0.148779,0.004796,-0.196316,0.161607,0.162096,0.098843,-2.181305,35.379822,-17.516617,2.9320958,-0.016397305,0.0017143125,-0.24576491,0.18817402,0.16135225,-0.037735634
20240312 02:43:24,0.135410,0.122466,-0.216035,0.155215,0.136528,0.089255,-2.296043,35.086533,-17.364639,3.1379008,-0.041166052,0.11929115,-0.256213,0.17648676,0.13578217,-0.042034023
20240312 02:43:24,0.170589,0.135000,-0.347249,0.132842,0.106698,0.074340,-2.111004,35.006123,-17.357544,2.6611452,-0.103975594,0.12750398,-0.376487,0.14990924,0.105659544,-0.037510652
20240312 02:43:24,0.246655,0.097417,-0.411780,0.090228,0.091783,0.053033,-1.950672,35.390732,-16.979141,2.2286098,-0.09362131,0.08421348,-0.4729492,0.10414273,0.09086232,-0.02436446
20240312 02:43:24,0.227521,0.075772,-0.522697,0.044418,0.100306,0.026399,-2.199619,35.381668,-17.784866,2.7729502,-0.18404879,0.065444626,-0.5414225,0.051926255,0.09999039,-0.014123676
20240312 02:43:24,0.133044,0.133578,-0.455163,0.002870,0.112025,0.010419,-2.217163,34.999741,-17.492157,3.4349523,-0.20767936,0.13458957,-0.43174326,0.0089397775,0.112012126,8.014939E-4
20240312 02:43:24,-0.069743,0.112778,-0.287139,-0.029091,0.108829,0.016811,-2.217163,34.999741,-17.492157,4.013596,-0.24387768,0.11615918,-0.17483222,-0.012518216,0.10797581,0.026092097
20240312 02:43:24,-0.092897,0.085075,-0.102519,-0.047202,0.089652,0.046641,-2.535255,34.788712,-17.615509,4.5679216,-0.13876852,0.084939025,-0.022194888,-0.0070730466,0.087786175,0.060603045
20240312 02:43:24,-0.123251,-0.012299,-0.049405,-0.033352,0.108829,0.077536,-2.144291,35.184231,-16.699646,3.936384,-0.12601498,-0.0139806485,0.041915227,0.022270834,0.10676852,0.07500142
20240312 02:43:24,-0.051324,-0.109636,0.037501,0.009262,0.138658,0.098843,-1.977180,34.913784,-16.680328,3.2402494,-0.015353836,-0.110202745,0.066273935,0.06896515,0.1381543,0.06444857
20240312 02:43:24,0.109719,-0.139795,0.059611,0.054006,0.125874,0.094581,-2.073223,34.426758,-15.979645,3.0453997,0.12194328,-0.14013784,-0.018010974,0.10238834,0.12600672,0.033454217
20240312 02:43:24,0.181647,-0.064043,0.062596,0.084902,0.067280,0.072209,-1.845932,34.263256,-16.636566,2.3414168,0.17845717,-0.06601535,-0.06708232,0.11231634,0.06689465,-0.0015540756
20240312 02:43:24,0.241806,0.010853,0.058006,0.093424,-0.015817,0.037052,-2.013809,34.917480,-17.216827,2.2314181,0.2221866,0.0062396815,-0.112416044,0.09489892,-0.017292885,-0.031676523
20240312 02:43:24,0.382182,0.036686,0.015309,0.081706,-0.090391,-0.002365,-1.944279,34.927563,-17.618698,1.8252028,0.30001467,0.025060153,-0.23938636,0.057781994,-0.09294536,-0.053073227
20240312 02:43:24,0.307617,0.058864,-0.198095,0.045484,-0.091457,-0.027934,-2.225742,34.712833,-17.205582,2.5147989,0.09986468,0.04662458,-0.35417077,0.0134206135,-0.093178965,-0.048067987
20240312 02:43:24,0.269916,-0.001486,-0.265941,-0.012045,-0.046712,-0.042849,-1.801491,34.930244,-16.947601,2.1109579,0.0293542,-0.010821442,-0.3776049,-0.037943732,-0.04716726,-0.023124019
20240312 02:43:24,0.194876,-0.065515,-0.133289,-0.079162,-0.009425,-0.066286,-2.294891,34.510864,-16.523224,3.1657405,0.06212177,-0.069002345,-0.22469133,-0.10333431,-0.0091613615,9.7359344E-4
20240312 02:43:24,0.182088,-0.087987,0.040098,-0.142018,0.012947,-0.101443,-1.995110,34.723743,-16.668106,2.641867,0.16555892,-0.089824975,-0.080902174,-0.17403159,0.013679521,0.010768525
20240312 02:43:24,0.408359,-0.236962,0.458756,-0.139887,0.017209,-0.158972,-2.294891,34.510864,-16.523224,1.8343484,0.5870559,-0.24146517,0.15293093,-0.20449159,0.018820064,-0.052200124
20240312 02:43:24,0.063796,-0.325675,0.497242,-0.028025,0.077934,-0.241003,-1.994732,34.531857,-16.387650,3.6218014,0.36019468,-0.33128798,0.36860985,-0.17119896,0.08072517,-0.17645322
20240312 02:43:24,-0.041190,0.210660,0.894573,0.111535,0.126940,-0.228219,-2.100887,34.525475,-16.522247,2.5134103,0.4999997,0.2258605,0.7369406,-0.043265507,0.120787434,-0.2542417
20240312 02:43:24,0.393870,-0.210515,1.408431,0.229789,0.003359,-0.247395,-1.899071,35.210770,-17.368805,1.984586,1.1065664,-0.19601257,0.95680815,0.05350633,-0.0070167454,-0.3333773
20240312 02:43:24,0.367201,-0.405802,1.048854,0.394918,-0.047778,-0.333689,-2.092690,35.004272,-17.089294,2.5141892,0.9007888,-0.39843,0.6564916,0.12831987,-0.059921306,-0.4987167
20240312 02:43:24,0.252494,-0.310224,0.815528,0.538740,-0.038189,-0.415720,-2.129704,35.199860,-17.906265,3.1272366,0.68905866,-0.31018278,0.5165938,0.18446116,-0.038287222,-0.65284
20240312 02:43:24,0.017050,-0.188308,0.703073,0.630360,-0.059496,-0.461530,-2.050053,34.729294,-17.472839,3.9088929,0.45022398,-0.20148975,0.5519572,0.21321961,-0.034779202,-0.7479278
20240312 02:43:24,-0.247204,-0.095361,0.450699,0.670843,-0.087195,-0.461530,-2.589043,34.218597,-17.578827,5.8576,0.09762362,-0.12933072,0.51108146,0.23173672,-0.028726827,-0.77323306
20240312 02:43:24,-0.511882,-0.043561,0.242701,0.683627,-0.107437,-0.417851,-2.386459,34.520115,-17.864441,6.606097,-0.22744896,-0.10382791,0.52045697,0.2549705,-0.019154394,-0.7511983
20240312 02:43:24,-0.659880,-0.004541,-0.029423,0.661255,-0.103176,-0.352865,-2.676506,34.018478,-17.164749,7.6665277,-0.505687,-0.065324284,0.42491803,0.26003686,-0.007655503,-0.6945064
20240312 02:43:24,-0.811917,0.078892,-0.391178,0.603726,-0.069084,-0.278291,-2.378532,33.289391,-17.382111,8.291877,-0.858093,0.02857894,0.28645998,0.24487525,0.033375114,-0.6129179
20240312 02:43:24,-0.811251,0.199004,-0.608589,0.515302,-0.010490,-0.188801,-2.695854,32.694584,-16.944534,8.924565,-1.0186718,0.17607114,0.14490393,0.22495346,0.069620356,-0.49920598
20240312 02:43:24,-0.760334,0.264995,-0.800375,0.401310,0.063019,-0.091855,-2.396076,32.907463,-17.089432,8.015741,-1.1259203,0.27123162,-0.014460921,0.2020343,0.11240402,-0.36066365
20240312 02:43:24,-0.622057,0.240990,-0.733802,0.285187,0.123744,-0.000235,-2.830059,32.978813,-17.902222,8.587649,-0.9801862,0.25407588,-0.066693485,0.18213174,0.14990729,-0.22091664
20240312 02:43:24,-0.553734,0.175672,-0.727423,0.186110,0.165292,0.071144,-2.326927,33.109428,-17.771774,7.3278136,-0.920403,0.19247195,-0.11271906,0.16442004,0.1736862,-0.1005249
20240312 02:43:24,-0.467545,0.101372,-0.563902,0.120058,0.167423,0.116954,-2.372517,33.018112,-18.302139,7.174791,-0.7355642,0.1093788,-0.06836328,0.15287225,0.16635546,-0.018787242
20240312 02:43:25,-0.388340,0.001904,-0.454509,0.068921,0.116286,0.139326,-2.433086,33.103050,-17.906372,6.973316,-0.59439456,0.0072764885,-0.042064697,0.13785456,0.1100871,0.03849432
20240312 02:43:25,-0.308900,0.056767,-0.409701,0.002870,0.027862,0.141457,-2.635288,32.609646,-17.340302,6.8497653,-0.51124716,0.06345504,-0.06921579,0.10073541,0.018734362,0.094002046
20240312 02:43:25,-0.194788,0.051880,-0.498800,-0.091946,-0.062692,0.128672,-2.220001,32.732033,-17.076233,5.943034,-0.49551392,0.07016796,-0.2093479,0.03175981,-0.07546016,0.15962528
20240312 02:43:25,-0.153536,0.032691,-0.413210,-0.196350,-0.137267,0.111627,-2.510815,32.614174,-16.937439,5.671035,-0.39864373,0.042870194,-0.19076982,-0.057944432,-0.14966148,0.22615162
20240312 02:43:25,0.040794,-0.021437,-0.015285,-0.269859,-0.211841,0.103104,-2.653217,32.419605,-17.328079,5.156104,0.020053899,-0.020140847,-0.037452906,-0.12366076,-0.22027686,0.27255303
20240312 02:43:25,0.174372,-0.136736,0.176516,-0.269859,-0.191600,0.093516,-2.368412,32.808746,-16.546814,3.9748611,0.24803942,-0.13664098,0.024623722,-0.14051965,-0.1932465,0.2580161
20240312 02:43:25,0.325906,-0.241776,0.340316,-0.202742,-0.091457,0.071144,-2.281334,33.200752,-17.241394,3.4800296,0.4680332,-0.24188012,0.06018029,-0.10909945,-0.09073148,0.189368
20240312 02:43:25,0.326318,-0.288921,0.471757,-0.095142,0.041712,0.041314,-2.160583,33.222759,-18.313400,3.2030241,0.55219126,-0.28869987,0.16434173,-0.04636472,0.042127468,0.09089258
20240312 02:43:25,0.310081,-0.251084,0.514171,0.006066,0.159965,-0.001300,-2.430901,33.853127,-17.553406,3.8046489,0.5678016,-0.2513193,0.20838687,0.0035613533,0.15997909,-0.013033895
20240312 02:43:25,0.128622,-0.063766,0.587846,0.060399,0.201514,-0.036457,-2.581886,33.371651,-17.657455,4.9398494,0.48334938,-0.07339992,0.36253393,0.017351247,0.20373623,-0.08011637
20240312 02:43:25,-0.043343,0.249649,0.559076,0.068921,0.180207,-0.044979,-2.670113,33.555309,-17.804291,5.766546,0.33334798,0.22541396,0.42234573,0.013761362,0.1846424,-0.092868425
20240312 02:43:25,-0.188496,0.479873,0.585701,0.045484,0.110959,-0.030064,-2.512352,33.381729,-18.059341,5.801723,0.233863,0.44267878,0.52122027,0.0082145315,0.1143419,-0.061049603
20240312 02:43:25,-0.229773,0.540422,0.609005,0.000739,0.007621,-0.006627,-2.167362,33.877815,-17.954300,5.223902,0.2192033,0.49980658,0.5650804,-0.0042980006,0.007944187,-0.0058549447
20240312 02:43:25,-0.132336,0.548918,0.619682,-0.044006,-0.085065,0.008288,-2.175945,33.590912,-17.667725,4.9059267,0.3013788,0.51978797,0.50932306,-0.023615303,-0.08701677,0.041232705
20240312 02:43:25,-0.083889,0.569601,0.690974,-0.067443,-0.146855,0.005092,-2.485458,33.666786,-18.077682,4.9682236,0.38570952,0.5477733,0.5300054,-0.042574875,-0.14890252,0.058457214
20240312 02:43:25,0.059706,0.536312,0.930240,-0.046136,-0.168162,-0.000235,-2.564720,33.945465,-18.230621,4.5844855,0.64228183,0.52231115,0.63228863,-0.03246196,-0.16897127,0.040067043
20240312 02:43:25,0.133965,0.281161,1.120102,0.025242,-0.170293,-0.013019,-2.388260,33.578148,-17.936951,4.235481,0.8081615,0.26842204,0.7645868,0.0135832885,-0.16967233,-0.016275767
20240312 02:43:25,0.074725,0.130962,1.191986,0.136038,-0.164966,-0.034326,-2.554604,33.464821,-17.395325,4.891092,0.7979323,0.10692559,0.8735483,0.08861542,-0.16039151,-0.10052201
20240312 02:43:25,-0.145750,0.183136,1.316867,0.254292,-0.208645,-0.035391,-2.308228,32.915691,-17.223053,5.5023394,0.7158691,0.11720763,1.0901382,0.1827859,-0.19308738,-0.17361723
20240312 02:43:25,-0.547253,0.415575,1.120687,0.328866,-0.331160,0.030660,-2.880890,32.774994,-16.951630,7.540772,0.2997654,0.28832477,1.1535575,0.29008085,-0.3047779,-0.16290855
20240312 02:43:25,-0.474467,0.073832,0.186648,0.378938,-0.267239,0.075405,-3.286831,32.555737,-16.941345,7.4724865,-0.22792308,0.03582664,0.4499859,0.34443408,-0.24827121,-0.17537779
20240312 02:43:25,-0.188153,-0.215420,0.013846,0.410898,-0.168162,0.104169,-3.033413,33.061073,-18.177551,5.80161,-0.124741495,-0.22091302,0.15260646,0.3788002,-0.15912852,-0.18625489
20240312 02:43:25,0.035270,-0.321651,0.030004,0.419421,-0.127679,0.105235,-3.014717,32.867332,-17.628845,5.095173,0.04887162,-0.32155454,0.019736953,0.38281575,-0.12477987,-0.19492546
20240312 02:43:25,0.164753,-0.253271,0.080132,0.420486,-0.130875,0.093516,-2.963493,32.879265,-18.298965,4.759373,0.17621338,-0.25297192,-0.037488624,0.37295866,-0.12978235,-0.20846717
20240312 02:43:25,0.139167,-0.257059,-0.046384,0.437532,-0.117025,0.077536,-3.042377,32.966053,-18.171448,4.986482,0.07016588,-0.25607923,-0.11320605,0.37104747,-0.1150909,-0.23821306
20240312 02:43:25,0.059352,-0.376986,-0.180313,0.471623,-0.070150,0.048771,-3.138420,32.479027,-17.470749,5.3353863,-0.07729158,-0.37517005,-0.1459783,0.37785286,-0.0668027,-0.28249025
20240312 02:43:25,0.063802,-0.479834,-0.005144,0.513171,-0.048843,0.018942,-3.307716,31.999399,-17.843033,5.765572,0.048898168,-0.4789498,-0.0112060085,0.39225593,-0.042892553,-0.3284968
20240312 02:43:25,-0.043272,-0.506220,0.041096,0.551524,-0.030732,-0.005561,-3.361504,31.429281,-17.806351,6.482261,0.008550482,-0.507991,0.1010901,0.3994174,-0.01656909,-0.37857342
20240312 02:43:25,-0.146758,-0.487219,-0.115444,0.578158,0.023601,-0.017280,-3.132793,32.399635,-18.671249,6.2586794,-0.17058367,-0.48790246,0.05697874,0.40491042,0.042921886,-0.41412663
20240312 02:43:25,-0.225864,-0.550465,-0.203126,0.566439,0.104567,-0.014084,-3.035599,32.310997,-18.530533,6.6001124,-0.27993923,-0.5506984,0.05791366,0.39224407,0.12972246,-0.41317055
20240312 02:43:25,-0.328040,-0.523344,-0.260685,0.519564,0.190860,-0.001300,-3.459465,31.901699,-18.508026,8.074488,-0.38427186,-0.5255769,0.10063535,0.35580903,0.22161077,-0.38648763
20240312 02:43:25,-0.477776,-0.511649,-0.252124,0.463100,0.284611,0.039183,-3.310669,31.633099,-18.756958,8.406515,-0.4788888,-0.5256481,0.21197163,0.3359318,0.31418657,-0.32778144
20240312 02:43:25,-0.540811,-0.551354,-0.055647,0.429009,0.342140,0.103104,-3.082996,31.277708,-19.133408,8.45017,-0.3860436,-0.5885659,0.3914841,0.35418597,0.36759728,-0.25814655
20240312 02:43:25,-0.617663,-0.632189,0.157787,0.432205,0.355989,0.180874,-2.631851,31.780176,-18.893784,7.832471,-0.29161417,-0.69587964,0.59883046,0.40862423,0.37686166,-0.19955592
20240312 02:43:25,-0.673091,-0.701965,0.154480,0.483342,0.366643,0.254384,-2.764904,31.488737,-19.010040,8.433112,-0.32051992,-0.7751435,0.6478165,0.49109253,0.38699898,-0.18758747
20240312 02:43:25,-0.677774,-0.737418,0.040982,0.561112,0.382623,0.307651,-2.888992,31.292318,-19.132431,8.295611,-0.3971655,-0.7940899,0.5768695,0.5836363,0.4026254,-0.21101508
20240312 02:43:25,-0.496296,-0.766049,0.027054,0.632490,0.374100,0.330023,-2.570129,31.119570,-18.448135,6.8415375,-0.2901497,-0.79628885,0.43035164,0.6597596,0.39250475,-0.23720798
20240312 02:43:25,-0.327927,-0.672151,0.082174,0.688954,0.326160,0.336415,-2.790642,30.628012,-18.150284,7.061269,-0.13500856,-0.6933234,0.3481896,0.7051598,0.34509215,-0.28075218
20240312 02:43:25,-0.307615,-0.611231,-0.130096,0.743287,0.300591,0.341742,-2.360386,30.574141,-18.812347,6.911549,-0.2601529,-0.6191913,0.18897294,0.73199654,0.32333532,-0.34247708
20240312 02:43:25,-0.395011,-0.632399,-0.574920,0.795489,0.354924,0.350265,-2.325558,29.628477,-18.348358,7.559138,-0.6379931,-0.60736954,-0.0065015256,0.7453613,0.3791257,-0.42065188
20240312 02:43:25,-0.278157,-0.516623,-1.107936,0.827449,0.475308,0.360918,-2.017967,30.512039,-19.340775,5.7142043,-1.0104305,-0.46546233,-0.43357643,0.7688825,0.490546,-0.4557472
20240312 02:43:25,-0.092975,-0.575565,-0.795684,0.817861,0.482766,0.357722,-1.569012,30.264427,-19.454117,4.357281,-0.6542617,-0.5451035,-0.3966207,0.7705922,0.4943716,-0.43764973
20240312 02:43:25,-0.090043,-0.442491,-0.815029,0.760332,0.394342,0.343873,-1.780945,30.059780,-19.442871,5.4424415,-0.68320227,-0.39793566,-0.38228488,0.70330614,0.40569887,-0.43291056
20240312 02:43:25,-0.183080,-0.168693,-1.133341,0.667647,0.341075,0.353461,-1.631767,29.599291,-19.411331,5.9567924,-1.0278493,-0.09198952,-0.46358004,0.63772273,0.34659255,-0.37992585
20240312 02:43:25,-0.227274,-0.001290,-1.329215,0.549393,0.340009,0.380095,-2.155010,28.528559,-19.882523,7.2414722,-1.2425541,0.09424023,-0.5057706,0.5846272,0.33550712,-0.2888859
20240312 02:43:25,-0.180063,-0.020399,-1.473617,0.435401,0.385819,0.416316,-1.180618,30.101759,-19.171692,4.651878,-1.3469596,0.065903924,-0.61049783,0.5567969,0.3752326,-0.17182617
20240312 02:43:25,-0.060905,-0.068131,-1.475547,0.330997,0.447609,0.441885,-1.527027,28.471819,-19.068741,4.3877096,-1.2857813,-0.012887415,-0.7145282,0.53217924,0.43799135,-0.06971614
20240312 02:43:25,0.081330,-0.064004,-1.446847,0.244704,0.503007,0.449342,-1.236210,28.589678,-19.207504,2.673188,-1.1954739,-0.049254026,-0.8156384,0.5061518,0.50000274,0.010613099
20240312 02:43:25,0.204656,-0.009392,-1.450697,0.176522,0.562667,0.439754,-0.884445,28.430704,-19.461578,1.2096164,-1.1435012,-0.024997246,-0.9156127,0.47385263,0.56595594,0.06632097
20240312 02:43:25,0.370424,0.123308,-1.423721,0.108339,0.612738,0.418447,-0.539841,29.118681,-19.637024,-0.508157,-1.0205424,0.064177334,-1.0536654,0.43569192,0.6248381,0.12685806
20240312 02:43:25,0.575278,0.228974,-0.926371,0.029503,0.563732,0.397140,-0.699791,28.542183,-19.734970,-1.9558572,-0.43281963,0.1287739,-0.9871145,0.38852942,0.5900277,0.20566282
20240312 02:43:25,0.740388,0.315526,-0.688099,-0.057855,0.432694,0.379029,-0.372353,28.656343,-19.337250,-2.7377164,-0.13783085,0.21776398,-0.98824406,0.31832176,0.4647331,0.26823524
20240312 02:43:25,0.762603,0.423603,-0.731931,-0.114319,0.344271,0.366245,-0.266190,28.662724,-19.202621,-3.3407972,-0.14519662,0.3071416,-1.0258429,0.271656,0.38282582,0.3085904
20240312 02:43:25,0.876770,0.486518,-0.502179,-0.130299,0.293134,0.352396,0.007076,28.398655,-19.048706,-4.1720123,0.13602838,0.372698,-0.9860017,0.24313018,0.3350257,0.31894696
20240312 02:43:25,0.903049,0.502110,-0.319330,-0.123907,0.261173,0.330023,-0.293468,28.569551,-19.464767,-3.5730388,0.31264022,0.4056412,-0.90278864,0.22080232,0.29977494,0.3010928
20240312 02:43:25,0.896177,0.509870,-0.155148,-0.097273,0.248389,0.299128,-0.141720,28.667253,-18.799774,-3.5933945,0.45656028,0.43104866,-0.79327464,0.20376712,0.28095058,0.26513034
20240312 02:43:25,0.840777,0.501426,0.046854,-0.052528,0.228148,0.263972,0.017197,27.918009,-18.213394,-3.4490092,0.582481,0.45099956,-0.62679034,0.19736882,0.25181276,0.2082429
20240312 02:43:25,0.748862,0.490192,0.015363,0.007131,0.231344,0.238403,0.070984,28.488125,-18.250076,-3.3233106,0.4979818,0.44581944,-0.5740966,0.21238361,0.24831536,0.14460759
20240312 02:43:25,0.714433,0.429833,0.034235,0.066791,0.233474,0.216031,0.183537,28.031334,-18.755020,-3.4188745,0.48931792,0.391113,-0.5339223,0.2289422,0.24458148,0.08512384
20240312 02:43:25,0.717432,0.399610,0.088575,0.113666,0.204710,0.193659,-0.001503,28.111746,-18.762115,-3.1303012,0.5316423,0.36437792,-0.50680715,0.23759718,0.21184322,0.032233573
20240312 02:43:25,0.696076,0.433973,0.050278,0.133908,0.157835,0.167025,0.209660,28.700171,-19.334320,-3.034457,0.48102942,0.40340376,-0.5166225,0.22344762,0.16165134,-0.003744647
20240312 02:43:25,0.573645,0.436214,-0.068046,0.141365,0.120547,0.141457,0.191730,28.510130,-19.322098,-2.7317529,0.30721563,0.40768167,-0.4916624,0.20409104,0.12243843,-0.027832188
20240312 02:43:25,0.556754,0.337911,-0.133134,0.134973,0.094979,0.108431,0.587288,27.500517,-19.118271,-3.8502212,0.24846376,0.30123752,-0.5121156,0.1734922,0.09516962,-0.039681055
20240312 02:43:25,0.641139,0.209455,0.066439,0.117927,0.040646,0.064752,0.546833,28.525572,-18.381760,-3.6792326,0.45710152,0.18104604,-0.45944813,0.12570377,0.038822316,-0.052452035
20240312 02:43:25,0.574987,0.137363,0.013056,0.109405,0.020405,0.022138,0.008228,27.822989,-18.207291,-2.2631958,0.36491817,0.114339754,-0.44721287,0.084757425,0.017093651,-0.07337281
20240312 02:43:25,0.457394,0.060931,-0.162267,0.123254,0.082195,-0.016215,0.581661,27.579906,-17.917770,-2.7214787,0.14630756,0.040936,-0.46170884,0.064039126,0.0778143,-0.10610148
20240312 02:43:25,0.354296,-0.004250,-0.151725,0.136038,0.161031,-0.041783,0.016544,26.400375,-17.444489,-0.8376416,0.095396675,-0.0123557495,-0.37343997,0.052803677,0.15818602,-0.13190833
20240312 02:43:25,0.255039,-0.065088,0.079720,0.142430,0.182338,-0.059894,0.463966,26.920319,-18.679718,-1.1480303,0.2200596,-0.065921776,-0.1517324,0.042412072,0.18114386,-0.14666052
20240312 02:43:25,0.148054,-0.094875,0.038337,0.143496,0.168488,-0.066286,0.755161,26.846291,-18.538010,-0.74999493,0.121660404,-0.09374315,-0.095257506,0.031765655,0.17108749,-0.15296416
20240312 02:43:25,-0.039908,-0.146338,-0.248749,0.157345,0.194056,-0.062025,0.322979,27.859604,-19.278320,1.1501883,-0.21821971,-0.1372797,-0.11277869,0.03497585,0.20096672,-0.16592637
20240312 02:43:25,-0.077820,-0.241544,-0.464503,0.162672,0.227082,-0.050306,0.474346,28.149195,-18.893799,1.1181115,-0.41013512,-0.22197261,-0.20610508,0.04388558,0.23457882,-0.1639123
20240312 02:43:25,-0.165630,-0.245523,-0.488587,0.137104,0.208971,-0.034326,0.641075,28.070633,-19.154953,1.7240951,-0.4763652,-0.21939787,-0.1427655,0.0370887,0.21718639,-0.13535455
20240312 02:43:25,-0.296972,-0.101586,-0.570398,0.080640,0.165292,-0.006627,0.677700,28.066933,-18.618469,2.3437169,-0.6270014,-0.06933001,-0.07503252,0.025883775,0.16973357,-0.07407364
20240312 02:43:25,-0.323023,-0.012049,-0.434190,0.018850,0.104567,0.025334,0.623528,27.688705,-18.862259,2.0243459,-0.538708,0.0030687377,0.00925532,0.023685738,0.103246085,-0.0026836526
20240312 02:43:25,-0.221940,-0.100682,-0.320477,-0.046136,0.014013,0.048771,0.896027,27.808413,-19.269272,1.0480087,-0.382735,-0.09035951,-0.005573243,0.011712169,0.008873457,0.06576903
20240312 02:43:25,-0.127352,-0.187938,-0.489201,-0.089816,-0.010490,0.062621,1.108345,27.821175,-19.000046,-0.18079624,-0.46375197,-0.17046264,-0.1801992,-6.6812336E-4,-0.015939364,0.1094662
20240312 02:43:25,0.001545,-0.282155,-0.526767,-0.121776,0.027862,0.066882,1.090416,27.631134,-18.987823,-1.0588875,-0.4204406,-0.2706231,-0.31187794,-0.017447691,0.02450666,0.13820535
20240312 02:43:25,0.132431,-0.183128,-0.298724,-0.146279,0.054496,0.057294,0.730072,27.503197,-18.447174,-0.6110365,-0.15631577,-0.17624299,-0.28634173,-0.042880353,0.051612236,0.15174612
20240312 02:43:25,0.145513,-0.023211,0.027385,-0.156932,0.044908,0.041314,0.756966,27.788256,-18.465515,-0.96191496,0.11159447,-0.022377713,-0.09781268,-0.06481015,0.04332884,0.14942543
20240312 02:43:25,0.175565,-0.028333,0.146550,-0.143083,0.034254,0.029595,0.941620,27.899733,-18.738892,-1.5366305,0.22368231,-0.028366026,-0.048569195,-0.06492226,0.033751074,0.1315153
20240312 02:43:25,0.180416,-0.137317,0.042372,-0.107926,0.075803,0.014680,1.055977,28.384911,-19.171341,-1.7006788,0.14561884,-0.13696028,-0.11778588,-0.055688996,0.0754475,0.09515812
20240312 02:43:25,0.148588,-0.183728,0.128074,-0.063182,0.118417,0.002961,0.871319,28.273434,-18.897964,-0.6987413,0.19660419,-0.18382001,-0.03625053,-0.0397832,0.11732245,0.051866077
20240312 02:43:25,0.011806,-0.103647,0.420503,-0.020568,0.083260,0.000831,0.853008,28.275284,-19.166199,-0.45632818,0.32718626,-0.11311547,0.26662272,-0.014809095,0.082786284,0.016494805
20240312 02:43:25,0.026267,0.026456,0.939609,0.014589,-0.072281,0.013615,1.117695,27.724304,-18.725693,-1.0369582,0.7280697,0.006690055,0.5936931,0.021390155,-0.072273776,-0.0030188765
20240312 02:43:25,0.052284,0.082083,0.556500,0.068921,-0.134071,0.029595,0.669121,27.780025,-18.331879,-0.333468,0.46345368,0.071504354,0.31002393,0.06912716,-0.13348529,-0.035408176
20240312 02:43:25,0.111529,-0.064404,0.286703,0.130712,-0.085065,0.033856,0.951740,27.419086,-17.903595,-1.2905748,0.2937938,-0.06652977,0.092420794,0.10938764,-0.08427885,-0.08162373
20240312 02:43:25,0.179582,-0.110418,0.238112,0.175456,-0.043516,0.023203,0.527103,27.393566,-18.442047,-0.9509766,0.29810837,-0.11043176,0.0082279,0.12809277,-0.04349858,-0.12259061
20240312 02:43:25,0.200861,-0.036314,0.214699,0.182914,-0.032863,0.005092,0.721107,27.408176,-18.441071,-0.8906139,0.2930541,-0.036907874,-0.028024778,0.116199225,-0.031494357,-0.14193697
20240312 02:43:25,0.082023,0.111953,0.054773,0.165868,-0.011556,0.002961,0.666935,27.029949,-18.684845,-0.22478308,0.090209275,0.112046525,-0.033008795,0.10143119,-0.008741081,-0.13150817
20240312 02:43:25,0.016554,0.110042,-0.134819,0.133908,0.041712,0.014680,0.956596,27.723473,-19.665039,-0.25368756,-0.10295493,0.11486096,-0.09232175,0.089151606,0.044438086,-0.09962178
20240312 02:43:25,-0.024391,0.091440,-0.120126,0.094490,0.077934,0.027464,0.940853,28.283510,-19.299850,-0.099617556,-0.114497885,0.0951133,-0.051420555,0.07520562,0.07940173,-0.059773188
20240312 02:43:25,-0.054461,0.061155,-0.073438,0.061464,0.087522,0.034922,1.029083,28.099852,-19.153000,-0.27165154,-0.09362158,0.0623301,7.3639676E-4,0.061225515,0.08780184,-0.028721757
20240312 02:43:25,-0.043864,0.040271,-0.200157,0.040157,0.101371,0.033856,0.798450,28.088942,-19.690475,0.052792888,-0.19000274,0.046040595,-0.07973774,0.047322966,0.10109391,-0.013302827
20240312 02:43:25,-0.044406,0.096449,-0.354581,0.020981,0.130136,0.034922,0.392899,27.677795,-19.399719,0.97628075,-0.32027325,0.10913795,-0.16625097,0.03547759,0.12917899,0.0013656206
20240312 02:43:25,-0.035914,0.060781,-0.396746,-0.004588,0.152508,0.037052,0.747616,27.885124,-18.739868,0.07445934,-0.3472791,0.07351577,-0.19840044,0.022429252,0.15098716,0.024913447
20240312 02:43:25,0.012993,-0.017367,-0.329027,-0.028025,0.131201,0.044510,0.798450,28.088942,-19.690475,-0.34434107,-0.25747254,-0.008989895,-0.20463006,0.01615025,0.12953286,0.049349897
20240312 02:43:25,0.084218,-0.112233,-0.025373,-0.039744,0.033189,0.045575,1.329243,28.120840,-19.017410,-1.6110162,0.032779858,-0.110618904,-0.084298305,0.011620766,0.031835917,0.059777282
20240312 02:43:25,0.089069,-0.113182,-0.030659,-0.022699,-0.061627,0.033856,0.923306,27.901583,-19.007141,-0.6561235,0.031283543,-0.110852554,-0.090520464,0.015033427,-0.06279426,0.038004167
20240312 02:43:25,0.048061,-0.079777,-0.071310,0.010327,-0.099980,0.014680,0.992455,28.103550,-19.689499,-0.9132506,-0.027101157,-0.07769001,-0.08183083,0.019869108,-0.100086264,-5.024774E-4
20240312 02:43:26,0.030582,-0.070173,-0.161243,0.039092,-0.099980,0.000831,0.844810,27.796486,-18.599152,-0.62045234,-0.110813804,-0.06612294,-0.12002733,0.025860697,-0.09933738,-0.031760126
20240312 02:43:26,0.043422,-0.130668,-0.271094,0.047614,-0.080803,-0.005561,1.127045,27.627434,-18.451340,-0.9357976,-0.19089273,-0.122381605,-0.1949316,0.025519397,-0.07967512,-0.042653497
20240312 02:43:26,0.017478,-0.119153,-0.319916,0.025242,-0.072281,-0.007692,0.685249,27.028099,-18.416611,-0.0358329,-0.24678202,-0.10928982,-0.19984707,0.010507777,-0.0714777,-0.025049804
20240312 02:43:26,-0.060063,-0.002144,-0.332463,-0.014176,-0.066954,0.004027,0.906147,27.327766,-18.433975,0.33566847,-0.30566615,0.011809595,-0.14266482,-0.0016717478,-0.067512654,0.014129162
20240312 02:43:26,-0.122415,0.044007,-0.298485,-0.051463,-0.061627,0.024268,1.011536,27.717924,-18.860306,-0.024386708,-0.3158713,0.053075787,-0.07268916,-0.0073247664,-0.06415989,0.05600534
20240312 02:43:26,-0.069168,-0.036246,-0.241590,-0.088750,-0.057366,0.031726,1.074287,28.383060,-18.903107,-0.3169872,-0.23458306,-0.028857928,-0.08592063,-0.024234543,-0.060988277,0.09028864
20240312 02:43:26,-0.083446,-0.091333,-0.212149,-0.123907,-0.062692,0.030660,0.950203,28.186642,-19.025482,-0.30005333,-0.21723841,-0.086257346,-0.05851011,-0.046527386,-0.06666663,0.117841944
20240312 02:43:26,-0.109750,-0.067955,-0.159865,-0.149475,-0.059496,0.033856,0.789486,27.993923,-19.684357,0.40166602,-0.19077978,-0.06463472,-0.007292047,-0.05978323,-0.06543243,0.1403165
20240312 02:43:26,-0.111838,0.001329,0.012688,-0.166521,-0.063758,0.046641,0.995796,28.277962,-18.495102,-0.45564097,-0.05771449,-0.001793647,0.09666812,-0.061778072,-0.06923945,0.16042866
20240312 02:43:26,-0.051741,-0.002914,0.043837,-0.175043,-0.069084,0.056229,0.447453,27.864136,-18.875473,0.20926605,0.0036970302,-0.0048900885,0.06772233,-0.05939798,-0.073551446,0.17358303
20240312 02:43:26,0.018973,0.000454,0.008004,-0.179305,-0.044581,0.053033,1.135624,27.914343,-18.737915,-1.3331691,0.017830208,5.6098023E-4,-0.010280802,-0.06530103,-0.04774621,0.17429702
20240312 02:43:26,0.069414,0.008658,0.088953,-0.175043,-0.015817,0.048771,0.871319,28.273434,-18.897964,-1.3556718,0.11279023,0.008509832,9.065829E-4,-0.07034996,-0.016634958,0.1672706
20240312 02:43:26,0.184123,0.009180,0.355274,-0.163325,-0.032863,0.044510,0.941235,28.091621,-19.019363,-1.8819795,0.3920928,0.010233708,0.080170736,-0.068207406,-0.03196071,0.15431221
20240312 02:43:26,0.158801,0.094172,0.381814,-0.142018,-0.045647,0.032791,0.852623,28.467171,-19.446671,-1.6897225,0.39758602,0.095398016,0.116881266,-0.06357492,-0.04493727,0.13041331
20240312 02:43:26,0.160581,0.098023,0.355781,-0.097273,-0.031797,0.022138,1.206959,28.866388,-19.067291,-2.3541646,0.37851894,0.09938435,0.09995139,-0.043850645,-0.03119333,0.088869825
20240312 02:43:26,0.183195,0.070744,0.326803,-0.052528,-0.007294,0.011484,0.809986,28.742151,-19.063141,-1.7421026,0.36989668,0.072128795,0.06397489,-0.02411442,-0.006875853,0.0479443
20240312 02:43:26,0.188860,0.077176,0.344132,-0.023764,0.009751,-0.001300,0.916145,28.748531,-18.928528,-1.8427682,0.3868799,0.078265205,0.07038784,-0.015870808,0.009852588,0.01788243
20240312 02:43:26,0.144113,0.117235,0.301505,-0.002457,0.025731,-0.003431,0.634296,28.725691,-18.795868,-1.1089423,0.32570726,0.11720748,0.07605499,-0.0042183883,0.025731705,1.0023196E-4
20240312 02:43:26,0.082320,0.150658,0.178186,0.019915,0.058757,0.002961,0.634296,28.725691,-18.795868,-0.7019325,0.1897119,0.14951126,0.0454157,0.01397141,0.058876883,-0.013470224
20240312 02:43:26,0.061212,0.089776,0.075704,0.046549,0.089652,0.008288,0.861588,28.562189,-19.452789,-0.9106368,0.0960885,0.08937312,-0.0011515282,0.03382678,0.090021245,-0.030847862
20240312 02:43:26,0.001220,0.009497,0.097753,0.062529,0.082195,0.005092,0.676933,28.450712,-19.179398,-0.5455232,0.07742179,0.008044933,0.0595401,0.041434437,0.08284095,-0.045509424
20240312 02:43:26,0.007442,0.109793,0.186046,0.058268,0.025731,-0.003431,0.829071,28.356524,-18.233948,-0.8403609,0.15021755,0.106925055,0.10853644,0.03241164,0.026488228,-0.048039135
20240312 02:43:26,0.013038,0.187882,0.136908,0.055072,-0.006229,-0.002365,1.074673,28.191172,-18.622620,-0.96200997,0.113176234,0.18484247,0.07318297,0.031139955,-0.005216877,-0.045645848
20240312 02:43:26,-0.036400,0.092753,-0.137725,0.059333,0.010817,0.006157,0.826881,27.606445,-18.586929,-0.6566493,-0.13414425,0.09495838,-0.052162256,0.04006889,0.01157677,-0.04391692
20240312 02:43:26,0.021447,-0.059241,-0.127901,0.063595,0.028928,0.011484,1.057129,27.809244,-18.329926,-1.3253293,-0.087688215,-0.057174627,-0.095562175,0.04734946,0.029452618,-0.04312506
20240312 02:43:26,0.064364,-0.142376,-0.059298,0.058268,0.005490,0.009353,1.029083,28.099852,-19.153000,-1.2748207,-0.0055561587,-0.14096741,-0.08913736,0.04304722,0.0059457584,-0.040218793
20240312 02:43:26,0.024629,-0.077001,-0.014032,0.045484,-0.032863,0.004027,0.889248,28.463472,-18.910187,-0.71446955,0.0053470815,-0.07630457,-0.02867515,0.0314443,-0.032225426,-0.03398242
20240312 02:43:26,-0.056225,0.032543,-0.067331,0.046549,-0.034993,0.004027,0.834694,28.277132,-19.434448,-0.2984342,-0.088469565,0.03320343,0.004424963,0.03220693,-0.034123927,-0.034840822
20240312 02:43:26,-0.031072,-0.103302,-0.178524,0.050810,-0.006229,0.002961,1.092216,28.573099,-18.915329,-0.96079046,-0.15866078,-0.099668324,-0.08396752,0.033162452,-0.005404553,-0.03879574
20240312 02:43:26,-0.002223,-0.263040,-0.247281,0.054006,0.026797,0.008288,0.826115,27.990225,-19.147858,-0.62370175,-0.19350256,-0.2580853,-0.1488134,0.038598143,0.02743212,-0.037957165
20240312 02:43:26,-0.031634,-0.254478,-0.227041,0.035896,0.037450,0.007223,0.580124,28.347462,-19.039658,-0.20749976,-0.19494514,-0.2504729,-0.11270867,0.026738625,0.037827346,-0.02413189
20240312 02:43:26,-0.032394,-0.062501,-0.096080,-0.008849,0.010817,0.008288,1.073906,28.574949,-19.183563,-0.7423816,-0.09471056,-0.060496435,-0.03171265,0.0010838858,0.0104044415,0.012128185
20240312 02:43:26,-0.115024,0.107441,-0.207387,-0.044006,0.026797,0.025334,0.843658,28.372150,-19.440567,0.22514288,-0.23964769,0.112349704,-0.028099984,-0.0062687546,0.024455065,0.050452426
20240312 02:43:26,-0.079425,0.008852,-0.285491,-0.055724,0.089652,0.039183,0.756966,27.788256,-18.465515,-0.3806488,-0.27658194,0.0142392665,-0.10662236,-0.003966935,0.08769309,0.06845208
20240312 02:43:26,0.026665,-0.162722,-0.159585,-0.059986,0.122678,0.031726,1.233200,27.633814,-18.316711,-1.7152383,-0.107670486,-0.1604304,-0.12183932,-0.013255851,0.12167677,0.06908353
20240312 02:43:26,0.054831,-0.167786,0.110790,-0.065312,0.090718,0.012549,1.021267,27.429165,-18.305466,-1.3182616,0.122841135,-0.16860963,0.024134632,-0.032236364,0.08988294,0.06009926
20240312 02:43:26,-0.004118,0.030267,0.276142,-0.058920,0.029993,0.005092,0.983875,27.816643,-19.402908,-0.51452583,0.21382673,0.02240715,0.17372978,-0.03317914,0.028535005,0.049683712
20240312 02:43:26,-0.085679,0.070626,0.120828,-0.032287,0.021470,0.013615,1.267525,28.781448,-19.463058,-0.8799966,0.040753547,0.06480133,0.142399,-0.0096904775,0.02026272,0.034059927
20240312 02:43:26,0.001534,-0.011814,0.079167,-0.006718,0.033189,0.017876,1.065323,28.288042,-18.896988,-1.2667943,0.06319468,-0.012941102,0.047747135,0.009366561,0.03284736,0.016813507
20240312 02:43:26,0.077739,-0.025254,0.212617,0.008197,0.014013,0.013615,1.010769,28.101700,-19.421249,-1.3600941,0.21483898,-0.026666706,0.071632266,0.015619945,0.013945262,0.002304663
20240312 02:43:26,0.075895,-0.009007,0.219228,0.022046,-0.004098,0.011484,0.737503,28.365770,-19.575165,-0.798018,0.2196844,-0.010809235,0.0747208,0.02265114,-0.0040338314,-0.010374342
20240312 02:43:26,0.054769,-0.017773,-0.016389,0.043353,0.028928,0.014680,1.056744,28.001133,-18.610397,-1.3967538,0.020095412,-0.01707022,-0.05385912,0.037465043,0.029142752,-0.025362136
20240312 02:43:26,0.059355,-0.023682,-0.119045,0.060399,0.080064,0.015746,0.765930,27.883274,-18.471634,-0.97032976,-0.05958406,-0.02203309,-0.119036615,0.047959458,0.08035416,-0.03814657
20240312 02:43:26,0.079515,-0.077363,-0.181474,0.060399,0.099241,0.011484,0.739422,27.406328,-18.172821,-1.0046502,-0.09549613,-0.07529756,-0.17403328,0.04489283,0.09952886,-0.040030316
20240312 02:43:26,0.097071,-0.027250,-0.001262,0.048680,0.054496,0.001896,1.072872,27.249207,-18.695114,-1.570755,0.058016196,-0.026570212,-0.0784708,0.030491414,0.05480971,-0.03669018
20240312 02:43:26,0.036288,0.081686,-0.062015,0.028438,0.011882,-0.008757,0.960320,27.705996,-18.190186,-0.9142064,-0.030046197,0.083481684,-0.065228716,0.009583194,0.012488064,-0.027974132
20240312 02:43:26,0.008745,0.092979,-0.191418,0.015654,0.014013,-0.006627,0.979015,27.512257,-17.641464,-0.82076174,-0.1510667,0.09781767,-0.11987324,0.0036172727,0.01445454,-0.016411468
20240312 02:43:26,-0.019153,0.015739,-0.179700,-0.000326,0.023601,-0.000235,1.154709,27.528717,-17.908722,-1.4905763,-0.15520972,0.018319514,-0.092650175,-7.5273594E-4,0.023596086,4.888827E-4
20240312 02:43:26,0.018153,-0.017552,0.053826,-0.016306,0.003359,0.005092,0.915882,27.039009,-17.879135,-0.9963565,0.053892076,-0.018215023,0.018597566,-0.006071119,0.003059086,0.016024979
20240312 02:43:26,0.012236,-0.006690,0.131672,-0.019503,-0.022209,0.009353,0.887447,27.521505,-18.982681,-0.9055743,0.11162567,-0.008637914,0.07096046,-0.0042099403,-0.022595322,0.020926889
20240312 02:43:26,0.045448,-0.057928,0.049963,-0.005653,-0.007294,0.009353,1.020885,27.621054,-18.585953,-1.6566564,0.06757359,-0.057995904,-0.006643411,0.004008015,-0.0073571913,0.010049818
20240312 02:43:26,0.138591,-0.123326,-0.040606,0.014589,0.032124,0.004027,1.178642,27.447475,-18.840988,-2.17625,0.052749462,-0.12348973,-0.13723874,0.012160604,0.03211547,-0.008310698
20240312 02:43:26,0.169068,-0.143577,0.039919,0.041222,0.051300,-0.003431,1.162136,28.391291,-19.036728,-2.185321,0.13546734,-0.14387767,-0.11156879,0.02296568,0.05118298,-0.033303052
20240312 02:43:26,0.155291,-0.089595,0.116375,0.075313,0.035320,-0.015150,1.204773,28.116310,-19.420273,-2.0303118,0.18729082,-0.089586966,-0.053455405,0.03408484,0.03546899,-0.068038695
20240312 02:43:26,0.101451,-0.079091,-0.039934,0.111535,0.022535,-0.026868,1.080299,28.111780,-19.823120,-1.4422944,0.029802736,-0.07788565,-0.10629274,0.045256108,0.023675218,-0.10497748
20240312 02:43:26,0.087174,-0.082275,-0.233439,0.133908,0.028928,-0.043914,0.949818,28.378529,-19.305954,-1.0845569,-0.13623568,-0.07806292,-0.20875359,0.04289938,0.030923188,-0.13377951
20240312 02:43:26,0.060458,-0.055665,-0.299178,0.132842,0.023601,-0.051371,1.169678,27.352457,-18.834885,-1.4561758,-0.20501497,-0.05017338,-0.22604768,0.036491644,0.025964944,-0.1372134
20240312 02:43:26,0.057227,0.025403,-0.178285,0.094490,-0.022209,-0.049241,1.038048,28.194872,-19.159103,-1.050551,-0.111559436,0.029578675,-0.1504213,0.015776146,-0.019966377,-0.1056733
20240312 02:43:26,0.010609,0.140815,-0.223539,0.038026,-0.063758,-0.038587,1.187229,27.734385,-19.127563,-0.9635288,-0.18024808,0.14718577,-0.13630204,-0.007763587,-0.06189203,-0.053940397
20240312 02:43:26,-0.007138,0.201043,-0.210957,-0.020568,-0.065888,-0.019411,0.765163,28.267054,-19.032578,-0.22402205,-0.18157062,0.2065748,-0.115832694,-0.025918262,-0.065719254,0.0053871665
20240312 02:43:26,-0.049650,0.123873,-0.153179,-0.065312,-0.040320,-0.002365,0.905762,27.519655,-18.714432,-0.34756547,-0.15659368,0.12737694,-0.050148267,-0.039304115,-0.041693516,0.051112153
20240312 02:43:26,-0.060272,0.064569,0.028310,-0.085554,-0.021144,0.007223,0.906532,27.135878,-18.153503,-0.37786448,-0.016364375,0.062231917,0.06527962,-0.04586433,-0.023367852,0.07208639
20240312 02:43:26,-0.032540,-0.014179,0.212340,-0.083423,-0.019013,0.010419,0.906147,27.327766,-18.433975,-0.9275327,0.1472528,-0.018216804,0.15644047,-0.04294096,-0.020296589,0.071895435
20240312 02:43:26,0.010807,-0.073296,0.186110,-0.057855,-0.004098,0.007223,1.311314,27.930801,-19.005188,-1.4523002,0.15457253,-0.07690573,0.10515264,-0.029933982,-0.005172986,0.04991868
20240312 02:43:26,0.029511,-0.073891,0.134232,-0.022699,0.025731,-0.001300,0.783478,28.265203,-18.764328,-0.574673,0.1254139,-0.07602157,0.058778964,-0.01547637,0.025406538,0.017262891
20240312 02:43:26,-0.042379,-0.038681,0.109532,0.006066,0.038516,-0.008757,1.055977,28.384911,-19.171341,-0.48501077,0.061813213,-0.04322447,0.10037507,-0.004441195,0.038916335,-0.00995845
20240312 02:43:26,-0.130963,0.001590,0.139255,0.017785,0.027862,-0.009823,1.302349,27.835783,-18.999069,-0.6956787,0.02910421,-0.0075356495,0.18891114,0.0021448573,0.028725661,-0.01985672
20240312 02:43:26,-0.122257,0.033414,0.199829,0.023111,-0.000902,-0.001300,1.347942,27.927101,-18.468704,-0.66151655,0.081872456,0.02101146,0.21910307,0.013130633,-9.7223514E-5,-0.019096749
20240312 02:43:26,-0.134686,0.014742,0.051647,0.026307,-0.008360,0.014680,1.108730,27.629284,-18.719574,-0.42898843,-0.041067168,0.009021823,0.13851985,0.027911406,-0.008152878,-0.012080449
20240312 02:43:26,-0.110690,-0.027368,-0.006226,0.028438,-0.001968,0.025334,1.215656,27.251888,-18.024033,-0.7271555,-0.07120089,-0.030181294,0.08392326,0.0374502,-0.0020952132,-0.0072116414
20240312 02:43:26,-0.070878,-0.028556,0.119157,0.026307,-0.012621,0.033856,1.039581,27.427317,-18.037231,-0.7079931,0.05081267,-0.033523854,0.12906724,0.043218195,-0.012990564,8.244254E-5
20240312 02:43:26,-0.031061,-0.015614,0.242054,0.031634,-0.041385,0.038118,0.887447,27.521505,-18.982681,-0.68249494,0.17205974,-0.02121779,0.17319506,0.050372757,-0.04165414,-0.0018169079
20240312 02:43:26,0.051566,-0.067308,0.089188,0.041222,-0.034993,0.032791,0.586132,28.076181,-19.959686,-0.6668616,0.10264936,-0.067701206,0.013180304,0.051423755,-0.034999434,-0.012852572
20240312 02:43:26,0.162723,-0.120852,0.122243,0.045484,-0.006229,0.021072,1.346790,28.502768,-19.310120,-2.565599,0.19621526,-0.120882034,-0.055221327,0.0447122,-0.006303805,-0.022786811
20240312 02:43:26,0.191278,-0.050444,0.206295,0.047614,0.008686,0.012549,1.425285,28.607866,-19.718109,-2.4985764,0.28018612,-0.0503985,-0.026333243,0.039088164,0.008667008,-0.02972975
20240312 02:43:26,0.160125,0.006612,0.086345,0.060399,0.049169,0.002961,1.143440,28.585028,-19.585449,-1.8635641,0.16535738,0.006716868,-0.07569764,0.03859777,0.049298037,-0.04546442
20240312 02:43:26,0.089966,0.052341,0.024023,0.074248,0.087522,-0.009823,1.134476,28.490009,-19.579330,-1.4526995,0.07227774,0.05286928,-0.05710718,0.035299398,0.08832256,-0.06413435
20240312 02:43:26,0.011934,0.089544,-0.012541,0.078509,0.097110,-0.013019,1.143440,28.585028,-19.585449,-0.82295537,-0.0054989792,0.090081185,-0.016281657,0.03336554,0.099010296,-0.070123166
20240312 02:43:26,-0.049989,0.087924,-0.029126,0.081706,0.075803,-0.006627,0.913956,27.998451,-19.281509,-0.3066989,-0.05590667,0.087609716,0.022986185,0.041143212,0.07782594,-0.06925278
20240312 02:43:26,-0.087647,0.079448,-0.046273,0.075313,0.032124,0.004027,0.951355,27.610975,-18.184067,-0.42308438,-0.091468394,0.07882662,0.044070087,0.04648122,0.03372615,-0.058431827
20240312 02:43:26,-0.045154,0.047513,-0.160144,0.068921,0.007621,0.016811,1.039581,27.427317,-18.037231,-0.9874089,-0.15745635,0.050431143,-0.05624441,0.053675998,0.008369026,-0.046100788
20240312 02:43:26,0.041960,0.000268,-0.227812,0.054006,0.002294,0.023203,0.994373,27.144106,-18.287125,-1.5181048,-0.16062362,0.0023418146,-0.16685252,0.05031772,0.0024187376,-0.030321516
20240312 02:43:26,0.079372,0.025982,-0.205986,0.029503,-0.000902,0.022138,1.293385,27.740763,-18.992966,-1.7602341,-0.12091519,0.02958094,-0.18438031,0.035226345,-9.136627E-4,-0.010991533
20240312 02:43:26,0.054749,0.076346,0.010348,0.003935,-0.028601,0.021072,0.756580,27.980145,-18.745987,-1.1142336,0.04080063,0.07652587,-0.036564857,0.019355388,-0.028706523,0.009219345
20240312 02:43:26,0.091804,0.072890,0.118302,-0.015241,-0.076542,0.025334,1.162518,28.199402,-18.756256,-1.673984,0.14900924,0.072404355,-0.0010427311,0.011835873,-0.076894924,0.026055584
20240312 02:43:26,0.105271,-0.007835,0.015586,-0.009914,-0.055235,0.025334,1.047012,28.289892,-19.165222,-1.6290205,0.075506,-0.007495505,-0.07517119,0.014666966,-0.055409987,0.022154164
20240312 02:43:26,0.113497,-0.132877,-0.070261,0.010327,0.010817,0.020007,1.301964,28.027670,-19.279556,-2.1905072,0.012838304,-0.1324445,-0.13593459,0.022155277,0.0107828565,0.0040801624
20240312 02:43:26,0.121162,-0.204967,-0.034732,0.032700,0.057692,0.004027,1.214504,27.827555,-18.865448,-1.8171958,0.04784946,-0.20387007,-0.12124874,0.022590015,0.05786739,-0.022399351
20240312 02:43:26,0.028083,-0.142064,0.075377,0.042288,0.064084,-0.004496,1.515438,27.464766,-18.168915,-1.8179686,0.08008334,-0.14323555,0.02096881,0.020773664,0.064905904,-0.035005413
20240312 02:43:26,-0.027001,-0.130518,0.095836,0.062529,0.028928,-0.014084,1.382767,26.981438,-18.004715,-1.346184,0.06405222,-0.13383949,0.07738823,0.025551893,0.030704303,-0.057998173
20240312 02:43:26,-0.107256,0.025038,0.032299,0.058268,-0.003033,-0.007692,0.915112,27.422785,-18.440094,-0.1240712,-0.039033756,0.02088337,0.10537334,0.028715488,-0.0011499543,-0.05135089
20240312 02:43:26,-0.134037,0.009571,-0.058794,0.044418,-0.014752,0.009353,0.976444,26.954067,-18.274902,-0.0019045541,-0.12667422,0.007895217,0.073917076,0.03429216,-0.013743177,-0.030447463
20240312 02:43:26,-0.138211,-0.042878,-0.099158,0.026307,-0.006229,0.026399,1.390961,27.460234,-18.571762,-1.24488,-0.1603665,-0.042921018,0.052115865,0.037027612,-0.006442294,-0.005650064
20240312 02:43:26,-0.022704,-0.064694,-0.124210,0.009262,0.006555,0.038118,1.116924,28.108080,-19.286636,-1.0672023,-0.112357564,-0.06233353,-0.055411708,0.036118787,0.005871875,0.015003849
20240312 02:43:26,0.020374,-0.011960,-0.154935,-0.008849,0.027862,0.034922,1.169678,27.352457,-18.834885,-1.4241517,-0.11381486,-0.009087602,-0.10698041,0.022747144,0.027157743,0.027937049
20240312 02:43:26,0.031517,-0.002127,-0.194349,-0.013110,0.041712,0.032791,1.274689,27.934500,-19.541672,-1.7085217,-0.1395189,7.13357E-4,-0.13886043,0.01845709,0.04115392,0.030480113
20240312 02:43:26,0.045431,0.038908,-0.054193,-0.020568,0.045973,0.023203,1.020500,27.812944,-18.866425,-1.6567104,-0.016738102,0.03929455,-0.06806705,0.0062268134,0.04580323,0.031117145
20240312 02:43:26,0.113487,0.022723,0.039638,-0.017372,0.002294,0.011484,1.081451,27.536116,-18.981705,-1.7818366,0.09946261,0.022905076,-0.06696296,-0.0011687586,0.0021945848,0.020831611
20240312 02:43:26,0.116906,-0.000718,0.021998,-0.010980,-0.016882,0.004027,1.117310,27.916193,-19.006165,-1.7634313,0.08715543,-3.4829948E-4,-0.08098486,-0.003187495,-0.016951753,0.010914352
20240312 02:43:26,0.101776,0.002112,-0.021588,0.000739,-0.036059,-0.004496,0.623528,27.688705,-18.862259,-0.94163495,0.042971216,0.002540346,-0.09472528,-0.0030216004,-0.036035795,-0.0036127178
20240312 02:43:27,0.115112,-0.003508,-0.001808,0.012458,-0.053104,-0.008757,1.381233,27.748993,-19.126587,-2.2906458,0.06723884,-0.0031239095,-0.093544126,6.374642E-4,-0.053024262,-0.01648477
20240312 02:43:27,0.113200,0.024320,0.008489,0.013523,-0.060562,-0.010888,1.117310,27.916193,-19.006165,-1.6938546,0.07417372,0.024872808,-0.08535302,-2.2554398E-4,-0.060405817,-0.018414093
20240312 02:43:27,0.061479,0.044811,0.059003,0.009262,-0.065888,-0.013019,0.870285,26.947687,-18.409531,-1.1558486,0.0835482,0.04466409,-0.013576094,-0.004205515,-0.06566773,-0.01599354
20240312 02:43:27,-0.001685,0.109802,0.108323,0.009262,-0.071215,-0.011954,1.400696,27.171476,-18.016937,-1.8645558,0.08386332,0.10782084,0.06818866,-0.0027763378,-0.070861265,-0.015950726
20240312 02:43:27,-0.033316,0.034111,0.086010,0.010327,-0.068019,-0.009823,1.010117,26.584070,-18.652328,-0.937185,0.047904365,0.03169984,0.078682914,-1.6286597E-4,-0.0676143,-0.014827163
20240312 02:43:27,-0.039234,-0.004502,0.090456,0.012458,-0.054170,-0.008757,1.170063,27.160566,-18.554398,-1.0462304,0.048699655,-0.007598987,0.08571771,0.0019071447,-0.053672753,-0.015814126
20240312 02:43:27,-0.076439,-0.019180,0.082458,0.007131,-0.022209,-0.004496,0.596252,27.595535,-19.124390,0.06554539,0.0203159,-0.022868233,0.11068613,0.0012898725,-0.02193637,-0.0083856955
20240312 02:43:27,-0.019290,-0.021468,0.046117,0.005000,-0.012621,-0.001300,0.868752,27.715242,-19.531403,-0.6524992,0.02584444,-0.022705166,0.042897657,0.0022095232,-0.012513382,-0.004870687
20240312 02:43:27,-0.009416,-0.030662,0.057260,-0.006718,0.010817,0.005092,1.072102,27.632982,-19.256073,-1.0820305,0.040715676,-0.031901315,0.041557625,-1.7326232E-4,0.010616729,0.008552026
20240312 02:43:27,-0.023473,0.005414,0.077900,-0.007784,0.009751,0.007223,0.905762,27.519655,-18.714432,-0.68574345,0.048026666,0.0032558502,0.065599866,8.755331E-4,0.009452385,0.010631449
20240312 02:43:27,-0.046605,-0.030010,0.059428,0.002870,0.010817,0.009353,0.914726,27.614674,-18.720551,-0.76500016,0.019973481,-0.031986184,0.072754964,0.008964811,0.010661914,0.0034304624
20240312 02:43:27,-0.010619,-0.127058,0.009593,0.030569,-0.005164,0.007223,0.845196,27.604595,-18.318665,-0.631121,0.0040051937,-0.12739459,0.0134120025,0.024317544,-0.0048151202,-0.020050354
20240312 02:43:27,-0.039468,-0.124522,0.024967,0.041222,-0.014752,0.009353,1.063522,27.346077,-18.969482,-0.8928866,-7.0366263E-4,-0.12577878,0.045390442,0.032558754,-0.014226577,-0.027514976
20240312 02:43:27,-0.078592,-0.122707,-0.092387,0.057203,-0.030732,0.012549,0.877716,27.810263,-19.537506,-0.06399509,-0.11666718,-0.12139423,0.008489139,0.045058794,-0.029679818,-0.0386647
20240312 02:43:27,-0.108616,-0.069603,-0.159482,0.057203,-0.063758,0.022138,0.771942,27.611994,-19.391663,0.101512454,-0.19036984,-0.06670186,-0.004410021,0.05348861,-0.06304721,-0.03356959
20240312 02:43:27,-0.123492,-0.069655,-0.237503,0.044418,-0.082934,0.024268,0.799221,27.705166,-19.129517,0.088503174,-0.26253653,-0.06414697,-0.036015317,0.04842345,-0.08259622,-0.022218904
20240312 02:43:27,-0.128705,-0.006814,-0.306577,-0.029091,-0.122352,0.035987,1.072102,27.632982,-19.256073,-0.9449661,-0.32493722,-0.0017147772,-0.06931922,0.015808532,-0.123621166,0.04327162
20240312 02:43:27,-0.055539,0.064909,-0.290982,-0.086619,-0.125548,0.046641,0.832893,27.335165,-19.506943,-0.5773304,-0.27179277,0.07033712,-0.12044494,-0.008569177,-0.12781644,0.09700602
20240312 02:43:27,-0.053498,0.074967,-0.270761,-0.107926,-0.117025,0.053033,1.029083,28.099852,-19.153000,-1.3151263,-0.2528929,0.07790984,-0.11159187,-0.017524783,-0.11865014,0.11718261
20240312 02:43:27,0.038652,-0.031373,-0.151414,-0.136691,-0.086130,0.051967,0.789871,27.802034,-19.403885,-1.0022764,-0.09860541,-0.029670505,-0.12129518,-0.03850499,-0.08756764,0.13995287
20240312 02:43:27,0.018647,-0.022435,0.022018,-0.142018,-0.063758,0.045575,0.322979,27.859604,-19.278320,-0.2660124,0.028970547,-0.022490568,-0.0016471362,-0.04889433,-0.06485369,0.14057128
20240312 02:43:27,-0.007023,-0.016980,0.257828,-0.123907,-0.056300,0.037052,0.341293,27.857756,-19.010071,-0.011347631,0.19939855,-0.02063797,0.16384685,-0.04605421,-0.05814697,0.12054381
20240312 02:43:27,-0.053396,0.004631,0.239258,-0.073835,-0.082934,0.021072,0.738651,27.790106,-18.733749,-0.71811265,0.15617475,6.127781E-4,0.18890107,-0.027439227,-0.08404205,0.0706105
20240312 02:43:27,-0.015887,-0.020281,0.247428,-0.012045,-0.089326,0.021072,0.720722,27.600065,-18.721527,-1.0307572,0.18506338,-0.021910142,0.1648852,0.009714773,-0.08951464,0.021485731
20240312 02:43:27,0.034037,-0.088666,0.241025,0.054006,-0.114894,0.016811,0.517754,27.490437,-18.716385,-0.6928714,0.2117816,-0.089887194,0.12021133,0.04704618,-0.114748366,-0.033212036
20240312 02:43:27,-0.005266,-0.004490,0.223857,0.065725,-0.124483,0.015746,0.711758,27.505047,-18.715408,-0.6708428,0.17449223,-0.007791749,0.14033212,0.054284826,-0.12395993,-0.043469675
20240312 02:43:27,-0.051495,0.048236,0.149745,0.073183,-0.134071,0.026399,0.826496,27.798336,-18.867401,-1.0131559,0.087758824,0.046130046,0.13194226,0.06671147,-0.13373467,-0.043846846
20240312 02:43:27,-0.027598,0.132936,0.190594,0.061464,-0.148986,0.040249,0.242683,26.812542,-18.942825,-0.3970488,0.13567378,0.13270232,0.137081,0.06925904,-0.14897892,-0.025594058
20240312 02:43:27,0.024361,0.138999,0.170713,0.045484,-0.155378,0.056229,0.465000,28.246065,-19.168152,-1.3075259,0.15203705,0.1407127,0.08612598,0.0705242,-0.15511762,-0.004192341
20240312 02:43:27,0.081216,0.077326,0.209079,0.036961,-0.148986,0.063686,0.482929,28.436104,-19.180374,-1.5565153,0.21644107,0.07973734,0.06448871,0.07052755,-0.14836931,0.007100966
20240312 02:43:27,0.106373,0.009765,0.213253,0.054006,-0.125548,0.064752,0.728916,28.078861,-19.288589,-1.857232,0.23395005,0.01149909,0.046046644,0.08258772,-0.12522459,-0.005754981
20240312 02:43:27,0.078769,-0.041158,0.212418,0.089163,-0.091457,0.059425,0.377155,28.237835,-19.034531,-1.1244981,0.21578237,-0.039533425,0.067061804,0.100562096,-0.091549985,-0.035310023
20240312 02:43:27,0.042073,-0.065387,0.181310,0.137104,-0.062692,0.054098,0.226173,27.756357,-19.138565,-0.45131436,0.16942675,-0.06522349,0.0765828,0.12627038,-0.06274833,-0.07621184
20240312 02:43:27,-0.031813,-0.063605,0.140332,0.180783,-0.038189,0.047706,0.526333,27.777346,-19.002975,-0.97876024,0.092603125,-0.06347382,0.10942449,0.14715603,-0.038260467,-0.115699746
20240312 02:43:27,-0.089158,-0.064185,0.041655,0.209547,-0.031797,0.044510,0.525948,27.969233,-19.283463,-0.59081626,-0.018300947,-0.06505419,0.09620008,0.15961224,-0.03091034,-0.14336425
20240312 02:43:27,-0.118869,-0.025818,-0.070024,0.219135,-0.032863,0.043445,0.190315,27.376278,-19.114105,-0.0489811,-0.12614907,-0.02592586,0.055429604,0.16365516,-0.032066964,-0.15232812
20240312 02:43:27,-0.122454,0.009482,-0.143941,0.204221,-0.040320,0.047706,0.384697,27.198999,-18.832672,-0.7020837,-0.18820843,0.009491874,0.017167322,0.15670584,-0.040303417,-0.13966894
20240312 02:43:27,-0.048928,0.035828,-0.213385,0.156280,-0.052039,0.050902,0.367153,26.817072,-18.539963,-0.8170156,-0.20316163,0.035286706,-0.080987215,0.13067845,-0.05221135,-0.09990662
20240312 02:43:27,-0.019524,-0.004985,-0.286474,0.133908,-0.049908,0.045575,0.394817,26.718353,-17.997375,-1.5666926,-0.2480275,-0.010292473,-0.14474593,0.11193168,-0.05077496,-0.085977204
20240312 02:43:27,0.045523,0.018720,-0.335973,0.083836,-0.037124,0.039183,0.340260,26.532013,-18.521622,-1.4591755,-0.25257504,0.011679254,-0.22536373,0.07865859,-0.03744799,-0.04810407
20240312 02:43:27,0.016218,0.052269,-0.341123,0.033765,-0.021144,0.033856,0.445267,27.114056,-19.228439,-1.2902151,-0.27253953,0.048386738,-0.20428354,0.04674015,-0.021021504,-0.009195801
20240312 02:43:27,-0.039831,0.083348,-0.239109,-0.010980,-0.015817,0.037052,0.260227,27.194468,-19.235535,-0.5444835,-0.21928403,0.083012976,-0.10257846,0.024233252,-0.015746381,0.02999644
20240312 02:43:27,-0.083656,0.087910,-0.170455,-0.044006,-0.021144,0.047706,0.332714,27.570847,-18.723480,-0.6057353,-0.18776937,0.08792941,-0.027775176,0.01415636,-0.021157537,0.06321191
20240312 02:43:27,-0.099231,0.034718,-0.119366,-0.058920,-0.016882,0.062621,0.314400,27.572697,-18.991730,-0.71020806,-0.15467699,0.03455928,0.011868544,0.016788792,-0.016543215,0.084192306
20240312 02:43:27,-0.058879,-0.052457,0.012868,-0.051463,-0.028601,0.072209,0.217209,27.661337,-19.132446,-0.8144092,-0.0254897,-0.05189045,0.054405328,0.0266982,-0.027505206,0.08421728
20240312 02:43:27,-0.037585,-0.105528,0.136558,-0.026960,-0.059496,0.075405,0.533497,26.930399,-19.081589,-1.750947,0.084587455,-0.10255168,0.11017409,0.042953655,-0.057769064,0.06577218
20240312 02:43:27,-0.004397,-0.140392,0.087620,0.005000,-0.082934,0.070078,0.374969,27.487757,-19.387497,-1.4225954,0.06539518,-0.1387849,0.053533662,0.057874594,-0.081764355,0.03639991
20240312 02:43:27,0.037647,-0.112753,-0.040618,0.033765,-0.078673,0.063686,0.481125,27.494135,-19.252899,-2.1511238,-0.014373925,-0.114697695,-0.05672481,0.0690387,-0.07744142,0.007979395
20240312 02:43:27,0.089338,-0.058623,-0.098167,0.046549,-0.060562,0.053033,0.456036,28.151045,-19.162033,-2.4861274,-0.030220427,-0.064951934,-0.13117012,0.06776446,-0.05970772,-0.008632576
20240312 02:43:27,0.118194,-0.005815,-0.073885,0.038026,-0.050974,0.038118,-0.074371,27.927256,-19.554626,-1.7045164,0.0077415295,-0.012569409,-0.13924408,0.05084474,-0.05042061,-0.009927968
20240312 02:43:27,0.101050,0.025572,-0.126536,0.020981,-0.030732,0.027464,0.172001,27.378126,-19.382355,-2.0213025,-0.04455816,0.017688325,-0.1547891,0.033281542,-0.030187147,-0.0020662397
20240312 02:43:27,0.095774,0.040723,-0.108763,0.000739,-0.006229,0.021072,0.156258,27.938166,-19.017166,-1.8592471,-0.03159519,0.034073763,-0.14026597,0.017356701,-0.005454607,0.011476607
20240312 02:43:27,0.078033,0.030883,0.006216,-0.020568,-0.006229,0.015746,0.569736,27.118587,-18.825577,-2.5347803,0.051780906,0.029111188,-0.05883776,5.0043594E-4,-0.005159022,0.025722362
20240312 02:43:27,0.028548,0.098296,0.068467,-0.033352,-0.016882,0.012549,0.306591,26.902012,-18.144196,-1.7457927,0.07494317,0.099569425,0.018562911,-0.009775453,-0.015857158,0.034095936
20240312 02:43:27,0.027242,0.117476,0.057040,-0.030156,-0.015817,0.016811,-0.020470,26.595963,-18.261444,-1.0417594,0.06513022,0.11836579,0.012682017,-0.0045035454,-0.0148266405,0.034111038
20240312 02:43:27,0.007923,0.032096,0.058575,-0.015241,-0.009425,0.021072,0.357803,26.913940,-18.814331,-1.7572738,0.05270993,0.033426765,0.028826663,0.0077255415,-0.00859688,0.024576694
20240312 02:43:27,0.007845,-0.048095,0.087516,0.003935,-0.020078,0.021072,-0.013039,27.458538,-19.389450,-1.1188362,0.07399922,-0.04590588,0.04470443,0.01879934,-0.019586395,0.009013576
20240312 02:43:27,0.009450,-0.052379,0.032274,0.024177,-0.031797,0.023203,-0.109852,27.355288,-19.249710,-0.8979236,0.030344509,-0.05170472,0.010763616,0.032147914,-0.031635586,-0.006295583
20240312 02:43:27,-0.010903,-0.031668,-0.093631,0.041222,-0.021144,0.027464,0.066223,27.179857,-19.236511,-1.2781652,-0.083498865,-0.03396175,-0.045653407,0.045665152,-0.021179702,-0.018020859
20240312 02:43:27,0.052420,-0.047389,-0.114298,0.039092,-0.017948,0.023203,-0.030205,26.884722,-18.816284,-1.7541418,-0.06415795,-0.053738836,-0.11005208,0.04086244,-0.018128663,-0.018552393
20240312 02:43:27,0.133531,0.020181,-0.012869,0.018850,-0.043516,0.009353,-0.057480,26.791553,-19.078415,-1.8154628,0.06732864,0.015382352,-0.11618401,0.016554529,-0.04362672,-0.0108151715
20240312 02:43:27,0.074064,0.049633,-0.226901,0.006066,-0.017948,-0.003431,0.031132,26.416002,-18.651093,-1.7814165,-0.14372528,0.038387634,-0.18792912,-1.4559948E-4,-0.018231284,-0.0072579198
20240312 02:43:27,0.044730,-0.043932,-0.305246,0.001804,0.039581,-0.014084,0.288277,26.903860,-18.412460,-2.364486,-0.22706795,-0.05840665,-0.2114031,-0.008825875,0.038863346,-0.0085639
20240312 02:43:27,0.090257,-0.097366,-0.184237,-0.019503,0.052365,-0.023672,0.006039,27.072910,-18.560257,-1.6538723,-0.101659976,-0.106887154,-0.18179092,-0.028538082,0.05192421,0.0030913157
20240312 02:43:27,0.036465,0.043039,0.031914,-0.051463,0.009751,-0.025803,0.021019,26.896648,-19.486404,-1.180779,0.04829922,0.04316802,-0.01052293,-0.05069227,0.010037029,0.026905548
20240312 02:43:27,-0.059416,0.144670,0.052713,-0.061051,-0.017948,-0.008757,0.014240,27.551708,-19.127319,-0.61413574,0.010845568,0.14595734,0.07982536,-0.04257962,-0.017471422,0.0447435
20240312 02:43:27,-0.072907,0.017489,-0.044652,-0.045071,-0.000902,0.002961,0.304668,27.861454,-19.546555,-1.4856846,-0.07841332,0.017653337,0.03341014,-0.023923194,-1.2553167E-4,0.03831101
20240312 02:43:27,-0.007927,-0.131796,0.005224,-0.029091,0.006555,0.002961,0.277775,27.576395,-19.528214,-1.6733199,-0.0040924964,-0.1314202,0.007191092,-0.014732055,0.0072158235,0.025267854
20240312 02:43:27,-0.015110,-0.038079,0.118724,-0.022699,-0.014752,0.001896,0.393661,27.294020,-18.838791,-1.3044932,0.08650703,-0.036298517,0.08161443,-0.012040125,-0.014497289,0.01926161
20240312 02:43:27,-0.136825,0.129258,0.096423,-0.010980,-0.026471,0.013615,-0.285927,27.530716,-19.262909,0.21018103,-7.7970326E-4,0.13064563,0.16710128,0.0044436064,-0.026315821,0.016922398
20240312 02:43:27,-0.075603,0.073017,0.089769,0.003935,-0.033928,0.022138,0.163033,27.283108,-19.376251,-1.5958879,0.029136937,0.07733868,0.11540835,0.019090226,-0.033328544,0.009470066
20240312 02:43:27,0.115601,-0.053480,0.178347,-0.000326,-0.066954,0.009353,0.342064,27.473978,-18.449127,-2.5202734,0.20940325,-0.04930655,0.0132810995,0.004272703,-0.06641946,0.0041074296
20240312 02:43:27,0.109065,-0.030969,0.104143,-0.000326,-0.071215,-0.010888,0.259846,27.386356,-19.515991,-2.1589966,0.1470888,-0.029969573,-0.027558316,-0.011760489,-0.07154768,-0.0077229603
20240312 02:43:27,0.041093,-0.023662,0.015314,0.013523,-0.019013,-0.022607,0.003086,26.706610,-19.474167,-1.5227048,0.03571489,-0.02414312,-0.02461465,-0.010980071,-0.020117585,-0.024521582
20240312 02:43:27,0.035014,-0.069466,0.016600,0.033765,0.041712,-0.025803,-0.214859,26.773243,-18.542892,-0.72982335,0.032261834,-0.069668666,-0.018925974,2.9347837E-4,0.040354494,-0.042171936
20240312 02:43:27,0.006713,-0.110781,0.028597,0.048680,0.078999,-0.028999,-0.284004,26.571274,-17.860535,-0.7107144,0.023717234,-0.11000363,0.01070925,0.007817183,0.07702387,-0.0558177
20240312 02:43:27,0.006494,-0.047941,0.065099,0.050810,0.086456,-0.030064,-0.020470,26.595963,-18.261444,-0.9172351,0.055152435,-0.046570823,0.032950684,0.007907271,0.084909596,-0.057913348
20240312 02:43:27,-0.012675,0.061374,0.347664,0.044418,0.028928,-0.028999,-0.127396,26.973362,-18.957001,-0.58076197,0.269018,0.06802872,0.22225633,0.0046170857,0.027740967,-0.052710585
20240312 02:43:27,-0.102497,0.154645,0.489160,0.046549,-0.063758,-0.019411,-0.455223,27.051088,-19.635208,0.24657138,0.3307305,0.16193923,0.3760049,0.011715218,-0.06445345,-0.04868584
20240312 02:43:27,-0.092177,0.040071,0.232181,0.073183,-0.079738,0.000831,0.075188,27.274878,-19.242615,-1.122833,0.13296792,0.046902824,0.2124458,0.04229167,-0.08091858,-0.0593281
20240312 02:43:27,0.089640,-0.163925,0.008161,0.103013,-0.034993,0.009353,0.314014,27.764585,-19.272202,-2.4660878,0.05249057,-0.16624731,-0.07148919,0.06710722,-0.03789631,-0.07825063
20240312 02:43:27,0.157087,-0.192943,-0.018743,0.114731,0.004425,0.001896,-0.109081,26.971512,-18.688751,-1.6758587,0.06821703,-0.19846585,-0.1416701,0.068838865,8.621535E-4,-0.09187329
20240312 02:43:27,0.084045,-0.007067,-0.051747,0.114731,0.021470,-0.004496,-0.127010,26.781473,-18.676529,-1.2608978,0.0055280775,-0.010945873,-0.098613575,0.06280419,0.018472012,-0.09634036
20240312 02:43:27,0.049201,0.107074,-0.103295,0.107274,0.033189,-0.016215,0.216171,26.335594,-18.644012,-1.7116891,-0.05424368,0.10283303,-0.09705087,0.04811974,0.030442456,-0.09717221
20240312 02:43:27,-0.006969,0.066238,-0.266001,0.093424,0.049169,-0.033261,0.110012,26.329214,-18.778625,-1.4195219,-0.22306626,0.05880368,-0.14099012,0.02563896,0.04643337,-0.09548022
20240312 02:43:27,-0.036405,-0.046474,-0.389129,0.078509,0.073672,-0.046045,0.048294,26.989819,-19.224274,-0.8257033,-0.34567103,-0.05276131,-0.18409514,0.0060388,0.07197004,-0.090304226
20240312 02:43:27,-0.079652,-0.049818,-0.464487,0.052941,0.082195,-0.046045,-0.278763,26.683771,-19.341522,0.05399773,-0.4323159,-0.054257944,-0.18873852,-0.008476736,0.08131587,-0.0695778
20240312 02:43:27,-0.120061,0.057470,-0.325489,0.014589,0.052365,-0.039653,0.224369,26.814390,-19.211075,-0.6151757,-0.337493,0.05633152,-0.07885675,-0.024803925,0.052136563,-0.033715777
20240312 02:43:27,-0.160207,0.134044,-0.239278,-0.022699,0.009751,-0.027934,0.409405,26.733978,-19.203979,-0.62874293,-0.28837132,0.13445619,0.0020947605,-0.03585497,0.009791225,0.0035388283
20240312 02:43:27,-0.146023,0.121387,-0.206982,-0.055724,-0.023275,-0.014084,-0.012276,27.074760,-18.828506,-0.38167977,-0.2520755,0.12034086,0.00592421,-0.043035403,-0.023048736,0.03826147
20240312 02:43:27,-0.037872,0.096876,-0.146928,-0.083423,-0.039255,-0.006627,-0.039169,26.789703,-18.810165,-0.9758117,-0.1401312,0.093857095,-0.05097859,-0.05363756,-0.037991237,0.06465167
20240312 02:43:27,0.065069,0.083991,-0.106704,-0.102600,-0.029667,-0.000235,0.030365,26.799780,-19.212051,-1.3358786,-0.04802322,0.07943105,-0.11315714,-0.05956314,-0.027542105,0.08376656
20240312 02:43:27,0.046122,-0.003722,-0.084610,-0.096208,0.005490,0.002961,0.172382,27.186239,-19.101883,-1.5852861,-0.04218904,-0.0071981484,-0.08671127,-0.053273033,0.0076043806,0.08014674
20240312 02:43:27,0.105282,-0.093001,0.075101,-0.078097,0.018274,-0.008757,0.084152,27.369896,-19.248734,-1.8574005,0.11925597,-0.092999965,-0.04176555,-0.052769054,0.020187318,0.057919633
20240312 02:43:27,0.129004,-0.058646,0.254817,-0.065312,-0.005164,-0.033261,0.041134,27.836767,-19.145660,-1.6560858,0.2789827,-0.05272179,0.047970995,-0.065884985,-0.0045852535,0.032361984
20240312 02:43:27,0.072339,0.023709,0.214775,-0.046136,-0.012621,-0.048175,0.411976,27.292170,-18.570541,-2.1009107,0.21662739,0.02881203,0.06899117,-0.066497184,-0.013066471,0.008495461
20240312 02:43:27,0.050898,-0.026518,0.125342,-0.028025,0.022535,-0.047110,0.040867,26.127245,-18.096268,-1.1453443,0.1305155,-0.02430605,0.032554273,-0.05399024,0.021860374,-0.00490636
20240312 02:43:27,0.005826,-0.065145,0.152365,-0.009914,0.057692,-0.040718,-0.171837,26.306376,-18.645966,-0.4218839,0.124736734,-0.06259448,0.08575431,-0.03762104,0.05710737,-0.01602577
20240312 02:43:27,-0.037226,-0.063688,0.130215,0.005000,0.076868,-0.031130,0.093502,27.273029,-18.974365,-0.5976775,0.08191336,-0.06211394,0.10696134,-0.02128782,0.076515794,-0.022053678
20240312 02:43:27,-0.093769,-0.039484,0.125988,0.018850,0.080064,-0.022607,0.375351,27.295870,-19.107025,-0.96085435,0.046532627,-0.03822543,0.14952114,-0.006686923,0.079826534,-0.027747788
20240312 02:43:27,-0.088462,-0.023788,0.052280,0.034830,0.084326,-0.014084,-0.109852,27.355288,-19.249710,-0.010585052,-0.009674579,-0.023221653,0.10230765,0.009437866,0.084132746,-0.03646029
20240312 02:43:28,-0.059794,-0.075231,0.014201,0.048680,0.078999,-0.010888,0.718151,27.041878,-19.354980,-1.7201916,-0.024280813,-0.074675046,0.05543435,0.020482741,0.07855181,-0.0444231
20240312 02:43:28,-0.060950,-0.057974,0.022428,0.052941,0.061953,-0.013019,0.411594,27.484058,-18.851013,-1.0525771,-0.017361915,-0.057508845,0.062075637,0.020434044,0.061594542,-0.050059233
20240312 02:43:28,-0.098341,-0.000927,-0.089506,0.051876,0.054496,-0.011954,0.145489,26.901180,-19.083542,-0.3220828,-0.12954697,-9.5364626E-4,0.029999785,0.019731726,0.05443658,-0.04929594
20240312 02:43:28,-0.104602,0.029444,-0.154765,0.039092,0.058757,-0.003431,0.145489,26.901180,-19.083542,-0.32218063,-0.18675339,0.029341316,-0.0017035007,0.019450236,0.058719516,-0.033936236
20240312 02:43:28,-0.083015,0.050793,-0.177926,0.018850,0.057692,0.007223,0.223602,27.198168,-19.772018,-0.64439356,-0.1934268,0.05012099,-0.031686068,0.016927963,0.05765916,-0.011107348
20240312 02:43:28,-0.036779,0.035143,-0.143058,-0.006718,0.043842,0.017876,0.339493,26.915791,-19.082565,-0.99739397,-0.13831156,0.0341257,-0.050653428,0.011271106,0.044034258,0.01611721
20240312 02:43:28,-0.002269,0.061158,-0.096688,-0.026960,0.025731,0.025334,0.640038,26.744890,-18.666504,-1.9686928,-0.079658866,0.059423845,-0.05194816,0.005940347,0.026520733,0.0370816
20240312 02:43:28,0.117878,0.061962,-0.118824,-0.041875,0.020405,0.026399,0.173534,26.610571,-18.260468,-1.812972,-0.028011568,0.05485132,-0.16346094,-0.0015300214,0.02233638,0.049812425
20240312 02:43:28,0.176659,0.056490,-0.111094,-0.050398,0.027862,0.015746,0.357803,26.913940,-18.814331,-2.2384727,0.0116233155,0.04780607,-0.20716706,-0.014781116,0.029706385,0.050995216
20240312 02:43:28,0.165146,0.037111,-0.054116,-0.052528,0.037450,0.001896,0.358189,26.722052,-18.533859,-2.2792473,0.05282928,0.030606046,-0.16513851,-0.027424648,0.03888827,0.044806477
20240312 02:43:28,0.171698,0.022981,0.015845,-0.055724,0.025731,-0.011954,0.331566,28.146513,-19.564896,-1.886063,0.11300469,0.019738788,-0.13039842,-0.041215822,0.026553351,0.039012115
20240312 02:43:28,0.102809,0.058800,0.001545,-0.057855,0.020405,-0.018346,0.357037,27.297718,-19.375275,-1.632854,0.06216433,0.057140596,-0.08193363,-0.047997873,0.02091763,0.03687037
20240312 02:43:28,0.063542,0.058605,0.089358,-0.056790,0.014013,-0.015150,0.711372,27.696936,-18.995895,-2.3439052,0.111062944,0.059650727,0.0024764873,-0.045280814,0.014654637,0.037385523
20240312 02:43:28,0.073438,0.048838,0.185031,-0.052528,-0.004098,-0.013019,0.736465,27.040030,-19.086731,-2.276717,0.19352984,0.051645212,0.051681504,-0.041721515,-0.0035427564,0.034479577
20240312 02:43:28,0.032643,0.017776,0.161198,-0.040809,-0.001968,-0.013019,0.587666,27.308628,-18.837814,-1.5965998,0.14939764,0.019453067,0.069474034,-0.034690864,-0.0017593435,0.025130711
20240312 02:43:28,-0.023438,-0.016062,0.184206,-0.019503,0.011882,-0.013019,0.260998,26.810692,-18.674576,-0.879323,0.13357668,-0.014201838,0.12866704,-0.021980206,0.011895059,0.007974524
20240312 02:43:28,-0.028292,-0.064654,0.201535,0.002870,0.020405,-0.011954,-0.066063,26.504644,-18.791840,-0.12203472,0.14400908,-0.063400544,0.1433478,-0.007734193,0.020324985,-0.009435133
20240312 02:43:28,-0.061178,-0.049817,0.217639,0.018850,0.012947,-0.011954,0.182499,26.705591,-18.266586,-0.45809096,0.13760379,-0.04909687,0.1790253,0.0017408226,0.012876104,-0.022193184
20240312 02:43:28,-0.101181,-0.036155,0.128028,0.034830,0.020405,-0.008757,0.331295,26.436993,-18.515518,-0.48580986,0.043706354,-0.036790557,0.15706924,0.01343184,0.020512374,-0.033179726
20240312 02:43:28,-0.118710,-0.092310,0.003642,0.048680,0.039581,-0.005561,-0.118046,26.876492,-18.682648,0.35564852,-0.06659679,-0.09259751,0.09847342,0.024014415,0.03971173,-0.04278087
20240312 02:43:28,-0.109405,-0.114773,-0.016153,0.048680,0.041712,0.000831,0.376888,26.528315,-17.985138,-0.5251442,-0.07664148,-0.11505685,0.078607276,0.028991582,0.041867133,-0.038748764
20240312 02:43:28,-0.136614,0.026437,0.004211,0.039092,0.019339,0.011484,0.683826,25.894245,-18.208633,-1.0868567,-0.075995944,0.025903279,0.11398631,0.031938024,0.019424923,-0.024957668
20240312 02:43:28,-0.104016,0.037999,-0.031040,0.026307,0.002294,0.022138,0.508137,25.877787,-17.941376,-1.1553615,-0.08485239,0.038164653,0.06794875,0.033221334,0.00230882,-0.008869429
20240312 02:43:28,0.014124,0.057233,-0.109035,0.010327,-0.001968,0.024268,0.426300,25.598276,-18.727768,-1.4323107,-0.080696225,0.055539563,-0.07293722,0.025794415,-0.0017248336,0.005320832
20240312 02:43:28,0.061793,0.051134,-0.092292,-0.003522,0.003359,0.020007,0.428104,26.540241,-18.655258,-1.5817724,-0.039124742,0.048655547,-0.102756694,0.014413655,0.003767005,0.014421422
20240312 02:43:28,0.059716,0.034104,-0.074605,-0.008849,0.014013,0.014680,0.693443,27.506897,-18.983658,-2.004989,-0.02589025,0.032064095,-0.09109991,0.007128722,0.014373752,0.015973926
20240312 02:43:28,0.056410,-0.013235,-0.059787,-0.003522,0.024666,0.006157,0.383934,27.582775,-19.393616,-1.6109817,-0.016250316,-0.015371985,-0.080831066,0.003499529,0.024843259,0.006841489
20240312 02:43:28,0.090028,-0.053085,-0.080300,0.003935,0.038516,-0.007692,0.551426,27.120438,-19.093811,-1.921085,-0.01450773,-0.05612675,-0.12089315,-0.0031773385,0.0382801,-0.0069106435
20240312 02:43:28,0.034854,-0.033363,-0.083439,-0.000326,0.041712,-0.017280,0.172382,27.186239,-19.101883,-1.0794121,-0.048628293,-0.035282217,-0.07695748,-0.013556192,0.04139773,-0.009246912
20240312 02:43:28,0.007096,0.012371,-0.108200,-0.006718,0.041712,-0.017280,0.392899,27.677795,-19.399719,-1.1987407,-0.08475083,0.011073292,-0.06728825,-0.017551037,0.04156293,-0.003818817
20240312 02:43:28,-0.000985,0.010385,-0.192483,-0.028025,0.049169,-0.015150,0.550659,27.504215,-19.654770,-1.480367,-0.15826133,0.008202775,-0.10918055,-0.027903795,0.049214605,0.015038219
20240312 02:43:28,0.019001,0.014542,-0.026307,-0.051463,0.019339,-0.002365,0.587666,27.308628,-18.837814,-1.5835568,-0.010094303,0.014065154,-0.03054355,-0.03172971,0.019748826,0.040718038
20240312 02:43:28,0.007173,0.043316,0.061535,-0.063182,-0.022209,0.012549,0.552193,26.736660,-18.532883,-1.4566432,0.054671165,0.04387326,0.030554865,-0.026729688,-0.021634385,0.058378495
20240312 02:43:28,-0.002778,0.057796,0.046277,-0.055724,-0.029667,0.021072,0.437454,26.443371,-18.380905,-1.6170586,0.036909137,0.058675975,0.030343067,-0.016177766,-0.028520668,0.056994364
20240312 02:43:28,0.071763,-0.051347,0.069891,-0.035483,-0.026471,0.014680,0.155605,26.420532,-18.248245,-1.3953578,0.09749965,-0.050885018,-0.016978376,-0.009951647,-0.025404539,0.036879983
20240312 02:43:28,0.148625,-0.067633,0.096859,-0.015241,-0.023275,0.000831,1.170448,26.968678,-18.273926,-3.4700403,0.1638442,-0.06794859,-0.065217555,-0.00904111,-0.022893941,0.011954685
20240312 02:43:28,0.164252,-0.065898,0.052004,0.001804,-0.008360,-0.010888,0.481510,27.302248,-18.972412,-2.2859411,0.13635209,-0.06805297,-0.10396941,-0.008020583,-0.008753836,-0.008045675
20240312 02:43:28,0.146041,0.008192,0.013553,0.008197,0.010817,-0.025803,0.436302,27.019037,-19.222321,-2.004175,0.09665601,0.005623548,-0.11034644,-0.015816154,0.009924507,-0.021513045
20240312 02:43:28,0.125530,0.040699,0.042147,0.001804,0.014013,-0.037522,0.472160,27.399115,-19.246780,-1.7429683,0.10830447,0.03969312,-0.07664162,-0.02911981,0.013206067,-0.023100534
20240312 02:43:28,0.042340,0.028207,0.008254,-0.008849,0.016143,-0.040718,0.366768,27.008961,-18.820450,-1.1706334,0.031798314,0.02794639,-0.02916303,-0.03800475,0.015745327,-0.016458433
20240312 02:43:28,0.015130,-0.035787,-0.007148,-0.008849,0.020405,-0.032195,0.560772,27.023569,-18.819473,-1.3002245,0.002864908,-0.03589849,-0.016921988,-0.031135812,0.020243356,-0.011445565
20240312 02:43:28,-0.061903,-0.129420,-0.017143,-0.001392,0.025731,-0.024738,0.322712,26.150084,-18.228928,-0.6938116,-0.050451316,-0.1293679,0.039139967,-0.020798024,0.02568729,-0.013207796
20240312 02:43:28,-0.062096,-0.106256,-0.059302,0.014589,0.033189,-0.023672,0.182884,26.513704,-17.986115,-0.22541484,-0.084032014,-0.106210984,0.015848108,-0.010889578,0.03328848,-0.025550772
20240312 02:43:28,-0.116301,-0.067800,-0.146658,0.032700,0.036385,-0.028999,0.164570,26.515553,-18.254349,0.15594932,-0.18606448,-0.06706807,0.011527345,-0.00546317,0.03695574,-0.043468386
20240312 02:43:28,-0.143039,0.011662,-0.172120,0.035896,0.025731,-0.032195,0.745811,26.943159,-18.812378,-0.68730086,-0.2230882,0.012863776,0.019833565,-0.006480634,0.0266639,-0.047658905
20240312 02:43:28,-0.170105,0.083054,-0.199876,0.015654,-0.006229,-0.031130,0.708801,27.138746,-19.629349,-0.44208422,-0.26252496,0.08467966,0.028555378,-0.016800914,-0.0054080226,-0.030481018
20240312 02:43:28,-0.168077,0.119431,-0.221782,-0.024829,-0.034993,-0.020476,0.215401,26.719370,-19.204956,-0.09886929,-0.27872163,0.12017873,0.014676213,-0.030639958,-0.034966763,0.009015574
20240312 02:43:28,-0.048081,0.133672,-0.142708,-0.072770,-0.056300,-0.010888,0.532726,27.314177,-19.642548,-1.1063081,-0.14427707,0.13330746,-0.040147763,-0.050535142,-0.05616898,0.053039663
20240312 02:43:28,0.040247,0.095887,-0.109295,-0.112188,-0.040320,-0.003431,0.462429,27.687874,-19.801605,-1.6556524,-0.06455942,0.09321491,-0.09405227,-0.06794778,-0.038862757,0.08925309
20240312 02:43:28,0.087594,0.020566,-0.038547,-0.126037,0.005490,-0.002365,0.799599,27.513277,-18.849060,-2.3752313,0.020643864,0.018356204,-0.09302689,-0.07575658,0.0074086385,0.10080186
20240312 02:43:28,0.087165,-0.041290,0.127456,-0.110057,0.040646,-0.007692,0.232952,27.101297,-19.497650,-0.7734546,0.15389746,-0.04079043,0.006993331,-0.072179966,0.041254867,0.08348293
20240312 02:43:28,0.003883,-0.027740,0.346649,-0.069574,0.032124,-0.011954,0.329758,27.204548,-19.637405,-0.49916297,0.27704963,-0.028427787,0.2083011,-0.051989794,0.03204019,0.047995187
20240312 02:43:28,-0.095330,-0.014766,0.374038,-0.015241,0.012947,-0.010888,0.217590,27.469448,-18.851990,-0.012689847,0.23921861,-0.018729644,0.3030167,-0.018023562,0.012939624,0.0054884027
20240312 02:43:28,-0.111253,-0.012002,0.249293,0.031634,0.005490,-0.005561,0.560005,27.407345,-19.380402,-0.5396289,0.13254386,-0.0155555345,0.23864208,0.014502961,0.0058026793,-0.02859784
20240312 02:43:28,-0.118282,-0.007083,0.163249,0.061464,-0.003033,-0.001300,0.472160,27.399115,-19.246780,-0.5349227,0.06132242,-0.008923027,0.19201449,0.035432,-0.0026904098,-0.050272703
20240312 02:43:28,-0.076549,0.024828,0.092464,0.063595,-0.019013,0.001896,0.509174,27.203527,-18.429810,-0.7552263,0.030226238,0.024161533,0.11632848,0.038770292,-0.01881482,-0.05065768
20240312 02:43:28,-0.067188,0.084703,-0.031988,0.043353,-0.019013,0.001896,0.339874,26.723902,-18.802109,-0.43379655,-0.06506782,0.08463243,0.03717826,0.026443973,-0.01888011,-0.034556925
20240312 02:43:28,-0.040964,0.085810,-0.141887,0.010327,0.005490,0.007223,0.155605,26.420532,-18.248245,-0.5244604,-0.13928902,0.085198216,-0.047284827,0.011866622,0.00548976,-0.0042957314
20240312 02:43:28,-0.000354,0.020297,-0.072972,-0.021633,0.022535,0.016811,0.788834,26.476290,-18.915436,-1.591257,-0.059443083,0.02008831,-0.041899156,0.0011156108,0.022628043,0.027737906
20240312 02:43:28,-0.021703,-0.004627,0.053832,-0.037613,0.019339,0.021072,0.445267,27.114056,-19.228439,-0.94346756,0.030482799,-0.0044096825,0.049334522,-0.005257804,0.019491155,0.042971727
20240312 02:43:28,-0.015067,-0.026055,0.099516,-0.029091,0.014013,0.023203,0.366001,27.392736,-19.381378,-0.7355753,0.070958115,-0.025856234,0.07113128,0.0013578981,0.014092901,0.037292846
20240312 02:43:28,-0.006273,-0.066869,0.131506,-0.003522,0.016143,0.025334,0.393661,27.294020,-18.838791,-0.90372634,0.101197526,-0.06627595,0.083221786,0.018233804,0.016264658,0.018158289
20240312 02:43:28,0.021116,-0.099338,0.129417,0.028438,0.015078,0.027464,0.112587,26.887402,-18.145172,-0.38447976,0.11610637,-0.098870024,0.05975759,0.039063025,0.015103921,-0.0064134877
20240312 02:43:28,-0.032468,-0.121064,-0.033199,0.058268,0.022535,0.025334,0.525299,26.451601,-18.514542,-1.0364752,-0.046087302,-0.12107491,0.005460879,0.054776713,0.022515338,-0.032001887
20240312 02:43:28,-0.065759,-0.077615,-0.060941,0.068921,0.016143,0.021072,0.428490,26.348352,-18.374802,-0.6289224,-0.08755274,-0.07755677,0.017250508,0.057309106,0.016263932,-0.043509178
20240312 02:43:28,-0.080096,0.016744,-0.054632,0.062529,-0.011556,0.026399,0.763741,27.133198,-18.824600,-1.0500938,-0.09099144,0.016725784,0.03403444,0.057754233,-0.01140458,-0.035935387
20240312 02:43:28,-0.053458,-0.017698,-0.165005,0.043353,-0.031797,0.038118,0.587288,27.500517,-19.118271,-1.1534244,-0.1659448,-0.017945824,-0.05076188,0.056006044,-0.031781968,-0.014113152
20240312 02:43:28,0.006193,-0.031179,-0.235158,0.010327,-0.038189,0.045575,0.693058,27.698784,-19.264145,-1.6135961,-0.1903536,-0.033187933,-0.13900626,0.043062758,-0.03786455,0.016742289
20240312 02:43:28,-0.016225,-0.014261,-0.252419,-0.023764,-0.017948,0.045575,0.411213,27.675947,-19.131470,-1.0891483,-0.21711293,-0.016200203,-0.1300734,0.02388142,-0.01744871,0.045238487
20240312 02:43:28,0.041358,-0.031263,-0.191298,-0.047202,0.007621,0.043445,1.227291,26.901217,-20.144562,-2.9603312,-0.13293466,-0.03505663,-0.14489272,0.008394565,0.008942095,0.063809626
20240312 02:43:28,0.068860,-0.034713,-0.133227,-0.062116,0.022535,0.030660,0.490475,27.397266,-18.978531,-1.5242842,-0.06955658,-0.037388436,-0.13362789,-0.0104806945,0.023630638,0.068762526
20240312 02:43:28,0.012734,-0.013931,-0.107614,-0.062116,0.036385,0.014680,0.384315,27.390888,-19.113129,-0.9275396,-0.080442175,-0.014551582,-0.07281086,-0.023801174,0.036696948,0.059485704
20240312 02:43:28,-0.028636,0.049009,-0.051563,-0.055724,0.042777,0.011484,0.596630,27.403646,-18.843918,-0.94245946,-0.058760136,0.04911831,-0.006331593,-0.02331735,0.042594913,0.052374907
20240312 02:43:28,-0.100173,0.058309,0.048961,-0.046136,0.019339,0.020007,0.605598,27.498667,-18.850037,-1.1108991,-0.019412506,0.0583287,0.11045397,-0.010997111,0.019348232,0.049288154
20240312 02:43:28,-0.031279,0.066952,0.087104,-0.032287,-0.021144,0.029595,0.426956,27.115906,-19.496674,-1.1531793,0.052623436,0.06791122,0.07731528,0.0047537573,-0.020677086,0.043264985
20240312 02:43:28,0.029105,0.055852,0.038323,-0.020568,-0.044581,0.026399,0.748386,27.501348,-18.178925,-1.8997042,0.048785962,0.056058146,-1.4352053E-4,0.008849708,-0.044072825,0.03124686
20240312 02:43:28,0.052636,0.051224,0.029272,-0.013110,-0.052039,0.014680,0.546185,27.007940,-17.612854,-1.6677282,0.055306654,0.051082827,-0.024699248,0.0034442646,-0.051663563,0.018331356
20240312 02:43:28,0.057373,0.079374,0.039666,-0.010980,-0.053104,0.010419,0.349609,26.435143,-18.247269,-1.5172769,0.067365885,0.0793118,-0.021965722,9.2693605E-4,-0.052719064,0.014177004
20240312 02:43:28,0.076201,0.069322,0.064123,-0.015241,-0.047778,0.009353,0.376888,26.528315,-17.985138,-1.5531915,0.097929016,0.06948349,-0.02325204,-0.002270055,-0.047360517,0.017074384
20240312 02:43:28,0.062254,0.083105,0.057190,-0.017372,-0.029667,0.008288,0.375351,27.295870,-19.107025,-1.6472661,0.08465706,0.083348446,-0.015621182,-0.004116126,-0.029187368,0.01843534
20240312 02:43:28,0.073392,0.063755,0.078714,-0.019503,-0.008360,0.001896,0.383934,27.582775,-19.393616,-1.634443,0.10823022,0.06428185,-0.011764377,-0.0101592485,-0.008002331,0.016724134
20240312 02:43:28,0.079096,0.016730,0.078257,-0.019503,0.010817,-0.006627,0.199657,27.279409,-18.839767,-1.1909083,0.11014795,0.0171222,-0.017550904,-0.016640382,0.010960614,0.011978483
20240312 02:43:28,0.055773,0.022203,0.049579,-0.010980,0.038516,-0.005561,0.499825,27.300398,-18.704163,-1.4863058,0.073230654,0.022318186,-0.015435545,-0.010453741,0.03854334,0.0061724335
20240312 02:43:28,0.012897,-0.010847,0.083632,0.001804,0.044908,-0.003431,0.490475,27.397266,-18.978531,-1.078632,0.07482994,-0.01052132,0.03928844,-0.0014855193,0.044886153,-0.0029885243
20240312 02:43:28,-0.083845,-0.025319,0.108562,0.026307,0.035320,-0.000235,0.508018,27.779194,-19.271225,-0.67806774,0.03790066,-0.026239624,0.13168734,0.015208761,0.035424795,-0.021082591
20240312 02:43:28,-0.158741,-0.043720,0.066959,0.064660,0.026797,0.006157,0.595867,27.787424,-19.404861,-0.47561985,-0.03984806,-0.04622644,0.16725603,0.042998124,0.02736045,-0.048224475
20240312 02:43:28,-0.162402,-0.068293,0.088185,0.085967,-0.010490,0.004027,0.516983,27.874212,-19.277344,-0.57803226,-0.024162859,-0.069970116,0.18273014,0.0540923,-0.0100119375,-0.06706812
20240312 02:43:28,-0.168775,0.010671,-0.034212,0.084902,-0.053104,0.008288,0.402248,27.580927,-19.125366,0.010375316,-0.12524995,0.009194627,0.118375175,0.05654259,-0.052195266,-0.0646755
20240312 02:43:28,-0.158095,0.057737,-0.199867,0.066791,-0.057366,0.025334,0.647854,27.415575,-19.514038,-1.0433041,-0.2544527,0.05801321,0.017445095,0.0589234,-0.057302516,-0.041231044
20240312 02:43:28,-0.099700,-0.000820,-0.305255,0.035896,-0.043516,0.034922,0.235138,27.851376,-19.144684,-0.55575085,-0.30796686,-0.0015430585,-0.090979375,0.048986226,-0.043484654,-0.010002978
20240312 02:43:28,-0.048843,-0.058934,-0.300606,-0.001392,-0.025405,0.033856,0.869518,27.331467,-18.970459,-1.8865176,-0.27614406,-0.060724504,-0.13026142,0.026997922,-0.025170946,0.019766962
20240312 02:43:28,-0.066156,-0.014748,-0.308292,-0.037613,0.001228,0.028530,0.561157,26.831680,-18.538986,-0.9746043,-0.293238,-0.014206223,-0.115932405,0.002894858,0.0011187067,0.04712956
20240312 02:43:28,-0.191859,-0.040724,-0.517294,-0.070639,0.067280,0.018942,0.894993,26.482670,-18.780838,-1.0105127,-0.53590894,-0.034527157,-0.12851697,-0.024607202,0.06621435,0.06990296
20240312 02:43:28,-0.112043,-0.070844,-0.321065,-0.112188,0.093914,0.017876,0.376118,26.912090,-18.546082,-0.28765392,-0.32709414,-0.06843342,-0.09061776,-0.050021995,0.09296455,0.10271551
20240312 02:43:28,-0.232381,-0.036600,-0.261708,-0.147344,0.075803,0.027464,0.420177,27.770967,-19.137589,0.983196,-0.34556764,-0.032354325,0.043259755,-0.06414024,0.07037688,0.13617651
20240312 02:43:28,-0.380264,0.027032,-0.236252,-0.162259,0.063019,0.038118,0.314400,27.572697,-18.991730,1.9524899,-0.41269517,0.025178984,0.17563091,-0.06564849,0.05380752,0.15354887
20240312 02:43:28,-0.548837,-0.028269,-0.162545,-0.157998,0.039581,0.044510,0.674747,27.700634,-19.532379,2.0704305,-0.44974566,-0.04580517,0.35124275,-0.059310563,0.027382372,0.15339574
20240312 02:43:28,-0.603224,-0.122900,-0.082446,-0.154802,-0.004098,0.058359,0.472546,27.207228,-18.966309,2.5894601,-0.41424343,-0.1513463,0.43985504,-0.044830773,-0.017908856,0.15929477
20240312 02:43:28,-0.632453,-0.118976,-0.003449,-0.161194,-0.053104,0.089255,0.563732,27.389868,-17.905548,2.4020257,-0.37049747,-0.15702492,0.5082841,-0.020622186,-0.07014278,0.18388225
20240312 02:43:28,-0.642760,-0.003241,0.097406,-0.179305,-0.094653,0.126542,0.500595,26.916620,-18.143219,2.326878,-0.30889317,-0.047865402,0.57211643,4.8048794E-5,-0.11429792,0.22160545
20240312 02:43:29,-0.599001,0.045349,0.178356,-0.196350,-0.118090,0.162764,0.527489,27.201679,-18.161560,1.8717525,-0.22631761,0.0023753839,0.582984,0.017235525,-0.13870576,0.25714618
20240312 02:43:29,-0.531276,-0.003102,0.401722,-0.196350,-0.146855,0.172352,0.527489,27.201679,-18.161560,1.5328779,-0.009289116,-0.051116243,0.6659664,0.023969352,-0.16560185,0.26316363
20240312 02:43:29,-0.478093,-0.081822,0.274162,-0.180370,-0.121287,0.189397,0.412361,27.100279,-18.290054,1.1772432,-0.082783505,-0.11125344,0.5453747,0.039691,-0.13609773,0.26079547
20240312 02:43:29,-0.428216,-0.169536,0.369355,-0.149475,-0.097849,0.198985,0.491627,26.821602,-18.137115,0.84894806,0.022328138,-0.1984801,0.56684065,0.06359984,-0.11074503,0.24247494
20240312 02:43:29,-0.442324,-0.219882,0.383060,-0.115384,-0.069084,0.214966,0.193653,27.550688,-17.919724,1.2859645,0.022059292,-0.24849105,0.5880507,0.09482882,-0.080974646,0.22676548
20240312 02:43:29,-0.470176,-0.273479,0.287763,-0.079162,-0.040320,0.233077,0.217972,27.277559,-18.571518,1.6834829,-0.062103525,-0.30509636,0.55116004,0.13194628,-0.05448342,0.2094846
20240312 02:43:29,-0.496850,-0.330678,0.187586,-0.046136,-0.004098,0.253318,0.481510,27.302248,-18.972412,1.0433948,-0.15145445,-0.355779,0.5083499,0.1681872,-0.0167511,0.19487366
20240312 02:43:29,-0.425481,-0.407824,0.034735,-0.026960,0.019339,0.260776,0.447071,28.056025,-19.155930,0.53204167,-0.22577152,-0.41893896,0.3566205,0.1862872,0.010704978,0.18359081
20240312 02:43:29,-0.318978,-0.403559,0.020690,-0.032287,0.019339,0.253318,0.059444,27.834917,-18.877426,0.47968584,-0.17700809,-0.40723363,0.26453665,0.17777434,0.01554109,0.18293601
20240312 02:43:29,-0.209183,-0.278505,-0.054110,-0.056790,0.011882,0.239469,0.562576,27.965534,-18.746964,-1.2576416,-0.17106292,-0.27789378,0.13037375,0.15664247,0.013516968,0.18999998
20240312 02:43:29,-0.095434,-0.201195,-0.273439,-0.095142,0.059823,0.232011,0.429523,27.674097,-18.863235,-2.1038303,-0.28320172,-0.20740297,-0.08850665,0.13293342,0.06918893,0.21489972
20240312 02:43:29,0.127174,-0.143673,-0.331775,-0.165455,0.126940,0.213900,0.191463,26.800611,-18.272690,-2.585401,-0.19878902,-0.16565982,-0.30272457,0.080487244,0.14426078,0.2633094
20240312 02:43:29,0.223667,-0.021095,-0.198828,-0.236834,0.182338,0.200051,0.394047,27.102129,-18.558304,-3.0570073,-0.025898427,-0.04102782,-0.29871348,0.0277801,0.20250028,0.31513894
20240312 02:43:29,0.178421,0.015629,-0.061521,-0.279447,0.218559,0.190463,0.562962,27.773645,-18.466492,-3.0427017,0.0610969,0.006087103,-0.17829102,-0.009701923,0.23755762,0.34451926
20240312 02:43:29,0.136402,-0.050585,0.068679,-0.273055,0.235605,0.188332,0.581276,27.771797,-18.198242,-2.943611,0.13680655,-0.052353136,-0.06461932,-0.014871791,0.25344142,0.33819973
20240312 02:43:29,0.133721,-0.173017,0.240849,-0.222984,0.216429,0.180874,0.564114,27.197979,-17.625076,-2.8372254,0.2628427,-0.16733913,0.046883427,0.0039221495,0.23162395,0.29382557
20240312 02:43:29,0.125449,-0.228230,0.289030,-0.151606,0.172750,0.170221,0.881824,27.600897,-17.782181,-3.3107324,0.29251185,-0.22056024,0.08117485,0.039481252,0.18444306,0.23182032
20240312 02:43:29,0.041847,-0.161721,0.254880,-0.070639,0.120547,0.162764,0.889248,28.463472,-18.910187,-2.919958,0.21815096,-0.15459116,0.12412019,0.08456928,0.12745105,0.16170557
20240312 02:43:29,0.006831,-0.068055,0.227806,0.002870,0.058757,0.160633,0.695244,28.448862,-18.911163,-2.5418198,0.17769246,-0.061159417,0.13782014,0.12734291,0.06358366,0.101697735
20240312 02:43:29,0.055780,0.017271,0.324531,0.064660,-0.033928,0.163829,0.713558,28.447012,-18.642914,-3.2194612,0.28666273,0.030074377,0.16294575,0.16589466,-0.028766785,0.052514743
20240312 02:43:29,0.206827,0.000591,0.216300,0.115797,-0.113829,0.164894,0.995411,28.469851,-18.775574,-4.6770425,0.29751056,0.004064819,-0.026576206,0.19276658,-0.108431414,0.006592825
20240312 02:43:29,0.356128,-0.018341,0.010022,0.158411,-0.144724,0.163829,1.101952,28.284342,-18.360489,-5.904902,0.22428367,-0.04314181,-0.27655128,0.21204856,-0.13985239,-0.034518734
20240312 02:43:29,0.480823,-0.077384,-0.213482,0.176522,-0.144724,0.140391,0.820869,27.877726,-17.666901,-6.185162,0.111650184,-0.14188851,-0.5167868,0.20078248,-0.1424108,-0.06643157
20240312 02:43:29,0.506240,-0.055423,-0.380475,0.172260,-0.134071,0.103104,0.439255,27.385338,-18.308395,-6.078145,-0.013591409,-0.1483987,-0.6353843,0.1668658,-0.13521107,-0.0874732
20240312 02:43:29,0.494762,0.001919,-0.490666,0.156280,-0.110633,0.070078,-0.106510,27.529699,-18.055313,-5.0235033,-0.10888392,-0.10401018,-0.6862459,0.13297577,-0.11444114,-0.09267594
20240312 02:43:29,0.453981,0.099709,-0.524990,0.125385,-0.097849,0.054098,0.714714,27.871346,-17.801498,-6.587994,-0.15818903,-0.009159263,-0.66285425,0.102371216,-0.10075037,-0.0793804
20240312 02:43:29,0.391700,0.183660,-0.743902,0.078509,-0.068019,0.049837,0.756580,27.980145,-18.745987,-6.986589,-0.37729934,0.046813212,-0.7187156,0.0748772,-0.067299426,-0.043363214
20240312 02:43:29,0.439635,0.170046,-0.877671,0.011393,-0.015817,0.043445,0.622761,28.072481,-19.423203,-7.4018574,-0.46583748,-0.0051161796,-0.8273493,0.039811533,-0.010184621,0.012503894
20240312 02:43:29,0.514134,0.212822,-0.936984,-0.069574,0.023601,0.030660,-0.029167,28.210464,-19.304733,-6.6601205,-0.461653,0.0061287135,-0.92242116,-0.008530814,0.035232686,0.076471604
20240312 02:43:29,0.569062,0.259800,-0.786652,-0.154802,0.028928,0.009353,0.068027,28.121826,-19.163986,-6.7870574,-0.2940737,0.07101785,-0.8868449,-0.0723825,0.045956943,0.13654558
20240312 02:43:29,0.536938,0.371926,-0.645386,-0.227245,0.010817,-0.007692,0.137562,28.131903,-19.565872,-6.8007383,-0.17643204,0.21097961,-0.776783,-0.12972608,0.032604735,0.18622044
20240312 02:43:29,0.515035,0.384396,-0.591767,-0.274121,0.004425,-0.021542,0.428757,28.057873,-19.424179,-7.0851974,-0.13851333,0.23840243,-0.7286085,-0.16986397,0.028598508,0.21587
