Timestamp,linacce_x,linacce_y,linacce_z,gyro_x,gyro_y,gyro_z,X-magnetometer,Y-magnetometer,Z-magnetometer,Yaw, worldXAccel,worldYAccel,worldZAccel,worldXgyro,worldYgyro,worldZgyro
20231225 03:46:25,0.746694,-1.430467,-1.351397,0.378908,-0.117936,-0.197542,-6.040897,-29.926361,-9.553596,166.43333,-0.09213287,-1.5556481,1.0595795,0.22512239,-0.16017148,0.0021906346
20231225 03:46:25,0.685237,-1.432307,-1.415709,0.394888,-0.082779,-0.228437,-6.348488,-30.809929,-8.561195,165.95903,-0.20284957,-1.556638,1.130252,0.21936849,-0.12810987,0.006330639
20231225 03:46:25,0.736976,-1.303128,-1.488967,0.366124,-0.106217,-0.247614,-5.738159,-29.347191,-8.784569,166.67166,-0.24880826,-1.4583102,1.0839002,0.17125113,-0.15653332,0.02846156
20231225 03:46:25,0.880220,-1.058020,-1.602664,0.272373,-0.172268,-0.285966,-5.890179,-31.154411,-8.400162,167.1873,-0.2632408,-1.2783697,0.97786033,0.04920681,-0.22514594,0.10589023
20231225 03:46:25,1.008029,-0.821628,-1.757595,0.142400,-0.238320,-0.357344,-5.502171,-31.125191,-8.398209,168.186,-0.3238234,-1.1195949,0.8981851,-0.12285733,-0.2896346,0.231982
20231225 03:46:25,1.128397,-0.450566,-1.885970,0.007101,-0.242581,-0.469206,-5.350803,-30.835602,-8.013695,167.77733,-0.3780564,-0.80073524,0.76123035,-0.31819785,-0.2917051,0.38629752
20231225 03:46:25,1.079698,0.135936,-1.870629,-0.112218,-0.160550,-0.608766,-5.217369,-30.736046,-7.616966,166.50194,-0.44931144,-0.16107313,0.5807452,-0.506752,-0.20626676,0.53858817
20231225 03:46:25,0.812726,0.804388,-1.588961,-0.199576,-0.027381,-0.766438,-4.733704,-30.027916,-8.596176,164.80421,-0.48680001,0.69196236,0.380849,-0.67770743,-0.052961316,0.6743621
20231225 03:46:25,0.118372,1.688584,-1.145141,-0.282673,0.084480,-0.898541,-4.037987,-31.016541,-8.256767,163.2793,-0.8414719,1.7490842,0.33020514,-0.852546,0.11698094,0.7771625
20231225 03:46:25,-0.932245,2.688608,-0.826707,-0.412646,0.175035,-0.942220,-3.684803,-30.041664,-8.718803,158.87637,-1.6753592,2.616451,0.56059474,-0.98763275,0.266698,0.85249424
20231225 03:46:25,-2.179121,3.664979,-0.205715,-0.570318,0.192081,-0.867646,-3.287830,-29.917419,-8.722969,158.72495,-2.540431,2.9913297,0.79087996,-1.0314764,0.25986236,0.92265236
20231225 03:46:25,-3.218498,4.152118,0.609049,-0.697094,0.134552,-0.679080,-2.999973,-30.165863,-9.775658,158.50143,-3.053712,2.7698796,0.68428004,-0.9726877,0.10786938,0.9019331
20231225 03:46:25,-3.754328,4.023239,1.545129,-0.724793,0.017364,-0.420200,-2.470329,-29.558296,-9.944008,161.02322,-2.9480848,2.2689207,0.25225055,-0.81104106,-0.09364609,0.7633611
20231225 03:46:25,-3.597490,3.340866,2.094700,-0.580971,-0.035904,-0.149601,-2.575455,-28.238937,-10.567070,161.4463,-2.3793998,1.8212247,-0.3497727,-0.5462774,-0.15752105,0.46565127
20231225 03:46:25,-2.806874,2.357453,2.258227,-0.302915,-0.008205,0.066664,-2.383251,-29.166298,-10.638603,165.67625,-1.4712275,1.4190001,-0.79467833,-0.21769334,-0.07829355,0.11256753
20231225 03:46:25,-1.676937,1.286952,1.965912,0.018820,0.019494,0.181722,-2.919403,-27.409279,-11.160530,166.11804,-0.55360305,0.91906124,-1.0606239,0.10596479,0.008273122,-0.16562289
20231225 03:46:25,-0.506657,0.191818,1.280119,0.328836,0.040801,0.193441,-3.124062,-30.362282,-9.898033,170.97379,0.1541614,0.14955655,-0.901401,0.38036832,0.048715405,-0.3293838
20231225 03:46:25,0.377656,-0.741340,0.525635,0.584520,0.022690,0.107147,-3.114712,-30.459152,-9.623680,173.15236,0.56135464,-0.7446607,-0.55758154,0.5699682,0.003922773,-0.36216646
20231225 03:46:25,0.925922,-1.191587,-0.348290,0.744322,-0.018858,-0.022825,-3.317295,-30.760674,-9.338081,174.00137,0.59935343,-1.2826544,-0.019178301,0.6455622,-0.08472632,-0.32783046
20231225 03:46:25,1.234888,-1.299580,-1.062079,0.808243,-0.075322,-0.157059,-3.131489,-31.224854,-8.770035,174.86905,0.42586118,-1.4954085,0.3663152,0.6062373,-0.17413971,-0.27829456
20231225 03:46:25,1.188357,-1.108918,-1.716619,0.793328,-0.153092,-0.257202,-2.662415,-30.532349,-8.542641,174.9484,-0.13098192,-1.319078,0.7471694,0.47599792,-0.23895791,-0.25471646
20231225 03:46:25,0.851950,-0.700058,-2.454744,0.702774,-0.189314,-0.304077,-2.943497,-30.938965,-7.849030,172.00902,-1.0743526,-0.85102534,1.2726126,0.29986942,-0.23687062,-0.2383646
20231225 03:46:25,0.559502,-0.273988,-2.928482,0.582389,-0.188249,-0.299816,-2.634365,-30.822952,-7.719559,171.0054,-1.7621996,-0.34015188,1.5953022,0.17503284,-0.20438753,-0.20324187
20231225 03:46:25,0.449660,-0.001537,-3.134873,0.470528,-0.180791,-0.305142,-2.237007,-30.890610,-7.443245,171.3301,-2.1071842,-0.027402915,1.6535052,0.06858614,-0.18594816,-0.14782172
20231225 03:46:25,0.339160,0.298361,-3.320330,0.366124,-0.176530,-0.339234,-2.279644,-30.615631,-7.059708,169.16801,-2.4431007,0.3801668,1.6704605,-0.044191584,-0.16231327,-0.069601506
20231225 03:46:25,0.076159,0.584772,-3.539804,0.252131,-0.173334,-0.387174,-2.173489,-30.609245,-6.925102,166.81522,-2.8883922,0.8658916,1.8382543,-0.1573174,-0.12799053,0.03241907
20231225 03:46:25,-0.240405,0.820350,-3.617026,0.122159,-0.177595,-0.444703,-1.451263,-31.120926,-6.884514,167.30435,-3.2045808,1.3431251,2.075698,-0.26564473,-0.09239243,0.16385157
20231225 03:46:25,-0.718785,1.040540,-3.575268,-0.040839,-0.210621,-0.490513,-1.706600,-30.666817,-7.050659,163.27814,-3.474719,1.7308829,2.3635793,-0.35965854,-0.091279015,0.33432347
20231225 03:46:25,-1.265986,1.359964,-3.330593,-0.220883,-0.252170,-0.499036,-1.224354,-31.092537,-7.821899,162.52344,-3.655788,1.9808339,2.649484,-0.43094233,-0.1342103,0.5025816
20231225 03:46:25,-1.738759,1.728888,-2.867388,-0.398796,-0.293718,-0.473467,-0.975792,-30.891594,-7.296669,165.35635,-3.6759536,2.045887,2.8134956,-0.50183845,-0.22358978,0.6429968
20231225 03:46:25,-1.978811,2.041395,-2.195333,-0.549011,-0.323548,-0.432984,-1.161602,-30.427399,-7.864693,164.78632,-3.4078422,2.0354414,2.5322652,-0.5728232,-0.31177652,0.7440461
20231225 03:46:25,-2.086228,2.246799,-1.443982,-0.629977,-0.316090,-0.391436,-1.284920,-31.007607,-7.426132,167.34254,-2.9752405,1.9799678,2.1434343,-0.62300134,-0.34841126,0.7674359
20231225 03:46:25,-2.132400,2.296335,-0.699929,-0.624650,-0.268150,-0.353083,-0.855427,-30.677696,-8.649139,168.10574,-2.4965446,1.8509858,1.626348,-0.6254453,-0.31957945,0.7213181
20231225 03:46:25,-2.145287,2.319876,0.017919,-0.543684,-0.202098,-0.313665,-0.352299,-30.547073,-8.518692,170.80602,-2.050269,1.7387142,1.1273931,-0.56662065,-0.25220326,0.6160269
20231225 03:46:25,-2.153065,2.333227,0.543619,-0.412646,-0.147765,-0.259332,-0.582546,-30.749870,-8.775681,170.82417,-1.7291697,1.6958456,0.67857933,-0.45086372,-0.1835473,0.4788432
20231225 03:46:25,-1.980980,2.201299,0.886999,-0.260301,-0.125393,-0.184758,-0.925728,-30.303993,-8.808197,170.85574,-1.341038,1.6397645,0.27068985,-0.29700285,-0.14295568,0.32027876
20231225 03:46:25,-1.513719,1.913499,0.998842,-0.117545,-0.153092,-0.114445,-0.485348,-30.838516,-8.634956,174.19092,-0.81924886,1.5667046,-0.037793815,-0.14553976,-0.15511143,0.17404142
20231225 03:46:25,-0.767145,1.304290,0.940711,-0.002487,-0.226601,-0.114445,-0.503277,-31.028557,-8.622734,176.50641,-0.1472618,1.1989905,-0.38575697,-0.05680788,-0.22024591,0.10580953
20231225 03:46:26,-0.047805,0.857791,0.737437,0.073153,-0.333136,-0.183693,-0.591511,-30.844887,-8.769562,177.79518,0.3715251,0.8475849,-0.6044142,-0.040808104,-0.32947436,0.11932273
20231225 03:46:26,0.427345,0.677564,0.418386,0.107244,-0.392795,-0.288097,-0.485348,-30.838516,-8.634956,178.99951,0.5974779,0.67586184,-0.5987708,-0.08486629,-0.3967787,0.176703
20231225 03:46:26,0.572770,0.768633,0.302060,0.105113,-0.413037,-0.371194,-0.159443,-29.956810,-9.359138,-179.54945,0.65499127,0.7590504,-0.5783396,-0.14379512,-0.42276332,0.23356667
20231225 03:46:26,0.642409,0.881569,0.334126,0.107244,-0.397057,-0.437246,0.008053,-30.419144,-9.059341,-179.2802,0.7281654,0.87324345,-0.64268196,-0.18097618,-0.4057632,0.28270054
20231225 03:46:26,0.509253,1.067518,0.445746,0.159446,-0.323548,-0.468141,0.422569,-29.912979,-9.356209,-178.19087,0.6855556,1.0651883,-0.6360229,-0.15945585,-0.3301276,0.26790836
20231225 03:46:26,0.471445,1.243137,0.627917,0.239347,-0.227667,-0.515016,0.238297,-30.216339,-8.802338,-179.21284,0.7588238,1.2431574,-0.77156115,-0.12709993,-0.22855046,0.25744405
20231225 03:46:26,0.242715,1.665638,0.701724,0.306464,-0.188249,-0.608766,0.696220,-30.368935,-8.921806,-179.09029,0.5894017,1.650863,-0.6704108,-0.15774105,-0.15827952,0.25997365
20231225 03:46:26,-0.432798,2.500757,0.516144,0.371450,-0.124328,-0.734478,0.926853,-30.358025,-8.384323,178.65775,-0.22151837,2.3682492,-0.10877445,-0.22790956,-0.003306158,0.2679804
20231225 03:46:26,-1.567161,3.635109,0.478510,0.439633,-0.062538,-0.848470,1.666622,-30.487770,-8.636444,175.9499,-1.5260832,3.0441942,0.6601089,-0.28621137,0.217181,0.25029328
20231225 03:46:26,-3.040182,4.757399,0.365920,0.462005,-0.039100,-0.861254,1.748840,-30.400146,-7.569588,172.39674,-3.393414,3.1897745,1.6397499,-0.2601911,0.40122214,0.21609196
20231225 03:46:26,-4.541155,5.533855,0.267653,0.342686,-0.099825,-0.698256,2.339436,-30.069420,-7.853233,170.40077,-5.140067,2.8285286,2.6002152,-0.16500437,0.33124658,0.21339217
20231225 03:46:26,-5.335550,5.808834,0.564334,0.076349,-0.304372,-0.349887,2.576847,-30.713562,-7.674858,172.33098,-5.623195,2.636925,2.989634,-0.039878324,-0.08584088,0.20852819
20231225 03:46:26,-4.765149,5.396791,1.002692,-0.246452,-0.593081,0.080514,2.249020,-30.635834,-8.353035,173.9208,-4.3719406,3.0837426,2.3151572,0.0653761,-0.6338273,0.16434714
20231225 03:46:26,-2.998030,4.327144,1.430800,-0.479763,-0.717727,0.429948,2.099842,-30.175339,-8.384583,-179.95511,-1.9658902,3.433075,0.990384,0.04940793,-0.8520456,0.01024124
20231225 03:46:26,-1.005121,3.189008,1.937569,-0.577775,-0.627172,0.602534,1.702869,-30.299583,-8.380417,-176.23422,0.30270046,3.0679538,-0.7230809,-0.054878354,-0.6741326,-0.14291742
20231225 03:46:26,0.432246,1.969067,2.315818,-0.600147,-0.353378,0.612122,1.411285,-30.033661,-8.802589,-174.80475,1.6337943,2.0142198,-2.0411372,-0.2040259,-0.30478853,-0.23447248
20231225 03:46:26,1.257382,0.258556,3.294438,-0.543684,-0.067864,0.510914,1.065914,-30.337868,-9.188087,-175.47563,2.4046602,0.2641387,-3.4971192,-0.3157976,3.1740405E-4,-0.27322075
20231225 03:46:26,1.499865,-1.444226,4.326694,-0.372163,0.123898,0.321282,0.986652,-30.059181,-9.341042,-176.12526,2.5002341,-1.4711764,-4.6494493,-0.27727437,0.16265383,-0.20889196
20231225 03:46:26,1.312154,-2.685480,5.074061,-0.064277,0.202734,0.107147,1.117516,-30.517815,-9.577736,-176.57855,2.1253,-2.706848,-5.372225,-0.043072864,0.20734504,-0.08256292
20231225 03:46:26,0.779968,-3.492470,5.183385,0.374646,0.192081,-0.089942,1.208698,-30.335182,-8.516991,-177.3373,1.458796,-3.4932966,-5.3963785,0.3596603,0.18590394,0.04776067
20231225 03:46:26,0.207431,-3.873936,4.366388,0.889209,0.143075,-0.236960,1.147751,-30.058350,-8.401688,-178.1477,0.837756,-3.8835485,-4.4734855,0.8461893,0.16734749,0.113167286
20231225 03:46:26,-0.229000,-3.703134,2.654858,1.350505,0.123898,-0.296620,1.094341,-30.820366,-8.084549,-179.03287,0.38812956,-3.7514322,-2.6090426,1.2568494,0.22807012,0.009681165
20231225 03:46:26,-0.543760,-3.280106,0.927231,1.662652,0.102591,-0.260398,1.573917,-30.800392,-6.741371,-178.45859,-0.1151357,-3.3536024,-0.8014634,1.5012741,0.30628636,-0.25547236
20231225 03:46:26,-0.715189,-2.941105,-0.704831,1.807539,0.042932,-0.153863,1.444206,-30.917412,-5.663246,-178.84511,-0.74241364,-2.9591641,0.8872114,1.5710427,0.31610274,-0.6237871
20231225 03:46:26,-0.549450,-2.619287,-2.040236,1.780906,-0.058276,0.003809,1.920441,-31.071861,-5.514458,-177.03894,-1.386498,-2.5068686,1.8875062,1.4881692,0.13821347,-0.9935525
20231225 03:46:26,0.006200,-2.363099,-3.130591,1.585947,-0.208490,0.155088,1.748478,-31.105789,-3.772331,-175.00827,-2.1228127,-2.3827705,2.1456316,1.2737387,-0.21843526,-1.1976352
20231225 03:46:26,0.806927,-2.185909,-3.850955,1.239709,-0.403449,0.260558,1.615807,-31.589127,-3.608139,-172.51306,-2.6682303,-2.9435678,1.727381,0.9359579,-0.5411141,-1.1362512
20231225 03:46:26,1.624964,-1.938711,-4.269133,0.801851,-0.614388,0.321282,1.600449,-31.220970,-2.962456,-171.24713,-2.5874906,-3.7835898,1.2293954,0.49735326,-0.66346794,-0.88078845
20231225 03:46:26,2.341090,-1.857635,-4.522990,0.321379,-0.782713,0.341524,1.273010,-31.335129,-3.360176,-170.80457,-1.9791341,-4.57916,0.97827804,0.035057336,-0.574945,-0.5461006
20231225 03:46:26,2.962015,-1.780445,-4.509728,-0.146309,-0.886052,0.318086,1.194126,-31.248337,-3.232666,-171.3583,-1.1307468,-5.0307646,0.7788942,-0.39622754,-0.38489443,-0.20554465
20231225 03:46:26,3.410423,-1.833299,-4.369411,-0.574579,-0.866876,0.249904,0.946335,-31.833069,-3.196960,-172.66727,-0.27208817,-5.199125,0.86059594,-0.7315248,-0.16684145,0.10589056
20231225 03:46:26,3.723488,-1.978641,-3.726090,-0.925078,-0.748622,0.105017,0.769108,-31.081970,-4.051567,-172.20644,0.583526,-4.898555,0.570904,-0.98880816,-0.03784775,0.3791796
20231225 03:46:26,3.687006,-1.847502,-2.678208,-1.174370,-0.612257,-0.103792,0.653217,-30.799591,-4.741020,-172.33345,1.2538964,-4.0660715,-0.05038166,-1.2131068,0.0010114983,0.67093503
20231225 03:46:26,3.246657,-1.486072,-1.595591,-1.344826,-0.466305,-0.344560,0.853230,-31.056259,-5.660065,-172.48695,1.6056842,-2.8261223,-0.59762526,-1.40363,-0.039911337,0.96586573
20231225 03:46:26,2.389889,-0.979525,-0.365868,-1.428988,-0.354443,-0.567218,0.931728,-30.951164,-6.068062,-174.22054,1.7320905,-1.491717,-1.0174278,-1.5513359,-0.119375005,1.1952101
20231225 03:46:26,1.196027,-0.591025,0.851506,-1.404485,-0.283065,-0.733412,1.319736,-30.921944,-6.066109,-175.69682,1.4367087,-0.637524,-1.3706546,-1.5931425,-0.21493226,1.3155878
20231225 03:46:26,-0.122908,-0.211216,2.017694,-1.284101,-0.240451,-0.816509,1.431137,-30.803078,-7.412460,-177.5419,0.852725,-0.27079356,-1.7244558,-1.5107073,-0.2818855,1.318059
20231225 03:46:26,-1.316775,0.150275,2.953610,-1.072096,-0.237255,-0.789876,2.109570,-30.464096,-7.829750,-177.74286,0.14241421,-0.22398753,-2.0268202,-1.2938982,-0.3230834,1.1815736
20231225 03:46:26,-2.248141,0.289824,3.511751,-0.772734,-0.225536,-0.669491,2.417931,-29.964310,-8.261223,-178.384,-0.5539981,-0.4518708,-2.173884,-0.9605051,-0.30430192,0.9331916
20231225 03:46:26,-2.876495,0.337202,3.780608,-0.417973,-0.236189,-0.479859,2.637028,-30.606613,-8.351082,-178.64992,-1.0520763,-0.6829463,-2.1671524,-0.5534563,-0.2702074,0.60785913
20231225 03:46:26,-2.973192,0.250300,3.406672,-0.054689,-0.262823,-0.262528,3.299339,-29.515724,-8.683647,-177.16438,-1.2283382,-0.763487,-1.7228937,-0.13380426,-0.23886287,0.2476552
20231225 03:46:26,-2.586301,0.067770,2.400662,0.262785,-0.273477,-0.076092,2.804405,-29.167542,-9.381157,-177.9188,-1.1894503,-0.650669,-0.9029881,0.2241349,-0.21107487,-0.06491316
20231225 03:46:26,-1.880478,-0.188682,1.263000,0.493965,-0.280934,0.042161,2.920296,-29.449921,-8.691719,-175.85503,-0.9831172,-0.5423231,-0.15481383,0.47013664,-0.21353142,-0.3023292
20231225 03:46:26,-1.175187,-0.458739,-0.111267,0.618611,-0.258562,0.093298,2.698627,-29.365814,-9.235298,-174.70116,-1.0027503,-0.5486509,0.7248743,0.5765744,-0.21063295,-0.4479835
20231225 03:46:26,-0.575793,-0.484549,-1.333029,0.623938,-0.177595,0.109278,2.339050,-29.877533,-8.133705,-173.38538,-1.2782369,-0.472108,1.3471439,0.55630636,-0.16468611,-0.4939443
20231225 03:46:26,-0.076476,-0.611540,-2.222611,0.547233,-0.061472,0.103951,2.869080,-29.461845,-8.021584,-168.63869,-1.5678484,-0.6952187,1.5792121,0.4732799,-0.08127085,-0.45135325
20231225 03:46:26,0.394183,-0.794837,-2.732712,0.407672,0.073827,0.066664,3.027222,-29.827324,-7.996155,-166.36081,-1.6240264,-1.0743496,1.542297,0.35060772,0.039294668,-0.31187025
20231225 03:46:26,0.675702,-0.884390,-2.841301,0.241478,0.175035,0.004874,2.763687,-29.852005,-7.595268,-167.10944,-1.4710097,-1.2763377,1.4599836,0.20241413,0.1428671,-0.13605095
20231225 03:46:26,0.795161,-0.981937,-2.629330,0.085937,0.219780,-0.069700,2.843334,-30.322571,-7.161842,-168.10835,-1.1766622,-1.3428972,1.2919652,0.04401986,0.1989562,0.030864622
20231225 03:46:26,0.691734,-0.998026,-2.338010,-0.041905,0.226172,-0.130425,2.894936,-30.502533,-7.551498,-168.76706,-1.0126431,-1.2342472,1.1847291,-0.09717344,0.21844845,0.15957767
20231225 03:46:26,0.476694,-0.918704,-2.006268,-0.127133,0.202734,-0.158124,2.650101,-30.720963,-6.601868,-170.99265,-0.9151155,-1.0506701,1.1447037,-0.18698385,0.20215137,0.22624251
20231225 03:46:26,0.378092,-0.771366,-1.725092,-0.176139,0.155859,-0.160255,3.125568,-30.491623,-7.014023,-169.76581,-0.80221117,-0.8542502,0.9885937,-0.23141652,0.15794139,0.25469503
20231225 03:46:26,0.288196,-0.597061,-1.619026,-0.201707,0.133486,-0.145340,2.562252,-30.729195,-6.468239,-171.72612,-0.81266165,-0.6607917,0.9973012,-0.24373999,0.13670069,0.25362703
20231225 03:46:26,0.305871,-0.390366,-1.495293,-0.218753,0.129225,-0.111249,3.204067,-30.386528,-7.422012,-169.10631,-0.7200353,-0.46323577,0.88865733,-0.23467076,0.13517456,0.24174581
20231225 03:46:26,0.448284,-0.261572,-1.384736,-0.234733,0.157989,-0.068635,3.080360,-30.774834,-7.263931,-169.46223,-0.5214088,-0.36132267,0.74919945,-0.2181433,0.16914958,0.22151667
20231225 03:46:26,0.688994,-0.198910,-1.038466,-0.232602,0.204865,-0.044132,3.179359,-29.921501,-7.050705,-169.01361,-0.076396465,-0.3178239,0.37583977,-0.20027542,0.22017789,0.20497078
20231225 03:46:26,0.835882,-0.168232,-0.556191,-0.198511,0.229368,-0.034544,3.346466,-30.191956,-7.031387,-168.92847,0.3528938,-0.27383378,-0.063284785,-0.1678568,0.24316241,0.17825253
20231225 03:46:26,0.799039,-0.023672,-0.170842,-0.147374,0.218714,-0.028152,3.274364,-30.760223,-7.262955,-169.5502,0.5553074,-0.09076375,-0.32472092,-0.12554733,0.22717299,0.13976036
20231225 03:46:26,0.676620,0.178391,0.097075,-0.090911,0.164382,-0.022825,3.310608,-30.572029,-7.006935,-169.75246,0.6126993,0.14513177,-0.44704005,-0.08068169,0.16804914,0.0950729
20231225 03:46:26,0.527854,0.499714,0.082976,-0.039774,0.088742,-0.026021,2.992130,-30.591179,-7.410767,-170.31294,0.48401734,0.48002085,-0.3212671,-0.044541165,0.08942783,0.05643718
20231225 03:46:26,0.411773,0.852391,-0.165218,-0.011010,0.034409,-0.021760,3.434696,-30.375610,-6.884552,-168.83406,0.22997265,0.8344239,-0.016668402,-0.021544464,0.03414779,0.028486988
20231225 03:46:26,0.383698,1.027918,-0.461717,-0.006748,0.053585,-0.024956,3.300873,-30.283272,-7.561775,-168.52841,0.00415501,1.0052388,0.23435396,-0.02032465,0.053119622,0.030684488
20231225 03:46:26,0.318394,1.238819,-0.640294,-0.018467,0.139879,-0.049459,3.450439,-30.935654,-7.249756,-168.41307,-0.17359212,1.2175996,0.42852563,-0.04415217,0.13919629,0.06880687
20231225 03:46:26,0.270074,1.283039,-0.438992,-0.030186,0.265590,-0.086746,3.389870,-30.850708,-6.853989,-169.46587,-0.075675905,1.2766428,0.32262886,-0.07765859,0.265127,0.12051404
20231225 03:46:26,0.093234,1.141104,-0.102036,-0.012075,0.403020,-0.125098,3.080360,-30.774834,-7.263931,-171.4472,-0.01128,1.1443136,0.15071279,-0.095139965,0.40471843,0.14991711
20231225 03:46:26,-0.297141,1.069237,0.434257,0.036931,0.518077,-0.143209,3.089710,-30.871696,-6.989571,-172.86073,-0.023969352,1.0245159,-0.0539321,-0.084130995,0.52592,0.1407386
20231225 03:46:26,-0.787959,1.208465,0.805209,0.105113,0.589455,-0.103792,3.893002,-30.720100,-6.723541,-171.7187,-0.2472434,1.0443286,-0.021374285,-0.026924647,0.6039655,0.08622583
20231225 03:46:26,-1.220620,1.336507,1.048374,0.191406,0.622481,-0.008976,3.672104,-31.019760,-6.706177,-173.33305,-0.49771243,1.0176651,0.032665312,0.07770767,0.64090866,-0.051125903
20231225 03:46:26,-1.577377,1.521491,0.997417,0.275569,0.624612,0.117801,3.927059,-31.281975,-6.820488,-173.33392,-0.83223444,1.0656916,0.3568436,0.19836763,0.64021116,-0.2076603
20231225 03:46:26,-1.765897,1.909653,0.683699,0.332032,0.639527,0.260558,3.496029,-30.844330,-6.719383,-174.43806,-1.1815242,1.4213405,0.8109954,0.31194758,0.6380734,-0.3686574
20231225 03:46:26,-1.700026,2.426675,0.230263,0.322444,0.658703,0.374550,3.514729,-31.038071,-6.170662,-173.70546,-1.4653851,2.0111167,1.2377279,0.36745816,0.62766224,-0.44029754
20231225 03:46:26,-1.678036,2.987736,-0.003640,0.203125,0.624612,0.465104,3.295635,-30.395775,-6.080795,-173.91634,-1.6898922,2.60783,1.4528443,0.3534957,0.55305374,-0.41760862
20231225 03:46:26,-1.477421,3.200138,-0.090236,-0.026990,0.501032,0.562051,3.003017,-31.455605,-6.014526,-174.28133,-1.5700188,2.9244943,1.3689423,0.30817315,0.39530328,-0.3221582
20231225 03:46:26,-0.982587,2.893291,-0.057429,-0.299719,0.384909,0.658998,2.553673,-31.016106,-6.181656,-174.20798,-0.99809563,2.7835348,0.94874865,0.22439858,0.29177,-0.2137402
20231225 03:46:26,-0.104500,2.218609,0.186570,-0.537292,0.390235,0.725049,2.298721,-30.753883,-6.067337,-173.16158,0.041820914,2.2181768,0.12830237,0.07562226,0.3883651,-0.15009633
20231225 03:46:26,0.888657,1.221600,0.866855,-0.713074,0.495705,0.721853,2.086403,-30.766640,-6.336555,-173.30121,1.2747159,1.1941181,-1.0884488,-0.17748278,0.579296,-0.1591664
20231225 03:46:26,1.560661,-0.295712,2.006005,-0.789779,0.629939,0.635560,1.970890,-30.676147,-6.745529,-173.91489,2.201379,-0.36961907,-2.474628,-0.45198435,0.73897684,-0.21191362
20231225 03:46:26,1.810940,-1.799967,3.193391,-0.736512,0.756715,0.490673,1.183342,-31.387794,-7.376762,-175.97536,2.4965148,-1.8964324,-3.6597404,-0.5695578,0.8465336,-0.23808122
20231225 03:46:26,1.760851,-3.034113,4.465278,-0.544749,0.799329,0.337263,0.945930,-30.743645,-7.555153,-177.01636,2.3817666,-3.1068144,-4.8311973,-0.47793552,0.84234715,-0.20894295
20231225 03:46:26,1.334667,-3.854684,5.512451,-0.241125,0.656572,0.205159,1.158249,-30.730888,-7.285927,-177.19992,1.8411219,-3.88479,-5.79591,-0.21772555,0.66686624,-0.1489248
20231225 03:46:26,1.028619,-4.378607,5.639367,0.123224,0.407281,0.117801,1.510399,-31.081749,-7.259521,-176.81923,1.4503602,-4.39204,-5.9353056,0.13269083,0.4043097,-0.104208365
20231225 03:46:26,0.936620,-4.319185,4.749788,0.492900,0.186754,0.071991,1.255444,-30.819527,-7.145203,-177.17307,1.4790165,-4.3282022,-5.0332236,0.49862564,0.17223714,-0.120849505
20231225 03:46:26,1.081223,-3.669120,3.074906,0.740061,0.024821,0.056011,0.955280,-30.840523,-7.280785,-177.26039,1.6379423,-3.6881788,-3.3985262,0.73632395,-0.016517725,-0.2036289
20231225 03:46:26,1.246387,-3.027220,1.414547,0.796524,-0.125393,0.029377,1.310001,-30.633186,-6.620934,-176.09839,1.5604372,-3.0743704,-1.935719,0.75913733,-0.18380992,-0.29600665
20231225 03:46:26,1.309197,-2.038286,-0.188661,0.678270,-0.192510,-0.010041,1.198215,-30.560173,-5.555038,-175.88326,0.9515197,-2.146618,-0.6078685,0.576487,-0.24845754,-0.33711123
20231225 03:46:26,1.166363,-0.856841,-1.132040,0.404476,-0.234059,-0.064374,1.135464,-31.225311,-5.512245,-175.87283,0.15957528,-0.96420527,0.09586674,0.26403654,-0.2574904,-0.21766663
20231225 03:46:26,0.805807,0.294085,-1.399551,0.022016,-0.306502,-0.121902,1.038269,-31.136673,-5.652977,-176.96594,-0.38540226,0.30825466,0.4657113,-0.06631166,-0.30557314,0.061112233
20231225 03:46:26,0.125595,0.989138,-1.297201,-0.395600,-0.369358,-0.170908,1.392220,-30.545563,-5.554062,-177.38855,-0.86947453,1.0830798,0.88258815,-0.37790146,-0.38432434,0.38459408
20231225 03:46:26,-0.529250,1.247042,-0.575415,-0.747165,-0.408776,-0.175170,1.382870,-30.448692,-5.828430,-178.82477,-0.90431416,1.224512,0.80057365,-0.6378783,-0.47885722,0.6102609
20231225 03:46:26,-1.091607,1.124192,0.380121,-0.970888,-0.370423,-0.137883,1.364559,-30.446846,-6.096672,-179.48326,-0.80099654,0.894763,0.32370853,-0.83268785,-0.49854937,0.6675049
20231225 03:46:26,-1.483299,0.775251,1.572707,-1.011372,-0.256431,-0.067570,1.132122,-31.399727,-6.706642,179.4248,-0.6082546,0.3436869,-0.6440705,-0.8871913,-0.4215718,0.5594943
20231225 03:46:26,-1.836960,0.230554,2.764277,-0.861158,-0.089171,0.037900,1.422173,-30.898094,-7.406349,179.81494,-0.5964173,-0.33202082,-1.7800412,-0.7645542,-0.24715526,0.31554955
20231225 03:46:26,-1.918931,-0.522293,3.775819,-0.551141,0.057847,0.157219,1.288731,-30.997635,-7.803093,179.67903,-0.56255305,-1.0677764,-2.933814,-0.473293,-0.04701009,0.0321161
20231225 03:46:26,-1.718759,-1.330418,4.301888,-0.138851,0.130290,0.256296,1.289501,-31.381416,-7.242157,-179.66731,-0.44141793,-1.7478243,-3.6790972,-0.07011992,0.09756534,-0.20810023
20231225 03:46:26,-1.246458,-1.957183,4.041582,0.309660,0.156924,0.310629,0.821846,-30.940063,-7.677528,179.87375,-0.14020467,-2.198598,-3.593956,0.37280768,0.18123806,-0.37886295
20231225 03:46:26,-0.651660,-2.339956,3.143534,0.721950,0.151597,0.313825,1.149670,-31.017792,-6.999336,-178.82094,0.24719012,-2.4505541,-2.9064617,0.7756163,0.20093532,-0.48992437
20231225 03:46:26,-0.243451,-2.452860,1.728588,1.035162,0.120702,0.287191,0.974361,-31.226143,-6.451599,-178.79942,0.34784937,-2.4948857,-1.6172205,1.0708089,0.1749422,-0.59061146
20231225 03:46:26,-0.014127,-2.409290,0.094160,1.232251,0.118572,0.250969,0.914181,-31.333092,-5.775360,-178.60324,0.0660401,-2.4090362,-0.13545239,1.2310596,0.16589388,-0.7059858
20231225 03:46:26,0.198030,-2.268891,-1.293762,1.327067,0.146271,0.209421,0.447678,-31.467407,-5.369324,-179.33064,-0.41796267,-2.244836,1.0149131,1.2616559,0.17699115,-0.8214802
20231225 03:46:26,0.299087,-2.116976,-2.481435,1.334525,0.167578,0.168938,0.838257,-30.880005,-4.733925,-178.13124,-1.1958284,-2.073848,1.7665484,1.1732278,0.19176842,-0.92146486
20231225 03:46:27,0.336491,-1.903111,-3.414538,1.258885,0.181427,0.131650,0.548210,-31.381638,-4.034210,-178.72127,-2.0847814,-1.8347633,2.200967,0.996639,0.20261396,-0.963194
20231225 03:46:27,0.304716,-1.765097,-4.112567,1.134240,0.183558,0.096494,0.469715,-31.486740,-3.626221,-179.19035,-2.8742588,-1.5550085,2.383011,0.79154825,0.22340462,-0.9313504
20231225 03:46:27,0.155409,-1.675344,-4.641303,0.961653,0.179296,0.073056,0.736591,-31.287636,-2.832733,-178.5952,-3.5355682,-1.1709874,2.4737742,0.5852988,0.23857701,-0.83177286
20231225 03:46:27,0.063817,-1.551388,-4.925604,0.735799,0.145205,0.074122,0.888340,-31.189941,-2.167740,-177.8353,-3.918465,-0.8672532,2.4677997,0.42475003,0.19326976,-0.66467637
20231225 03:46:27,0.052571,-1.396556,-5.013096,0.463070,0.085546,0.075187,0.579212,-31.305946,-2.297218,-178.9033,-4.1083884,-0.78896314,2.4501271,0.28620267,0.10745267,-0.43768513
20231225 03:46:27,0.187241,-1.308722,-4.854462,0.164773,0.017364,0.060272,0.579597,-31.497833,-2.016747,-178.24577,-3.9486995,-1.0499631,2.3817325,0.13719441,0.019506084,-0.1714609
20231225 03:46:27,0.319412,-1.214485,-4.454407,-0.142048,-0.073191,0.030442,0.412487,-31.227386,-2.036064,-178.6456,-3.4647696,-1.1540003,2.25538,-0.054868326,-0.07484364,0.09849493
20231225 03:46:27,0.465304,-1.106305,-3.950235,-0.445672,-0.154158,-0.003649,0.342571,-31.045570,-1.914658,-178.72337,-2.791439,-1.2150538,2.1222093,-0.28863555,-0.1449769,0.3453091
20231225 03:46:27,0.671937,-1.123476,-3.248217,-0.719466,-0.210621,-0.053720,0.261120,-31.516975,-2.420586,-178.8123,-1.8848197,-1.3090966,1.7904088,-0.55431426,-0.17847869,0.54608434
20231225 03:46:27,0.851230,-1.134450,-2.501421,-0.931470,-0.226601,-0.126164,0.400566,-31.688705,-2.943863,-178.43143,-1.023772,-1.292806,1.3264599,-0.800809,-0.18152897,0.69569886
20231225 03:46:27,0.848249,-1.067655,-1.635769,-1.051855,-0.171203,-0.215653,0.991158,-31.357971,-3.227524,-177.13094,-0.32487458,-1.1579175,0.76577526,-0.979278,-0.1311017,0.79190886
20231225 03:46:27,0.726349,-0.887624,-0.590196,-1.065704,-0.109413,-0.308338,0.682030,-31.473976,-3.356995,-178.26138,0.28298733,-0.90610236,0.08152416,-1.0645864,-0.09473942,0.83216417
20231225 03:46:27,0.405551,-0.626457,0.349144,-0.986869,-0.089171,-0.387174,0.708157,-30.805138,-3.936279,-178.62312,0.5381143,-0.62091863,-0.52178985,-1.0428239,-0.10944099,0.84156954
20231225 03:46:27,-0.091111,-0.222026,1.000926,-0.848373,-0.083845,-0.437246,0.969505,-31.530525,-4.690155,-178.64807,0.45537728,-0.27154952,-0.8085843,-0.94717187,-0.1246926,0.8155005
20231225 03:46:27,-0.531368,0.390184,1.294433,-0.677918,-0.064668,-0.452160,0.926098,-30.871780,-4.867554,-179.3054,0.2361514,0.23492017,-0.7827525,-0.8080294,-0.10561012,0.7503587
20231225 03:46:27,-1.004493,1.025784,1.451515,-0.512789,-0.041231,-0.436180,1.268517,-30.933876,-5.395981,-179.29707,-0.11236209,0.70981187,-0.6045507,-0.66177356,-0.07140534,0.65076375
20231225 03:46:27,-1.514480,1.503631,1.528961,-0.372163,-0.026316,-0.387174,1.338818,-31.307571,-5.236916,-179.80463,-0.5700299,0.9653416,-0.3563341,-0.5181873,-0.04359436,0.5314204
20231225 03:46:27,-2.018368,1.773125,1.685674,-0.241125,-0.024185,-0.296620,1.198601,-30.752060,-5.274574,179.33356,-0.97114074,1.0079972,-0.21213579,-0.35869646,-0.029546496,0.38176033
20231225 03:46:27,-2.362092,1.932731,1.870738,-0.101564,-0.042296,-0.161320,1.575459,-31.567940,-5.619476,179.82594,-1.2173086,1.0088702,-0.18283594,-0.16516095,-0.037972663,0.19050682
20231225 03:46:27,-2.348255,1.708850,1.970012,0.071022,-0.065734,-0.027086,1.681614,-31.561569,-5.484863,-179.52907,-1.1518565,0.8536276,-0.33102536,0.054213565,-0.04407505,-0.017158391
20231225 03:46:27,-2.014034,1.281281,1.966386,0.267046,-0.120066,0.064533,1.638596,-31.094696,-5.381805,-179.08623,-0.8244364,0.6200248,-0.5563917,0.27361867,-0.07355492,-0.19968836
20231225 03:46:27,-1.541327,0.866975,1.681738,0.469462,-0.191445,0.090102,1.435627,-31.204323,-5.376663,-179.05627,-0.49124098,0.42969438,-0.56670547,0.46234372,-0.12188535,-0.33265126
20231225 03:46:27,-1.083487,0.609469,1.107472,0.654833,-0.262823,0.063468,1.480450,-30.729225,-5.407234,-178.36433,-0.33580565,0.37053028,-0.2948851,0.5999153,-0.18237787,-0.42585254
20231225 03:46:27,-0.618378,0.384377,0.427125,0.789067,-0.328875,-0.005780,1.190788,-31.422745,-4.427040,-178.21161,-0.27765107,0.30237195,0.024472654,0.6574862,-0.25861505,-0.46458882
20231225 03:46:27,-0.184083,0.239533,-0.208833,0.856184,-0.389599,-0.085681,1.536545,-31.310440,-3.761086,-176.65953,-0.28373194,0.23814535,0.28868884,0.6311372,-0.3414065,-0.48576617
20231225 03:46:27,0.101313,0.256594,-0.849358,0.861510,-0.402384,-0.131491,1.193359,-30.864563,-3.793602,-177.108,-0.48370907,0.27944127,0.58603483,0.5761816,-0.37520197,-0.478553
20231225 03:46:27,0.294168,0.131490,-1.141743,0.797589,-0.409841,-0.144275,1.431152,-31.700592,-3.334747,-176.18465,-0.5423215,0.13272856,0.65923774,0.49846143,-0.40896863,-0.44495392
20231225 03:46:27,0.551809,0.025692,-1.258198,0.662290,-0.407710,-0.151732,1.573170,-31.314140,-3.224594,-175.40047,-0.4025884,-0.040052593,0.5901741,0.38813394,-0.4389565,-0.3431089
20231225 03:46:27,0.915273,-0.345656,-1.107346,0.523795,-0.395992,-0.209261,1.779095,-30.838219,-2.315811,-175.01207,0.0138114095,-0.48082733,0.27434427,0.2578799,-0.4467709,-0.18825519
20231225 03:46:27,1.094907,-0.614839,-0.712971,0.435371,-0.375750,-0.332841,1.724922,-31.216438,-2.559601,-175.32095,0.43735468,-0.73341346,-0.10685313,0.13795616,-0.4250185,-0.011324227
20231225 03:46:27,0.872503,-0.707089,-0.314275,0.403411,-0.362966,-0.484121,2.149555,-31.190918,-2.021164,-174.81631,0.52144927,-0.7381723,-0.29510853,0.04657224,-0.38414198,0.13757712
20231225 03:46:27,0.299579,-0.464884,-0.010654,0.433240,-0.365096,-0.619420,2.547298,-31.450455,-1.464378,-174.19232,0.24937735,-0.4496043,-0.20933689,-0.012989223,-0.32212913,0.2021015
20231225 03:46:27,-0.584539,0.314176,0.027171,0.508880,-0.350182,-0.701452,2.422825,-31.454979,-1.867233,-174.75652,-0.45940065,0.22051673,0.38963673,-0.032139122,-0.18032098,0.15997669
20231225 03:46:27,-1.697129,1.456172,-0.243227,0.581324,-0.296914,-0.697190,3.447403,-31.195602,-1.338089,-171.97481,-1.700263,1.0185136,1.5407087,-0.0017399192,0.03948988,0.02094099
20231225 03:46:27,-2.942952,2.930593,-0.564052,0.568540,-0.267084,-0.571479,3.474682,-31.102432,-1.075958,-171.9386,-3.3637662,1.8415589,2.8963041,0.075778335,0.16613933,-0.108695984
20231225 03:46:27,-4.065501,4.431230,-0.757984,0.378908,-0.352312,-0.317927,3.395031,-30.631866,-1.509377,-173.05576,-4.962612,2.5890756,4.0297303,0.17923684,-0.013084218,-0.14073277
20231225 03:46:27,-4.451014,5.268870,-0.720475,0.000709,-0.564317,0.009135,3.784191,-31.178314,-0.666008,-170.3707,-5.479654,3.235565,4.5271044,0.2588861,-0.4730593,-0.061932
20231225 03:46:27,-3.847282,4.988624,-0.295254,-0.423299,-0.762471,0.324478,3.608501,-31.194778,-0.398743,-170.11583,-4.2255354,3.6390173,3.729918,0.21813865,-0.9085078,0.052811384
20231225 03:46:27,-2.379365,3.978212,0.646775,-0.701355,-0.776321,0.552463,2.971165,-31.041161,-1.486877,-172.4836,-1.7354653,3.4976122,1.6403983,0.01756531,-0.9319793,0.060516328
20231225 03:46:27,-0.626097,2.710648,1.938911,-0.796171,-0.612257,0.657932,2.777161,-31.055771,-1.487854,-173.33965,0.67628634,2.7034845,-0.8975228,-0.22969452,-0.61664593,-0.090275556
20231225 03:46:27,0.731073,0.851780,3.385549,-0.759949,-0.388534,0.646214,2.582005,-30.494713,-2.330246,-173.99464,2.1719072,0.92467827,-3.2658682,-0.4158412,-0.2977852,-0.28010282
20231225 03:46:27,1.527087,-1.252943,4.728584,-0.605474,-0.228732,0.574835,2.192577,-31.657784,-2.124229,-175.31296,2.7218504,-1.2625186,-5.0497913,-0.4319687,-0.12950614,-0.4004404
20231225 03:46:27,2.038131,-3.040560,5.699612,-0.352986,-0.175464,0.454451,1.955170,-31.013641,-2.302612,-175.67384,2.8134923,-3.1805317,-6.1576796,-0.28325257,-0.1069781,-0.40585262
20231225 03:46:27,2.340361,-4.395366,6.094357,-0.028055,-0.231928,0.280799,1.576126,-30.947838,-2.310677,-176.35284,2.7012098,-4.6627245,-6.510175,-0.011457954,-0.2198851,-0.29228744
20231225 03:46:27,2.553860,-5.342989,5.776901,0.346947,-0.329940,0.078383,1.530918,-31.231041,-2.560577,-176.29707,2.7027464,-5.709543,-6.190376,0.34709823,-0.39252576,-0.11085252
20231225 03:46:27,2.713701,-5.558277,4.811395,0.737930,-0.439671,-0.149601,1.357414,-30.497429,-1.940338,-176.6733,2.8651276,-5.9822855,-5.243432,0.7260099,-0.59877986,0.090300456
20231225 03:46:27,2.533378,-5.182631,2.925688,1.127847,-0.421560,-0.367998,1.931229,-30.932396,-1.370361,-175.86076,2.7239032,-5.541678,-3.6089385,1.0539191,-0.6956922,0.17848775
20231225 03:46:27,2.053311,-4.117118,0.979469,1.393119,-0.290522,-0.520343,2.549870,-30.892265,-0.830933,-174.79198,1.9505837,-4.3894944,-1.9150462,1.1492352,-0.62995267,0.0397276
20231225 03:46:27,1.393392,-2.867017,-0.708730,1.450648,-0.252170,-0.603440,2.604424,-30.705925,-0.306679,-174.1628,0.46365035,-3.1094005,-0.43496186,0.8459546,-0.53993535,-0.3332038
20231225 03:46:27,0.667440,-1.310328,-2.350645,1.276996,-0.259627,-0.589590,2.738251,-30.798271,0.370544,-172.10606,-1.5426545,-1.5304172,0.78925997,0.29854387,-0.3831798,-0.6730173
20231225 03:46:27,0.000924,0.220392,-3.724270,0.894536,-0.261758,-0.478794,3.119865,-30.305885,1.012054,-166.6262,-3.3957162,0.39106804,1.519913,-0.05304569,-0.2207815,-0.6465814
20231225 03:46:27,-0.459257,1.484093,-4.444762,0.330967,-0.263888,-0.283835,3.444733,-30.749916,0.776329,-161.51366,-4.495906,2.0224824,1.9940102,-0.120822474,-0.20971897,-0.25026533
20231225 03:46:27,-0.477719,2.129624,-4.424731,-0.325287,-0.284130,-0.063308,3.525803,-30.086624,1.001778,-162.526,-4.4358974,2.404704,2.1742997,-0.15589038,-0.28741172,0.29517424
20231225 03:46:27,-0.140451,2.024059,-3.662944,-0.931470,-0.269215,0.108213,3.260078,-30.861389,1.049706,-168.66417,-3.1871874,1.8773446,2.0560098,-0.3676691,-0.24375877,0.737744
20231225 03:46:27,0.166800,1.296802,-2.190662,-1.335238,-0.188249,0.206225,3.452930,-30.271118,0.209267,-170.3188,-1.4818343,1.1804577,1.4284121,-0.72653407,-0.12164644,0.8566207
20231225 03:46:27,0.230922,0.569838,-0.540092,-1.518477,-0.083845,0.244577,3.060814,-30.090965,-1.548012,-172.01602,-0.14956345,0.545941,0.32611653,-1.017081,-0.024504544,0.77182055
20231225 03:46:27,0.046083,-0.079334,0.956158,-1.498236,0.045063,0.240316,2.894089,-30.012405,-1.286858,-173.37122,0.5381068,-0.077983715,-0.84207624,-1.1526374,0.04918548,0.5825734
20231225 03:46:27,-0.382722,-0.604245,2.256105,-1.277709,0.188885,0.204094,2.697510,-30.585205,-1.921280,-174.388,0.650398,-0.65796196,-1.9062009,-1.0639087,0.13819826,0.391597
20231225 03:46:27,-0.925766,-0.850922,3.447918,-0.886726,0.317792,0.155088,2.793171,-29.906288,-2.902443,-174.51268,0.5111085,-1.0386007,-2.8772535,-0.767674,0.24022679,0.23047227
20231225 03:46:27,-1.533938,-0.900350,4.390120,-0.380686,0.383843,0.128454,3.057476,-30.265381,-2.742401,-174.34622,0.23614204,-1.2972074,-3.5689692,-0.32506344,0.32729647,0.057805687
20231225 03:46:27,-2.066653,-0.744597,4.473968,0.155185,0.376386,0.166807,2.705326,-29.914520,-2.768806,-175.22252,-0.10925996,-1.3602115,-3.3381,0.18204862,0.38396946,-0.18517078
20231225 03:46:27,-2.299100,-0.484800,3.634580,0.612219,0.336968,0.272276,2.705326,-29.914520,-2.768806,-175.198,-0.43994808,-1.1702769,-2.2652986,0.6390894,0.41188228,-0.48912355
20231225 03:46:27,-2.065444,-0.297714,2.313684,0.947804,0.305008,0.404379,2.224232,-30.064461,-1.156151,-175.48904,-0.6002023,-0.81728303,-0.96216214,0.99132913,0.4088626,-0.8071079
20231225 03:46:27,-1.572725,-0.349606,0.966883,1.148089,0.280504,0.519437,1.650414,-29.629494,-1.726143,-176.59903,-0.7270942,-0.60976875,0.0768643,1.2148272,0.37099862,-1.0633935
20231225 03:46:27,-1.025586,-0.485536,-0.274543,1.233317,0.269851,0.608926,1.863503,-30.000511,-0.895973,-175.49188,-0.9439997,-0.5344331,0.82914543,1.3263233,0.31545463,-1.2320479
20231225 03:46:27,-0.392439,-0.653803,-1.347653,1.245036,0.297550,0.667521,1.670650,-30.590782,-0.055534,-175.71559,-1.2139369,-0.66290575,1.2135547,1.3679589,0.29097933,-1.3206468
20231225 03:46:27,0.288236,-0.918303,-2.202060,1.197095,0.346556,0.674978,1.251541,-29.691818,0.953384,-177.07376,-1.46006,-1.1701416,1.291261,1.3491914,0.29155508,-1.3163773
20231225 03:46:27,0.898705,-1.278932,-2.842247,1.085233,0.383843,0.632364,0.776459,-30.113045,1.646004,-179.28642,-1.6443945,-1.996105,1.2722636,1.2638894,0.28793797,-1.221442
20231225 03:46:27,1.390574,-1.630711,-3.220286,0.920105,0.392366,0.552463,0.415726,-30.049095,1.906181,179.0519,-1.6488168,-2.7916763,1.2326679,1.1140666,0.26875508,-1.0516862
20231225 03:46:27,1.814682,-1.886384,-3.288007,0.709166,0.376386,0.448059,0.425076,-30.145958,2.180542,178.36314,-1.3668764,-3.3642566,1.1058352,0.90714544,0.24154542,-0.82442373
20231225 03:46:27,2.115851,-2.048731,-3.297467,0.487573,0.341229,0.331936,0.443775,-30.339699,2.729256,177.59792,-1.099088,-3.6934772,1.0296085,0.6698144,0.22771057,-0.5855228
20231225 03:46:27,2.354380,-2.101157,-3.031830,0.280896,0.328445,0.221140,0.258350,-30.067406,2.441696,177.689,-0.59742427,-3.6839495,0.837486,0.44386432,0.2510843,-0.3605404
20231225 03:46:27,2.385720,-2.168009,-2.574038,0.124289,0.324184,0.119932,0.294979,-30.071098,2.978180,177.50311,-0.14760971,-3.5182638,0.62627184,0.25545377,0.27696753,-0.18209228
20231225 03:46:27,2.406698,-2.276964,-2.062245,0.020951,0.324184,0.019789,0.373478,-29.966003,2.570198,178.34401,0.2859136,-3.3953981,0.30789113,0.10767269,0.29180396,-0.035896637
20231225 03:46:27,2.257057,-2.087513,-1.605503,-0.036578,0.313530,-0.070766,0.443390,-30.147812,2.448784,178.87776,0.42869616,-2.9676282,-0.052208185,0.0016420111,0.28596213,0.07358454
20231225 03:46:27,2.062403,-1.589022,-1.341993,-0.072800,0.306073,-0.143209,0.267700,-30.164268,2.716049,178.57515,0.4562508,-2.291362,-0.24767673,-0.07974684,0.2785163,0.1508851
20231225 03:46:27,1.745696,-1.012719,-1.205739,-0.110087,0.312465,-0.199673,0.136066,-29.321854,2.391815,178.79768,0.31470722,-1.5202321,-0.28333807,-0.1570805,0.28780597,0.21652442
20231225 03:46:27,1.355448,-0.373013,-1.062603,-0.140982,0.358275,-0.233764,0.355545,-30.156044,2.582420,179.69797,0.17601097,-0.6792927,-0.20129162,-0.2158618,0.34037665,0.26381218
20231225 03:46:27,0.897714,0.216873,-0.651260,-0.147374,0.413673,-0.246548,0.761101,-29.744888,2.291672,-178.6364,0.18273911,0.110422134,-0.17935488,-0.24985257,0.40477705,0.28484434
20231225 03:46:27,0.342337,0.635324,-0.276420,-0.112218,0.440307,-0.231633,0.364510,-30.061028,2.576309,-179.12456,0.04450403,0.6327542,-0.044607237,-0.2421991,0.43978924,0.2468912
20231225 03:46:27,-0.188042,0.853854,-0.090912,-0.064277,0.432849,-0.175170,0.594376,-29.666336,2.552834,-178.08495,-0.23425403,0.8480911,0.21802355,-0.1894094,0.43703085,0.17826703
20231225 03:46:27,-0.478541,0.999095,-0.024487,-0.018467,0.395562,-0.094203,0.824238,-29.271645,2.529358,-177.32068,-0.41181293,0.96861327,0.39292789,-0.10435399,0.39878386,0.0916754
20231225 03:46:27,-0.434792,0.915909,-0.098592,0.022016,0.341229,-0.027086,1.379734,-29.704765,2.831093,-176.04782,-0.41684645,0.8985403,0.4245597,-0.020301718,0.3427831,0.019377252
20231225 03:46:27,-0.219810,0.705888,-0.294359,0.046519,0.291158,0.011266,0.975990,-29.173950,3.194344,-177.30186,-0.37810218,0.7072311,0.38540015,0.03474352,0.29170465,-0.031781234
20231225 03:46:27,0.168763,0.490158,-0.631804,0.048650,0.279439,0.010201,1.257835,-29.151108,3.061684,-177.04318,-0.33146974,0.46949458,0.3269161,0.04796282,0.278348,-0.03252702
20231225 03:46:27,0.631408,0.332680,-0.863369,0.029474,0.316726,-0.030283,0.806690,-29.653572,2.822052,-178.58394,-0.1761707,0.23681974,0.13295081,0.018672904,0.31170785,0.004450796
20231225 03:46:27,0.879423,0.275385,-0.952329,-0.001422,0.378517,-0.100595,0.993534,-28.792015,2.901642,-178.20425,-0.06322044,0.13996041,0.021072209,-0.04525122,0.36903805,0.07827271
20231225 03:46:27,0.930700,0.289927,-0.808464,-0.021663,0.441372,-0.173039,0.746124,-29.568642,3.217819,-178.84029,0.086500704,0.18215813,-0.10267019,-0.11139746,0.43021214,0.14208478
20231225 03:46:27,0.765589,0.391742,-0.519803,-0.019532,0.470136,-0.227372,1.106468,-29.440697,2.677162,-177.49837,0.17774642,0.35073823,-0.17109975,-0.16083345,0.4630094,0.18734953
20231225 03:46:27,0.443111,0.535982,-0.381624,0.007101,0.479725,-0.260398,1.221977,-29.531189,3.086136,-176.7729,0.023415178,0.5459239,-0.0364649,-0.18935809,0.48298034,0.1930741
20231225 03:46:27,0.069185,0.792854,-0.416200,0.033735,0.495705,-0.272117,1.478348,-28.659554,2.763847,-175.453,-0.30572328,0.81882524,0.27246308,-0.20631967,0.5121296,0.18538733
20231225 03:46:27,-0.331272,1.164423,-0.393710,0.058238,0.489313,-0.261463,1.354263,-28.855972,2.641464,-175.27853,-0.63776374,1.1634201,0.5709677,-0.20925163,0.5181192,0.15457812
20231225 03:46:27,-0.648788,1.473698,-0.484257,0.072087,0.488247,-0.229503,1.654423,-28.834984,2.777054,-173.88821,-1.0019119,1.4371911,0.90685,-0.20111409,0.5224291,0.12309664
20231225 03:46:27,-0.916890,1.805370,-0.662040,0.073153,0.526600,-0.193281,1.857391,-28.725349,2.771919,-172.83209,-1.4142767,1.7392792,1.2667693,-0.20049268,0.558506,0.103160486
20231225 03:46:27,-1.236191,2.203029,-0.592623,0.074218,0.583063,-0.154928,1.621136,-28.656868,3.434952,-172.69968,-1.7172936,2.0183125,1.5079935,-0.20444678,0.6065813,0.08280677
20231225 03:46:27,-1.639343,2.465254,-0.393306,0.092329,0.637396,-0.100595,1.497433,-29.045189,3.593040,-172.66077,-1.9701263,2.0720804,1.719324,-0.18510401,0.6456772,0.04159711
20231225 03:46:27,-1.996280,2.595877,-0.304688,0.120028,0.686402,-0.020694,1.781086,-28.080383,3.532883,-171.38489,-2.2551837,2.0002284,1.9806777,-0.14240672,0.6691231,-0.014512466
20231225 03:46:27,-2.276293,2.836280,-0.065827,0.127486,0.677879,0.087971,2.547752,-27.925064,3.262428,-169.2753,-2.3611915,2.0489128,2.13777,-0.065858625,0.6268296,-0.073615864
20231225 03:46:27,-2.379575,3.386100,0.095751,0.078480,0.555364,0.224336,1.631905,-27.619896,3.501343,-171.23326,-2.46906,2.4773145,2.142228,0.032245755,0.4552337,-0.14582399
20231225 03:46:27,-2.299606,3.794953,-0.054781,-0.069604,0.352948,0.393726,1.483112,-27.351280,3.750267,-171.2718,-2.5895739,2.9849632,2.2302,0.14103779,0.18500957,-0.14115351
20231225 03:46:28,-1.704211,3.706851,-0.356798,-0.299719,0.133486,0.580162,1.649452,-27.237961,3.208633,-171.89711,-2.1296897,3.354513,1.900129,0.25542727,-0.059212595,-0.06861195
20231225 03:46:28,-0.584552,3.326579,-0.544218,-0.551141,0.014167,0.721853,1.129807,-26.424759,2.882446,-175.26787,-1.0660362,3.3203793,0.94457066,0.27771294,-0.0815167,0.046907783
20231225 03:46:28,0.717149,2.904962,-0.439889,-0.794041,0.036540,0.752748,0.722069,-27.585976,2.820213,-178.51991,0.27475676,2.8326137,-0.2539355,0.11210242,0.123049065,0.17034099
20231225 03:46:28,1.821074,2.093738,0.084055,-1.019894,0.144140,0.655802,0.570702,-27.875572,2.435707,-179.75717,1.635376,1.8170547,-1.3349334,-0.25222453,0.3696626,0.25221908
20231225 03:46:28,2.609149,0.723775,1.150741,-1.198873,0.253871,0.456582,-0.213631,-26.511398,1.668991,178.53355,2.8792894,0.36582324,-2.4349706,-0.7082049,0.52811897,0.29236245
20231225 03:46:28,2.856044,-0.569311,2.598640,-1.246814,0.366798,0.216878,-0.242325,-27.738426,1.614838,178.78917,3.630799,-0.83423203,-3.5646906,-1.0032846,0.5903841,0.33491552
20231225 03:46:28,2.602756,-1.502412,4.099480,-1.110449,0.449895,0.014462,-0.376148,-27.646080,0.937614,178.93509,3.720974,-1.6329174,-4.695503,-1.0271639,0.57931435,0.33908004
20231225 03:46:28,1.883427,-2.547458,5.202875,-0.819609,0.426457,-0.095269,-0.119774,-26.774452,0.615334,179.658,2.994737,-2.5807736,-5.48202,-0.8135812,0.472066,0.27914762
20231225 03:46:28,1.531981,-3.053157,5.579099,-0.420103,0.285831,-0.120837,-0.094681,-27.431358,0.524490,179.77971,2.5166197,-3.061361,-5.753628,-0.4341799,0.2927853,0.19457155
20231225 03:46:28,0.874442,-3.766139,5.426776,-0.198511,0.188885,-0.112314,0.037605,-26.756142,0.079819,-179.91835,1.8368912,-3.7660148,-5.5007973,-0.21545865,0.18906686,0.14649738
20231225 03:46:28,0.796024,-3.713724,4.152346,0.428979,-0.046557,-0.068635,0.232758,-27.317192,0.922203,-179.50905,1.7259927,-3.7130945,-4.2549696,0.4016918,-0.048026126,-0.032167554
20231225 03:46:28,0.862305,-3.324256,2.333971,0.679336,-0.117936,-0.066504,-0.040508,-27.053131,0.768280,179.887,1.5513177,-3.3248656,-2.481046,0.6215034,-0.12702246,-0.1549027
20231225 03:46:28,0.911843,-2.827295,0.743098,0.758172,-0.168007,-0.091007,0.074615,-26.951721,0.896774,-179.84863,1.1297289,-2.832364,-1.0687819,0.64539105,-0.17547171,-0.24289128
20231225 03:46:28,0.854091,-2.254930,-0.420842,0.675074,-0.237255,-0.149601,0.165413,-26.577202,1.677055,-179.62222,0.48011672,-2.2617593,-0.12248787,0.48491293,-0.24196966,-0.24199335
20231225 03:46:28,0.740129,-1.497361,-1.178185,0.460939,-0.336332,-0.235895,0.237133,-25.817047,1.628151,-179.24072,-0.18367922,-1.4671465,0.39680976,0.20107451,-0.32494533,-0.12462099
20231225 03:46:28,0.365567,-0.655537,-1.641276,0.136008,-0.473762,-0.310469,0.474926,-26.653076,2.087006,-178.01636,-0.87140405,-0.50126827,0.8599386,-0.09199597,-0.43777484,0.10614553
20231225 03:46:28,-0.083797,-0.181181,-1.949266,-0.266693,-0.601604,-0.346691,0.643070,-25.597786,1.617882,-177.10742,-1.4494065,0.07307896,1.3665862,-0.35093838,-0.577691,0.40987432
20231225 03:46:28,-0.598458,-0.023430,-1.926734,-0.676852,-0.644218,-0.346691,0.552269,-25.972305,0.837593,-177.6651,-1.7550398,0.23185644,1.7612443,-0.5885558,-0.67829645,0.7107268
20231225 03:46:28,-1.142564,0.152104,-1.548836,-1.017764,-0.561121,-0.295554,1.143246,-25.833466,0.834412,-175.95819,-1.876047,0.21833158,1.9146485,-0.8126126,-0.6977767,0.88646144
20231225 03:46:28,-1.539773,0.131011,-0.778398,-1.226572,-0.342724,-0.187954,1.285648,-25.638893,1.225044,-175.63945,-1.6982224,-0.09481168,1.5604016,-1.0217444,-0.58008105,0.8739785
20231225 03:46:28,-1.681654,-0.026938,-0.148747,-1.271317,-0.103021,-0.057982,0.991112,-25.739281,-0.111046,-177.57915,-1.5159993,-0.38284805,0.98483735,-1.1082696,-0.37647083,0.69472134
20231225 03:46:28,-1.813971,-0.622366,2.018567,-1.156259,0.063173,0.067730,1.026588,-25.167305,-0.415962,-177.69455,-0.75611883,-1.1636345,-1.0862522,-1.0264549,-0.17871016,0.42867368
20231225 03:46:28,-1.746720,-1.063270,3.309364,-0.884595,0.095134,0.178526,0.892765,-25.074974,-1.093178,-178.34778,-0.39011717,-1.5931805,-2.4886909,-0.7693854,-0.080424614,0.1536746
20231225 03:46:28,-1.582615,-1.393081,3.914867,-0.508527,0.031213,0.269080,1.014286,-25.436745,-1.604240,-178.24228,-0.11823785,-1.8627086,-3.1970353,-0.39223352,-0.069043554,-0.08215976
20231225 03:46:28,-1.355846,-1.531155,3.778745,-0.097303,-0.075322,0.341524,0.953335,-25.159912,-1.488945,-178.24934,0.09997749,-1.9213352,-3.1202807,0.029260606,-0.10762344,-0.28891972
20231225 03:46:28,-1.197180,-1.535991,3.321265,0.091264,-0.120066,0.373484,0.556358,-25.284157,-1.484787,-179.17918,0.18415654,-1.8678943,-2.6649876,0.22774598,-0.12663855,-0.38236055
20231225 03:46:28,-0.583513,-1.248661,1.353643,0.528056,-0.115805,0.428882,0.514107,-25.201057,-0.820778,-178.90146,0.183907,-1.370252,-0.9409008,0.6725832,-0.085359484,-0.6287669
20231225 03:46:28,-0.280167,-1.052596,0.075649,0.700643,-0.033773,0.420360,0.392208,-24.647400,-0.590187,-179.05481,-0.13888003,-1.0739491,0.075470574,0.81717676,4.1797757E-5,-0.7356595
20231225 03:46:28,-0.060355,-0.865938,-0.967352,0.777348,0.068500,0.380942,-0.110157,-25.161797,-0.159698,179.64491,-0.59099114,-0.81770605,0.80819494,0.84424335,0.100366175,-0.77594286
20231225 03:46:28,-0.046299,-0.808174,-1.522813,0.791197,0.108983,0.354308,-0.003998,-25.155418,-0.025078,179.98055,-0.96253586,-0.70825243,1.1915214,0.8242953,0.14617814,-0.78199977
20231225 03:46:28,-0.206940,-0.808056,-1.946407,0.785871,0.156924,0.287191,-0.550148,-24.819168,-0.052467,178.28198,-1.3785982,-0.652451,1.5992829,0.7601669,0.20596147,-0.7436734
20231225 03:46:28,-0.196971,-0.963602,-2.293028,0.733669,0.127094,0.254165,-0.619297,-25.021133,0.629883,178.36096,-1.6254884,-0.76730955,1.8138324,0.6932206,0.1723581,-0.6930119
20231225 03:46:28,-0.167069,-1.034335,-2.620998,0.638853,0.053585,0.219009,-0.168156,-24.518669,0.869514,179.80956,-1.8888464,-0.8075737,1.9495153,0.5964282,0.088968955,-0.6107949
20231225 03:46:28,-0.021617,-1.062797,-2.897292,0.574932,0.010971,0.199833,0.026234,-24.695946,1.150963,-179.54787,-2.064655,-0.85094297,1.9670563,0.53418714,0.034399845,-0.5588876
20231225 03:46:28,0.110448,-1.134717,-3.076691,0.423652,-0.062538,0.155088,-0.801765,-24.382530,1.256241,177.61903,-2.1488898,-0.98334587,2.0128639,0.40200573,-0.051689964,-0.41631898
20231225 03:46:28,0.222887,-1.164613,-3.022194,0.163707,-0.103021,0.077318,-0.528500,-24.646606,1.410172,178.44478,-2.0445373,-1.0850406,1.9016944,0.17019613,-0.10117475,-0.17093952
20231225 03:46:28,0.341739,-1.223630,-2.811635,0.073153,-0.103021,0.058141,-0.695225,-24.568047,1.671318,177.95308,-1.7253613,-1.1830256,1.7812957,0.09417567,-0.10280729,-0.0901802
20231225 03:46:28,0.355148,-1.433628,-2.502866,-0.192119,-0.094498,0.001678,-0.201824,-24.148666,1.246941,179.43378,-1.3817792,-1.4104482,1.6489646,-0.14197515,-0.096228845,0.1268015
20231225 03:46:28,0.383684,-1.622651,-2.021362,-0.351921,-0.082779,-0.037740,-0.713539,-24.566200,1.403076,178.01248,-0.9177953,-1.6155419,1.4169716,-0.30231604,-0.08396663,0.24591549
20231225 03:46:28,0.350834,-1.651323,-1.306468,-0.463783,-0.082779,-0.085681,-0.853752,-24.010696,1.365425,177.69116,-0.4216367,-1.6379889,0.94624734,-0.43270043,-0.08715887,0.33147916
20231225 03:46:28,0.256202,-1.629422,-0.510559,-0.492547,-0.109413,-0.142144,-0.554356,-23.605927,0.940063,178.57262,-0.010971963,-1.6081444,0.33801907,-0.49239647,-0.123598926,0.3794137
20231225 03:46:28,0.110123,-1.569929,-0.197520,-0.439280,-0.156288,-0.193281,-0.580868,-24.082870,1.238876,178.68158,0.05104877,-1.5518391,0.14376882,-0.47014156,-0.17577772,0.3946241
20231225 03:46:28,-0.299158,-1.161283,0.249779,-0.392404,-0.174399,-0.214588,-0.245617,-23.298027,0.789063,179.53816,-0.0519633,-1.1954029,-0.04080914,-0.43564704,-0.19590266,0.39368135
20231225 03:46:28,-0.632491,-0.595541,0.131444,-0.232602,-0.232993,-0.239091,-0.274696,-24.333160,0.454430,179.42151,-0.3778786,-0.67946374,0.27366835,-0.30590457,-0.2372687,0.33230296
20231225 03:46:28,-0.945959,-0.014744,-0.272442,-0.169747,-0.246843,-0.212457,-0.502754,-23.785881,0.550415,178.82498,-0.8926138,-0.12498366,0.81911,-0.2317113,-0.24019665,0.27566516
20231225 03:46:28,-1.093880,0.296091,-0.459511,-0.155897,-0.254300,-0.157059,-0.291206,-23.389343,0.258690,179.25621,-1.1526774,0.17849055,1.0764604,-0.17986578,-0.24969189,0.22356178
20231225 03:46:28,-1.207862,0.909224,-0.757813,-0.169747,-0.256431,-0.096334,-0.342808,-23.209381,0.648338,179.36555,-1.5217681,0.81273556,1.3810986,-0.1460998,-0.2617536,0.18989186
20231225 03:46:28,-1.224534,1.267522,-0.748192,-0.180400,-0.253235,-0.067570,-0.097202,-23.374733,0.259666,179.87317,-1.580669,1.1623007,1.395021,-0.13341351,-0.26441056,0.17622736
20231225 03:46:28,-1.243492,1.409713,-0.676834,-0.183596,-0.252170,0.016593,-0.097584,-23.182838,-0.020805,179.64998,-1.557311,1.2939893,1.3532627,-0.07994734,-0.27632958,0.11969406
20231225 03:46:28,-1.083301,1.557046,-0.400630,-0.175073,-0.256431,0.038965,-0.440384,-22.928856,0.227150,178.6402,-1.2449785,1.4432826,1.0200748,-0.06505994,-0.2796316,0.09968579
20231225 03:46:28,-0.959140,1.562172,-0.287475,-0.117545,-0.263888,0.085840,-0.265079,-22.720505,-0.320595,178.89209,-1.0489233,1.471347,0.85458493,0.0031149462,-0.28257695,0.024494525
20231225 03:46:28,-0.832059,1.557493,-0.228850,-0.070669,-0.284130,0.090102,-0.361889,-22.823761,-0.180840,178.68536,-0.8771791,1.4998729,0.7107177,0.030920854,-0.29469335,-0.012443606
20231225 03:46:28,-0.430875,1.408992,0.034408,-0.023794,-0.342724,0.071991,-0.564857,-22.933388,-0.175705,178.01495,-0.35559356,1.3829124,0.23479131,0.047823727,-0.34645277,-0.027429678
20231225 03:46:28,-0.256903,1.362612,-0.076851,-0.007814,-0.355508,0.059207,-0.504292,-23.018326,-0.571472,178.18558,-0.2634203,1.3587592,0.20065853,0.04108911,-0.35656956,-0.029524652
20231225 03:46:28,0.149229,1.299472,-0.034135,0.034800,-0.309698,-0.003649,-0.661667,-23.036636,-0.035965,177.76602,0.09268999,1.298574,-0.11302897,0.021820033,-0.30987564,-0.011926826
20231225 03:46:28,0.365500,1.118501,0.127900,0.060369,-0.263888,-0.052655,-0.352924,-22.728737,-0.186958,178.8477,0.38793266,1.1105471,-0.35123837,0.005656868,-0.26665524,0.0050795823
20231225 03:46:28,0.602012,0.804499,0.463496,0.077414,-0.247908,-0.082485,-0.564476,-23.125282,0.104759,178.18542,0.7847309,0.79474527,-0.7593136,-3.4615397E-5,-0.25324512,0.020984873
20231225 03:46:28,0.750357,0.596137,0.671359,0.136008,-0.232993,-0.209261,-0.732349,-22.471046,-0.475502,177.73987,1.0282145,0.5803843,-1.0060477,-0.027070343,-0.24938975,0.0925557
20231225 03:46:28,0.789631,0.473046,0.736581,0.158381,-0.229797,-0.261463,-0.641937,-21.904633,0.024315,177.89915,1.0918769,0.45921,-1.0766273,-0.03930646,-0.24840903,0.12056799
20231225 03:46:28,0.448880,0.431407,0.780775,0.237216,-0.221274,-0.409546,-0.175045,-21.962196,-0.101257,179.42921,0.83206964,0.4326943,-0.89687026,-0.05949159,-0.22633296,0.1851926
20231225 03:46:28,-0.047969,0.480892,0.740913,0.286222,-0.212752,-0.494774,-0.111523,-21.680840,0.416893,179.72658,0.39849967,0.44570357,-0.5547825,-0.070833474,-0.17577155,0.21303841
20231225 03:46:28,-0.400085,0.632261,0.688622,0.312856,-0.201033,-0.529931,0.513123,-21.911995,0.036285,-178.27435,0.07487631,0.54898214,-0.27077842,-0.07292074,-0.13817379,0.21196377
20231225 03:46:28,-1.055275,0.933781,0.615542,0.382104,-0.149896,-0.575741,0.391224,-21.358337,0.266876,-178.47728,-0.5258322,0.6871015,0.23627856,-0.057876855,-0.020291008,0.18647853
20231225 03:46:28,-1.744421,1.446389,0.540335,0.483312,-0.054015,-0.594917,0.357548,-20.988335,0.644302,-178.10278,-1.2080555,0.9262465,0.817362,-0.02005145,0.16056108,0.10974282
20231225 03:46:28,-2.554468,2.158098,0.460052,0.580259,0.052520,-0.572545,0.815857,-21.332817,0.805321,-175.91399,-2.1404524,1.0539155,1.6200455,0.016566128,0.39466727,-0.015825897
20231225 03:46:28,-3.512857,3.079127,0.471941,0.619676,0.098330,-0.455356,0.736591,-21.054146,0.652367,-176.25198,-3.1426997,1.449813,2.3763082,0.09691095,0.43834,-0.13631797
20231225 03:46:28,-4.120289,3.870115,0.472961,0.537645,0.009906,-0.223111,1.161613,-21.220505,1.471283,-173.28249,-3.853908,1.8578397,3.0542545,0.21081653,0.26544946,-0.25120255
20231225 03:46:28,-3.837301,3.952384,0.337600,0.340555,-0.166942,0.057076,0.976189,-20.948212,1.183723,-174.42966,-3.5477586,2.4061928,2.9319348,0.3155268,-0.07495816,-0.30523375
20231225 03:46:28,-2.610615,3.425948,0.310576,0.092329,-0.331005,0.288257,0.984768,-20.661301,0.897133,-175.50868,-1.9647908,3.0265057,1.9134399,0.31588507,-0.3526245,-0.27814692
20231225 03:46:28,-1.080767,2.550578,0.277407,-0.128198,-0.357639,0.422490,0.906273,-20.766396,1.305122,-176.16867,-0.71788716,2.4529355,0.7058666,0.23828991,-0.39218906,-0.2160672
20231225 03:46:28,0.111976,1.336867,0.611479,-0.295458,-0.230863,0.483215,0.393410,-20.608261,0.619850,-178.88838,0.5026183,1.3539239,-0.54650193,0.016215324,-0.18445233,-0.23582783
20231225 03:46:28,1.008346,-0.177549,1.298881,-0.417973,-0.063603,0.493869,0.323879,-20.618340,1.021729,-179.49017,1.4388537,-0.23131868,-1.6010736,-0.18224438,0.02263732,-0.27719027
20231225 03:46:28,1.888999,-2.352061,2.930395,-0.498939,0.065304,0.392661,0.041645,-20.449287,0.873909,179.69794,2.504819,-2.4871228,-3.3260727,-0.3696476,0.16257863,-0.23997171
20231225 03:46:28,2.034787,-2.988096,3.396830,-0.424365,0.073827,0.270146,-0.425625,-20.199829,0.719009,178.45192,2.4873674,-3.1865823,-3.6118307,-0.37097034,0.15112707,-0.19616368
20231225 03:46:28,2.208143,-4.513148,4.427661,-0.249648,0.010971,0.129520,0.041260,-20.257401,0.593437,179.82837,2.5727239,-4.742337,-4.6213136,-0.23469438,0.055459376,-0.10266263
20231225 03:46:28,2.252058,-4.825627,4.534058,-0.130329,-0.035904,0.058141,-0.320236,-19.809669,0.292679,178.93358,2.5768292,-5.0739174,-4.6337676,-0.12503932,-0.011068731,-0.04508441
20231225 03:46:28,2.467517,-4.978264,4.281915,0.269177,-0.165876,-0.175170,0.022564,-20.063660,0.044731,-179.96439,2.861168,-5.2651653,-4.576956,0.23903309,-0.22469766,0.13742658
20231225 03:46:28,2.532056,-4.608456,3.198110,0.385300,-0.188249,-0.255071,-0.301926,-19.811523,0.560921,178.76534,2.8669395,-4.9210253,-3.5087426,0.3255691,-0.28013736,0.1842663
20231225 03:46:28,2.356600,-3.609346,1.717547,0.540841,-0.186118,-0.387174,0.262157,-19.957733,0.576080,-179.63014,2.5026,-3.891448,-2.4276257,0.36975485,-0.32796955,0.18328358
20231225 03:46:28,1.917350,-2.308569,0.413197,0.544037,-0.170138,-0.460683,0.298401,-19.769539,0.832092,-179.56425,1.6271558,-2.541845,-1.3513849,0.21923502,-0.30237,0.116197914
20231225 03:46:28,0.969065,-0.256248,-1.252605,0.392757,-0.168007,-0.470271,0.412758,-19.284363,0.399651,-178.40756,-0.26908857,-0.39984637,0.13979888,-0.08611697,-0.22342582,0.02995482
20231225 03:46:28,0.690881,0.294072,-1.594615,0.104048,-0.162680,-0.419135,0.758514,-19.172066,1.065620,-176.93965,-0.7636478,0.2108016,0.5055544,-0.25975364,-0.18178616,0.18400842
20231225 03:46:28,0.173455,1.060036,-1.876641,-0.254974,-0.150961,-0.329645,0.686028,-19.548439,0.553574,-176.79855,-1.3882327,1.0955545,1.0561864,-0.41398722,-0.14861628,0.39853233
20231225 03:46:28,-0.106145,1.313598,-1.472728,-0.586298,-0.121132,-0.215653,0.853134,-19.818886,0.572891,-176.33383,-1.2040019,1.3545337,1.1193024,-0.5489485,-0.13058738,0.57435304
20231225 03:46:28,-0.131409,0.975345,-0.495592,-0.781256,-0.074256,-0.116576,0.826893,-18.586311,-0.177681,-176.7658,-0.44056505,0.9844654,0.51302004,-0.6830608,-0.101726934,0.5720707
20231225 03:46:28,-0.273262,0.540160,0.661233,-0.818544,-0.032708,-0.042001,0.853786,-18.301254,-0.196022,-176.7287,0.14549759,0.50488174,-0.3515939,-0.688103,-0.06890311,0.51020885
20231225 03:46:28,-0.361860,0.072933,1.547803,-0.723728,-0.033773,0.017658,0.799618,-18.679482,-0.439812,-177.2352,0.45624092,0.002398003,-1.1551124,-0.6169367,-0.07485856,0.34505382
20231225 03:46:28,-0.484656,-0.313906,1.973856,-0.517050,-0.016728,0.052815,0.754410,-18.962692,-0.689720,-177.50415,0.54976034,-0.40812948,-1.4957209,-0.42483154,-0.049335502,0.20594889
20231225 03:46:28,-0.547200,-0.464186,2.056678,-0.238994,0.031213,0.077318,0.656826,-18.682167,-1.110916,-177.89922,0.52203214,-0.56203794,-1.553832,-0.1734608,0.014528181,0.048186168
20231225 03:46:28,-0.451369,-0.617444,1.783498,0.051846,0.091938,0.086906,0.445278,-19.078690,-0.819191,-178.59361,0.48682874,-0.6860571,-1.352611,0.084999785,0.09196968,-0.099152535
20231225 03:46:28,-0.265171,-0.735350,1.279411,0.402345,0.163316,0.070926,0.411224,-18.516815,-0.722237,-178.60149,0.43911257,-0.77249014,-0.98095894,0.37874228,0.17649229,-0.26255772
20231225 03:46:28,-0.161230,-0.783011,0.554035,0.476920,0.175035,0.063468,0.516998,-18.318535,-0.868095,-178.14203,0.18302031,-0.7994998,-0.39785266,0.43077514,0.18918827,-0.3082194
20231225 03:46:28,-0.117007,-0.772926,-0.198581,0.560017,0.183558,0.061337,0.623924,-18.695946,-0.172539,-177.66142,-0.1917783,-0.77139115,0.20380057,0.48657948,0.20097944,-0.3696934
20231225 03:46:28,-0.103840,-0.820235,-0.727703,0.571736,0.171839,0.073056,0.351425,-18.815643,0.234474,-178.63031,-0.50472045,-0.8053481,0.6252111,0.4942192,0.18791445,-0.4022715
20231225 03:46:28,0.000190,-0.850515,-1.174058,0.540841,0.149467,0.097559,0.599602,-18.422806,0.479240,-177.60892,-0.7504915,-0.8459843,0.87190163,0.47666892,0.15157147,-0.4172423
20231225 03:46:28,0.160709,-0.954028,-1.547300,0.483312,0.146271,0.116736,0.378319,-18.530586,0.216133,-178.47513,-0.89604014,-0.96239144,1.0448458,0.44247895,0.1441299,-0.40166914
20231225 03:46:28,0.296101,-1.004650,-1.860996,0.372516,0.187819,0.139108,-0.097534,-18.568039,0.347809,179.56628,-1.0449756,-1.040147,1.1870158,0.37261543,0.18330318,-0.35412067
20231225 03:46:28,0.343829,-1.099559,-2.037252,0.289418,0.221910,0.150827,0.324913,-19.292595,0.533287,-178.8281,-1.1303613,-1.1674429,1.2736083,0.32256183,0.2167786,-0.301853
20231225 03:46:28,0.452980,-1.197438,-2.026726,0.246805,0.233629,0.154023,0.387665,-18.627457,0.490494,-178.55205,-1.0308259,-1.2790096,1.204009,0.29467204,0.22916013,-0.2739405
20231225 03:46:28,0.558389,-1.336408,-1.920957,0.165838,0.244283,0.151892,0.229523,-18.261993,0.465065,-179.20749,-0.8536098,-1.4427605,1.1046774,0.23472136,0.24175766,-0.22023164
20231225 03:46:29,0.661955,-1.495185,-1.710387,0.089133,0.231498,0.130585,-0.079220,-18.569893,0.616058,179.52104,-0.58594555,-1.6107004,0.96098113,0.16086532,0.23151413,-0.15937415
20231225 03:46:29,0.770015,-1.564203,-1.397431,0.032670,0.191015,0.100755,0.151028,-18.367088,0.873055,-179.73999,-0.29212326,-1.6917744,0.6619613,0.09634193,0.1932984,-0.09978197
20231225 03:46:29,0.883448,-1.526378,-1.212787,-0.000356,0.146271,0.071991,-0.112892,-18.199890,0.993484,179.17978,-0.105336845,-1.6696154,0.4651786,0.051601604,0.15002401,-0.05928357
20231225 03:46:29,1.011841,-1.421774,-1.150096,-0.029121,0.107918,0.051749,-0.024666,-18.383553,1.140320,179.37025,0.012414038,-1.600229,0.32125598,0.015889669,0.11393663,-0.024721555
20231225 03:46:29,1.078320,-1.228691,-1.216505,-0.087715,0.075958,0.043226,-0.167450,-18.386230,0.469223,179.11023,0.003067553,-1.4323708,0.30700088,-0.036308523,0.08812461,0.019173447
20231225 03:46:29,1.133014,-1.064584,-1.112361,-0.166551,0.036540,0.041096,-0.000721,-18.464783,0.208069,179.88501,0.1098569,-1.271151,0.16687387,-0.10188066,0.05758428,0.071463
20231225 03:46:29,1.146610,-0.753850,-0.975211,-0.231537,0.021625,0.046423,-0.070255,-18.474869,0.609947,179.39594,0.20462626,-0.9557231,0.030041397,-0.14760232,0.05035949,0.111172125
20231225 03:46:29,1.197894,-0.487610,-0.867994,-0.252844,0.051455,0.043226,0.105434,-18.458405,0.342674,-179.77243,0.32471985,-0.68653053,-0.103649855,-0.16200283,0.08155006,0.12913138
20231225 03:46:29,1.125816,-0.247356,-0.666068,-0.237929,0.107918,0.015527,-0.167450,-18.386230,0.469223,179.14758,0.41689435,-0.37462878,-0.2144643,-0.16491252,0.12649132,0.1403826
20231225 03:46:29,0.802032,-0.038074,-0.477354,-0.189988,0.159055,-0.020694,0.017208,-18.274750,0.195839,-179.96495,0.30223507,-0.078400016,-0.15461606,-0.15376925,0.16466932,0.13872746
20231225 03:46:29,0.326684,0.121213,-0.350188,-0.082388,0.189950,-0.036675,-0.158485,-18.291214,0.463112,179.39714,0.018010557,0.13073051,0.05171059,-0.088866025,0.1891383,0.07999311
20231225 03:46:29,-0.097324,0.219675,-0.280960,-0.041905,0.186754,-0.032413,-0.282959,-18.295738,0.060249,178.85257,-0.26759124,0.22711687,0.2726329,-0.061712146,0.18550745,0.0491151
20231225 03:46:29,-0.384840,0.326219,-0.386337,0.029474,0.169708,-0.012172,0.087505,-18.648445,0.354904,-179.49055,-0.5665368,0.32130945,0.5467424,0.0015638368,0.17196155,-0.009538371
20231225 03:46:29,-0.574348,0.561072,-0.587796,0.084872,0.135617,0.022985,-0.300503,-18.677658,0.352951,178.94339,-0.8700676,0.556284,0.81435347,0.06397164,0.14032355,-0.07760614
20231225 03:46:29,-0.584093,0.901307,-1.154378,0.102983,0.113245,0.080514,-0.273224,-18.584496,0.615082,179.18788,-1.3257241,0.9542352,1.2051103,0.1171405,0.11370736,-0.13132897
20231225 03:46:29,-0.475182,0.953758,-1.314884,0.077414,0.096199,0.139108,-0.133392,-18.948112,0.372261,179.51833,-1.3654778,1.0042727,1.203644,0.15044312,0.09160968,-0.1492053
20231225 03:46:29,-0.141485,1.048923,-1.611077,0.007101,0.088742,0.179591,-0.291924,-18.390755,0.066368,178.59738,-1.3674922,1.1009413,1.1193215,0.13959622,0.08246885,-0.121302344
20231225 03:46:29,0.200846,1.051644,-1.700953,-0.087715,0.087676,0.185983,-0.688896,-18.514992,0.070526,176.65314,-1.180411,1.038457,0.8825369,0.08879842,0.0894898,-0.053156406
20231225 03:46:29,0.511575,1.023582,-1.686596,-0.241125,0.128160,0.160415,-0.670582,-18.516838,0.338768,176.82994,-0.86309195,0.90632224,0.69839716,-0.03366425,0.14788795,0.06918053
20231225 03:46:29,0.750620,0.869645,-1.429871,-0.286935,0.145205,0.144435,-0.379765,-18.398987,0.200005,178.21379,-0.47732413,0.73685557,0.40710974,-0.081549965,0.16980189,0.10833357
20231225 03:46:29,0.941147,0.701640,-0.968850,-0.351921,0.179296,0.102886,-0.610012,-18.601791,-0.056992,177.42111,0.060135245,0.5672273,0.025499761,-0.17135462,0.21004781,0.16329284
20231225 03:46:29,0.959331,0.547956,-0.435643,-0.372163,0.203799,0.053880,-0.592083,-18.411751,-0.069214,177.55371,0.45625004,0.47296038,-0.32813296,-0.23298687,0.22620441,0.20006889
20231225 03:46:29,0.709902,0.610685,-0.018836,-0.345529,0.228302,0.018723,-0.831680,-18.517677,-0.600571,176.5745,0.5359986,0.5980143,-0.47515622,-0.24691641,0.23447528,0.20017435
20231225 03:46:29,0.347243,0.706385,0.308514,-0.283739,0.237891,0.029377,-0.716175,-18.608170,-0.191605,177.09052,0.45459598,0.7076882,-0.4865989,-0.20218332,0.23279932,0.1501116
20231225 03:46:29,0.080014,0.760875,0.495659,-0.212360,0.214453,0.078383,-0.670967,-18.324959,0.058296,177.30942,0.35831842,0.7511466,-0.461215,-0.119515255,0.20649523,0.06632003
20231225 03:46:29,0.126167,0.795169,0.500179,-0.138851,0.185689,0.130585,-0.443287,-18.680344,-0.318153,178.17404,0.40784582,0.7904263,-0.4833485,-0.024776764,0.18177953,-0.015163571
20231225 03:46:29,0.301384,0.909639,0.327352,-0.068539,0.186754,0.163611,-0.655991,-18.501213,-0.867836,177.25,0.4516057,0.90933657,-0.47741604,0.057712108,0.18922302,-0.0849449
20231225 03:46:29,0.630774,1.094890,0.178287,-0.004618,0.219780,0.157219,-0.823486,-18.038879,-1.167633,176.48442,0.6208235,1.076982,-0.6071918,0.1100123,0.22482835,-0.12237413
20231225 03:46:29,0.827208,1.375237,0.131590,0.053977,0.266655,0.102886,-0.883663,-18.145828,-0.491386,176.1633,0.74544394,1.3419299,-0.73421067,0.12132623,0.26813132,-0.12428153
20231225 03:46:29,0.825105,1.696177,0.047888,0.102983,0.323118,0.018723,-0.531902,-18.304802,-0.745461,177.61345,0.6468978,1.6784275,-0.6748233,0.09239221,0.32113513,-0.09632109
20231225 03:46:29,0.366439,2.247451,-0.015795,0.130682,0.372124,-0.056916,-0.955383,-18.905983,-0.442482,175.47594,0.15001287,2.25742,-0.38057575,0.031255476,0.37810513,-0.078941435
20231225 03:46:29,-0.342725,3.090546,0.072458,0.095525,0.336968,-0.088877,-0.425358,-18.490303,-0.330376,177.67072,-0.53187317,3.0108438,0.13778543,-0.04691803,0.35293135,-0.025703575
20231225 03:46:29,-1.133183,3.993527,0.173416,-0.040839,0.183558,-0.045197,-0.531902,-18.304802,-0.745461,176.38069,-1.3015956,3.6876547,0.62223846,-0.093293265,0.18082502,0.0528278
20231225 03:46:29,-1.556458,4.284495,0.271000,-0.234733,-0.020989,0.083710,-0.771500,-18.410728,-1.276810,174.41942,-1.5755985,3.8732302,0.77423364,-0.081188425,-0.07149842,0.13079906
20231225 03:46:29,-1.177249,3.930973,0.411162,-0.368967,-0.108348,0.268015,-0.267601,-18.663887,-0.585419,178.33522,-0.86456406,3.7493248,0.5437468,-0.030690402,-0.16720825,0.10470119
20231225 03:46:29,0.026422,3.110522,0.639751,-0.425430,-0.005009,0.394791,-0.956154,-18.522202,-1.003433,175.71815,0.5357503,3.1219697,-0.6340682,-0.021946758,0.012117669,0.022652984
20231225 03:46:29,1.284320,2.018561,1.142764,-0.480828,0.169708,0.377746,-1.035801,-18.051636,-1.436852,176.41788,1.8795884,1.9575639,-1.789121,-0.13347365,0.25186026,-0.008662581
20231225 03:46:29,2.055550,0.628924,1.973697,-0.578840,0.281570,0.223270,-0.629482,-18.024269,-1.166656,178.4127,2.7899046,0.47437057,-2.734426,-0.3780919,0.38246986,0.076438755
20231225 03:46:29,2.333463,-0.815856,3.213532,-0.617193,0.306073,-0.013237,-0.869076,-18.130203,-1.698006,177.87956,3.2635016,-0.9635956,-3.8011189,-0.56560063,0.38861462,0.22022319
20231225 03:46:29,1.978498,-1.820208,4.349982,-0.505331,0.317792,-0.235895,-0.605160,-18.297401,-1.818436,178.50792,3.0564675,-1.8740282,-4.680629,-0.54297036,0.3531767,0.35847998
20231225 03:46:29,1.101813,-2.500418,5.059990,-0.261367,0.316726,-0.367998,-0.208569,-17.981277,-2.103065,179.34573,2.2087543,-2.4999313,-5.150007,-0.33701938,0.31785548,0.41383845
20231225 03:46:29,0.168165,-3.041681,5.277219,0.061434,0.278374,-0.380782,-0.332272,-18.369583,-1.944977,178.5625,1.2169297,-3.0855975,-5.133716,-0.016278785,0.2855741,0.3547585
20231225 03:46:29,-0.418811,-3.299433,4.836438,0.393823,0.191015,-0.320057,-0.241474,-17.995049,-1.164703,178.85172,0.60821867,-3.4129446,-4.5908246,0.31905302,0.23208144,0.2315408
20231225 03:46:29,-0.549468,-3.266779,3.628449,0.664421,0.111114,-0.240156,-0.146851,-18.641876,-1.657417,178.96529,0.40171784,-3.3950236,-3.3373046,0.5862222,0.18428135,0.074032396
20231225 03:46:29,-0.454859,-3.149164,2.201396,0.843399,0.093003,-0.191150,0.259090,-18.422615,-1.667694,-179.75069,0.30196738,-3.2481678,-1.9869108,0.7486652,0.18707074,-0.062119618
20231225 03:46:29,-0.373124,-2.881210,0.842265,0.913712,0.095134,-0.182627,0.420189,-18.421791,-0.728348,-178.916,0.10843901,-2.9438422,-0.69360226,0.776148,0.21783443,-0.16856325
20231225 03:46:29,-0.554723,-2.451798,-0.292880,0.877491,0.078088,-0.193281,0.483326,-17.948540,-0.490669,-178.60896,-0.39029676,-2.4716842,0.4705406,0.6720047,0.24847785,-0.24917005
20231225 03:46:29,-0.896743,-1.812677,-1.308683,0.751780,0.059977,-0.195411,0.756596,-18.212616,-0.336746,-177.47714,-1.1602302,-1.7198176,1.5202003,0.48080865,0.26240742,-0.2904004
20231225 03:46:29,-1.210946,-1.034231,-2.072449,0.540841,0.029082,-0.170908,0.659782,-18.315865,-0.196999,-177.6006,-1.9416096,-0.7497174,2.2995887,0.27134824,0.21532476,-0.2519398
20231225 03:46:29,-1.523849,-0.297219,-2.657189,0.247870,0.000318,-0.121902,0.767094,-18.885147,0.779030,-175.36452,-2.704894,0.16808522,2.8747258,0.080502726,0.11160886,-0.106596634
20231225 03:46:29,-1.717333,0.289465,-2.910742,-0.109022,-0.011401,-0.040936,0.994385,-19.048645,0.122108,-175.43355,-3.1916265,0.79654,3.1783545,-0.0929572,-0.027192041,0.10973111
20231225 03:46:29,-1.729110,0.581533,-2.693522,-0.475502,0.030148,0.061337,1.091198,-18.945404,-0.017632,-175.33612,-3.1656928,0.9023082,3.0972996,-0.27933013,-0.12150307,0.3203492
20231225 03:46:29,-1.599530,0.531473,-1.826442,-0.778060,0.115376,0.168938,0.966724,-18.949928,-0.420494,-176.69891,-2.4645412,0.5248337,2.4470177,-0.48773503,-0.11809367,0.41067106
20231225 03:46:29,-1.472817,0.241534,-0.417989,-0.959170,0.178231,0.271211,0.887844,-18.863136,-0.292976,-177.02205,-1.4686644,-0.01294551,1.2074944,-0.65377176,-0.06997478,0.34617373
20231225 03:46:29,-1.311612,-0.282926,1.000764,-0.990065,0.236825,0.366027,1.017941,-18.938004,-1.090622,-177.20387,-0.640533,-0.6058012,-0.24643308,-0.71337926,0.022051156,0.1728774
20231225 03:46:29,-1.089789,-0.758910,2.262060,-0.877138,0.250675,0.442732,0.531590,-18.302917,-2.074707,-179.26784,-0.027884364,-1.0489496,-1.6239282,-0.63629603,0.09479724,-0.04065469
20231225 03:46:29,-0.791236,-1.249714,3.106011,-0.654480,0.210192,0.502392,0.513275,-18.301064,-2.342949,-179.21887,0.41726542,-1.4674765,-2.6339016,-0.4423595,0.11140177,-0.23265667
20231225 03:46:29,-0.464102,-1.593554,3.474391,-0.361509,0.144140,0.545006,0.222462,-18.418915,-2.204185,-179.88167,0.7685642,-1.7239417,-3.120908,-0.16267453,0.0991409,-0.39201388
20231225 03:46:29,0.022213,-1.778967,3.103534,-0.053624,0.090873,0.564182,0.080444,-18.805382,-2.314339,179.97781,1.0966816,-1.8165137,-2.926028,0.13984266,0.08171741,-0.5124848
20231225 03:46:29,0.591777,-1.951903,2.248613,0.211648,0.073827,0.542875,-0.280670,-18.549545,-2.334633,179.17714,1.3538343,-1.9464957,-2.283734,0.3947153,0.07380978,-0.58360887
20231225 03:46:29,1.096465,-1.976449,1.171034,0.409803,0.090873,0.474692,-0.420120,-18.377808,-1.811348,178.95844,1.420975,-2.008384,-1.4837143,0.5700507,0.0779382,-0.6020891
20231225 03:46:29,1.376664,-1.892915,0.104630,0.533383,0.123898,0.370288,-0.350586,-18.367729,-2.213226,179.4994,1.1767834,-1.9978527,-0.725232,0.6497286,0.094299495,-0.5785872
20231225 03:46:29,1.344518,-1.649518,-0.761504,0.583455,0.144140,0.253100,0.046387,-18.243492,-2.217392,-178.99574,0.64462185,-1.7836308,-0.105562925,0.63452554,0.111023866,-0.5250037
20231225 03:46:29,1.126425,-1.425560,-1.391065,0.588781,0.134552,0.156153,-0.383492,-18.381508,-1.274857,178.76103,0.032639503,-1.5302258,0.4779876,0.5716206,0.11060624,-0.47691095
20231225 03:46:29,0.860232,-1.263341,-1.880350,0.571736,0.097265,0.076252,-0.417164,-18.011505,-0.897430,178.24866,-0.5658018,-1.2917688,0.9127692,0.48734897,0.09132001,-0.42890668
20231225 03:46:29,0.533550,-1.063241,-2.333908,0.531252,0.041867,0.025116,-0.656757,-18.117447,-1.428787,176.66325,-1.1975095,-0.99064285,1.3623201,0.40067267,0.05505568,-0.3866132
20231225 03:46:29,0.317687,-0.871400,-2.698529,0.457743,-0.044427,0.003809,-0.479916,-18.676643,-0.854637,177.43523,-1.7076955,-0.7047601,1.6283866,0.31673303,-0.02119185,-0.33662933
20231225 03:46:29,0.215818,-0.718531,-3.091711,0.333098,-0.136047,0.005939,-0.435093,-18.201546,-0.885201,177.28986,-2.1847625,-0.47514683,1.8194519,0.22642982,-0.11569959,-0.25670817
20231225 03:46:29,0.265011,-0.631680,-3.401918,0.151989,-0.205294,0.012331,-0.577110,-18.588005,-0.995361,176.58716,-2.4905434,-0.46306586,1.8963794,0.1124681,-0.20003201,-0.120104305
20231225 03:46:29,0.469459,-0.604475,-3.419578,-0.055754,-0.241516,-0.003649,0.155884,-18.062698,-0.888390,-179.2311,-2.3764088,-0.5564538,1.7555544,-0.034502745,-0.24199882,0.04389368
20231225 03:46:29,0.564927,-0.613844,-3.167869,-0.254974,-0.252170,-0.045197,0.243347,-17.862587,-1.302490,-178.681,-1.9950676,-0.62962615,1.6723464,-0.20425572,-0.25138468,0.21673827
20231225 03:46:29,0.528378,-0.775425,-2.615275,-0.421169,-0.252170,-0.100595,-0.004063,-18.639198,-0.986320,179.91713,-1.4066483,-0.7431932,1.536341,-0.37240523,-0.25562847,0.3629107
20231225 03:46:29,0.392576,-0.967289,-1.960972,-0.536226,-0.251104,-0.151732,0.137569,-18.060852,-1.156639,-179.57182,-0.90859175,-0.9160893,1.2709736,-0.5069204,-0.26154038,0.45397168
20231225 03:46:29,0.236093,-1.059567,-1.280728,-0.601213,-0.254300,-0.206065,0.259472,-18.614510,-1.387222,-179.26839,-0.513681,-1.007192,0.89711326,-0.6014528,-0.27413264,0.5131635
20231225 03:46:29,0.070930,-1.163853,-0.667172,-0.615062,-0.257496,-0.262528,0.461674,-18.121101,-1.953300,-178.7419,-0.2464867,-1.1296477,0.5062515,-0.65008456,-0.2853587,0.54386437
20231225 03:46:29,-0.217647,-1.200185,-0.071756,-0.585232,-0.264954,-0.317927,0.770798,-18.005096,-1.823830,-177.77744,-0.15727732,-1.2095723,0.13166636,-0.65000266,-0.30117613,0.5609567
20231225 03:46:29,-0.513099,-1.007280,0.424427,-0.513854,-0.277738,-0.348822,0.583187,-18.482880,-2.464363,-179.05327,-0.16620155,-1.0869714,-0.12570632,-0.59898406,-0.3118904,0.5548651
20231225 03:46:29,-0.805387,-0.701219,0.716148,-0.413711,-0.297980,-0.358410,0.794357,-17.894447,-3.036552,-178.8277,-0.2673773,-0.8667719,-0.21173263,-0.5112579,-0.3220433,0.5149213
20231225 03:46:29,-1.069613,-0.262898,0.704793,-0.312503,-0.305437,-0.347756,0.776806,-18.276375,-2.743858,-179.04236,-0.48367244,-0.50680846,-0.0025538206,-0.41603348,-0.31306836,0.4580835
20231225 03:46:29,-1.327133,0.293155,0.479262,-0.221949,-0.283065,-0.318992,0.891548,-17.983086,-2.895836,-179.0429,-0.83156943,-0.021106064,0.40463775,-0.32488805,-0.27335986,0.384628
20231225 03:46:29,-1.600387,0.893347,0.252436,-0.145244,-0.232993,-0.269986,1.279942,-18.145760,-2.613411,-177.53394,-1.2390985,0.48278168,0.8454478,-0.23715223,-0.20872605,0.2930741
20231225 03:46:29,-1.955826,1.426163,0.006692,-0.081323,-0.180791,-0.196477,1.270206,-17.856995,-3.168236,-178.89616,-1.757843,0.89396805,1.3094145,-0.1469896,-0.15010914,0.19850022
20231225 03:46:29,-2.229625,1.775620,-0.117670,-0.035513,-0.148831,-0.100595,1.376751,-18.042503,-2.753151,-178.10095,-2.1279023,1.1457614,1.6241157,-0.05651784,-0.1265448,0.09478697
20231225 03:46:29,-2.272236,1.699551,-0.169849,-0.003552,-0.164811,0.001678,1.358818,-18.232544,-2.740929,-178.05896,-2.176387,1.0904924,1.671464,0.033698354,-0.15712065,-0.0031042956
20231225 03:46:29,-1.971503,1.276815,-0.352098,0.003905,-0.227667,0.082644,1.631706,-18.304726,-2.867470,-176.24669,-1.9469897,0.8763046,1.613139,0.095622614,-0.23283905,-0.076476336
20231225 03:46:29,-1.363012,0.833158,-0.579409,-0.008879,-0.306502,0.132716,1.313229,-18.323868,-3.271309,-177.04796,-1.5150211,0.6781856,1.3640206,0.12094526,-0.3194,-0.105996646
20231225 03:46:29,-0.762294,0.537924,-1.039586,-0.057885,-0.360835,0.160415,1.243313,-18.142059,-3.149895,-175.97937,-1.3042887,0.55009246,1.3092052,0.096108645,-0.37812635,-0.09947485
20231225 03:46:29,-0.303763,0.238287,-1.365537,-0.135655,-0.351247,0.164676,1.224998,-18.140205,-3.418137,-175.12605,-1.1399282,0.28856945,1.2369124,0.024295852,-0.3661533,-0.05583565
20231225 03:46:29,0.112375,-0.008440,-1.358067,-0.224079,-0.310764,0.148696,1.146503,-18.245308,-3.010147,-174.70761,-0.77578306,-0.0025637378,0.97246164,-0.07739982,-0.31241345,0.005836226
20231225 03:46:29,0.493840,-0.166336,-1.108988,-0.294392,-0.262823,0.101821,1.719166,-18.104614,-3.281578,-171.37747,-0.2872525,-0.22049052,0.54976845,-0.17988183,-0.24741627,0.06799284
20231225 03:46:29,0.847818,-0.182140,-0.701316,-0.338072,-0.232993,0.008070,1.242928,-17.950165,-3.430367,-173.00778,0.2656882,-0.2789053,0.04677272,-0.280919,-0.20737423,0.1693172
20231225 03:46:29,0.986097,0.013382,-0.236731,-0.352986,-0.236189,-0.120837,1.257900,-18.126434,-4.356514,-172.56702,0.6614243,-0.059355788,-0.38614148,-0.36736497,-0.21879274,0.27916017
20231225 03:46:29,0.831665,0.403035,0.035111,-0.337006,-0.258562,-0.243352,1.382378,-18.121910,-3.953651,-172.50816,0.6930842,0.3705701,-0.4927314,-0.42320508,-0.2522806,0.36993542
20231225 03:46:29,0.509996,1.086772,0.137830,-0.306111,-0.276673,-0.339234,1.824173,-17.522568,-3.988380,-170.24913,0.47989547,1.0855055,-0.29530326,-0.45394784,-0.27662095,0.41748285
20231225 03:46:29,0.085540,1.878994,0.115349,-0.282673,-0.259627,-0.397828,1.815208,-17.617592,-3.982269,-170.86317,0.07582539,1.8757107,0.07540341,-0.46926105,-0.25586164,0.44967675
20231225 03:46:29,-0.347529,2.574585,0.175459,-0.272020,-0.209556,-0.425527,1.964005,-17.886185,-4.231194,-170.9716,-0.3053988,2.524691,0.40831792,-0.4762953,-0.19800177,0.46680433
20231225 03:46:29,-0.840317,3.054874,0.444246,-0.245386,-0.112609,-0.438311,2.297455,-18.043304,-4.753510,-170.67786,-0.62226045,2.8787346,0.6273576,-0.46605653,-0.09123531,0.4678684
20231225 03:46:29,-1.306008,3.377895,0.965861,-0.166551,0.016298,-0.431919,2.360592,-17.570061,-4.515831,-171.20009,-0.739079,3.015003,0.5721821,-0.41348332,0.04853805,0.42735633
20231225 03:46:29,-1.718071,3.616402,1.680349,-0.044035,0.113245,-0.394632,2.766529,-17.350800,-4.526108,-169.9956,-0.7272649,3.0044732,0.36591387,-0.30402982,0.16031489,0.33542427
20231225 03:46:29,-2.082351,3.805516,2.288030,0.089133,0.121768,-0.301946,2.500423,-17.933670,-4.758644,-172.71686,-0.725466,2.9817684,-0.016174316,-0.14032248,0.18000327,0.18255255
20231225 03:46:30,-2.261869,3.837677,2.678796,0.191406,0.028017,-0.155994,3.064507,-18.079887,-4.743492,-169.83723,-0.6445048,2.9387343,-0.06731367,0.04654047,0.084190816,4.1872263E-5
20231225 03:46:30,-1.930220,3.582154,2.673872,0.241478,-0.126458,0.009135,2.934025,-17.813141,-4.226311,-168.9062,-0.23604512,2.9396498,-0.26785576,0.20686217,-0.0913442,-0.17912118
20231225 03:46:30,-1.162233,3.273540,2.404999,0.231890,-0.277738,0.142304,2.864109,-17.631325,-4.104912,-167.41713,0.40414357,2.9995527,-0.5223024,0.28757173,-0.26686108,-0.30133742
20231225 03:46:30,-0.176733,2.586791,1.970417,0.185014,-0.337397,0.209421,3.040180,-17.806755,-4.091705,-165.45718,1.0501664,2.570965,-0.8851382,0.276959,-0.33716878,-0.34050158
20231225 03:46:30,0.608851,1.650312,1.796829,0.109375,-0.331005,0.210486,2.843605,-18.379555,-4.726128,-166.10713,1.570007,1.6775932,-1.4563882,0.1978887,-0.32874927,-0.29600358
20231225 03:46:30,1.179634,0.577048,1.722223,0.025212,-0.251104,0.182787,2.924675,-17.716270,-4.500679,-165.71062,1.8963609,0.5509959,-1.907855,0.09628378,-0.24161851,-0.22107962
20231225 03:46:30,1.697225,-0.643110,2.129648,0.003905,-0.109413,0.111409,3.021866,-17.804909,-4.359947,-166.36398,2.3321264,-0.7504053,-2.6988478,0.039142188,-0.102374196,-0.1255365
20231225 03:46:30,1.885210,-1.868696,2.698361,0.037996,0.016298,-0.006845,2.888432,-17.904457,-4.756691,-167.62572,2.4680052,-2.0017881,-3.4334416,0.035354678,0.010765836,-5.0071254E-4
20231225 03:46:30,1.699159,-2.891785,3.479103,0.138139,0.063173,-0.148536,3.252499,-17.793999,-3.822479,-167.77502,2.2742658,-2.9812112,-4.264555,0.10841761,0.045430377,0.12899424
20231225 03:46:30,1.315740,-3.601422,3.846244,0.321379,0.053585,-0.281705,3.295521,-18.260872,-3.925552,-168.44344,1.8201017,-3.6474836,-4.633483,0.27765498,0.026066955,0.23688386
20231225 03:46:30,1.049609,-4.050642,3.753083,0.582389,0.035474,-0.406350,3.613228,-17.857941,-4.082664,-167.38461,1.4815266,-4.0778747,-4.643103,0.52698386,-0.0030982995,0.32777345
20231225 03:46:30,0.825929,-4.197937,3.073537,0.894536,0.033344,-0.527800,3.595299,-18.047981,-4.070435,-167.73447,1.2572999,-4.208311,-3.97537,0.80449337,-0.0037165184,0.38126588
20231225 03:46:30,0.600142,-3.865061,2.002776,1.192834,0.036540,-0.620485,3.966145,-18.592583,-3.495308,-166.94461,1.0248604,-3.8666048,-2.886634,1.0214055,0.016716424,0.326556
20231225 03:46:30,0.315708,-3.305884,0.576456,1.401642,0.036540,-0.666295,4.296158,-17.920242,-2.464149,-165.03215,0.5485812,-3.3006442,-1.4284978,1.060718,0.09304729,0.095514655
20231225 03:46:30,-0.125967,-2.306474,-0.827554,1.463432,0.019494,-0.639662,4.851273,-18.161469,-2.442879,-161.44499,-0.39874753,-2.243123,0.11202115,0.8632471,0.2180725,-0.30327088
20231225 03:46:30,-0.599590,-1.192672,-2.139412,1.350505,-0.031643,-0.525669,5.029919,-17.778709,-1.796234,-156.0335,-1.7281557,-0.8994649,1.4452298,0.5597771,0.2684086,-0.6615263
20231225 03:46:30,-0.756180,-0.264532,-3.281917,1.057534,-0.093433,-0.348822,4.836300,-17.985207,-1.516731,-151.30818,-2.968733,0.40663433,2.1621888,0.33449966,0.16251871,-0.7322644
20231225 03:46:30,-0.538534,0.388484,-3.894060,0.615415,-0.170138,-0.162386,5.312920,-18.331535,-1.087479,-144.29994,-3.6676161,1.045269,2.1030765,0.18850766,-0.07378169,-0.52377325
20231225 03:46:30,-0.001283,0.632777,-3.947871,0.110440,-0.228732,-0.012172,5.478882,-18.026321,-1.909569,-142.50624,-3.452725,0.73707867,1.7318393,0.049810126,-0.22664934,-0.15989748
20231225 03:46:30,0.709249,0.529013,-3.382621,-0.342333,-0.236189,0.066664,5.090488,-17.863647,-2.192001,-149.91034,-2.2606118,0.16313878,1.2927496,-0.16860102,-0.20543903,0.1745536
20231225 03:46:30,1.220971,0.046330,-2.326399,-0.669395,-0.206360,0.064533,5.276295,-18.327835,-1.623962,-156.36641,-0.74091357,-0.33229208,0.67301565,-0.453633,-0.12516147,0.36912176
20231225 03:46:30,1.345348,-0.553414,-1.125782,-0.861158,-0.158419,0.017658,5.020573,-17.681847,-2.070587,-158.57494,0.37496144,-0.7605821,-0.12217021,-0.6925867,-0.072577305,0.45336676
20231225 03:46:30,1.180070,-0.993048,0.036593,-0.916556,-0.096629,-0.038805,5.847424,-17.419586,-3.017273,-156.03323,0.99188524,-1.0676757,-0.9803302,-0.8104838,-0.036429364,0.46693036
20231225 03:46:30,0.889563,-1.111564,1.159966,-0.824936,-0.043361,-0.093138,5.654186,-17.817978,-2.457314,-158.92212,1.3011429,-1.119706,-1.7241285,-0.77863026,-0.02087763,0.43633124
20231225 03:46:30,0.448358,-1.207723,2.083127,-0.610801,-0.039100,-0.144275,5.598862,-17.620537,-3.542519,-159.11089,1.2930329,-1.2182497,-2.3454506,-0.61453724,-0.05054844,0.3661202
20231225 03:46:30,-0.068465,-1.089622,2.552134,-0.329549,-0.072126,-0.158124,5.723331,-17.616005,-3.139664,-159.06148,1.0644418,-1.1625661,-2.4737043,-0.3633636,-0.08685638,0.25184476
20231225 03:46:30,-0.393265,-0.731290,2.403428,-0.047232,-0.117936,-0.127229,5.953579,-17.413200,-2.882668,-157.59549,0.8083478,-0.8575051,-2.0223806,-0.09642197,-0.11590228,0.0863471
20231225 03:46:30,-0.462443,-0.402617,1.661352,0.176492,-0.142439,-0.068635,5.511013,-17.628761,-3.408882,-158.1713,0.49197644,-0.50862163,-1.198337,0.120784216,-0.12609713,-0.08337364
20231225 03:46:30,-0.287361,-0.236905,0.708424,0.317118,-0.115805,-0.015368,5.538677,-17.727478,-2.866280,-157.42093,0.16982839,-0.2793132,-0.4536611,0.25775632,-0.097280316,-0.20368275
20231225 03:46:30,-0.113161,-0.215209,0.253036,0.398084,-0.093433,0.018723,5.908371,-17.696411,-3.132568,-155.04962,0.06292909,-0.22751516,-0.19322519,0.336461,-0.07693281,-0.27889365
20231225 03:46:30,0.072101,-0.323824,-0.273191,0.451351,-0.090237,0.032573,5.705402,-17.806046,-3.127434,-155.24126,-0.102316156,-0.31699368,0.045730278,0.38033238,-0.08002606,-0.32720196
20231225 03:46:30,0.191962,-0.554951,-0.840788,0.459874,-0.089171,0.031508,5.899406,-17.791435,-3.126457,-153.68298,-0.37155187,-0.5394088,0.27388242,0.37859833,-0.08147951,-0.3419462
20231225 03:46:30,0.218717,-0.682461,-1.363782,0.428979,-0.084910,0.022985,5.784668,-18.084724,-2.974480,-153.95702,-0.71177953,-0.65612763,0.5594479,0.34167504,-0.0771976,-0.32354957
20231225 03:46:30,0.191192,-0.705916,-1.739563,0.367189,-0.082779,0.021920,5.972279,-17.606941,-2.333946,-152.5064,-1.0150293,-0.6690498,0.772024,0.28798258,-0.075578965,-0.28966984
20231225 03:46:30,0.173360,-0.709740,-2.020250,0.289418,-0.087041,0.024050,6.033226,-17.883774,-2.449249,-151.53128,-1.2698464,-0.66648924,0.90971994,0.22593611,-0.08166007,-0.2466856
20231225 03:46:30,0.179036,-0.594759,-2.271749,0.195668,-0.078518,0.031508,5.821678,-18.280312,-2.157524,-152.18477,-1.5083847,-0.53785545,1.0634955,0.15946652,-0.07489599,-0.18625104
20231225 03:46:30,0.096711,-0.401121,-2.442192,0.104048,-0.054015,0.043226,5.751766,-18.098503,-2.036118,-151.32188,-1.7395337,-0.30011612,1.2260063,0.10362041,-0.051968332,-0.1201444
20231225 03:46:30,-0.029667,-0.133874,-2.488739,0.007101,-0.030577,0.062403,5.839222,-17.898384,-2.450226,-148.69987,-1.9140567,0.015324086,1.3424401,0.05412088,-0.03389177,-0.049847335
20231225 03:46:30,-0.121675,0.111497,-2.565011,-0.099434,0.005645,0.091167,5.990208,-17.416901,-2.346176,-147.09468,-2.0543828,0.24802907,1.5056931,0.0063154697,-0.0040026084,0.029733535
20231225 03:46:30,0.034121,0.137397,-2.339175,-0.209164,0.035474,0.109278,5.848186,-17.803368,-2.456337,-149.8588,-1.7197479,0.19297478,1.3725278,-0.059352778,0.028479021,0.104356214
20231225 03:46:30,0.285870,0.025595,-1.900475,-0.301850,0.028017,0.108213,6.281021,-17.299049,-2.484947,-149.0735,-1.1410584,-0.008378318,0.95986867,-0.13648969,0.034380592,0.15799686
20231225 03:46:30,0.564784,-0.124650,-1.456199,-0.370032,0.002449,0.099690,5.908371,-17.696411,-3.132568,-151.37476,-0.57296133,-0.21221782,0.51491165,-0.2050013,0.023744345,0.18684477
20231225 03:46:30,0.827480,-0.226608,-1.119557,-0.411581,-0.012466,0.090102,6.209953,-16.541565,-3.204956,-149.46564,-0.09666246,-0.35268128,0.118260086,-0.25828218,0.022618758,0.20036626
20231225 03:46:30,1.022140,-0.344645,-0.754684,-0.423299,-0.024185,0.075187,6.164364,-16.632889,-3.735336,-150.00134,0.32867607,-0.48762006,-0.24205351,-0.2915732,0.019568307,0.1970015
20231225 03:46:30,1.152008,-0.426023,-0.402860,-0.401992,-0.028446,0.056011,6.623707,-15.651634,-4.062759,-146.53424,0.6604002,-0.5629003,-0.6014341,-0.29280934,0.014581725,0.18803146
20231225 03:46:30,1.172578,-0.382618,-0.159987,-0.354052,-0.015662,0.041096,6.384491,-15.949448,-4.313637,-147.89685,0.8353956,-0.49798033,-0.73817074,-0.26501977,0.019531604,0.17118037
20231225 03:46:30,1.082727,-0.276570,0.037912,-0.279477,-0.000747,0.035769,6.341854,-15.674469,-3.930099,-148.40268,0.8894276,-0.3604636,-0.77055,-0.20750126,0.023867633,0.13639838
20231225 03:46:30,0.984907,-0.200643,0.165915,-0.195315,0.008841,0.029377,6.251823,-16.432770,-4.149437,-149.75185,0.888081,-0.25774193,-0.77123404,-0.14151794,0.023233285,0.096470386
20231225 03:46:30,0.861911,-0.045657,0.224624,-0.099434,0.007775,0.022985,6.013763,-17.306259,-3.558907,-152.73347,0.82612294,-0.08495206,-0.6868046,-0.06640957,0.014322164,0.045074508
20231225 03:46:30,0.773064,0.084554,0.145548,0.000709,0.010971,0.010201,6.198032,-17.002884,-4.112762,-150.11246,0.70383334,0.054929882,-0.5386437,0.0071583637,0.011273373,-0.00310727
20231225 03:46:30,0.594998,0.338380,-0.149899,0.080610,0.034409,-0.002583,6.004414,-17.209389,-3.833260,-150.43013,0.36470735,0.3204969,-0.1570079,0.060609736,0.032359764,-0.037354395
20231225 03:46:30,0.370007,0.631379,-0.423573,0.127486,0.059977,-0.013237,6.322510,-16.998360,-3.709908,-147.74023,-0.016069591,0.6340327,0.2616841,0.0847411,0.06046625,-0.054420408
20231225 03:46:30,0.121571,0.915791,-0.689395,0.142400,0.081284,-0.004714,6.294846,-16.899643,-4.252502,-145.13359,-0.42073014,0.93367285,0.68604654,0.09574751,0.0845838,-0.06480428
20231225 03:46:30,-0.000706,1.115131,-0.913246,0.136008,0.117506,0.017658,6.374878,-17.562096,-3.538612,-146.63785,-0.68897533,1.1400744,0.95553327,0.103777975,0.12062394,-0.06330058
20231225 03:46:30,0.017125,1.309930,-0.967400,0.116832,0.135617,0.031508,6.304195,-16.996513,-3.978149,-144.09961,-0.7259737,1.3319389,1.0452363,0.099556774,0.13733198,-0.048671998
20231225 03:46:30,0.071497,1.384110,-0.946093,0.083806,0.149467,0.040030,6.207382,-17.099762,-3.838394,-145.15823,-0.67304456,1.4064436,1.0186557,0.083083205,0.15026622,-0.025294447
20231225 03:46:30,0.135368,1.372240,-0.893404,0.046519,0.135617,0.040030,6.358749,-16.810173,-3.453880,-144.97879,-0.5714809,1.3845235,0.94760835,0.059399046,0.13564825,-0.0027316231
20231225 03:46:30,0.200524,1.244072,-0.903036,-0.001422,0.137748,0.037900,6.437630,-16.896957,-3.581406,-144.88803,-0.517735,1.2501669,0.8652035,0.025521845,0.13752402,0.03450133
20231225 03:46:30,0.302459,1.189075,-0.774228,-0.035513,0.180362,0.032573,6.226082,-17.293503,-3.289688,-147.91396,-0.3281029,1.1856195,0.69907784,-0.0016091298,0.18057792,0.07339343
20231225 03:46:30,0.353609,1.112668,-0.470422,-0.050428,0.261328,0.030442,6.226082,-17.293503,-3.289688,-149.05646,-0.061068743,1.1112862,0.4712971,-0.01563027,0.26146457,0.113528565
20231225 03:46:30,0.325114,1.063437,0.011662,-0.037643,0.341229,0.033638,6.383457,-17.275192,-3.825195,-148.74008,0.24601287,1.0656059,0.19427212,-0.008322123,0.34074312,0.13647246
20231225 03:46:30,0.161040,1.163283,0.508436,0.006036,0.396627,0.047488,6.298183,-16.725227,-3.058113,-149.83427,0.42354494,1.1548862,0.0065004826,0.025811758,0.39539286,0.11683451
20231225 03:46:30,-0.064251,1.433653,0.921039,0.063565,0.420065,0.068795,6.614090,-17.264282,-3.287735,-149.2329,0.48391175,1.3858644,-0.0024024248,0.07418357,0.41932607,0.07718527
20231225 03:46:30,-0.342149,1.892073,1.212100,0.125355,0.395562,0.105017,6.905285,-17.338310,-3.146027,-147.53748,0.4286307,1.7769575,0.22401959,0.13677034,0.39585778,0.0077981353
20231225 03:46:30,-0.656080,2.591333,1.237700,0.139204,0.303942,0.158284,6.684002,-17.446083,-3.409134,-146.55101,0.13679957,2.3700187,0.7436971,0.17804053,0.29877695,-0.07337802
20231225 03:46:30,-1.000356,3.257956,0.879928,0.059303,0.153728,0.237120,6.746376,-16.589066,-3.732407,-141.36769,-0.46103227,2.9669657,1.644351,0.19252253,0.12666118,-0.10378347
20231225 03:46:30,-1.009125,3.433314,0.253211,-0.102630,0.040801,0.340459,6.420086,-17.278893,-3.288712,-143.66158,-0.8630948,3.2630584,1.9531907,0.18557431,-0.009686315,-0.08334936
20231225 03:46:30,-0.415862,3.186042,-0.040611,-0.278412,0.063173,0.405445,6.252975,-17.008438,-3.308022,-144.3936,-0.43768674,3.1675913,1.5568774,0.11840314,0.035937265,0.016440734
20231225 03:46:30,0.328291,2.744426,0.285170,-0.424365,0.191015,0.368158,6.473873,-16.708771,-3.325386,-145.86327,0.45640773,2.7438529,0.6971834,-0.041707814,0.19753091,0.15763755
20231225 03:46:30,0.520271,1.982647,1.214452,-0.523442,0.311400,0.265884,6.041042,-17.213089,-3.296776,-152.65161,1.1426737,1.9802065,-0.4496558,-0.2552449,0.3071581,0.24439284
20231225 03:46:30,0.186623,0.773161,2.328367,-0.543684,0.395562,0.179591,6.568497,-17.355598,-3.818100,-154.01639,1.2820137,0.7386802,-1.6234379,-0.3944152,0.37559968,0.2748914
20231225 03:46:30,-0.013560,-0.545619,3.481094,-0.452064,0.441372,0.125258,6.207382,-17.099762,-3.838394,-157.19308,1.3028246,-0.60984576,-3.1651366,-0.38017616,0.41792077,0.22127128
20231225 03:46:30,-0.238995,-1.507099,4.530982,-0.243256,0.412608,0.105017,6.304195,-16.996513,-3.978149,-158.17906,1.1164105,-1.6160488,-4.4914227,-0.21109189,0.39225385,0.12415033
20231225 03:46:30,-0.599052,-2.448841,5.020489,0.052911,0.292223,0.142304,6.155014,-16.536018,-4.009689,-159.1193,0.56981736,-2.5915644,-5.293542,0.07710798,0.2928497,-0.039786257
20231225 03:46:30,-0.574601,-3.259578,4.622341,0.362927,0.143075,0.207290,6.252590,-16.816551,-3.588493,-159.25165,0.35636044,-3.3589227,-5.2690043,0.39349034,0.16657265,-0.20937717
20231225 03:46:30,-0.122568,-3.721713,3.352797,0.600500,0.052520,0.252035,5.837688,-17.130829,-3.572105,-160.42027,0.5643326,-3.7465286,-4.2959495,0.63795555,0.07120038,-0.3336842
20231225 03:46:30,0.384415,-3.874188,1.952654,0.719819,0.002449,0.241381,5.847424,-17.419586,-3.017273,-160.31598,0.77889776,-3.8738189,-3.154254,0.75442487,-0.0025559724,-0.3722875
20231225 03:46:30,0.680129,-3.954050,0.747967,0.725146,-0.031643,0.176395,5.838074,-17.322723,-3.291641,-159.5266,0.8266225,-3.9647636,-2.1895785,0.7457038,-0.048912253,-0.36282504
20231225 03:46:30,0.620741,-3.486713,-0.385112,0.645245,-0.048688,0.097559,5.980858,-17.320038,-2.620537,-158.05238,0.41188675,-3.4893,-1.1146653,0.63089126,-0.05068665,-0.35587484
20231225 03:46:30,0.301844,-2.540791,-1.327895,0.465201,-0.069995,0.021920,5.849995,-16.861397,-2.383835,-155.46005,-0.39315262,-2.4667747,-0.042194963,0.40058702,-0.04423701,-0.3007581
20231225 03:46:30,-0.312785,-1.394234,-2.072701,0.182884,-0.110478,-0.023890,5.841415,-17.148308,-2.097252,-152.09009,-1.4391621,-1.1083055,1.0610479,0.13036971,-0.07739211,-0.14984955
20231225 03:46:30,-1.099143,-0.016140,-2.566733,-0.193184,-0.146700,-0.008976,5.893013,-17.328270,-2.486900,-148.31847,-2.5490294,0.451296,2.2241073,-0.08734874,-0.1780617,0.10633597
20231225 03:46:30,-1.847347,1.111388,-2.641236,-0.621454,-0.154158,0.081579,5.980476,-17.128143,-2.901009,-147.57774,-3.3914537,1.4031448,3.2003798,-0.27503923,-0.33240163,0.39402938
20231225 03:46:30,-2.279529,1.594966,-2.103110,-1.025221,-0.104086,0.222205,5.810795,-17.415886,-3.553764,-152.7504,-3.4329734,1.4712265,3.4350488,-0.5066953,-0.43859798,0.59501046
20231225 03:46:30,-2.297316,1.394009,-0.712746,-1.281970,0.033344,0.379876,5.643684,-17.145439,-3.573082,-156.7885,-2.475754,0.9243036,2.389207,-0.76712793,-0.3438839,0.5544307
20231225 03:46:30,-2.076396,0.896904,1.241904,-1.324584,0.172904,0.515176,5.722183,-17.040337,-3.981079,-158.4628,-1.2510037,0.33844584,0.36993593,-0.8922266,-0.14159733,0.3310471
20231225 03:46:30,-1.785365,0.151828,3.230188,-1.144540,0.250675,0.615318,5.288582,-17.160881,-4.513412,-161.76073,-0.3355317,-0.35677922,-2.0237923,-0.8133317,0.024631128,0.0073806643
20231225 03:46:30,-1.605463,-0.573144,4.551195,-0.797237,0.240021,0.693089,5.066914,-17.076767,-5.056984,-163.09102,0.032665968,-0.9970685,-3.716533,-0.53104794,0.098726854,-0.290222
20231225 03:46:30,-1.264603,-1.180427,5.044312,-0.351921,0.177166,0.764467,4.821308,-16.911415,-4.668312,-163.43217,0.339036,-1.441982,-4.5514693,-0.1119754,0.120810494,-0.54473406
20231225 03:46:30,-0.601011,-1.603431,4.622318,0.123224,0.117506,0.811343,4.469543,-16.752449,-4.414246,-163.65575,0.8399995,-1.6857893,-4.4781027,0.36039004,0.11198111,-0.74794745
20231225 03:46:30,0.164836,-1.819418,3.345039,0.542971,0.096199,0.810277,4.548424,-16.839241,-4.541771,-162.17883,1.2388737,-1.798489,-3.588708,0.77918386,0.09078578,-0.8789375
20231225 03:46:30,0.849329,-1.987985,1.725262,0.860445,0.112179,0.763402,3.879337,-17.275078,-3.850113,-163.93965,1.3588716,-1.9921292,-2.3652635,1.0868075,0.06177596,-0.97415864
20231225 03:46:30,1.268611,-1.956294,0.090316,1.050077,0.150532,0.685632,3.658436,-17.574738,-3.832748,-163.33063,1.0240045,-2.0973437,-1.1660438,1.2558265,0.056662384,-1.033695
20231225 03:46:30,1.422204,-1.704614,-1.296371,1.112933,0.203799,0.602534,3.403484,-17.312523,-3.718437,-162.24225,0.28757417,-2.0593562,-0.19243813,1.2764493,0.07747895,-1.0423523
20231225 03:46:30,1.504181,-1.653748,-2.334709,1.073515,0.211257,0.508784,3.758587,-17.297073,-2.778114,-160.40845,-0.55430484,-2.2657375,0.30273294,1.1741649,0.07903202,-1.0005628
20231225 03:46:30,1.390350,-1.472886,-3.239239,0.963784,0.204865,0.409706,3.080151,-17.636047,-2.360825,-162.16,-1.5692928,-2.280148,0.82034695,0.99132454,0.1010806,-0.9218259
20231225 03:46:30,1.228995,-1.246284,-3.806141,0.817831,0.180362,0.305302,3.220367,-18.191551,-2.323166,-159.77106,-2.39812,-2.1720228,0.9614761,0.77210635,0.10678837,-0.7827883
20231225 03:46:30,0.978365,-0.969400,-4.217765,0.645245,0.134552,0.203029,2.816231,-17.468842,-2.240395,-158.54385,-3.0934956,-1.7450383,1.1261009,0.5406627,0.09654158,-0.61713696
20231225 03:46:30,0.651559,-0.623631,-4.433544,0.440698,0.077023,0.116736,2.562428,-17.782288,-1.284660,-161.19127,-3.573626,-1.044791,1.3997613,0.3248297,0.06491641,-0.42577708
20231225 03:46:30,0.309065,-0.324317,-4.534953,0.212713,0.018429,0.054945,2.992687,-17.836166,-1.946716,-155.39807,-3.8758974,-0.3163261,1.5726836,0.1471588,0.01852439,-0.20811741
20231225 03:46:31,-0.040395,-0.093728,-4.504659,-0.033382,-0.005009,0.020854,3.477509,-17.703697,-2.084511,-151.88048,-3.9779546,0.31732076,1.8607719,0.003320708,-0.00849496,0.019921478
20231225 03:46:31,-0.373692,0.052536,-4.157451,-0.286935,0.017364,0.015527,3.213589,-17.536499,-1.964081,-158.77696,-3.667921,0.6030961,2.4037542,-0.14338046,-0.010698382,0.23780353
20231225 03:46:31,-0.596901,-0.090930,-3.348362,-0.515985,0.036540,0.040030,2.871174,-17.474396,-1.435661,-165.05257,-2.9087,0.25527382,2.5176582,-0.30500746,-0.020993758,0.37714162
20231225 03:46:31,-0.609832,-0.391613,-2.212735,-0.697094,0.023756,0.071991,3.019585,-17.551109,-1.965057,-166.41063,-1.8967811,-0.26917487,1.9354136,-0.47057882,-0.04192096,0.4201717
20231225 03:46:31,-0.502120,-0.764811,-1.025180,-0.810021,-0.035904,0.089036,2.913425,-17.557487,-2.099670,-168.18686,-0.9613327,-0.75008017,0.982245,-0.614889,-0.08937121,0.38208175
20231225 03:46:31,-0.314772,-1.141436,0.101604,-0.838785,-0.138177,0.085840,3.352646,-17.516335,-2.767838,-166.87471,-0.19970194,-1.1547052,-0.15778558,-0.6859621,-0.17237519,0.31109655
20231225 03:46:31,-0.231478,-1.315270,0.833467,-0.787648,-0.245777,0.070926,2.903305,-17.076836,-2.934975,-168.51752,0.18467814,-1.3307297,-0.8588716,-0.6683357,-0.26584098,0.24889295
20231225 03:46:31,-0.054922,-1.371547,1.264307,-0.678983,-0.329940,0.035769,2.884609,-16.883095,-3.483688,-168.0657,0.5027305,-1.3709998,-1.343615,-0.59516984,-0.32937142,0.20396715
20231225 03:46:31,0.191768,-1.231083,1.297439,-0.538357,-0.368292,-0.021760,2.751171,-16.982651,-3.880424,-167.98306,0.74079025,-1.21879,-1.4476128,-0.4949244,-0.35475692,0.19360955
20231225 03:46:31,0.429659,-0.910822,1.162264,-0.395600,-0.367227,-0.099530,2.928017,-17.541862,-3.306290,-167.35654,0.91494334,-0.8995573,-1.3745754,-0.40365678,-0.35087425,0.2064096
20231225 03:46:31,0.492884,-0.568646,0.813238,-0.281608,-0.325679,-0.184758,2.831589,-17.836990,-2.886070,-167.78067,0.8282169,-0.56754416,-1.0378492,-0.34581408,-0.31732824,0.24230754
20231225 03:46:31,0.459646,-0.223862,0.564588,-0.189988,-0.251104,-0.273182,3.119064,-17.893547,-4.219223,-165.29866,0.68837756,-0.2271622,-0.7564705,-0.31599027,-0.25040978,0.27207747
20231225 03:46:31,0.315794,0.189144,0.637482,-0.091976,-0.180791,-0.365867,2.778065,-16.697594,-3.898766,-166.24324,0.62378246,0.19028024,-0.651849,-0.2850827,-0.18225308,0.3091587
20231225 03:46:31,-0.166771,0.559443,0.809220,0.026277,-0.154158,-0.435115,2.963490,-16.969887,-3.611206,-166.48146,0.3216306,0.5281893,-0.43413815,-0.22863638,-0.14011484,0.2983454
20231225 03:46:31,-0.720265,0.806862,0.836711,0.147727,-0.180791,-0.457487,3.166458,-16.860260,-3.616348,-166.10365,-0.131609,0.687212,-0.06523776,-0.14194068,-0.13792002,0.23290566
20231225 03:46:31,-1.074142,1.039266,0.689293,0.262785,-0.255366,-0.438311,3.421413,-17.122482,-3.730667,-165.01509,-0.49979064,0.8553193,0.36240655,-0.044795096,-0.18720104,0.11431043
20231225 03:46:31,-1.159576,1.255195,0.252135,0.359731,-0.321417,-0.401024,3.809036,-16.901375,-4.009178,-161.78499,-0.8247705,1.0930808,0.8808978,0.03833893,-0.24116983,-0.02716422
20231225 03:46:31,-1.036264,1.377347,-0.326876,0.424718,-0.354443,-0.374390,3.379162,-17.039391,-3.066650,-163.14198,-1.0891614,1.3020419,1.2331278,0.07635492,-0.28084406,-0.113022804
20231225 03:46:31,-0.762639,1.377918,-0.910717,0.439633,-0.320352,-0.376521,4.048630,-16.795441,-3.477829,-157.10657,-1.2709631,1.3842793,1.5007585,0.052364707,-0.26821023,-0.16487227
20231225 03:46:31,-0.468572,1.361583,-1.136510,0.414064,-0.262823,-0.412743,3.978718,-16.613640,-3.356422,-156.88493,-1.208636,1.3907839,1.426229,-0.0024470687,-0.2252065,-0.11073202
20231225 03:46:31,-0.328654,1.249745,-1.040654,0.372516,-0.234059,-0.459618,4.464302,-16.864937,-2.933273,-155.56079,-1.0172467,1.2730644,1.2565553,-0.061412483,-0.20557892,-0.042872906
20231225 03:46:31,-0.299316,1.082198,-0.940443,0.314987,-0.224471,-0.493709,4.297195,-16.594490,-2.952591,-156.48563,-0.906999,1.1005741,1.1296113,-0.11689094,-0.1996416,0.0360274
20231225 03:46:31,-0.260123,0.951144,-0.812959,0.243608,-0.218078,-0.524604,4.694935,-16.854034,-2.395805,-156.09508,-0.7801886,0.96708786,0.9936332,-0.18105304,-0.19362967,0.11299734
20231225 03:46:31,-0.287704,0.845324,-0.625515,0.171165,-0.212752,-0.570414,4.782780,-16.845802,-2.529442,-156.03622,-0.6708318,0.8567617,0.8652778,-0.2545454,-0.18156788,0.20120731
20231225 03:46:31,-0.483618,0.893632,-0.425948,0.113636,-0.187183,-0.630073,5.161438,-16.719711,-2.801842,-154.16486,-0.70254755,0.88280845,0.895755,-0.32971472,-0.13598284,0.2793643
20231225 03:46:31,-0.877974,1.098951,-0.165336,0.092329,-0.110478,-0.702517,5.400265,-16.230003,-2.831436,-152.72389,-0.87310064,1.001972,1.073102,-0.38985896,-0.024263762,0.3600042
20231225 03:46:31,-1.434129,1.438373,0.154150,0.137074,0.032278,-0.771765,5.876503,-16.384453,-2.682648,-151.66148,-1.1947917,1.1088816,1.3726267,-0.41006494,0.18434812,0.41918522
20231225 03:46:31,-2.326836,1.944973,0.562616,0.235086,0.196342,-0.805856,5.524357,-16.033592,-2.709053,-154.47672,-1.8146156,1.1232927,1.7998663,-0.37598807,0.42465717,0.447216
20231225 03:46:31,-3.385777,2.449228,1.089659,0.391692,0.319922,-0.760046,5.788658,-16.392685,-2.549011,-155.38535,-2.5629249,0.8465122,2.2691588,-0.25392938,0.6265532,0.3565734
20231225 03:46:31,-4.351422,3.155210,1.370073,0.557886,0.388105,-0.595982,6.503723,-16.057411,-2.429810,-151.40706,-3.4429214,0.71046996,3.1786482,-0.0720143,0.7391355,0.14214046
20231225 03:46:31,-5.103243,4.119850,1.337005,0.649506,0.350817,-0.291293,6.532154,-16.539909,-1.326263,-150.36298,-4.386041,1.0050863,4.229523,0.15133531,0.654671,-0.15811574
20231225 03:46:31,-5.173203,4.553118,0.987430,0.587716,0.204865,0.102886,6.453274,-16.453117,-1.198746,-148.96982,-4.71329,1.553917,4.802001,0.38473958,0.34824616,-0.41706625
20231225 03:46:31,-4.137449,4.076005,0.361898,0.373581,0.016298,0.477888,6.480553,-16.359947,-0.936607,-145.66115,-3.8152974,2.3529937,4.4373426,0.56372565,-0.036621787,-0.5347022
20231225 03:46:31,-2.417793,3.430269,0.090855,0.098721,-0.095563,0.739964,6.172195,-16.859734,-0.505142,-148.049,-2.1246414,2.9385498,2.9680235,0.6288933,-0.2126238,-0.51445925
20231225 03:46:31,-0.503439,2.667518,0.240491,-0.164420,-0.109413,0.859283,5.456741,-17.003105,-0.904816,-153.88545,-0.1888508,2.663989,1.0273659,0.5052695,-0.11427844,-0.45030838
20231225 03:46:31,0.989663,1.525071,0.798973,-0.412646,-0.075322,0.849695,5.131489,-16.367188,-0.949562,-157.63573,1.3954227,1.4733826,-0.739267,0.19356388,0.04044048,-0.38165557
20231225 03:46:31,1.893468,0.081645,1.633026,-0.605474,-0.028446,0.771925,5.076935,-16.553535,-1.473824,-159.67516,2.4427223,-0.08193895,-2.2358575,-0.16126627,0.14351231,-0.3450037
20231225 03:46:31,2.376948,-1.420907,2.541047,-0.685375,0.070631,0.683501,4.749874,-16.859581,-1.591064,-162.35017,2.9805262,-1.6781464,-3.4944386,-0.40962493,0.25596774,-0.35666546
20231225 03:46:31,2.692214,-2.798262,3.389644,-0.612931,0.204865,0.566312,4.264290,-16.608276,-2.014214,-163.94098,3.229729,-3.1301558,-4.528611,-0.4651142,0.35279614,-0.3392685
20231225 03:46:31,2.725863,-3.987940,4.340821,-0.450998,0.234695,0.394791,4.194374,-16.426460,-1.892815,-164.48323,3.14268,-4.33752,-5.553045,-0.3922885,0.32931486,-0.25779086
20231225 03:46:31,2.671935,-4.856112,4.856297,-0.198511,0.113245,0.180656,3.973095,-16.534248,-2.155922,-165.27951,2.917702,-5.21479,-6.093073,-0.18505965,0.1511954,-0.13264008
20231225 03:46:31,2.629411,-5.277117,4.908817,0.151989,-0.085975,-0.054786,4.078865,-16.335976,-2.301781,-164.68318,2.8425832,-5.628128,-6.268554,0.14773218,-0.114002764,0.021402612
20231225 03:46:31,2.512102,-5.073331,4.031837,0.565344,-0.240451,-0.300881,3.824680,-16.457527,-1.626518,-165.94753,2.8379192,-5.370556,-5.3982153,0.5222055,-0.35135344,0.16680306
20231225 03:46:31,2.136408,-4.332986,2.412037,0.938215,-0.290522,-0.493709,3.860924,-16.269341,-1.370499,-165.53091,2.4396594,-4.5404043,-3.8180296,0.789016,-0.4757908,0.17869884
20231225 03:46:31,1.669515,-3.288488,0.757774,1.185376,-0.275607,-0.595982,4.434357,-16.512421,-1.080986,-163.06207,1.6072896,-3.4446008,-2.2168338,0.8248524,-0.49142203,-0.035144567
20231225 03:46:31,1.182215,-1.972491,-0.766329,1.257820,-0.244712,-0.588525,4.577141,-16.509743,-0.409889,-160.68121,0.30011383,-2.1391757,-0.675226,0.6083051,-0.4196572,-0.4045393
20231225 03:46:31,0.813734,-0.727514,-2.092955,1.121455,-0.254300,-0.494774,4.895615,-16.490608,-0.006058,-155.15224,-1.1959782,-0.9327505,0.3399657,0.28303963,-0.3579464,-0.6730156
20231225 03:46:31,0.525000,0.489069,-3.262401,0.776283,-0.273477,-0.352018,4.728123,-16.028267,-0.305840,-147.56363,-2.6099987,0.30326194,0.9426965,0.03708765,-0.31279242,-0.61643094
20231225 03:46:31,0.376385,1.344843,-3.831638,0.280896,-0.321417,-0.181562,4.932514,-14.784775,-0.518951,-140.12411,-3.24292,1.0900702,1.2246763,-0.06943567,-0.34005377,-0.28342757
20231225 03:46:31,0.593825,1.414646,-3.801438,-0.276281,-0.381077,-0.045197,4.860409,-15.353050,-0.750519,-145.93402,-2.8089967,0.74221075,1.3118682,-0.22830534,-0.35910755,0.16238452
20231225 03:46:31,1.253602,0.905786,-2.983999,-0.738643,-0.392795,-0.001518,4.957218,-15.249802,-0.890266,-152.40019,-1.3414918,0.060649395,0.86415493,-0.5307274,-0.26306728,0.47726336
20231225 03:46:31,1.650345,0.279053,-1.683429,-1.007110,-0.333136,-0.062243,4.884346,-15.434288,-1.682770,-154.88994,0.13952625,-0.28945336,0.07830775,-0.8324613,-0.15818503,0.62385434
20231225 03:46:31,1.643288,-0.324327,-0.363376,-1.077423,-0.210621,-0.196477,4.929173,-14.959190,-1.713333,-156.28104,1.1025857,-0.5830276,-0.7843313,-1.0119438,-0.077505365,0.700137
20231225 03:46:31,1.133597,-0.682190,0.838118,-0.969823,-0.062538,-0.346691,5.008053,-15.045982,-1.840858,-157.36076,1.3741037,-0.72232324,-1.4638731,-1.0151813,-0.012596491,0.7408117
20231225 03:46:31,0.286532,-1.044363,1.945834,-0.743969,0.055716,-0.461749,4.874619,-15.145538,-2.237602,-159.06828,1.1259359,-1.0623187,-2.0937278,-0.87184113,0.04130813,0.7321292
20231225 03:46:31,-0.690903,-1.168314,2.798799,-0.445672,0.100461,-0.494774,5.450233,-14.638535,-1.595116,-157.245,0.55148053,-1.3596553,-2.4908535,-0.6115199,0.07663248,0.6334527
20231225 03:46:31,-1.404863,-1.217606,3.128470,-0.112218,0.100461,-0.440442,5.694420,-15.937744,-1.775818,-158.57755,0.008141518,-1.6139314,-2.5283604,-0.28132176,0.11070906,0.45468366
20231225 03:46:31,-1.746351,-1.221109,3.035366,0.222302,0.078088,-0.341364,5.387096,-15.111778,-1.832794,-158.56642,-0.26274538,-1.7355604,-2.2571492,0.057751924,0.14145377,0.22342497
20231225 03:46:31,-1.793529,-1.125993,2.276164,0.505684,0.081284,-0.222045,5.511570,-15.107254,-1.429932,-157.49529,-0.48851097,-1.6311822,-1.4483814,0.34519708,0.19039631,-0.018065333
20231225 03:46:31,-1.581674,-1.154384,1.238481,0.696381,0.112179,-0.100595,5.203209,-15.607033,-0.998466,-158.65231,-0.66187596,-1.5138965,-0.5831699,0.5452944,0.23557723,-0.2282244
20231225 03:46:31,-1.174357,-1.286752,0.360013,0.802916,0.133486,0.012331,5.591217,-15.577812,-0.996513,-156.438,-0.70973957,-1.4569503,-0.10554743,0.67981696,0.23789448,-0.3840514
20231225 03:46:31,-0.663817,-1.542698,-0.409965,0.839138,0.112179,0.097559,5.388630,-15.879333,-0.710907,-157.1006,-0.69470984,-1.5671654,0.18272668,0.7460998,0.17487216,-0.5036762
20231225 03:46:31,-0.121334,-1.703637,-1.195512,0.818896,0.066370,0.154023,5.345993,-15.604362,-0.327370,-156.20676,-0.7978171,-1.6874392,0.39647937,0.742518,0.080156125,-0.5889053
20231225 03:46:31,0.379692,-1.615127,-2.033448,0.740061,0.030148,0.188114,5.082077,-15.437157,-0.206932,-156.0475,-1.1726956,-1.7264398,0.62636244,0.67257434,0.0011436399,-0.61921537
20231225 03:46:31,0.951519,-1.511958,-2.712543,0.590912,-0.008205,0.193441,5.691750,-15.492050,0.338600,-154.39754,-1.5461674,-2.0041893,0.5034833,0.53686,-0.05829841,-0.5567613
20231225 03:46:31,1.385334,-1.303068,-3.316592,0.375712,-0.031643,0.167872,4.836472,-15.271797,0.181740,-157.17206,-1.9402232,-2.325586,0.4883685,0.34971642,-0.061571997,-0.3985538
20231225 03:46:31,1.665715,-1.060319,-3.656586,0.101917,-0.026316,0.125258,4.994228,-15.445389,-0.073303,-156.5314,-2.0397248,-2.476737,0.4159901,0.1457192,-0.009261597,-0.15663576
20231225 03:46:31,1.903688,-0.823485,-3.628801,-0.185727,0.003514,0.074122,4.757973,-15.376907,0.589729,-159.95206,-1.7495346,-2.3820677,0.38290834,-0.05759504,0.07238177,0.10615882
20231225 03:46:31,1.994424,-0.596857,-3.167562,-0.458456,0.056781,0.003809,5.012543,-15.447235,0.194939,-158.07146,-1.13132,-1.8665559,0.2349658,-0.27848747,0.15881088,0.36110547
20231225 03:46:31,1.895288,-0.446943,-2.322191,-0.664068,0.114310,-0.076092,5.021507,-15.352219,0.188828,-157.82108,-0.35310185,-1.1865785,0.03858292,-0.49759442,0.21456663,0.5530782
20231225 03:46:31,1.473580,-0.259610,-1.270175,-0.762080,0.167578,-0.152798,4.818542,-15.461838,0.193962,-158.58812,0.22955978,-0.53793037,-0.17713976,-0.65142375,0.23290494,0.66098213
20231225 03:46:31,0.937029,0.035811,-0.265296,-0.749296,0.214453,-0.207130,4.975914,-15.443542,-0.341545,-157.1369,0.55369914,-0.0062241917,-0.39870924,-0.7025977,0.23518927,0.6891046
20231225 03:46:31,0.350747,0.287472,0.601429,-0.642761,0.244283,-0.227372,4.860794,-15.544937,-0.470047,-157.96904,0.6390989,0.28493762,-0.5702709,-0.6526613,0.23383574,0.63084
20231225 03:46:31,-0.241676,0.440964,1.199210,-0.468044,0.230433,-0.207130,5.081306,-15.053383,-0.767876,-156.39793,0.48759818,0.3592559,-0.6014202,-0.5115757,0.20692971,0.5040833
20231225 03:46:31,-0.692724,0.656481,1.520282,-0.256040,0.189950,-0.140013,5.054413,-15.338440,-0.749542,-156.88028,0.28564274,0.45626307,-0.50609297,-0.30342454,0.17190787,0.31566763
20231225 03:46:31,-0.923416,0.828424,1.440188,-0.037643,0.152663,-0.038805,4.887302,-15.067993,-0.768852,-156.73355,0.07396811,0.5889772,-0.21865511,-0.06671691,0.1502506,0.09884053
20231225 03:46:31,-0.794155,0.885242,0.959697,0.148793,0.143075,0.069860,4.650661,-14.807617,-0.386292,-156.91225,-0.06406593,0.7287689,0.101430774,0.14722879,0.1504211,-0.10204318
20231225 03:46:31,-0.428153,0.861270,0.268713,0.274504,0.151597,0.154023,4.877953,-14.971115,-1.043213,-154.7284,-0.17937595,0.82233626,0.38015223,0.2989815,0.15851708,-0.23974666
20231225 03:46:31,-0.172969,0.779981,-0.062566,0.310725,0.160120,0.181722,4.174812,-14.845062,-0.254608,-158.51913,-0.1920425,0.7756497,0.36953798,0.3464564,0.1644273,-0.29255706
20231225 03:46:31,0.539923,0.287109,-0.807800,0.319248,0.164382,0.209421,4.368816,-14.830460,-0.253632,-157.95158,-0.1474573,0.2347654,0.25509185,0.38205642,0.15922593,-0.31500626
20231225 03:46:31,0.942171,-0.075149,-0.996208,0.279830,0.144140,0.182787,4.378166,-14.927330,0.020721,-159.0269,0.019202948,-0.22773986,0.028559744,0.33989355,0.13399102,-0.27693707
20231225 03:46:31,1.293182,-0.296783,-1.179760,0.230824,0.110049,0.134846,4.432720,-14.740990,0.544983,-159.90712,0.13531762,-0.575209,-0.13120234,0.27210125,0.09583515,-0.22138584
20231225 03:46:31,1.498397,-0.451485,-1.394879,0.167969,0.087676,0.066664,4.184162,-14.941933,0.019745,-160.32788,0.10178614,-0.83367157,-0.17380959,0.17884085,0.07132977,-0.1389499
20231225 03:46:31,1.579468,-0.526586,-1.637343,0.098721,0.091938,-0.010041,4.309017,-15.129295,0.703072,-161.0517,-0.053154945,-0.95302045,-0.10880351,0.07634343,0.07528189,-0.04039308
20231225 03:46:31,1.431925,-0.404374,-1.723486,0.020951,0.123898,-0.087811,4.369579,-15.214241,0.307304,-159.46687,-0.23929638,-0.7320229,0.024680972,-0.033661887,0.111058444,0.073871315
20231225 03:46:31,1.093380,-0.152096,-1.608567,-0.051493,0.145205,-0.159190,4.386745,-14.640427,-0.265862,-156.64919,-0.4091105,-0.29486528,0.19135016,-0.14238876,0.13888253,0.17816249
20231225 03:46:31,0.594118,0.260548,-1.495866,-0.115414,0.172904,-0.206065,4.104893,-14.663261,-0.133202,-157.17143,-0.7055179,0.29215643,0.56145763,-0.23255825,0.17442353,0.25870526
20231225 03:46:31,0.012317,0.787039,-1.226976,-0.174008,0.199538,-0.212457,4.353455,-14.462311,0.392036,-155.48872,-0.9661617,0.88929343,0.9558219,-0.2905935,0.20303228,0.31401208
20231225 03:46:31,-0.581409,1.142054,-0.993335,-0.234733,0.201669,-0.158124,4.353455,-14.462311,0.392036,-155.26393,-1.2711389,1.18577,1.3605258,-0.30108505,0.19016728,0.3270912
20231225 03:46:31,-0.946153,1.352509,-0.694730,-0.295458,0.205930,-0.040936,4.007702,-14.574615,-0.273926,-157.3605,-1.3430965,1.2942795,1.4865261,-0.26302496,0.16647764,0.2945976
20231225 03:46:31,-0.862692,1.396100,-0.227883,-0.318895,0.234695,0.092233,3.831627,-14.399185,-0.287125,-158.99835,-0.92890453,1.3063736,1.1122773,-0.19159919,0.18577813,0.22016458
20231225 03:46:31,-0.481040,1.164854,0.421518,-0.281608,0.285831,0.192375,3.955715,-14.202774,-0.164749,-159.51909,-0.16660878,1.1001471,0.3202139,-0.108648375,0.2529504,0.120521754
20231225 03:46:31,-0.075699,0.817180,1.049131,-0.174008,0.322053,0.242447,3.858906,-14.306015,-0.025002,-161.05176,0.549692,0.7783296,-0.5313099,-0.0016397089,0.30617118,0.0066820234
20231225 03:46:31,0.223436,0.590108,1.544192,-0.018467,0.331641,0.250969,3.310184,-14.527954,-0.685822,-163.82004,1.0737808,0.5710869,-1.2009064,0.12644804,0.32730734,-0.109862424
20231225 03:46:31,0.395470,0.522926,1.677771,0.178622,0.331641,0.232858,3.418911,-13.963379,0.082222,-163.08667,1.3062798,0.5077981,-1.4045045,0.27752134,0.3316867,-0.20762606
20231225 03:46:31,0.293698,0.825672,1.460063,0.376777,0.350817,0.211552,3.092236,-14.461327,0.245453,-164.5074,1.1315608,0.7899219,-1.1004622,0.41384017,0.358003,-0.32543027
20231225 03:46:31,-0.070448,1.574662,0.927470,0.528056,0.378517,0.209421,3.658508,-13.857460,0.613579,-159.58414,0.480457,1.4882925,-0.17647567,0.49145687,0.40085387,-0.41872162
20231225 03:46:31,-0.559700,2.522786,0.353992,0.541906,0.333772,0.241381,3.049603,-14.186340,0.628990,-161.33377,-0.44155857,2.3682666,0.7321892,0.48545763,0.35809395,-0.49246684
20231225 03:46:31,-0.910383,2.906522,-0.258349,0.378908,0.182492,0.328740,3.217094,-14.648682,0.928780,-160.14247,-1.2407918,2.7662125,1.476493,0.45690084,0.1734555,-0.45061547
20231225 03:46:31,-0.597857,2.543284,-0.631247,0.121093,0.026952,0.487477,2.679905,-14.217415,0.895279,-163.68921,-1.0392466,2.5439436,1.2913976,0.4530114,2.7529895E-6,-0.38204563
20231225 03:46:32,0.762389,1.853045,-0.535080,-0.122871,-0.012466,0.597208,2.583099,-14.320663,1.035034,-167.41475,0.33098587,1.6972533,0.068576515,0.34897223,0.0652093,-0.30719915
20231225 03:46:32,2.363275,1.131618,-0.049914,-0.323157,0.094069,0.532221,2.169998,-13.692978,1.123924,-171.40839,1.9830257,0.5409156,-1.3688697,0.1025849,0.2645183,-0.1795664
20231225 03:46:32,3.280320,0.255054,0.960346,-0.492547,0.208061,0.312760,1.673260,-14.286758,0.353912,-173.1827,3.3045087,-0.41539493,-2.5303273,-0.22479296,0.3690453,0.020843297
20231225 03:46:32,3.038698,-0.928267,2.123163,-0.637434,0.244283,0.063468,2.018246,-13.790672,0.458931,-171.73164,3.5446043,-1.3033419,-3.2896295,-0.5338879,0.36579928,0.23790511
20231225 03:46:32,2.288910,-1.989791,3.249081,-0.703486,0.257067,-0.130425,1.930782,-13.990791,0.873032,-172.39948,3.11685,-2.1086693,-4.027273,-0.69919175,0.3273657,0.3765089
20231225 03:46:32,1.388472,-2.724193,4.305806,-0.648088,0.271982,-0.267855,1.674026,-14.670540,0.914848,-173.49133,2.3914783,-2.7307534,-4.7877355,-0.692362,0.28697604,0.44797647
20231225 03:46:32,0.290542,-3.092133,5.260801,-0.446737,0.242152,-0.352018,2.095322,-14.819435,0.258911,-171.71869,1.4780717,-3.1454947,-5.5781913,-0.5164113,0.21624924,0.47159785
20231225 03:46:32,-1.000054,-2.986696,5.702056,-0.115414,0.165447,-0.347756,1.487835,-14.014458,0.066345,-173.77777,0.48929513,-3.3234513,-5.5793324,-0.20048788,0.15863399,0.38068694
20231225 03:46:32,-2.011411,-2.442176,5.378711,0.241478,0.037605,-0.260398,2.042953,-14.255692,0.087616,-171.54741,-0.21440375,-3.189425,-4.834987,0.1536011,0.107952274,0.18030941
20231225 03:46:32,-2.595198,-1.639347,4.170078,0.521664,-0.128589,-0.118706,1.681458,-13.807961,-0.213150,-172.90646,-0.640615,-2.733572,-2.9789634,0.45018372,0.029444166,-0.11033952
20231225 03:46:32,-2.682980,-0.686706,2.445804,0.672944,-0.262823,0.069860,2.106094,-13.782448,0.325302,-169.75092,-0.9837791,-1.8101914,-0.77595973,0.65436816,-0.072519206,-0.44702852
20231225 03:46:32,-2.289989,0.165025,0.672612,0.676140,-0.359770,0.271211,1.815662,-14.092194,0.744545,-169.8397,-1.3882058,-0.5395121,0.975531,0.7574908,-0.2309351,-0.68608797
20231225 03:46:32,-1.522861,0.861449,-0.773559,0.515272,-0.449259,0.429948,1.869450,-13.522079,0.707863,-167.5105,-1.7237611,0.73268175,1.7688276,0.73680675,-0.43262255,-0.7276722
20231225 03:46:32,-0.458774,1.410649,-2.072921,0.213779,-0.439671,0.514110,1.402946,-13.656387,1.113899,-169.97076,-2.0686386,1.5273472,1.6541482,0.57489574,-0.46369138,-0.50202787
20231225 03:46:32,0.525264,1.466816,-2.616559,-0.159093,-0.310764,0.503457,1.279243,-14.044701,1.271988,-172.68452,-1.7524986,1.235662,1.1241646,0.30252087,-0.26319444,-0.17028202
20231225 03:46:32,1.123350,0.940037,-2.163249,-0.522377,-0.115805,0.424621,1.172699,-13.859192,0.856903,-174.05898,-0.71489626,0.65474254,0.7211524,-0.060423255,-0.035739124,0.08332759
20231225 03:46:32,0.982409,-0.209320,-0.514304,-0.741839,0.030148,0.315956,0.845642,-14.165237,0.739662,-176.17719,0.5193688,-0.2574317,-0.13842553,-0.43594646,0.06481863,0.15725634
20231225 03:46:32,0.384803,-1.214885,1.060606,-0.780191,0.096199,0.231793,0.484913,-14.101288,0.999840,-177.78952,0.81500626,-1.2170603,-1.1646713,-0.6059782,0.07756697,0.12929472
20231225 03:46:32,-0.095682,-1.998227,2.553935,-0.627846,0.058912,0.190245,0.429588,-13.903847,-0.085365,-178.14801,0.79719895,-2.0557463,-2.4378886,-0.5308752,0.015436357,0.030248925
20231225 03:46:32,-0.548661,-2.557390,3.175621,-0.326353,-0.032708,0.192375,-0.010021,-13.753105,0.302330,-179.92284,0.44202363,-2.678291,-2.8910215,-0.2573991,-0.06643134,-0.09147251
20231225 03:46:32,-0.690597,-2.856133,3.103056,0.058238,-0.123262,0.241381,0.217655,-14.108498,-0.074120,-179.10829,0.28879714,-2.9831226,-2.8211992,0.12728748,-0.12390894,-0.24979122
