Timestamp,linacce_x,linacce_y,linacce_z,gyro_x,gyro_y,gyro_z,X-magnetometer,Y-magnetometer,Z-magnetometer,Yaw, worldXAccel,worldYAccel,worldZAccel,worldXgyro,worldYgyro,worldZgyro
20231225 03:44:33,-1.632839,0.475759,2.679431,-0.756753,0.108983,-0.085681,-2.777905,-31.339386,-4.873886,171.6007,-0.080047965,-0.048244923,-1.4824755,-0.7015463,-0.0046535768,0.45055932
20231225 03:44:33,-1.511752,-0.056389,2.814301,-0.478698,0.012037,-0.098465,-2.361195,-30.083145,-4.817772,172.48668,0.06395066,-0.52683467,-1.6688962,-0.46493,-0.052061725,0.3205061
20231225 03:44:33,-1.291705,-0.288375,2.335453,-0.163354,-0.052949,-0.124033,-2.318176,-30.550018,-4.920837,172.6132,0.105177164,-0.6639359,-1.2869453,-0.19856551,-0.06471707,0.19544408
20231225 03:44:33,-1.077030,-0.256598,1.422681,0.129616,-0.046557,-0.134687,-2.283737,-31.303787,-4.737328,172.63785,-0.059341908,-0.5210374,-0.51675916,0.034704074,-0.01705276,0.040592454
20231225 03:44:33,-0.829027,-0.131360,0.340754,0.363993,0.047193,-0.125098,-2.317410,-30.933800,-4.359901,172.30775,-0.42903507,-0.25909373,0.26319373,0.20438138,0.10111428,-0.1335111
20231225 03:44:33,-0.642363,-0.089697,-0.406910,0.517403,0.121768,-0.109118,-2.052723,-31.484764,-3.919388,172.8361,-0.73706675,-0.12203957,0.7372787,0.30128372,0.1939623,-0.27505744
20231225 03:44:33,-0.633717,-0.024287,-1.005506,0.577062,0.163316,-0.071831,-2.202667,-30.640503,-4.511871,171.3051,-1.1430107,0.01714661,1.1568123,0.3450342,0.2379696,-0.36946988
20231225 03:44:33,-0.485036,-0.000399,-1.461136,0.569605,0.134552,-0.020694,-2.307293,-31.414444,-3.524597,171.64925,-1.3908858,0.10660655,1.3376222,0.35745502,0.1909908,-0.41758403
20231225 03:44:33,-0.287566,-0.025058,-1.881005,0.503553,0.074892,0.014462,-2.360699,-32.176445,-3.207451,171.82047,-1.5943491,0.12116468,1.4428116,0.33508074,0.11240732,-0.39592007
20231225 03:44:33,-0.047598,-0.096737,-2.213858,0.408737,-0.020989,0.033638,-2.112904,-31.591721,-3.243149,172.12209,-1.7440672,0.060382493,1.4154643,0.2830171,2.3092749E-4,-0.33817774
20231225 03:44:33,0.157464,-0.165063,-2.655611,0.274504,-0.100890,0.037900,-2.228027,-31.693115,-3.371643,171.61401,-2.0353625,-0.059098355,1.4465535,0.1972142,-0.09449961,-0.23446663
20231225 03:44:33,0.352102,-0.239502,-2.993084,0.116832,-0.136047,0.018723,-1.918514,-31.768997,-2.961700,173.14337,-2.253489,-0.261154,1.4296247,0.08134867,-0.13646269,-0.097119056
20231225 03:44:33,0.584649,-0.251758,-3.172528,-0.039774,-0.117936,-0.034544,-2.031837,-30.928436,-3.017693,172.90778,-2.2822084,-0.40425044,1.3298706,-0.056045175,-0.11807498,0.060507677
20231225 03:44:33,0.705559,-0.176016,-3.107799,-0.175073,-0.052949,-0.122968,-1.924644,-29.596306,-3.371529,172.82993,-2.1446288,-0.30058992,1.2035853,-0.20289876,-0.052914303,0.21718277
20231225 03:44:33,0.486368,0.000174,-2.689875,-0.278412,0.040801,-0.215653,-1.793392,-30.246834,-3.327759,173.09505,-1.8347744,0.093150854,1.2416568,-0.34175956,0.040821906,0.34821922
20231225 03:44:33,0.011594,0.211907,-2.058654,-0.345529,0.080219,-0.283835,-1.821438,-29.956230,-4.150826,171.81445,-1.5755397,0.4165171,1.2835145,-0.44578865,0.07884943,0.43791556
20231225 03:44:33,-0.506700,0.471081,-1.549847,-0.393470,0.069566,-0.307273,-1.873039,-29.776268,-3.761185,171.64357,-1.5357215,0.6199361,1.3580862,-0.49746922,0.06125549,0.488984
20231225 03:44:33,-0.881417,0.742634,-1.057085,-0.432888,0.003514,-0.287031,-1.220844,-28.204735,-4.929047,171.74239,-1.4783168,0.76015735,1.2858825,-0.5007916,-0.017250855,0.50938225
20231225 03:44:33,-1.150146,0.906491,-0.730863,-0.472305,-0.092367,-0.245483,-1.275669,-30.100594,-4.403923,172.63553,-1.476711,0.8020042,1.2465477,-0.48342055,-0.12960002,0.5156541
20231225 03:44:33,-1.395126,1.091736,-0.489377,-0.500004,-0.196771,-0.180497,-1.374668,-30.953911,-4.617149,172.35808,-1.5255959,0.88203263,1.2261672,-0.43986428,-0.24983504,0.49837565
20231225 03:44:33,-1.350136,1.146666,-0.346087,-0.512789,-0.276673,-0.112314,-1.374283,-31.145805,-4.336678,173.12868,-1.389318,0.94411635,1.0913057,-0.39750814,-0.33674034,0.4618358
20231225 03:44:33,-1.065511,1.105942,-0.167614,-0.476567,-0.306502,-0.093138,-1.419876,-31.237122,-4.867050,173.1984,-1.0281426,0.96203184,0.763014,-0.36706007,-0.35394827,0.4227811
20231225 03:44:33,-0.764017,1.199977,-0.045949,-0.373228,-0.273477,-0.122968,-1.384018,-30.857048,-4.891502,173.54013,-0.71053904,1.1039686,0.46944365,-0.32193506,-0.2986137,0.37008142
20231225 03:44:33,-0.660675,1.414526,-0.117988,-0.230471,-0.178661,-0.168778,-1.207558,-31.224358,-4.597832,174.20311,-0.7070073,1.3362894,0.45091313,-0.26057577,-0.18314986,0.29457417
20231225 03:44:33,-0.771823,1.663266,-0.163742,-0.093042,-0.059342,-0.201804,-1.438572,-31.043388,-5.415771,172.26266,-0.8736776,1.5568141,0.5147324,-0.19956978,-0.04315369,0.21103668
20231225 03:44:33,-0.977477,1.873213,-0.220132,-0.006748,0.038670,-0.207130,-0.953373,-31.102806,-5.273087,173.3147,-1.1254749,1.7158681,0.7106657,-0.15764752,0.069653936,0.1431445
20231225 03:44:33,-1.252862,1.957923,-0.157055,0.008167,0.078088,-0.175170,-1.411297,-30.950211,-5.153641,171.83328,-1.3295475,1.7098112,0.8083861,-0.12918061,0.10782595,0.10783748
20231225 03:44:33,-1.480734,1.803166,0.226365,-0.017402,0.016298,-0.122968,-1.198978,-30.937454,-4.884415,172.94174,-1.2495708,1.4224887,0.6872246,-0.09682143,0.034208495,0.09946931
20231225 03:44:34,-1.581386,1.499747,0.544683,-0.037643,-0.101955,-0.053720,-0.980267,-31.387863,-5.254745,173.81044,-1.0839806,1.0803847,0.50769424,-0.046433527,-0.09726958,0.07329157
20231225 03:44:34,-1.310426,1.131218,0.822095,-0.046166,-0.250039,-0.011106,-1.138794,-30.830513,-5.560646,173.9314,-0.6447914,0.8136929,0.10061699,-0.012219603,-0.25089487,0.05821095
20231225 03:44:34,-0.898240,0.799302,0.846931,-0.019532,-0.403449,-0.022825,-0.901768,-31.282768,-5.662743,175.35233,-0.25215143,0.6129286,-0.15089911,0.0070239995,-0.3993572,0.055528667
20231225 03:44:34,-0.422236,0.480059,0.536107,0.034800,-0.482285,-0.063308,-1.182850,-31.689384,-4.969139,175.73312,-0.017903864,0.4205801,-0.17719755,0.013634879,-0.4746741,0.055008054
20231225 03:44:34,0.025227,0.248087,0.136412,0.116832,-0.442867,-0.135752,-0.935444,-30.912766,-5.285316,176.93102,0.100531735,0.24578223,-0.1318602,0.014062576,-0.43687528,0.049742382
20231225 03:44:34,0.405160,0.144224,-0.046099,0.225498,-0.293718,-0.242287,-0.970917,-31.484741,-4.980392,177.46895,0.2806336,0.14079241,-0.23121606,0.013929009,-0.29702026,0.049221247
20231225 03:44:34,0.601272,0.350429,-0.081575,0.348013,-0.050819,-0.372259,-0.750404,-30.993179,-5.278229,178.06949,0.4053238,0.34310138,-0.33990473,0.019952774,-0.058077075,0.055736855
20231225 03:44:34,0.463018,0.576254,0.204878,0.472658,0.191015,-0.518212,-0.652828,-31.273712,-4.857033,177.75089,0.4725418,0.5828726,-0.4743701,0.016322106,0.21306671,0.078374565
20231225 03:44:34,-0.007411,0.941200,0.822392,0.600500,0.335903,-0.660969,0.020374,-31.047234,-3.793350,178.9695,0.4590733,0.87888736,-0.63490504,0.009317666,0.42786524,0.11049521
20231225 03:44:34,-0.756454,1.443035,1.427836,0.710231,0.332707,-0.763242,0.284290,-31.214439,-3.913780,178.77234,0.16063583,1.135848,-0.61704373,0.012189329,0.52092206,0.113105625
20231225 03:44:34,-1.433895,2.042553,1.914006,0.778413,0.178231,-0.819705,0.584454,-31.193443,-3.778191,179.0623,-0.16536748,1.4197288,-0.5050057,0.02582401,0.44365114,0.09433502
20231225 03:44:34,-1.900151,2.716624,1.940427,0.802916,-0.059342,-0.833555,1.008701,-30.976044,-3.520226,179.63107,-0.6422297,1.7475164,-0.05663371,0.026422918,0.30012372,0.028632283
20231225 03:44:34,-2.377871,3.591799,1.603032,0.776283,-0.267084,-0.725955,1.742470,-30.834518,-2.852303,-178.06822,-1.416693,2.3596456,0.8012898,0.07773107,0.12949401,-0.10728878
20231225 03:44:34,-2.506262,4.336308,0.894254,0.656964,-0.393861,-0.505428,1.652821,-31.784714,-2.791176,-178.42366,-2.1798248,3.1534452,1.5268049,0.14570582,-0.057764694,-0.22394326
20231225 03:44:34,-2.279019,5.032977,0.318473,0.434306,-0.426887,-0.224176,2.112926,-31.187218,-2.557648,-175.99542,-2.5455744,4.1291947,1.907926,0.1984927,-0.2418079,-0.25155818
20231225 03:44:34,-1.745775,5.026564,-0.106885,0.109375,-0.359770,0.037900,1.813152,-31.400101,-2.412773,-176.09933,-2.2858026,4.544576,1.7033287,0.17910519,-0.33525386,-0.12558335
20231225 03:44:34,-1.126115,4.380816,0.114246,-0.250713,-0.228732,0.250969,1.927891,-31.106812,-2.564743,-175.32793,-1.3120126,4.127344,1.0413831,0.07961795,-0.2962179,0.0353408
20231225 03:44:34,-0.635504,3.086074,1.054520,-0.528769,-0.087041,0.428882,1.743237,-31.218292,-2.291359,-176.04167,-0.017355382,2.887712,-0.14371943,-0.06489295,-0.18125308,0.06720486
20231225 03:44:34,-0.482346,1.649180,1.962889,-0.701355,0.017364,0.584423,1.591484,-31.315994,-2.956345,-176.9699,0.661464,1.4528753,-1.2133653,-0.21670687,-0.09070043,-0.047993958
20231225 03:44:34,-0.452351,0.054523,2.814247,-0.815348,0.050389,0.717592,0.903316,-31.366203,-3.093887,-178.73695,0.9248442,-0.1262541,-2.2624846,-0.38245568,-0.060160343,-0.24458447
20231225 03:44:34,-0.394626,-1.523939,3.609918,-0.851569,0.051455,0.762337,0.593418,-31.098419,-3.784302,-179.3841,0.85069156,-1.6389035,-3.2940457,-0.55516326,-0.02941646,-0.43893278
20231225 03:44:34,-0.113565,-3.041083,4.377917,-0.797237,-0.164811,0.755944,0.168781,-31.123947,-4.322754,179.962,0.84977126,-3.0836616,-4.2510757,-0.61635983,-0.20557734,-0.5684833
20231225 03:44:34,0.177538,-4.114113,4.779715,-0.563925,-0.422625,0.628103,0.071590,-31.035309,-4.463470,179.96082,0.8703363,-4.123701,-4.753287,-0.46721262,-0.43591014,-0.5408384
20231225 03:44:34,0.285371,-4.632617,4.551725,-0.163354,-0.643152,0.465104,-0.228191,-31.248192,-4.318588,179.5407,0.8957629,-4.633757,-4.5119085,-0.09916124,-0.6439482,-0.43385506
20231225 03:44:34,0.440896,-4.456716,3.473218,0.316052,-0.717727,0.339393,-0.801620,-31.005112,-4.608101,178.6046,1.0847372,-4.4518375,-3.3856962,0.3729154,-0.72196877,-0.37654802
20231225 03:44:34,0.634056,-3.937189,1.916405,0.785871,-0.618649,0.295714,-0.803421,-31.947075,-4.680603,178.90932,1.0934377,-3.9351022,-1.9454019,0.8282021,-0.65280163,-0.49558485
20231225 03:44:34,0.809562,-3.467104,0.385654,1.159808,-0.415168,0.311694,-1.037109,-31.320404,-3.384125,178.58269,0.75005543,-3.5096984,-0.59808105,1.1697136,-0.51142895,-0.73934394
20231225 03:44:34,0.967240,-3.179087,-0.289049,1.361159,-0.205294,0.363896,-1.246471,-30.966858,-2.739433,178.35333,0.35696954,-3.3052282,-0.1879587,1.3243091,-0.38208058,-1.0227891
20231225 03:44:34,1.519016,-2.374188,-1.936815,1.339852,-0.067864,0.411837,-1.484917,-31.648460,-2.429375,178.31963,-0.4710697,-3.0000792,0.57671314,1.2686735,-0.30187625,-1.1698267
20231225 03:44:34,1.950179,-1.966565,-2.732022,1.116129,-0.016728,0.432079,-1.244553,-31.926300,-1.337074,178.55756,-0.9486364,-3.208614,0.60206115,1.0615578,-0.22732088,-1.0921967
20231225 03:44:34,2.358403,-1.842955,-3.056473,0.734734,-0.017793,0.395857,-1.621788,-30.918541,-1.272636,177.92442,-0.8904175,-3.5520892,0.5076102,0.7507292,-0.13515025,-0.8007517
20231225 03:44:34,2.638382,-1.818899,-3.038313,0.281961,-0.081714,0.297845,-2.045277,-31.519722,-0.969673,176.76997,-0.5737499,-3.692706,0.41110528,0.3463964,-0.065993726,-0.40646243
20231225 03:44:34,2.710700,-1.843510,-2.946154,0.055042,-0.111544,0.236055,-1.930534,-31.226440,-1.121635,177.1176,-0.28310478,-3.5897837,0.4661318,0.13984226,-0.03862331,-0.20854123
20231225 03:44:34,2.545961,-1.988033,-2.142049,-0.493612,-0.105152,0.044292,-2.073318,-31.229118,-1.792747,177.0962,0.3480116,-3.1520338,0.23405957,-0.39312172,0.07137512,0.26878628
20231225 03:44:34,2.223731,-2.060628,-1.107117,-0.609735,-0.078518,-0.017498,-1.791473,-31.206276,-1.925400,177.40213,0.9545084,-2.7075214,-0.2032066,-0.5335586,0.07612566,0.34932563
20231225 03:44:34,1.862185,-2.119564,-0.163431,-0.726924,0.012037,-0.206065,-2.109566,-31.417305,-2.048759,176.45068,1.3015679,-2.4383824,-0.67618674,-0.7287674,0.12670267,0.5409303
20231225 03:44:34,1.423476,-2.069489,0.521620,-0.657676,0.094069,-0.325384,-2.012753,-31.314056,-2.188507,176.33974,1.3588678,-2.1896405,-1.0205284,-0.7254043,0.15246125,0.5938827
20231225 03:44:34,1.153438,-1.997483,0.879925,-0.493612,0.167578,-0.441507,-1.370945,-30.971397,-3.142288,177.34126,1.3795979,-2.0275624,-1.2406923,-0.6395179,0.1797949,0.6160326
20231225 03:44:34,0.179864,-1.460583,1.581695,-0.388143,0.194211,-0.485186,-1.334320,-30.975090,-2.605797,176.85542,0.96571994,-1.4769633,-1.3882914,-0.58122456,0.19165266,0.6043925
20231225 03:44:34,-0.473878,-0.950488,1.685855,-0.048297,0.220845,-0.530996,-0.833370,-31.594551,-2.828323,177.4749,0.54054487,-1.0774345,-1.1398816,-0.33340397,0.24421586,0.46688482
20231225 03:44:34,-1.040000,-0.483968,1.557820,0.150923,0.194211,-0.481990,-0.682774,-30.921188,-3.004745,177.19981,0.057852864,-0.7634265,-0.67419404,-0.16286972,0.25690904,0.303542
20231225 03:44:34,-1.448717,-0.089875,1.198466,0.309660,0.148401,-0.370129,-0.603508,-31.199860,-2.851799,177.06049,-0.42908138,-0.48348576,-0.06857461,0.0076054186,0.2441998,0.09985235
20231225 03:44:34,-1.556833,0.144290,0.705985,0.410868,0.101526,-0.226307,-0.399773,-31.474014,-2.295990,177.78583,-0.7776686,-0.21303268,0.44682986,0.1611645,0.19805463,-0.09132278
20231225 03:44:34,-1.283301,0.175321,0.184453,0.440698,0.069566,-0.154928,0.087616,-30.783356,-1.800346,179.34615,-0.84791905,-0.02546353,0.72687864,0.21441138,0.14767024,-0.1830397
20231225 03:44:34,-0.823165,0.148907,-0.405572,0.443894,-0.040165,0.009135,-0.618099,-31.215492,-1.645180,177.77194,-0.8793319,0.11168392,0.86481106,0.32349485,-0.002212702,-0.31951302
20231225 03:44:34,-0.546415,0.101437,-0.715981,0.388496,-0.091302,0.067730,-0.142246,-31.178040,-1.776863,179.29518,-0.9007566,0.11040878,0.8849851,0.31505123,-0.0793068,-0.3323617
20231225 03:44:34,0.142125,-0.075084,-1.585909,0.304333,-0.095563,0.090102,-0.450993,-31.485947,-1.625870,178.71114,-1.1262579,-0.0949716,0.90903294,0.26320875,-0.09747043,-0.28988016
20231225 03:44:34,0.526520,-0.169521,-1.927052,0.208452,-0.048688,0.079448,-0.529869,-31.399147,-1.498344,178.76308,-1.1739626,-0.3249146,0.8033937,0.18933879,-0.054409534,-0.21140638
20231225 03:44:34,0.805265,-0.251756,-2.075125,0.157315,-0.012466,0.060272,-0.635262,-31.789314,-1.072006,178.52806,-1.1099327,-0.51880974,0.6922249,0.144571,-0.019077629,-0.15976273
20231225 03:44:34,0.902919,-0.268665,-2.002617,-0.006748,0.094069,-0.030283,-0.335480,-31.576431,-1.216896,179.44498,-0.95426816,-0.51682866,0.61100376,-0.018788313,0.091190584,0.02416619
20231225 03:44:34,0.796745,-0.227564,-1.616719,-0.084519,0.147336,-0.079289,-0.291042,-30.909439,-1.527931,179.504,-0.67462516,-0.36371663,0.49438518,-0.10668358,0.14670709,0.11501116
20231225 03:44:34,0.594200,-0.196092,-1.262360,-0.115414,0.189950,-0.102726,-0.441643,-31.582809,-1.351509,178.90918,-0.50480646,-0.23926638,0.44646436,-0.14949052,0.19003282,0.15189177
20231225 03:44:34,0.331947,-0.220505,-0.838330,-0.106891,0.225106,-0.109118,-0.044670,-31.458572,-1.355667,179.82292,-0.34449297,-0.20708416,0.3694815,-0.15525371,0.22506925,0.15225033
20231225 03:44:34,0.034196,-0.200557,-0.464427,-0.069604,0.227237,-0.096334,-0.247639,-31.568199,-1.350533,179.16005,-0.28303495,-0.18045779,0.3186926,-0.12543975,0.22770768,0.11548894
20231225 03:44:34,-0.154304,-0.121864,-0.219873,-0.000356,0.204865,-0.064374,0.015900,-31.543510,-1.751434,179.73439,-0.25659877,-0.11918923,0.2666525,-0.053154435,0.20731975,0.046861984
20231225 03:44:34,-0.117133,-0.043829,-0.248599,0.074218,0.160120,-0.032413,-0.045055,-31.266685,-1.636139,179.64398,-0.2548263,-0.039039344,0.26060188,0.025114857,0.16397756,-0.028772755
20231225 03:44:34,0.051019,0.005023,-0.576419,0.118963,0.110049,-0.018564,-0.062214,-31.840500,-1.062965,179.73189,-0.37881583,0.021025268,0.36395183,0.06653485,0.11339588,-0.07298222
20231225 03:44:34,0.185655,0.142248,-0.915715,0.113636,0.059977,-0.005780,-0.219975,-31.666916,-0.807930,179.34843,-0.56081617,0.1553819,0.47053456,0.070671804,0.0612744,-0.08134518
20231225 03:44:34,0.339394,0.253897,-1.229091,0.073153,0.016298,0.005939,-0.317169,-31.578278,-0.948654,179.10742,-0.7175993,0.24045223,0.5312288,0.05188759,0.015802259,-0.05987892
20231225 03:44:34,0.525119,0.394647,-1.286495,0.024147,-0.018858,0.004874,0.158684,-31.540833,-1.080330,-179.38322,-0.6437175,0.33456498,0.416049,0.018465003,-0.01936123,-0.021859037
20231225 03:44:34,0.699341,0.581739,-1.368657,-0.018467,-0.006074,-0.023890,0.116047,-31.265846,-0.696793,-179.52515,-0.58209264,0.48492423,0.33226603,-0.03044342,-0.006489971,0.02940575
20231225 03:44:34,0.791069,0.689656,-1.156367,-0.024859,0.054651,-0.070766,0.070457,-31.357170,-1.227173,-179.51297,-0.3490826,0.58428514,0.12681329,-0.067173585,0.051617373,0.06443183
20231225 03:44:34,0.783748,0.935924,-0.941717,0.001774,0.150532,-0.143209,-0.220745,-31.283142,-1.368874,179.55191,-0.17935371,0.87068635,5.543232E-5,-0.10240608,0.14453943,0.089920014
20231225 03:44:34,0.706766,1.023461,-0.760796,0.026277,0.198473,-0.177301,-0.069378,-30.993553,-0.984360,179.77113,-0.1238296,1.03211,-0.043826133,-0.1187278,0.19973537,0.0949665
20231225 03:44:34,0.150095,1.356753,-0.304564,0.107244,0.301811,-0.229503,0.158298,-31.348938,-1.360809,-179.82153,-0.20354953,1.376702,0.0895185,-0.11848768,0.31840277,0.070402764
20231225 03:44:34,-0.284336,1.491786,-0.058060,0.141335,0.322053,-0.196477,0.316830,-31.906303,-1.054901,-179.48204,-0.37016925,1.462305,0.2605711,-0.08271363,0.34945947,0.025879912
20231225 03:44:34,-0.518822,1.466447,0.137462,0.157315,0.327380,-0.113380,0.176613,-31.350792,-1.092560,-179.91962,-0.39641345,1.3925596,0.28896642,-0.0078609735,0.3498798,-0.0382025
20231225 03:44:34,-0.383290,1.270040,0.364595,0.173296,0.314596,-0.013237,0.265228,-31.726341,-0.665245,-179.47227,-0.09615475,1.2130669,0.02736348,0.09001228,0.32573646,-0.11263171
20231225 03:44:34,0.026358,0.933808,0.506311,0.193537,0.293289,0.063468,0.398281,-31.434906,-0.548981,-179.02478,0.3468853,0.920791,-0.37050146,0.17555523,0.2966064,-0.17666286
20231225 03:44:34,0.266645,0.731842,0.548819,0.206321,0.282635,0.083710,0.505207,-31.812302,0.146568,-178.75354,0.5699728,0.73158294,-0.5704174,0.20720252,0.28276554,-0.19803739
20231225 03:44:34,1.000934,0.189238,0.523208,0.240412,0.276243,0.064533,0.626724,-32.174072,-0.364487,-178.42972,1.104658,0.15684296,-1.051903,0.23701161,0.26451322,-0.20224002
20231225 03:44:34,1.179508,0.060719,0.536191,0.255327,0.261328,0.009135,0.717144,-31.607651,0.135323,-178.34334,1.2459298,-0.0021646135,-1.1744295,0.21899535,0.23805963,-0.16778915
20231225 03:44:34,1.581851,-0.272007,0.595475,0.247870,0.249609,-0.072896,0.135132,-31.651474,0.132393,-179.72952,1.5675168,-0.38652688,-1.4719461,0.16653073,0.21375239,-0.10201499
20231225 03:44:34,1.793089,-0.292686,0.602456,0.243608,0.241087,-0.182627,0.259216,-31.455063,0.254776,-179.49577,1.7225847,-0.4517413,-1.6182444,0.095982686,0.18728822,-0.01575324
20231225 03:44:34,1.908334,-0.259631,0.593940,0.250001,0.253871,-0.247614,0.575508,-32.185997,0.305634,-178.79272,1.7976674,-0.42811248,-1.7032074,0.055951,0.19307786,0.027213067
20231225 03:44:34,1.934158,-0.019308,0.690493,0.291549,0.301811,-0.403154,0.541832,-31.816002,0.683067,-178.9798,1.888137,-0.1702108,-1.811866,-0.020271584,0.22202152,0.10626678
20231225 03:44:34,1.726041,0.887857,0.754643,0.338424,0.385974,-0.554434,1.035618,-31.588509,0.539154,-177.18037,1.7083087,0.86627495,-1.782855,-0.19948941,0.35975286,0.10395262
20231225 03:44:34,1.081813,2.422447,0.683402,0.334163,0.450960,-0.642858,1.654259,-31.548378,1.078575,-175.10971,1.1451775,2.424091,-1.1513609,-0.32571548,0.4685817,0.13651343
20231225 03:44:34,0.084215,4.111464,0.381862,0.234020,0.492509,-0.621551,1.626595,-31.449661,0.535973,-174.21547,-0.34368244,3.970004,-0.05325699,-0.47746122,0.6140291,0.15457204
20231225 03:44:34,-1.246893,5.546598,0.235872,0.043323,0.492509,-0.464945,1.733521,-31.827057,1.231522,-173.28847,-2.320341,4.759957,1.2719555,-0.4978845,0.61537504,0.24545938
20231225 03:44:34,-2.203346,5.742998,0.597555,-0.289066,0.376386,-0.112314,1.918175,-31.715584,0.958145,-173.6686,-2.7427962,4.5249295,1.776551,-0.37768337,0.30979508,0.3227414
20231225 03:44:34,-2.574114,4.886005,1.277195,-0.380686,0.311400,0.001678,2.120758,-31.414070,0.672539,-173.65167,-2.1636074,3.5217385,1.5143906,-0.33303055,0.19517057,0.31378838
20231225 03:44:34,-1.910217,3.070037,2.296662,-0.501070,0.170774,0.257361,1.936104,-31.525543,0.945915,-174.78906,-0.44415832,2.1571746,-0.15533745,-0.22693776,0.018512912,0.16767965
20231225 03:44:34,-1.454256,1.884073,2.689314,-0.439280,0.166512,0.348981,1.786926,-31.065048,0.914375,-175.45032,0.19958043,1.1392877,-1.0746601,-0.15825899,0.024307828,0.011769652
20231225 03:44:34,-1.461178,0.488905,2.783309,-0.379620,0.187819,0.395857,1.423626,-31.559288,0.541107,-176.73976,0.17076099,-0.21707037,-1.5147793,-0.13611752,0.047263194,-0.11640298
20231225 03:44:34,-1.493615,-0.261312,2.693735,-0.240060,0.230433,0.516241,1.299919,-31.947601,0.699196,-177.05325,0.042161584,-0.9135848,-1.5954841,0.013008043,0.10651426,-0.31635433
20231225 03:44:34,-1.340552,-1.645395,2.541616,-0.115414,0.228302,0.633429,0.858776,-31.029297,-0.034988,-178.3003,0.007127166,-2.1182115,-1.7657351,0.13822831,0.13849515,-0.5166041
20231225 03:44:34,-0.982098,-2.518897,2.258681,-0.017402,0.137748,0.729311,0.294041,-32.400734,0.718765,-179.18854,0.12946415,-2.8139849,-1.7420988,0.24814229,0.07802145,-0.66500765
20231225 03:44:34,-0.572794,-3.373580,1.740387,0.059303,0.031213,0.790036,0.013229,-31.097816,0.362984,-179.86964,0.17689162,-3.5005882,-1.4690467,0.307144,0.0011477992,-0.7667204
20231225 03:44:34,-0.192508,-4.121361,1.306110,0.113636,-0.092367,0.806016,-0.384781,-32.547806,0.855591,179.4776,0.3078453,-4.1570864,-1.1636055,0.33657306,-0.10481152,-0.80470234
20231225 03:44:34,0.184334,-4.545006,0.970510,0.143466,-0.252170,0.780447,-0.770985,-31.635056,0.926132,178.64426,0.49717957,-4.5440273,-0.88039905,0.3522485,-0.25530493,-0.784199
20231225 03:44:34,0.713687,-4.590879,0.380466,0.155185,-0.398122,0.712265,-1.035286,-31.275963,0.766098,177.88206,0.66538966,-4.620897,-0.43754745,0.37238187,-0.38854977,-0.70876205
20231225 03:44:34,1.278694,-4.373337,-0.313194,0.171165,-0.403449,0.532221,-1.573509,-32.170433,1.221031,176.48163,0.59990656,-4.545542,-0.048966765,0.3471966,-0.37688926,-0.5297054
20231225 03:44:34,2.084243,-3.395154,-1.514497,0.144531,-0.238320,0.334067,-1.458771,-31.877151,1.069061,176.3128,0.31457192,-3.9965558,0.22451091,0.26195407,-0.20693709,-0.34350318
20231225 03:44:34,2.171930,-2.923329,-1.735628,0.116832,-0.132851,0.230728,-2.180229,-31.749245,1.589417,174.13295,0.03745866,-3.6291666,0.16171336,0.20475279,-0.1088904,-0.24062115
20231225 03:44:34,2.015208,-1.852506,-2.172452,-0.008879,0.117506,0.036834,-1.404980,-31.307030,1.032387,175.72165,-0.52754724,-2.5469744,0.078851104,0.042228445,0.12206469,-0.024290495
20231225 03:44:34,1.535549,-1.026372,-2.133913,-0.340202,0.477594,-0.184758,-1.828846,-31.716331,1.054886,175.02869,-0.6356456,-1.142058,0.294536,-0.3464446,0.48085526,0.35034186
20231225 03:44:34,0.830505,-0.496714,-1.590206,-0.471240,0.570279,-0.242287,-1.874439,-31.807648,0.524506,175.16843,-0.59685504,-0.4306885,0.4862224,-0.51277363,0.56457925,0.47811294
20231225 03:44:34,-0.021363,-0.111649,-0.609880,-0.736512,0.710905,-0.322188,-1.344799,-31.200089,0.356148,176.86792,-0.4136287,-0.046918437,0.46500272,-0.8327043,0.6512194,0.70865923
20231225 03:44:34,-1.050364,0.152815,0.827884,-0.948516,0.716232,-0.332841,-1.311127,-31.570084,-0.021278,177.14398,-0.38727143,-0.19934013,-0.04050362,-1.0635693,0.5461081,0.8051374
20231225 03:44:35,-2.499276,0.021023,3.165842,-1.003914,0.475463,-0.168778,-1.047592,-31.545403,-0.422180,177.65921,-0.7350757,-1.1406317,-1.5597079,-1.027951,0.20302819,0.6163418
20231225 03:44:35,-2.758095,-0.116607,3.753000,-0.933601,0.341229,-0.081419,-1.321629,-30.897552,-1.137047,176.6118,-0.81670284,-1.4124618,-2.0744162,-0.91504484,0.07584475,0.47933912
20231225 03:44:35,-2.927785,-0.427456,4.408461,-0.678983,0.042932,0.100755,-0.969093,-31.440292,-0.830170,177.61038,-0.7593092,-1.7703853,-2.6837885,-0.5757527,-0.15536502,0.20203814
20231225 03:44:35,-2.555831,-0.716057,3.976188,-0.348725,-0.168007,0.271211,-1.684929,-31.391785,-1.510315,175.8073,-0.5177481,-1.7917378,-2.3825254,-0.1774573,-0.27948996,-0.077687725
20231225 03:44:35,-1.780406,-0.881348,2.895559,-0.030186,-0.250039,0.406510,-1.878933,-31.406395,-1.511292,175.4163,-0.10244167,-1.5068011,-1.6067634,0.1914249,-0.29268658,-0.32281166
20231225 03:44:35,-0.829450,-1.038366,1.602454,0.208452,-0.213817,0.476823,-1.675579,-31.488655,-1.235962,176.04416,0.18156844,-1.2409495,-0.8807682,0.43733138,-0.22105971,-0.50242376
20231225 03:44:35,0.224631,-1.359000,0.268127,0.424718,-0.066799,0.441667,-2.494232,-31.272110,-0.856323,174.30453,0.36195478,-1.3572801,-0.23633346,0.60168207,-0.063637696,-0.59764075
20231225 03:44:35,0.494720,-1.388931,-0.060848,0.458809,-0.020989,0.402249,-2.133118,-31.527954,-0.836029,175.13135,0.3736557,-1.3849127,-0.14362344,0.60740924,-0.019738326,-0.59174013
20231225 03:44:35,0.726818,-1.439152,-0.546904,0.475854,0.025886,0.303171,-2.712559,-31.013596,-0.205521,173.67017,0.24071005,-1.4409615,0.11325374,0.56204116,0.025503283,-0.5312715
20231225 03:44:35,0.682503,-1.383432,-0.875803,0.448155,0.010971,0.207290,-2.721523,-31.108612,-0.199409,173.5488,-0.019891858,-1.3836367,0.36869067,0.47884715,0.010930091,-0.44286382
20231225 03:44:35,0.639906,-1.422701,-1.062562,0.411933,-0.044427,0.124193,-2.651226,-31.482307,-0.040337,173.69641,-0.18715787,-1.406961,0.51049745,0.39483827,-0.04131714,-0.35690355
20231225 03:44:35,0.560100,-1.410975,-1.392344,0.385300,-0.100890,0.050684,-2.693481,-31.399223,0.623672,173.54222,-0.49999273,-1.3727009,0.7594494,0.3203251,-0.09388153,-0.28892508
20231225 03:44:35,0.445631,-1.260430,-1.649220,0.357601,-0.129655,-0.005780,-2.766350,-31.583710,-0.168839,172.871,-0.8268106,-1.2063004,0.94337314,0.250577,-0.120405585,-0.23899604
20231225 03:44:35,0.419631,-1.098176,-1.976718,0.317118,-0.120066,-0.053720,-2.799637,-31.405594,0.489059,172.63916,-1.1480201,-1.0122182,1.0929067,0.17646356,-0.10773656,-0.18988921
20231225 03:44:35,0.338526,-0.889777,-2.210466,0.260654,-0.069995,-0.097399,-2.666584,-31.114166,0.605331,172.71066,-1.433106,-0.7483239,1.2088869,0.095226005,-0.052324537,-0.13357526
20231225 03:44:35,0.137907,-0.693730,-2.318283,0.174361,0.018429,-0.121902,-2.799252,-31.597488,0.769531,172.7012,-1.6214676,-0.44499087,1.4065753,0.015163548,0.044729393,-0.059719414
20231225 03:44:35,-0.119472,-0.582398,-2.024951,0.071022,0.066370,-0.128295,-2.517406,-31.574654,0.636871,173.69868,-1.51137,-0.3324,1.4531945,-0.05717028,0.089368664,0.025338281
20231225 03:44:35,-0.335178,-0.594954,-1.736980,-0.048297,0.081284,-0.118706,-2.586933,-31.584724,1.038750,174.16696,-1.3821007,-0.38610643,1.4765028,-0.12897824,0.08989768,0.11073523
20231225 03:44:35,-0.481353,-0.678141,-1.189715,-0.150570,0.049324,-0.108053,-2.420208,-31.663292,0.777596,174.69041,-1.0596876,-0.57503176,1.2386264,-0.18887411,0.041437954,0.17818782
20231225 03:44:35,-0.552134,-0.711360,-0.681584,-0.225145,-0.027381,-0.101661,-2.232983,-30.993622,1.137657,175.36942,-0.76871085,-0.6937094,0.91851103,-0.23234051,-0.046312653,0.22550863
20231225 03:44:35,-0.573709,-0.840311,-0.263092,-0.252844,-0.124328,-0.116576,-2.474384,-32.041512,0.533798,174.79482,-0.5203577,-0.87737453,0.6210795,-0.2561851,-0.14432847,0.25669855
20231225 03:44:35,-0.565358,-0.886579,-0.040862,-0.224079,-0.221274,-0.146405,-2.677353,-32.151146,0.538940,174.4073,-0.37093616,-0.9475162,0.44919145,-0.24060315,-0.23308593,0.2699678
20231225 03:44:35,-0.642549,-0.770148,0.024995,-0.165485,-0.290522,-0.183693,-2.138744,-31.448563,0.364471,175.35657,-0.39185047,-0.85518867,0.43225157,-0.2068111,-0.2877002,0.26471114
20231225 03:44:35,-0.774538,-0.498212,-0.087191,-0.082388,-0.327809,-0.199673,-2.305088,-31.561890,0.906090,175.25665,-0.5705699,-0.60069376,0.6039804,-0.14348873,-0.30523595,0.22483149
20231225 03:44:35,-0.865233,-0.086917,-0.506724,0.039062,-0.254300,-0.152798,-2.129398,-31.545433,0.638824,175.33534,-0.954936,-0.14749837,0.9663371,-0.034889564,-0.2181485,0.09896716
20231225 03:44:35,-0.815655,-0.030296,-0.575022,0.060369,-0.221274,-0.127229,-1.995956,-31.445885,1.035568,175.73564,-0.97394425,-0.06577426,0.98120147,-0.0135104135,-0.19125868,0.060791478
20231225 03:44:35,-0.524566,0.013524,-0.534685,0.080610,-0.188249,-0.093138,-2.014271,-31.444038,0.767326,175.37886,-0.7462025,0.012979675,0.74700665,0.012700088,-0.16824265,0.021125011
20231225 03:44:35,-0.186823,0.060918,-0.428939,0.068891,-0.213817,-0.084615,-2.022850,-31.730942,1.053909,175.3843,-0.43585643,0.07732558,0.43313968,0.005707942,-0.20176503,0.024692453
20231225 03:44:35,0.082876,0.088068,-0.358392,0.030539,-0.285195,-0.114445,-2.014656,-31.252144,0.486847,175.02718,-0.19542232,0.10827014,0.19130084,-0.045067873,-0.27787533,0.077616364
20231225 03:44:35,0.255047,0.426792,-0.279438,-0.024859,-0.402384,-0.174105,-1.925659,-31.819572,1.194626,175.31467,-0.045895904,0.4462167,-0.019680426,-0.128364,-0.39599165,0.15919974
20231225 03:44:35,0.243586,0.704847,-0.377331,-0.095172,-0.490808,-0.247614,-1.989563,-31.909050,0.396011,174.89491,-0.14799094,0.73274225,0.0316018,-0.22244726,-0.48183993,0.26616454
20231225 03:44:35,0.004058,1.083323,-0.405965,-0.163354,-0.522768,-0.299816,-1.538036,-31.598473,0.916115,176.17773,-0.38013974,1.1079861,0.21599102,-0.29428005,-0.50894815,0.34279844
20231225 03:44:35,-0.211245,1.386803,-0.216251,-0.208099,-0.484415,-0.321123,-1.572475,-30.844696,0.732597,176.06192,-0.42504603,1.3788761,0.23745272,-0.3325981,-0.46900266,0.3916551
20231225 03:44:35,-0.393444,1.536426,0.265205,-0.198511,-0.417298,-0.315796,-1.423294,-31.305183,0.764145,176.67097,-0.2295616,1.4631329,0.033912405,-0.32395455,-0.4024718,0.3792703
20231225 03:44:35,-0.507980,1.499802,0.903075,-0.063212,-0.283065,-0.303012,-1.504749,-31.776581,0.258217,176.44267,0.11147952,1.3612579,-0.37739834,-0.22701837,-0.2601441,0.2765766
20231225 03:44:35,-0.573295,1.506833,1.560051,0.004971,-0.258562,-0.303012,-1.141064,-31.474236,0.911949,177.62201,0.45738262,1.3047177,-0.84357226,-0.17185983,-0.22999547,0.23278272
20231225 03:44:35,-0.723350,1.339297,1.970827,0.139204,-0.244712,-0.306208,-1.370926,-31.868927,0.935425,177.22832,0.5649655,1.0654325,-1.1041788,-0.06377973,-0.1988241,0.15581045
20231225 03:44:35,-0.879463,1.095783,2.071309,0.262785,-0.246843,-0.310469,-0.780334,-31.538193,0.651772,178.47472,0.4831403,0.77250934,-1.0912466,0.037954494,-0.18136513,0.08352579
20231225 03:44:35,-0.951258,0.954001,2.057676,0.390627,-0.244712,-0.321123,-0.637547,-31.535507,1.322876,179.07451,0.41633207,0.61222684,-1.0363766,0.13469179,-0.15918076,0.012788355
20231225 03:44:35,-0.985582,0.750637,1.966764,0.534449,-0.239385,-0.353083,-0.452511,-31.615921,1.329964,179.51936,0.35128582,0.3932951,-0.93263584,0.22824225,-0.12507972,-0.054144174
20231225 03:44:35,-1.052454,0.587761,1.618215,0.686793,-0.224471,-0.404220,-0.089207,-31.121674,1.703232,-179.4596,0.12893677,0.2265835,-0.5731957,0.30404252,-0.070648365,-0.12731501
20231225 03:44:35,-1.147669,0.580214,1.192341,0.823158,-0.195706,-0.455356,-0.044003,-30.838470,1.953133,-179.08102,-0.16084546,0.20151009,-0.11154783,0.34368205,0.0114342645,-0.21453834
20231225 03:44:35,-1.298915,0.994440,0.717131,0.929693,-0.157354,-0.486252,0.583988,-30.895210,2.766914,-176.8337,-0.57866365,0.59553915,0.48614046,0.32935837,0.104306474,-0.34545097
20231225 03:44:35,-1.493150,1.810635,0.082730,0.966980,-0.112609,-0.459618,0.309685,-31.956879,3.101425,-176.6968,-1.3021437,1.4127234,1.191135,0.27775076,0.19208358,-0.48468438
20231225 03:44:35,-1.683992,2.829725,-0.466944,0.901994,-0.076387,-0.369063,0.724972,-31.834496,3.365517,-174.48413,-2.1502028,2.4410322,1.8135974,0.22664881,0.22200057,-0.560411
20231225 03:44:35,-1.747319,3.781589,-0.992646,0.683597,-0.048688,-0.222045,0.852016,-31.271782,4.401810,-172.43538,-2.9336083,3.4841244,2.252373,0.17793748,0.16124713,-0.4874014
20231225 03:44:35,-1.657616,4.179127,-1.003602,0.327771,-0.078518,-0.048393,1.037056,-31.352188,4.408905,-172.31221,-2.9220648,3.9271238,2.2087584,0.14676839,-0.001157565,-0.26647273
20231225 03:44:35,-1.362910,3.986060,-0.601116,-0.099434,-0.129655,0.122062,0.930511,-31.166672,3.993820,-174.45529,-2.0940025,3.7898512,1.678322,0.073528565,-0.16575246,0.011047833
20231225 03:44:35,-0.854622,3.111393,0.351003,-0.487220,-0.160550,0.263754,0.691299,-31.464500,3.742943,-176.68452,-0.6989204,2.9219358,0.54457295,-0.093275234,-0.24762285,0.19760506
20231225 03:44:35,-0.630466,1.774585,1.653870,-0.710943,-0.121132,0.391595,0.594105,-31.375854,3.602211,-177.60985,0.4305024,1.5418038,-0.78481364,-0.2747846,-0.22999328,0.1635316
20231225 03:44:35,-0.655884,0.255143,2.823923,-0.802563,-0.046557,0.515176,0.293556,-31.204956,3.186157,-178.63097,0.882802,0.008469999,-2.0641587,-0.41624865,-0.16121478,-0.023072928
20231225 03:44:35,-0.610740,-1.291876,3.972984,-0.783387,-0.044427,0.615318,0.002747,-31.322815,3.324928,-179.40463,1.0070682,-1.4820404,-3.4430914,-0.48525232,-0.13398962,-0.26635998
20231225 03:44:35,-0.339194,-2.742586,4.769001,-0.644892,-0.161615,0.668586,-0.376682,-31.065125,3.036385,179.59117,0.9947861,-2.8221755,-4.4822693,-0.438886,-0.20278604,-0.46897
20231225 03:44:35,0.136465,-3.993072,5.053011,-0.387078,-0.376815,0.660063,-1.110443,-31.206650,2.368469,177.94539,1.0691388,-3.9912217,-4.8468523,-0.25816464,-0.37566185,-0.5631722
20231225 03:44:35,0.788423,-4.824891,4.401193,-0.026990,-0.569643,0.589750,-0.809898,-31.377556,2.784531,178.13931,1.4034381,-4.8179946,-4.3131967,0.057946954,-0.5589153,-0.5598114
20231225 03:44:35,1.556855,-5.082763,3.030161,0.361862,-0.632499,0.481085,-1.092129,-31.208504,2.636719,177.21748,1.9216053,-5.1748037,-3.0166216,0.4231035,-0.66815066,-0.50812036
20231225 03:44:35,2.071098,-4.816824,1.339917,0.709166,-0.539814,0.359635,-1.559402,-30.959045,2.481812,175.89204,1.9856421,-5.078251,-1.5180863,0.73644,-0.6788645,-0.5011127
20231225 03:44:35,2.582451,-4.200341,-0.416967,0.903059,-0.320352,0.237120,-1.415848,-31.340141,3.713860,174.57057,1.4431466,-4.8606405,-0.36558697,0.8534544,-0.5846825,-0.57100207
20231225 03:44:35,2.978419,-3.298572,-1.613389,0.910516,-0.101955,0.114605,-1.652489,-31.079765,4.096420,172.56494,0.6697398,-4.557417,-0.05265057,0.7716877,-0.43596867,-0.6053823
20231225 03:44:35,3.063862,-2.414560,-2.409601,0.721950,0.052520,-0.005780,-1.342979,-31.155655,4.506363,171.62741,-0.07189715,-4.173486,-0.11534691,0.54171574,-0.25240043,-0.49715817
20231225 03:44:35,2.922458,-1.695072,-2.753479,0.356535,0.106853,-0.110184,-1.228622,-30.670471,4.073921,171.67845,-0.5078106,-3.6042418,-0.2434833,0.20932466,-0.084213234,-0.20669258
20231225 03:44:35,2.567988,-1.217284,-2.712855,-0.120741,0.058912,-0.195411,-1.121696,-31.047867,4.769478,172.12239,-0.6428294,-2.7629173,-0.15039515,-0.19105734,0.01977256,0.21142422
20231225 03:44:35,2.117426,-1.010213,-2.233390,-0.643826,-0.051884,-0.262528,-0.955738,-30.742653,3.947372,174.63101,-0.37676144,-1.9536011,-0.0029485226,-0.62971544,0.028685674,0.65514165
20231225 03:44:35,1.695200,-1.069214,-1.324574,-1.093403,-0.156288,-0.318992,-1.001331,-30.833969,3.416992,176.05609,0.23710155,-1.5116016,-0.099223554,-1.0433335,-0.021983217,0.9765416
20231225 03:44:35,1.389048,-1.170744,-0.017518,-1.336303,-0.185053,-0.382913,-0.728443,-30.906158,3.290459,177.47571,1.0196493,-1.3197575,-0.7564744,-1.3208895,-0.061587043,1.0985233
20231225 03:44:35,1.034993,-1.394757,1.096070,-1.317127,-0.098759,-0.473467,-0.553524,-30.505920,2.462242,178.47363,1.3938773,-1.4158586,-1.4368316,-1.3785961,-0.03240899,1.077243
20231225 03:44:35,0.525486,-1.438296,2.309172,-1.072096,0.029082,-0.580002,-0.483608,-30.687721,2.340836,179.0404,1.5318438,-1.440629,-2.2702625,-1.2187916,0.026389228,1.0078219
20231225 03:44:35,-0.266596,-1.269182,3.080316,-0.682179,0.134552,-0.654577,0.422504,-30.704147,1.547096,-178.85678,1.218664,-1.4107066,-2.6388302,-0.9103963,0.10669173,0.89646447
20231225 03:44:35,-1.100357,-0.820840,3.329679,-0.241125,0.221910,-0.673753,0.316345,-30.710526,1.412491,-178.87115,0.6966232,-1.2293435,-2.3912055,-0.55090064,0.23783708,0.70983565
20231225 03:44:35,-1.756944,-0.185273,3.110115,0.171165,0.247479,-0.632204,0.731251,-30.396255,1.396103,-177.75613,0.16126251,-0.899551,-1.6890328,-0.21548203,0.35127404,0.449904
20231225 03:44:35,-2.146638,0.400971,2.450659,0.492900,0.235760,-0.528865,1.022060,-30.278397,1.257324,-176.93416,-0.39650166,-0.5083674,-0.67623425,0.055683315,0.42573935,0.14219272
20231225 03:44:35,-2.288186,0.837471,1.585093,0.697447,0.216584,-0.375455,1.295715,-30.734352,1.691727,-175.86287,-0.9297677,-0.047323763,0.3250265,0.25658315,0.4424972,-0.15493989
20231225 03:44:35,-2.089925,1.035169,0.785990,0.790132,0.181427,-0.211392,1.784256,-30.619354,3.028786,-173.70859,-1.2209632,0.35389763,0.95272905,0.3968703,0.3932657,-0.37651294
20231225 03:44:35,-1.743277,0.879952,-0.008327,0.822092,0.130290,-0.051589,1.289707,-30.463081,2.611755,-174.93744,-1.3980138,0.48812366,1.3190118,0.50500447,0.30273047,-0.55052465
20231225 03:44:35,-1.308708,0.515229,-0.760680,0.813570,0.093003,0.092233,1.723690,-30.534424,3.424553,-173.52881,-1.5182197,0.4202463,1.5186429,0.58974254,0.2112351,-0.6615801
20231225 03:44:35,-0.795964,0.039978,-1.327870,0.776283,0.064239,0.199833,1.389854,-30.185417,3.666397,-174.6546,-1.5151749,0.13436434,1.463902,0.6417436,0.12941156,-0.71734834
20231225 03:44:35,-0.204735,-0.402363,-1.822237,0.712362,0.040801,0.261623,1.029507,-30.313347,4.207047,-176.29689,-1.5171083,-0.2760003,1.2756374,0.64407146,0.06347011,-0.7184618
20231225 03:44:35,0.313172,-0.778555,-2.260252,0.617546,0.025886,0.273342,1.390621,-30.569191,4.227333,-176.32579,-1.6208414,-0.77695835,1.0716251,0.58897,0.026007345,-0.65680856
20231225 03:44:35,0.644355,-1.034053,-2.651392,0.495031,0.021625,0.261623,1.056786,-30.220177,4.469170,-177.98431,-1.8500614,-1.2083632,0.9783195,0.49968672,0.016611988,-0.55483353
20231225 03:44:35,0.901483,-1.162563,-2.923481,0.356535,0.045063,0.248839,1.374882,-30.009155,4.592537,-178.12585,-2.0289454,-1.5828686,0.8730602,0.40933883,0.045418337,-0.43384495
20231225 03:44:35,1.166188,-1.232934,-3.075328,0.205256,0.121768,0.225401,1.101997,-29.936966,4.719086,-179.73888,-2.0624018,-1.8735542,0.7406438,0.31848484,0.13429278,-0.29569128
20231225 03:44:35,1.368564,-1.237467,-2.935770,0.051846,0.232564,0.192375,1.199574,-30.217499,5.140282,-179.93813,-1.73086,-1.9147931,0.62105596,0.22401945,0.25457123,-0.15500663
20231225 03:44:35,1.422534,-1.188608,-2.395239,-0.082388,0.314596,0.149761,0.714371,-30.158081,4.997597,179.27815,-1.0604558,-1.7112281,0.46381438,0.10706454,0.34163833,-0.03596424
20231225 03:44:35,1.359827,-1.216856,-1.656789,-0.186792,0.330576,0.094363,0.767776,-29.396072,4.680450,-179.67995,-0.32996076,-1.491693,0.1905815,-0.033087157,0.354158,0.06801473
20231225 03:44:35,1.087742,-1.173887,-0.886101,-0.247517,0.254936,0.056011,0.792870,-30.052986,4.589607,-178.9633,0.13794321,-1.2729646,-0.106013894,-0.13078164,0.27028283,0.1306903
20231225 03:44:35,0.884231,-1.074913,-0.384043,-0.260301,0.135617,0.041096,0.722569,-29.679283,4.430542,-178.8222,0.370978,-1.1162206,-0.3188718,-0.1626628,0.14574908,0.1447689
20231225 03:44:35,0.776679,-0.942500,-0.273562,-0.231537,0.043997,0.045357,1.013767,-29.753311,4.572243,-178.15492,0.3592372,-0.9756297,-0.34560692,-0.13873036,0.05301314,0.124073066
20231225 03:44:35,0.871802,-0.793887,-0.378619,-0.174008,0.022690,0.057076,0.592472,-29.604424,5.228188,-179.50204,0.33008978,-0.8555528,-0.33368835,-0.08533089,0.034432463,0.07911882
20231225 03:44:35,1.058735,-0.654387,-0.589495,-0.130329,0.046128,0.048553,0.467232,-29.225174,4.264389,-179.89873,0.27874988,-0.7665842,-0.34144625,-0.053771608,0.05841119,0.058839105
20231225 03:44:35,1.147973,-0.362274,-0.701448,-0.115414,0.088742,0.024050,0.555843,-29.600723,4.691704,-179.8603,0.2433446,-0.4969751,-0.3632075,-0.054254442,0.0984016,0.06825883
20231225 03:44:35,1.100370,-0.013899,-0.707273,-0.133525,0.121768,0.001678,0.961010,-28.997681,4.120483,-178.42459,0.20653993,-0.118035346,-0.3498827,-0.08020075,0.1288065,0.100692615
20231225 03:44:35,0.932028,0.371526,-0.571370,-0.185727,0.127094,-0.011106,0.482590,-29.593330,3.618721,-179.18217,0.19379926,0.3233925,-0.32485932,-0.12586278,0.13215789,0.14861797
20231225 03:44:35,0.692740,0.752628,-0.406134,-0.248582,0.108983,-0.003649,0.501286,-29.787056,4.167435,-178.82951,0.14920652,0.7453364,-0.25046828,-0.16405562,0.11050057,0.19230741
20231225 03:44:35,0.506604,0.982038,-0.193406,-0.327418,0.065304,0.018723,0.818611,-29.192261,3.729851,-177.80025,0.18405956,0.98591894,-0.22716568,-0.20293579,0.06342254,0.23483552
20231225 03:44:35,0.442602,0.972439,0.087328,-0.395600,0.000318,0.037900,0.403706,-29.506531,3.746239,-178.85309,0.35683173,0.9759589,-0.3682503,-0.24421917,-0.00419911,0.26146206
20231225 03:44:35,0.373367,0.744468,0.334649,-0.405189,-0.035904,0.042161,0.958824,-29.747765,3.767509,-177.56543,0.49355206,0.74480003,-0.47786704,-0.2576016,-0.0402416,0.25439388
20231225 03:44:35,0.431976,0.516892,0.505160,-0.361509,-0.015662,0.026181,0.606293,-29.205009,3.460632,-178.4635,0.6576625,0.516624,-0.6537427,-0.24583733,-0.018006062,0.22774825
20231225 03:44:35,0.450840,0.312414,0.614725,-0.269889,0.035474,-0.007910,0.845119,-28.715309,3.431046,-177.92128,0.74572927,0.3121374,-0.7497301,-0.20582137,0.034776278,0.18755917
20231225 03:44:35,0.490398,0.135299,0.659211,-0.165485,0.082350,-0.065439,0.764057,-29.378601,3.205589,-178.12367,0.8036082,0.1347335,-0.81498927,-0.16764747,0.08170956,0.16077071
20231225 03:44:35,0.441342,0.152438,0.557819,-0.064277,0.114310,-0.138948,0.721416,-29.103622,3.589134,-178.10657,0.7005161,0.15142636,-0.70538807,-0.14281416,0.11515972,0.14848772
20231225 03:44:36,0.335361,0.387893,0.338994,0.012428,0.159055,-0.219914,0.615643,-29.301880,3.734985,-178.11226,0.465551,0.38734838,-0.46770865,-0.15222909,0.16557075,0.14921634
20231225 03:44:36,0.131423,0.792752,0.066020,0.062499,0.263459,-0.285966,0.739346,-28.913582,3.576904,-177.33327,0.088920355,0.79342264,-0.115894556,-0.18185432,0.28374052,0.15763624
20231225 03:44:36,-0.249305,1.320353,0.225496,0.112571,0.356144,-0.327515,1.100460,-29.169418,3.597198,-175.75308,-0.15333006,1.2529839,0.09917423,-0.20460904,0.40094274,0.15389466
20231225 03:44:36,-0.812049,1.738256,0.505835,0.165838,0.429653,-0.313665,1.181911,-28.698013,4.103119,-174.7378,-0.46177512,1.4979161,0.36583152,-0.18209328,0.49369982,0.11549902
20231225 03:44:36,-1.242085,2.079182,0.811563,0.244674,0.446699,-0.240156,1.400238,-28.956535,3.452309,-174.0861,-0.6522725,1.637691,0.5208074,-0.09267972,0.51995647,0.010412246
20231225 03:44:36,-1.439350,2.384330,0.892881,0.328836,0.430719,-0.142144,1.473110,-28.772049,4.244820,-173.29115,-0.790115,1.8580059,0.67706865,0.027691208,0.5022274,-0.119932055
20231225 03:44:36,-1.336124,2.735122,0.783448,0.382104,0.360406,-0.064374,1.032349,-28.045639,3.791107,-174.36598,-0.81418014,2.2547328,0.7183666,0.11763221,0.42428994,-0.23479822
20231225 03:44:36,-1.255671,3.180489,0.369925,0.330967,0.253871,-0.013237,1.685429,-28.759285,4.514038,-171.68594,-1.1983396,2.742584,1.0710864,0.12465641,0.30250284,-0.23850268
20231225 03:44:36,-1.356902,3.416987,-0.184910,0.180753,0.139879,0.076252,1.906326,-28.459618,4.496674,-170.3058,-1.8152009,3.0400662,1.5480793,0.12422706,0.14486769,-0.17848304
20231225 03:44:36,-1.201906,3.034811,-0.595000,-0.012075,0.083415,0.206225,1.438667,-28.018265,4.061302,-172.39255,-1.8308203,2.8713272,1.5511875,0.13877192,0.032052405,-0.0984644
20231225 03:44:36,-0.551225,2.501113,-0.666142,-0.196380,0.150532,0.302106,1.166172,-28.137985,4.468315,-174.65602,-1.1780893,2.503879,0.97153246,0.10746594,0.091436386,-0.008663818
20231225 03:44:36,0.106261,2.018512,-0.043046,-0.335941,0.284766,0.310629,0.805058,-27.882133,4.448029,-176.94563,-0.0821036,2.02032,0.0181497,-0.0024552643,0.24839163,0.060996756
20231225 03:44:36,0.284008,1.361937,0.881634,-0.420103,0.382778,0.275472,1.332893,-28.216545,4.207169,-176.0417,0.7411375,1.3311251,-0.7691735,-0.13958001,0.34705603,0.10340282
20231225 03:44:36,0.100932,0.604761,1.885973,-0.454195,0.379582,0.252035,0.944885,-28.245766,4.205215,-176.9293,1.1800199,0.5013932,-1.5358423,-0.23213029,0.32900473,0.09007305
20231225 03:44:36,-0.166202,-0.050575,2.594357,-0.452064,0.280504,0.271211,0.855888,-27.678329,3.497437,-177.15501,1.2550086,-0.22559097,-2.0932956,-0.2522344,0.21871495,0.027830407
20231225 03:44:36,-0.334855,-0.898947,3.016577,-0.408385,0.147336,0.333001,0.388615,-27.428856,3.342529,-178.26202,1.1523234,-1.094796,-2.5340352,-0.21489178,0.08501886,-0.09968652
20231225 03:44:36,-0.366420,-1.691838,2.926114,-0.340202,0.016298,0.396922,0.654724,-26.845985,3.575066,-177.6248,1.0175676,-1.8663708,-2.5374749,-0.13603985,-0.039441068,-0.20885989
20231225 03:44:36,-0.197336,-2.139133,2.543491,-0.254974,-0.025250,0.480019,0.379650,-27.523880,3.348640,-178.50572,0.9516886,-2.2444553,-2.283288,-0.033134088,-0.065177545,-0.3317436
20231225 03:44:36,0.049863,-2.522743,2.272691,-0.168681,-0.035904,0.546071,0.194611,-27.443466,3.341553,-179.17328,0.9905249,-2.566431,-2.1438894,0.059148207,-0.05670739,-0.43678674
20231225 03:44:36,0.344503,-2.961486,1.976800,-0.114348,-0.056146,0.572705,-0.254345,-27.195862,3.454895,179.60614,1.0636833,-2.969131,-1.9473428,0.102693915,-0.06266127,-0.49122736
20231225 03:44:36,0.685305,-3.203882,1.789752,-0.086649,-0.131785,0.560986,-0.360886,-27.010353,3.039810,179.05423,1.2463427,-3.2031248,-1.8667606,0.116206676,-0.12494414,-0.49195507
20231225 03:44:36,1.068032,-3.325027,1.506102,-0.081323,-0.245777,0.513045,-0.880146,-26.389046,2.994087,177.51587,1.4537548,-3.3484955,-1.6600945,0.10755501,-0.22437713,-0.43571296
20231225 03:44:36,1.491161,-3.179616,0.990530,-0.109022,-0.340593,0.420360,-1.039707,-27.157433,3.176620,176.71762,1.5728204,-3.2819335,-1.3564543,0.05438398,-0.29744008,-0.317917
20231225 03:44:36,1.885393,-2.675305,0.318454,-0.151636,-0.367227,0.290387,-0.704071,-26.564476,3.007294,176.95438,1.5133021,-2.9160929,-1.102963,-0.024771914,-0.30379143,-0.15703344
20231225 03:44:36,1.998777,-2.029000,-0.309586,-0.225145,-0.271346,0.138042,-1.004234,-26.585464,2.871704,176.02373,1.1882073,-2.3727505,-0.80239767,-0.13855267,-0.20753962,0.034975156
20231225 03:44:36,1.791468,-1.358571,-0.610620,-0.323157,-0.072126,-0.013237,-1.179924,-26.601921,3.138969,175.78908,0.88122255,-1.621258,-0.5735284,-0.26681566,-0.0329801,0.21734113
20231225 03:44:36,1.129069,-0.748811,-0.182473,-0.417973,0.139879,-0.151732,-0.765022,-26.287643,3.122581,177.88449,0.754988,-0.76874226,-0.54516083,-0.41883364,0.14450283,0.37635788
20231225 03:44:36,0.068344,-0.183805,0.672627,-0.462717,0.303942,-0.238025,-0.996037,-26.106667,2.304649,178.11816,0.4777261,-0.22386514,-0.56742024,-0.5317428,0.27685696,0.46425802
20231225 03:44:36,-1.007924,0.348910,1.553373,-0.445672,0.403020,-0.234829,-0.865555,-26.373421,1.787476,178.84209,0.039265096,-0.039063647,-0.66104573,-0.54710865,0.34495577,0.44644284
20231225 03:44:36,-2.015506,0.722543,2.434709,-0.364705,0.401954,-0.136817,-0.802418,-25.900169,2.025146,179.49307,-0.45803988,-0.16197237,-0.87544036,-0.43901747,0.32275376,0.31599545
20231225 03:44:36,-2.678827,0.817488,3.095436,-0.220883,0.296485,0.038965,-0.414795,-25.679062,1.746635,-179.64017,-0.7955408,-0.4283204,-1.1501744,-0.21498068,0.2186183,0.088269964
20231225 03:44:36,-2.826266,0.684545,3.192544,-0.041905,0.134552,0.256296,-0.651051,-25.610580,2.409668,-179.73085,-0.8578099,-0.5865832,-1.1692932,0.07416715,0.075925216,-0.19302368
20231225 03:44:36,-2.370665,0.432018,2.699954,0.133878,-0.016728,0.456582,-0.890263,-25.908401,2.158783,179.23128,-0.5732143,-0.47488654,-0.9223347,0.35971516,-0.0530746,-0.45337448
20231225 03:44:36,-1.448191,0.071049,1.680728,0.263850,-0.098759,0.586554,-1.215134,-25.464371,2.394508,177.97153,-0.20060849,-0.30426902,-0.5044833,0.56385547,-0.120272696,-0.62618095
20231225 03:44:36,-0.441801,-0.386491,0.668954,0.343751,-0.115805,0.632364,-1.611336,-25.972389,2.959618,176.43614,0.06796026,-0.43770203,-0.24531218,0.6601527,-0.12302476,-0.7047856
20231225 03:44:36,0.336982,-0.842999,-0.132596,0.385300,-0.104086,0.607861,-1.972450,-25.716545,2.939323,174.6647,0.16773722,-0.8516652,-0.045007005,0.6780796,-0.10207033,-0.70595443
20231225 03:44:36,0.885699,-1.216673,-0.731192,0.398084,-0.077452,0.534352,-2.043137,-25.150955,2.499786,173.75264,0.14525107,-1.3275303,0.103141785,0.63982725,-0.073902264,-0.6566489
20231225 03:44:36,1.265390,-1.390360,-1.292140,0.365058,-0.065734,0.422490,-1.856674,-24.097519,2.298904,173.48763,-0.041170537,-1.6734354,0.25067323,0.54175663,-0.06417197,-0.55068797
20231225 03:44:36,1.423587,-1.421374,-1.653163,0.320314,-0.023120,0.295714,-2.005085,-24.020805,2.828308,172.53442,-0.24773425,-1.8184749,0.36937475,0.4289694,-0.029292852,-0.4305911
20231225 03:44:36,1.442697,-1.391370,-1.845969,0.296876,0.035474,0.164676,-1.953487,-24.200760,2.438652,172.8134,-0.3913864,-1.808166,0.45410448,0.33102068,0.015553737,-0.32639807
20231225 03:44:36,1.292989,-1.376272,-1.845568,0.296876,0.095134,0.044292,-1.879963,-22.498642,2.462242,172.82916,-0.48257685,-1.6869955,0.53878117,0.25344327,0.06725046,-0.24666873
20231225 03:44:36,0.949610,-1.272647,-1.803966,0.310725,0.134552,-0.054786,-2.843475,-24.936264,3.147667,171.16156,-0.67394435,-1.4030201,0.71557397,0.18615118,0.11663651,-0.19742264
20231225 03:44:36,0.505827,-1.083846,-1.849841,0.317118,0.168643,-0.121902,-2.109058,-23.277100,3.046669,173.49973,-0.99806607,-1.0581378,0.9647593,0.12483435,0.17321983,-0.16274503
20231225 03:44:36,0.119637,-0.792296,-1.862004,0.287288,0.197407,-0.150667,-2.497719,-24.823952,3.813629,173.6717,-1.2600759,-0.66042143,1.1922176,0.06454451,0.2231142,-0.13079256
20231225 03:44:36,-0.260293,-0.543659,-1.828955,0.210583,0.198473,-0.145340,-2.031216,-24.689644,3.407585,175.46854,-1.4736443,-0.35941213,1.4230262,0.008039251,0.23292075,-0.07373369
20231225 03:44:36,-0.566568,-0.416173,-1.620015,0.098721,0.168643,-0.113380,-1.625278,-24.470383,3.397316,177.18803,-1.4960496,-0.25306925,1.5249456,-0.03911078,0.19431138,-0.0018183365
20231225 03:44:36,-0.738508,-0.402917,-1.201818,-0.016336,0.097265,-0.070766,-2.003937,-24.596474,3.669724,176.49496,-1.2990298,-0.3297134,1.3874434,-0.07428337,0.10297567,0.057252254
20231225 03:44:36,-0.813466,-0.470452,-0.849852,-0.106891,0.005645,-0.024956,-2.055538,-24.416512,4.059372,176.50777,-1.1053287,-0.46499068,1.1961257,-0.095561564,-0.0057261186,0.09092399
20231225 03:44:36,-0.639399,-0.661318,-0.523727,-0.156962,-0.074256,0.012331,-1.871265,-24.113144,3.505516,176.26297,-0.7599772,-0.67422956,0.84662616,-0.10323763,-0.09167023,0.09755493
20231225 03:44:36,-0.329671,-0.875386,-0.359089,-0.162289,-0.127524,0.012331,-2.144150,-24.040955,3.632065,174.98633,-0.43580604,-0.87436515,0.5446625,-0.110210426,-0.13810253,0.1028313
20231225 03:44:36,0.053454,-1.070074,-0.347645,-0.127133,-0.132851,-0.024956,-1.774841,-23.818001,3.085297,175.35448,-0.15357453,-1.0598497,0.30183104,-0.11121082,-0.1357758,0.107981615
20231225 03:44:36,0.331294,-1.104362,-0.383744,-0.079192,-0.119001,-0.097399,-1.896358,-23.456238,3.596367,174.69508,0.011845887,-1.1037376,0.16225635,-0.122993544,-0.118999735,0.13368721
20231225 03:44:36,0.468925,-1.105823,-0.454673,-0.036578,-0.095563,-0.183693,-2.169243,-23.384048,3.722900,173.85527,0.064872056,-1.1091962,0.13733652,-0.14612448,-0.096028425,0.1714913
20231225 03:44:36,0.422249,-1.028353,-0.525207,-0.011010,-0.080649,-0.265724,-1.632435,-23.623436,3.475929,175.45671,-0.016218752,-1.023157,0.18430617,-0.18094634,-0.07936234,0.21307345
20231225 03:44:36,0.288388,-0.880378,-0.565507,-0.007814,-0.080649,-0.325384,-2.002899,-23.270729,3.181282,174.52463,-0.13572687,-0.85670775,0.29342875,-0.21921411,-0.072419286,0.25352666
20231225 03:44:36,0.100562,-0.684665,-0.534070,-0.017402,-0.108348,-0.357344,-1.605927,-23.146492,3.177124,175.91771,-0.2523542,-0.6523579,0.36166102,-0.24801357,-0.09200818,0.28068864
20231225 03:44:36,-0.006109,-0.478841,-0.489336,-0.037643,-0.164811,-0.372259,-1.005985,-22.912628,3.167824,177.71098,-0.31277516,-0.45167768,0.3746827,-0.27262542,-0.14662397,0.3018059
20231225 03:44:36,-0.018095,-0.314813,-0.530239,-0.069604,-0.237255,-0.393566,-1.269520,-22.937309,3.568726,176.86987,-0.36653945,-0.2917107,0.40602997,-0.31233698,-0.22265917,0.3405083
20231225 03:44:36,0.119327,-0.117675,-0.590273,-0.091976,-0.294783,-0.429788,-1.199223,-23.310997,3.727783,177.00981,-0.33149198,-0.0902072,0.33309883,-0.35885352,-0.28127432,0.377581
20231225 03:44:36,0.188967,0.188192,-0.689860,-0.103695,-0.300110,-0.477729,-1.208954,-23.022247,3.172958,176.68546,-0.38207605,0.22016019,0.3239985,-0.40852413,-0.28554899,0.41290176
20231225 03:44:36,0.173448,0.484684,-0.725301,-0.113283,-0.273477,-0.528865,-0.484924,-22.591965,3.286041,179.04842,-0.4425587,0.5221076,0.35149214,-0.45607325,-0.25449795,0.44131312
20231225 03:44:36,0.062915,0.772185,-0.627494,-0.136721,-0.234059,-0.570414,-0.485310,-22.400070,3.005577,179.27597,-0.4730566,0.8140715,0.36658353,-0.49835083,-0.20378555,0.48525053
20231225 03:44:36,-0.176102,0.998900,-0.337805,-0.163354,-0.206360,-0.593852,-0.176182,-22.284065,3.135048,-179.30762,-0.45549715,1.0070009,0.36717564,-0.52425957,-0.16493823,0.5222376
20231225 03:44:36,-0.413857,1.129399,0.056991,-0.197446,-0.196771,-0.609832,-0.027386,-22.552666,2.886116,-178.73058,-0.36869675,1.0685416,0.27187183,-0.5472888,-0.15137078,0.56595767
20231225 03:44:36,-0.642930,1.230958,0.623249,-0.207034,-0.227667,-0.625812,0.563206,-22.221931,2.602463,-176.77135,-0.19031546,1.0574946,0.041588813,-0.5473849,-0.17567585,0.5864049
20231225 03:44:36,-0.918715,1.272806,0.989398,-0.179335,-0.267084,-0.633269,0.156883,-22.249290,2.332268,-178.02489,-0.20163286,0.97751653,-0.08390844,-0.5134344,-0.20315358,0.58271337
20231225 03:44:36,-1.220189,1.283132,1.340300,-0.100499,-0.290522,-0.622616,0.501873,-21.753204,2.437286,-176.68503,-0.2533093,0.8456429,-0.1533444,-0.43102142,-0.20832014,0.52236485
20231225 03:44:36,-1.420458,1.308513,1.521466,0.020951,-0.301176,-0.608766,0.747860,-22.110451,2.329086,-175.91484,-0.31987005,0.7650963,-0.15072167,-0.32188454,-0.1913944,0.42985573
20231225 03:44:36,-1.604858,1.362768,1.547905,0.169034,-0.288391,-0.585329,1.172112,-21.893044,2.587051,-174.20094,-0.46245068,0.72106445,0.0031918287,-0.19419335,-0.14152443,0.30461568
20231225 03:44:36,-1.763082,1.448725,1.361978,0.327771,-0.261758,-0.543780,1.332443,-21.508430,2.965454,-173.10408,-0.7098541,0.7503687,0.31051672,-0.05637148,-0.07625869,0.15674071
20231225 03:44:36,-1.811539,1.436965,1.031473,0.468397,-0.218078,-0.489448,1.808681,-21.662872,3.114250,-171.33932,-0.93650705,0.7676128,0.65831596,0.06489083,-0.0064250305,0.006811917
20231225 03:44:36,-1.742760,1.439113,0.763788,0.594108,-0.169072,-0.447899,1.914455,-21.464607,2.968384,-170.83755,-1.0350944,0.83561945,0.8493268,0.15928027,0.06138844,-0.12120032
20231225 03:44:36,-1.651051,1.590069,0.551024,0.724080,-0.109413,-0.425527,2.329742,-21.342216,3.232468,-168.92856,-1.0969824,1.0532727,1.042787,0.22381243,0.13904178,-0.25657287
20231225 03:44:36,-1.538863,1.972929,0.310211,0.854053,-0.017793,-0.411677,2.057243,-21.461922,3.639488,-169.1549,-1.2353288,1.4972193,1.2149198,0.25953007,0.2500457,-0.39041144
20231225 03:44:36,-1.582391,2.726676,0.088759,0.929693,0.009906,-0.372259,2.111416,-21.083694,3.883278,-167.45905,-1.623668,2.2160115,1.5727834,0.26884806,0.30075014,-0.53012216
20231225 03:44:36,-1.714567,3.375169,-0.398570,0.867902,-0.046557,-0.280639,2.484447,-20.878212,4.811371,-163.92886,-2.3318098,2.8831966,2.1562583,0.27463293,0.22993663,-0.5845951
20231225 03:44:36,-1.624280,3.689066,-0.826911,0.667617,-0.168007,-0.142144,2.484447,-20.878212,4.811371,-163.51758,-2.659667,3.3832593,2.3393145,0.28323773,0.015150312,-0.5268509
20231225 03:44:36,-1.210836,3.579501,-1.055343,0.379973,-0.278803,0.010201,2.405186,-20.599541,4.658417,-164.98349,-2.3875244,3.5095484,2.0296187,0.27117756,-0.21280418,-0.36925635
20231225 03:44:36,-0.523252,3.173801,-0.923972,0.079545,-0.296914,0.147631,2.598804,-20.393044,4.378929,-167.25642,-1.4619609,3.2120059,1.306456,0.20416902,-0.3058645,-0.18024282
20231225 03:44:36,0.222785,2.367697,-0.323522,-0.200642,-0.274542,0.238185,2.283669,-20.237762,5.169487,-171.35619,-0.19724414,2.3824139,0.2417245,0.07273096,-0.28772178,-0.012926325
20231225 03:44:36,0.668916,1.352377,0.502880,-0.447802,-0.239385,0.306367,2.122952,-20.430489,4.510612,-173.06256,0.8223462,1.3533107,-0.7081192,-0.10397202,-0.24352327,0.07569902
20231225 03:44:36,0.686039,0.152213,1.368755,-0.647023,-0.211686,0.384138,2.077362,-20.521812,3.980232,-173.52292,1.3675954,0.14830036,-1.4863088,-0.28643602,-0.22246239,0.06255084
20231225 03:44:36,0.608015,-1.022110,2.224316,-0.819609,-0.236189,0.466170,1.777195,-20.542801,3.844643,-174.81654,1.5793378,-1.0264038,-2.324792,-0.50664216,-0.24435319,-0.047292322
20231225 03:44:36,0.603287,-2.304433,3.289590,-0.892053,-0.332071,0.510914,1.627251,-19.698532,3.252159,-175.28076,1.6933699,-2.3031223,-3.4645298,-0.66290593,-0.32971692,-0.19791439
20231225 03:44:36,0.770652,-3.341404,4.067740,-0.808955,-0.459912,0.507718,1.299809,-19.812683,2.854439,-176.51768,1.7405918,-3.3313472,-4.320151,-0.659251,-0.43164402,-0.31456795
20231225 03:44:36,1.027246,-4.096747,4.362258,-0.574579,-0.588820,0.462974,0.982487,-20.407501,3.292023,-177.83182,1.83082,-4.097179,-4.6284485,-0.47724405,-0.5482305,-0.35971564
20231225 03:44:36,1.417087,-4.504451,3.953891,-0.263497,-0.654871,0.378811,0.715611,-20.606606,2.498535,-178.84395,2.0254796,-4.5502524,-4.2371497,-0.2030908,-0.61180204,-0.3360065
20231225 03:44:36,1.959652,-4.531543,3.001514,0.050780,-0.621845,0.246708,0.902454,-19.745041,2.578133,-178.86403,2.3804834,-4.6826434,-3.454641,0.07744358,-0.6091604,-0.26375598
20231225 03:44:36,2.433691,-4.037041,1.632434,0.295811,-0.459912,0.086906,0.745461,-19.955238,3.394119,179.48582,2.4660583,-4.3621006,-2.2996469,0.2674853,-0.5101009,-0.17430718
20231225 03:44:36,2.669955,-3.289006,0.676690,0.435371,-0.255366,-0.081419,0.541721,-19.681091,2.838310,178.9603,2.2560363,-3.7759135,-1.7091216,0.32577586,-0.37310556,-0.110350326
20231225 03:44:36,2.555528,-2.521404,-0.170850,0.434306,-0.094498,-0.236960,0.471809,-19.499283,2.959717,178.59882,1.6546285,-3.0798082,-1.1828111,0.22845739,-0.23863275,-0.032867387
20231225 03:44:36,2.158252,-1.848007,-0.714775,0.288353,-0.011401,-0.361606,0.666576,-19.868439,3.521637,179.31291,0.98556167,-2.313971,-0.7582746,0.0074654073,-0.12103905,0.10537663
20231225 03:44:36,1.575601,-1.294630,-0.850580,0.033735,-0.019924,-0.446834,1.044468,-19.358582,2.688286,-177.82848,0.5217109,-1.5439003,-0.4174776,-0.26384735,-0.06745723,0.31645533
20231225 03:44:36,0.949899,-1.026840,-0.587954,-0.234733,-0.090237,-0.502232,0.859432,-19.278175,2.681190,-177.42696,0.3256309,-1.0733114,-0.19217354,-0.5040002,-0.09620327,0.5326126
20231225 03:44:36,0.304280,-0.918233,0.089565,-0.406254,-0.169072,-0.526735,1.098644,-18.980362,2.932083,-175.86343,0.31992117,-0.90950614,-0.307604,-0.6371715,-0.16919091,0.6543473
20231225 03:44:36,-0.209412,-0.877088,0.642050,-0.392404,-0.163746,-0.518212,1.450790,-19.331215,2.958488,-174.33904,0.24789694,-0.9242594,-0.46957093,-0.6099348,-0.16482379,0.63451797
20231225 03:44:36,-0.592236,-0.701206,1.113338,-0.231537,-0.111544,-0.495840,1.405197,-19.422539,2.428108,-174.25629,0.20837101,-0.84849775,-0.61996347,-0.46381387,-0.09722327,0.52739114
20231225 03:44:36,-0.955280,-0.424110,1.076928,-0.008879,-0.042296,-0.457487,1.635063,-19.027847,2.404633,-172.8879,-0.07083905,-0.67347276,-0.31233084,-0.27518836,0.007474512,0.3622183
20231225 03:44:36,-1.202210,-0.063320,0.725641,0.187145,0.048259,-0.403154,1.953156,-18.816818,2.527992,-171.05357,-0.44849682,-0.3684653,0.22507477,-0.11899406,0.13640524,0.18791614
20231225 03:44:36,-1.372124,0.400572,0.251138,0.307529,0.115376,-0.331776,1.917297,-19.196899,2.552444,-170.65955,-0.8886949,0.09471156,0.8213189,-0.021869808,0.22553553,0.03548135
20231225 03:44:37,-1.419856,0.719642,-0.205593,0.348013,0.171839,-0.252940,1.962502,-18.913689,2.802353,-169.67558,-1.2653292,0.4632771,1.2571661,0.029312223,0.28175712,-0.05948426
20231225 03:44:37,-1.459587,0.906588,-0.537051,0.338424,0.214453,-0.157059,2.137810,-18.705338,2.254608,-168.71715,-1.5568088,0.69431883,1.5572445,0.06621339,0.30694884,-0.12156489
20231225 03:44:37,-1.438331,0.974554,-0.722801,0.299007,0.248544,-0.038805,2.165092,-18.612175,2.516747,-168.36043,-1.6842767,0.8113056,1.6770797,0.11515489,0.30423424,-0.16596968
20231225 03:44:37,-1.311044,0.729143,-0.769551,0.255327,0.260263,0.091167,2.068279,-18.715416,2.656487,-168.99908,-1.5787885,0.6135562,1.5721589,0.18250665,0.27892572,-0.21592945
20231225 03:44:37,-1.106197,0.403076,-0.771127,0.212713,0.248544,0.213682,1.928833,-18.543686,3.179779,-169.84404,-1.3745096,0.34313053,1.373683,0.25411424,0.23942618,-0.2688915
20231225 03:44:37,-0.755853,0.003645,-0.742125,0.173296,0.206995,0.313825,1.841755,-18.935699,3.874352,-171.00836,-1.0512612,0.0028445944,1.053252,0.31532696,0.18577082,-0.31845468
20231225 03:44:37,-0.265707,-0.492865,-0.775933,0.131747,0.135617,0.380942,1.462330,-18.678009,3.585815,-173.62375,-0.698201,-0.46070585,0.6999733,0.35014755,0.1203145,-0.35304987
20231225 03:44:37,0.302575,-0.887565,-0.946678,0.095525,0.061043,0.397987,1.180092,-18.508957,3.438004,-175.72067,-0.43128392,-0.88704926,0.4289448,0.34309223,0.060921706,-0.35045373
20231225 03:44:37,0.816155,-1.111261,-1.148598,0.059303,0.007775,0.377746,1.365131,-18.589363,3.445091,-176.19807,-0.26900154,-1.2290374,0.2106551,0.30344325,0.027008096,-0.3129688
20231225 03:44:37,1.277044,-1.221611,-1.350285,0.022016,-0.000747,0.327674,1.110180,-18.327148,3.559410,-178.10143,-0.14843702,-1.5052187,0.05047512,0.24087672,0.033526815,-0.25041792
20231225 03:44:37,1.595247,-1.268933,-1.501297,-0.009944,0.048259,0.254165,1.189056,-18.413933,3.431885,-178.48956,-0.07519859,-1.7150748,-0.06460428,0.1735311,0.087284446,-0.17393328
20231225 03:44:37,1.829029,-1.208388,-1.503110,-0.036578,0.136682,0.159349,1.189056,-18.413933,3.431885,-178.6298,0.102255344,-1.7139231,-0.21556711,0.1034465,0.16433495,-0.08653541
20231225 03:44:37,1.699918,-1.021162,-1.324685,-0.075996,0.220845,0.061337,0.809635,-18.156242,3.143349,-179.03436,0.18257344,-1.3742144,-0.25164837,0.0143324435,0.23427352,0.011848617
20231225 03:44:37,1.334110,-0.833301,-0.926900,-0.125002,0.259198,-0.006845,1.162548,-18.890884,3.730698,-177.18669,0.28981447,-0.9809324,-0.26563025,-0.07924319,0.26619795,0.09970013
20231225 03:44:37,0.910395,-0.690005,-0.509339,-0.162289,0.250675,-0.037740,0.889282,-18.626816,3.576775,-177.18845,0.32650885,-0.7153647,-0.25401935,-0.14182684,0.25299934,0.14554526
20231225 03:44:37,0.526136,-0.556892,-0.075644,-0.164420,0.204865,-0.029217,0.791706,-18.346283,3.155579,-176.94185,0.3545901,-0.548486,-0.31022722,-0.14582357,0.20287652,0.13805348
20231225 03:44:37,0.300284,-0.543912,0.220655,-0.153766,0.110049,0.005939,0.879932,-18.529945,3.302422,-176.43839,0.3858987,-0.5399201,-0.38773152,-0.11665602,0.10503871,0.09975411
20231225 03:44:37,0.261004,-0.582215,0.155372,-0.140982,-0.007139,0.048553,0.660835,-17.887642,3.392281,-177.19633,0.31205457,-0.5786018,-0.30901402,-0.07578191,-0.011786425,0.054150265
20231225 03:44:37,0.376135,-0.566673,-0.088565,-0.116479,-0.094498,0.084775,0.764809,-18.631340,3.173920,-177.17819,0.22184455,-0.56444913,-0.20758954,-0.029020187,-0.09543257,0.011975601
20231225 03:44:37,0.593671,-0.548310,-0.579185,-0.094107,-0.101955,0.103951,1.152046,-18.218353,2.614922,-175.88019,0.013115883,-0.57213014,-0.025871724,0.0025507286,-0.097855434,-0.014355104
20231225 03:44:37,0.822727,-0.486358,-0.889997,-0.064277,-0.038035,0.100755,0.543526,-18.739128,2.910812,-178.70473,-0.068296134,-0.56659085,0.040555596,0.023738898,-0.030113056,-0.026473716
20231225 03:44:37,0.961382,-0.414613,-0.987298,-0.033382,0.052520,0.069860,0.579388,-18.359047,2.886360,-178.58965,-0.04605919,-0.5133109,0.0027214885,0.028803853,0.057679594,-0.024434488
20231225 03:44:37,0.912533,-0.304438,-0.802005,0.001774,0.129225,0.031508,0.809635,-18.156242,3.143349,-177.59027,0.062108576,-0.37150955,-0.092555225,0.028696505,0.13020116,-0.019603066
20231225 03:44:37,0.803810,-0.089444,-0.633594,0.036931,0.154793,-0.004714,0.606667,-18.265877,3.148491,-178.09856,0.10938713,-0.123691976,-0.13175225,0.026249493,0.15371713,-0.01944525
20231225 03:44:37,0.627024,0.139612,-0.554179,0.066761,0.134552,-0.032413,0.861233,-18.336205,2.753700,-176.66638,0.025010675,0.13550197,-0.07354948,0.022493942,0.1342084,-0.02122636
20231225 03:44:37,0.478828,0.476210,-0.631069,0.079545,0.089807,-0.037740,0.712437,-18.067612,3.002625,-176.89713,-0.16847113,0.48994005,0.06880799,0.022509534,0.09120204,-0.03213515
20231225 03:44:37,0.396989,0.842601,-0.819872,0.065695,0.050389,-0.012172,0.791321,-18.154396,2.875107,-176.5026,-0.39909452,0.8550853,0.2359792,0.031148475,0.0511017,-0.041638352
20231225 03:44:37,0.526146,1.082683,-1.031299,0.027343,0.030148,0.012331,0.402927,-17.991722,2.592682,-178.32051,-0.49555424,1.0723851,0.22335455,0.02656953,0.030086098,-0.02869748
20231225 03:44:37,0.700764,1.262963,-1.104048,-0.029121,0.054651,0.014462,0.473225,-18.365425,2.751747,-178.33229,-0.43492368,1.2198956,0.11751181,-0.0043367036,0.05556382,0.01570366
20231225 03:44:37,0.739104,1.425508,-0.991549,-0.090911,0.123898,-0.006845,1.020798,-17.567825,2.571152,-175.78473,-0.2983674,1.3879611,0.0841887,-0.058091532,0.12534134,0.08166826
20231225 03:44:37,0.672129,1.443611,-0.514536,-0.125002,0.213388,-0.046263,0.551723,-18.260330,2.343750,-177.71172,0.047931224,1.4411684,-0.14033592,-0.11583958,0.21352182,0.130633
20231225 03:44:37,0.408856,1.332119,0.160965,-0.116479,0.296485,-0.091007,0.588352,-18.264030,2.880249,-177.19537,0.3547537,1.3382689,-0.36185008,-0.15592301,0.29551905,0.15703768
20231225 03:44:37,0.095129,1.224399,0.800887,-0.052558,0.376386,-0.118706,1.045891,-18.224731,2.480316,-175.13399,0.54262424,1.1761452,-0.5688091,-0.14279357,0.37878382,0.14510475
20231225 03:44:37,-0.289498,1.080464,1.430768,0.066761,0.440307,-0.128295,1.258205,-18.211967,2.749542,-174.12608,0.6274984,0.9299798,-0.7993599,-0.06886903,0.45351,0.08631262
20231225 03:44:37,-0.561889,0.994774,1.826674,0.214844,0.439241,-0.113380,1.355400,-18.300613,2.890266,-173.53532,0.63090026,0.7373507,-0.94440776,0.049488053,0.47043583,-0.0137430355
20231225 03:44:37,-0.735730,0.855497,1.822930,0.372516,0.394497,-0.070766,0.985710,-18.331680,3.156555,-174.61603,0.5214175,0.5563999,-0.836724,0.19483648,0.44323447,-0.16114435
20231225 03:44:37,-0.659756,0.898942,1.346673,0.505684,0.360406,-0.017498,1.073166,-18.131554,2.742447,-174.27286,0.34030157,0.6653688,-0.45136964,0.3152857,0.4157078,-0.30978772
20231225 03:44:37,-0.390993,1.129779,0.614332,0.570670,0.338033,0.007005,1.409576,-17.922379,3.134056,-172.50276,0.07625544,1.0147946,-0.011571139,0.34585363,0.3879078,-0.40379086
20231225 03:44:37,-0.185499,1.672810,-0.261483,0.530187,0.324184,0.007005,1.182285,-17.758881,3.790977,-172.40175,-0.5324807,1.6683395,0.4306074,0.2728909,0.36795813,-0.4100171
20231225 03:44:37,-0.268153,2.425147,-1.024896,0.369320,0.318857,0.004874,1.613308,-18.196533,3.689857,-169.01205,-1.4402797,2.5272033,0.987376,0.1362321,0.3513464,-0.28746113
20231225 03:44:37,-0.549538,2.897202,-1.471765,0.104048,0.324184,0.029377,1.252197,-17.940689,3.669563,-169.32707,-2.1804688,3.061994,1.4546899,2.5396794E-4,0.31920418,-0.07521032
20231225 03:44:37,-0.710059,3.021485,-1.437003,-0.205968,0.356144,0.097559,1.428272,-18.116119,3.682770,-169.06583,-2.231585,3.1405702,1.63914,-0.106797285,0.29353273,0.16115683
20231225 03:44:37,-0.685995,2.850568,-0.634163,-0.475502,0.407281,0.166807,0.986088,-18.523567,3.437027,-172.81245,-1.4037961,2.8041615,1.1383716,-0.22376783,0.3067527,0.3135848
20231225 03:44:37,-0.593253,2.342533,0.630990,-0.626781,0.469071,0.212617,1.321728,-17.930603,3.267693,-172.63016,-0.26010495,2.152159,0.20492506,-0.34115785,0.35782537,0.3496716
20231225 03:44:37,-0.597029,1.607196,1.904739,-0.651284,0.514881,0.227532,0.994675,-18.236664,3.150444,-174.61487,0.58509237,1.3118571,-0.9509089,-0.4076421,0.40309867,0.283077
20231225 03:44:37,-0.708617,0.936066,2.915385,-0.590559,0.519142,0.240316,1.003639,-18.141640,3.144325,-174.72351,0.97497505,0.53633815,-1.901114,-0.39897633,0.40498337,0.18180338
20231225 03:44:37,-0.938561,0.165504,3.513107,-0.472305,0.483986,0.294649,1.143082,-18.313370,2.621040,-174.62692,0.90219694,-0.30684638,-2.5440624,-0.30799586,0.37426156,0.021830857
20231225 03:44:37,-1.110688,-0.797022,4.005652,-0.301850,0.400889,0.384138,0.842537,-18.142464,2.204979,-175.94014,0.75735897,-1.2726796,-3.1779485,-0.14047024,0.31599575,-0.1900959
20231225 03:44:37,-0.951058,-1.703413,3.979574,-0.120741,0.266655,0.472562,0.685158,-18.160774,2.740494,-176.40103,0.74321896,-2.0690854,-3.3961778,0.051975742,0.2159757,-0.37311655
20231225 03:44:37,-0.556620,-2.413399,3.364341,0.055042,0.122833,0.551398,0.569653,-18.070290,2.331528,-177.26126,0.80495733,-2.6045861,-3.033463,0.24554282,0.104055755,-0.52744615
20231225 03:44:37,0.467213,-3.211486,1.742585,0.215909,-0.043361,0.599338,0.781586,-17.865639,2.320274,-177.31499,1.1083694,-3.21453,-1.9276495,0.42626083,-0.04375346,-0.6377787
20231225 03:44:37,0.772651,-3.354276,1.113563,0.220171,-0.082779,0.594011,0.781586,-17.865639,2.320274,-177.58409,1.1156318,-3.3594155,-1.4549931,0.43162075,-0.082221664,-0.6356966
20231225 03:44:37,1.341504,-3.607436,0.096217,0.154119,-0.113674,0.546071,0.227623,-18.200073,3.140419,179.48923,1.0796092,-3.725316,-0.6107015,0.35783905,-0.1024627,-0.5601505
20231225 03:44:37,2.006798,-3.577911,-0.623569,0.010297,-0.113674,0.446993,-0.205978,-18.320618,2.608086,177.30588,1.1552408,-3.9712448,-0.17566407,0.18870932,-0.06529217,-0.40042633
20231225 03:44:37,2.626443,-3.390396,-0.844937,-0.161224,-0.078518,0.286126,0.066906,-18.392799,2.481552,177.66519,1.4510638,-4.066981,-0.3617928,-0.026556239,0.011332747,-0.17429358
20231225 03:44:37,2.926217,-2.965401,-0.696617,-0.312503,-0.056146,0.080514,-0.136063,-18.502419,2.486687,176.94269,1.7306172,-3.725817,-0.7270941,-0.24111561,0.045257475,0.08957092
20231225 03:44:37,2.813431,-2.481355,-0.577611,-0.461652,-0.009270,-0.146405,0.021698,-18.676003,2.231636,178.08606,1.7285779,-3.1000519,-0.9487564,-0.466843,0.07295121,0.3710168
20231225 03:44:37,2.246477,-1.830591,-0.219654,-0.603343,0.055716,-0.362671,-0.048603,-18.302307,2.072578,178.7233,1.5485922,-2.1040256,-1.0863142,-0.69475555,0.097502574,0.64364684
20231225 03:44:37,1.355757,-1.186619,0.198475,-0.724793,0.162251,-0.538454,0.418285,-18.359879,1.947006,-178.54214,1.2074006,-1.19251,-0.984625,-0.90230393,0.16386527,0.8656122
20231225 03:44:37,0.259291,-0.610928,0.815265,-0.790845,0.322053,-0.649250,0.363728,-18.546219,1.422752,-177.97379,0.7267877,-0.64150405,-0.833225,-1.0431249,0.27948707,0.99503875
20231225 03:44:37,-1.065739,-0.123074,1.898377,-0.749296,0.464810,-0.667361,1.042549,-18.399139,1.285927,-175.23758,0.1026873,-0.6100192,-1.0328097,-1.042348,0.37917355,0.99587893
20231225 03:44:37,-2.283889,0.100703,2.982849,-0.584167,0.502097,-0.576806,1.375999,-18.556259,0.763618,-174.56789,-0.6225301,-1.0345838,-1.4578927,-0.8571045,0.4006018,0.82842463
20231225 03:44:37,-3.113816,0.044260,3.790595,-0.330614,0.408346,-0.408481,1.102734,-18.292191,0.609695,-175.62607,-1.1438541,-1.5801344,-1.9193525,-0.536524,0.34308755,0.5414016
20231225 03:44:37,-3.357136,-0.052372,3.916788,-0.033382,0.224041,-0.216718,1.357685,-18.554413,0.495377,-174.97258,-1.2765992,-1.8059838,-1.9049625,-0.16113769,0.23442551,0.22415812
20231225 03:44:37,-3.059460,-0.089105,3.158259,0.243608,0.046128,-0.033479,1.348721,-18.649437,0.501488,-174.89566,-1.1480514,-1.6211782,-1.1868535,0.18643117,0.12560533,-0.090162605
20231225 03:44:37,-2.427299,-0.161556,1.888182,0.446025,-0.060407,0.127389,1.491127,-18.454857,0.892113,-173.74136,-1.011159,-1.2011993,-0.2367047,0.44926512,0.046325542,-0.35759485
20231225 03:44:37,-1.616972,-0.449749,0.698926,0.571736,-0.112609,0.234989,1.182381,-18.762764,1.043114,-174.72258,-0.84127736,-0.94184965,0.34950268,0.6144371,-0.01042033,-0.5329313
20231225 03:44:37,-0.968698,-0.772599,-0.188820,0.646310,-0.150961,0.282930,1.218239,-18.382683,1.018661,-174.42265,-0.74454105,-0.90804,0.6973267,0.6985906,-0.063872844,-0.63698167
20231225 03:44:37,-0.389314,-1.046731,-1.106349,0.666552,-0.169072,0.295714,1.254868,-18.386375,1.555153,-173.92567,-0.8718592,-0.9333688,0.9958222,0.712108,-0.10510791,-0.67777455
20231225 03:44:37,0.118153,-1.262901,-1.846401,0.639918,-0.168007,0.269080,1.413399,-18.943741,1.861053,-173.48051,-1.0961708,-1.0599304,1.1034974,0.6555182,-0.13116674,-0.6567011
20231225 03:44:37,0.450092,-1.291232,-2.428633,0.584520,-0.147765,0.207290,1.634678,-18.835953,2.124161,-172.43831,-1.4505212,-1.0861025,1.1154602,0.5477249,-0.12626748,-0.5900806
20231225 03:44:37,0.608205,-1.261321,-2.917380,0.496096,-0.107282,0.130585,1.697815,-18.362709,2.361839,-171.51585,-1.8494978,-0.9980808,1.1473572,0.41162348,-0.08805387,-0.48282874
20231225 03:44:37,0.513337,-1.173218,-3.219512,0.370385,-0.058276,0.076252,1.106453,-18.309669,2.084549,-173.44641,-2.1656275,-0.7410635,1.3525985,0.28250897,-0.035855576,-0.3498686
20231225 03:44:37,0.283985,-1.039447,-3.258979,0.220171,-0.025250,0.064533,1.379726,-18.573730,2.238472,-171.69571,-2.2722423,-0.45775324,1.5473571,0.18306656,-0.009889141,-0.2186324
20231225 03:44:37,0.064100,-0.942741,-3.090824,0.053977,-0.036969,0.086906,1.758770,-18.639542,2.246544,-170.02713,-2.2293901,-0.37746853,1.6566628,0.106748566,-0.04426816,-0.0980138
20231225 03:44:37,0.006436,-0.908439,-2.815195,-0.125002,-0.082779,0.120997,1.555798,-18.749161,2.251678,-171.44688,-2.0239766,-0.45402002,1.6334288,0.028697379,-0.1151236,0.016586848
20231225 03:44:37,0.112942,-0.921495,-2.488165,-0.303980,-0.144569,0.135912,1.458221,-18.468643,1.830490,-172.51367,-1.6955881,-0.6037712,1.4280726,-0.076421246,-0.18940473,0.133125
20231225 03:44:37,0.192834,-0.845608,-2.097656,-0.464848,-0.197837,0.122062,1.624947,-18.547195,1.569328,-172.36086,-1.3177081,-0.61828375,1.1899216,-0.20663318,-0.24929234,0.24229592
20231225 03:44:37,0.153219,-0.780208,-1.527172,-0.586298,-0.231928,0.093298,1.430943,-18.561806,1.568352,-173.5128,-0.8697704,-0.6183549,0.9215059,-0.33610985,-0.29426813,0.32182285
20231225 03:44:37,0.021945,-0.694712,-0.936956,-0.668329,-0.275607,0.064533,1.403664,-18.654984,1.306221,-173.9137,-0.53499,-0.60121715,0.62871224,-0.4337995,-0.34732077,0.37228987
20231225 03:44:37,-0.099564,-0.670747,-0.381177,-0.686440,-0.261758,0.031508,1.597282,-18.448486,1.026733,-173.34645,-0.2574455,-0.6415663,0.29588372,-0.48841548,-0.33543953,0.3871978
20231225 03:44:37,-0.193310,-0.498154,0.121184,-0.634238,-0.204229,0.003809,1.190575,-18.283966,0.476059,-175.14682,-0.037945233,-0.52450293,-0.010693133,-0.48249054,-0.2711918,0.37113646
20231225 03:44:37,-0.284800,-0.385353,0.620460,-0.526638,-0.114740,-0.026021,1.375999,-18.556259,0.763618,-174.52411,0.16487479,-0.4624622,-0.3591277,-0.43067873,-0.16899464,0.3236038
20231225 03:44:37,-0.418308,-0.285919,1.071980,-0.381751,-0.064668,-0.061178,1.791286,-18.433876,1.027710,-172.9151,0.29218948,-0.42911658,-0.6585418,-0.3413861,-0.1062711,0.26268938
20231225 03:44:37,-0.656448,-0.166222,1.353007,-0.223014,-0.057211,-0.085681,1.833157,-18.325073,0.083221,-173.01292,0.24698848,-0.39435846,-0.7366104,-0.2251319,-0.07964761,0.19224557
20231225 03:44:37,-0.816370,0.025471,1.284757,-0.071735,-0.077452,-0.089942,1.605862,-18.161575,0.740143,-173.38754,0.089125454,-0.25722736,-0.5384906,-0.1009371,-0.07674467,0.10731552
20231225 03:44:37,-0.982128,0.234566,0.989136,0.050780,-0.095563,-0.078223,1.657467,-18.341530,0.350487,-173.28331,-0.20241743,-0.06548478,-0.14037794,0.00507674,-0.07456093,0.020703595
20231225 03:44:37,-0.984805,0.365191,0.610555,0.143466,-0.109413,-0.052655,1.894493,-18.793785,0.248398,-172.4187,-0.4251333,0.10001456,0.20532486,0.09270295,-0.07456475,-0.06317442
20231225 03:44:37,-0.956838,0.359939,0.235772,0.202060,-0.129655,-0.023890,1.930351,-18.413712,0.223946,-171.97589,-0.62034094,0.15705508,0.49321672,0.1554951,-0.089261845,-0.12906359
20231225 03:44:37,-0.817667,0.350874,-0.092064,0.224432,-0.174399,-0.008976,2.045475,-18.312309,0.352440,-171.20534,-0.7114102,0.2315493,0.66071814,0.18353325,-0.13513353,-0.16525392
20231225 03:44:37,-0.580502,0.357475,-0.392275,0.214844,-0.239385,-0.016433,1.754658,-18.430176,0.491211,-172.24362,-0.7277793,0.32835722,0.7182486,0.17072424,-0.20785736,-0.16166003
20231225 03:44:37,-0.321469,0.424930,-0.731191,0.193537,-0.293718,-0.052655,1.878750,-18.233757,0.613602,-171.35689,-0.78961295,0.46409112,0.7748375,0.12535799,-0.26673818,-0.13490032
20231225 03:44:37,-0.061520,0.597153,-0.982701,0.161577,-0.319286,-0.105922,2.133701,-18.495972,0.499283,-170.09198,-0.82178444,0.6713394,0.7562193,0.055205062,-0.2963469,-0.08816159
20231225 03:44:37,0.126126,0.800359,-1.187850,0.131747,-0.302241,-0.167712,2.036510,-18.407333,0.358551,-170.1416,-0.88970965,0.89274216,0.7366654,-0.022061758,-0.28023833,-0.029091403
20231225 03:44:37,0.092531,1.163589,-1.303319,0.099786,-0.226601,-0.216718,2.266758,-18.204536,0.615555,-168.51445,-1.0739602,1.2835691,0.85222477,-0.08769088,-0.19761544,0.0237462
20231225 03:44:37,-0.032335,1.483217,-1.219203,0.052911,-0.117936,-0.223111,2.364334,-18.485069,1.036751,-168.32462,-1.126726,1.5976748,0.95258284,-0.12776136,-0.08829064,0.07929227
20231225 03:44:37,-0.195106,1.538064,-0.776920,-0.014206,-0.061472,-0.198608,2.636452,-18.173462,0.349258,-167.44882,-0.87396663,1.5877771,0.86648977,-0.1505513,-0.040613256,0.12958567
20231225 03:44:37,-0.277854,1.310966,-0.067622,-0.087715,-0.095563,-0.163451,2.406200,-18.376266,0.092262,-169.54372,-0.366408,1.2795315,0.4119245,-0.16714832,-0.08794652,0.16387612
20231225 03:44:37,-0.266505,0.945573,0.759538,-0.121806,-0.229797,-0.149601,2.821106,-18.061989,0.075874,-168.30997,0.21481273,0.85799295,-0.24749771,-0.17169103,-0.22772673,0.15506577
20231225 03:44:37,-0.170968,0.582829,1.192250,-0.115414,-0.410906,-0.170908,3.024460,-18.144241,0.351212,-167.9591,0.5656736,0.49429885,-0.71372664,-0.1709832,-0.40741518,0.13543269
20231225 03:44:38,-0.026843,0.296353,1.243783,-0.050428,-0.540879,-0.230568,2.960556,-18.233711,-0.447403,-168.21068,0.7262799,0.23505406,-0.89670104,-0.15539476,-0.5314397,0.12188507
20231225 03:44:38,0.106843,0.200969,0.991590,0.083806,-0.530225,-0.323253,2.820721,-17.870102,-0.204590,-168.34085,0.7000507,0.1599342,-0.78738576,-0.11461729,-0.50876606,0.10884531
20231225 03:44:38,0.099510,0.332050,0.594716,0.269177,-0.360835,-0.426592,3.430397,-17.924988,0.340935,-165.73627,0.4485938,0.3073485,-0.4379905,-0.059187412,-0.32349098,0.06741887
20231225 03:44:38,-0.033960,0.590538,0.468580,0.480116,-0.072126,-0.535258,3.508892,-17.819893,-0.067047,-164.80963,0.24626115,0.5494827,-0.19610554,-9.633601E-4,0.006773893,0.04172498
20231225 03:44:38,-0.423594,1.149034,0.722048,0.694251,0.185689,-0.609832,4.188099,-17.864700,0.076599,-161.56398,0.05304706,0.99499816,0.06243801,0.060825586,0.34015155,-0.023032993
20231225 03:44:38,-0.951703,1.811832,0.999469,0.844465,0.293289,-0.622616,4.031105,-18.074898,0.892586,-161.77927,-0.275279,1.4332201,0.41528594,0.105377495,0.53021514,-0.129053
20231225 03:44:38,-1.435703,2.648809,1.048741,0.880687,0.234695,-0.556564,4.595188,-18.221107,0.907738,-158.07895,-0.77396405,2.0202434,1.0946814,0.12342441,0.51833385,-0.26918754
20231225 03:44:38,-1.753663,3.471805,0.734409,0.765629,0.051455,-0.432984,4.543201,-17.849266,1.016922,-156.06721,-1.4759457,2.6854873,1.839287,0.13096684,0.328687,-0.35260203
20231225 03:44:38,-1.942638,4.047238,0.191998,0.516338,-0.168007,-0.294489,4.791763,-17.648308,1.542160,-152.67747,-2.2497294,3.241493,2.55788,0.124821395,0.05278354,-0.31895024
20231225 03:44:38,-2.081152,4.293010,-0.280563,0.196733,-0.312894,-0.151732,5.019821,-18.195595,1.446190,-151.15553,-2.8670752,3.5097582,3.01407,0.10355878,-0.18492927,-0.17402712
20231225 03:44:38,-2.100121,4.047307,-0.472597,-0.072800,-0.262823,0.031508,5.161842,-17.809128,1.556343,-151.1214,-2.895042,3.3740282,3.0800061,0.06835703,-0.26780346,-0.029265137
20231225 03:44:38,-1.922779,3.244491,0.027212,-0.267759,-0.097694,0.242447,5.180157,-17.810982,1.824593,-154.56943,-2.0424316,2.6441875,2.3513598,0.025361076,-0.21048889,0.034867406
20231225 03:44:38,-1.621557,2.104984,0.991274,-0.367901,0.066370,0.450189,4.818657,-17.363251,1.523819,-158.52475,-0.9084371,1.5443118,0.99556285,0.01571384,-0.08673965,-0.037419528
20231225 03:44:38,-1.242148,0.762162,1.819860,-0.408385,0.199538,0.629168,4.861290,-17.638237,1.140282,-161.07709,-0.0828625,0.34290564,-0.4980178,-0.0041961074,0.0592252,-0.20123547
20231225 03:44:38,-0.855086,-0.647746,2.836289,-0.415842,0.194211,0.733572,4.552166,-17.754250,1.010811,-163.83333,0.54379976,-0.9118422,-2.2063696,-0.05465275,0.099790886,-0.39293355
20231225 03:44:38,-0.300849,-2.023703,3.642065,-0.372163,0.031213,0.748487,4.286060,-18.337120,0.778267,-166.0086,1.0128157,-2.131119,-3.6767745,-0.09471384,-0.013597103,-0.547747
20231225 03:44:38,0.260819,-3.125335,3.960991,-0.243256,-0.199967,0.686697,4.339848,-17.767006,0.741585,-165.87633,1.3347261,-3.136841,-4.502778,-0.047654927,-0.20600249,-0.6222765
20231225 03:44:38,0.862406,-3.851943,3.754789,-0.002487,-0.388534,0.563116,3.818787,-18.087662,0.623367,-167.9685,1.6866789,-3.8450105,-4.55192,0.12704311,-0.3816564,-0.61300445
20231225 03:44:38,1.483804,-4.104629,2.901469,0.324575,-0.443932,0.413968,3.819553,-18.471443,1.184303,-168.68652,2.0549564,-4.156202,-3.9102774,0.40653217,-0.4651247,-0.56033444
20231225 03:44:38,1.947651,-3.994589,1.470140,0.645245,-0.343789,0.252035,3.952610,-18.179993,1.300575,-168.50522,2.0579116,-4.180108,-2.7581382,0.6684496,-0.4392113,-0.51259696
20231225 03:44:38,2.210570,-3.535025,0.121250,0.873229,-0.143504,0.106082,3.713779,-18.669701,1.330170,-169.54211,1.5989149,-3.9054632,-1.6935371,0.80538315,-0.32479858,-0.51791537
20231225 03:44:38,2.253232,-2.861811,-1.097709,0.922235,0.050389,-0.006845,3.610577,-18.309784,2.109474,-170.31622,0.7149935,-3.4582891,-0.83783644,0.75106585,-0.17111568,-0.5295456
20231225 03:44:38,2.216562,-2.546604,-1.483460,0.776283,0.144140,-0.091007,3.601231,-18.212914,1.835121,-169.07579,0.084516406,-3.205585,-0.8427205,0.5265218,-0.04477276,-0.45633137
20231225 03:44:38,1.894998,-1.575402,-2.239342,0.458809,0.146271,-0.151732,3.989620,-18.375580,2.117538,-167.00851,-0.6556872,-2.2534995,-0.20300448,0.22190174,0.038005132,-0.22301954
20231225 03:44:38,1.592203,-1.031649,-2.017012,0.049715,0.028017,-0.189019,3.874882,-18.668869,2.269508,-166.50687,-0.59952986,-1.4430106,-0.08520579,-0.105386585,-0.0015029553,0.08642015
20231225 03:44:38,1.237205,-0.780351,-1.604648,-0.361509,-0.137112,-0.196477,3.989620,-18.375580,2.117538,-165.40424,-0.36931556,-0.9780179,0.030549765,-0.40023455,-0.12591535,0.36973763
20231225 03:44:38,0.965431,-0.813005,-0.898410,-0.663003,-0.243647,-0.189019,4.465088,-18.146248,1.705391,-163.45795,0.081857085,-0.8795294,-0.18423146,-0.62575823,-0.22471882,0.5290153
20231225 03:44:38,0.793305,-0.896608,-0.003782,-0.783387,-0.239385,-0.183693,4.110752,-18.545471,1.326012,-165.3997,0.6088353,-0.9171694,-0.6593721,-0.7381011,-0.22226055,0.57008886
20231225 03:44:38,0.630148,-1.050806,1.032234,-0.730120,-0.190379,-0.203934,4.552551,-17.946136,1.291283,-163.83717,1.093024,-1.0507015,-1.4187477,-0.7220043,-0.18919328,0.52130395
20231225 03:44:38,0.429497,-1.100460,1.641969,-0.554337,-0.131785,-0.248679,5.097935,-17.898605,0.757721,-161.7585,1.247545,-1.1135596,-1.8433682,-0.6001162,-0.14083984,0.4584058
20231225 03:44:38,0.145985,-0.907688,1.929200,-0.307176,-0.058276,-0.298750,4.904697,-18.296989,1.317688,-162.62979,1.1992425,-0.9633089,-1.8525932,-0.41792306,-0.06408785,0.39165682
20231225 03:44:38,-0.178228,-0.520492,1.822010,-0.048297,0.049324,-0.321123,4.797771,-17.919601,0.622139,-161.78989,0.9312186,-0.64427435,-1.4439061,-0.22664657,0.0644833,0.28963226
20231225 03:44:38,-0.531044,-0.140376,1.543559,0.161577,0.143075,-0.314730,5.088970,-17.993622,0.763832,-160.20683,0.5180273,-0.33864725,-0.86897814,-0.07350297,0.18848191,0.17560016
20231225 03:44:38,-0.835123,0.115095,1.188154,0.295811,0.175035,-0.276378,5.247112,-18.359093,0.789261,-159.33775,0.07815182,-0.15685026,-0.2998852,0.03575073,0.24965969,0.060537234
20231225 03:44:38,-1.094975,0.251404,0.745937,0.367189,0.154793,-0.201804,5.601448,-17.959877,1.168640,-156.90854,-0.38447943,-0.0588274,0.27867115,0.12357998,0.24503353,-0.05633612
20231225 03:44:38,-1.227825,0.244037,0.366156,0.405541,0.111114,-0.092073,5.177582,-18.369179,1.191139,-158.52899,-0.71143126,-0.05222409,0.63947165,0.22157316,0.19804071,-0.17915323
20231225 03:44:38,-1.110394,0.044538,-0.127534,0.432175,0.080219,0.024050,5.222404,-17.894081,1.160576,-157.29909,-0.89197624,-0.1261972,0.868542,0.31371945,0.14809462,-0.2939945
20231225 03:44:38,-0.833507,-0.144722,-0.620966,0.432175,0.047193,0.130585,5.595058,-17.496704,1.808205,-155.11122,-0.9938072,-0.17075562,0.9475709,0.3856992,0.090773776,-0.3783327
20231225 03:44:38,-0.679722,-0.236907,-0.878094,0.398084,0.009906,0.212617,5.689678,-18.143539,1.315483,-154.99521,-1.0665927,-0.20101906,0.97118205,0.42225313,0.02924324,-0.4206965
20231225 03:44:38,-0.124182,-0.602691,-1.591706,0.333098,-0.019924,0.269080,5.319984,-18.174599,1.581772,-156.51608,-1.2309954,-0.47370368,0.88808215,0.42149645,-0.018413126,-0.41868353
20231225 03:44:38,0.071804,-0.657636,-1.784131,0.245739,-0.029512,0.302106,5.232140,-18.182838,1.715408,-157.18013,-1.3132975,-0.5898133,0.82104325,0.3902465,-0.033201795,-0.37357175
20231225 03:44:38,0.568207,-0.850970,-2.189766,0.145596,-0.006074,0.320217,5.532684,-18.353729,2.131470,-157.40248,-1.3706863,-0.89093286,0.61205393,0.34100997,-0.0029734857,-0.29958516
20231225 03:44:38,0.858283,-0.964285,-2.207154,0.036931,0.030148,0.314890,4.941326,-18.300690,1.854179,-160.48083,-1.2020347,-1.1485786,0.46624005,0.2666309,0.048286777,-0.21193239
20231225 03:44:38,1.107712,-1.057844,-2.045140,-0.054689,0.057847,0.282930,5.365959,-18.275169,2.392616,-160.85367,-0.86935574,-1.3328671,0.23384893,0.17782636,0.08834756,-0.12509608
20231225 03:44:38,1.291505,-1.125699,-1.757861,-0.118610,0.072762,0.230728,5.135330,-18.286079,1.855156,-161.47302,-0.49922806,-1.4198732,-0.04450035,0.092683755,0.10720551,-0.04757215
20231225 03:44:38,1.357586,-1.079002,-1.532607,-0.170812,0.072762,0.166807,5.117016,-18.284225,1.586906,-161.31146,-0.2502495,-1.3460206,-0.20488667,0.006846793,0.1044078,0.028888553
20231225 03:44:38,1.274689,-0.947241,-1.328084,-0.215557,0.063173,0.112474,5.198086,-17.620941,1.812363,-160.46283,-0.1228987,-1.1385405,-0.25581658,-0.06622096,0.08752268,0.09451386
20231225 03:44:38,1.084371,-0.750250,-1.203710,-0.259236,0.042932,0.079448,4.852711,-17.925148,1.426872,-160.9449,-0.16137928,-0.8746348,-0.16759676,-0.11933021,0.06130074,0.1452945
20231225 03:44:38,0.912455,-0.569688,-1.020273,-0.285870,0.066370,0.073056,5.089352,-18.185516,1.044312,-159.74225,-0.11018884,-0.6349973,-0.12097061,-0.1454297,0.07845585,0.17251474
20231225 03:44:38,0.793130,-0.369334,-0.733056,-0.276281,0.100461,0.086906,4.895348,-18.200127,1.043335,-160.5906,0.032749295,-0.41396597,-0.15810677,-0.13116975,0.11107422,0.16086033
20231225 03:44:38,0.830858,-0.278112,-0.478828,-0.251778,0.117506,0.093298,4.922630,-18.106949,1.305458,-160.9428,0.25764808,-0.316842,-0.31655505,-0.113047585,0.12770684,0.1389713
20231225 03:44:38,0.809295,-0.266717,-0.362032,-0.237929,0.117506,0.089036,5.434338,-17.689430,1.149323,-158.564,0.32516026,-0.30128732,-0.3880864,-0.10651156,0.12713271,0.13607384
20231225 03:44:38,0.826402,-0.041295,-0.160749,-0.212360,0.087676,0.064533,5.140957,-18.365479,0.654655,-159.57991,0.47907242,-0.06563237,-0.4788512,-0.105055675,0.09444489,0.12672013
20231225 03:44:38,0.701855,0.166909,-0.128456,-0.203838,0.077023,0.054945,4.771263,-18.396545,0.920944,-160.93954,0.4092775,0.15571801,-0.37022692,-0.10474948,0.080486506,0.12476103
20231225 03:44:38,0.577168,0.370877,-0.092590,-0.167616,0.045063,0.034704,5.204094,-17.892227,0.892334,-158.48984,0.3396653,0.36935228,-0.25560933,-0.09272017,0.045522507,0.10841999
20231225 03:44:38,0.533730,0.560263,-0.107416,-0.123937,0.050389,0.024050,4.921860,-17.723175,0.744514,-159.02486,0.2928006,0.56109816,-0.17486611,-0.06887512,0.05019619,0.08607089
20231225 03:44:38,0.511041,0.690918,-0.042488,-0.063212,0.072762,0.007005,5.343925,-18.255844,0.649521,-157.70363,0.31771943,0.6944471,-0.16120645,-0.039095536,0.07230655,0.0602948
20231225 03:44:38,0.388547,0.838237,-0.061723,0.008167,0.096199,-0.010041,4.964882,-18.190048,0.641449,-158.64601,0.20049945,0.84736687,-0.037592366,-0.003956263,0.09655091,0.024237683
20231225 03:44:38,0.320068,0.899118,-0.094605,0.072087,0.102591,-0.022825,5.379784,-17.875771,0.625069,-155.89034,0.10263179,0.91391003,0.060920376,0.026285948,0.10615374,-0.012407585
20231225 03:44:38,0.064287,1.182428,-0.344612,0.105113,0.097265,-0.022825,5.370819,-17.970787,0.631180,-155.26971,-0.29530728,1.2034904,0.47180343,0.044299304,0.10394496,-0.040711597
20231225 03:44:38,-0.000933,1.289695,-0.407373,0.116832,0.088742,0.003809,5.204475,-18.084114,1.172798,-155.69952,-0.4220534,1.3156374,0.5612853,0.06841606,0.095436975,-0.07099541
20231225 03:44:38,-0.109050,1.621296,-0.713600,0.100852,0.082350,0.056011,5.195129,-17.987244,0.898445,-154.76096,-0.7606093,1.6633137,0.89367855,0.0987695,0.0835529,-0.089801334
20231225 03:44:38,-0.064810,1.627487,-0.819124,0.044388,0.080219,0.114605,5.053108,-18.373703,0.788284,-155.81122,-0.7796123,1.664429,0.896577,0.114025384,0.0757709,-0.078410186
20231225 03:44:38,0.346304,1.424646,-0.908884,-0.034447,0.089807,0.134846,5.309483,-17.502068,0.465996,-154.39442,-0.51506406,1.433974,0.60958874,0.0844284,0.08851312,-0.023749843
20231225 03:44:38,0.495220,1.313673,-0.822540,-0.101564,0.129225,0.099690,5.152107,-17.520378,1.001518,-157.29755,-0.2749159,1.2845513,0.4434307,0.013002969,0.13343473,0.050052177
20231225 03:44:38,0.764891,0.826196,-0.326359,-0.123937,0.182492,0.019789,5.255695,-18.072182,0.502678,-157.7851,0.29936862,0.81104094,-0.1346811,-0.06804632,0.18441333,0.12492584
20231225 03:44:38,0.521235,0.603252,0.116890,-0.101564,0.230433,-0.060112,5.264660,-17.977165,0.496567,-157.96274,0.43679115,0.61479783,-0.28011656,-0.12128664,0.22896677,0.17266117
20231225 03:44:38,0.041825,0.479492,0.482450,-0.079192,0.242152,-0.080354,5.600681,-17.576096,0.607704,-156.56702,0.324317,0.44890726,-0.21395445,-0.12814915,0.24064453,0.17882459
20231225 03:44:38,-0.137951,0.387697,0.586102,0.016689,0.233629,-0.071831,5.355461,-17.602631,1.276848,-157.92775,0.25456738,0.32397193,-0.2032396,-0.054471564,0.23928745,0.10359888
20231225 03:44:38,-0.289009,0.210606,0.554391,0.096590,0.228302,-0.046263,5.530380,-17.202400,0.448639,-156.20802,0.1422342,0.14301527,-0.11678383,0.022921143,0.238408,0.034077015
20231225 03:44:38,-0.041376,0.285809,0.234846,0.177557,0.263459,-0.055851,5.698261,-17.856636,1.028900,-156.14238,0.12075229,0.2697368,-0.040776484,0.07151114,0.27549386,-0.0143150985
20231225 03:44:38,0.210257,0.730770,-0.202567,0.229759,0.343360,-0.109118,5.397713,-17.685730,0.612839,-154.83818,-0.059990972,0.7500263,0.15730104,0.04551612,0.35934657,-0.018161215
20231225 03:44:38,0.062241,1.706125,-0.552590,0.173296,0.400889,-0.184758,5.443302,-17.594406,1.143211,-152.41295,-0.60161895,1.7574077,0.7010141,-0.09221661,0.43239975,0.064845584
20231225 03:44:38,-0.548543,2.613826,-0.734785,0.012428,0.405150,-0.222045,5.670597,-17.757912,0.486290,-148.03261,-1.4698381,2.602266,1.567736,-0.26076248,0.4414661,0.21261269
20231225 03:44:38,-1.329562,3.314910,-0.799810,-0.233667,0.371059,-0.151732,6.212158,-16.689026,1.225731,-143.1642,-2.358958,3.0629408,2.5627682,-0.35931426,0.3445849,0.38507894
20231225 03:44:38,-1.811472,3.503214,-0.454082,-0.494678,0.361471,0.016593,5.891880,-17.650131,0.749397,-146.9755,-2.4504783,3.00563,2.7943149,-0.38010722,0.22537678,0.51070905
20231225 03:44:38,-1.615386,3.042780,0.505266,-0.690702,0.393431,0.194506,6.094849,-17.540497,0.744263,-151.44174,-1.3137939,2.5563889,1.8749194,-0.40212774,0.22102095,0.52225095
20231225 03:44:38,-1.028585,2.266616,1.736147,-0.740773,0.416869,0.256296,5.909424,-17.268204,0.456703,-154.85689,0.099928975,1.8994272,0.22412539,-0.4363037,0.2848523,0.44892395
20231225 03:44:38,-0.774917,1.823125,2.291972,-0.738643,0.477594,0.324478,5.909042,-17.076309,0.176231,-156.47708,0.5525962,1.5417746,-0.66361904,-0.44978732,0.3670024,0.34416354
20231225 03:44:38,-0.524041,0.464457,3.657746,-0.543684,0.554299,0.376680,5.881763,-17.169487,-0.085899,-158.11339,1.3113401,0.160099,-2.5377731,-0.323523,0.46218756,0.14535415
20231225 03:44:38,-0.694508,-0.506069,4.338379,-0.335941,0.536188,0.428882,5.678795,-17.279114,-0.080757,-159.80258,1.2350109,-0.8478204,-3.544048,-0.15462196,0.46283564,-0.053264976
20231225 03:44:38,-0.733587,-0.911405,4.534948,-0.229406,0.497836,0.464039,5.166317,-17.312859,-0.485573,-161.8351,1.178594,-1.25665,-3.9142296,-0.054542676,0.43634307,-0.16984311
20231225 03:44:38,-0.670628,-2.007661,4.456612,0.077414,0.260263,0.581227,5.203327,-17.508446,0.331383,-162.34503,0.9627174,-2.2503018,-4.3346105,0.25922874,0.2433862,-0.47280145
20231225 03:44:38,-0.449629,-2.343209,4.146214,0.241478,0.067435,0.631299,4.867306,-17.909515,0.220253,-163.84015,1.0337384,-2.5089793,-4.2168994,0.43559396,0.06870516,-0.63451827
20231225 03:44:38,0.157578,-2.824047,3.239385,0.303268,-0.019924,0.638756,4.541668,-17.081711,-0.104958,-164.16533,1.2762415,-2.8578231,-3.7124279,0.5010344,-0.017252352,-0.6859129
20231225 03:44:38,1.169933,-3.153055,1.676119,0.387430,-0.205294,0.575901,4.647438,-16.883438,-0.250824,-163.5313,1.647977,-3.169717,-2.7541738,0.5647328,-0.21114719,-0.7086358
20231225 03:44:38,1.462510,-3.115353,1.166897,0.378908,-0.245777,0.520503,4.586876,-16.798500,0.144943,-163.78801,1.5896428,-3.2046137,-2.4318724,0.5485746,-0.26067057,-0.6773895
20231225 03:44:38,2.193826,-2.649520,-0.181894,0.264915,-0.257496,0.282930,4.446278,-16.051109,-0.173180,-162.81378,1.4282441,-3.0426512,-1.6796142,0.33733985,-0.2678837,-0.43414563
20231225 03:44:38,2.346963,-2.350635,-0.587606,0.203125,-0.214882,0.189179,4.260853,-15.778801,-0.460747,-162.36908,1.250063,-2.858406,-1.4673847,0.2390759,-0.22266702,-0.31746328
20231225 03:44:38,2.359200,-1.690928,-1.047050,0.059303,-0.066799,-0.003649,4.136879,-17.876633,0.746719,-165.53859,0.9110868,-2.2393186,-1.047576,0.033199567,-0.07639318,-0.047925573
20231225 03:44:38,1.491322,-0.728023,-0.612460,-0.104760,0.094069,-0.180497,4.603767,-17.934204,0.621162,-161.91316,0.6918288,-0.79592544,-0.71953696,-0.1950446,0.09213231,0.21986891
20231225 03:44:38,0.454874,-0.360777,0.115935,-0.351921,0.231498,-0.339234,4.868069,-18.293289,0.781197,-161.05624,0.45046657,-0.32807514,-0.4629445,-0.50173736,0.22367397,0.5292814
20231225 03:44:38,-0.136044,-0.253060,0.506831,-0.413711,0.258132,-0.354148,4.824665,-17.634537,0.603798,-160.47333,0.2295993,-0.3223704,-0.35715654,-0.56861615,0.23586345,0.58603096
20231225 03:44:38,-1.698629,0.070621,1.916503,-0.459521,0.299681,-0.259332,4.691998,-18.117859,0.767990,-162.41963,-0.4421357,-0.6497066,-0.5942067,-0.56791824,0.21546677,0.5331041
20231225 03:44:38,-2.165029,0.069247,2.455214,-0.403058,0.286897,-0.187954,4.691231,-17.734085,0.207054,-162.68571,-0.6528119,-0.88646567,-0.8670261,-0.4828007,0.19774704,0.435228
20231225 03:44:38,-2.662462,-0.331100,3.345686,-0.075996,0.111114,0.082644,4.867306,-17.909515,0.220253,-162.78317,-0.7885133,-1.529529,-1.6390526,-0.045955144,0.07288581,-0.004546888
20231225 03:44:38,-2.391221,-0.653160,2.916198,0.050780,0.024821,0.171068,4.999973,-17.426193,0.056053,-161.886,-0.6829047,-1.6740206,-1.4753491,0.118836015,0.01256356,-0.16035274
20231225 03:44:38,-2.013343,-0.784113,2.365312,0.276634,-0.125393,0.318086,4.682266,-17.829102,0.213165,-162.36781,-0.34135842,-1.4297634,-0.99695706,0.41596746,-0.10895843,-0.43669963
20231225 03:44:38,-1.090403,-1.004510,0.965974,0.464136,-0.208490,0.422490,4.497608,-17.940590,0.486549,-162.7711,-0.2514559,-1.2450551,-0.37989473,0.63950187,-0.18035029,-0.64693755
20231225 03:44:38,-0.154581,-1.255343,-0.201905,0.489704,-0.205294,0.424621,4.321533,-17.765160,0.473343,-162.70396,-0.176851,-1.2499776,-0.044999227,0.6578722,-0.19393522,-0.6698975
20231225 03:44:39,0.776480,-1.617844,-1.661527,0.475854,-0.124328,0.368158,3.933910,-17.986259,0.751862,-164.3602,-0.6254896,-1.7185516,0.32540405,0.59362394,-0.1301138,-0.6080961
20231225 03:44:39,1.021912,-1.708577,-1.955083,0.446025,-0.089171,0.329805,4.358162,-17.768860,1.009834,-163.13638,-0.80418813,-1.9873483,0.25886607,0.5378839,-0.10025712,-0.5564599
20231225 03:44:39,1.364038,-1.775387,-2.333650,0.348013,-0.038035,0.232858,3.775764,-17.620789,0.726425,-164.97551,-0.8966578,-2.2087388,0.29123473,0.40292448,-0.05137268,-0.4125241
20231225 03:44:39,1.492841,-1.838347,-2.481211,0.227628,-0.024185,0.112474,3.636703,-17.640945,1.530190,-166.57225,-0.94300157,-2.3110876,0.31577456,0.23499075,-0.037720785,-0.24334002
20231225 03:44:39,1.419724,-1.815034,-2.495359,0.111505,-0.025250,-0.011106,4.218330,-17.405235,1.252647,-163.46829,-0.9761926,-2.20208,0.28511596,0.06702937,-0.03748951,-0.07768943
20231225 03:44:39,1.064675,-1.470172,-2.205225,0.014559,-0.028446,-0.122968,4.236263,-17.215195,1.240425,-161.98514,-0.91246766,-1.564692,0.3555597,-0.08008416,-0.03249834,0.06375369
20231225 03:44:39,0.632417,-1.159018,-1.920347,-0.079192,-0.031643,-0.233764,4.067348,-17.886711,1.148598,-162.4701,-0.92817044,-1.0881946,0.55825746,-0.22329293,-0.02720256,0.2041108
20231225 03:44:39,0.446943,-1.017624,-1.813054,-0.101564,-0.029512,-0.255071,4.439232,-17.105568,1.235283,-159.98996,-0.9494038,-0.89173627,0.60743004,-0.2528866,-0.020690113,0.23159915
20231225 03:44:39,0.060013,-0.756696,-1.605821,-0.145244,-0.003943,-0.278509,4.260971,-17.680206,0.869110,-160.65863,-1.0272005,-0.5712172,0.8294442,-0.29915795,0.011014082,0.28558284
20231225 03:44:39,-0.339344,-0.478820,-1.260679,-0.182531,0.035474,-0.279574,4.349197,-17.863876,1.015945,-160.8333,-1.0313605,-0.33256775,0.97733754,-0.3266045,0.04831894,0.324893
20231225 03:44:39,-0.678102,-0.290040,-0.808379,-0.203838,0.061043,-0.260398,4.994347,-17.346794,1.256554,-158.06071,-0.9914379,-0.27107567,0.93163604,-0.33149794,0.06580195,0.332332
20231225 03:44:39,-0.841578,-0.198548,-0.293671,-0.205968,0.048259,-0.235895,4.428078,-17.950661,0.888428,-161.32532,-0.7894795,-0.29507408,0.71754354,-0.31363904,0.04727564,0.31543145
20231225 03:44:39,-1.041535,-0.143389,0.040422,-0.195315,0.000318,-0.207130,4.718891,-17.832802,0.749649,-160.36923,-0.7473514,-0.33861622,0.6068312,-0.27893323,-0.0034184419,0.27517098
20231225 03:44:39,-1.151165,-0.144520,0.338402,-0.169747,-0.064668,-0.173039,4.657173,-17.172188,0.304001,-160.13194,-0.656098,-0.4115237,0.44977006,-0.22754842,-0.06777249,0.21662462
20231225 03:44:39,-1.093220,-0.121898,0.390956,-0.123937,-0.128589,-0.134687,4.957718,-17.343094,0.720062,-159.07257,-0.5762813,-0.352601,0.38844603,-0.16177967,-0.12743422,0.14080352
20231225 03:44:39,-0.877066,-0.112741,0.288505,-0.058950,-0.163746,-0.103792,5.205894,-16.950264,0.964836,-157.61163,-0.47105455,-0.28410873,0.33144107,-0.08918849,-0.15582037,0.06376396
20231225 03:44:39,-0.610334,-0.139665,0.056556,0.001774,-0.173334,-0.083550,5.221642,-17.510300,0.599632,-157.9795,-0.40665388,-0.22124863,0.323576,-0.033712562,-0.16135469,0.0082030445
20231225 03:44:39,-0.329477,-0.259087,-0.223846,0.033735,-0.189314,-0.073962,4.930824,-17.628151,0.738403,-159.2686,-0.36917743,-0.27005965,0.30724543,-0.005961694,-0.17701635,-0.020867303
20231225 03:44:39,-0.077444,-0.365528,-0.473521,0.031604,-0.231928,-0.082485,5.064262,-17.528610,1.135147,-158.714,-0.34889826,-0.33370823,0.27896708,-0.014946077,-0.22164781,-0.026859965
20231225 03:44:39,0.139827,-0.370479,-0.852882,-0.012075,-0.291587,-0.100595,5.090775,-17.051659,0.836334,-157.63744,-0.47650385,-0.317586,0.36449745,-0.06367883,-0.28617904,-0.004328005
20231225 03:44:39,0.400358,-0.498178,-1.086550,-0.071735,-0.288391,-0.137883,5.621185,-16.827866,1.228920,-155.98685,-0.46340913,-0.45932773,0.28209603,-0.1403395,-0.2865204,0.056438062
20231225 03:44:39,0.615721,-0.477818,-0.988501,-0.115414,-0.283065,-0.203934,5.036602,-17.429893,0.592545,-158.55565,-0.24874297,-0.46768317,0.10170835,-0.22337222,-0.2825148,0.14243156
20231225 03:44:39,0.725665,-0.368021,-0.869449,-0.145244,-0.272411,-0.298750,5.388363,-17.588852,0.338478,-157.32965,-0.08015901,-0.36699077,-0.027647614,-0.31167632,-0.27231717,0.22368601
20231225 03:44:39,0.630023,-0.069867,-0.572560,-0.129263,-0.253235,-0.404220,5.424610,-17.400673,0.594498,-156.88887,0.052541137,-0.043384805,-0.08293158,-0.36923423,-0.24720958,0.28519857
20231225 03:44:39,0.370591,0.295775,-0.367886,-0.082388,-0.239385,-0.495840,5.751663,-17.094620,0.711739,-154.67322,-0.015301615,0.3370948,0.061319828,-0.3945893,-0.2148515,0.3023663
20231225 03:44:39,-0.008337,0.679062,-0.342114,-0.022729,-0.213817,-0.564022,5.839897,-17.278275,0.858582,-153.66913,-0.31979814,0.7061384,0.42460752,-0.39913344,-0.15711434,0.299276
20231225 03:44:39,-0.461331,1.109982,-0.321615,0.043323,-0.156288,-0.590656,6.033516,-17.071777,0.579086,-151.37457,-0.7101495,1.0717472,0.88993096,-0.37395892,-0.05854553,0.26751864
20231225 03:44:39,-0.838767,1.423058,-0.236872,0.095525,-0.110478,-0.566153,5.848862,-17.183258,0.852470,-152.20515,-0.9962732,1.2812041,1.2082927,-0.31951952,0.012574576,0.23320034
20231225 03:44:39,-1.166966,1.531220,-0.113306,0.115767,-0.099825,-0.496905,6.236485,-16.962151,0.573952,-150.19728,-1.1857263,1.2743438,1.4391719,-0.24931812,0.026006564,0.17635894
20231225 03:44:39,-1.363431,1.551530,0.151848,0.112571,-0.146700,-0.396762,6.324326,-16.953926,0.440315,-150.39578,-1.167768,1.1828208,1.4174118,-0.16253906,-0.037110813,0.11056399
20231225 03:44:39,-1.221694,1.289569,0.505887,0.109375,-0.251104,-0.291293,6.475697,-16.664330,0.824829,-150.54195,-0.7570393,0.95261526,0.986484,-0.07486756,-0.17555018,0.017984107
20231225 03:44:39,-1.079910,1.155774,0.507579,0.117897,-0.380011,-0.216718,6.430489,-16.947540,0.574928,-151.19481,-0.6125118,0.8786843,0.8285439,-0.0034027845,-0.31897,-0.07671538
20231225 03:44:39,-0.470156,0.829663,0.106280,0.136008,-0.482285,-0.189019,6.881248,-16.253189,0.534088,-148.21329,-0.36274093,0.7454056,0.57708085,0.025147244,-0.4347386,-0.16202258
20231225 03:44:39,-0.254425,0.771586,-0.082612,0.145596,-0.509984,-0.206065,7.154133,-16.325371,0.407539,-147.027,-0.30750048,0.7498782,0.52358043,0.0022942722,-0.47357216,-0.17734475
20231225 03:44:39,0.108480,0.666883,-0.402993,0.154119,-0.451390,-0.259332,6.572887,-16.752975,0.965561,-150.55,-0.2646941,0.70044714,0.38883823,-0.047965586,-0.41946456,-0.10906398
20231225 03:44:39,0.094171,0.685176,-0.365144,0.178622,-0.333136,-0.331776,6.961281,-16.915642,1.247978,-149.75475,-0.24839173,0.71606845,0.3904398,-0.088305816,-0.2928715,-0.046221957
20231225 03:44:39,-0.198642,0.708444,0.116035,0.219106,-0.219144,-0.395697,6.979210,-16.725601,1.235756,-149.65903,-0.12741509,0.67206407,0.32294703,-0.099014655,-0.15883069,0.010193586
20231225 03:44:39,-0.343745,0.676344,0.338716,0.286222,-0.132851,-0.447899,7.127621,-16.802315,0.706352,-149.35988,-0.10282008,0.58781326,0.27153283,-0.072753266,-0.0465617,0.04077877
20231225 03:44:39,-0.648820,0.675198,0.811600,0.391692,-0.111544,-0.495840,7.385147,-16.506348,1.225479,-148.29904,-0.0471043,0.4515301,0.18145812,-0.015685141,0.01803251,0.010276496
20231225 03:44:39,-0.978236,0.814934,0.927320,0.503553,-0.148831,-0.529931,7.534328,-16.966835,1.257027,-147.5762,-0.2399478,0.45831102,0.41361707,0.04339984,0.03524182,-0.07422647
20231225 03:44:39,-1.288781,1.186535,0.540131,0.572801,-0.203164,-0.539519,8.046421,-16.741196,1.381363,-142.7449,-0.76776755,0.7449172,1.1374863,0.06142363,0.0440294,-0.20833308
20231225 03:44:39,-1.592600,1.955364,-0.132088,0.560017,-0.234059,-0.488382,8.286404,-16.827156,2.193184,-137.92897,-1.6511449,1.4861221,2.1211293,0.053190142,0.05682403,-0.31785336
20231225 03:44:39,-1.824775,2.748625,-0.960618,0.435371,-0.211686,-0.365867,8.127876,-16.269798,1.887283,-132.12408,-2.724586,2.3893304,2.9953744,0.039766133,0.046686642,-0.31605762
20231225 03:44:39,-1.931851,3.305984,-1.347776,0.188210,-0.170138,-0.200738,8.454933,-15.963745,2.004532,-128.72374,-3.296001,3.013033,3.451673,0.011582568,-0.03205248,-0.1634166
20231225 03:44:39,-1.857964,3.473004,-1.094393,-0.118610,-0.127524,-0.049459,8.191013,-15.796547,2.124962,-132.93588,-3.0177755,3.131662,3.38289,-0.062093753,-0.12718144,0.06469719
20231225 03:44:39,-1.800471,3.317597,-0.015436,-0.370032,-0.082779,0.077318,8.197407,-16.259720,1.485405,-138.55074,-2.028861,2.7330616,2.7948687,-0.15837437,-0.17839766,0.21303684
20231225 03:44:39,-1.846635,2.770404,1.306924,-0.484024,-0.031643,0.216878,7.969345,-15.712440,1.581383,-143.01634,-1.0093105,2.0100846,1.7324928,-0.19657134,-0.17371847,0.19889155
20231225 03:44:39,-1.664941,1.873048,2.544340,-0.489351,-0.027381,0.355373,7.932716,-15.708740,1.044891,-146.15504,-0.060930967,1.1464201,0.18073237,-0.1692988,-0.16827,0.056341454
20231225 03:44:39,-1.280434,0.636701,3.191421,-0.436084,-0.041231,0.481085,7.650871,-15.731583,1.177551,-149.67151,0.5124433,0.12130579,-1.387316,-0.115811765,-0.15415321,-0.13932592
20231225 03:44:39,-0.824293,-0.604686,3.750764,-0.314634,-0.059342,0.575901,7.413845,-15.279320,1.279648,-151.54759,0.93178964,-0.89877105,-2.8565273,-0.027630925,-0.12585652,-0.34145468
20231225 03:44:39,-0.278664,-1.800158,3.853633,-0.158028,-0.104086,0.612122,7.138771,-15.957222,1.053207,-154.4088,1.2174423,-1.9116663,-3.844202,0.08315769,-0.12944508,-0.49538696
20231225 03:44:39,0.373451,-2.731821,3.579716,0.030539,-0.137112,0.589750,6.813904,-15.513191,1.288940,-155.72562,1.4980192,-2.7322671,-4.2757316,0.21737634,-0.13720205,-0.5726044
20231225 03:44:39,1.077111,-3.407053,3.152283,0.254262,-0.152027,0.497065,6.653572,-15.897804,0.910538,-157.13394,1.8746984,-3.4080646,-4.3595543,0.38349918,-0.15809964,-0.5683788
20231225 03:44:39,1.536831,-3.799647,2.530812,0.490769,-0.158419,0.344720,6.108189,-15.945328,1.444092,-159.5595,2.0831733,-3.8567984,-3.986158,0.5644185,-0.19793166,-0.5053023
20231225 03:44:39,1.766357,-3.743174,1.635156,0.714492,-0.159484,0.182787,6.568302,-15.347839,1.677620,-157.71748,2.0339048,-3.8576674,-3.371389,0.7233754,-0.24530406,-0.47117925
20231225 03:44:39,1.772379,-3.330116,0.421677,0.868968,-0.106217,0.052815,6.392609,-15.364296,1.944885,-158.00941,1.5020735,-3.5010362,-2.2888095,0.7787723,-0.22064193,-0.49601302
20231225 03:44:39,1.673344,-2.622447,-0.719601,0.904124,-0.046557,-0.019629,6.235233,-15.382607,2.480392,-158.40036,0.58892107,-2.9010746,-1.2626259,0.6958716,-0.17871095,-0.5550826
20231225 03:44:39,1.704498,-1.870181,-1.560735,0.798655,-0.034839,-0.067570,6.225498,-15.093849,1.925568,-155.97334,-0.22767961,-2.321754,-0.7817889,0.49551278,-0.16249298,-0.5474831
20231225 03:44:39,1.698078,-1.037747,-2.377689,0.577062,-0.030577,-0.085681,6.104366,-14.923973,2.717102,-156.14932,-1.1031473,-1.6994236,-0.37053442,0.2598694,-0.12517665,-0.43263495
20231225 03:44:39,1.597538,-0.323728,-2.762361,0.257458,-0.016728,-0.077158,6.102562,-15.865929,2.644600,-155.22478,-1.5379419,-1.0333527,-0.13847876,0.06575418,-0.0611476,-0.18762589
20231225 03:44:39,1.484950,0.113219,-2.768058,-0.131394,-0.029512,-0.054786,6.165699,-15.392685,2.882271,-154.13965,-1.5349637,-0.47152233,0.050453544,-0.11893192,-0.025016569,0.13120061
20231225 03:44:39,1.319657,0.222465,-2.304163,-0.529834,-0.049753,-0.029217,6.432190,-15.001701,3.395287,-153.79958,-1.0668261,-0.1040429,0.18980074,-0.33732733,-0.014323496,0.433023
20231225 03:44:39,1.120947,0.083172,-1.246668,-0.841981,-0.051884,-0.015368,6.226654,-15.669518,2.766983,-155.01138,-0.14208883,-0.017639343,-0.025321841,-0.5876854,-0.017984575,0.6103781
20231225 03:44:39,0.840988,-0.118079,0.098269,-0.971954,-0.017793,-0.008976,5.978088,-15.870468,2.241737,-156.55498,0.7042681,-0.13139182,-0.64724946,-0.74878544,-8.114617E-4,0.6278131
20231225 03:44:39,0.676514,-0.386550,1.348835,-0.924013,0.017364,-0.027086,6.177719,-15.935249,1.042213,-155.64589,1.327709,-0.38687047,-1.5253384,-0.7727714,0.016276047,0.55561453
20231225 03:44:39,0.428081,-0.551851,2.294421,-0.740773,0.040801,-0.068635,6.286835,-15.562561,2.090744,-155.9202,1.586508,-0.5778976,-2.194666,-0.6653935,0.02249423,0.4595256
20231225 03:44:39,0.136747,-0.628298,2.831634,-0.462717,0.056781,-0.106988,6.171329,-15.472084,1.681778,-155.89642,1.5834059,-0.6994319,-2.5101824,-0.45368358,0.038185313,0.34084153
20231225 03:44:39,-0.129029,-0.569516,2.909042,-0.153766,0.069566,-0.130425,5.923149,-15.864914,1.437004,-156.70044,1.436067,-0.7085114,-2.3988924,-0.20221981,0.063913465,0.20606834
20231225 03:44:39,-0.336937,-0.389350,2.509519,0.129616,0.093003,-0.118706,6.444210,-15.544258,1.555229,-153.80402,1.1372974,-0.5703771,-1.8223363,0.035960093,0.11140706,0.05003007
20231225 03:44:39,-0.429065,-0.188473,1.815807,0.337359,0.117506,-0.075027,6.444981,-15.928032,2.116173,-153.82486,0.74702096,-0.36461836,-1.1165885,0.21722606,0.15577316,-0.10612407
20231225 03:44:39,-0.393851,-0.188268,1.059939,0.455613,0.114310,-0.012172,6.277485,-15.465698,1.816383,-152.9746,0.37248415,-0.3066062,-0.5506268,0.33705962,0.15785134,-0.23866694
20231225 03:44:39,-0.258832,-0.310068,0.310138,0.493965,0.082350,0.060272,6.305531,-15.756302,2.639458,-153.3986,0.032409936,-0.3519048,-0.14071143,0.40401608,0.11802086,-0.33964357
20231225 03:44:39,0.035665,-0.522039,-0.311959,0.475854,0.030148,0.127389,6.154163,-16.045898,2.254944,-154.13934,-0.15954825,-0.5034388,0.014669865,0.43400973,0.049074516,-0.3977548
20231225 03:44:39,0.349772,-0.812686,-0.815402,0.408737,-0.045492,0.166807,6.429237,-15.367996,2.481369,-152.93872,-0.30539554,-0.7968176,0.012477279,0.41017622,-0.042077504,-0.4060019
20231225 03:44:39,0.657742,-1.104550,-1.227323,0.313921,-0.121132,0.182787,5.750412,-15.515076,2.618195,-156.56126,-0.4301851,-1.1575989,0.022911072,0.3478958,-0.12482512,-0.3744522
20231225 03:44:39,0.995112,-1.324111,-1.611789,0.209517,-0.165876,0.166807,5.758995,-15.228165,2.331612,-156.85434,-0.55225146,-1.5223911,-0.037015438,0.25181058,-0.16792673,-0.30263588
20231225 03:44:39,1.333448,-1.518714,-1.859103,0.106179,-0.179726,0.115670,5.935837,-15.787376,2.905746,-158.42537,-0.55769384,-1.847968,-0.1423794,0.13617432,-0.17619905,-0.1971178
20231225 03:44:39,1.415308,-1.516345,-2.103649,-0.003552,-0.190379,0.045357,5.768341,-15.325035,2.605965,-158.42151,-0.73897386,-1.9483941,-0.07285488,0.0046841707,-0.1806795,-0.07427664
20231225 03:44:39,1.419114,-1.529745,-2.151452,-0.091976,-0.114740,-0.030283,5.662186,-15.331413,2.471352,-158.39285,-0.78208375,-1.9567611,-0.059985995,-0.09938859,-0.105727084,0.057729278
20231225 03:44:39,1.338670,-1.296023,-1.962313,-0.128198,0.015233,-0.094203,5.680500,-15.333267,2.739601,-158.1159,-0.6385035,-1.6143216,-0.06425488,-0.15410519,0.01772381,0.15722273
20231225 03:44:39,1.205230,-1.053461,-1.571616,-0.142048,0.133486,-0.155994,5.301071,-15.075577,2.451057,-158.13335,-0.34273642,-1.2224251,-0.116110444,-0.20201176,0.13189512,0.23754042
20231225 03:44:39,0.848853,-0.838777,-1.115464,-0.161224,0.173970,-0.206065,5.698044,-14.951332,2.446899,-155.30109,-0.19387096,-0.851489,-0.13141692,-0.25857586,0.17367147,0.29778716
20231225 03:44:39,0.383245,-0.467523,-0.778801,-0.184661,0.161186,-0.216718,5.353058,-15.447426,2.341881,-155.86234,-0.25812316,-0.40928873,0.09419957,-0.29146144,0.16243698,0.3168366
20231225 03:44:39,-0.025253,-0.071623,-0.506748,-0.199576,0.127094,-0.181562,5.698429,-15.143227,2.727371,-153.56624,-0.37136763,-0.029996373,0.31293377,-0.2792548,0.12503707,0.29591098
20231225 03:44:39,-0.285302,0.185248,-0.374981,-0.203838,0.099395,-0.109118,5.619549,-15.056442,2.854889,-153.44533,-0.4839921,0.1933339,0.49619186,-0.22982314,0.08914237,0.2451303
20231225 03:44:39,-0.377117,0.264102,-0.336828,-0.193184,0.089807,-0.017498,5.741447,-15.610092,2.624306,-153.75536,-0.5282854,0.2579889,0.5627128,-0.15704806,0.07191558,0.17625551
20231225 03:44:39,-0.267203,0.209785,-0.238089,-0.167616,0.089807,0.061337,5.680500,-15.333267,2.739601,-154.06564,-0.37446523,0.20545982,0.40529352,-0.08383797,0.06892133,0.10691622
20231225 03:44:39,-0.112396,0.086270,-0.254855,-0.137786,0.089807,0.122062,5.176601,-15.080109,2.048203,-155.7646,-0.2632826,0.09512733,0.27023444,-0.019816242,0.07194341,0.042859517
20231225 03:44:39,0.083699,-0.084786,-0.245702,-0.109022,0.083415,0.158284,5.556026,-15.337799,2.336746,-155.41571,-0.10545725,-0.06996322,0.07796755,0.026880696,0.07127736,-0.003459029
20231225 03:44:39,0.360638,-0.200276,-0.330236,-0.077061,0.082350,0.168938,5.485340,-14.772202,1.897209,-155.13069,0.03685312,-0.1891061,-0.09253441,0.059293993,0.07841063,-0.032836914
20231225 03:44:39,0.612650,-0.286819,-0.405207,-0.039774,0.079154,0.147631,5.325779,-15.540596,2.079742,-157.42389,0.15735301,-0.30014977,-0.23411107,0.074610725,0.08156551,-0.04882115
20231225 03:44:39,0.846735,-0.272757,-0.573139,-0.004618,0.098330,0.100755,5.212845,-14.891922,2.304222,-157.45273,0.18331185,-0.316379,-0.3002612,0.07111257,0.10150007,-0.03578481
20231225 03:44:39,0.932526,-0.057792,-0.697392,0.032670,0.137748,0.038965,5.142929,-14.710106,2.425629,-157.30461,0.13396436,-0.10688225,-0.24959812,0.055009767,0.13787022,-0.011880744
20231225 03:44:39,0.824569,0.221429,-0.766085,0.068891,0.194211,-0.013237,5.097717,-14.993317,2.175728,-156.44795,-0.01565522,0.21700574,-0.08238578,0.03689624,0.19398902,0.008976138
20231225 03:44:39,0.513401,0.521548,-0.726628,0.101917,0.235760,-0.031348,5.116417,-15.187057,2.724442,-156.21684,-0.22696373,0.5588882,0.18779643,0.035734233,0.23941469,0.0044460464
20231225 03:44:39,0.251360,0.775630,-0.648959,0.127486,0.235760,-0.018564,5.080173,-15.375244,2.468422,-155.47392,-0.3767805,0.82337344,0.39722013,0.05450902,0.24241066,-0.023242777
20231225 03:44:39,0.117332,1.044104,-0.730143,0.139204,0.217649,0.015527,4.933563,-14.356560,3.070328,-154.67384,-0.57162344,1.1011518,0.601346,0.08286272,0.22386445,-0.059040196
20231225 03:44:39,0.073147,1.186922,-0.856236,0.126420,0.211257,0.060272,4.870426,-14.829811,2.832642,-154.93262,-0.71915674,1.2514848,0.7268956,0.10870556,0.21317461,-0.07838353
20231225 03:44:39,0.133290,1.270509,-0.887453,0.102983,0.215518,0.105017,4.756069,-15.314987,3.265091,-156.86966,-0.693296,1.3267211,0.7025302,0.13284591,0.21337985,-0.08859012
20231225 03:44:39,0.279455,1.166381,-0.755050,0.084872,0.232564,0.128454,4.737373,-15.121262,2.716377,-156.95082,-0.45646417,1.2063047,0.512079,0.14316913,0.2297103,-0.08290045
20231225 03:44:40,0.408503,1.101739,-0.528384,0.076349,0.242152,0.123128,4.437595,-15.334129,2.861259,-159.27785,-0.16741718,1.1242964,0.26072395,0.1367931,0.24045783,-0.077282116
20231225 03:44:40,0.469526,1.023235,-0.225789,0.094460,0.265590,0.103951,4.342587,-14.495415,3.073509,-159.28978,0.112984955,1.0421538,0.03134808,0.13223946,0.26476276,-0.072672494
20231225 03:44:40,0.432755,0.969520,-0.001002,0.138139,0.281570,0.086906,4.139618,-14.605042,3.078651,-160.32436,0.25598136,0.9833524,-0.09624134,0.1468085,0.28272653,-0.092765525
20231225 03:44:40,0.403033,0.807711,0.188256,0.188210,0.296485,0.075187,4.218884,-14.883713,3.231598,-160.80579,0.38892055,0.8134686,-0.22871642,0.17512332,0.29967362,-0.116897374
20231225 03:44:40,0.456371,0.645260,0.227584,0.240412,0.311400,0.054945,4.572838,-14.292618,3.330505,-158.89328,0.461254,0.65130633,-0.3133402,0.19732681,0.31660864,-0.1300003
20231225 03:44:40,0.445981,0.587273,0.227781,0.301137,0.380647,0.026181,3.858154,-14.819771,3.491768,-162.41252,0.453063,0.5941831,-0.3462879,0.21547796,0.39002088,-0.15202922
20231225 03:44:40,0.366609,0.565614,0.412698,0.393823,0.477594,-0.005780,4.124260,-14.236893,3.724319,-160.69415,0.52221996,0.5619361,-0.40238076,0.25075388,0.4962783,-0.16284922
20231225 03:44:40,0.195615,0.733667,0.652613,0.491835,0.543645,-0.035609,3.700394,-14.646187,3.746819,-162.18068,0.5456357,0.6957604,-0.41776836,0.27967727,0.57909304,-0.20999238
20231225 03:44:40,-0.096708,1.110630,0.810459,0.547233,0.525535,-0.052655,3.894783,-14.823471,4.028267,-160.44153,0.40709928,1.001238,-0.19245505,0.27310404,0.5796012,-0.2525977
20231225 03:44:40,-0.359301,1.783213,0.535392,0.515272,0.436045,-0.043067,3.445824,-14.575859,4.141609,-160.35002,-0.090550125,1.6208841,0.34000915,0.22212975,0.4978429,-0.28487805
20231225 03:44:40,-0.684404,2.357714,0.067563,0.384234,0.317792,-0.001518,3.957535,-14.158333,3.985474,-155.14369,-0.8492431,2.155687,1.0970969,0.15388931,0.36561668,-0.23443425
20231225 03:44:40,-0.871904,2.582128,-0.460701,0.179688,0.246413,0.091167,3.784801,-13.808495,5.166656,-155.08064,-1.4576005,2.4474432,1.5652592,0.11547041,0.2434664,-0.13708133
20231225 03:44:40,-0.724948,2.467897,-0.562910,-0.024859,0.284766,0.190245,3.430084,-14.015823,4.506805,-158.13748,-1.3344411,2.4119847,1.416444,0.08356944,0.23731703,-0.01969511
20231225 03:44:40,-0.317196,2.327940,0.017919,-0.180400,0.393431,0.225401,3.227116,-14.125458,4.511948,-161.82361,-0.46972573,2.2658975,0.6889458,0.014053136,0.3431973,0.084657684
20231225 03:44:40,-0.028909,2.133461,0.994430,-0.293327,0.453091,0.179591,3.148232,-14.038658,4.639458,-163.5189,0.5003383,2.0172067,-0.21491635,-0.111491084,0.4060108,0.18599507
20231225 03:44:40,-0.167301,1.903850,1.961818,-0.350856,0.444568,0.122062,3.271938,-13.650360,4.481377,-162.81898,1.0133947,1.662467,-0.83962864,-0.21814713,0.38876143,0.25142053
20231225 03:44:40,-0.501446,1.462735,2.646719,-0.326353,0.426457,0.119932,2.936298,-14.243309,4.650711,-164.74217,1.1186941,1.0806243,-1.347012,-0.22269487,0.3632361,0.20594823
20231225 03:44:40,-0.865253,0.962599,3.069773,-0.261367,0.439241,0.188114,2.732944,-14.161049,4.375381,-165.35376,0.99098814,0.43863806,-1.6675508,-0.15161029,0.3661832,0.09948437
20231225 03:44:40,-1.064795,0.391258,3.274702,-0.191054,0.485051,0.305302,2.239166,-14.388542,4.519287,-167.42215,0.8508099,-0.19796231,-1.9904429,-0.05042468,0.40337974,-0.05331847
20231225 03:44:40,-1.264970,-0.199102,3.725829,-0.132459,0.469071,0.450189,1.914291,-13.944511,4.755013,-168.30948,0.76454175,-0.8594941,-2.5451052,0.054241,0.3807062,-0.23157607
20231225 03:44:40,-1.320423,-0.955598,3.927700,-0.117545,0.330576,0.602534,2.089600,-13.736160,4.207268,-168.18097,0.6215339,-1.5430397,-3.0262372,0.12729302,0.24586596,-0.41472316
20231225 03:44:40,-1.091580,-1.845852,4.127551,-0.131394,0.063173,0.717592,1.744995,-14.424133,4.382721,-170.6078,0.68830717,-2.257764,-3.6102066,0.14848086,-0.004857827,-0.59244865
20231225 03:44:40,-0.498283,-2.709859,3.933070,-0.145244,-0.266019,0.766598,1.683662,-13.955421,4.217545,-171.67323,0.95813966,-2.8857598,-3.8596573,0.13206081,-0.30656862,-0.70022744
20231225 03:44:40,0.298185,-3.374899,3.319359,-0.131394,-0.571774,0.744226,1.144287,-14.274223,3.831070,-175.2602,1.3897728,-3.390499,-3.4870768,0.12302991,-0.579106,-0.7025386
20231225 03:44:40,1.119009,-3.749140,2.173062,-0.103695,-0.744361,0.644083,0.828381,-13.735176,4.060692,-178.06541,1.6830366,-3.7619526,-2.542284,0.10015336,-0.7150048,-0.5933104
20231225 03:44:40,1.861077,-3.826410,0.840209,-0.066408,-0.685766,0.484281,0.925194,-13.631927,3.920937,-179.42339,1.741927,-4.022507,-1.538837,0.07285865,-0.6235415,-0.4256404
20231225 03:44:40,2.348535,-3.638952,-0.164892,-0.040839,-0.429017,0.275472,0.334984,-14.154556,4.485069,176.68391,1.5907104,-4.0786476,-0.7303003,0.033397168,-0.3720643,-0.20449647
20231225 03:44:40,2.363065,-3.365478,-0.666734,-0.051493,-0.094498,0.043226,0.343567,-13.867645,4.198479,177.43312,1.3593816,-3.8247693,-0.4485513,-0.03490159,-0.07672487,-0.008653656
20231225 03:44:40,1.732745,-3.149379,-0.425556,-0.102630,0.178231,-0.173039,0.456501,-14.516327,3.974007,-179.42651,1.1830609,-3.2734575,-0.5050878,-0.16718498,0.17805988,0.20267707
