Timestamp,linacce_x,linacce_y,linacce_z,gyro_x,gyro_y,gyro_z,X-magnetometer,Y-magnetometer,Z-magnetometer,Yaw, worldXAccel,worldYAccel,worldZAccel,worldXgyro,worldYgyro,worldZgyro
20231225 03:44:06,0.104634,1.489807,-1.122591,-0.875007,0.794002,0.036834,-3.076244,-31.315941,-0.859253,170.88596,-0.86123705,1.5399971,0.47587806,-0.5642972,0.75963575,0.5704923
20231225 03:44:06,0.098211,1.664380,-2.538318,0.372516,0.052520,-0.387174,-3.260899,-31.427422,-0.585876,167.32918,-2.283649,1.821923,0.9189045,-0.16553588,0.08913939,-0.15322123
20231225 03:44:07,-0.067123,2.317811,-2.788696,0.113636,0.142009,-0.420200,-2.794395,-31.293106,-0.991913,167.69368,-2.861854,2.7220824,1.0469576,-0.34327057,0.21604136,0.06631217
20231225 03:44:07,-0.415594,2.774627,-2.720987,-0.189988,0.305008,-0.437246,-2.370144,-31.075691,-0.733940,170.00537,-3.111509,3.2119837,1.373973,-0.5275732,0.36613622,0.34155214
20231225 03:44:07,-1.035105,3.006667,-2.147009,-0.513854,0.455222,-0.430853,-2.372715,-31.633881,-1.367386,170.46468,-3.0989814,3.2634516,1.7260658,-0.7404637,0.4635368,0.62064785
20231225 03:44:07,-1.734381,2.915281,-1.307661,-0.824936,0.573475,-0.397828,-2.381680,-31.728897,-1.361275,171.87718,-2.8857381,2.694329,1.9129585,-0.9658159,0.46115524,0.844657
20231225 03:44:07,-2.484421,2.650291,-0.019993,-1.059312,0.610762,-0.320057,-2.321114,-31.813843,-1.757042,172.66995,-2.499901,1.7601904,1.5357056,-1.1253498,0.35875675,0.91958964
20231225 03:44:07,-3.118715,2.094312,1.470628,-1.106188,0.519142,-0.176235,-1.951805,-31.590889,-2.303802,173.61124,-2.1312222,0.61318755,0.57998765,-1.0969958,0.17918812,0.77243876
20231225 03:44:07,-3.353626,1.316796,2.396454,-0.952777,0.356144,0.005939,-1.946178,-31.670280,-3.504303,172.97339,-1.832919,-0.26715073,-0.2734233,-0.8634384,0.042168424,0.4833099
20231225 03:44:07,-2.947249,0.571877,2.760184,-0.674722,0.163316,0.163611,-1.812740,-31.570732,-3.107559,174.06648,-1.2783138,-0.6855074,-0.8982488,-0.52582455,-0.051410124,0.19147304
20231225 03:44:07,-2.237729,-0.010136,2.495062,-0.334876,-0.017793,0.252035,-2.552895,-31.249092,-3.135918,172.7139,-0.68147266,-0.8325117,-0.9743304,-0.16003,-0.124306336,-0.040732145
20231225 03:44:07,-1.422748,-0.177441,1.775140,0.012428,-0.120066,0.304237,-2.500526,-31.812820,-2.964630,173.21329,-0.22286123,-0.58138233,-0.68334717,0.18578266,-0.14722885,-0.24806404
20231225 03:44:07,-0.659756,-0.217263,0.929074,0.313921,-0.161615,0.327674,-2.906849,-31.840187,-3.234833,172.17311,0.028295636,-0.35578573,-0.32924643,0.45759988,-0.15248166,-0.4295979
20231225 03:44:07,-0.095733,-0.271592,-0.033535,0.548298,-0.170138,0.325544,-2.843327,-31.558830,-2.716675,172.36107,-0.082491025,-0.27458876,0.11462611,0.6366014,-0.15470485,-0.58206654
20231225 03:44:07,0.369120,-0.284190,-0.932475,0.693185,-0.154158,0.304237,-3.028366,-31.478424,-2.723770,171.60893,-0.38231254,-0.27481934,0.43484187,0.7104545,-0.1512261,-0.68255544
20231225 03:44:07,0.766131,-0.212336,-1.746915,0.752845,-0.138177,0.274407,-3.167431,-31.498581,-1.920006,170.91649,-0.8234599,-0.3191973,0.57493734,0.69438934,-0.15481131,-0.7317299
20231225 03:44:07,1.040964,-0.116461,-2.410642,0.717688,-0.119001,0.241381,-2.885582,-31.475746,-2.052666,171.2782,-1.2918739,-0.41770172,0.6181085,0.6129117,-0.14664742,-0.7054099
20231225 03:44:07,1.235000,-0.090125,-2.903551,0.604762,-0.111544,0.194506,-3.369629,-31.991989,-1.353935,169.39264,-1.6785761,-0.6368257,0.59663165,0.48252016,-0.14165542,-0.5958069
20231225 03:44:07,1.362597,-0.065691,-3.254925,0.437502,-0.120066,0.128454,-3.288563,-31.328705,-1.128471,169.02461,-1.9608939,-0.819058,0.5728624,0.31869936,-0.14467248,-0.42452523
20231225 03:44:07,1.402883,0.046563,-3.473354,0.228694,-0.124328,0.043226,-3.587955,-31.733467,-0.703117,167.33739,-2.1895728,-0.806645,0.5081531,0.12779173,-0.13915311,-0.20456193
20231225 03:44:07,1.341341,0.167532,-3.461118,0.009232,-0.114740,-0.057982,-3.297142,-31.615608,-0.841888,168.29684,-2.2152195,-0.5059454,0.55870414,-0.062383644,-0.122795284,0.032912306
20231225 03:44:07,1.055801,0.311812,-3.178508,-0.194250,-0.093433,-0.161320,-3.439545,-31.810181,-1.232521,168.07277,-2.089324,0.051777393,0.7393248,-0.24612124,-0.095702775,0.25891513
20231225 03:44:07,0.575750,0.467762,-2.662702,-0.344464,-0.065734,-0.244417,-3.334156,-31.420021,-1.658852,168.5544,-1.8635465,0.57777953,0.9745494,-0.39537936,-0.06557346,0.42706367
20231225 03:44:07,0.015625,0.643352,-2.044451,-0.439280,-0.035904,-0.299816,-3.324806,-31.516891,-1.384499,169.54759,-1.6447979,0.8531054,1.1649536,-0.5020392,-0.04069144,0.5314247
20231225 03:44:07,-0.433253,0.819967,-1.420861,-0.484024,-0.042296,-0.327515,-3.230564,-31.971832,-2.157684,169.77483,-1.4532495,0.9525157,1.1487203,-0.55441725,-0.05464794,0.5816933
20231225 03:44:07,-0.887771,0.908471,-0.908780,-0.507462,-0.067864,-0.337103,-2.964462,-31.388947,-1.925140,170.88107,-1.4109291,0.8919351,1.1623453,-0.5748189,-0.09176669,0.60435843
20231225 03:44:07,-1.341127,0.971830,-0.394184,-0.498939,-0.122197,-0.313665,-2.709892,-31.459290,-2.319931,171.40784,-1.4133168,0.7429027,1.1112705,-0.543859,-0.15585029,0.5834315
20231225 03:44:07,-1.663640,1.045786,0.002861,-0.458456,-0.196771,-0.263594,-2.658287,-31.639244,-2.709587,171.35345,-1.434457,0.627972,1.0108138,-0.46710503,-0.23527658,0.5241877
20231225 03:44:07,-1.872767,1.089556,0.255807,-0.426495,-0.236189,-0.230568,-2.561863,-31.344109,-3.129807,171.10626,-1.4491086,0.5557679,0.94664615,-0.41428077,-0.27429223,0.48234516
20231225 03:44:07,-1.906871,1.177325,0.278439,-0.292262,-0.306502,-0.114445,-2.252735,-31.228104,-3.000328,171.9369,-1.4531398,0.65943813,0.9719399,-0.22769862,-0.333127,0.31324592
20231225 03:44:07,-1.622511,1.309582,0.166184,-0.184661,-0.297980,-0.054786,-2.289364,-31.224403,-3.536827,171.37616,-1.2901652,0.938146,0.8642325,-0.117135815,-0.3124043,0.19922642
20231225 03:44:07,-1.218868,1.330362,-0.022609,-0.079192,-0.263888,-0.049459,-2.261700,-31.323120,-2.994217,172.09175,-1.075673,1.1230202,0.7471138,-0.051107638,-0.2624475,0.11631568
20231225 03:44:07,-0.915491,1.350666,-0.228177,0.013493,-0.209556,-0.103792,-2.323032,-30.854401,-3.159393,171.63101,-0.9751563,1.24131,0.67983466,-0.03642804,-0.1905418,0.082636654
20231225 03:44:07,-0.793548,1.488828,-0.343631,0.092329,-0.149896,-0.184758,-2.517422,-30.677124,-3.440842,170.56877,-0.9947091,1.4066606,0.64495075,-0.048809253,-0.109573305,0.07362668
20231225 03:44:07,-0.968444,1.738399,-0.326986,0.165838,-0.100890,-0.246548,-2.119297,-31.128548,-2.603584,172.25285,-1.1802657,1.5990378,0.7745154,-0.048049867,-0.03150038,0.05200153
20231225 03:44:07,-1.299243,1.922621,-0.320176,0.224432,-0.076387,-0.254006,-2.251965,-31.611885,-2.439392,171.88152,-1.4648023,1.6968046,1.0016421,-0.019738093,0.013619136,0.0063275844
20231225 03:44:07,-1.318531,1.911206,-0.453190,0.259589,0.007775,-0.202869,-2.331612,-31.141312,-2.872810,171.2889,-1.5509148,1.7237259,1.0832146,0.027096212,0.08534606,-0.058383435
20231225 03:44:07,-1.028774,1.937441,-0.059551,0.306464,0.075958,-0.141079,-2.330849,-31.525085,-2.311867,172.42043,-1.005597,1.7847954,0.6103722,0.100561336,0.1314792,-0.13272023
20231225 03:44:07,-0.622163,1.711347,0.396161,0.335228,0.081284,-0.105922,-1.562378,-30.427818,-2.509819,174.75075,-0.32607946,1.6059238,0.03452435,0.16148028,0.12054515,-0.16187418
20231225 03:44:07,-0.267389,1.233237,0.787398,0.330967,-0.009270,-0.114445,-1.615780,-31.189819,-2.192665,175.32199,0.24368584,1.163349,-0.48835307,0.17384996,0.019945756,-0.13230413
20231225 03:44:07,-0.001525,0.745404,1.042508,0.303268,-0.172268,-0.182627,-1.758186,-31.384384,-2.583298,175.2072,0.6295937,0.7053999,-0.85179996,0.12590769,-0.15143666,-0.03977798
20231225 03:44:07,0.218497,0.385921,1.021615,0.277700,-0.339528,-0.323253,-1.579540,-31.001625,-1.936646,175.8686,0.8024794,0.3667975,-0.9510512,0.021094635,-0.32258022,0.09486155
20231225 03:44:07,0.230623,0.386065,0.867105,0.275569,-0.457782,-0.492644,-1.051315,-31.527916,-1.897041,177.03282,0.7219652,0.3587355,-0.8220211,-0.09141438,-0.42084178,0.21123034
20231225 03:44:07,-0.136899,0.733467,0.514235,0.287288,-0.505722,-0.606636,-1.279377,-30.980644,-1.801064,175.97581,0.19005674,0.67052704,-0.31315953,-0.1645695,-0.42290133,0.2642325
20231225 03:44:07,-0.564179,1.118561,0.038084,0.259589,-0.503592,-0.646054,-0.372108,-31.572731,-1.753387,178.11937,-0.5067392,1.0265206,0.355703,-0.2149343,-0.38076025,0.2706235
20231225 03:44:07,-0.832598,1.436550,-0.207492,0.183949,-0.472697,-0.623681,-0.202812,-31.093102,-1.381104,178.59384,-0.92031777,1.3272575,0.73989904,-0.2663255,-0.3432378,0.279882
20231225 03:44:07,-0.870239,2.219020,-0.281025,0.060369,-0.405580,-0.546976,0.227448,-31.146973,-2.043159,179.44406,-1.0965995,2.1130705,0.84045756,-0.31852752,-0.30766296,0.29860786
20231225 03:44:07,-0.699853,2.905637,0.108662,-0.074931,-0.333136,-0.450030,0.237183,-31.435738,-1.488327,179.93748,-0.7410222,2.773891,0.47595835,-0.34846157,-0.2763664,0.3402605
20231225 03:44:07,-0.662528,3.188887,0.417177,-0.235798,-0.266019,-0.355214,0.324638,-31.235611,-1.902428,179.98004,-0.52684605,3.014119,0.244111,-0.3848002,-0.24089456,0.40812486
20231225 03:44:07,-0.777240,3.079572,0.771468,-0.443541,-0.183987,-0.231633,0.234612,-31.993919,-2.121765,179.66325,-0.34512633,2.8565803,0.030591547,-0.44724512,-0.20339425,0.48316878
20231225 03:44:07,-0.775593,2.067788,1.774263,-0.753557,-0.110478,-0.072896,0.782181,-31.196320,-2.302353,-178.87419,0.33266842,1.7969247,-0.8399536,-0.6161495,-0.18627131,0.535194
20231225 03:44:07,-0.750084,1.624654,2.130235,-0.831328,-0.075322,-0.039871,0.782181,-31.196320,-2.302353,-178.89275,0.5214418,1.3504856,-1.2379105,-0.68486273,-0.163529,0.5263316
20231225 03:44:07,-0.736381,0.558960,2.964016,-0.900575,-0.011401,-0.002583,0.930595,-31.273026,-2.831757,-178.75372,0.7777537,0.28443703,-2.201218,-0.7833631,-0.11149719,0.44726035
20231225 03:44:07,-0.801468,-0.713929,3.715578,-0.822805,0.021625,-0.007910,0.682415,-31.665871,-3.076523,-179.34627,0.72340614,-0.96296525,-3.121974,-0.7625367,-0.06656243,0.3263638
20231225 03:44:07,-0.725559,-1.867508,4.372862,-0.587363,-0.050819,-0.072896,0.354591,-31.588127,-3.754715,179.87453,0.6223022,-2.0732012,-3.9721837,-0.5815833,-0.11049841,0.23977086
20231225 03:44:07,-0.686850,-2.890225,4.622038,-0.196380,-0.243647,-0.167712,0.584072,-31.001556,-4.058662,-179.6702,0.4889009,-3.0543761,-4.344839,-0.22438636,-0.2577724,0.2080099
20231225 03:44:07,-0.469199,-3.243556,3.998650,0.273438,-0.437540,-0.241221,0.911510,-30.887405,-3.660950,-178.8633,0.65405685,-3.3660653,-3.8023908,0.21231458,-0.40583777,0.15380901
20231225 03:44:07,-0.282953,-2.910065,2.742775,0.726211,-0.517441,-0.248679,0.978855,-31.627396,-4.415794,-178.79716,0.75113064,-3.0032253,-2.5390456,0.61361074,-0.44893548,-0.02394414
20231225 03:44:07,-0.156463,-2.393184,1.337579,1.086299,-0.486546,-0.182627,1.406830,-31.427467,-2.682968,-177.43552,0.53069675,-2.4407146,-1.2235215,0.9081661,-0.40769678,-0.33869803
20231225 03:44:07,0.154995,-1.883336,-0.011668,1.295107,-0.403449,-0.053720,1.327568,-31.148788,-2.835922,-177.00871,0.1481042,-1.8793263,-0.15927848,1.0417659,-0.37550712,-0.7080234
20231225 03:44:07,0.648140,-1.437089,-1.261959,1.310022,-0.302241,0.103951,0.985535,-31.278572,-2.027023,-176.99431,-0.4419742,-1.5424172,0.44490972,1.0248005,-0.3762241,-0.9668487
20231225 03:44:07,1.345565,-1.125590,-2.076600,1.148089,-0.236189,0.240316,1.022545,-31.474167,-1.210060,-176.5139,-0.7384351,-1.6506299,0.39244533,0.9176553,-0.36923304,-1.0106343
20231225 03:44:07,1.989340,-1.029217,-2.594822,0.841269,-0.212752,0.320217,0.847622,-31.874405,-0.381851,-177.49066,-0.7583078,-2.149175,0.21165454,0.7245387,-0.31537887,-0.8468951
20231225 03:44:07,2.523298,-1.170943,-2.726592,0.431110,-0.231928,0.333001,0.680515,-31.603951,-0.401161,-177.9533,-0.35274518,-2.7273393,0.07197046,0.4384532,-0.23544583,-0.5466896
20231225 03:44:07,2.950876,-1.431748,-2.477065,-0.006748,-0.317156,0.266950,0.522369,-31.238487,-0.426598,-178.36125,0.2928201,-3.1249957,-0.15174961,0.047515646,-0.18799818,-0.20117621
20231225 03:44:07,3.165702,-1.664690,-2.025288,-0.410515,-0.418364,0.134846,0.628147,-31.040215,-0.572456,-178.06413,0.90648067,-3.1908336,-0.40816224,-0.36690605,-0.18637004,0.13650906
20231225 03:44:07,3.119690,-1.730180,-1.377606,-0.701355,-0.465239,-0.019629,0.600864,-31.133377,-0.834587,-177.9799,1.4083762,-2.9184282,-0.7377143,-0.6893432,-0.20344,0.40943012
20231225 03:44:07,2.854938,-1.604365,-0.659291,-0.833458,-0.429017,-0.177301,0.413639,-31.803055,-1.194649,-178.26364,1.7178154,-2.407749,-1.0988464,-0.8622757,-0.21315962,0.604067
20231225 03:44:07,2.406883,-1.408904,-0.211297,-0.833458,-0.277738,-0.325384,0.809845,-31.295036,-1.759758,-177.21739,1.6834153,-1.8855764,-1.2315518,-0.9052914,-0.14413539,0.72529435
20231225 03:44:07,1.726450,-1.064169,0.161554,-0.762080,-0.038035,-0.467075,0.958256,-31.371750,-2.289154,-177.08252,1.4294809,-1.2291446,-1.1619895,-0.89289963,0.009520698,0.8163022
20231225 03:44:07,0.715855,-0.649097,0.671279,-0.651284,0.213388,-0.573610,1.239719,-31.157021,-2.702286,-177.12611,0.97498494,-0.64664954,-0.9855003,-0.86340296,0.2109398,0.8505865
20231225 03:44:07,-0.361915,-0.200323,1.394073,-0.494678,0.396627,-0.611963,1.724922,-31.216438,-2.559601,-176.79205,0.47871304,-0.3406778,-0.96775746,-0.77692133,0.38348323,0.80119133
20231225 03:44:07,-1.414588,-0.001301,1.997365,-0.303980,0.476529,-0.575741,1.730930,-31.487717,-3.479637,-177.87726,-0.15536308,-0.50566626,-0.93154085,-0.6135649,0.47582594,0.6636765
20231225 03:44:07,-2.212626,0.089404,2.466482,-0.082388,0.445633,-0.481990,2.058372,-31.373566,-3.081917,-177.52661,-0.7142223,-0.820312,-0.9909022,-0.37107313,0.47695667,0.47294658
20231225 03:44:07,-2.833915,0.049778,2.664332,0.175426,0.293289,-0.333907,1.997036,-30.904839,-3.247093,-178.13924,-1.1754149,-1.2145277,-0.8553163,-0.05810298,0.38319856,0.20677128
20231225 03:44:07,-3.062995,0.088032,2.245978,0.425783,0.093003,-0.135752,2.121891,-31.092201,-2.563766,-177.48402,-1.4734312,-1.2575233,-0.24590409,0.2734459,0.23976623,-0.11066176
20231225 03:44:07,-2.615474,-0.007712,1.161471,0.623938,-0.034839,0.065599,2.298351,-31.459518,-2.270088,-176.51033,-1.4565213,-0.9100136,0.61267465,0.54637665,0.116903566,-0.42369008
20231225 03:44:07,-1.720893,-0.039029,0.062090,0.750714,-0.100890,0.211552,2.334980,-31.463219,-1.733604,-175.38475,-1.264604,-0.3827624,1.0664617,0.72081816,0.0134300105,-0.6535202
20231225 03:44:07,-0.922336,-0.248272,-0.910623,0.796524,-0.122197,0.290387,1.859127,-31.500664,-1.601921,-175.83926,-1.2543154,-0.24809304,1.2813623,0.78428805,-0.054208722,-0.7706351
20231225 03:44:07,-0.199564,-0.432644,-1.718473,0.770956,-0.077452,0.314890,2.044167,-31.581078,-1.594833,-174.4437,-1.3870752,-0.34647116,1.2604785,0.75210655,-0.056607522,-0.78872645
20231225 03:44:07,0.429142,-0.526967,-2.294344,0.684663,0.018429,0.295714,1.764889,-31.045723,-0.828728,-174.62013,-1.5204561,-0.58168226,1.0761049,0.6615345,0.013010342,-0.71595037
20231225 03:44:07,0.824113,-0.558345,-2.527581,0.558952,0.128160,0.243512,1.526447,-31.727325,-0.518669,-175.33502,-1.5180827,-0.8149973,0.8749805,0.54562926,0.11161019,-0.5833772
20231225 03:44:07,1.040637,-0.646319,-2.619937,0.414064,0.226172,0.173199,1.430019,-32.022453,-0.098450,-175.93529,-1.4353952,-0.9764712,0.79905814,0.4154119,0.2088993,-0.42084032
20231225 03:44:07,1.040673,-0.732723,-2.410108,0.281961,0.283701,0.099690,1.599316,-31.542831,0.273842,-175.67802,-1.2195842,-0.98962045,0.71830374,0.28008726,0.27121013,-0.26584208
20231225 03:44:07,0.945951,-0.783029,-2.165872,0.176492,0.302877,0.032573,1.141396,-31.390244,0.393295,-176.98244,-1.0414392,-0.9416493,0.6888046,0.15708746,0.2955462,-0.14357594
20231225 03:44:07,0.779997,-0.739924,-1.887847,0.107244,0.298615,-0.015368,1.641953,-31.817810,-0.109703,-175.59354,-0.8883343,-0.79353374,0.6494274,0.066910066,0.29615742,-0.05368528
20231225 03:44:07,0.626320,-0.620719,-1.652644,0.080610,0.284766,-0.039871,1.414661,-31.654312,0.547218,-176.27017,-0.8006502,-0.6196597,0.61934984,0.024619807,0.2848198,-0.020385422
20231225 03:44:07,0.442313,-0.445298,-1.553210,0.077414,0.289027,-0.045197,1.686779,-31.342712,-0.140266,-175.38182,-0.84541965,-0.3868539,0.68187165,0.009548251,0.29221308,-0.011912119
20231225 03:44:07,0.285714,-0.165135,-1.348680,0.090198,0.299681,-0.037740,1.660267,-31.819664,0.158546,-175.48814,-0.81274855,-0.097002655,0.6676715,0.01879578,0.3041794,-0.027059615
20231225 03:44:07,0.268288,0.084482,-1.265420,0.108309,0.324184,-0.021760,1.829563,-31.340034,0.530830,-174.87592,-0.78726923,0.15560153,0.62259495,0.038646266,0.32901374,-0.04917693
20231225 03:44:07,0.213581,0.262883,-1.221606,0.117897,0.365732,-0.001518,1.511852,-31.742950,0.687950,-175.7373,-0.805555,0.35310918,0.63957846,0.051496826,0.37101695,-0.07118257
20231225 03:44:07,0.067622,0.411574,-1.045529,0.117897,0.409412,0.021920,1.265865,-31.385719,0.796150,-176.35158,-0.7738121,0.49830097,0.6501989,0.060724802,0.4135583,-0.08628371
20231225 03:44:07,-0.050860,0.516779,-0.805135,0.121093,0.431784,0.060272,1.714821,-31.633324,0.682808,-175.23265,-0.6784299,0.58590037,0.6020561,0.08353919,0.43279287,-0.10631169
20231225 03:44:07,-0.161148,0.606478,-0.468852,0.144531,0.415804,0.110343,1.715206,-31.825211,0.963280,-175.26831,-0.5119262,0.63312936,0.46950397,0.13613743,0.41417345,-0.1574899
20231225 03:44:07,-0.178858,0.569339,-0.361323,0.170099,0.362536,0.175330,1.099522,-31.499046,1.337776,-176.73308,-0.44161615,0.5836035,0.39892846,0.20610029,0.357306,-0.22969349
20231225 03:44:07,-0.119158,0.479909,-0.365143,0.194602,0.275178,0.232858,1.706242,-31.920227,0.969391,-175.35704,-0.38700387,0.49791026,0.36073923,0.27934614,0.2690528,-0.28530866
20231225 03:44:07,0.161979,0.372063,-0.614371,0.203125,0.175035,0.265884,1.293526,-31.484436,1.338753,-176.36978,-0.37210014,0.4078412,0.29805452,0.3249607,0.17043462,-0.3203715
20231225 03:44:07,0.517572,0.373891,-0.923013,0.200995,0.096199,0.268015,0.693584,-31.718300,1.348053,-178.12813,-0.38361114,0.37325796,0.1943577,0.3347124,0.09624739,-0.3234203
20231225 03:44:07,0.891354,0.450513,-1.239070,0.181818,0.050389,0.250969,0.781815,-31.901962,1.494888,-178.06429,-0.4161774,0.36695936,0.05953288,0.3116454,0.05508189,-0.29610392
20231225 03:44:07,1.183931,0.676833,-1.536971,0.147727,0.041867,0.229662,0.693584,-31.718300,1.348053,-178.41425,-0.504763,0.45468962,-0.07255328,0.27548867,0.053145252,-0.25230137
20231225 03:44:07,1.475297,0.946345,-1.836872,0.080610,0.103657,0.209421,0.657726,-32.098373,1.372505,-178.72743,-0.5847787,0.5329749,-0.23186606,0.23193052,0.12467887,-0.18004028
20231225 03:44:08,1.660621,1.302059,-1.901610,-0.029121,0.224041,0.182787,0.633022,-31.633354,1.743813,-179.1384,-0.45080173,0.7910451,-0.35017705,0.17127874,0.2526917,-0.073039465
20231225 03:44:08,1.743296,1.335311,-1.598073,-0.168681,0.324184,0.154023,0.535824,-31.544716,1.603088,-179.30798,-0.05799651,0.89830077,-0.46636122,0.07099312,0.35903308,0.048690327
20231225 03:44:08,1.702283,1.001086,-0.711635,-0.313569,0.352948,0.122062,0.411739,-31.741142,1.480713,-179.51642,0.7441129,0.7454306,-0.7630867,-0.08595208,0.39331225,0.14975725
20231225 03:44:08,1.841164,0.376314,0.323428,-0.422234,0.310334,0.064533,0.375492,-31.929329,1.224686,-179.63573,1.650229,0.16619703,-1.4380962,-0.24573365,0.36806774,0.2261159
20231225 03:44:08,2.366202,-0.373400,1.449637,-0.470175,0.236825,-0.057982,0.314159,-31.460609,1.059517,-179.82658,2.7108345,-0.61436725,-2.5165954,-0.3953097,0.30805585,0.3087098
20231225 03:44:08,2.901556,-1.108984,2.174351,-0.398796,0.170774,-0.277443,0.453220,-31.440453,0.255753,-179.22246,3.4290433,-1.4451421,-3.292707,-0.45952025,0.21883303,0.433864
20231225 03:44:08,3.167705,-1.778925,2.681738,-0.185727,0.143075,-0.556564,0.807941,-31.233124,0.915604,-178.86205,3.7965581,-2.1365826,-3.7991524,-0.3825389,0.12360439,0.5854487
20231225 03:44:08,3.067188,-1.995915,2.788494,0.151989,0.203799,-0.862319,1.396732,-31.844353,0.559448,-177.5144,3.7814708,-2.2604504,-3.9242482,-0.2152761,0.098447226,0.71633923
20231225 03:44:08,2.461881,-1.264197,2.673447,0.537645,0.329511,-1.139310,1.750683,-31.253242,0.658356,-176.36986,3.4568415,-1.3127824,-3.6516876,-0.16311279,0.22489281,0.6662197
20231225 03:44:08,1.048156,0.841105,2.133432,0.849792,0.479725,-1.300178,2.554745,-31.485413,1.485336,-173.17546,2.1833823,0.7401873,-2.1538835,-0.38352817,0.6550116,0.32042497
20231225 03:44:08,-1.283808,4.277224,1.252564,1.020247,0.558560,-1.252237,3.155453,-31.635323,2.036980,-168.24155,-1.3738018,3.0397172,0.86966103,-0.57092726,1.2191414,-0.102695346
20231225 03:44:08,-3.974597,6.956293,0.038901,0.927562,0.479725,-0.992292,3.800217,-30.926361,1.997116,-165.16673,-6.2134924,3.460352,4.289992,-0.38522142,1.2763665,-0.20348048
20231225 03:44:08,-5.646817,7.090516,-0.882335,0.540841,0.231498,-0.600244,4.152752,-31.469109,2.304001,-164.84903,-8.246656,2.4347155,6.1910963,-0.1525832,0.7735212,-0.087973714
20231225 03:44:08,-5.741144,6.156628,-1.360479,0.065695,-0.006074,-0.117641,4.101532,-31.481033,2.974121,-163.55415,-7.8685474,2.303001,6.462284,-0.02124124,0.09965781,0.007975902
20231225 03:44:08,-4.171106,5.142247,-1.180412,-0.306111,-0.009270,0.273342,4.101151,-31.289146,2.693657,-163.6685,-5.656937,3.3380811,4.9029193,0.02183704,-0.24578983,0.1133652
20231225 03:44:08,-2.155410,4.389972,-0.144046,-0.542618,0.102591,0.451255,3.589054,-31.514793,2.569313,-167.57199,-2.630237,3.7009487,2.3830516,-0.0046551228,-0.1459027,0.19512218
20231225 03:44:08,-0.819806,3.272019,1.147061,-0.674722,0.221910,0.464039,3.334103,-31.252571,2.683632,-170.47757,-0.25694174,2.8973734,0.19127166,-0.16798547,0.045480624,0.20177081
20231225 03:44:08,-0.416892,1.777856,2.347389,-0.719466,0.281570,0.439536,3.243683,-31.818985,2.183823,-172.13528,0.91803,1.4370329,-1.3702168,-0.3245521,0.13054073,0.13712302
20231225 03:44:08,-0.344899,0.365856,3.180956,-0.669395,0.306073,0.468300,2.961067,-31.458038,1.755531,-173.33852,1.3362669,0.053973913,-2.4648507,-0.34935957,0.17521118,-0.0113529265
20231225 03:44:08,-0.224358,-0.808589,3.699666,-0.554337,0.309269,0.551398,2.439621,-31.586815,1.356842,-174.86246,1.4600031,-1.0322086,-3.2742767,-0.27382952,0.2137863,-0.22400633
20231225 03:44:08,0.220915,-1.941897,3.905574,-0.405189,0.309269,0.595077,2.236649,-31.696442,1.361977,-175.52057,1.6966579,-2.0381007,-3.8429952,-0.16819793,0.25834042,-0.3801803
20231225 03:44:08,0.579603,-2.752910,3.999040,-0.269889,0.284766,0.573770,1.548481,-31.746643,1.224434,-176.96605,1.8570714,-2.7889545,-4.111044,-0.080871895,0.25933072,-0.4445032
20231225 03:44:08,0.717438,-3.408198,3.971761,-0.137786,0.216584,0.517306,1.557831,-31.843521,1.498795,-177.0155,1.749881,-3.4193661,-4.1892786,-0.0032212734,0.20438178,-0.45312726
20231225 03:44:08,0.810331,-4.118590,3.895426,0.035866,0.099395,0.428882,1.566029,-31.364723,0.931740,-177.02844,1.6367602,-4.116045,-4.1824865,0.12344226,0.0971597,-0.42135218
20231225 03:44:08,0.833736,-4.561961,3.641477,0.265981,-0.061472,0.302106,1.108871,-31.595909,1.612129,-177.86794,1.5585663,-4.555304,-3.8981338,0.32015622,-0.054299608,-0.35019782
20231225 03:44:08,0.904229,-4.687343,2.921763,0.526991,-0.212752,0.162546,1.330925,-31.871910,2.436188,-177.45781,1.5538261,-4.6779075,-3.248985,0.5512043,-0.1981936,-0.28322464
20231225 03:44:08,0.890799,-4.399081,1.899973,0.796524,-0.293718,0.024050,1.145500,-31.599609,2.148628,-177.7251,1.4842491,-4.3875923,-2.2472982,0.7676898,-0.2676136,-0.2815335
20231225 03:44:08,0.884511,-3.618672,0.620501,0.981895,-0.306502,-0.082485,1.463974,-31.580467,2.552460,-176.87807,1.1526244,-3.5918126,-1.1375251,0.833447,-0.26367366,-0.40572503
20231225 03:44:08,0.819953,-2.667341,-0.733674,1.010659,-0.283065,-0.140013,1.121944,-31.710258,3.361351,-177.02968,0.27709985,-2.5800836,-0.077724755,0.69325405,-0.21956488,-0.55888087
20231225 03:44:08,0.685887,-1.692424,-1.986047,0.877491,-0.160550,-0.171974,1.660934,-31.199562,3.467346,-174.71779,-0.9958471,-1.4758596,0.5802853,0.418299,-0.08921213,-0.59544516
20231225 03:44:08,0.612484,-0.764684,-2.628049,0.609023,0.046128,-0.201804,1.387016,-32.453125,4.082336,-174.31262,-1.7603343,-0.33313066,0.83456516,0.1495912,0.12726063,-0.4059694
20231225 03:44:08,0.273769,-0.112773,-2.657228,0.277700,0.249609,-0.224176,1.653889,-32.254021,4.875824,-172.25299,-1.9929007,0.5049016,1.1774975,-0.08733252,0.32822686,-0.09649182
20231225 03:44:08,-0.258119,0.060707,-1.899145,-0.017402,0.374255,-0.210326,1.829193,-32.045670,4.328079,-172.33946,-1.5648322,0.47183117,1.4055188,-0.25652787,0.4028091,0.17832997
20231225 03:44:08,-0.927603,-0.264802,-0.744615,-0.182531,0.378517,-0.155994,2.192497,-31.551437,4.701347,-171.77997,-1.091936,-0.30367517,1.1456425,-0.32255602,0.34703797,0.27689263
20231225 03:44:08,-1.268613,-0.518958,0.225526,-0.223014,0.310334,-0.063308,1.961864,-31.562340,4.163879,-173.02956,-0.7408391,-0.86738193,0.5772069,-0.27643278,0.24755098,0.2186175
20231225 03:44:08,-1.358565,-0.779891,0.815856,-0.168681,0.181427,0.046423,1.643776,-31.773376,4.040520,-174.02771,-0.47663096,-1.2511362,0.09606928,-0.1443559,0.118414596,0.07890612
20231225 03:44:08,-1.285989,-1.025166,0.927692,-0.050428,0.030148,0.155088,1.943550,-31.560493,3.895630,-173.64655,-0.3363201,-1.4627881,-0.08179122,0.04050824,-0.011855556,-0.092357665
20231225 03:44:08,-0.984697,-1.284299,0.601300,0.077414,-0.088106,0.252035,2.076607,-31.269058,4.011909,-173.4283,-0.2251203,-1.551657,-0.0019516945,0.22223641,-0.10950311,-0.25461143
20231225 03:44:08,-0.511375,-1.507033,0.010610,0.188210,-0.153092,0.324478,1.345413,-30.852402,3.977432,-175.2006,-0.17784567,-1.5590045,0.21691605,0.3672227,-0.16237849,-0.37950432
20231225 03:44:08,0.041099,-1.698621,-0.593549,0.260654,-0.187183,0.352177,1.433643,-31.036057,4.124275,-175.39462,-0.17215428,-1.6072713,0.31591302,0.44493127,-0.19042715,-0.44718736
20231225 03:44:08,0.481515,-1.850760,-1.185138,0.281961,-0.204229,0.326609,1.336830,-31.139305,4.264015,-175.95743,-0.32904598,-1.713872,0.42641515,0.44347888,-0.20544372,-0.44071388
20231225 03:44:08,0.731371,-1.928477,-1.657363,0.263850,-0.203164,0.261623,0.880711,-30.044754,4.455971,-177.09528,-0.5999543,-1.7975819,0.53395265,0.38171172,-0.20334066,-0.3782588
20231225 03:44:08,0.801964,-1.713935,-2.063200,0.206321,-0.180791,0.171068,0.827576,-29.097244,3.723740,-176.94351,-0.9633817,-1.5304004,0.6348685,0.27456892,-0.18019563,-0.2739975
20231225 03:44:08,0.603260,-1.434387,-2.250208,0.104048,-0.157354,0.087971,0.764168,-31.280006,4.535446,-176.28667,-1.2058469,-1.0782435,0.84468573,0.15201601,-0.15627176,-0.14227822
20231225 03:44:08,0.201179,-1.154405,-2.233980,-0.028055,-0.160550,0.035769,0.879295,-31.178604,4.663940,-175.0247,-1.3864664,-0.6771208,1.1327531,0.040461347,-0.16673395,-0.00786366
20231225 03:44:08,-0.216404,-0.846334,-2.067350,-0.167616,-0.171203,0.021920,0.631504,-31.763336,4.699646,-175.11214,-1.4918292,-0.37598684,1.4027297,-0.048379675,-0.19908927,0.108875304
20231225 03:44:08,-0.554245,-0.637519,-1.702722,-0.284804,-0.183987,0.028312,1.073681,-31.355881,4.945389,-173.81393,-1.4395595,-0.31322914,1.4748602,-0.12043078,-0.2391408,0.18575601
20231225 03:44:08,-0.768719,-0.515338,-1.322763,-0.358313,-0.199967,0.051749,1.055370,-31.354034,4.677147,-174.03537,-1.3202006,-0.33667058,1.4164584,-0.15584074,-0.27939236,0.21744001
20231225 03:44:08,-0.958861,-0.456262,-1.024797,-0.394535,-0.191445,0.081579,0.631119,-31.571449,4.419174,-175.27054,-1.254884,-0.40475327,1.3727361,-0.17087981,-0.28901106,0.21885987
20231225 03:44:08,-1.066320,-0.409954,-0.765131,-0.399862,-0.172268,0.119932,0.807194,-31.746880,4.432381,-174.98714,-1.1698335,-0.4551341,1.26865,-0.16119753,-0.2821986,0.18923813
20231225 03:44:08,-1.115398,-0.395147,-0.563208,-0.389208,-0.169072,0.163611,0.858795,-31.926834,4.042725,-175.28828,-1.0848556,-0.5028746,1.1572497,-0.13313285,-0.28432116,0.1449537
20231225 03:44:08,-1.074345,-0.436413,-0.437367,-0.379620,-0.199967,0.198767,0.542885,-31.387779,4.272339,-175.91699,-0.9711329,-0.55751765,1.037744,-0.09956756,-0.31462023,0.11082575
20231225 03:44:08,-0.997398,-0.437469,-0.517210,-0.386012,-0.226601,0.226466,0.426994,-31.105400,3.582901,-176.72452,-0.9761896,-0.5187677,1.0477862,-0.08087927,-0.33870012,0.09794046
20231225 03:44:08,-0.790073,-0.385491,-0.544884,-0.397731,-0.242581,0.239251,0.354897,-31.673668,3.351334,-177.25166,-0.86336726,-0.41640207,0.9305961,-0.074153185,-0.34746158,0.10440634
20231225 03:44:08,-0.610630,-0.315864,-0.585215,-0.411581,-0.228732,0.228597,-0.023766,-31.799759,3.623741,-178.25824,-0.78750396,-0.31202108,0.8386468,-0.09755632,-0.32101467,0.1252374
20231225 03:44:08,-0.501386,-0.209487,-0.496822,-0.414777,-0.213817,0.200898,0.142960,-31.878319,3.362587,-178.10585,-0.6684822,-0.20647332,0.7007005,-0.12573591,-0.2981929,0.14409924
20231225 03:44:08,-0.537758,-0.078847,-0.284258,-0.411581,-0.213817,0.174264,-0.263359,-31.905685,3.092384,-179.17857,-0.56976765,-0.11538869,0.5767694,-0.14875019,-0.29299027,0.15740868
20231225 03:44:08,-0.599196,0.020221,-0.033328,-0.390274,-0.245777,0.158284,-0.042461,-31.606018,3.075020,-178.69116,-0.45901114,-0.061912455,0.43790197,-0.14169888,-0.3188089,0.15069324
20231225 03:44:08,-0.583072,0.150996,0.022522,-0.357248,-0.285195,0.144435,-0.502190,-32.395393,3.121971,-179.78279,-0.42457289,0.06593565,0.38849795,-0.121690445,-0.34762406,0.1428741
20231225 03:44:08,-0.554399,0.264808,0.023188,-0.309307,-0.318221,0.129520,-0.345200,-32.185196,2.305992,-179.8802,-0.40976122,0.19127312,0.3737119,-0.09221228,-0.36639932,0.12490713
20231225 03:44:08,-0.402379,0.379638,-0.166328,-0.242190,-0.304372,0.114605,-0.512691,-31.722862,2.006203,179.4824,-0.43845502,0.35187122,0.40190315,-0.055832766,-0.33786714,0.095453404
20231225 03:44:08,-0.185627,0.479706,-0.319142,-0.151636,-0.238320,0.097559,-0.466713,-31.823433,2.817047,179.68245,-0.39899534,0.4887196,0.3521307,-0.013085507,-0.2572315,0.044372484
20231225 03:44:08,-0.034545,0.580156,-0.428744,-0.050428,-0.143504,0.075187,-0.731400,-31.272446,2.376534,178.72713,-0.3758863,0.6043402,0.30756485,0.030377612,-0.15107153,-0.0118258335
20231225 03:44:08,0.095776,0.594399,-0.499499,0.043323,-0.061472,0.034704,-1.094704,-31.766693,2.003273,177.69145,-0.34523544,0.6299472,0.24557865,0.058624417,-0.06097744,-0.05375503
20231225 03:44:08,0.107612,0.645736,-0.618717,0.106179,-0.005009,-0.016433,-0.503342,-31.819733,2.280563,179.25316,-0.43814746,0.6916684,0.31949672,0.05771017,0.0024344237,-0.06925631
20231225 03:44:08,0.009191,0.834536,-0.800659,0.138139,0.036540,-0.061178,-0.661102,-31.646156,2.535606,179.10461,-0.6835631,0.90405583,0.49620718,0.03815164,0.05275406,-0.06752325
20231225 03:44:08,-0.174402,0.918461,-0.796016,0.145596,0.057847,-0.080354,-0.679031,-31.836197,2.547829,179.21898,-0.81940377,0.98111266,0.63453096,0.025380738,0.07956055,-0.061227668
20231225 03:44:08,-0.357843,0.939984,-0.681121,0.133878,0.059977,-0.079289,-0.263359,-31.905685,3.092384,-179.33412,-0.86660475,0.9759198,0.7188448,0.018347483,0.08404071,-0.051188845
20231225 03:44:08,-0.407310,0.983961,-0.526758,0.116832,0.062108,-0.064374,-0.660717,-31.838043,2.816071,179.53851,-0.78032315,0.9909294,0.6489616,0.022340614,0.081973195,-0.045045488
20231225 03:44:08,-0.431359,0.981052,-0.134871,0.107244,0.031213,-0.068635,-0.606544,-31.459808,3.059860,179.73802,-0.50629574,0.9371665,0.4048015,0.019673448,0.05056522,-0.031972814
20231225 03:44:08,-0.488513,0.971571,0.164460,0.108309,-0.007139,-0.076092,-0.254009,-32.002563,3.366745,-179.25584,-0.34099913,0.88001335,0.24614286,0.022103995,0.014981164,-0.02518095
20231225 03:44:08,-0.569173,0.933204,0.439126,0.120028,-0.033773,-0.071831,-0.526897,-31.930374,3.493286,-179.88359,-0.20855114,0.80398583,0.087907314,0.039659075,-0.011099516,-0.033101235
20231225 03:44:08,-0.518050,0.846176,0.764034,0.130682,-0.081714,-0.071831,-0.412155,-31.637093,3.341316,-179.74695,0.049446017,0.6959503,-0.19913167,0.055310592,-0.058283992,-0.037433423
20231225 03:44:08,-0.549994,0.782609,1.045341,0.139204,-0.158419,-0.068635,-0.421120,-31.732109,3.347427,-179.84358,0.20922905,0.6129096,-0.40499353,0.07318033,-0.1350103,-0.04276298
20231225 03:44:08,-0.410733,0.630133,1.285360,0.154119,-0.240451,-0.075027,-0.412155,-31.637093,3.341316,179.96474,0.4765138,0.4901958,-0.7031177,0.086260706,-0.21928918,-0.044057317
20231225 03:44:08,-0.178546,0.538833,1.523241,0.200995,-0.309698,-0.112314,-0.621517,-31.283546,3.986008,179.39844,0.8131136,0.44109377,-1.0527657,0.098446846,-0.2892243,-0.041407056
20231225 03:44:08,0.121589,0.410459,1.592081,0.301137,-0.335267,-0.197542,-0.245430,-31.715645,3.080154,179.8564,1.0992305,0.35567752,-1.2987156,0.11651562,-0.31389788,-0.041532338
20231225 03:44:08,0.201755,0.518519,1.678436,0.474789,-0.332071,-0.329645,-0.224545,-31.159317,3.981850,-179.94011,1.2391512,0.45685914,-1.3905492,0.15159695,-0.29518616,-0.06785859
20231225 03:44:08,0.057735,0.970954,1.358817,0.654833,-0.301176,-0.463879,0.261040,-31.410622,4.404999,-178.49138,0.9370485,0.8820391,-0.9805472,0.1536786,-0.22725448,-0.14309058
20231225 03:44:08,-0.270894,1.696168,0.865444,0.768825,-0.272411,-0.552303,0.287933,-31.125565,4.386658,-177.56725,0.28089753,1.5414442,-0.29341257,0.099521786,-0.1239899,-0.25163746
20231225 03:44:08,-0.754041,2.794505,0.236568,0.769890,-0.227667,-0.541650,0.899796,-30.430374,5.285156,-174.28531,-0.7832376,2.56747,0.64628804,0.045566022,-0.012035824,-0.34333715
20231225 03:44:08,-1.077033,3.626988,-0.143419,0.651637,-0.188249,-0.440442,1.355915,-31.524940,5.093208,-172.30893,-1.5602547,3.351317,1.2461522,0.0275608,0.023381442,-0.33937687
20231225 03:44:08,-1.193996,4.237182,-0.362203,0.439633,-0.150961,-0.305142,0.870712,-31.465515,4.950523,-173.40872,-1.9671822,3.9695811,1.4575438,0.0067281127,-0.0031299144,-0.23634793
20231225 03:44:08,-1.205057,4.483167,-0.185312,0.156250,-0.115805,-0.173039,1.409702,-30.954826,5.056526,-172.01224,-1.8818392,4.1570697,1.4489663,-0.030905232,-0.04490362,-0.05175747
20231225 03:44:08,-1.386106,4.116161,0.290940,-0.153766,-0.103021,-0.035609,1.119274,-31.264565,5.475769,-173.14772,-1.5508294,3.6365569,1.2462784,-0.092608355,-0.116065495,0.13861944
20231225 03:44:08,-1.523685,3.217733,1.066653,-0.447802,-0.109413,0.115670,1.234016,-30.971275,5.323792,-173.73976,-0.8952715,2.6028419,0.6748113,-0.1899928,-0.20964247,0.25223362
20231225 03:44:08,-1.614850,1.954215,1.940423,-0.639565,-0.092367,0.283995,1.004150,-31.365959,5.347267,-175.1061,-0.3071475,1.2717301,-0.27588212,-0.287694,-0.25620592,0.19951934
20231225 03:44:08,-1.606056,0.378503,2.748642,-0.696029,-0.065734,0.434209,0.667744,-31.575142,4.955666,-176.58669,0.06523788,-0.25067216,-1.4110086,-0.34606427,-0.2430964,0.0112684965
20231225 03:44:08,-1.311583,-1.294718,3.328656,-0.641696,-0.079583,0.529025,0.481937,-31.110954,4.387634,-177.68866,0.281075,-1.7108986,-2.513564,-0.3573189,-0.21347702,-0.21270052
20231225 03:44:08,-0.893758,-2.766030,3.657057,-0.486155,-0.170138,0.550332,0.615376,-31.011406,4.784378,-177.81982,0.39501113,-2.9827957,-3.2885385,-0.28355366,-0.24395983,-0.37551636
20231225 03:44:08,-0.377054,-3.911206,3.915704,-0.221949,-0.349116,0.484281,-0.152061,-30.782936,4.493881,-179.7837,0.6103245,-3.9813254,-3.7307224,-0.09678808,-0.36821696,-0.41957247
20231225 03:44:08,0.248173,-4.666538,3.310736,0.134943,-0.523833,0.345785,0.209053,-31.038780,4.514175,-179.5656,0.96544445,-4.6694026,-3.320375,0.20732002,-0.52346915,-0.37066883
20231225 03:44:08,0.635031,-4.734814,2.129833,0.518468,-0.578166,0.191310,-0.109425,-31.057915,4.110352,179.56291,1.1639264,-4.7330017,-2.1877024,0.54626346,-0.5916053,-0.32436925
20231225 03:44:08,0.792592,-4.238050,0.658031,0.856184,-0.511049,0.087971,0.102894,-31.045158,4.379570,179.60527,0.86888075,-4.2598233,-0.89622724,0.80351,-0.56269604,-0.4244268
20231225 03:44:08,1.027201,-3.514926,-0.760954,1.074580,-0.358704,0.045357,-0.211861,-31.081772,5.450592,177.9518,0.07566929,-3.664397,0.10485929,0.86090595,-0.47781125,-0.6630851
20231225 03:44:08,1.291503,-2.608613,-2.181992,1.090560,-0.207425,0.032573,-0.120674,-30.899132,6.511345,175.92488,-1.2703587,-3.1570697,0.5509466,0.69191784,-0.37397924,-0.8410308
20231225 03:44:08,1.529355,-1.701166,-3.168232,0.898798,-0.112609,0.045357,-0.069073,-31.079094,6.121689,173.48373,-2.3270264,-2.8822386,0.3494202,0.45039558,-0.25712952,-0.7941238
20231225 03:44:08,1.706109,-0.850671,-3.833764,0.514207,-0.079583,0.086906,-0.041409,-31.177811,6.664299,169.90538,-2.7050493,-2.776638,0.09428334,0.24942711,-0.13573237,-0.49691725
20231225 03:44:08,1.940258,-0.380054,-4.030622,-0.018467,-0.117936,0.122062,0.215347,-30.498062,6.622482,169.01639,-2.4461138,-2.7747908,-0.08941293,0.026147693,-0.03333016,-0.02368189
20231225 03:44:08,2.112883,-0.217642,-3.834754,-0.636369,-0.222340,0.126324,0.082294,-30.789497,6.506210,170.44849,-2.0440564,-2.4159746,-0.10349786,-0.29882395,0.015755862,0.5233127
20231225 03:44:08,2.146830,-0.396293,-3.158446,-1.238291,-0.318221,0.087971,0.030308,-30.417656,6.615395,173.04257,-1.259516,-1.9512944,0.06322074,-0.7523267,0.036245763,0.98715305
20231225 03:44:09,2.092769,-0.724067,-2.002758,-1.672953,-0.328875,0.004874,-0.036552,-30.873421,4.902847,176.3221,-0.10896456,-1.5991716,-0.11547947,-1.2214028,0.051364224,1.2267078
20231225 03:44:09,1.929444,-0.925730,-0.604398,-1.860454,-0.189314,-0.110184,-0.416748,-30.231956,4.053375,177.14432,1.0031298,-1.3151404,-0.70679224,-1.5409634,0.117085084,1.2618905
20231225 03:44:09,1.619387,-1.015509,0.920905,-1.788010,0.042932,-0.261463,0.031826,-30.287682,3.659561,179.09192,1.7871248,-1.1188508,-1.631649,-1.64561,0.21761625,1.1783451
20231225 03:44:09,0.958942,-1.123783,2.427849,-1.492909,0.238956,-0.419135,-0.025303,-31.032211,2.501854,179.86478,1.9906926,-1.1183729,-2.5891242,-1.5103359,0.2575614,1.0792836
20231225 03:44:09,-0.151281,-0.985819,3.391490,-1.060378,0.355079,-0.502232,0.344006,-30.809250,1.955086,-178.92487,1.4511353,-1.143443,-2.9636202,-1.1872541,0.28467953,0.93706757
20231225 03:44:09,-1.300358,-0.659739,3.853350,-0.563925,0.413673,-0.471337,0.986588,-30.850357,1.562248,-177.42397,0.66816545,-1.1895485,-2.8283005,-0.7501278,0.35521248,0.69565785
20231225 03:44:09,-2.028835,-0.222365,3.723297,-0.091976,0.403020,-0.348822,0.828827,-30.676781,1.817299,-177.41139,0.065740466,-1.0774237,-2.225551,-0.29616374,0.4137575,0.36381942
20231225 03:44:09,-2.384228,0.235700,3.146855,0.260654,0.312465,-0.176235,0.767876,-30.399956,1.932587,-177.25143,-0.36655688,-0.782923,-1.3101673,0.07830604,0.386134,0.016675517
20231225 03:44:09,-2.233812,0.477825,2.049170,0.436436,0.194211,-0.005780,1.208637,-31.126358,2.386299,-175.9427,-0.64982283,-0.39316848,-0.22691989,0.30869505,0.28475228,-0.25117064
20231225 03:44:09,-1.902950,0.636951,0.890859,0.462005,0.080219,0.157219,0.856491,-30.775497,2.359894,-176.57576,-0.97331053,0.06901133,0.6205502,0.43228105,0.14268813,-0.41973275
20231225 03:44:09,-1.462237,0.498241,0.105913,0.422587,-0.008205,0.303171,0.813469,-30.308640,2.462967,-176.70085,-1.075419,0.22077,0.9436412,0.51131916,0.015423398,-0.51015735
20231225 03:44:09,-0.978245,0.080628,-0.513054,0.361862,-0.084910,0.412902,0.728195,-29.758675,3.230049,-176.81575,-1.0592741,0.020504966,1.0566978,0.5538126,-0.089856505,-0.5507747
20231225 03:44:09,-0.435629,-0.269146,-1.154297,0.273438,-0.129655,0.488542,0.365276,-30.444801,3.137245,-178.34032,-1.1116977,-0.21500334,1.1071463,0.5495455,-0.14526233,-0.5378028
20231225 03:44:09,0.144431,-0.675987,-1.601495,0.176492,-0.122197,0.521568,0.346962,-30.442947,2.869003,-179.17348,-1.063848,-0.6823007,0.9916954,0.49920708,-0.12090891,-0.48840562
20231225 03:44:09,0.708359,-1.089035,-1.864992,0.082741,-0.081714,0.509849,-0.021576,-31.049690,3.976707,178.83154,-0.90390396,-1.3020216,0.83107066,0.40969568,-0.04438051,-0.41740683
20231225 03:44:09,1.266209,-1.484421,-1.999943,0.000709,-0.028446,0.438471,-0.189457,-30.395462,3.396446,177.75517,-0.63906455,-1.9665947,0.63436604,0.2881203,0.040367767,-0.3193133
20231225 03:44:09,1.679872,-1.774789,-2.055830,-0.065342,0.067435,0.310629,-0.401390,-30.600105,3.407700,176.91551,-0.38038743,-2.4427876,0.49630916,0.16108643,0.1366574,-0.19176966
20231225 03:44:09,1.862785,-1.834791,-1.902570,-0.109022,0.173970,0.154023,-0.744572,-30.154228,3.375175,176.26169,-0.109051466,-2.4786286,0.31034744,0.04490688,0.21668798,-0.053681746
20231225 03:44:09,1.658972,-1.623706,-1.653990,-0.135655,0.265590,0.020854,-0.684006,-30.239166,2.979416,177.04669,-0.0319587,-2.0605211,0.21495032,-0.053557616,0.28346115,0.063288614
20231225 03:44:09,1.278751,-1.356083,-1.297389,-0.149505,0.334837,-0.057982,-0.508316,-30.222710,2.712143,177.9802,-0.0083271265,-1.5835358,0.16378528,-0.12104775,0.34164965,0.13343827
20231225 03:44:09,0.984864,-0.997396,-0.920544,-0.148440,0.363602,-0.097399,-0.251171,-29.734848,2.950798,178.85048,0.06749922,-1.1006298,0.042068064,-0.15616521,0.3660519,0.16618942
20231225 03:44:09,0.745335,-0.656552,-0.658914,-0.132459,0.364667,-0.100595,-0.180874,-30.108559,3.109863,179.27531,0.08129564,-0.6960852,-0.017168581,-0.15549365,0.365531,0.1604271
20231225 03:44:09,0.563248,-0.358360,-0.568860,-0.127133,0.352948,-0.070766,-0.499352,-30.127693,2.706032,178.66005,0.020484865,-0.37604702,0.039765567,-0.13597244,0.3538619,0.1322928
20231225 03:44:09,0.535849,-0.268855,-0.443162,-0.147374,0.301811,-0.042001,-0.471687,-30.226410,3.248642,178.73738,0.08922398,-0.28294584,-0.033825427,-0.13257314,0.30337375,0.12596335
20231225 03:44:09,0.574280,-0.158695,-0.326788,-0.179335,0.231498,-0.018564,-0.208153,-30.201721,2.847733,179.35516,0.19871366,-0.17303653,-0.14735256,-0.1409861,0.23410656,0.13322411
20231225 03:44:09,0.663619,-0.056341,-0.131552,-0.194250,0.169708,-0.007910,-0.463875,-29.555725,2.401108,178.63399,0.4042682,-0.08020528,-0.3446667,-0.14511894,0.17528862,0.13269067
20231225 03:44:09,0.841545,-0.013570,0.055415,-0.172943,0.142009,-0.020694,-0.551338,-29.755836,2.815216,178.29623,0.66897166,-0.049550705,-0.5958229,-0.13806194,0.14877956,0.1263291
20231225 03:44:09,0.937728,0.010243,0.351469,-0.109022,0.140944,-0.064374,-0.570034,-29.562096,2.266495,178.30807,0.9435808,-0.02036361,-0.8730712,-0.11911273,0.14328177,0.116268605
20231225 03:44:09,0.943585,0.148095,0.649493,0.011363,0.145205,-0.115510,-0.145782,-29.344696,2.524475,179.3419,1.1454488,0.13144226,-1.1031332,-0.05989723,0.14067948,0.080481894
20231225 03:44:09,0.919645,0.211707,0.893223,0.175426,0.140944,-0.175170,-0.075481,-29.718391,2.683533,179.51328,1.2838004,0.20439191,-1.2755738,0.028532028,0.12845697,0.02263084
20231225 03:44:09,0.836924,0.327345,0.872747,0.371450,0.135617,-0.230568,-0.163330,-29.726624,2.817169,179.39125,1.2118522,0.32550785,-1.2107203,0.12900427,0.12126126,-0.07399312
20231225 03:44:09,0.729358,0.638940,0.535587,0.570670,0.167578,-0.262528,0.076267,-29.620697,3.348518,-179.87993,0.8997426,0.6377246,-0.89161634,0.22654738,0.16281572,-0.2098878
20231225 03:44:09,0.523868,0.964724,0.133580,0.736865,0.219780,-0.274247,0.024666,-29.440735,3.738174,-179.7417,0.43593663,0.96971875,-0.47504187,0.28806007,0.23409444,-0.3614071
20231225 03:44:09,0.395068,1.217268,-0.381149,0.822092,0.260263,-0.274247,0.191772,-29.711182,3.757484,-179.11813,-0.077165514,1.2373681,-0.04897836,0.3059618,0.2883948,-0.4553499
20231225 03:44:09,0.330619,1.343405,-0.720105,0.817831,0.256002,-0.268921,0.670963,-29.499313,4.820190,-177.47156,-0.43778175,1.386506,0.20491362,0.2661314,0.29705417,-0.48437026
20231225 03:44:09,0.279446,1.500022,-0.987386,0.748583,0.230433,-0.255071,0.539333,-28.656906,4.495956,-177.68433,-0.71697456,1.557397,0.379678,0.21504918,0.27003556,-0.45661947
20231225 03:44:09,0.352576,1.521203,-1.211243,0.650571,0.221910,-0.248679,0.637680,-29.321213,5.478096,-177.32957,-0.8722748,1.5947446,0.44040608,0.15525617,0.25831977,-0.38703305
20231225 03:44:09,0.367620,1.372827,-1.154112,0.553625,0.227237,-0.252940,1.052963,-29.198822,5.742180,-175.97385,-0.8117708,1.4626899,0.42859796,0.10275541,0.26979727,-0.29344803
20231225 03:44:09,0.252366,1.272261,-1.031392,0.480116,0.269851,-0.261463,0.849613,-29.116570,5.466850,-176.36017,-0.7782589,1.3602256,0.45109197,0.052262753,0.3158444,-0.22363324
20231225 03:44:09,0.163005,1.276998,-0.752413,0.455613,0.343360,-0.268921,1.539970,-28.316269,5.957359,-174.13503,-0.6155709,1.3501505,0.40231887,0.031098545,0.39856708,-0.17948167
20231225 03:44:09,-0.023081,1.314106,-0.524383,0.467332,0.431784,-0.277443,1.301525,-28.997871,6.267418,-174.11647,-0.59470123,1.3620998,0.4178211,0.011377066,0.50835824,-0.17584623
20231225 03:44:09,-0.424553,1.646589,-0.294458,0.511011,0.520208,-0.267855,1.143383,-28.632408,6.241989,-173.14235,-0.8035569,1.5921085,0.6333713,-8.331388E-4,0.6314768,-0.21049356
20231225 03:44:09,-0.712698,1.913074,-0.223490,0.566409,0.583063,-0.220980,1.843472,-28.120888,7.287338,-168.93153,-1.115124,1.7185458,0.921278,0.0030840933,0.72211415,-0.26609355
20231225 03:44:09,-1.722931,3.018024,-0.111479,0.595173,0.587325,-0.113380,1.861401,-27.930847,7.275108,-166.91086,-2.1150112,2.357302,1.8692843,0.045155585,0.71422994,-0.3538516
20231225 03:44:09,-2.215381,3.791972,-0.273848,0.523795,0.488247,0.054945,2.055790,-28.108124,7.556557,-164.47873,-2.9411674,2.8545482,2.5561044,0.118199766,0.5394321,-0.40232176
20231225 03:44:09,-2.336386,4.223108,-0.676630,0.283026,0.290093,0.281864,1.694290,-27.660393,7.255791,-164.82097,-3.4749622,3.392795,2.9026663,0.23067465,0.20223658,-0.34313756
20231225 03:44:09,-1.682329,3.908716,-0.887547,-0.067473,0.082350,0.527960,1.130211,-27.514183,7.240639,-169.56848,-2.7203972,3.650502,2.2450476,0.3726656,-0.09094819,-0.1917933
20231225 03:44:09,-0.200682,3.156983,-0.678215,-0.395600,0.002449,0.697350,1.403095,-27.586357,7.114090,-174.89468,-0.84558684,3.1798885,0.6784075,0.37911034,-0.04714564,-0.03402999
20231225 03:44:09,1.350488,2.285655,0.023975,-0.650219,0.036540,0.714396,0.856560,-27.058220,6.806236,179.90921,1.0996917,2.158137,-1.066473,0.14449033,0.16159293,0.055205256
20231225 03:44:09,2.324024,1.119802,1.198095,-0.833458,0.082350,0.582293,0.335880,-27.570770,6.968475,177.95874,2.6575952,0.9307604,-2.4585464,-0.2433587,0.26007196,0.10551587
20231225 03:44:09,2.445711,-0.099323,2.645074,-0.922948,0.056781,0.368158,0.228573,-27.001480,5.992455,178.70746,3.4640527,-0.18510006,-3.5428357,-0.5778055,0.18860583,0.18497577
20231225 03:44:09,1.977671,-0.935490,4.064974,-0.899510,-0.013532,0.171068,0.086552,-27.387932,5.882294,179.49188,3.5483637,-0.9324598,-4.512861,-0.7310165,0.03556951,0.24536046
20231225 03:44:09,1.069046,-1.613263,5.154946,-0.762080,-0.110478,0.037900,-0.037918,-27.392471,5.479439,-179.81064,2.9171433,-1.6343763,-5.188931,-0.6927904,-0.12740268,0.24693294
20231225 03:44:09,0.072318,-2.346676,5.935016,-0.529834,-0.244712,0.002743,-0.133312,-26.361870,5.411217,-179.17633,1.9958282,-2.507561,-5.6884627,-0.4947831,-0.29172203,0.16057251
20231225 03:44:09,-0.743719,-2.797042,5.994165,-0.197446,-0.338463,0.063468,0.252510,-27.082726,5.060196,-178.03493,1.1447803,-3.1071715,-5.5997534,-0.15675409,-0.36352342,-0.013743039
20231225 03:44:09,-0.959235,-3.010491,5.514654,0.174361,-0.393861,0.164676,0.076054,-26.715401,4.766525,-178.45723,0.7893908,-3.3261068,-5.073407,0.22986123,-0.373958,-0.21833473
20231225 03:44:09,-0.622397,-3.386307,4.275038,0.505684,-0.395992,0.243512,-0.168785,-26.933830,5.716148,-179.168,0.78503513,-3.5555909,-3.937065,0.56689847,-0.35353673,-0.3896381
20231225 03:44:09,0.025230,-3.632474,2.813929,0.736865,-0.367227,0.256296,0.167236,-26.532753,5.827278,-179.20934,1.0233091,-3.6629846,-2.7017245,0.78443533,-0.34573933,-0.4963238
20231225 03:44:09,0.786450,-3.655392,1.447970,0.871099,-0.319286,0.188114,-0.096684,-26.365570,5.947708,179.06125,1.2389817,-3.6549635,-1.5906093,0.8605627,-0.35876653,-0.5360972
20231225 03:44:09,1.381855,-3.266164,-0.247904,0.879621,-0.203164,0.045357,0.309635,-26.338196,6.217911,178.51112,0.7219254,-3.4253657,-0.5006798,0.7353441,-0.3094613,-0.52708894
20231225 03:44:09,1.610222,-2.496849,-1.430927,0.747518,-0.098759,-0.142144,0.549618,-26.424149,7.029732,178.20932,-0.20955789,-2.8448358,-0.101917565,0.4083801,-0.2100593,-0.43442795
20231225 03:44:09,1.260220,-1.568023,-2.339986,0.474789,-0.023120,-0.316861,-0.260071,-26.112587,7.403252,178.11223,-1.2745757,-1.719116,0.3287059,0.009969026,-0.054002877,-0.20883438
20231225 03:44:09,0.389921,-0.596098,-2.648160,0.125355,0.045063,-0.429788,0.655392,-26.225883,6.883873,-174.23686,-1.9133995,-0.115861654,1.0164216,-0.3010734,0.12660089,0.11954229
20231225 03:44:09,-0.708514,0.177907,-2.282119,-0.207034,0.119637,-0.445768,0.903183,-25.641159,6.848167,-170.11911,-2.1958098,0.71663857,1.8827419,-0.49427283,0.20393476,0.43242642
20231225 03:44:09,-1.735031,0.485663,-1.293070,-0.428626,0.209126,-0.364802,1.027660,-25.636627,7.251022,-169.34444,-2.1803756,0.35965356,2.2009687,-0.5980892,0.183925,0.584205
20231225 03:44:09,-2.415597,0.424662,-0.027193,-0.502135,0.295419,-0.215653,0.955170,-26.013000,6.738991,-170.94469,-1.927749,-0.35642955,1.6892797,-0.58673716,0.17296594,0.5291909
20231225 03:44:09,-2.713897,0.193052,1.288723,-0.426495,0.299681,-0.029217,0.876289,-25.926216,6.866508,-171.88663,-1.4881394,-0.9579581,0.646253,-0.42600214,0.15201244,0.3145833
20231225 03:44:09,-2.660043,-0.233115,2.040007,-0.237929,0.236825,0.162546,0.954403,-25.629227,6.178047,-172.87686,-1.0746174,-1.3758117,-0.19849086,-0.15681751,0.12260774,0.024985686
20231225 03:44:09,-2.203588,-0.637899,2.035929,-0.003552,0.159055,0.329805,0.585094,-25.852188,6.724808,-174.13907,-0.59119654,-1.4870765,-0.45827806,0.15014842,0.09548813,-0.25399986
20231225 03:44:09,-1.328937,-0.908220,1.311279,0.197799,0.123898,0.454451,0.426563,-25.294823,6.418907,-175.74933,-0.17442006,-1.2799766,-0.29852486,0.4094109,0.09659152,-0.47365683
20231225 03:44:09,-0.329638,-1.325158,0.352586,0.324575,0.126029,0.515176,-0.076180,-25.617332,6.568932,-178.67636,0.044694155,-1.3649542,-0.09037258,0.5672991,0.11854308,-0.6022722
20231225 03:44:09,0.556301,-1.695996,-0.397779,0.376777,0.117506,0.507718,-0.225361,-25.156845,6.537384,179.04137,0.1351263,-1.7126757,-0.039076596,0.6184304,0.11860259,-0.6320938
20231225 03:44:09,1.213678,-1.955672,-1.004945,0.372516,0.101526,0.439536,0.190693,-25.418236,7.362411,178.16725,0.05310613,-2.1419485,-0.03179878,0.57787776,0.103483066,-0.57797825
20231225 03:44:09,1.596534,-2.074166,-1.506485,0.333098,0.081284,0.337263,-0.267612,-25.073761,7.201393,176.02615,-0.17730379,-2.440576,0.044162035,0.48046678,0.08012052,-0.4774469
20231225 03:44:09,1.666331,-1.982686,-1.924222,0.261719,0.058912,0.230728,-0.461617,-25.088364,7.200417,175.06702,-0.5947496,-2.450713,0.14454865,0.35168612,0.057362083,-0.35169828
20231225 03:44:09,1.560165,-1.772809,-2.294111,0.156250,0.033344,0.130585,-0.355846,-24.890099,7.054565,175.81151,-1.042973,-2.208644,0.27070415,0.20220187,0.033855252,-0.20484006
20231225 03:44:09,1.306556,-1.540732,-2.468171,0.024147,0.008841,0.041096,-0.707607,-24.731125,7.308624,175.9546,-1.3362002,-1.8125012,0.46334887,0.047976725,0.0107092,-0.04406077
20231225 03:44:09,0.933775,-1.134800,-2.433901,-0.102630,-0.011401,-0.026021,-0.618996,-25.106674,7.735931,178.1523,-1.4515426,-1.1520662,0.6666062,-0.08065468,-0.011139474,0.098973855
20231225 03:44:09,0.533913,-0.864783,-2.171877,-0.212360,-0.025250,-0.063308,-0.549465,-25.096596,7.334053,179.8849,-1.3701425,-0.72051907,0.87108326,-0.17616293,-0.030447202,0.20812452
20231225 03:44:09,0.164728,-0.645513,-1.714967,-0.303980,-0.061472,-0.079289,-0.513603,-24.716515,7.309601,-178.68333,-1.1534133,-0.4433102,0.93532383,-0.24498901,-0.07838768,0.285808
20231225 03:44:09,-0.150592,-0.492496,-1.308670,-0.381751,-0.117936,-0.070766,-0.698643,-24.636108,7.302513,-178.61148,-1.0127747,-0.33748704,0.9617701,-0.28763676,-0.14889388,0.33318296
20231225 03:44:09,-0.372302,-0.485535,-0.923344,-0.441410,-0.188249,-0.044132,-0.672901,-23.775383,6.442757,-178.65002,-0.8517295,-0.40335187,0.89772904,-0.31089506,-0.23406702,0.34741437
20231225 03:44:09,-0.469000,-0.568159,-0.500144,-0.477632,-0.272411,-0.011106,-0.444458,-24.514549,6.627251,-178.15431,-0.6106281,-0.5567571,0.67221713,-0.31521776,-0.32606107,0.33641562
20231225 03:44:09,-0.427894,-0.619738,-0.243250,-0.498939,-0.352312,0.022985,-0.647812,-24.432281,6.351913,-179.20636,-0.41333765,-0.634522,0.46390566,-0.3123109,-0.4050054,0.321096
20231225 03:44:09,-0.277245,-0.703768,-0.138840,-0.496808,-0.408776,0.047488,-0.400017,-23.847557,6.316208,-179.1072,-0.2424025,-0.7119691,0.28123194,-0.3033001,-0.45263985,0.29478294
20231225 03:44:09,-0.084035,-0.761501,-0.113323,-0.490416,-0.443932,0.047488,-0.666508,-24.238548,5.803200,179.545,-0.09505424,-0.75768656,0.14498305,-0.30875567,-0.47585598,0.29443496
20231225 03:44:09,0.116356,-0.888476,-0.120828,-0.489351,-0.463108,0.021920,-0.542805,-23.850243,5.645111,179.29202,0.037061594,-0.8793332,0.02335047,-0.34067088,-0.48118168,0.30834374
20231225 03:44:09,0.254762,-0.909493,-0.039774,-0.497874,-0.498265,-0.040936,-0.349186,-23.643745,5.365616,179.53587,0.18818505,-0.90184325,-0.12821862,-0.39650884,-0.5095219,0.35537112
20231225 03:44:09,0.251411,-0.862307,0.114716,-0.507462,-0.547271,-0.136817,-0.500553,-23.933327,4.981102,179.15997,0.28685525,-0.8573099,-0.23950678,-0.46415466,-0.55804,0.43648008
20231225 03:44:09,0.163096,-0.646927,0.261433,-0.503201,-0.565382,-0.192215,-0.279652,-23.633667,4.963737,179.80545,0.3101858,-0.6481619,-0.30342194,-0.49376014,-0.5758169,0.4721642
20231225 03:44:09,0.014388,-0.357267,0.410276,-0.411581,-0.548336,-0.366933,0.002197,-23.610825,4.831078,-179.15251,0.292525,-0.3729435,-0.32463497,-0.52794504,-0.551901,0.54032505
20231225 03:44:09,-0.178485,0.011962,0.577226,-0.277347,-0.475893,-0.485186,0.028709,-23.133881,4.532265,-178.66286,0.24596283,-0.03884001,-0.31391716,-0.49659383,-0.46241874,0.5387825
20231225 03:44:09,-0.467376,0.430072,0.670483,-0.091976,-0.367227,-0.581067,0.485863,-22.902695,3.851875,-176.97299,0.06877348,0.31368455,-0.15532765,-0.4240637,-0.3174984,0.4733247
20231225 03:44:09,-0.663751,0.654173,0.689672,0.115767,-0.271346,-0.625812,0.231678,-23.024254,4.527130,-176.43436,-0.09110749,0.43178105,0.013694167,-0.3098835,-0.15136205,0.34659111
20231225 03:44:09,-1.430795,1.372492,0.371485,0.290484,-0.203164,-0.602374,0.805107,-23.267334,4.816643,-173.61449,-0.9912828,0.96778506,0.9052706,-0.1861836,-0.0151304975,0.17683598
20231225 03:44:09,-1.777397,1.662199,-0.058260,0.395953,-0.198902,-0.513951,0.980412,-23.058983,4.268906,-172.47783,-1.612632,1.2008005,1.5335276,-0.06317377,0.027595587,0.01082468
20231225 03:44:09,-1.831512,1.746539,-0.574501,0.412999,-0.250039,-0.390370,1.307854,-22.944824,4.666626,-170.69208,-2.0237722,1.4103826,1.9660887,0.03268552,-0.042853422,-0.113037646
20231225 03:44:09,-1.733948,1.733181,-0.814025,0.348013,-0.344855,-0.268921,1.150478,-22.963135,5.202133,-171.1797,-2.0727544,1.5415184,2.0316856,0.08223756,-0.20045884,-0.15611054
20231225 03:44:09,-0.966905,1.458398,-1.416604,0.225498,-0.457782,-0.178366,1.583694,-22.650703,5.454002,-171.03763,-1.9379971,1.554819,1.7183526,0.061825454,-0.39122167,-0.12637393
20231225 03:44:09,-0.293713,1.169822,-1.586706,0.153054,-0.506788,-0.154928,1.549637,-22.088814,5.550949,-173.14224,-1.5491291,1.2698833,1.2291194,9.0807676E-4,-0.48452368,-0.07121382
20231225 03:44:10,0.212348,0.971035,-1.444056,-0.066408,-0.653806,-0.166647,1.865543,-22.627861,5.321342,-173.92242,-1.0393639,0.9756897,0.74188185,-0.17164649,-0.6534587,0.11070044
20231225 03:44:10,0.566140,0.641850,-1.242469,-0.196380,-0.725184,-0.209261,1.943272,-22.138985,4.352402,-174.19899,-0.5851433,0.5890177,0.3828762,-0.30842,-0.72612756,0.23744898
20231225 03:44:10,0.776613,0.446317,-0.803391,-0.278412,-0.770994,-0.276378,1.776546,-22.060432,4.613564,-175.47615,-0.054768085,0.36567464,-0.020316184,-0.43199223,-0.77046114,0.35062736
20231225 03:44:10,0.846416,0.298244,-0.691433,-0.308242,-0.735838,-0.373325,1.582928,-22.266930,4.893051,-176.58139,0.13418826,0.20338582,-0.09313801,-0.5254037,-0.7368869,0.45050225
20231225 03:44:10,0.896995,0.011050,0.143752,-0.264563,-0.650610,-0.504362,1.866577,-21.302124,4.832901,-175.26001,0.7664415,-0.021276983,-0.7020229,-0.55644476,-0.65728027,0.5113113
20231225 03:44:10,0.566821,-0.020326,0.801629,-0.142048,-0.535552,-0.653511,2.022152,-22.225777,4.224884,-174.09819,0.94790167,-0.020771826,-0.97727525,-0.52414703,-0.5337064,0.5488653
20231225 03:44:10,-0.031316,0.106212,1.348207,-0.054689,-0.478023,-0.724889,2.340240,-22.014748,4.348244,-172.2285,0.8091643,0.032728747,-1.0123278,-0.4687359,-0.44172502,0.54453427
20231225 03:44:10,-0.745346,0.369565,1.713452,0.267046,-0.350182,-0.911325,3.188362,-21.388054,4.583717,-168.29387,0.44639307,0.06899761,-0.77130675,-0.32046676,-0.2056787,0.4678263
20231225 03:44:10,-1.634061,0.736754,1.643537,0.486508,-0.286261,-0.983769,3.170818,-21.769974,4.876411,-166.8767,-0.33321118,0.059627533,-0.00932169,-0.19994736,0.008920178,0.35466868
20231225 03:44:10,-2.514255,1.305975,1.313858,0.593043,-0.250039,-0.991226,3.594299,-21.168793,4.573441,-163.58798,-1.3270218,0.15281674,1.0944546,-0.13703647,0.19932055,0.22585893
20231225 03:44:10,-3.275236,1.998581,0.939848,0.880687,-0.104086,-0.868711,4.079887,-21.420105,4.996590,-160.04643,-2.328095,0.36793703,2.2537239,0.07991886,0.49610686,-0.10931903
20231225 03:44:10,-3.737162,2.835669,0.380880,0.987221,-0.041231,-0.670557,4.233055,-20.188545,5.453606,-155.81337,-3.3019056,0.9437912,3.414067,0.20262033,0.58529735,-0.3911676
20231225 03:44:10,-3.872119,3.617405,-0.345192,0.947804,-0.034839,-0.402089,4.418480,-20.460846,5.741165,-153.82066,-4.193387,1.815036,4.2419195,0.31889793,0.4770163,-0.5518018
20231225 03:44:10,-3.536227,4.158070,-0.981379,0.734734,-0.089171,-0.110184,4.542950,-20.456306,6.144020,-150.21666,-4.540857,2.8620687,4.5331,0.3438179,0.19564037,-0.603649
20231225 03:44:10,-2.767021,4.213408,-1.308527,0.384234,-0.193575,0.146565,4.773201,-20.253510,6.401024,-150.37758,-4.099347,3.614867,3.9792814,0.3792508,-0.14292637,-0.44420326
20231225 03:44:10,-1.722841,3.725860,-1.245889,0.179688,-0.246843,0.247773,4.182220,-20.392365,6.404205,-157.40364,-2.8730426,3.6180944,2.774149,0.35949582,-0.2737012,-0.3161953
20231225 03:44:10,-0.726386,3.014792,-0.614924,-0.392404,-0.276673,0.457647,4.482002,-20.179489,6.259315,-161.84431,-1.2468281,2.9998193,1.465244,0.17951235,-0.35457447,0.025488257
20231225 03:44:10,-0.055242,1.974774,0.362736,-0.672591,-0.231928,0.542875,3.827118,-20.407799,5.463882,-166.7336,0.14719811,1.9537288,0.108046755,-0.037441313,-0.2809293,0.110535204
20231225 03:44:10,0.095733,0.823204,1.439999,-0.852635,-0.143504,0.644083,3.705215,-19.854141,5.694466,-168.17877,0.958743,0.7854553,-1.0231972,-0.25170186,-0.19066018,0.025855064
20231225 03:44:10,0.113381,-0.529492,2.621461,-0.910164,-0.112609,0.699481,3.280201,-19.687775,4.875557,-170.08685,1.4054718,-0.5597928,-2.3773806,-0.44181293,-0.14139496,-0.16342384
20231225 03:44:10,0.244338,-1.881886,3.691851,-0.979411,-0.186118,0.823061,3.084007,-20.452461,4.521606,-171.56042,1.5910382,-1.8778412,-3.7395124,-0.6054381,-0.181818,-0.41917124
20231225 03:44:10,0.605403,-3.059868,4.398720,-0.914425,-0.356574,0.842238,3.022289,-19.791855,4.075958,-172.09926,1.7184482,-3.0241764,-4.764838,-0.66029215,-0.2977724,-0.6055463
20231225 03:44:10,1.199203,-4.027113,4.665808,-0.738643,-0.554728,0.781513,1.990166,-19.012405,3.344955,-175.26988,2.0300856,-4.0260234,-5.121997,-0.5767924,-0.45152852,-0.6558599
20231225 03:44:10,1.815112,-4.500520,4.109884,-0.469109,-0.674047,0.651540,2.024605,-19.766174,3.528473,-176.16704,2.4146671,-4.6017885,-4.672948,-0.357803,-0.5557851,-0.5890492
20231225 03:44:10,2.075084,-4.535709,3.590999,-0.313569,-0.681505,0.569508,1.478451,-19.429932,3.501083,-178.37456,2.5730133,-4.68281,-4.1041884,-0.21404383,-0.55069476,-0.49748015
20231225 03:44:10,2.504980,-4.123644,1.367941,-0.012075,-0.552598,0.395857,1.493431,-19.606194,2.574951,-178.1957,2.3699803,-4.5166626,-2.2353864,0.05520746,-0.48077476,-0.38628855
20231225 03:44:10,2.521873,-3.440865,0.168241,0.263850,-0.127524,0.163611,1.353981,-19.434464,3.098228,-179.34601,1.81926,-3.9819512,-1.2945023,0.28548557,-0.1761922,-0.2642033
20231225 03:44:10,2.432061,-3.068073,-0.210554,0.284092,0.106853,0.058141,0.844074,-18.910019,3.326874,179.00072,1.4153576,-3.6165993,-1.0656796,0.2887956,0.030857202,-0.20150039
20231225 03:44:10,2.071110,-2.058699,-0.731833,0.167969,0.204865,-0.019629,1.442593,-19.810005,3.525543,-178.9498,0.906157,-2.5896075,-0.6563064,0.16049224,0.15206435,-0.07984138
20231225 03:44:10,1.738913,-1.569768,-0.607339,-0.040839,0.176100,-0.083550,1.293797,-19.541412,3.774467,-178.78397,0.78002954,-1.9328892,-0.619696,-0.056945153,0.1667486,0.093894824
20231225 03:44:10,1.292633,-1.147483,-0.290054,-0.286935,0.052520,-0.127229,1.283684,-19.060768,2.939171,-177.31932,0.72724605,-1.3255901,-0.61089355,-0.29811206,0.07564242,0.27887613
20231225 03:44:10,0.888606,-1.043481,0.122636,-0.496808,-0.080649,-0.161320,1.284069,-19.252655,3.219643,-176.87164,0.7234607,-1.1026474,-0.6738648,-0.4993747,-0.049763244,0.42200938
20231225 03:44:10,0.491107,-0.990773,0.742132,-0.582036,-0.134981,-0.185823,1.258591,-18.403854,3.030006,-176.23425,0.79681224,-0.98921263,-0.942364,-0.5893429,-0.11728893,0.47298104
20231225 03:44:10,0.141733,-0.925408,1.388548,-0.497874,-0.098759,-0.211392,1.511360,-19.416153,2.562721,-175.1935,0.8661119,-0.92020595,-1.3056897,-0.53353375,-0.09626458,0.43950158
20231225 03:44:10,-0.170332,-0.847167,1.747262,-0.294392,-0.001813,-0.234829,1.255634,-18.770157,2.116096,-175.50365,0.8055471,-0.8872829,-1.4378698,-0.374179,-0.0064798705,0.35502565
20231225 03:44:10,-0.663457,-0.682582,1.825858,-0.162289,0.064239,-0.244417,1.379341,-18.381844,1.958008,-174.58765,0.47714335,-0.8206038,-1.2092824,-0.27243882,0.063836366,0.29754025
20231225 03:44:10,-1.088189,-0.424369,1.616728,0.270242,0.258132,-0.218849,1.777084,-18.641396,2.514793,-172.6818,0.07694656,-0.6795015,-0.7189591,0.073166996,0.3048704,0.046828866
20231225 03:44:10,-1.254336,-0.316571,1.362842,0.513142,0.383843,-0.163451,1.592045,-18.560974,2.507706,-172.7993,-0.12561041,-0.63927996,-0.32210344,0.26233512,0.4681496,-0.15091188
20231225 03:44:10,-1.459401,-0.065193,0.481102,0.683597,0.473333,-0.093138,1.823441,-18.933853,3.606110,-171.21605,-0.7770057,-0.35212436,0.5982739,0.38979602,0.5806451,-0.32760856
20231225 03:44:10,-1.463545,-0.003873,0.146978,0.735799,0.499966,-0.049459,2.071236,-18.349121,3.570404,-169.78374,-0.97227323,-0.25637498,0.89147013,0.43183225,0.6115915,-0.40116
20231225 03:44:10,-1.361996,-0.041146,-0.705660,0.775217,0.506358,0.107147,1.780033,-18.275085,3.428703,-170.34451,-1.4288307,-0.1344158,1.4629216,0.52634937,0.595016,-0.57758373
20231225 03:44:10,-1.247651,-0.100119,-1.020264,0.753910,0.494639,0.162546,1.905277,-18.654343,4.392509,-169.63617,-1.5595512,-0.11553106,1.5863466,0.54404545,0.5667618,-0.6062505
20231225 03:44:10,-0.957332,-0.279494,-1.504711,0.671878,0.456287,0.265884,1.676834,-17.915169,4.208008,-170.68755,-1.7143729,-0.18329474,1.658665,0.5726151,0.48860583,-0.6359329
20231225 03:44:10,-0.335528,-0.556732,-2.025221,0.462005,0.366798,0.383073,1.499336,-18.873589,4.402779,-173.19463,-1.7666854,-0.46167558,1.465203,0.5664103,0.36487973,-0.57143694
20231225 03:44:10,-0.132092,-0.665964,-2.135560,0.375712,0.331641,0.409706,1.095592,-18.342781,4.766029,-175.47707,-1.7469254,-0.6329849,1.3902602,0.5489483,0.3297423,-0.53176403
20231225 03:44:10,0.356345,-0.882024,-2.242883,0.205256,0.274112,0.432079,0.892239,-18.260513,4.490685,-178.87892,-1.563217,-1.1288273,1.1567038,0.48756367,0.29778054,-0.43140405
20231225 03:44:10,0.815122,-1.131253,-2.151168,-0.000356,0.242152,0.392661,0.468369,-18.669807,4.513184,178.91687,-1.2079184,-1.4776021,0.811065,0.32244387,0.28850037,-0.26045886
20231225 03:44:10,1.341897,-1.388727,-1.910320,-0.081323,0.277308,0.331936,0.495647,-18.576645,4.775322,177.66486,-0.634932,-1.9021792,0.40647548,0.22231819,0.3400404,-0.18058436
20231225 03:44:10,1.450806,-1.384420,-1.743084,-0.100499,0.308204,0.296779,0.671337,-18.560181,4.508049,178.34497,-0.417136,-1.9028108,0.22914362,0.18716548,0.36847475,-0.1443336
20231225 03:44:10,1.587127,-1.254476,-1.384546,-0.117545,0.380647,0.212617,0.213799,-18.599487,4.907974,176.73729,0.016031444,-1.7180232,-0.04222846,0.1196751,0.42477688,-0.088298485
20231225 03:44:10,1.527856,-1.073553,-0.929770,-0.122871,0.407281,0.125258,0.036953,-18.040268,4.333832,177.07967,0.34064084,-1.3974602,-0.33316714,0.049998622,0.4338589,-0.021777071
20231225 03:44:10,1.206591,-0.559887,-0.555766,-0.122871,0.403020,0.025116,0.661991,-18.463310,4.233696,-179.66745,0.4216207,-0.7209288,-0.45237887,-0.032587938,0.41342136,0.06993832
20231225 03:44:10,1.086737,-0.368336,-0.422550,-0.120741,0.400889,0.002743,-0.095325,-18.715492,4.778511,177.89801,0.44692242,-0.48141372,-0.45674095,-0.053275824,0.4079955,0.07271762
20231225 03:44:10,0.801775,-0.053262,-0.191952,-0.078127,0.405150,-0.039871,0.634708,-18.556480,3.971565,-178.5934,0.42569178,-0.09603693,-0.43561673,-0.0656304,0.40602124,0.09055793
20231225 03:44:10,0.598600,0.194512,-0.036343,-0.050428,0.412608,-0.040936,0.055653,-18.234009,4.882545,179.74438,0.39790058,0.18272918,-0.40148675,-0.056822665,0.4126291,0.06335927
20231225 03:44:10,0.325450,0.368462,0.106127,0.026277,0.434980,-0.031348,0.204063,-18.310730,4.353149,-179.08846,0.29919365,0.3700778,-0.30403954,-0.0078145545,0.43540204,0.00759157
20231225 03:44:10,0.142196,0.479141,0.282576,0.151989,0.410477,0.012331,0.116608,-18.510841,4.767258,-178.56987,0.2803539,0.4719413,-0.2905743,0.09686384,0.41564074,-0.11038241
20231225 03:44:10,-0.084598,0.514222,0.199009,0.191406,0.384909,0.033638,0.328541,-18.306198,4.756004,-177.7435,0.060606487,0.5001364,-0.06285065,0.13901463,0.39109543,-0.15074179
20231225 03:44:10,-0.095012,0.495797,-0.020044,0.257458,0.326314,0.077318,0.294483,-17.744308,4.852959,-177.77827,-0.102113955,0.49166226,0.09662786,0.21526514,0.33306122,-0.23368779
20231225 03:44:10,0.019066,0.554334,-0.394638,0.301137,0.279439,0.110343,-0.261669,-18.828819,5.320129,179.97769,-0.30988258,0.56877065,0.23912604,0.2678434,0.28435484,-0.30161178
20231225 03:44:10,0.266208,0.571650,-1.068634,0.312856,0.259198,0.133781,0.127758,-17.665741,5.114120,-179.21199,-0.6997581,0.5863831,0.43525368,0.29210225,0.2603589,-0.32821113
20231225 03:44:10,0.329974,0.540714,-1.242453,0.281961,0.258132,0.127389,-0.271786,-18.348175,4.484825,178.90663,-0.8208171,0.54044527,0.44549036,0.26732954,0.25811884,-0.3064291
20231225 03:44:10,0.421476,0.533092,-1.521541,0.257458,0.261328,0.119932,-0.066246,-17.680351,5.113144,179.75853,-1.0039775,0.53478235,0.5275626,0.24580395,0.26138452,-0.28027266
20231225 03:44:10,0.416288,0.490612,-1.595101,0.207387,0.281570,0.099690,-0.508041,-18.279686,5.147865,178.06389,-1.0670683,0.49376565,0.56583714,0.20028648,0.281646,-0.23244676
20231225 03:44:10,0.425866,0.499529,-1.466167,0.164773,0.296485,0.076252,-0.198917,-18.163681,5.277336,179.45482,-0.945809,0.5150943,0.507701,0.15551162,0.29683936,-0.17993233
20231225 03:44:10,0.361465,0.480095,-1.344948,0.129616,0.301811,0.038965,-0.314037,-18.265076,5.148842,179.53044,-0.87783694,0.52772766,0.50924313,0.09956333,0.30330735,-0.12876698
20231225 03:44:10,0.263293,0.572379,-1.151441,0.118963,0.292223,0.034704,0.022751,-18.247787,5.820923,-178.99025,-0.78712696,0.6185191,0.4801556,0.088573895,0.29380527,-0.113161616
20231225 03:44:10,0.226785,0.700505,-1.093756,0.053977,0.210192,0.029377,-0.656456,-18.202980,5.677261,178.66281,-0.77985954,0.7529781,0.44991624,0.046543244,0.21032046,-0.06381258
20231225 03:44:10,0.206286,0.685763,-1.159328,0.014559,0.177166,0.031508,-0.462833,-17.996483,5.397774,179.12863,-0.8469023,0.73164785,0.49997205,0.027765328,0.17624417,-0.031726547
20231225 03:44:10,0.319767,0.720272,-1.251743,-0.077061,0.130290,0.029377,-0.384342,-17.891388,4.989777,178.77153,-0.84318846,0.7382104,0.45603317,-0.022329753,0.12925011,0.044142343
20231225 03:44:10,0.481052,0.722750,-1.243058,-0.162289,0.132421,0.010201,-0.525974,-18.469727,5.160095,177.9941,-0.727219,0.7230242,0.32139874,-0.086645916,0.13239919,0.122979954
20231225 03:44:10,0.556163,0.763585,-0.700638,-0.230471,0.213388,-0.063308,-0.013878,-18.244087,5.284424,179.97453,-0.18653318,0.76475185,0.017421275,-0.19583586,0.21325938,0.21792278
20231225 03:44:10,0.531469,0.729977,-0.389157,-0.230471,0.233629,-0.098465,-0.508041,-18.279686,5.147865,178.44768,0.045265526,0.7396389,-0.16016528,-0.22796014,0.23244263,0.2345311
20231225 03:44:10,0.320633,0.727355,0.204638,-0.192119,0.261328,-0.176235,-0.226196,-18.256851,5.015205,-179.69344,0.33482483,0.7302151,-0.37147665,-0.27154416,0.26070607,0.26165187
20231225 03:44:10,-0.088300,0.901013,0.556918,-0.103695,0.294354,-0.225241,-0.225811,-18.448738,5.295677,-178.52791,0.2607705,0.8372482,-0.3024508,-0.25986406,0.30345556,0.23524418
20231225 03:44:10,-0.474365,1.103617,0.688420,0.019885,0.355079,-0.219914,0.330727,-17.556114,5.108978,-175.24477,0.021571755,0.9267591,-0.05434251,-0.19472656,0.38183752,0.15390784
20231225 03:44:10,-0.793816,1.392719,0.776471,0.147727,0.430719,-0.174105,0.418568,-17.547882,4.975342,-174.39857,-0.18853772,1.1176873,0.1695705,-0.09885474,0.47012556,0.03280306
20231225 03:44:10,-0.967525,1.665204,0.730283,0.260654,0.485051,-0.124033,0.021599,-17.672127,4.979507,-175.61458,-0.38404012,1.347957,0.33998597,-0.0055739656,0.5328171,-0.092312865
20231225 03:44:10,-1.096102,2.173347,0.536797,0.334163,0.496770,-0.067570,0.191662,-17.576263,5.912735,-173.44075,-0.70962644,1.8084704,0.6976423,0.047131535,0.546859,-0.1902253
20231225 03:44:10,-1.224011,3.034960,0.120540,0.297941,0.442437,0.000613,0.092663,-18.429596,5.699509,-172.67647,-1.3732581,2.638541,1.1698022,0.047888443,0.47126463,-0.21839234
20231225 03:44:10,-1.440568,3.729206,-0.462851,0.104048,0.319922,0.094363,-0.056515,-17.969109,5.667969,-171.67674,-2.2731185,3.350494,1.7481596,0.028652035,0.28782108,-0.11348464
20231225 03:44:10,-1.433924,3.814448,-0.863291,-0.195315,0.195277,0.239251,0.100864,-17.950798,5.132454,-172.30438,-2.500978,3.6175525,1.9232924,0.04389651,0.08515156,0.064674795
20231225 03:44:10,-0.727372,3.412231,-0.759362,-0.490416,0.191015,0.370288,-0.004913,-18.149071,5.278313,-176.35075,-1.5148346,3.4052315,1.1357427,0.018773824,0.089757495,0.22365825
20231225 03:44:10,0.179289,2.803939,0.157071,-0.690702,0.290093,0.416098,0.170776,-18.132614,5.011047,-178.4537,0.12938952,2.8002157,-0.19047697,-0.12342867,0.25303867,0.27914685
20231225 03:44:10,0.568233,1.817026,1.514137,-0.779126,0.394497,0.384138,-0.473988,-18.841583,5.050911,179.1753,1.3333476,1.7945786,-1.5622656,-0.3861621,0.35792306,0.17459482
20231225 03:44:10,0.401971,0.746336,2.951052,-0.729054,0.476529,0.339393,-0.431351,-19.116554,4.667374,179.52681,1.9800842,0.6645693,-2.6612618,-0.42334265,0.42834264,0.13204274
20231225 03:44:10,0.036713,-0.243291,4.092577,-0.542618,0.545776,0.329805,-0.228767,-18.815041,4.381767,-179.54338,1.9567857,-0.40481898,-3.6321983,-0.34682775,0.4892522,-0.032551616
20231225 03:44:10,-0.373685,-1.278475,4.964696,-0.261367,0.542580,0.359635,-0.502419,-18.359085,3.947365,179.85805,1.6300217,-1.5312172,-4.4259973,-0.12615198,0.49527633,-0.23098022
20231225 03:44:10,-0.656185,-2.142996,5.237972,0.051846,0.427523,0.422490,-0.500233,-17.609001,4.300339,-179.85979,1.2493702,-2.4282403,-4.704101,0.17349216,0.41213074,-0.41381973
20231225 03:44:10,-0.400104,-2.842721,4.191842,0.345882,0.261328,0.506653,-0.915520,-17.731392,4.036247,178.23184,1.1896003,-2.9949746,-3.6961055,0.49377996,0.27303308,-0.6035063
20231225 03:44:10,-0.088914,-2.955951,3.505157,0.564278,0.130290,0.573770,-0.949574,-17.169502,4.133209,177.63579,1.2839396,-3.0275934,-3.1028666,0.7346523,0.14702062,-0.7474299
20231225 03:44:10,0.691005,-3.123904,2.130565,0.645245,0.017364,0.582293,-0.922295,-17.076332,4.395332,176.52171,1.4686083,-3.1149292,-2.0496986,0.82804376,0.0068226987,-0.7965251
20231225 03:44:10,1.394220,-3.231832,0.833508,0.588781,-0.100890,0.524764,-1.399948,-18.055748,4.454514,173.67892,1.4155449,-3.3165638,-1.0666227,0.756687,-0.1373967,-0.72567546
20231225 03:44:10,1.999773,-3.086199,-0.309141,0.426848,-0.175464,0.406510,-1.320686,-18.334427,4.607468,171.99104,1.0680687,-3.459048,-0.4813154,0.5471649,-0.2042705,-0.5502694
20231225 03:44:10,2.527793,-2.822282,-1.134093,0.214844,-0.166942,0.227532,-1.399567,-18.247643,4.734993,170.13516,0.7850773,-3.579795,-0.25003207,0.26549086,-0.16839525,-0.28561312
20231225 03:44:10,2.730777,-2.232111,-1.424368,0.002840,-0.094498,-0.002583,-1.521469,-17.693977,4.965576,168.91074,0.63060516,-3.116433,-0.4629109,-0.021037253,-0.090135306,0.013523002
20231225 03:44:10,2.312246,-1.555830,-1.259654,-0.197446,0.008841,-0.220980,-1.072895,-17.749702,4.571762,172.81876,0.5695313,-2.0352135,-0.58549243,-0.2912472,0.0059344117,0.2940032
20231225 03:44:10,1.275244,-0.849950,-0.599256,-0.368967,0.087676,-0.374390,-1.365894,-18.617638,4.357567,176.5282,0.56620634,-0.7383955,-0.40136048,-0.5293145,0.086418144,0.52114564
20231225 03:44:10,0.102018,-0.284431,0.242367,-0.490416,0.135617,-0.435115,-0.978275,-18.396530,4.079041,178.78136,0.2649256,-0.29422486,-0.24382597,-0.66597354,0.12299237,0.6493026
20231225 03:44:10,-1.064983,0.089178,1.084527,-0.542618,0.175035,-0.414873,-0.987240,-18.491547,4.085152,-179.50749,-0.1743623,-0.31985223,-0.16075891,-0.7027918,0.12681988,0.6662246
20231225 03:44:11,-2.157867,0.439740,2.128950,-0.475502,0.197407,-0.294489,-0.335308,-18.629532,3.966682,-176.73776,-0.64995563,-0.5707401,-0.43189085,-0.58632416,0.11675082,0.52637714
20231225 03:44:11,-2.824518,0.453990,3.058514,-0.279477,0.169708,-0.095269,-0.210838,-18.625000,4.369537,-175.8857,-0.8550261,-0.9439893,-0.96067774,-0.3143083,0.09838702,0.2435196
20231225 03:44:11,-2.846909,0.174041,3.252446,-0.006748,0.099395,0.118866,-0.616776,-18.844261,4.379814,-177.3968,-0.75551116,-1.1738449,-1.1822921,0.03793706,0.07152313,-0.092362456
20231225 03:44:11,-2.267649,-0.219141,2.799304,0.234020,-0.006074,0.307433,-0.378330,-18.162659,4.069748,-177.57541,-0.35048234,-1.1396384,-1.0688493,0.3601108,4.3158606E-4,-0.3856512
20231225 03:44:11,-1.274516,-0.594840,1.785745,0.395953,-0.114740,0.435275,-0.696808,-18.181801,3.665909,-179.99419,0.07885671,-0.9745761,-0.68321484,0.58504915,-0.10129246,-0.5852626
20231225 03:44:11,-0.274653,-0.965695,0.578118,0.472658,-0.183987,0.491738,-1.022713,-19.063515,4.390083,177.76031,0.19965878,-1.0068102,-0.24328265,0.6852528,-0.17939511,-0.6741064
20231225 03:44:11,0.691902,-1.427941,-0.436289,0.469462,-0.214882,0.474692,-0.765572,-18.575653,4.628738,176.15143,0.15538758,-1.4890435,-0.058197737,0.6534016,-0.21734308,-0.65485835
20231225 03:44:11,1.615951,-1.796434,-1.200623,0.418326,-0.235124,0.373484,-1.171894,-18.603027,4.358543,172.44522,0.109374285,-2.219053,-0.046544373,0.51582986,-0.24132518,-0.53303194
20231225 03:44:11,2.157638,-1.977078,-1.814067,0.340555,-0.218078,0.216878,-0.807823,-18.492561,5.292747,171.48822,-0.1450795,-2.7705297,-0.05823624,0.3364672,-0.23424977,-0.369952
20231225 03:44:11,2.195427,-1.966478,-2.249522,0.264915,-0.140308,0.049619,-1.196217,-18.329895,5.010323,170.23286,-0.5395498,-2.8438616,0.107963085,0.18187353,-0.17762238,-0.21210444
20231225 03:44:11,1.839555,-1.916773,-2.468142,0.226563,-0.027381,-0.099530,-0.904633,-18.595818,5.432495,172.35866,-0.9824301,-2.572889,0.34029567,0.06758269,-0.077851005,-0.10689504
20231225 03:44:11,1.316350,-1.789995,-2.539536,0.195668,0.086611,-0.230568,-1.029106,-18.600342,5.029640,174.60187,-1.263366,-2.0287228,0.66989934,-0.049875855,0.059785977,-0.013153851
20231225 03:44:11,0.647421,-1.485680,-2.311587,0.140270,0.135617,-0.324319,-1.153194,-18.796768,4.907257,176.8981,-1.3249555,-1.3458244,0.98688024,-0.17166325,0.15649219,0.08822943
20231225 03:44:11,0.029037,-1.158566,-2.004272,0.088068,0.135617,-0.373325,-0.428394,-18.750259,5.581284,-178.47379,-1.3581517,-0.90612406,1.2504606,-0.24098423,0.18665817,0.17579693
20231225 03:44:11,-0.289456,-0.962421,-1.498132,0.049715,0.075958,-0.391436,-0.180988,-17.973640,5.265106,-176.87457,-1.1489362,-0.75971866,1.1736808,-0.2655355,0.13888615,0.22466138
20231225 03:44:11,-0.443718,-0.809509,-1.347660,0.017755,0.002449,-0.388240,-0.200718,-19.105644,5.204842,-176.72127,-1.1472332,-0.6326214,1.191445,-0.2730303,0.06874732,0.24286196
20231225 03:44:11,-0.629071,-0.561563,-1.221758,-0.013140,-0.056146,-0.364802,0.259392,-18.508163,5.438354,-174.12732,-1.1930852,-0.41220397,1.2362857,-0.26276845,0.0144198835,0.24528962
20231225 03:44:11,-0.829203,-0.541702,-1.139470,-0.048297,-0.109413,-0.325384,0.149509,-18.497063,3.828888,-175.38202,-1.2545438,-0.43823564,1.3472044,-0.24145667,-0.046249047,0.24716504
20231225 03:44:11,-0.932930,-0.522025,-1.158506,-0.094107,-0.168007,-0.277443,0.292679,-18.686272,4.780464,-173.8191,-1.3306489,-0.42127842,1.4229856,-0.22416948,-0.1168232,0.24020241
20231225 03:44:11,-0.832574,-0.365630,-1.300723,-0.136721,-0.145635,-0.223111,0.865726,-18.737465,4.789505,-172.12717,-1.4190314,-0.22695917,1.433278,-0.22232151,-0.11771172,0.23388834
20231225 03:44:11,-0.644223,-0.300900,-1.030838,-0.137786,-0.063603,-0.198608,0.487450,-19.055435,5.342377,-174.0956,-1.1242718,-0.21562009,1.1446809,-0.22480386,-0.04914098,0.23029286
20231225 03:44:11,-0.627891,-0.301655,-0.889875,-0.121806,-0.045492,-0.201804,1.050381,-18.625984,4.516113,-172.32942,-1.0090503,-0.23595646,1.0300555,-0.21908176,-0.027969476,0.22036305
20231225 03:44:11,-0.657948,-0.178627,-0.860751,-0.123937,-0.034839,-0.206065,1.377823,-18.511826,4.913834,-170.80557,-1.0285997,-0.12377024,1.037732,-0.22531581,-0.01650485,0.22423752
20231225 03:44:11,-0.706389,0.011292,-0.752953,-0.130329,-0.041231,-0.205000,0.813740,-18.365616,4.898682,-172.51436,-1.0152481,0.03597395,1.0245233,-0.22690472,-0.022527616,0.22861359
20231225 03:44:11,-0.791409,0.122464,-0.794346,-0.147374,-0.051884,-0.196477,1.262699,-18.613228,4.785347,-170.77226,-1.1211102,0.14135575,1.1239893,-0.22911906,-0.035794195,0.23272073
20231225 03:44:11,-0.760123,0.275120,-0.855969,-0.162289,-0.030577,-0.179431,1.075855,-19.474777,4.705750,-171.70491,-1.1767358,0.31100816,1.1514323,-0.23046234,-0.020360306,0.23549232
20231225 03:44:11,-0.706539,0.437545,-0.898689,-0.155897,0.017364,-0.177301,1.659286,-18.297096,4.500702,-169.51012,-1.2047454,0.48540804,1.1563046,-0.23505037,0.02634837,0.23298591
20231225 03:44:11,-0.543911,0.591843,-0.808612,-0.131394,0.084480,-0.192215,1.701923,-18.572067,4.117165,-169.99936,-1.0560765,0.6392343,0.99083054,-0.24272901,0.09685202,0.23096243
20231225 03:44:11,-0.531938,0.789288,-0.584670,-0.085584,0.115376,-0.209261,1.738934,-18.767662,4.934128,-169.37225,-0.9210072,0.79545224,0.8663744,-0.23313142,0.1378197,0.20919383
20231225 03:44:11,-0.639060,1.078794,-0.570386,-0.036578,0.144140,-0.198608,1.789768,-18.563843,3.983536,-169.14616,-1.0440931,1.0539907,0.9768342,-0.20088907,0.17283508,0.16811538
20231225 03:44:11,-0.746016,1.115323,-0.437751,0.009232,0.113245,-0.167712,1.541977,-19.148575,4.019241,-170.26263,-1.0215045,1.0447464,0.96995723,-0.14315651,0.14461158,0.1085148
20231225 03:44:11,-0.695561,1.213575,-0.585489,0.007101,0.043997,-0.127229,2.125790,-18.162781,4.094666,-167.53365,-1.1158099,1.1810198,1.0630481,-0.10072172,0.06881179,0.07755774
20231225 03:44:11,-0.557499,1.125686,-0.586295,-0.037643,-0.057211,-0.097399,2.020401,-18.552933,4.520996,-168.36205,-0.99557257,1.1223863,0.93365574,-0.08751348,-0.043516316,0.08143916
20231225 03:44:11,-0.387757,1.113212,-0.656367,-0.106891,-0.150961,-0.093138,2.381516,-18.808769,4.541290,-167.52898,-0.9242652,1.1458164,0.85089767,-0.113386996,-0.14633313,0.12002588
20231225 03:44:11,-0.243240,0.995323,-0.528502,-0.152701,-0.176530,-0.086746,2.168812,-18.629646,3.991600,-169.16647,-0.6851457,1.0228747,0.6416645,-0.1407015,-0.17946158,0.1501964
20231225 03:44:11,-0.169854,0.891779,-0.066205,-0.137786,-0.166942,-0.083550,2.344501,-18.613190,3.724327,-168.90254,-0.27559164,0.8670954,0.28534818,-0.13293605,-0.16998981,0.13501531
20231225 03:44:11,-0.334922,0.693279,0.435366,-0.070669,-0.156288,-0.082485,2.317223,-18.706352,3.462196,-169.35529,-0.02164635,0.58643544,0.023415416,-0.08793688,-0.15242738,0.08683723
20231225 03:44:11,-0.427856,0.540171,0.737804,0.029474,-0.168007,-0.073962,2.371780,-18.520012,3.986465,-169.01367,0.12720951,0.38174656,-0.15034604,-0.008016571,-0.1519803,0.00876325
20231225 03:44:11,-0.385630,0.540478,0.793160,0.133878,-0.179726,-0.072896,2.599457,-18.875412,3.610016,-168.74768,0.2035928,0.40102094,-0.21849808,0.06675498,-0.15385208,-0.06636211
20231225 03:44:11,-0.253655,0.526500,0.788480,0.235086,-0.219144,-0.098465,2.335537,-18.708206,3.730446,-169.67923,0.31765118,0.41567272,-0.30389193,0.119973876,-0.18308245,-0.12504481
20231225 03:44:11,-0.084290,0.656983,0.400415,0.305399,-0.230863,-0.136817,2.837902,-18.193810,3.299957,-167.19508,0.1686276,0.6015499,-0.102741316,0.12944816,-0.18593149,-0.17019325
20231225 03:44:11,-0.067344,0.799912,0.144793,0.351209,-0.194641,-0.186889,2.811775,-18.862648,3.879234,-167.35045,-0.032704696,0.76566094,0.072778784,0.11975925,-0.13308969,-0.16842842
20231225 03:44:11,-0.276432,0.854238,-0.009179,0.372516,-0.182922,-0.249744,2.556435,-18.408546,3.713081,-167.27235,-0.31349543,0.8039357,0.33829853,0.08217779,-0.094787575,-0.15197068
20231225 03:44:11,-0.613388,1.123209,-0.024951,0.387430,-0.141373,-0.289162,3.033440,-18.946754,4.422821,-164.70041,-0.63817436,0.9861409,0.67500764,0.065904826,-0.013870724,-0.13902663
20231225 03:44:11,-1.164206,1.531388,0.286437,0.443894,-0.131785,-0.299816,3.238213,-17.895164,4.490181,-162.3142,-0.91674554,1.1457627,1.0103694,0.103435755,0.037895016,-0.17817725
20231225 03:44:11,-1.171579,1.834375,-0.185522,0.474789,-0.132851,-0.266790,3.502518,-18.254250,4.650223,-160.78058,-1.2566953,1.60341,1.4059873,0.100890696,0.014788747,-0.2638144
20231225 03:44:11,-1.055375,2.809494,0.098527,0.467332,-0.134981,-0.263594,3.669239,-18.332817,4.389069,-159.29305,-1.2326777,2.4642117,1.3794018,0.089591846,0.019933373,-0.27490187
20231225 03:44:11,-1.168815,3.360178,-0.573669,0.384234,-0.175464,-0.220980,3.554119,-18.434212,4.260567,-157.14676,-2.0997148,3.1019118,1.927259,0.06793222,-0.02504652,-0.26556122
20231225 03:44:11,-1.311391,3.780856,-0.743264,0.165838,-0.196771,-0.131491,3.652081,-18.906631,4.962234,-157.26051,-2.421254,3.5294201,2.2097607,0.03713602,-0.113958076,-0.12095554
20231225 03:44:11,-1.278470,4.057579,-0.387377,-0.105826,-0.254300,-0.036675,3.793716,-18.328285,4.791924,-157.20284,-2.15948,3.697041,2.1023571,-0.01122828,-0.24740216,0.05593279
20231225 03:44:11,-1.452362,3.824478,0.354190,-0.348725,-0.270280,0.097559,3.924194,-18.595032,4.274750,-159.25948,-1.5380633,3.2857878,1.776158,-0.0652195,-0.34501842,0.16978726
20231225 03:44:11,-1.380666,3.215864,1.522355,-0.504266,-0.256431,0.255231,4.278145,-18.003929,4.373657,-160.19814,-0.42775738,2.6110086,0.78690183,-0.111442715,-0.37869668,0.15116896
20231225 03:44:11,-1.135509,2.188267,2.475176,-0.572448,-0.231928,0.404379,3.517876,-18.622398,4.004555,-165.2997,0.47169554,1.6631432,-0.6293827,-0.13760555,-0.36290273,0.04068002
20231225 03:44:11,-0.746468,0.769357,3.233175,-0.604409,-0.208490,0.529025,3.569862,-18.994255,3.895370,-167.0551,1.1404665,0.44712585,-2.0350475,-0.18677688,-0.30982152,-0.12213901
20231225 03:44:11,-0.260292,-0.597306,4.072021,-0.573514,-0.229797,0.591881,3.526455,-18.335495,3.717964,-168.05489,1.6338481,-0.7469336,-3.5403373,-0.23494244,-0.28580922,-0.2974735
20231225 03:44:11,0.248315,-2.100177,4.618601,-0.453129,-0.297980,0.568443,3.401600,-18.148140,3.034637,-169.14519,1.8390722,-2.1274078,-4.71499,-0.22744082,-0.3105705,-0.42061016
20231225 03:44:11,0.743491,-3.258941,4.860280,-0.243256,-0.401318,0.476823,3.578442,-18.707344,3.608788,-169.60449,2.0694242,-3.2404547,-5.3585052,-0.10074115,-0.39159116,-0.44996524
20231225 03:44:11,1.111681,-3.813268,4.338243,0.060369,-0.456716,0.337263,3.074543,-18.454185,2.917397,-171.11945,2.2156956,-3.7989345,-4.9914684,0.14468606,-0.4539182,-0.4045319
20231225 03:44:11,1.290440,-3.934941,2.754130,0.366124,-0.401318,0.204094,3.551163,-18.800514,3.346657,-170.25288,2.0256848,-3.9450994,-3.6176734,0.40163893,-0.42348906,-0.37668076
20231225 03:44:11,1.371347,-3.699974,1.113855,0.589847,-0.257496,0.105017,2.926128,-18.377472,3.446793,-172.23389,1.5174905,-3.7637255,-2.0417433,0.5622088,-0.31519088,-0.3827187
20231225 03:44:11,1.551918,-3.263427,-0.237318,0.697447,-0.155223,0.032573,3.386623,-17.971870,3.960785,-171.3894,0.8235327,-3.462552,-1.0851154,0.5784602,-0.25154385,-0.4392064
20231225 03:44:11,1.570268,-2.693314,-1.749283,0.637787,-0.116870,-0.011106,3.615067,-18.711037,4.145271,-171.1415,-0.5925779,-3.1617877,-0.22658741,0.41363266,-0.2170577,-0.46572056
20231225 03:44:11,1.588601,-2.021331,-3.001541,0.399149,-0.103021,-0.030283,3.447956,-18.440590,4.125954,-172.09663,-2.071757,-2.9859967,0.12266886,0.16450627,-0.17397068,-0.32708055
20231225 03:44:11,1.699270,-1.339215,-3.531518,0.030539,-0.117936,-0.030283,3.277897,-18.536446,3.192726,-171.29283,-2.4312067,-2.6162603,0.16140163,-0.04505465,-0.12499217,-0.020484146
20231225 03:44:11,1.691111,-1.013105,-3.226974,-0.366836,-0.153092,-0.032413,3.871822,-18.031296,4.103455,-169.71214,-1.8320768,-1.9648871,0.2985742,-0.26773503,-0.09776271,0.30511385
20231225 03:44:11,1.575396,-1.003653,-2.011302,-0.680048,-0.193575,-0.038805,3.711109,-18.224007,3.444580,-168.9668,-0.4917431,-1.4540946,0.076441646,-0.52019066,-0.10972751,0.49547663
20231225 03:44:11,1.520278,-1.142569,-0.450232,-0.837720,-0.222340,-0.069700,3.930206,-18.866310,3.354721,-168.5995,0.7989663,-1.3300111,-0.79340374,-0.71200544,-0.13838458,0.5481345
20231225 03:44:11,1.351367,-1.258087,0.934005,-0.847308,-0.242581,-0.135752,3.805347,-18.678947,2.671387,-168.284,1.5804284,-1.3051149,-1.724571,-0.79053336,-0.1877476,0.54164153
20231225 03:44:11,0.921158,-1.278283,1.948621,-0.732250,-0.235124,-0.210326,3.697655,-17.917778,1.414902,-167.14471,1.7907103,-1.2712302,-2.3418593,-0.7365512,-0.22118448,0.5154882
20231225 03:44:11,0.429034,-1.046987,2.430791,-0.513854,-0.149896,-0.259332,4.297596,-17.683907,1.405602,-164.41261,1.6869522,-1.0824474,-2.44342,-0.56957334,-0.16110998,0.45251667
20231225 03:44:11,-0.158817,-0.691649,2.465350,-0.232602,0.037605,-0.274247,4.306175,-17.397003,1.119011,-163.65141,1.2508392,-0.81206465,-2.0504093,-0.34632593,0.033908054,0.35656807
20231225 03:44:11,-0.523441,-0.392831,2.393503,0.044388,0.206995,-0.274247,4.394020,-17.388779,0.985382,-162.76065,0.9694605,-0.6202535,-1.661473,-0.13573284,0.2301037,0.23858556
20231225 03:44:11,-0.917161,-0.184828,2.003448,0.237216,0.282635,-0.269986,4.500179,-17.382393,1.119987,-161.77263,0.47349548,-0.53232616,-1.0139184,-0.0011223555,0.34162515,0.13263771
20231225 03:44:11,-1.245234,0.018144,1.489856,0.335228,0.240021,-0.246548,4.739006,-16.892685,1.090401,-159.51784,-0.040919483,-0.4196967,-0.27984,0.07100327,0.32884765,0.029759154
20231225 03:44:11,-1.432778,0.049726,0.832531,0.390627,0.164382,-0.186889,4.528229,-17.672997,1.943062,-160.1371,-0.5301693,-0.38796097,0.3965295,0.1383199,0.2698998,-0.09126769
20231225 03:44:11,-1.337130,-0.078045,-0.156722,0.434306,0.156924,-0.103792,5.118820,-17.342270,1.659409,-156.32747,-1.0278667,-0.3017811,1.033813,0.20172459,0.25493813,-0.19969249
20231225 03:44:11,-0.994075,-0.299236,-1.002213,0.433240,0.164382,-0.023890,4.704304,-17.848427,1.956268,-157.85916,-1.3337764,-0.26777413,1.2850296,0.2393527,0.23219106,-0.26969498
20231225 03:44:11,-0.482951,-0.580836,-1.765665,0.351209,0.126029,0.035769,4.494171,-17.111115,2.040024,-157.1449,-1.579808,-0.36218438,1.2397184,0.22389627,0.15906204,-0.26794583
20231225 03:44:11,-0.046737,-0.852843,-2.364398,0.216975,0.088742,0.078383,4.900879,-17.275635,2.590683,-156.57101,-1.8592641,-0.6583442,1.1154909,0.18354547,0.09478943,-0.19694737
20231225 03:44:11,0.464769,-1.207934,-2.689498,0.073153,0.062108,0.083710,4.607876,-18.143570,2.376488,-160.28679,-1.9119961,-1.2562803,0.88244164,0.11175057,0.062576964,-0.09320505
20231225 03:44:11,0.916540,-1.473508,-2.681912,-0.046166,0.069566,0.051749,5.004463,-17.827438,2.091858,-159.73534,-1.6206324,-1.690512,0.5279863,0.016254963,0.07508194,0.02098022
20231225 03:44:11,1.110414,-1.565935,-2.313579,-0.115414,0.100461,0.000613,5.004082,-17.635551,1.811386,-160.5633,-1.1019168,-1.8306017,0.2806306,-0.068207346,0.10846026,0.10789421
20231225 03:44:11,1.220988,-1.526927,-1.825889,-0.152701,0.118572,-0.051589,4.671013,-17.670319,2.614166,-163.16519,-0.5814513,-1.7439711,0.02143836,-0.13376886,0.12505092,0.16817987
20231225 03:44:11,1.168556,-1.315728,-1.403693,-0.168681,0.134552,-0.091007,5.233559,-17.048973,1.507431,-159.1827,-0.2559591,-1.4689798,-0.23859715,-0.17468731,0.13871175,0.21340224
20231225 03:44:11,1.110265,-1.056265,-1.035810,-0.174008,0.144140,-0.116576,4.907654,-17.930695,2.231598,-161.66763,0.006408453,-1.1396846,-0.3291412,-0.19946331,0.14614958,0.2333912
20231225 03:44:11,0.975135,-0.670228,-0.664269,-0.175073,0.137748,-0.125098,5.489666,-17.886864,2.234528,-159.26778,0.19590843,-0.71002287,-0.42431152,-0.20855877,0.13884324,0.24104407
20231225 03:44:11,0.844641,-0.316230,-0.420382,-0.166551,0.116441,-0.118706,5.199619,-18.388504,2.934250,-160.91766,0.2839163,-0.32514533,-0.40179053,-0.20031857,0.11674337,0.22416353
20231225 03:44:11,0.691037,-0.018880,-0.312689,-0.148440,0.108983,-0.108053,5.004463,-17.827438,2.091858,-159.88219,0.2507968,-0.0071741412,-0.30202144,-0.18193729,0.10856514,0.20331416
20231225 03:44:11,0.567856,0.245017,-0.165400,-0.106891,0.119637,-0.086746,5.577511,-17.878632,2.100899,-157.53835,0.2624799,0.26041096,-0.24554025,-0.13902542,0.119280994,0.1640769
20231225 03:44:11,0.487290,0.361370,-0.048557,-0.049362,0.127094,-0.064374,5.499397,-18.175621,2.789360,-158.64185,0.2887459,0.3767428,-0.23218891,-0.08455103,0.12752238,0.108895496
20231225 03:44:11,0.400883,0.439811,-0.021210,0.011363,0.116441,-0.048393,5.216782,-17.814682,2.361076,-158.44421,0.23540328,0.45747662,-0.17166032,-0.033318818,0.11899506,0.051183876
20231225 03:44:11,0.298560,0.461029,-0.188139,0.074218,0.117506,-0.021760,5.163376,-18.576683,2.678223,-159.39319,0.03786573,0.48319906,0.0057790205,0.027761674,0.12174229,-0.01358989
20231225 03:44:11,0.383535,0.336832,-0.429384,0.116832,0.103657,-0.005780,5.605175,-17.977348,2.643501,-157.13853,-0.08151755,0.3707817,0.06218031,0.06851568,0.10838065,-0.05719397
20231225 03:44:11,0.442310,0.239103,-0.717865,0.133878,0.074892,-0.005780,5.693020,-17.969124,2.509872,-156.37846,-0.27158993,0.28076008,0.14823008,0.0790869,0.07936624,-0.07950779
20231225 03:44:11,0.505906,0.250867,-0.897532,0.131747,0.034409,-0.014302,5.438450,-17.898796,2.904663,-157.3721,-0.39181566,0.28736696,0.18234983,0.07012616,0.03775508,-0.08640204
20231225 03:44:11,0.596131,0.358561,-1.196821,0.115767,0.005645,-0.031348,5.499783,-18.367516,3.069832,-156.99477,-0.61151767,0.41926494,0.2687761,0.04425022,0.010032084,-0.07393362
20231225 03:44:11,0.482544,0.615814,-1.482604,0.088068,-0.001813,-0.040936,5.790215,-18.057762,2.650589,-153.72679,-0.9821872,0.7144028,0.5065943,0.016133059,0.0037721866,-0.05239819
20231225 03:44:11,0.338603,0.955757,-1.705181,0.051846,0.036540,-0.034544,5.887791,-18.338295,3.071785,-152.49335,-1.3369657,1.1195087,0.7574129,-0.00456688,0.042266034,-0.018449083
20231225 03:44:11,0.145421,1.232761,-1.726066,0.016689,0.126029,-0.017498,5.429485,-17.993813,2.910774,-153.23874,-1.507953,1.4353181,1.005158,-0.020503305,0.12811004,0.02486578
20231225 03:44:11,0.010343,1.429901,-1.375576,-0.008879,0.213388,-0.002583,5.753586,-18.054062,2.114105,-151.63153,-1.2986776,1.5850893,1.048682,-0.03351491,0.21056926,0.06535404
20231225 03:44:12,-0.136576,1.565929,-0.936128,-0.026990,0.275178,0.010201,5.871666,-17.586365,3.156517,-152.49971,-1.0364751,1.6569457,1.0315249,-0.04528742,0.26714763,0.09174104
20231225 03:44:12,-0.272895,1.499314,-0.328560,-0.026990,0.301811,0.015527,5.632839,-18.076065,3.186104,-155.00772,-0.62573516,1.490716,0.7998351,-0.045968648,0.2921247,0.09258504
20231225 03:44:12,-0.348234,1.360616,0.139501,-0.001422,0.311400,0.025116,5.517326,-17.985580,2.777138,-156.06519,-0.29959458,1.284818,0.5423142,-0.02156396,0.30365342,0.06976369
20231225 03:44:12,-0.287343,1.210471,0.568008,0.049715,0.313530,0.036834,5.993565,-18.140030,2.925926,-155.349,0.08352792,1.1070058,0.20209548,0.026766386,0.31113762,0.03014895
20231225 03:44:12,-0.126699,1.056758,0.748545,0.114701,0.319922,0.043226,6.160675,-18.410477,2.945244,-155.80046,0.35918134,0.9771718,-0.08209151,0.083901666,0.32338768,-0.018878298
20231225 03:44:12,0.179419,0.875076,0.718047,0.175426,0.333772,0.043226,6.214081,-17.648468,2.628090,-154.98715,0.5908833,0.8406715,-0.3236351,0.13303919,0.33989325,-0.056418553
20231225 03:44:12,0.505464,0.704123,0.529573,0.232955,0.369994,0.027246,6.029812,-17.951836,3.181946,-156.94093,0.71117413,0.70200855,-0.5128168,0.16882259,0.37532052,-0.087245196
20231225 03:44:12,0.779901,0.625717,0.369901,0.285157,0.407281,-0.024956,5.887024,-17.954514,2.510849,-156.94112,0.79195046,0.63050735,-0.6377286,0.16935539,0.4112457,-0.08578449
20231225 03:44:12,0.878253,0.738418,0.252849,0.324575,0.425392,-0.095269,5.993183,-17.948135,2.645454,-156.07666,0.75249434,0.7489637,-0.616591,0.13279572,0.43320706,-0.07373321
20231225 03:44:12,0.666353,1.246210,0.124427,0.336294,0.416869,-0.153863,6.435749,-17.732574,3.171669,-152.70674,0.42342615,1.2681023,-0.243073,0.057498373,0.44320366,-0.06417007
20231225 03:44:12,0.215930,2.011540,-0.118420,0.284092,0.369994,-0.177301,6.181175,-17.662247,3.566460,-150.78798,-0.26273823,2.019099,0.43534237,-0.036492705,0.4177319,-0.04475578
20231225 03:44:12,-0.370532,2.785275,-0.407259,0.127486,0.262394,-0.149601,6.657795,-18.008568,3.995728,-146.34015,-1.1777569,2.7186887,1.3133976,-0.11538945,0.30575734,0.03525009
20231225 03:44:12,-0.847098,3.265052,-0.460752,-0.115414,0.112179,-0.067570,6.190140,-17.567223,3.560349,-145.86655,-1.7145422,3.0737011,1.8782096,-0.14572969,0.10530116,0.16050208
20231225 03:44:12,-0.977389,3.374899,-0.514854,-0.394535,0.039736,0.049619,6.162476,-17.468506,3.017738,-146.97746,-1.7861296,3.1914868,2.0603259,-0.1860264,-0.038570642,0.31937656
20231225 03:44:12,-0.776595,2.924825,0.222363,-0.591624,0.083415,0.143369,6.472374,-17.736275,3.708160,-150.7526,-0.83963215,2.6961167,1.3789134,-0.27663627,-0.029215144,0.40838742
20231225 03:44:12,-0.561199,2.156239,1.525409,-0.641696,0.182492,0.194506,6.126617,-17.848587,3.042198,-155.13884,0.37243658,1.8628874,0.045562565,-0.35168242,0.073789366,0.3734371
20231225 03:44:12,-0.480823,1.282710,2.828035,-0.553272,0.275178,0.207290,5.835423,-17.774559,2.900497,-157.83168,1.1831396,0.92359406,-1.4058638,-0.34306508,0.17928387,0.26548684
20231225 03:44:12,-0.656326,0.460957,3.778019,-0.359379,0.327380,0.224336,6.012260,-18.333763,3.474640,-158.6785,1.4169443,0.00535506,-2.464639,-0.21343458,0.24920954,0.118666515
20231225 03:44:12,-0.832158,-0.356663,4.035811,-0.133525,0.351883,0.278668,6.126617,-17.848587,3.042198,-158.3247,1.2380743,-0.8254007,-2.9857163,-0.0132537335,0.3019196,-0.047659203
20231225 03:44:12,-0.630479,-1.287961,3.873149,0.042258,0.309269,0.327674,6.029427,-17.759949,2.901474,-159.12102,1.2297078,-1.6179008,-3.3687038,0.16155323,0.28946635,-0.19421786
20231225 03:44:12,-0.262327,-2.001124,3.369593,0.139204,0.189950,0.352177,6.153896,-17.755409,3.304329,-159.23772,1.2657983,-2.1884928,-3.3951042,0.26306742,0.18591759,-0.29619232
20231225 03:44:12,0.077788,-2.646218,2.754075,0.161577,0.023756,0.359635,5.826458,-17.869583,2.906616,-160.69011,1.2643012,-2.7298868,-3.2160506,0.29029286,0.024066834,-0.36848983
20231225 03:44:12,0.450193,-3.118418,2.048106,0.154119,-0.142439,0.361766,5.914299,-17.861343,2.772980,-160.78429,1.2878382,-3.135294,-2.897723,0.2872352,-0.14229046,-0.4177803
20231225 03:44:12,0.858750,-3.414259,1.367982,0.151989,-0.263888,0.355373,5.210773,-17.543404,3.281113,-163.42667,1.3244249,-3.4165022,-2.4370813,0.28169364,-0.2638228,-0.4418107
20231225 03:44:12,1.417076,-3.613483,0.573728,0.150923,-0.337397,0.321282,5.659733,-17.791008,3.167763,-163.29163,1.3618842,-3.7008567,-2.0452802,0.25919807,-0.3352558,-0.43016663
20231225 03:44:12,2.026288,-3.519593,-0.243053,0.138139,-0.348051,0.217944,5.571884,-17.799240,3.301399,-164.67372,1.2514133,-3.8216643,-1.6394755,0.19239105,-0.34223425,-0.33018923
20231225 03:44:12,2.296245,-2.935405,-1.212172,0.069957,-0.286261,0.052815,5.572269,-17.991135,3.581871,-164.91428,0.58506453,-3.453558,-1.1442966,0.043647684,-0.28299138,-0.14136933
20231225 03:44:12,2.011259,-2.027182,-1.684436,-0.064277,-0.195706,-0.127229,5.544220,-17.700523,2.758797,-160.99777,-0.042909145,-2.3884838,-0.8188034,-0.15646622,-0.20066194,0.08557014
20231225 03:44:12,1.174191,-0.937546,-1.502685,-0.233667,-0.116870,-0.291293,5.616711,-17.324142,3.270836,-156.53479,-0.31932044,-0.7959296,-0.23537898,-0.3661558,-0.11154792,0.32104176
20231225 03:44:12,-0.304979,0.221921,-0.839859,-0.367901,-0.028446,-0.371194,5.438065,-17.706902,2.624184,-153.99849,-0.8534137,0.34486538,0.7907655,-0.5011504,-0.015554585,0.4883538
20231225 03:44:12,-2.083135,1.258103,0.069896,-0.435018,0.120702,-0.314730,6.162476,-17.468506,3.017738,-150.66502,-1.8283974,0.430582,1.8710049,-0.54426104,0.06994844,0.5437734
20231225 03:44:12,-3.508344,1.961292,1.392300,-0.379620,0.290093,-0.106988,5.710949,-17.779083,2.497643,-154.42967,-2.4426894,0.023994356,2.0135894,-0.43861493,0.15247813,0.41738808
20231225 03:44:12,-4.079394,2.062306,2.684939,-0.245386,0.363602,0.164676,6.011497,-17.949989,2.913704,-154.60355,-2.3153229,-0.3645063,1.2972924,-0.20429423,0.19079073,0.15673585
20231225 03:44:12,-3.876736,1.658034,3.334273,-0.109022,0.270916,0.433144,5.977440,-17.388100,3.010651,-154.91226,-1.7102971,-0.4970172,0.41789627,0.08337401,0.1126093,-0.15959615
20231225 03:44:12,-2.844913,0.901714,3.097592,-0.033382,0.071696,0.617449,5.456379,-17.708755,2.892433,-157.85301,-0.75289774,-0.44138438,-0.38630462,0.3026286,-0.05424396,-0.42231873
20231225 03:44:12,-1.556615,0.003003,2.227572,-0.011010,-0.126458,0.702677,5.359180,-17.620110,2.751709,-158.96378,0.029247284,-0.54255354,-0.757482,0.41253433,-0.21349385,-0.5593592
20231225 03:44:12,-0.360291,-0.789675,1.213356,-0.014206,-0.244712,0.709069,4.899075,-18.217606,2.518188,-162.17107,0.46729004,-0.88135535,-0.9139283,0.41936424,-0.28429312,-0.5965806
20231225 03:44:12,0.601708,-1.450165,0.422609,-0.030186,-0.316090,0.649410,4.776405,-17.280159,2.187828,-162.83209,0.71483797,-1.4552952,-1.0266143,0.35551682,-0.30637527,-0.5574647
20231225 03:44:12,1.241503,-1.982318,-0.305634,-0.052558,-0.333136,0.554594,4.628376,-17.395340,2.997704,-165.0942,0.6952287,-2.0975778,-0.9076209,0.26278526,-0.2914899,-0.4700046
20231225 03:44:12,1.619093,-2.355117,-0.815657,-0.061081,-0.297980,0.434209,4.194778,-17.515884,2.465378,-166.8028,0.62723327,-2.6065898,-0.73822904,0.17379263,-0.24676493,-0.36252114
20231225 03:44:12,1.638888,-2.503580,-1.053763,-0.025925,-0.240451,0.311694,4.246761,-17.887733,2.356194,-166.66814,0.46358234,-2.776345,-0.6163716,0.14021601,-0.20527206,-0.27270332
20231225 03:44:12,1.508837,-2.543840,-1.366502,0.036931,-0.158419,0.205159,4.255726,-17.792717,2.350082,-166.27388,0.14045036,-2.8087919,-0.35219145,0.1396438,-0.14293128,-0.20985876
20231225 03:44:12,1.384936,-2.513704,-1.549092,0.106179,-0.087041,0.102886,4.079651,-17.617279,2.336876,-166.32266,-0.12486774,-2.7597413,-0.18418658,0.13962135,-0.08837565,-0.16057505
20231225 03:44:12,1.234848,-2.274869,-1.766851,0.159446,-0.040165,-0.005780,4.352924,-17.881348,2.490807,-164.92467,-0.44157076,-2.4786253,-0.017811298,0.11053408,-0.052365478,-0.111661986
20231225 03:44:12,1.007050,-1.979583,-1.932658,0.187145,-0.025250,-0.116576,4.486359,-17.781807,2.887550,-163.32098,-0.764796,-2.07273,0.1587354,0.044307426,-0.03493917,-0.06312125
20231225 03:44:12,0.603622,-1.508625,-2.209182,0.166903,-0.026316,-0.205000,4.256111,-17.984604,2.630547,-161.60677,-1.2584441,-1.3866304,0.5585232,-0.051600844,-0.011170355,-0.011303134
20231225 03:44:12,0.062876,-0.959521,-2.343901,0.098721,-0.033773,-0.240156,4.485588,-17.398026,2.326607,-157.91493,-1.6670431,-0.63318014,1.0557686,-0.12292407,0.008085066,0.049894527
20231225 03:44:12,-0.356062,-0.542486,-2.158564,0.002840,-0.063603,-0.232699,4.601482,-17.680397,3.016045,-156.94139,-1.7702768,-0.16087869,1.3644086,-0.16469146,-0.016155947,0.11320392
20231225 03:44:12,-0.850042,-0.182384,-1.680647,-0.143113,-0.126458,-0.166647,4.821995,-17.188835,2.718208,-155.97299,-1.7446429,0.02679038,1.5920209,-0.18819475,-0.1119779,0.1743209
20231225 03:44:12,-0.926549,-0.090521,-1.408819,-0.177204,-0.154158,-0.145340,4.821995,-17.188835,2.718208,-156.6317,-1.6198928,0.025361821,1.524881,-0.19351241,-0.15102258,0.18102445
20231225 03:44:12,-0.818976,-0.013995,-0.974942,-0.217687,-0.206360,-0.118706,4.804066,-17.378876,2.730438,-157.71082,-1.2518029,0.02335909,1.2096047,-0.19846928,-0.21440229,0.18190132
20231225 03:44:12,-0.768868,-0.000327,-0.702145,-0.215557,-0.224471,-0.106988,4.688560,-17.288399,2.321465,-158.4162,-1.0269377,-0.0046095178,1.0070539,-0.18968594,-0.23439083,0.16796452
20231225 03:44:12,-0.749210,0.015005,-0.560969,-0.191054,-0.220209,-0.097399,4.706875,-17.290245,2.589706,-158.6005,-0.91746724,-0.010871947,0.90512323,-0.16771226,-0.22863737,0.14423046
20231225 03:44:12,-0.722389,-0.017067,-0.425222,-0.155897,-0.196771,-0.080354,5.033546,-16.792313,2.426491,-157.03665,-0.8021268,-0.05924472,0.78353417,-0.13721214,-0.20345108,0.1085448
20231225 03:44:12,-0.707297,-0.056483,-0.337437,-0.122871,-0.180791,-0.059047,5.059021,-17.641098,2.616119,-158.29428,-0.7291465,-0.10516028,0.7048595,-0.10464008,-0.18620767,0.07768732
20231225 03:44:12,-0.496981,-0.155272,-0.295667,-0.112218,-0.195706,-0.045197,5.031742,-17.734276,2.353989,-158.8904,-0.54358673,-0.17672873,0.5037208,-0.09069589,-0.20094419,0.05772999
20231225 03:44:12,-0.377884,-0.332932,-0.330329,-0.131394,-0.230863,-0.045197,4.988724,-17.267410,2.457054,-158.95576,-0.46856987,-0.33595392,0.39753488,-0.10458507,-0.23732033,0.061344728
20231225 03:44:12,-0.192478,-0.367359,-0.307133,-0.170812,-0.276673,-0.051589,4.740162,-17.468353,1.931816,-160.16458,-0.32030576,-0.35687038,0.2515146,-0.13778588,-0.2850793,0.0839497
20231225 03:44:12,-0.170254,-0.477636,-0.207997,-0.208099,-0.320352,-0.067570,5.058250,-17.257324,2.055176,-159.23969,-0.23181836,-0.47372985,0.13272162,-0.17731051,-0.32995674,0.101951495
20231225 03:44:12,-0.092340,-0.506544,-0.068285,-0.204903,-0.339528,-0.097399,5.188351,-17.332184,1.257530,-158.71721,-0.086007416,-0.5067746,-0.029177472,-0.19896385,-0.34585866,0.111074775
20231225 03:44:12,-0.005690,-0.416785,0.100905,-0.145244,-0.321417,-0.154928,5.137135,-17.344116,1.927650,-159.4565,0.083384916,-0.42105114,-0.17773458,-0.19433445,-0.32102332,0.119776614
20231225 03:44:12,-0.121310,-0.320159,0.248541,-0.039774,-0.281999,-0.232699,4.952095,-17.263710,1.920563,-159.74796,0.0940178,-0.34418517,-0.17756507,-0.16432138,-0.26810586,0.116801515
20231225 03:44:12,-0.314671,-0.092619,0.241057,0.085937,-0.251104,-0.309404,5.455223,-17.133080,2.051018,-157.15611,-0.05993791,-0.1423801,0.024881974,-0.123889714,-0.21402605,0.079079896
20231225 03:44:12,-0.510171,0.269128,0.055863,0.214844,-0.227667,-0.373325,5.764740,-17.208969,2.460960,-154.9616,-0.34981036,0.19778584,0.40921158,-0.08538748,-0.153394,0.015295446
20231225 03:44:12,-0.828327,0.717082,-0.330619,0.320314,-0.190379,-0.408481,5.692249,-17.585342,1.948921,-153.27849,-0.9117586,0.6288387,1.0307577,-0.057848006,-0.063229494,-0.060399696
20231225 03:44:12,-1.174549,1.288873,-0.697391,0.386365,-0.141373,-0.387174,5.631298,-17.308510,2.064224,-151.18785,-1.5440253,1.1833549,1.6835867,-0.02275601,0.022883415,-0.13862844
20231225 03:44:12,-1.370548,1.685625,-0.997057,0.407672,-0.116870,-0.330711,5.676506,-17.025307,2.314125,-149.04434,-2.0041447,1.6017745,2.1161513,0.012376815,0.05118551,-0.20187
20231225 03:44:12,-1.370656,1.903798,-1.326396,0.361862,-0.120066,-0.247614,6.188988,-16.991554,2.718933,-145.64426,-2.3320265,1.9068594,2.346578,0.041295514,0.023643926,-0.22444506
20231225 03:44:12,-1.312877,1.943854,-1.405907,0.244674,-0.170138,-0.151732,5.986404,-17.293076,3.004539,-147.80713,-2.3339844,1.9841989,2.3306324,0.059290193,-0.082434356,-0.18206272
20231225 03:44:12,-0.994006,1.736418,-1.231461,0.090198,-0.278803,-0.063308,6.197952,-16.896538,2.712822,-148.54533,-1.8713181,1.7865665,1.9484487,0.053350426,-0.24831557,-0.12662008
20231225 03:44:12,-0.529122,1.329519,-0.880044,-0.048297,-0.397057,-0.023890,6.161713,-17.084724,2.456802,-151.26112,-1.1637623,1.368437,1.2883533,-0.0029405784,-0.39443028,-0.067159034
20231225 03:44:12,-0.151138,0.963290,-0.531528,-0.128198,-0.459912,-0.034544,5.976673,-17.004318,2.449715,-153.85504,-0.5623089,0.9857575,0.7028153,-0.0799496,-0.46314082,-0.014847327
20231225 03:44:12,0.109619,0.733780,-0.097327,-0.126067,-0.431148,-0.082485,6.092178,-17.094810,2.858681,-155.33981,-0.023227744,0.74037224,0.19097686,-0.13013299,-0.4319414,0.019730907
20231225 03:44:12,0.164161,0.603863,0.385627,-0.044035,-0.334201,-0.158124,6.019691,-17.471191,2.346642,-156.09752,0.36040288,0.59340006,-0.19185989,-0.12740701,-0.32872444,0.03730315
20231225 03:44:12,-0.100885,0.582669,0.896249,0.093394,-0.208490,-0.239091,5.994984,-17.006165,2.717957,-155.9575,0.49353385,0.5158185,-0.35876915,-0.07939926,-0.18581474,0.034747228
20231225 03:44:12,-0.401310,0.680661,1.363857,0.271308,-0.092367,-0.301946,6.294762,-16.793289,2.573067,-154.2155,0.5505267,0.5170691,-0.42164207,0.008297801,-0.039043926,-0.010289773
20231225 03:44:12,-0.784648,0.823086,1.666856,0.484377,0.022690,-0.352018,6.507465,-16.972420,3.122765,-153.7088,0.41679394,0.5356094,-0.3232205,0.12885652,0.11963959,-0.07838568
20231225 03:44:12,-1.012631,1.311296,1.999514,0.726211,0.086611,-0.391436,6.640903,-16.872871,3.519508,-152.06621,0.44578308,0.8560741,-0.12689388,0.24468258,0.24551876,-0.22576286
20231225 03:44:12,-1.490328,2.169875,1.604800,0.914778,0.087676,-0.386109,6.974735,-17.221878,3.277672,-147.81476,-0.27805233,1.4530907,0.996976,0.29779398,0.3385082,-0.4492653
20231225 03:44:12,-2.033604,3.231277,0.751594,0.949934,0.041867,-0.297685,6.765373,-16.868340,3.922363,-143.57124,-1.6005313,2.3112514,2.4198022,0.3035979,0.33821532,-0.6286801
20231225 03:44:12,-2.307492,4.097068,-0.142959,0.794393,-0.080649,-0.144275,6.926090,-16.675621,4.581238,-138.84656,-2.8138697,3.2365773,3.4100223,0.32065088,0.15612476,-0.6567198
20231225 03:44:12,-2.154005,4.636596,-0.920971,0.474789,-0.210621,0.021920,6.810581,-16.585129,4.172272,-136.94707,-3.459908,4.1351604,3.6835299,0.3152658,-0.10747033,-0.49491245
20231225 03:44:12,-1.622820,4.419878,-0.904496,0.102983,-0.234059,0.159349,6.686878,-16.973434,4.330360,-143.12393,-2.686853,4.2199836,3.0717955,0.24340543,-0.24967068,-0.22130959
20231225 03:44:12,-0.917181,3.777151,0.092932,-0.160158,-0.110478,0.254165,6.750015,-16.500183,4.568031,-149.19014,-0.9590255,3.6278486,1.8282473,0.12445343,-0.15767467,-0.030690216
20231225 03:44:12,-0.408201,2.884727,1.689645,-0.257105,0.086611,0.325544,6.573555,-16.132866,4.274361,-152.95213,0.7185715,2.7104087,0.16340458,0.051443025,0.042721517,0.01419729
20231225 03:44:12,-0.346584,1.740560,3.130363,-0.257105,0.251740,0.388399,6.176586,-16.257111,4.278519,-156.50851,1.563339,1.5321074,-1.4928931,0.023999617,0.21045698,-0.041258425
20231225 03:44:12,-0.440701,0.478838,4.349038,-0.219818,0.279439,0.452320,5.797543,-16.191307,4.270454,-158.68163,1.8633785,0.2434274,-3.0771449,0.034822166,0.24096169,-0.15801036
20231225 03:44:12,-0.376931,-0.857253,5.075453,-0.149505,0.184623,0.514110,5.822636,-16.848213,4.179611,-160.16998,1.8363032,-1.017142,-4.4241624,0.0777819,0.16134144,-0.317452
20231225 03:44:12,0.040384,-2.176327,5.298295,-0.048297,0.003514,0.555659,5.479836,-16.594223,4.427559,-162.06535,1.9097308,-2.1950421,-5.3600583,0.15026906,0.0010318749,-0.47685137
20231225 03:44:12,0.857394,-3.281782,5.032434,0.080610,-0.228732,0.529025,5.206947,-16.522049,4.554108,-164.27669,2.2131846,-3.2244828,-5.7341447,0.2260722,-0.22235304,-0.5698786
20231225 03:44:12,1.762567,-4.046515,4.027613,0.228694,-0.431148,0.428882,5.224880,-16.332008,4.541885,-165.80034,2.5680342,-4.0929637,-5.190054,0.31296203,-0.44302598,-0.56368005
20231225 03:44:12,2.537747,-4.543621,2.473790,0.374646,-0.503592,0.270146,5.127686,-16.243362,4.401154,-167.92435,2.7426317,-4.8480525,-3.9504828,0.3924322,-0.56294143,-0.4605189
20231225 03:44:12,3.031446,-4.634873,0.960907,0.517403,-0.425821,0.091167,5.197983,-16.617065,4.560219,-170.17361,2.5736654,-5.2549024,-2.639617,0.46288377,-0.5682747,-0.32390922
20231225 03:44:12,3.291044,-4.462073,-0.207474,0.647375,-0.258562,-0.103792,4.882465,-16.269897,5.070305,-173.3111,2.062737,-5.369808,-1.6661241,0.49966067,-0.51594335,-0.20550814
20231225 03:44:12,3.155145,-3.869007,-1.349167,0.709166,-0.076387,-0.276378,5.021912,-16.441628,4.547020,-172.83755,0.8284304,-5.0176573,-1.105228,0.4218579,-0.4284132,-0.1891953
20231225 03:44:12,2.646224,-3.010542,-2.291792,0.610088,0.049324,-0.398893,5.288788,-16.242538,5.340508,-171.6872,-0.7366578,-4.240937,-0.73119116,0.16092032,-0.26909542,-0.18243286
20231225 03:44:12,1.811707,-2.074879,-2.909578,0.355470,0.119637,-0.439376,5.270855,-16.432579,5.352730,-166.45924,-1.8314205,-2.9718852,-0.22663188,-0.12763345,-0.047001712,-0.046949297
20231225 03:44:12,1.051682,-1.380961,-2.800344,0.017755,0.137748,-0.418069,5.616226,-16.128372,5.738228,-159.77664,-1.8536052,-1.6058916,0.29477358,-0.3302423,0.10908131,0.22560002
20231225 03:44:12,0.356052,-0.958034,-1.977808,-0.312503,0.093003,-0.365867,5.422222,-16.142982,5.737251,-157.87625,-1.2817631,-0.8423462,0.630924,-0.48487723,0.09883692,0.47689927
20231225 03:44:12,-0.183223,-0.793053,-0.795733,-0.553272,0.002449,-0.307273,5.800495,-15.825005,5.184364,-155.87846,-0.61985654,-0.73298216,0.4133129,-0.6063485,-0.018815124,0.59097975
20231225 03:44:13,-0.506751,-0.921006,0.341727,-0.644892,-0.081714,-0.263594,6.133949,-15.982140,4.662064,-155.13272,-0.07960135,-1.0011858,-0.20451733,-0.65267956,-0.12868923,0.57311034
20231225 03:44:13,-0.808038,-0.932744,1.128444,-0.570318,-0.073191,-0.235895,5.473442,-16.131058,5.067123,-157.63873,0.14706713,-1.1456285,-0.6029705,-0.5846874,-0.123753294,0.5014316
20231225 03:44:13,-1.022280,-0.762891,1.591835,-0.363640,0.028017,-0.207130,6.151878,-15.792099,4.649834,-154.8324,0.21901447,-1.0708148,-0.7845905,-0.41578755,-0.0019515567,0.37896898
20231225 03:44:13,-1.085288,-0.584536,1.693130,-0.105826,0.129225,-0.181562,6.055069,-15.895340,4.789581,-154.85776,0.26110202,-0.93947256,-0.7123797,-0.20946595,0.13274015,0.23731297
20231225 03:44:13,-1.126618,-0.411674,1.196092,0.110440,0.232564,-0.148536,6.390709,-15.302391,4.620247,-151.80042,-0.0041448474,-0.7562362,-0.18190467,-0.047619052,0.26629153,0.10618933
20231225 03:44:13,-1.089151,-0.185812,0.531295,0.258523,0.345491,-0.094203,6.079391,-16.168472,4.137794,-152.92654,-0.37843502,-0.4322748,0.37221342,0.06528994,0.39176872,-0.011205696
20231225 03:44:13,-0.855505,-0.077216,-0.014168,0.336294,0.408346,-0.032413,5.878994,-15.719910,4.776375,-153.129,-0.57625127,-0.18614052,0.6165253,0.14465109,0.4493827,-0.10424872
20231225 03:44:13,-0.480033,-0.154611,-0.596663,0.335228,0.412608,0.013397,5.684990,-15.734520,4.775398,-153.79773,-0.7404343,-0.12792817,0.66769165,0.17297135,0.44012687,-0.14924966
20231225 03:44:13,-0.157269,-0.261855,-1.123926,0.270242,0.374255,0.051749,5.942131,-15.246658,5.014061,-152.71623,-0.9549755,-0.16094512,0.6594843,0.16827722,0.38667372,-0.13808817
20231225 03:44:13,0.113615,-0.399807,-1.557483,0.169034,0.318857,0.083710,6.039711,-15.527191,5.435249,-153.27356,-1.164091,-0.27129897,0.6122229,0.1414594,0.3202881,-0.097563624
20231225 03:44:13,0.323069,-0.509017,-1.885599,0.049715,0.271982,0.111409,5.527996,-15.944717,5.591385,-156.75774,-1.3442311,-0.42770165,0.6073468,0.109368704,0.26874113,-0.03802604
20231225 03:44:13,0.562765,-0.612588,-1.932656,-0.067473,0.233629,0.138042,5.579212,-15.932785,4.921265,-157.2025,-1.2511668,-0.61694485,0.43519998,0.07392938,0.23397605,0.033749513
20231225 03:44:13,0.812049,-0.715860,-1.815926,-0.162289,0.200603,0.156153,5.500336,-15.846001,5.048782,-159.1967,-0.99501616,-0.81631476,0.21488672,0.035970487,0.2119481,0.08513405
20231225 03:44:13,1.057502,-0.810765,-1.670304,-0.233667,0.183558,0.161480,5.624424,-15.649574,5.171165,-160.02132,-0.71520203,-0.98673236,-0.035026252,-0.004373342,0.20752296,0.1290041
20231225 03:44:13,1.275485,-0.748126,-1.443655,-0.281608,0.194211,0.154023,5.421837,-15.951096,5.456772,-162.50323,-0.3758499,-0.9899105,-0.25852025,-0.04058954,0.23092018,0.16202295
20231225 03:44:13,1.401269,-0.682533,-1.149103,-0.324222,0.199538,0.124193,4.936253,-15.699783,5.033630,-163.63704,-0.0074831247,-0.9012403,-0.46189797,-0.100498505,0.23638676,0.20364514
20231225 03:44:13,1.333188,-0.554098,-0.791408,-0.363640,0.201669,0.099690,5.166504,-15.496986,5.290619,-162.76668,0.26760685,-0.71091187,-0.59078944,-0.15454161,0.2348442,0.24568921
20231225 03:44:13,1.339245,-0.323233,-0.319683,-0.370032,0.218714,0.067730,4.714584,-15.615677,4.490044,-163.40373,0.6791121,-0.42829424,-0.81547636,-0.19385496,0.24583589,0.26467404
20231225 03:44:13,1.243798,-0.205370,0.196885,-0.331679,0.224041,0.025116,5.077507,-14.929558,4.582840,-161.19753,1.0175205,-0.24997917,-1.0507302,-0.21003203,0.23888613,0.26667944
20231225 03:44:13,0.993922,-0.100114,0.591300,-0.259236,0.215518,-0.015368,5.332840,-15.383667,4.748993,-160.06888,1.1266382,-0.105354354,-1.1123207,-0.19604015,0.21846198,0.24228677
20231225 03:44:13,0.651141,0.100134,0.894922,-0.150570,0.197407,-0.043067,4.856606,-15.229225,4.600204,-160.64754,1.0863237,0.09667212,-1.0367,-0.14218912,0.19543283,0.18053813
20231225 03:44:13,0.440975,0.266009,0.954853,-0.019532,0.173970,-0.051589,4.732517,-15.425636,4.477821,-160.55026,0.9740102,0.24898505,-0.88825035,-0.055792343,0.17482394,0.08974235
20231225 03:44:13,0.330541,0.374876,0.660482,0.101917,0.153728,-0.045197,4.971729,-15.127823,4.728699,-158.89388,0.6880605,0.35836434,-0.5712704,0.030661248,0.15992093,-0.0064711478
20231225 03:44:13,0.323919,0.514062,0.193132,0.188210,0.144140,-0.035609,4.837906,-15.035484,4.051483,-158.10489,0.3327427,0.5172252,-0.23681654,0.089256056,0.15346554,-0.08557282
20231225 03:44:13,0.335224,0.714549,-0.250783,0.238282,0.151597,-0.019629,4.769146,-15.429337,5.014313,-159.10966,-0.022424012,0.7377664,0.04039283,0.12521072,0.16121219,-0.14201124
20231225 03:44:13,0.398507,0.816072,-0.666640,0.250001,0.163316,-0.006845,4.735088,-14.867447,5.111259,-158.26448,-0.34335735,0.86238736,0.22128366,0.13368717,0.17246877,-0.16254419
20231225 03:44:13,0.408891,0.948264,-0.971166,0.225498,0.179296,0.008070,4.541466,-15.073944,5.390755,-158.63945,-0.6266785,1.0287796,0.37477922,0.12294451,0.18857178,-0.1525713
20231225 03:44:13,0.273404,1.024489,-1.018517,0.195668,0.198473,0.029377,4.938057,-14.757820,5.106125,-155.7269,-0.7698587,1.1264088,0.54125726,0.11738304,0.20674314,-0.12994705
20231225 03:44:13,0.092342,1.023223,-0.976683,0.181818,0.215518,0.056011,4.708191,-15.152512,5.129601,-156.51338,-0.8530396,1.1294045,0.6725283,0.12586474,0.22145762,-0.12907945
20231225 03:44:13,-0.046084,0.879076,-0.870993,0.180753,0.231498,0.086906,4.823318,-15.051109,5.258102,-156.0672,-0.82744646,0.9700452,0.7191798,0.14833763,0.23441087,-0.13715385
20231225 03:44:13,-0.025325,0.679807,-0.710069,0.203125,0.237891,0.111409,4.726124,-14.962471,5.117378,-157.01457,-0.64531815,0.7458745,0.5785394,0.186357,0.24041496,-0.16721365
20231225 03:44:13,0.080081,0.373916,-0.731681,0.235086,0.233629,0.119932,4.295475,-14.716713,5.498962,-159.33218,-0.55847853,0.44223264,0.43747035,0.21748209,0.2377116,-0.20394395
20231225 03:44:13,0.255932,0.064456,-0.925529,0.256393,0.215518,0.114605,4.323139,-14.815430,6.041573,-160.21712,-0.5834005,0.14290398,0.33670533,0.23093167,0.2203252,-0.2252021
20231225 03:44:13,0.473738,-0.116101,-1.184767,0.258523,0.195277,0.097559,4.375126,-15.187279,5.932388,-160.92738,-0.6754508,-0.05199319,0.25093922,0.22238559,0.19877021,-0.2260246
20231225 03:44:13,0.660298,-0.226582,-1.508031,0.245739,0.197407,0.063468,4.049873,-14.551361,5.887642,-162.13692,-0.8596653,-0.18500523,0.23367661,0.18777588,0.19959089,-0.20204407
20231225 03:44:13,0.722697,-0.198951,-1.693056,0.211648,0.214453,0.026181,4.155262,-14.161201,5.461304,-160.83293,-1.0120795,-0.16107538,0.24076396,0.1345949,0.21638241,-0.15157229
20231225 03:44:13,0.716997,0.006104,-1.777617,0.149858,0.230433,-0.006845,4.322369,-14.431648,5.480621,-159.33519,-1.122254,0.095926784,0.27891392,0.0646474,0.23424383,-0.08021899
20231225 03:44:13,0.552171,0.248745,-1.677796,0.073153,0.263459,-0.023890,4.439682,-13.580177,5.962097,-157.76749,-1.1229421,0.3908013,0.4291135,0.0011465214,0.26753154,0.004570216
20231225 03:44:13,0.417260,0.361915,-1.224859,0.013493,0.293289,-0.028152,4.394474,-13.863380,5.712189,-157.94511,-0.7783921,0.49359,0.4013977,-0.040635142,0.29489332,0.06839236
20231225 03:44:13,0.224638,0.363151,-0.635284,0.002840,0.306073,-0.026021,4.378731,-13.303345,6.077385,-157.87709,-0.38857526,0.44073352,0.2765227,-0.048664182,0.30641314,0.08466828
20231225 03:44:13,0.145467,0.278099,-0.149568,0.044388,0.312465,-0.027086,3.886101,-14.106499,7.062714,-161.44307,-0.045120895,0.30190414,0.038526617,-0.021378035,0.3161869,0.047309764
20231225 03:44:13,0.157935,0.175713,0.049531,0.115767,0.320988,-0.036675,3.901844,-14.666534,6.697510,-161.82076,0.12459254,0.1825016,-0.11401914,0.018989075,0.3312487,0.0013254322
20231225 03:44:13,0.207795,0.097708,-0.009259,0.189276,0.335903,-0.059047,4.024780,-13.894455,5.978485,-160.11818,0.11753883,0.11453076,-0.13189225,0.04510295,0.3541263,-0.03536889
20231225 03:44:13,0.255382,0.187721,-0.222591,0.248935,0.357210,-0.071831,3.892109,-14.377777,6.142677,-160.80774,-0.03334555,0.22813928,-0.03165801,0.063239954,0.38089338,-0.080354065
20231225 03:44:13,0.268795,0.389083,-0.531590,0.274504,0.368928,-0.071831,3.610264,-14.400612,6.275337,-161.1583,-0.3135215,0.46787447,0.15033463,0.06109502,0.39603335,-0.112921804
20231225 03:44:13,0.265529,0.703867,-0.807495,0.245739,0.361471,-0.051589,3.524986,-13.850662,7.042419,-161.0546,-0.60414475,0.8113013,0.32332212,0.050263435,0.38275713,-0.11403648
20231225 03:44:13,0.342879,1.242930,-0.997708,0.144531,0.300746,-0.016433,3.753048,-14.397934,6.946434,-159.75642,-0.8318771,1.3768415,0.39287657,0.0220806,0.31004384,-0.06455141
20231225 03:44:13,0.350109,2.041474,-1.111342,-0.050428,0.181427,0.037900,3.568008,-14.317528,6.939346,-159.6626,-1.0740007,2.1905885,0.518641,-0.014868364,0.17074323,0.057445258
20231225 03:44:13,0.258672,2.564259,-1.091715,-0.332745,0.028017,0.112474,3.585941,-14.127487,6.927124,-159.27647,-1.1802183,2.7029264,0.69081306,-0.064657554,-0.012892752,0.24722946
20231225 03:44:13,0.307270,2.642015,-0.622194,-0.631042,-0.110478,0.195571,3.294743,-14.053452,6.785416,-163.10081,-0.5737895,2.6932175,0.4414753,-0.15089566,-0.1541205,0.4269501
20231225 03:44:13,0.803901,2.507934,0.017113,-0.884595,-0.179726,0.214748,2.676487,-14.285477,6.526474,-168.60666,0.4614629,2.5121346,-0.3763225,-0.3376625,-0.18627606,0.5771378
20231225 03:44:13,1.012100,2.179137,1.068169,-1.025221,-0.153092,0.150827,2.940022,-14.260780,6.125572,-167.73268,1.4428781,2.1766233,-1.1429672,-0.5640084,-0.166472,0.6490418
20231225 03:44:13,0.792758,1.888187,2.454041,-1.009241,-0.076387,0.053880,3.133644,-14.054291,5.846077,-166.68732,2.2122517,1.845833,-1.9643648,-0.69477654,-0.104873575,0.64210767
20231225 03:44:13,0.401214,1.727358,3.806941,-0.935732,0.000318,0.003809,2.506805,-14.573212,5.873711,-168.39445,2.5712128,1.5220832,-2.8952825,-0.72965753,-0.070106246,0.5800295
20231225 03:44:13,-0.352741,1.279200,4.408432,-0.541553,0.243217,-0.037740,2.569561,-13.908081,5.830917,-166.82819,2.1589546,0.85499895,-3.0384724,-0.48146775,0.18086945,0.3915734
20231225 03:44:13,-0.753337,0.915852,4.761168,-0.276281,0.437111,0.018723,2.630123,-13.993019,5.435150,-166.3995,1.8916242,0.37218773,-3.2567549,-0.25923163,0.3921323,0.22343384
