Timestamp,linacce_x,linacce_y,linacce_z,gyro_x,gyro_y,gyro_z,X-magnetometer,Y-magnetometer,Z-magnetometer,Yaw, worldXAccel,worldYAccel,worldZAccel,worldXgyro,worldYgyro,worldZgyro
20240115 08:34:06,-1.012590,0.415851,0.215920,-0.901281,0.224098,-0.113140,41.812359,-32.501545,0.369370,-93.70987,-0.40222812,0.17334196,1.0843238,-0.57075524,0.10790217,0.9079868
20240115 08:34:06,-1.331909,0.407425,0.448695,-0.745740,0.298672,-0.125924,41.900970,-32.877087,0.796684,-92.87444,-0.42658973,-0.03956169,1.351556,-0.5661494,0.17404166,0.8000021
20240115 08:34:06,-1.564967,0.463204,0.550089,-0.537997,0.372181,-0.098225,42.333801,-32.372776,0.768066,-91.59475,-0.55381763,-0.14870314,1.5735005,-0.4926751,0.24909301,0.6540161
20240115 08:34:06,-1.947926,0.525422,0.768791,-0.305752,0.342351,-0.028977,41.565987,-31.952412,0.197105,-89.96857,-0.6492611,-0.3290224,1.9367017,-0.31951597,0.23773897,0.43931615
20240115 08:34:06,-2.318130,0.623265,0.583910,-0.142753,0.242209,0.062642,41.935677,-31.921345,-0.069191,-77.21619,-0.9603274,-0.42674655,2.4002225,-0.14735518,0.12404673,0.2406603
20240115 08:34:06,-2.182340,0.847418,-0.845600,-0.096943,0.205987,0.109518,41.699421,-31.852871,0.593842,-69.88434,-1.932473,0.623549,2.2102225,-0.07963779,0.071371086,0.17761958
20240115 08:34:06,-1.766474,0.944962,-1.268602,-0.043676,0.132478,0.223510,41.620544,-31.766071,0.721367,-65.33391,-2.05872,1.1356184,1.7795036,0.06708055,-0.044352382,0.109352015
20240115 08:34:06,-1.368161,1.062736,-1.997433,-0.056460,0.141000,0.275712,41.928249,-32.783916,1.058807,-64.81937,-2.5079274,1.8045732,1.3484701,0.10757309,-0.06528205,0.1197123
20240115 08:34:06,-0.953417,1.030402,-2.308417,-0.100139,0.161242,0.318326,41.839638,-32.408375,0.631500,-66.97984,-2.6411777,1.9876896,0.9410855,0.15184486,-0.047885768,0.15623169
20240115 08:34:06,-0.680426,1.059140,-2.438665,-0.151276,0.239013,0.341764,41.927097,-32.208248,0.217392,-77.03617,-2.7376323,1.8213418,0.7589196,0.19729769,0.08792539,0.20633481
20240115 08:34:06,0.026564,0.950020,-2.444948,-0.193890,0.341286,0.323653,41.778687,-32.131542,0.746796,-92.2027,-2.4947813,1.2477984,0.17129879,0.23600215,0.293514,0.25255606
20240115 08:34:06,0.371128,0.921349,-2.301770,-0.212001,0.399880,0.302346,41.708771,-31.949734,0.868210,-97.37577,-2.2197986,1.0221629,-0.124068186,0.23693135,0.38472867,0.2787101
20240115 08:34:06,0.467899,0.950172,-1.792289,-0.301490,0.523460,0.222445,41.661758,-33.174908,0.545799,-103.78327,-1.5796558,0.9352681,-0.06741155,0.13221428,0.52584213,0.41788277
20240115 08:34:06,0.475987,0.916643,-1.440774,-0.329189,0.524526,0.193680,41.503616,-32.809444,0.520370,-104.310486,-1.2116688,0.9743253,-0.0056204796,0.045848936,0.5126842,0.47062278
20240115 08:34:06,0.232994,0.958370,-0.352254,-0.368607,0.415860,0.138282,41.761139,-32.513470,1.039497,-105.43916,-0.28529197,0.98337334,0.19541287,-0.04644291,0.39714321,0.4838
20240115 08:34:06,0.190237,0.952854,-0.113282,-0.362215,0.361528,0.131890,41.566753,-32.336193,0.758049,-105.66927,-0.08161915,0.9629871,0.22318532,-0.053908326,0.3424145,0.45962712
20240115 08:34:06,0.178648,0.935221,0.343377,-0.305752,0.220902,0.130825,41.893810,-32.030148,0.875298,-107.15214,0.334796,0.91945064,0.19820738,-0.0336823,0.20470892,0.35069215
20240115 08:34:06,0.165639,0.950007,0.461800,-0.275922,0.184680,0.136151,41.637436,-32.901783,1.197586,-108.40049,0.43340755,0.9275174,0.19897431,-0.015765913,0.16903782,0.30585515
20240115 08:34:06,0.173599,0.855732,0.607544,-0.145949,0.123955,0.158524,41.542427,-32.063068,1.409828,-109.3152,0.5826852,0.83382785,0.13068724,0.06652253,0.11421729,0.15918228
20240115 08:34:06,0.221900,0.824038,0.586411,-0.033022,0.146327,0.178765,41.646019,-32.614872,0.911003,-111.36487,0.62973446,0.82815176,0.059946448,0.14440183,0.14805156,0.06222905
20240115 08:34:06,0.492112,0.783325,0.496506,0.028768,0.180418,0.187288,42.018665,-32.217495,1.558624,-113.727264,0.70550287,0.79353654,-0.1942757,0.18750465,0.18839505,0.01640502
20240115 08:34:06,0.937927,0.670362,0.522767,0.151283,0.251797,0.163851,42.185390,-32.296062,1.297462,-117.31421,0.9790654,0.6671533,-0.66368186,0.24551487,0.25977698,-0.06452535
20240115 08:34:06,1.353581,0.706067,0.348446,0.252491,0.332763,0.114845,41.444199,-33.300167,1.757545,-121.379616,1.0577343,0.6253953,-1.0049473,0.2773081,0.32250607,-0.12003809
20240115 08:34:06,1.432760,0.619726,0.358909,0.318542,0.377508,0.045597,41.674065,-32.905476,1.734070,-121.58553,1.096725,0.52953315,-1.1084628,0.25995266,0.34531778,-0.14276743
20240115 08:34:06,1.405274,0.539196,0.457499,0.348372,0.288019,-0.095029,41.692760,-33.099216,2.282791,-120.31558,1.1384927,0.4877747,-1.1311084,0.1240981,0.24159962,-0.16856116
20240115 08:34:06,0.940574,0.661188,0.375963,0.338784,0.212379,-0.135512,41.498375,-32.921940,2.001343,-113.96604,0.782202,0.65572983,-0.65228534,0.036567546,0.19544895,-0.19748652
20240115 08:34:06,0.613304,0.802242,0.089727,0.284451,-0.015606,-0.189845,41.913658,-32.799549,2.265427,-111.930664,0.3584326,0.7968963,-0.2607252,-0.05413723,-0.023971584,-0.23494163
20240115 08:34:06,0.437342,0.887589,-0.181052,0.259948,-0.085919,-0.189845,42.080769,-33.069996,2.284744,-108.88464,-0.008731559,0.89273155,-0.05207997,-0.072101235,-0.08160906,-0.24708404
20240115 08:34:06,0.391275,0.924987,-0.261824,0.209877,-0.219087,-0.172799,42.249680,-32.398479,2.376564,-106.17493,-0.13930395,0.9414032,-0.013315968,-0.07493634,-0.20820923,-0.2546346
20240115 08:34:06,0.339546,0.845856,-0.472355,0.149152,-0.359713,-0.136578,41.958099,-32.132565,1.954391,-104.93237,-0.36008507,0.8681863,0.0020670928,-0.063311994,-0.3520269,-0.24698906
20240115 08:34:06,0.363049,0.756510,-0.758036,0.142760,-0.374628,-0.125924,42.540497,-32.280621,2.237793,-104.59284,-0.6269444,0.77369183,-0.06574312,-0.069188766,-0.3711436,-0.2364353
20240115 08:34:06,0.435942,0.796999,-1.159063,0.147021,-0.312838,-0.090768,41.675865,-31.963512,1.806572,-104.877495,-0.9829449,0.7869501,-0.11726535,-0.048079662,-0.3138706,-0.21971437
20240115 08:34:06,0.571343,0.648068,-1.455196,0.155544,-0.165820,-0.067330,42.124825,-32.211117,1.693230,-109.04691,-1.177478,0.48595864,-0.25858268,-0.039088078,-0.17583379,-0.1860027
20240115 08:34:06,0.752239,0.360490,-1.639251,0.149152,-0.001756,-0.069461,42.258263,-32.111568,2.089973,-109.94907,-1.3210356,0.17105179,-0.47348583,-0.02515478,-0.013108831,-0.1371774
20240115 08:34:06,0.756005,0.124633,-1.374008,0.106538,0.093060,-0.109944,42.275040,-31.345867,1.236328,-108.14043,-1.0414732,0.03257048,-0.5355013,-0.06359585,0.084650815,-0.060505647
20240115 08:34:06,0.406373,-0.225756,-0.620275,0.040487,0.050446,-0.177061,42.160301,-31.639156,1.388306,-103.9985,-0.3843193,-0.15932488,-0.39992163,-0.14943218,0.06623193,-2.6495382E-4
20240115 08:34:06,-0.036875,-0.275620,-0.346260,-0.098009,-0.226545,-0.256962,41.975647,-31.750629,1.661690,-99.34064,-0.27026364,-0.20678434,-0.057103705,-0.22602792,-0.18119347,0.0126270335
20240115 08:34:06,-0.527925,-0.203839,-0.269431,-0.198151,-0.465183,-0.253766,42.160301,-31.639156,1.388306,-93.64409,-0.39666736,-0.18671167,0.40054405,-0.17047134,-0.39617512,-0.008773726
20240115 08:34:06,-0.804043,-0.152271,-0.470021,-0.238635,-0.562129,-0.230328,42.011120,-31.178669,1.356766,-91.479996,-0.6886611,-0.11126198,0.672691,-0.12063924,-0.49021077,-0.014553886
20240115 08:34:06,-0.838629,-0.222586,-0.702755,-0.271660,-0.635638,-0.156819,42.416672,-30.767521,1.066025,-87.032814,-0.8453218,-0.08274715,0.6750557,-0.016893275,-0.5733509,0.0040188255
20240115 08:34:06,-0.535478,-0.173556,-0.962532,-0.234373,-0.498208,-0.087572,42.220100,-31.340321,0.431602,-89.80275,-0.99845403,0.05060041,0.43141505,-0.020824395,-0.47540313,0.03235434
20240115 08:34:06,-0.379882,-0.286263,-0.693377,-0.144884,-0.272355,-0.053480,42.026093,-31.354931,0.430626,-97.983986,-0.723713,-0.18591595,0.26747245,-0.058382396,-0.26918134,0.02253921
20240115 08:34:06,-0.110592,-0.518672,0.002189,0.051140,-0.012410,-0.055611,42.070919,-30.879833,0.400063,-104.664505,0.0046414463,-0.521644,-0.15169154,-0.021369478,-0.0029559,-0.04345697
20240115 08:34:06,-0.062839,-0.609863,0.329711,0.118257,0.018485,-0.071591,42.291817,-30.580166,0.382698,-106.731064,0.30212817,-0.64230955,-0.31372517,0.0021835342,0.03297937,-0.078847975
20240115 08:34:06,-0.081505,-0.640394,0.927367,0.216269,-0.077396,-0.119532,42.282852,-30.675182,0.388809,-106.413246,0.7967516,-0.7442739,-0.41062576,0.02762404,-0.04756695,-0.20323521
20240115 08:34:06,-0.254884,-0.399132,1.116580,0.261014,-0.475836,-0.154689,42.194626,-30.491520,0.241966,-102.75582,0.89221346,-0.56255895,-0.08765459,0.05741957,-0.43010193,-0.43757862
20240115 08:34:06,-0.233746,0.225335,0.763792,0.250360,-0.618593,-0.145100,41.673180,-30.620296,-0.156723,-100.73728,0.5398927,0.1015507,0.2444632,0.06860848,-0.57409316,-0.4833509
20240115 08:34:06,-0.034382,0.965847,0.024298,0.230119,-0.866819,-0.086506,42.024178,-30.395481,-0.971733,-99.90682,-0.028444706,0.9634101,0.34367356,0.02994141,-0.8590712,-0.49298158
20240115 08:34:06,0.333447,1.487490,-0.593417,0.238641,-0.876407,-0.064134,42.184509,-30.010876,-0.593330,-101.94106,-0.43860608,1.4699163,0.12428203,-0.015995763,-0.87943095,-0.46663228
20240115 08:34:06,0.765398,2.167438,-1.524258,0.231184,-0.714474,-0.006605,41.981155,-29.928623,-0.868668,-112.23177,-0.6973313,1.6358621,-0.21012592,-0.14838956,-0.7023388,-0.36345133
20240115 08:34:06,1.687438,2.811882,-2.035353,0.205616,-0.386347,0.020029,42.033142,-30.300457,-0.977852,-130.89577,0.37299252,0.8826492,-0.9275255,-0.16459805,-0.3254229,-0.26484606
20240115 08:34:06,1.869768,2.730566,-2.106762,0.119322,-0.019867,-0.020455,41.556519,-29.954144,-1.407112,-130.65201,0.33384883,0.7469162,-1.0390834,-4.0798634E-4,-0.043752458,-0.11660358
20240115 08:34:06,2.027049,2.166143,-1.575625,-0.079898,0.265646,-0.152558,41.699303,-29.951458,-0.736015,-124.42673,0.17249465,1.0173855,-1.1180608,-0.043797553,0.18555805,0.16887085
20240115 08:34:06,1.648404,1.479163,-0.347379,-0.361150,0.377508,-0.370954,41.726200,-29.666401,-0.754356,-113.53302,0.5999088,1.2935679,-0.87121916,-0.4270771,0.34181178,0.5348784
20240115 08:34:06,0.683496,1.017217,1.034472,-0.654120,0.325306,-0.577632,41.637970,-29.482746,-0.901184,-106.81855,1.1778892,0.9794283,-0.21800196,-0.8555068,0.33417803,0.8085662
20240115 08:34:06,-0.653530,0.653374,2.794071,-0.879974,0.093060,-0.701212,42.006516,-28.876003,-2.008888,-103.469,1.4885169,0.0020619035,0.4826173,-1.1075988,0.07784519,0.8302013
20240115 08:34:06,-2.033514,0.163602,4.156324,-0.933242,-0.258505,-0.679905,42.106663,-28.598347,-0.954254,-105.19141,1.105668,-1.3291072,0.69045955,-1.0589286,-0.32082146,0.5790339
20240115 08:34:06,-3.043603,-0.183007,4.710121,-0.772374,-0.551476,-0.508384,42.098351,-27.175732,-1.717049,-103.27405,0.527555,-2.2825937,1.009079,-0.750703,-0.6092713,0.17955384
20240115 08:34:06,-3.303733,-0.165700,4.808670,-0.409090,-0.682514,-0.207956,41.963493,-28.409130,-1.905830,-104.13613,0.4771154,-2.3330305,1.1706445,-0.2608912,-0.6956407,-0.19050583
20240115 08:34:06,-2.562092,-0.239696,3.898501,0.043683,-0.628181,0.108452,41.692024,-27.203098,-1.987251,-102.82038,0.8937968,-1.5965402,1.0487119,0.23785952,-0.6132989,-0.47874644
20240115 08:34:06,-0.970858,-0.538555,2.795713,0.442123,-0.455594,0.297019,41.486103,-27.679028,-2.896027,-106.00622,1.5605767,-0.8639548,-0.07882205,0.55118555,-0.44585234,-0.6724174
20240115 08:34:06,0.559067,-0.717578,1.657219,0.683957,-0.277681,0.337502,41.795231,-27.563023,-2.766548,-112.05363,1.6129946,-0.6114811,-1.1968464,0.6451521,-0.28783858,-0.78051394
20240115 08:34:06,1.668275,-0.595907,0.737661,0.729767,-0.180735,0.263993,41.689453,-27.761295,-2.620697,-120.4109,1.3074853,-0.6425549,-1.8859801,0.5461582,-0.22116888,-0.7733956
20240115 08:34:06,2.459067,-0.531078,0.007865,0.604056,-0.151970,0.102060,41.741058,-27.941242,-3.010345,-128.69894,0.94068915,-1.0556829,-2.3607419,0.29682148,-0.23256634,-0.6178245
20240115 08:34:06,2.812148,-0.486655,-0.437610,0.350503,-0.169016,-0.102486,40.780388,-28.111172,-2.740868,-129.45863,0.7471056,-1.2974513,-2.537312,0.0067650005,-0.27631947,-0.34089422
20240115 08:34:06,2.586328,-0.381673,-0.561457,0.042617,-0.213760,-0.310229,41.168011,-27.890057,-3.019394,-123.12442,0.5484128,-1.0333968,-2.3232086,-0.31352627,-0.31781727,-0.042402267
20240115 08:34:06,1.845241,-0.102688,-0.193400,-0.236504,-0.255309,-0.434875,41.061470,-27.704548,-3.434479,-111.75662,0.6569841,-0.28734127,-1.6523032,-0.5300182,-0.30217475,0.17570493
20240115 08:34:06,0.888171,-0.004152,0.550457,-0.402698,-0.275551,-0.443398,41.106293,-27.229450,-3.465042,-104.98825,0.9284985,-0.0041559786,-0.8372366,-0.58722633,-0.2755109,0.26769742
20240115 08:34:06,0.223082,-0.064985,1.266341,-0.441051,-0.270224,-0.374150,41.097710,-27.516354,-3.178452,-102.94833,1.1703874,-0.16305111,-0.3802346,-0.53229845,-0.26231462,0.26230988
20240115 08:34:06,-0.317999,-0.149394,1.738399,-0.356888,-0.216956,-0.251635,41.248310,-26.842999,-3.354881,-101.264336,1.1965488,-0.41297084,-0.038883522,-0.38381484,-0.2162281,0.18636519
20240115 08:34:06,-0.577180,-0.313116,2.130835,-0.174714,-0.125337,-0.104617,40.762726,-26.591679,-3.778030,-102.04751,1.2947562,-0.6672541,-0.03180793,-0.17324942,-0.12873228,0.07083528
20240115 08:34:06,-0.521327,-0.598301,2.296179,0.047944,-0.026259,0.016832,40.393028,-26.622753,-3.511742,-104.51557,1.4553365,-0.89219475,-0.35314825,0.04667074,-0.023348028,-0.055709057
20240115 08:34:06,-0.174427,-0.897807,2.227262,0.237576,0.046185,0.080753,40.514549,-26.984524,-4.022797,-107.33767,1.6273636,-0.9991463,-0.8462055,0.21270819,0.051276334,-0.16882001
20240115 08:34:06,0.227498,-1.089780,1.985095,0.360091,0.061099,0.079688,40.948147,-26.863987,-3.490471,-108.032616,1.7056531,-1.1368971,-1.2243488,0.2886338,0.066814505,-0.25686207
20240115 08:34:06,0.433414,-1.166237,1.681050,0.418685,0.023812,0.042401,40.577301,-26.319386,-4.065590,-106.726456,1.6153361,-1.1917794,-1.3245093,0.28994328,0.029255884,-0.3240729
20240115 08:34:06,0.434749,-1.177197,1.290760,0.426143,-0.046501,0.006179,39.880936,-26.848392,-3.636070,-105.920395,1.3415296,-1.2092549,-1.2183534,0.25457266,-0.036375076,-0.37356615
20240115 08:34:06,0.275103,-1.111305,0.963039,0.405901,-0.128533,0.002983,40.223732,-27.102375,-3.884033,-103.06397,1.0230922,-1.1583991,-0.9512215,0.2363468,-0.11076184,-0.40741467
20240115 08:34:06,0.126115,-1.080410,0.672170,0.386725,-0.209499,0.040270,39.826759,-27.226620,-3.879868,-101.018425,0.7304543,-1.1277647,-0.73956776,0.25863317,-0.18999617,-0.44094375
20240115 08:34:06,0.005971,-1.120654,0.420696,0.375006,-0.308576,0.098864,39.965824,-27.206463,-4.683624,-98.03398,0.48419207,-1.1570799,-0.6005273,0.30908284,-0.2926709,-0.48540336
20240115 08:34:07,0.029629,-1.184442,0.012909,0.366483,-0.392739,0.168112,39.526596,-27.247608,-4.015450,-98.183235,0.13398887,-1.1777734,-0.57574815,0.35535002,-0.38822633,-0.5170062
20240115 08:34:07,0.312085,-1.317388,-0.454194,0.371810,-0.408719,0.224575,39.904106,-26.545849,-5.129272,-100.4733,-0.2874554,-1.3239869,-0.8092264,0.359565,-0.40819395,-0.5275294
20240115 08:34:07,0.747578,-1.385942,-0.749267,0.398444,-0.362909,0.237360,39.399940,-28.002216,-4.771286,-108.04824,-0.57731056,-1.527998,-1.1242166,0.32208776,-0.3491737,-0.53416026
20240115 08:34:07,1.174979,-1.538964,-1.066854,0.431469,-0.267028,0.194746,38.765556,-27.482304,-4.945503,-115.79628,-0.96303886,-1.9361861,-1.4378636,0.24983452,-0.24584927,-0.522975
20240115 08:34:07,1.419252,-1.570379,-1.256138,0.444253,-0.151970,0.108452,39.171494,-27.263050,-4.955780,-115.841125,-1.0875837,-2.0665405,-1.6381454,0.20764315,-0.16422632,-0.48080355
20240115 08:34:07,1.427252,-1.381616,-1.348163,0.429339,-0.045435,0.005114,39.056755,-27.556339,-4.803802,-115.5001,-1.12743,-1.9102061,-1.5707755,0.14152801,-0.09382055,-0.41687155
20240115 08:34:07,1.381587,-1.227700,-1.290846,0.386725,0.014224,-0.105683,38.952782,-26.812641,-4.585442,-112.461464,-1.0348297,-1.6745913,-1.5172702,0.04040747,-0.055361226,-0.34559414
20240115 08:34:07,1.033924,-0.892323,-1.256866,0.326000,0.030204,-0.178126,38.801804,-27.294117,-4.689484,-104.5789,-0.97757506,-1.1211728,-1.1547699,-0.05761894,-0.013260659,-0.28506178
20240115 08:34:07,0.623688,-0.588355,-1.195137,0.258883,0.007832,-0.213283,38.802185,-27.486004,-4.409012,-96.79353,-0.9629884,-0.610298,-0.7276056,-0.12591764,0.0031677752,-0.23715334
20240115 08:34:07,0.270525,-0.232137,-1.294994,0.187505,-0.026259,-0.204760,38.395863,-27.513378,-4.679207,-88.47357,-1.131473,-0.07635832,-0.33474565,-0.13923681,0.003075363,-0.18883108
20240115 08:34:07,0.037384,-0.007835,-1.358162,0.110800,-0.069938,-0.170669,38.377934,-27.703411,-4.666985,-83.24248,-1.2725049,0.25206605,-0.080490604,-0.11867878,-0.030390222,-0.13057661
20240115 08:34:07,-0.099969,0.159034,-1.540597,0.026637,-0.108291,-0.122728,38.413025,-26.939556,-5.252380,-78.7906,-1.511268,0.5039786,0.061401084,-0.08393499,-0.07529754,-0.057963528
20240115 08:34:07,-0.106075,0.333421,-1.687372,-0.053264,-0.089115,-0.069461,38.413795,-27.323338,-4.691437,-78.73508,-1.6945518,0.7200699,0.10250163,-0.05666277,-0.07286364,0.028101405
20240115 08:34:07,-0.118029,0.454955,-1.634433,-0.099074,-0.008148,-0.012997,38.404827,-27.418354,-4.685318,-80.28168,-1.6723464,0.79894423,0.15673938,-0.034757696,-0.010610031,0.09353975
20240115 08:34:07,-0.088296,0.541556,-1.417223,-0.112924,0.111171,0.043466,37.831398,-27.175274,-4.974838,-83.90638,-1.4584526,0.7814832,0.19337198,-0.01053844,0.09552159,0.14063986
20240115 08:34:07,-0.016043,0.496363,-0.954228,-0.093747,0.199595,0.091407,38.122978,-27.441189,-4.552666,-89.99127,-0.9607527,0.6063609,0.17522264,0.031601913,0.18315656,0.15311442
20240115 08:34:07,0.129082,0.342756,-0.533343,-0.077767,0.207052,0.114845,38.537880,-27.126919,-4.569054,-94.65079,-0.47184193,0.37657022,0.016268395,0.06718871,0.19807954,0.14277846
20240115 08:34:07,0.310159,0.260593,-0.296221,-0.063918,0.144197,0.113779,37.928974,-27.455799,-4.553642,-98.635635,-0.16125584,0.26301557,-0.17568499,0.08104596,0.14338908,0.10596765
20240115 08:34:07,0.550556,0.230725,-0.302747,-0.045807,0.055773,0.099930,37.965218,-27.267605,-4.297630,-102.13281,-0.070992276,0.19632168,-0.41154084,0.08052556,0.063381284,0.054739807
20240115 08:34:07,0.702447,0.243306,-0.628235,-0.025565,0.001440,0.074361,37.877373,-27.275845,-4.163994,-102.42602,-0.34655416,0.15809357,-0.5481811,0.06220155,0.009496095,0.019625159
20240115 08:34:07,0.739909,0.405765,-1.130476,0.000003,0.022747,0.060512,37.622803,-27.205509,-3.769203,-101.157646,-0.8492223,0.2621643,-0.5538282,0.060486518,0.02903074,0.0027579744
20240115 08:34:07,0.650695,0.640944,-1.554815,0.011722,0.115432,0.063708,37.462852,-27.782001,-3.867134,-98.13895,-1.3157679,0.50309974,-0.4450925,0.07371312,0.11991091,0.011897334
20240115 08:34:07,0.540976,0.739137,-1.791010,-0.010650,0.221967,0.081819,37.929359,-27.647686,-4.273178,-94.30279,-1.6104759,0.68549395,-0.33991987,0.08374904,0.22422606,0.056894857
20240115 08:34:07,0.389007,0.811977,-1.550976,-0.062852,0.290149,0.099930,37.532387,-27.771923,-4.269012,-92.32845,-1.4324912,0.8618832,-0.16302647,0.07259434,0.28647307,0.13094667
20240115 08:34:07,0.344297,0.889172,-1.421143,-0.138492,0.310391,0.114845,37.542118,-28.060688,-3.714180,-92.77975,-1.3255702,0.9693331,-0.07945983,0.05733871,0.30168766,0.21394552
20240115 08:34:07,0.177445,0.890319,-0.983558,-0.226916,0.275234,0.128694,37.754436,-28.047932,-3.444962,-92.900955,-0.95919746,0.983785,0.12228265,0.025582314,0.25485134,0.29891375
20240115 08:34:07,0.036600,0.806338,-0.459351,-0.299359,0.195333,0.147870,37.648277,-28.054317,-3.579567,-94.68864,-0.4945424,0.84995663,0.27193937,0.007988527,0.16703144,0.3452742
20240115 08:34:07,-0.006132,0.760816,0.024305,-0.314274,0.109040,0.171308,37.833702,-28.326611,-3.292007,-96.46876,-0.061566,0.7527613,0.30502024,0.019559026,0.07545378,0.32377568
20240115 08:34:07,-0.077906,0.705593,0.318183,-0.248223,0.085602,0.205399,37.843048,-28.423473,-3.017654,-99.64726,0.1948432,0.6734608,0.34575516,0.07133349,0.058671333,0.24567625
20240115 08:34:07,0.002553,0.455921,0.609080,-0.119316,0.098387,0.223510,37.869560,-27.946529,-3.316460,-101.3578,0.52003914,0.4225271,0.14448115,0.14056501,0.083019994,0.13016099
20240115 08:34:07,0.149400,0.254076,0.567160,0.024506,0.136739,0.222445,38.046402,-28.505741,-2.742317,-103.47843,0.5656498,0.23821715,-0.082213305,0.20541817,0.1299519,0.014379222
20240115 08:34:07,0.245691,0.087757,0.437474,0.149152,0.185745,0.194746,38.073681,-28.412563,-2.480186,-103.3288,0.49819532,0.0794863,-0.22846729,0.23511162,0.1824907,-0.07624986
20240115 08:34:07,0.107479,0.044030,0.070188,0.245033,0.258189,0.161720,38.126053,-28.976299,-2.308899,-100.08423,0.10416722,0.04213895,-0.08558493,0.2268199,0.2531781,-0.13210647
20240115 08:34:07,-0.158687,0.233770,0.058543,0.307889,0.323175,0.147870,38.832920,-29.119831,-1.622635,-97.842896,-0.041988827,0.21449025,0.23573709,0.2163629,0.31837493,-0.15975952
20240115 08:34:07,-0.229946,0.471120,0.195572,0.350503,0.345547,0.151066,38.268452,-28.781734,-1.918266,-98.33443,0.028206438,0.43234336,0.38849863,0.23931599,0.3433414,-0.18952648
20240115 08:34:07,-0.117484,0.895170,0.472161,0.385659,0.298672,0.168112,38.866974,-29.681721,-1.719589,-101.6519,0.32866904,0.860766,0.42199218,0.29029393,0.29807884,-0.24899934
20240115 08:34:07,0.289376,1.362324,0.550176,0.420816,0.211313,0.181961,39.151779,-29.292583,-0.938332,-107.52542,0.68437064,1.381154,0.17179263,0.34060752,0.21128185,-0.3312516
20240115 08:34:07,0.819840,1.724230,0.453982,0.452776,0.119694,0.172373,39.061363,-29.859005,-1.438148,-112.92494,1.0184469,1.7175543,-0.26524192,0.3404863,0.11751254,-0.4079587
20240115 08:34:07,1.354683,1.902963,0.068192,0.425077,0.049381,0.114845,39.459106,-30.118542,-0.881363,-117.902725,1.0371106,1.7055969,-0.7397054,0.2566612,0.038090248,-0.40494686
20240115 08:34:07,1.480309,2.035853,-0.354800,0.308954,0.012093,0.042401,40.005638,-30.646679,-0.573509,-119.25542,0.7664509,1.6674811,-0.806937,0.13716137,-0.0064117517,-0.29703262
20240115 08:34:07,1.383789,1.860399,-0.257884,0.139564,-0.007083,-0.033239,39.872585,-30.938114,-0.689781,-115.43938,0.63688904,1.6422788,-0.71044075,0.014311347,-0.025201574,-0.1290231
20240115 08:34:07,0.894533,1.467466,0.313142,-0.040480,-0.073134,-0.119532,40.126770,-30.816563,-1.365044,-107.44219,0.70289,1.4628608,-0.30689868,-0.12881151,-0.07741664,0.023811966
20240115 08:34:07,0.106831,1.080043,1.028922,-0.205609,-0.194584,-0.166407,40.137543,-29.779575,-1.298653,-102.2225,0.85724914,0.9817154,0.28645355,-0.22253743,-0.18768801,0.11247167
20240115 08:34:07,-0.620407,0.809310,1.896387,-0.294033,-0.290466,-0.153623,40.895626,-29.911175,-1.282516,-101.083176,1.0803044,0.38044077,0.7541875,-0.23311901,-0.29007643,0.10960217
20240115 08:34:07,-1.270785,0.548779,2.674325,-0.288706,-0.376759,-0.080114,40.965157,-29.901089,-1.684395,-102.814384,1.1775621,-0.17693418,0.9730752,-0.1641201,-0.39274302,0.016342808
20240115 08:34:07,-1.451753,0.103845,3.342053,-0.196021,-0.467313,-0.010867,41.440628,-29.671764,-2.096550,-103.76615,1.5749109,-0.71654093,0.68280345,-0.048106674,-0.48144132,-0.13441637
20240115 08:34:07,-1.316003,0.023437,3.057787,-0.018108,-0.424699,0.065839,41.598389,-29.845333,-2.351593,-102.918015,1.586448,-0.6549761,0.6508616,0.11144081,-0.42855766,-0.24418639
20240115 08:34:07,-0.929353,0.019727,2.785877,0.145956,-0.306446,0.152132,41.695198,-29.742092,-2.491341,-105.2556,1.6488559,-0.37179857,0.31605,0.2424945,-0.30822745,-0.31801525
20240115 08:34:07,-0.388840,-0.415632,2.528927,0.262079,-0.267028,0.188354,41.907898,-29.921223,-1.941643,-108.957695,1.8233706,-0.5363112,-0.40542313,0.31821853,-0.26647088,-0.3969279
20240115 08:34:07,0.259297,-0.734022,2.052096,0.312150,-0.281943,0.163851,41.922489,-29.905590,-3.148262,-111.81878,1.7910556,-0.6188024,-1.0295844,0.2941134,-0.2841929,-0.43982035
20240115 08:34:07,0.913319,-0.859395,1.432031,0.329196,-0.281943,0.082884,42.380798,-30.250065,-2.987244,-115.69572,1.5226898,-0.6866709,-1.4967432,0.18852681,-0.29560226,-0.43101132
20240115 08:34:07,1.412292,-0.747783,0.649459,0.311085,-0.194584,-0.031108,42.346359,-29.496296,-3.170761,-119.50509,0.9769545,-0.7304268,-1.7005091,0.060397476,-0.23978129,-0.34707108
20240115 08:34:07,1.645182,-0.608844,0.005251,0.252491,-0.061416,-0.178126,42.707855,-29.944019,-2.869995,-121.177704,0.45578414,-0.81408685,-1.7166015,-0.07023361,-0.15775627,-0.21502523
20240115 08:34:07,1.446982,-0.469461,-0.438124,0.125714,0.107975,-0.320883,42.486954,-30.243687,-2.852631,-115.28899,0.023663223,-0.71360254,-1.4319524,-0.21174027,0.0076781437,-0.029830713
20240115 08:34:07,0.909044,-0.358378,-0.223280,-0.036219,0.230490,-0.432744,42.838722,-30.402660,-3.106697,-106.46442,0.12359552,-0.40791813,-0.9460273,-0.39123076,0.19479506,0.16858809
20240115 08:34:07,0.218319,-0.250667,0.239483,-0.202413,0.294411,-0.501992,43.492065,-29.406788,-3.433144,-98.27326,0.33143276,-0.26068866,-0.3206089,-0.5626047,0.32701966,0.3421203
20240115 08:34:07,-0.454352,-0.153467,0.983097,-0.334516,0.293345,-0.512645,43.431885,-29.513744,-2.756905,-95.30599,0.6295642,-0.39739636,0.27044386,-0.65777,0.3487933,0.45978504
20240115 08:34:07,-1.173906,-0.118771,1.642919,-0.399502,0.261385,-0.458313,43.836670,-28.718807,-3.608597,-94.061455,0.63286716,-0.7244361,0.82418567,-0.6518692,0.29284108,0.4954516
20240115 08:34:07,-1.684463,-0.328600,2.428571,-0.376065,0.164438,-0.354974,43.745869,-29.093342,-4.388878,-95.032684,0.8035047,-1.3134291,0.9701413,-0.5395321,0.16808951,0.41500464
20240115 08:34:07,-2.059842,-0.460898,2.910033,-0.267399,0.037662,-0.207956,44.091621,-28.981037,-3.722916,-96.90441,0.8039503,-1.685037,1.0123847,-0.3326946,0.027928237,0.24191625
20240115 08:34:07,-2.123127,-0.662996,3.059427,-0.076702,-0.078461,-0.040696,44.400368,-28.673130,-3.873909,-96.99709,0.8880553,-1.9082005,0.8915775,-0.059289612,-0.08084413,0.008376718
20240115 08:34:07,-1.836894,-0.935463,2.647836,0.149152,-0.123206,0.108452,44.664288,-28.840336,-3.994347,-95.59476,1.0173972,-1.9305232,0.6733583,0.20479992,-0.11320732,-0.19975965
20240115 08:34:07,-1.282574,-1.109004,1.793396,0.348372,-0.083788,0.209661,44.469902,-28.663052,-4.275787,-94.138626,0.9415486,-1.6601915,0.3563075,0.38238302,-0.074068934,-0.342949
20240115 08:34:07,-0.632716,-1.229767,0.888483,0.474083,-0.016671,0.253340,44.468094,-29.605015,-4.348297,-95.297676,0.6346165,-1.4150095,-0.115955174,0.45722497,-0.012230484,-0.42906544
20240115 08:34:07,-0.185760,-1.390098,0.249055,0.518828,0.025943,0.253340,44.282288,-29.140827,-4.916321,-96.340416,0.2572154,-1.4128368,-0.46178046,0.45480904,0.026250063,-0.46541741
20240115 08:34:07,0.305397,-1.476543,-0.214072,0.494325,0.031270,0.210726,44.555557,-29.404903,-4.762398,-99.96782,-0.09374741,-1.4807048,-0.8423038,0.38982993,0.031232212,-0.45605564
20240115 08:34:07,0.584557,-1.388808,-0.724676,0.433600,0.036596,0.148936,44.564907,-29.501774,-4.488037,-102.786064,-0.61536,-1.472698,-0.95498693,0.2900334,0.035670064,-0.40695482
20240115 08:34:07,0.742320,-1.162208,-1.057942,0.364352,0.069622,0.088211,44.246429,-29.520908,-4.891869,-103.86535,-0.94874346,-1.343095,-0.9711296,0.20321956,0.06469127,-0.33349365
20240115 08:34:07,0.786834,-1.055117,-1.224458,0.287647,0.110105,0.032813,44.491653,-29.494373,-5.561020,-102.05097,-1.097481,-1.2577665,-0.97263265,0.12793268,0.10122974,-0.24793316
20240115 08:34:07,0.706042,-1.000085,-1.275669,0.199223,0.147393,-0.011932,44.819477,-29.572102,-4.882828,-100.24564,-1.1183913,-1.1428216,-0.8907608,0.05946131,0.13955487,-0.1496998
20240115 08:34:07,0.551587,-0.879529,-1.117144,0.115061,0.171896,-0.049219,44.476295,-29.126217,-4.915344,-95.2668,-0.90157753,-0.88123083,-0.7580238,-0.012236819,0.17178278,-0.057103336
20240115 08:34:07,0.284172,-0.703746,-0.765122,0.061794,0.192137,-0.064134,44.915520,-29.085072,-5.583519,-90.76007,-0.55513823,-0.62134665,-0.50333756,-0.05648327,0.19911517,0.0076049
20240115 08:34:07,-0.041135,-0.627234,-0.351024,0.035160,0.170830,-0.054546,44.633286,-28.916035,-5.731331,-87.085594,-0.22497973,-0.55732375,-0.2038815,-0.06637028,0.17980468,0.030458385
20240115 08:34:07,-0.399015,-0.643291,-0.093220,0.021310,0.117563,-0.032174,45.354744,-29.043926,-6.251694,-83.74281,-0.090546116,-0.64060444,0.10815475,-0.047618248,0.12336549,0.025468618
20240115 08:34:07,-0.547349,-0.520270,-0.031168,0.009591,0.080276,-0.001278,45.084045,-28.221676,-5.772171,-82.19519,-0.10755662,-0.55176383,0.2989921,-0.018202983,0.07840464,0.022377074
20240115 08:34:07,-0.610691,-0.430858,-0.020394,0.005330,0.070688,0.028551,45.302376,-28.480198,-6.422974,-82.543434,-0.1548964,-0.47508672,0.3895687,0.010000067,0.061662585,0.024435291
20240115 08:34:07,-0.547779,-0.497033,0.068666,-0.005323,0.040858,0.044532,45.092628,-27.934765,-6.058754,-84.167366,-0.049348336,-0.5535947,0.29958656,0.027668871,0.028688991,0.023385534
20240115 08:34:07,-0.499187,-0.615022,0.230045,-0.035153,-0.027325,0.037074,44.851997,-29.366436,-6.101669,-87.25581,0.11530346,-0.6948355,0.19291912,0.02320138,-0.0376588,0.02084779
20240115 08:34:07,-0.471823,-0.619243,0.359173,-0.059656,-0.129598,0.022159,45.045235,-28.968044,-6.661636,-86.690056,0.23727778,-0.72156084,0.16795363,0.019906554,-0.13654202,-0.0014358042
20240115 08:34:07,-0.420358,-0.637099,0.311406,-0.061787,-0.207368,0.011506,45.054581,-29.064915,-6.387276,-87.67532,0.21600935,-0.71935046,0.11345447,0.022922112,-0.21048196,-0.032469515
20240115 08:34:07,-0.401936,-0.624010,0.218528,-0.037284,-0.267028,0.002983,45.060974,-29.528088,-7.026840,-86.66932,0.1457949,-0.68393207,0.11882726,0.036173806,-0.26522833,-0.074347414
20240115 08:34:07,-0.217173,-0.628558,-0.055977,-0.007454,-0.294727,-0.010867,44.945850,-29.629482,-7.155327,-87.53326,-0.04267923,-0.6255833,-0.035628367,0.02953414,-0.29004815,-0.10391712
20240115 08:34:07,-0.039364,-0.619720,-0.379948,0.014918,-0.296858,-0.035370,44.857620,-29.445827,-7.302170,-88.535774,-0.3105787,-0.582053,-0.17559904,-4.980713E-5,-0.29151458,-0.11463608
20240115 08:34:07,0.198063,-0.549404,-0.768026,0.029833,-0.265962,-0.073722,44.750694,-29.068424,-7.997719,-89.060265,-0.65822464,-0.52086395,-0.3527312,-0.05278063,-0.2629761,-0.10613408
20240115 08:34:07,0.402257,-0.445954,-1.213771,0.031964,-0.172212,-0.130186,44.769009,-29.070278,-7.729477,-91.20796,-1.084856,-0.47913367,-0.49485266,-0.12230983,-0.17565481,-0.07346019
20240115 08:34:07,0.493053,-0.373750,-1.392343,0.035160,-0.035847,-0.194106,44.961861,-28.480000,-8.569916,-90.67829,-1.2397155,-0.43275148,-0.56634086,-0.18053469,-0.043749705,-0.04239122
20240115 08:34:07,0.463124,-0.344497,-1.251787,0.033029,0.086668,-0.268681,44.847889,-29.157070,-7.856995,-88.21253,-1.0626347,-0.28850365,-0.5502687,-0.25268754,0.09778606,-0.010387375
20240115 08:34:07,0.166437,-0.209641,-0.865166,0.028768,0.147393,-0.329406,44.759659,-28.973408,-8.003838,-83.08219,-0.72913855,-0.06953198,-0.25518546,-0.32233334,0.19621901,0.0057670344
20240115 08:34:07,-0.187958,-0.000626,-0.489137,0.030898,0.120759,-0.359235,44.837772,-28.676426,-8.692299,-77.51494,-0.50836253,0.10114886,0.14140831,-0.34591356,0.20596379,-0.015614195
20240115 08:34:07,-0.457160,0.205739,-0.429646,0.035160,0.063230,-0.353909,44.962627,-28.863781,-8.008972,-73.26245,-0.5975611,0.27974725,0.45589924,-0.32341468,0.17575713,-0.046787053
20240115 08:34:07,-0.638094,0.454484,-0.530360,0.031964,0.005701,-0.317687,44.388813,-28.428814,-8.578964,-68.677246,-0.8313093,0.5356705,0.6782259,-0.27046397,0.124746546,-0.06505668
20240115 08:34:07,-0.671491,0.630943,-0.753588,0.013853,-0.051828,-0.260158,44.352955,-28.808887,-8.554512,-64.05479,-1.1051505,0.7986871,0.7114059,-0.19895281,0.06343491,-0.05913923
20240115 08:34:07,-0.599394,0.652216,-1.095959,-0.028761,-0.077396,-0.205825,44.943546,-28.478153,-8.838165,-61.345993,-1.3827128,0.98882324,0.59151447,-0.15190765,0.016457595,-0.0146762
20240115 08:34:07,-0.492231,0.696330,-1.327059,-0.089486,-0.074200,-0.160015,44.397392,-28.141903,-8.865547,-60.113186,-1.5734107,1.1513581,0.46327507,-0.12720895,-0.005320266,0.05159154
20240115 08:34:07,-0.489656,0.742288,-1.276285,-0.149145,-0.066742,-0.112075,44.246025,-28.431492,-9.250061,-62.586456,-1.5474076,1.140111,0.49128568,-0.109661855,-0.031131297,0.11501292
20240115 08:34:07,-0.460412,0.656051,-1.044490,-0.204544,-0.099768,-0.070526,44.342838,-28.328243,-9.389801,-66.45869,-1.2962499,0.936579,0.49390447,-0.08486297,-0.08890999,0.16169378
20240115 08:34:07,-0.457709,0.554995,-0.772946,-0.246092,-0.159428,-0.036435,44.112976,-28.722935,-9.366325,-70.855515,-1.0114872,0.7202163,0.51962125,-0.059361666,-0.16454542,0.18254729
20240115 08:34:07,-0.347745,0.553321,-0.508044,-0.256746,-0.203107,-0.010867,43.521614,-28.669895,-9.643623,-74.73316,-0.71873045,0.6327247,0.45919052,-0.040946633,-0.21546674,0.17787254
20240115 08:34:07,-0.165008,0.640010,-0.356369,-0.237569,-0.210564,0.006179,43.681175,-27.901501,-9.826157,-78.543816,-0.5115392,0.6846138,0.34511065,-0.03336715,-0.22423336,0.15323964
20240115 08:34:07,-0.051027,0.608488,-0.076402,-0.207740,-0.216956,0.005114,43.441582,-28.007442,-10.357513,-81.6062,-0.18329147,0.60873216,0.26262322,-0.037222523,-0.22732858,0.115613736
20240115 08:34:07,0.019725,0.540220,0.090755,-0.175779,-0.232937,-0.008736,43.220299,-28.115215,-10.620621,-81.983696,0.00887268,0.52051306,0.18594316,-0.03838881,-0.23918189,0.07660745
20240115 08:34:08,-0.030855,0.609625,0.179293,-0.133165,-0.225479,-0.019389,43.122337,-27.642796,-11.322281,-81.16784,0.057848573,0.5716618,0.27032265,-0.03417387,-0.22786434,0.0362817
20240115 08:34:08,-0.111194,0.524242,0.276521,-0.085225,-0.212695,-0.025781,43.050232,-28.211063,-11.553856,-79.95378,0.11008753,0.45512426,0.3250374,-0.018305484,-0.21047829,-0.0061752293
20240115 08:34:08,-0.302814,0.325043,0.327582,-0.043676,-0.216956,-0.031108,42.733944,-27.480129,-11.604713,-78.107346,0.0934405,0.21451873,0.43534973,0.0015495382,-0.20824441,-0.050863482
20240115 08:34:08,-0.489127,0.239564,0.439680,0.001069,-0.245721,-0.027912,42.716782,-28.053944,-11.031540,-78.459564,0.116677225,0.07064353,0.58016694,0.034840383,-0.23018806,-0.106387794
20240115 08:34:08,-0.597965,0.241041,0.555396,0.053271,-0.291531,-0.011932,42.486153,-28.064861,-11.569008,-77.56313,0.1655291,0.026398674,0.6925989,0.08387226,-0.27148655,-0.17195418
20240115 08:34:08,-0.578405,0.433967,0.524876,0.112930,-0.333079,0.010440,42.564262,-27.767864,-12.257469,-76.74714,0.1242522,0.24088295,0.75125945,0.13175921,-0.313188,-0.23608506
20240115 08:34:08,-0.447865,0.707806,0.477945,0.159806,-0.376759,0.038139,41.885826,-28.106838,-11.840179,-78.75554,0.113787055,0.56117344,0.7231372,0.17081925,-0.36221376,-0.29016265
20240115 08:34:08,-0.209050,0.897976,0.403720,0.192831,-0.408719,0.050924,41.639454,-27.557705,-12.012444,-81.40421,0.17045361,0.8238108,0.555527,0.17437541,-0.40068716,-0.32971606
20240115 08:34:08,0.087229,1.124637,0.435471,0.232249,-0.440680,0.045597,41.567734,-28.317860,-11.963539,-84.62183,0.35075435,1.0906423,0.34582755,0.16098054,-0.43572825,-0.37579772
20240115 08:34:08,0.286712,1.280105,0.284005,0.266340,-0.473705,0.028551,41.152447,-28.440250,-12.227631,-84.50462,0.3053314,1.2704163,0.16304187,0.13691433,-0.47021526,-0.4072526
20240115 08:34:08,0.325722,1.493992,-0.086632,0.282321,-0.484359,0.027486,41.054871,-28.159725,-12.648827,-83.14486,-0.025653504,1.4982291,0.11999206,0.12136407,-0.4826745,-0.40983126
20240115 08:34:08,0.453423,1.754855,-0.758904,0.266340,-0.424699,0.026421,40.542389,-28.193470,-13.053635,-81.97513,-0.6055443,1.7368361,-0.08643686,0.075192064,-0.42528474,-0.3508835
20240115 08:34:08,0.588711,1.892001,-1.345975,0.163002,-0.258505,0.025355,40.366699,-28.209934,-12.786362,-83.92546,-1.0694323,1.7746238,-0.26776674,0.034207467,-0.25804767,-0.20592138
20240115 08:34:08,0.602434,2.157867,-1.578607,-0.029826,0.003571,0.006179,39.830280,-28.162434,-12.258919,-84.94581,-1.2789677,2.045414,-0.17083995,4.944345E-5,0.0043552243,0.030026833
20240115 08:34:08,0.600968,1.890264,-0.478049,-0.273791,0.199595,-0.042827,39.933098,-28.330471,-13.318680,-86.72951,-0.22041115,1.8822803,0.076763056,-0.13230675,0.20022823,0.32484746
20240115 08:34:08,0.290538,1.276158,1.191633,-0.485795,0.252862,-0.133382,40.093815,-28.137753,-12.659821,-89.55205,1.0757285,1.1899803,0.37898627,-0.37443143,0.2407264,0.5468303
20240115 08:34:08,-0.369107,0.855456,2.822382,-0.632813,0.160177,-0.194106,39.890846,-28.247379,-12.654686,-93.08562,1.8758892,0.4372585,0.71967775,-0.5573047,0.12009044,0.6062846
20240115 08:34:08,-1.087047,0.359472,4.322908,-0.659447,-0.049697,-0.204760,39.662403,-27.508213,-12.839172,-96.35137,2.204292,-0.49631608,0.69392836,-0.5955472,-0.11742562,0.45352122
20240115 08:34:08,-1.749935,-0.137551,5.157709,-0.523083,-0.276616,-0.140839,39.326378,-27.909275,-12.950317,-98.085754,2.1237516,-1.3993051,0.55807006,-0.4261733,-0.34286952,0.16938335
20240115 08:34:08,-2.060702,-0.353350,5.228514,-0.230112,-0.375693,-0.001278,39.274780,-27.729313,-12.560661,-98.05955,1.9825943,-1.7060072,0.60940444,-0.100504175,-0.40698534,-0.115735345
20240115 08:34:08,-1.698344,-0.558006,4.548927,0.172590,-0.318165,0.168112,38.928638,-27.649746,-13.507095,-96.00249,2.0858889,-1.5231602,0.4993415,0.28811705,-0.31040788,-0.35656565
20240115 08:34:08,-0.778602,-0.855049,3.348632,0.558246,-0.143447,0.273581,38.946953,-27.651592,-13.238846,-96.93763,2.1314662,-1.1558464,-0.20159087,0.57701325,-0.12823734,-0.5415659
20240115 08:34:08,0.336896,-1.148820,2.120611,0.838432,0.039792,0.279973,38.735020,-27.856243,-13.227600,-99.60242,1.8819978,-1.0452317,-1.109838,0.7022465,0.024491725,-0.6995694
20240115 08:34:08,1.096958,-1.261535,0.908886,0.957751,0.197464,0.204334,38.645370,-28.806438,-13.166458,-103.64379,1.0717579,-1.1757638,-1.655863,0.67391217,0.13258526,-0.76949155
20240115 08:34:08,1.461583,-1.074594,0.117010,0.923660,0.250731,0.079688,37.887283,-28.674831,-13.182602,-105.08738,0.36159766,-1.1668516,-1.7633871,0.50505614,0.14600345,-0.7627989
20240115 08:34:08,1.515202,-0.826866,-0.693095,0.750008,0.256058,-0.038566,38.250587,-28.180599,-12.809326,-105.49283,-0.44162259,-1.1912771,-1.6299187,0.28904507,0.13583362,-0.6344681
20240115 08:34:08,1.368341,-0.516669,-1.227262,0.491129,0.239013,-0.131251,38.479797,-29.303547,-12.063904,-103.077736,-0.95062107,-1.0188253,-1.3816128,0.083458506,0.13681844,-0.41092253
20240115 08:34:08,1.013474,-0.316491,-1.369038,0.182178,0.202791,-0.184518,38.233421,-28.754406,-12.236168,-92.04823,-1.1103846,-0.56984335,-1.0480962,-0.09956966,0.16351269,-0.12518406
20240115 08:34:08,0.630611,-0.270731,-1.001066,-0.103335,0.149523,-0.184518,38.646141,-29.190212,-12.605522,-83.65315,-0.76375985,-0.24427602,-0.7146679,-0.21006623,0.15284817,0.1366095
20240115 08:34:08,0.279309,-0.292459,-0.335742,-0.295098,0.105844,-0.137643,38.270050,-28.758106,-11.699669,-85.587456,-0.18782172,-0.2607222,-0.37675112,-0.24382064,0.10696512,0.30930325
20240115 08:34:08,0.259891,-0.478402,0.248189,-0.373934,0.102648,-0.074787,38.005749,-28.399021,-11.859711,-88.87864,0.35810834,-0.48409995,-0.4347125,-0.22998619,0.09754752,0.3818423
20240115 08:34:08,0.361966,-0.717025,0.646283,-0.374999,0.137804,-0.025781,38.330620,-28.843052,-12.095444,-92.63241,0.7590968,-0.72868115,-0.66801363,-0.20126286,0.13322636,0.39647982
20240115 08:34:08,0.444357,-0.862430,0.973197,-0.321732,0.188941,0.014702,38.102943,-28.487659,-11.718987,-95.03649,1.0786728,-0.8733626,-0.8537341,-0.14943227,0.18586689,0.37207684
20240115 08:34:08,0.429147,-0.916439,1.166443,-0.250353,0.220902,0.046662,38.033028,-28.305851,-11.597588,-96.02164,1.2327496,-0.9266831,-0.89557236,-0.089766696,0.21868022,0.3248228
20240115 08:34:08,0.479053,-0.932315,1.253416,-0.190694,0.223032,0.070100,37.793816,-28.603664,-11.848465,-96.59392,1.3250452,-0.9357809,-0.9600687,-0.038426183,0.22236934,0.27320656
20240115 08:34:08,0.586635,-0.931043,1.199264,-0.158734,0.187876,0.076492,37.627472,-28.716999,-11.306831,-98.71926,1.3075393,-0.9096913,-1.0659955,-0.010379106,0.19199145,0.22526236
20240115 08:34:08,0.711456,-0.940039,1.206644,-0.168322,0.123955,0.061577,37.636822,-28.813862,-11.032478,-100.82811,1.3579935,-0.90497947,-1.2072072,-0.029998973,0.13101014,0.2010839
20240115 08:34:08,0.868688,-0.965086,1.365328,-0.181106,0.034466,0.025355,37.830444,-28.607365,-11.311974,-101.534256,1.5598717,-0.9155997,-1.3841205,-0.07301954,0.042418957,0.1685845
20240115 08:34:08,0.849087,-0.977677,1.381645,-0.160864,-0.021998,-0.016193,37.751564,-28.520580,-11.184456,-100.60701,1.5822134,-0.9434807,-1.3649625,-0.100017846,-0.018668655,0.12638724
20240115 08:34:08,0.640063,-0.924212,1.357503,-0.096943,-0.027325,-0.035370,37.530281,-28.628353,-11.447563,-98.4439,1.484945,-0.91777164,-1.1303091,-0.08127872,-0.027159354,0.070937715
20240115 08:34:08,0.497358,-0.859219,1.275616,0.002134,-0.010279,-0.030043,37.424507,-28.826626,-11.301697,-97.02421,1.3616153,-0.8724462,-0.9446361,-0.024544211,-0.009850637,-0.0051822145
20240115 08:34:08,0.376213,-0.829305,1.011936,0.106538,0.011028,-0.009801,37.627090,-28.525112,-11.587311,-94.31855,1.0872322,-0.8486688,-0.7676934,0.042939298,0.01271712,-0.0874102
20240115 08:34:08,0.381180,-0.791385,0.653110,0.192831,0.037662,0.009375,37.062622,-28.187008,-11.882935,-90.772316,0.783064,-0.80782264,-0.6964549,0.09251763,0.04079784,-0.15619266
20240115 08:34:08,0.358953,-0.696848,0.163871,0.247164,0.064295,0.032813,37.556789,-28.151402,-11.746368,-89.65621,0.30575788,-0.69685704,-0.60651577,0.12743494,0.0656153,-0.20099181
20240115 08:34:08,0.512782,-0.737978,-0.241442,0.250360,0.076014,0.037074,37.751564,-28.520580,-11.184456,-90.332306,-0.049060762,-0.7426849,-0.743187,0.12537405,0.07536623,-0.20640759
20240115 08:34:08,0.592648,-0.757097,-0.588982,0.214138,0.087733,0.018963,37.424507,-28.826626,-11.301697,-90.10345,-0.3785206,-0.7797623,-0.8112925,0.09197724,0.08605057,-0.17250049
20240115 08:34:08,0.569366,-0.764907,-0.719461,0.156610,0.091994,-0.007671,37.372902,-28.646664,-10.912041,-89.58066,-0.49850255,-0.77655125,-0.79330987,0.046083756,0.09118476,-0.11706204
20240115 08:34:08,0.550983,-0.772787,-0.613549,0.095885,0.068557,-0.039631,37.539627,-28.725224,-11.173203,-87.796326,-0.3731767,-0.75652826,-0.78956485,-0.005862657,0.07001381,-0.067256525
20240115 08:34:08,0.400663,-0.759260,-0.563536,0.052205,0.039792,-0.065199,37.242035,-28.188023,-10.675346,-85.23797,-0.3339787,-0.7048658,-0.6526528,-0.045984223,0.045853212,-0.0372346
20240115 08:34:08,0.189324,-0.682177,-0.521821,0.036225,0.030204,-0.060938,37.479446,-28.832172,-10.496971,-82.864624,-0.33448082,-0.6021293,-0.43417457,-0.04791415,0.039223015,-0.0262416
20240115 08:34:08,0.085034,-0.590738,-0.478640,0.043683,0.025943,-0.040696,37.505959,-28.355228,-10.795776,-80.78608,-0.32252917,-0.50527585,-0.31130788,-0.026202824,0.034277078,-0.03419592
20240115 08:34:08,0.019382,-0.636183,-0.410968,0.056467,0.000375,-0.014063,37.372902,-28.646664,-10.912041,-80.71424,-0.2713561,-0.5611841,-0.26559025,0.007122119,0.0059778746,-0.053433403
20240115 08:34:08,0.053332,-0.653337,-0.509923,0.067120,-0.036913,0.001918,37.373287,-28.838551,-10.631577,-80.669815,-0.3672136,-0.5715477,-0.2874285,0.028867608,-0.033508793,-0.075224414
20240115 08:34:08,0.151747,-0.553810,-0.870684,0.078839,-0.024128,0.016832,37.569481,-28.073872,-10.277626,-80.87635,-0.7269535,-0.45241284,-0.34053776,0.041071493,-0.023272563,-0.08159873
20240115 08:34:08,0.371545,-0.505236,-1.224618,0.084166,0.034466,0.021094,37.636822,-28.813862,-11.032478,-82.951385,-1.0749378,-0.46311814,-0.5236949,0.040508263,0.03447283,-0.072186634
20240115 08:34:08,0.538328,-0.497386,-1.352537,0.069251,0.113301,0.004048,37.690994,-28.435642,-10.788689,-86.15375,-1.1916181,-0.53449667,-0.6656458,0.023714155,0.11292714,-0.039403345
20240115 08:34:08,0.606339,-0.409914,-1.321206,0.036225,0.177222,-0.023651,37.673065,-28.625675,-10.776459,-86.274124,-1.1320531,-0.43763843,-0.7119028,-0.010372713,0.17656647,0.00935063
20240115 08:34:08,0.544727,-0.287683,-1.156825,-0.008519,0.197464,-0.046023,37.745552,-28.249302,-10.264420,-85.982765,-0.9595965,-0.2702073,-0.6246611,-0.049219307,0.19802493,0.061231527
20240115 08:34:08,0.413724,-0.144807,-0.939773,-0.063918,0.180418,-0.059873,37.973228,-28.604687,-10.640869,-81.052315,-0.75994146,-0.03445282,-0.4796661,-0.09401992,0.18354698,0.11001851
20240115 08:34:08,0.160876,0.044983,-0.666007,-0.105466,0.121824,-0.044958,37.922012,-28.616611,-9.970749,-80.44144,-0.57886094,0.15457694,-0.17358908,-0.0942515,0.12169224,0.13582353
20240115 08:34:08,0.064666,0.123225,-0.427863,-0.131034,0.032335,-0.015128,37.999741,-28.127743,-10.939682,-78.44099,-0.39889985,0.19256026,-0.05018473,-0.06091602,0.027327657,0.13334334
20240115 08:34:08,0.108649,0.244894,-0.546510,-0.147015,-0.036913,0.015767,38.485710,-28.570934,-10.236061,-78.94744,-0.5201305,0.33219415,-0.0630883,-0.02340055,-0.046072174,0.13033663
20240115 08:34:08,0.123653,0.378425,-0.740281,-0.141688,-0.056089,0.056250,38.079384,-28.598301,-10.506264,-79.193726,-0.71855223,0.4762447,-0.053265765,0.021014731,-0.06831984,0.12347547
20240115 08:34:08,0.251701,0.473022,-0.916593,-0.144884,-0.056089,0.087145,38.097702,-28.600155,-10.238014,-80.7102,-0.8599688,0.5663651,-0.15925947,0.051118508,-0.06810275,0.12898327
20240115 08:34:08,0.365004,0.603288,-1.088094,-0.154472,-0.045435,0.112714,38.343307,-28.765507,-10.626694,-82.38781,-0.9919975,0.6612698,-0.24087882,0.07294217,-0.05295175,0.14215879
20240115 08:34:08,0.485714,0.762170,-1.138138,-0.171518,-0.034782,0.136151,38.131371,-28.970158,-10.615440,-84.40829,-0.99631715,0.7701313,-0.31929022,0.09208293,-0.03591036,0.16164576
20240115 08:34:08,0.568869,0.787441,-1.261464,-0.197086,0.007832,0.150001,38.246498,-28.868755,-10.486946,-87.04525,-1.0624912,0.7357964,-0.3830772,0.099576026,0.015046131,0.19520918
20240115 08:34:08,0.662129,0.866164,-1.092502,-0.220524,0.053642,0.151066,38.246880,-29.060642,-10.206474,-91.08104,-0.81106126,0.764935,-0.4074173,0.0918695,0.06978369,0.22613135
20240115 08:34:08,0.752235,0.730363,-0.770347,-0.238635,0.074949,0.129759,38.556007,-28.944637,-10.077003,-93.243645,-0.4460863,0.64944303,-0.48176762,0.056500554,0.09069398,0.24785702
20240115 08:34:08,0.737278,0.662650,-0.369098,-0.247157,0.063230,0.098864,38.377361,-29.327396,-10.723648,-92.63214,-0.06361431,0.63002443,-0.46333963,0.012208857,0.07252378,0.25239128
20240115 08:34:08,0.621704,0.671952,-0.024348,-0.235439,0.037662,0.070100,38.422955,-29.236073,-10.193268,-92.437645,0.21243666,0.66948366,-0.3302948,-0.021223858,0.03913095,0.23164459
20240115 08:34:08,0.352445,0.625779,0.285194,-0.199217,-0.007083,0.049858,38.455856,-29.222294,-11.131645,-87.77035,0.35534427,0.614292,-0.07382993,-0.032120753,-0.016701154,0.18115096
20240115 08:34:08,-0.040959,0.638107,0.413308,-0.149145,-0.071004,0.051989,38.562019,-29.215916,-10.997032,-84.220375,0.27090302,0.5715176,0.30614698,-0.0022525713,-0.086244985,0.11092374
20240115 08:34:08,-0.288102,0.717763,0.359094,-0.088421,-0.094441,0.076492,38.853218,-29.289951,-10.855324,-81.87797,0.087038994,0.6208942,0.56244016,0.05109263,-0.11260176,0.049124755
20240115 08:34:08,-0.317478,0.777949,0.334749,-0.008519,-0.068873,0.109518,38.746674,-29.104443,-11.270409,-82.0649,0.056710124,0.69189346,0.61030287,0.10699019,-0.085796885,-0.01281602
20240115 08:34:08,-0.190663,0.880294,0.406358,0.074578,-0.039043,0.130825,38.622581,-29.300861,-11.392792,-84.790924,0.19392481,0.8167934,0.5340657,0.15316516,-0.0501967,-0.07919147
20240115 08:34:08,0.016340,1.098624,0.475955,0.163002,-0.030521,0.139348,39.046452,-28.891560,-11.415298,-87.58246,0.38773677,1.0720706,0.4097991,0.1922527,-0.03428911,-0.16012143
20240115 08:34:08,0.368554,1.423097,0.443517,0.253556,-0.024128,0.126563,38.975117,-29.843601,-11.085922,-92.55211,0.59101117,1.4315633,0.16727105,0.20939639,-0.023268003,-0.24697676
20240115 08:34:08,0.750591,1.798573,0.275778,0.322804,-0.014540,0.083949,39.204597,-29.257030,-11.389862,-94.88734,0.7070358,1.7873003,-0.115300536,0.18502195,-0.017817602,-0.31142563
20240115 08:34:08,0.909491,2.073446,0.108653,0.327065,-0.002822,0.015767,39.141842,-29.922161,-11.347076,-95.64999,0.6685569,2.0260644,-0.22488901,0.1163149,-0.015276721,-0.31215313
20240115 08:34:08,0.842715,2.386662,-0.097408,0.259948,-0.011344,-0.056677,39.363510,-30.006283,-10.803490,-92.71965,0.36901426,2.3431382,-0.12587993,0.019081123,-0.0237301,-0.25160107
20240115 08:34:08,0.512042,2.621157,-0.238611,0.140629,-0.001756,-0.112075,39.433041,-29.996197,-11.205368,-84.63463,-0.17494842,2.6328456,0.23657222,-0.06785324,0.0035194247,-0.13838924
20240115 08:34:08,-0.030437,2.630486,-0.080428,-0.009585,0.021681,-0.138708,39.415493,-30.378117,-10.912674,-76.57537,-0.593231,2.5894895,0.7927127,-0.13661596,0.047484383,0.005799559
20240115 08:34:08,-0.683650,2.446861,0.173853,-0.155537,0.078145,-0.121663,39.343006,-30.754505,-11.424713,-72.09292,-0.7925193,2.2027807,1.4673136,-0.18514138,0.09293099,0.1586985
20240115 08:34:08,-1.115489,2.041429,0.616075,-0.258876,0.159111,-0.070526,39.281288,-30.093899,-11.870354,-72.55213,-0.5962325,1.5472882,1.9007639,-0.2187795,0.13345908,0.2897562
20240115 08:34:08,-1.488625,1.298265,1.369728,-0.313209,0.201725,-0.007671,39.669296,-30.064678,-11.868401,-78.209946,-0.05942142,0.50480294,2.068231,-0.2278329,0.13264948,0.36927187
20240115 08:34:08,-1.798807,0.477055,2.141675,-0.305752,0.164438,0.063708,39.651367,-30.254719,-11.856178,-85.13272,0.44075632,-0.5433569,1.8445632,-0.17724736,0.07214144,0.3470895
20240115 08:34:08,-1.884954,-0.247587,2.662688,-0.235439,0.085602,0.139348,39.730629,-30.533390,-11.703232,-90.80873,0.8241819,-1.3122576,1.2828357,-0.06849358,-0.0042754635,0.2354444
20240115 08:34:08,-1.796848,-0.777751,2.897788,-0.133165,-0.035847,0.211791,39.597580,-30.824833,-11.819496,-94.27156,1.0753177,-1.7850351,0.70162976,0.072466545,-0.110882655,0.0664348
20240115 08:34:08,-1.571419,-1.131364,2.933166,-0.021304,-0.158362,0.268255,39.200222,-30.757183,-12.095810,-96.088394,1.3157786,-1.9512339,0.23453888,0.21200438,-0.20994815,-0.106572285
20240115 08:34:08,-1.092853,-1.328461,2.581673,0.105473,-0.237198,0.308738,39.871231,-31.280796,-11.385101,-97.8827,1.4787748,-1.8139038,-0.20073178,0.33689645,-0.26575664,-0.2564092
20240115 08:34:08,-0.434296,-1.470155,2.027206,0.225857,-0.242525,0.310869,39.745987,-30.901546,-12.348907,-98.03684,1.4803736,-1.6317713,-0.6740747,0.40058687,-0.25200847,-0.3496061
20240115 08:34:08,0.161728,-1.491385,1.384457,0.333457,-0.179669,0.272516,39.612938,-31.192982,-12.465172,-100.102234,1.2222984,-1.4639763,-1.0569111,0.4052669,-0.17835811,-0.4019664
20240115 08:34:08,0.737268,-1.430112,0.774692,0.428273,-0.049697,0.200072,39.955734,-31.446972,-12.713127,-103.16602,0.81256384,-1.354822,-1.3926089,0.36936432,-0.05344706,-0.42167425
20240115 08:34:08,1.202090,-1.271383,0.110413,0.482606,0.153785,0.103126,39.224930,-31.222202,-12.467125,-106.75463,0.2704446,-1.3336176,-1.6148765,0.33176342,0.11643758,-0.38897318
20240115 08:34:08,1.345545,-1.061423,-0.351907,0.473018,0.361528,-0.008736,39.550568,-32.050007,-12.141907,-106.84628,-0.10248804,-1.2647462,-1.590812,0.27259982,0.28758898,-0.30669382
20240115 08:34:08,1.209301,-0.857505,-0.504467,0.378202,0.496827,-0.115271,39.654537,-32.793713,-12.360268,-102.037796,-0.22760755,-1.0428252,-1.3888596,0.13546383,0.42694116,-0.17730841
20240115 08:34:08,0.790295,-0.639872,-0.520941,0.201354,0.567140,-0.196237,39.815254,-32.600986,-11.701393,-94.01228,-0.25518024,-0.68997175,-0.94961435,-0.07810706,0.5486681,0.011353639
20240115 08:34:08,0.297159,-0.334465,-0.145178,0.000003,0.599100,-0.232459,40.369987,-32.650318,-11.960594,-86.710266,0.012633428,-0.3072745,-0.40595126,-0.27007467,0.61792517,0.22495827
20240115 08:34:08,-0.210972,-0.170807,0.527127,-0.190694,0.588447,-0.226067,40.161011,-32.488682,-11.035431,-86.969765,0.3937462,-0.28075385,0.12261542,-0.38913652,0.5993838,0.43235946
20240115 08:34:09,-0.786884,-0.202012,1.389632,-0.328124,0.536245,-0.182388,40.706776,-32.633038,-11.288521,-87.612595,0.7676679,-0.6318588,0.59271127,-0.44699818,0.5107398,0.5573012
20240115 08:34:09,-1.303797,-0.137982,2.143096,-0.404829,0.439298,-0.099290,40.654793,-32.261196,-11.179337,-90.10083,0.93002355,-0.89827245,0.9760521,-0.42237592,0.37042162,0.5852079
20240115 08:34:09,-1.656903,-0.246809,2.821900,-0.409090,0.310391,0.015767,40.742638,-32.252964,-11.312973,-92.8886,1.0979837,-1.2738698,1.0441042,-0.323168,0.20731166,0.5125234
20240115 08:34:09,-1.776119,-0.475691,3.138574,-0.356888,0.159111,0.142544,40.318382,-32.470371,-11.570946,-95.24201,1.222922,-1.5590961,0.85488945,-0.16702297,0.04464427,0.3656977
20240115 08:34:09,-1.622711,-0.764114,3.100643,-0.273791,0.013159,0.259732,40.857376,-31.959675,-11.464943,-96.255066,1.3609266,-1.6731472,0.5144788,0.007986978,-0.0907256,0.19763187
20240115 08:34:09,-1.099767,-1.167906,2.666189,-0.171518,-0.096572,0.337502,40.475761,-32.452061,-12.106453,-97.40097,1.5266196,-1.6945367,-0.0849465,0.16505392,-0.16828595,0.046290584
20240115 08:34:09,-0.386748,-1.483856,1.942890,-0.072440,-0.137055,0.359875,40.546059,-32.825756,-11.947395,-99.49754,1.451451,-1.6457889,-0.7341471,0.2579351,-0.16769849,-0.055556826
20240115 08:34:09,0.224820,-1.771546,1.206287,0.020245,-0.129598,0.327914,40.094532,-33.136333,-12.467491,-101.006065,1.1222156,-1.7638847,-1.2584156,0.28538153,-0.1273388,-0.12010211
20240115 08:34:09,0.624080,-1.934807,0.496384,0.094819,-0.090180,0.261863,40.422356,-33.214069,-11.789314,-102.959724,0.5649997,-1.9119064,-1.5189625,0.2657259,-0.071307056,-0.15429541
20240115 08:34:09,0.887331,-2.025699,-0.186314,0.138499,-0.023063,0.171308,40.573341,-32.732594,-11.685257,-103.59082,-0.1196443,-2.0910277,-1.6220001,0.20762773,-0.005315112,-0.15200284
20240115 08:34:09,1.010295,-1.897388,-0.758685,0.144891,0.048315,0.075427,40.253059,-33.693691,-12.161606,-104.04757,-0.74462414,-2.1025348,-1.5472128,0.13213338,0.051016748,-0.12433323
20240115 08:34:09,1.007742,-1.721230,-1.193137,0.124649,0.115432,-0.012997,40.104649,-33.616978,-11.632195,-102.87358,-1.1901972,-2.0317538,-1.4017802,0.055064477,0.098636724,-0.08186855
20240115 08:34:09,0.876685,-1.455715,-1.459110,0.074578,0.163373,-0.088637,40.270607,-33.311764,-12.454292,-96.22729,-1.3824221,-1.728416,-1.2036803,-0.034475893,0.14161262,-0.023205651
20240115 08:34:09,0.598470,-1.183756,-1.487863,0.002134,0.174026,-0.140839,40.482922,-33.299007,-12.185081,-88.07631,-1.3040013,-1.2345568,-0.91228616,-0.129441,0.1695486,0.04412781
20240115 08:34:09,0.270074,-0.954925,-1.370294,-0.076702,0.149523,-0.165342,40.598045,-33.197605,-12.056572,-80.68427,-1.1292696,-0.7959855,-0.5880446,-0.1951062,0.16369082,0.10770875
20240115 08:34:09,-0.021280,-0.694990,-1.279345,-0.148080,0.119694,-0.157885,40.658997,-33.474438,-12.171875,-75.324554,-1.0633845,-0.42463416,-0.27082515,-0.2148902,0.1395997,0.16376376
20240115 08:34:09,-0.196842,-0.478661,-1.060823,-0.198151,0.102648,-0.131251,40.473572,-33.202145,-12.459427,-74.35639,-0.9309105,-0.2390055,-0.049218036,-0.20680091,0.11447795,0.20804949
20240115 08:34:09,-0.296249,-0.376018,-0.875532,-0.225850,0.100517,-0.096094,40.624557,-32.720661,-12.355385,-75.62734,-0.8188601,-0.19620222,0.08613002,-0.18528578,0.10137947,0.23744603
20240115 08:34:09,-0.298069,-0.332617,-0.652080,-0.234373,0.118628,-0.063069,41.028305,-33.251476,-12.718636,-78.22197,-0.63574827,-0.21843117,0.113456324,-0.16521198,0.11054071,0.25582004
20240115 08:34:09,-0.271109,-0.222390,-0.333786,-0.223720,0.118628,-0.031108,40.703438,-32.807453,-12.482903,-80.488785,-0.36479262,-0.17694798,0.14535019,-0.13575119,0.10483388,0.24949995
20240115 08:34:09,-0.252086,-0.196700,-0.103524,-0.209870,0.094125,-0.000213,40.940460,-33.259701,-12.585007,-82.466866,-0.16052568,-0.19440182,0.1471825,-0.10058858,0.07669665,0.22966522
20240115 08:34:09,-0.270519,-0.152510,0.096061,-0.204544,0.025943,0.023225,41.170708,-33.056904,-12.328003,-83.912704,-7.053837E-4,-0.18542247,0.18815906,-0.06768399,0.0068051703,0.19800729
20240115 08:34:09,-0.241243,-0.084619,0.118029,-0.208805,-0.065677,0.042401,40.978508,-32.129551,-12.256485,-84.2269,0.019926183,-0.11668781,0.19049357,-0.037674144,-0.08477305,0.16549948
20240115 08:34:09,-0.147616,-0.059830,0.074573,-0.213066,-0.137055,0.050924,41.231659,-33.333744,-12.443291,-85.564415,0.015297916,-0.07720362,0.113078006,-0.022744358,-0.15435651,0.14093691
20240115 08:34:09,-0.076251,0.024775,0.083443,-0.205609,-0.182865,0.044532,40.852234,-33.076046,-12.731834,-86.62708,0.042369403,0.012698723,0.081720725,-0.024315663,-0.19552998,0.11500099
20240115 08:34:09,-0.005748,0.053826,0.064425,-0.181106,-0.197780,0.023225,40.532990,-32.711414,-13.696609,-85.21413,0.05110672,0.047013514,0.028998187,-0.032472014,-0.20665431,0.08731933
20240115 08:34:09,0.009113,0.086521,0.045932,-0.128904,-0.169016,-0.004474,40.339752,-33.109798,-13.136642,-86.01533,0.036396563,0.08159766,0.028002141,-0.038791034,-0.17341004,0.049240965
20240115 08:34:09,-0.082063,0.088244,0.068861,-0.046872,-0.120010,-0.034304,40.215279,-33.114323,-13.539505,-83.72434,0.0173054,0.07334124,0.11362673,-0.034100696,-0.1169442,-0.007029205
20240115 08:34:09,-0.240181,0.124991,-0.003297,0.043683,-0.066742,-0.055611,40.506863,-33.380253,-13.117325,-80.9269,-0.11882281,0.105306484,0.26911014,-0.021424286,-0.052446276,-0.06938353
20240115 08:34:09,-0.391968,0.296893,-0.224875,0.118257,-0.017736,-0.057742,40.788712,-33.357410,-13.249985,-75.60845,-0.41540056,0.30392912,0.44955102,-0.004609,0.007213056,-0.12159534
20240115 08:34:09,-0.568267,0.496705,-0.448996,0.170459,0.014224,-0.032174,40.196968,-33.112469,-13.807739,-71.11848,-0.73619986,0.53994554,0.6458346,0.026744561,0.039665505,-0.15868567
20240115 08:34:09,-0.590522,0.598757,-0.563765,0.174720,-0.004952,0.001918,40.752853,-33.737484,-13.225525,-70.97711,-0.8713388,0.6711807,0.6840371,0.061203074,0.011927392,-0.16612865
20240115 08:34:09,-0.518807,0.664853,-0.774599,0.139564,-0.065677,0.024290,40.946472,-33.530987,-13.505035,-68.90611,-1.0508537,0.8063265,0.5985682,0.083427496,-0.056885667,-0.14895086
20240115 08:34:09,-0.472929,0.744241,-0.967386,0.080970,-0.114683,0.036009,40.337563,-33.859882,-13.489624,-68.3614,-1.2316128,0.9422522,0.5503534,0.088819586,-0.11277345,-0.104761586
20240115 08:34:09,-0.422152,0.765932,-0.997687,0.030898,-0.123206,0.030682,40.346916,-33.956745,-13.215256,-69.67716,-1.2451718,0.96822417,0.5129239,0.070358746,-0.123918414,-0.060421124
20240115 08:34:09,-0.389623,0.746283,-0.881231,0.007461,-0.080592,0.014702,40.601101,-33.835186,-13.890518,-71.17178,-1.1154596,0.90698683,0.5029671,0.03584705,-0.08081452,-0.029677168
20240115 08:34:09,-0.454068,0.715364,-0.560579,0.022376,-0.008148,-0.009801,40.513256,-33.843418,-13.756882,-74.50991,-0.8325118,0.78331006,0.61434525,8.1221946E-4,-0.0037220716,-0.024625493
20240115 08:34:09,-0.443582,0.604893,-0.111618,0.068186,0.086668,-0.041762,40.301323,-34.048061,-13.745636,-78.42392,-0.4029555,0.57189876,0.63262254,-0.028775956,0.09937948,-0.03244525
20240115 08:34:09,-0.661269,0.679030,0.384805,0.159806,0.148458,-0.066265,40.556274,-34.310284,-13.859955,-78.28492,-0.09751907,0.4942752,0.9109452,-0.026382204,0.17620885,-0.090206616
20240115 08:34:09,-0.826835,0.742560,0.536855,0.230119,0.154850,-0.073722,40.635155,-34.397076,-13.987473,-76.67788,-0.08660725,0.46289957,1.108969,-0.0066996887,0.1965243,-0.15102914
20240115 08:34:09,-1.025783,0.896749,0.651090,0.270602,0.096256,-0.049219,40.661667,-33.920132,-14.286285,-73.02009,-0.15785104,0.49552092,1.3742868,0.04377476,0.1447447,-0.21177089
20240115 08:34:09,-1.158086,1.006177,0.595696,0.280190,-0.014540,-0.001278,40.291973,-33.951199,-14.019989,-72.13653,-0.29197836,0.5870832,1.527297,0.119966514,0.027312115,-0.26075825
20240115 08:34:09,-1.076709,0.930953,0.305883,0.267406,-0.146644,0.042401,40.511452,-34.785381,-13.829391,-69.2953,-0.45099026,0.6206182,1.3657234,0.18610868,-0.11475251,-0.29372194
20240115 08:34:09,-0.874472,0.940134,-0.173969,0.249295,-0.210564,0.077557,40.599682,-34.969036,-13.682541,-68.1895,-0.7424963,0.8431995,1.0927802,0.2182904,-0.19514814,-0.29042584
20240115 08:34:09,-0.576922,0.846931,-0.596786,0.235445,-0.190323,0.098864,39.947754,-34.831066,-13.564072,-68.85949,-0.9604543,0.9258201,0.72456497,0.21604505,-0.18826212,-0.26746783
20240115 08:34:09,-0.487962,0.833605,-0.660942,0.225857,-0.134925,0.103126,40.247536,-34.618183,-13.708954,-67.99238,-0.9835596,0.9416414,0.6200933,0.19858357,-0.13852412,-0.24125896
20240115 08:34:09,-0.436713,0.889715,-0.747121,0.212008,-0.059285,0.139348,40.236382,-35.463276,-14.055817,-72.87388,-1.0199946,0.9989408,0.6073809,0.20653473,-0.07341075,-0.20675033
20240115 08:34:09,-0.168478,0.735789,-0.379642,0.202419,-0.034782,0.156393,39.856956,-35.205585,-14.344360,-80.83328,-0.4977274,0.7674063,0.38472232,0.21879694,-0.044266343,-0.19357787
20240115 08:34:09,0.131424,0.757388,0.066615,0.159806,-0.144513,0.145740,40.130222,-35.469662,-14.190430,-87.71573,0.090809464,0.75673926,0.14773649,0.19654049,-0.1465066,-0.19869196
20240115 08:34:09,0.453425,0.792841,0.207806,0.087362,-0.322426,0.120171,39.988205,-35.856113,-14.300583,-94.23646,0.422907,0.7922956,-0.14103094,0.11663715,-0.3140498,-0.20135334
20240115 08:34:09,0.988722,0.828653,0.193145,0.022376,-0.473705,0.062642,39.971695,-34.912296,-14.496323,-101.330215,0.7184126,0.7617431,-0.6402256,-0.040879793,-0.4479,-0.19387636
20240115 08:34:09,1.488433,0.845256,-0.004172,-0.015977,-0.509927,-0.038566,39.687271,-35.493320,-14.997116,-105.83915,0.78905374,0.6125645,-1.1110171,-0.20458275,-0.48909736,-0.15243234
20240115 08:34:09,1.759515,1.145190,-0.105354,-0.019173,-0.404458,-0.125924,39.563568,-35.881641,-14.839020,-109.71061,0.9655143,0.750332,-1.2607133,-0.27031153,-0.41442385,-0.10000047
20240115 08:34:09,1.918372,1.164851,-0.083723,-0.003193,-0.215891,-0.234590,39.775116,-35.485096,-15.130753,-109.32373,1.0608933,0.7539754,-1.3810073,-0.28252319,-0.2853607,-0.042625528
20240115 08:34:09,1.771722,1.157913,0.246053,0.014918,-0.017736,-0.358170,39.554604,-35.976658,-14.832901,-104.558075,1.1986215,0.98365325,-1.2303561,-0.31629488,-0.11182901,0.014157403
20240115 08:34:09,1.222273,1.083905,0.670223,0.012788,0.103713,-0.466836,39.554222,-35.784771,-15.113388,-97.27022,1.2255349,1.0902041,-0.7169052,-0.40669668,0.04942231,0.05385019
20240115 08:34:09,0.510207,0.970496,1.008678,-0.039415,0.151654,-0.543541,39.951958,-36.044308,-14.556610,-91.49056,1.0906333,0.93918836,-0.047993135,-0.5119791,0.17240603,0.107686475
20240115 08:34:09,-0.097024,0.738020,1.523059,-0.087355,0.160177,-0.582958,40.111137,-35.084034,-15.019623,-88.76484,1.1557986,0.51513064,0.4682898,-0.5643962,0.23035815,0.1492922
20240115 08:34:09,-0.735931,0.512742,2.207402,-0.083094,0.116497,-0.576566,40.217300,-35.077656,-14.884995,-88.12073,1.2636604,-0.07629737,0.9365459,-0.53535014,0.22335061,0.12314599
20240115 08:34:09,-1.315056,0.213444,2.599896,-0.018108,0.053642,-0.501992,40.013947,-34.995388,-15.160339,-89.19788,1.1460375,-0.67494625,1.2036123,-0.4071346,0.17088318,0.042376075
20240115 08:34:09,-1.702788,-0.078931,3.029911,0.123584,-0.050762,-0.373085,40.296181,-35.164440,-15.012527,-89.820404,1.2095721,-1.2379136,1.2956873,-0.18603748,0.07749711,-0.12924926
20240115 08:34:09,-1.622954,-0.345547,2.637472,0.282321,-0.170081,-0.235655,40.277866,-35.162594,-15.280762,-86.07056,1.1756474,-1.3572131,1.2261057,0.029308483,-0.041542158,-0.33775452
20240115 08:34:09,-1.310598,-0.333353,1.943793,0.421881,-0.203107,-0.115271,40.366096,-35.346249,-15.133926,-83.13593,0.9369435,-1.0696237,1.0517759,0.19000992,-0.08803597,-0.4715278
20240115 08:34:09,-0.947734,-0.372487,1.532698,0.593402,-0.179669,-0.012997,40.357132,-35.441265,-15.127823,-82.0301,0.8970518,-0.86264,0.74498093,0.32757267,-0.0866539,-0.60432327
20240115 08:34:09,-0.469644,-0.597341,0.624568,0.743616,-0.134925,0.091407,40.260319,-35.544521,-14.988083,-79.21255,0.48713472,-0.7397738,0.24495173,0.40215468,-0.08906731,-0.72846866
20240115 08:34:09,0.325157,-0.558904,-0.268193,0.832040,-0.039043,0.168112,40.233425,-35.829578,-14.969742,-86.97181,-0.1689627,-0.56825566,-0.4858887,0.41560662,-0.041632395,-0.8007248
20240115 08:34:09,0.993936,-0.580151,-1.055971,0.824583,0.022747,0.159589,40.128418,-36.411617,-14.262924,-98.079895,-0.929023,-0.91611016,-1.0635995,0.33805186,0.013983274,-0.8040804
20240115 08:34:09,1.313507,-0.627719,-1.802053,0.681826,0.044054,0.109518,39.694817,-36.532169,-14.795258,-108.90954,-1.6053689,-1.5767517,-1.2946472,0.23492682,0.031201575,-0.6700445
20240115 08:34:09,1.376521,-0.632879,-2.090878,0.436796,0.000375,0.058381,40.030842,-36.131100,-14.684128,-109.95723,-1.866451,-1.7806988,-1.3437898,0.113003716,-0.003491465,-0.43488386
20240115 08:34:09,1.293979,-0.602671,-2.018560,0.145956,-0.065677,0.021094,40.162476,-36.973515,-14.359879,-105.30851,-1.8225622,-1.5373497,-1.2833613,0.014054824,-0.060386926,-0.15554775
20240115 08:34:09,1.205701,-0.543899,-1.574197,-0.120381,-0.110422,-0.007671,39.986015,-36.606197,-14.653549,-95.80237,-1.3355699,-0.9756191,-1.2613785,-0.06172474,-0.10191878,0.091850184
20240115 08:34:09,1.092751,-0.512569,-1.176255,-0.303621,-0.162624,-0.023651,39.668308,-37.009113,-14.496445,-90.2301,-0.7933811,-0.5941216,-1.1975124,-0.12760498,-0.15819232,0.23619111
20240115 08:34:09,0.522278,-0.663631,-0.005413,-0.389914,-0.219087,-0.020455,39.756153,-37.000881,-14.630081,-88.14472,0.20843132,-0.65640116,-0.7296702,-0.15534313,-0.22326623,0.28181654
20240115 08:34:09,0.449645,-0.764062,0.095555,-0.408025,-0.231871,-0.012997,40.046585,-36.691135,-15.049316,-90.06933,0.25617468,-0.76431334,-0.70508605,-0.16689931,-0.23142491,0.29014948
20240115 08:34:09,0.568533,-0.794072,0.147001,-0.374999,-0.101899,0.024290,39.719528,-36.997181,-15.166565,-94.31609,0.30879357,-0.798196,-0.83804774,-0.13122314,-0.09023269,0.30430368
20240115 08:34:09,1.241724,-0.935725,0.890742,-0.248223,0.018485,0.016832,39.773697,-36.618946,-14.922791,-105.27211,1.2298672,-0.8918017,-1.6408802,-0.10501589,0.042523198,0.22261016
20240115 08:34:09,1.571127,-1.380363,0.969386,-0.131034,0.042988,-0.046023,39.976669,-36.509327,-14.927917,-108.13877,1.2839123,-1.3163307,-2.1583219,-0.093389034,0.04754425,0.14131127
20240115 08:34:09,1.473322,-1.283846,0.944110,-0.110793,0.051511,-0.178126,39.728107,-36.710270,-15.453156,-104.52577,1.3437126,-1.2484857,-2.01163,-0.19957195,0.033479966,0.14301929
20240115 08:34:09,1.224116,-1.230414,0.922272,-0.106531,0.017420,-0.228198,39.773315,-36.427059,-15.203247,-99.587456,1.285857,-1.2032684,-1.7221732,-0.24925561,0.0034849066,0.11996961
20240115 08:34:09,0.726408,-0.970739,0.935986,-0.124642,-0.009214,-0.325144,39.728107,-36.710270,-15.453156,-93.414734,1.1939776,-0.9859569,-1.1206589,-0.34532595,-0.0018321769,0.11498574
20240115 08:34:09,0.196957,-0.670436,0.945742,-0.127838,-0.034782,-0.318752,39.719143,-36.805286,-15.447037,-87.13214,1.0093224,-0.77425075,-0.4613468,-0.33408886,-0.001102414,0.09014562
20240115 08:34:09,-0.127737,-0.566865,0.984378,-0.121446,-0.037978,-0.301707,40.088837,-36.774227,-15.713333,-84.46424,0.8947939,-0.733396,-0.10248397,-0.3125055,0.0028956756,0.07704735
20240115 08:34:09,-0.194656,-0.479578,0.968226,-0.102270,-0.071004,-0.206891,39.922112,-36.695667,-15.452179,-83.23369,0.843919,-0.6700189,0.00817664,-0.21320096,-0.04026378,0.04777687
20240115 08:34:09,-0.261741,-0.497215,0.872150,-0.099074,-0.122140,-0.141904,40.063744,-36.117313,-15.622482,-80.41855,0.75268,-0.68049353,0.08740145,-0.1438071,-0.1007309,0.027295597
20240115 08:34:09,-0.144874,-0.534201,0.349896,-0.098009,-0.162624,-0.074787,39.949387,-36.602497,-15.190048,-79.74995,0.3565335,-0.6006972,-0.052757904,-0.075627,-0.15311103,0.020421248
20240115 08:34:09,0.020039,-0.641377,0.056707,-0.103335,-0.180735,-0.018324,39.843231,-36.608875,-15.324661,-81.88347,0.14621451,-0.64099747,-0.25962663,-0.032036796,-0.18212914,0.025576185
20240115 08:34:09,0.325182,-0.772391,-0.087948,-0.095878,-0.192453,0.012571,40.018150,-36.208637,-16.152863,-83.5253,0.09416583,-0.75459146,-0.59019417,-0.01018305,-0.19550988,0.018683108
20240115 08:34:09,0.540999,-0.863035,-0.245528,-0.078832,-0.191388,0.014702,39.921341,-36.311893,-16.013123,-87.57596,-0.032169163,-0.86319476,-0.8214194,-0.015054504,-0.1913722,0.004084854
20240115 08:34:09,0.818788,-0.980158,-0.387067,-0.074571,-0.193519,0.007244,39.903030,-36.310040,-16.281372,-91.92916,-0.15983966,-1.0394924,-1.1083353,-0.037477877,-0.18931969,0.0010534213
20240115 08:34:09,0.963085,-0.977591,-0.443255,-0.077767,-0.192453,-0.035370,39.585705,-36.904842,-15.843781,-94.851776,-0.20577607,-1.0752388,-1.2296398,-0.0858113,-0.19132236,0.006906078
20240115 08:34:09,1.051937,-0.971293,-0.507291,-0.090551,-0.184996,-0.136578,39.851810,-36.321964,-15.611237,-93.4067,-0.19638452,-1.0578661,-1.3171254,-0.17791408,-0.19429378,0.02189617
20240115 08:34:09,0.905676,-0.897631,-0.484661,-0.094813,-0.191388,-0.163211,39.621567,-36.524769,-15.868240,-89.90948,-0.20256227,-0.94552016,-1.1568644,-0.19712323,-0.19889675,0.024127671
20240115 08:34:09,0.764414,-0.718521,-0.579515,-0.082028,-0.147709,-0.226067,39.691093,-36.514683,-16.270111,-83.42437,-0.28627825,-0.69953525,-0.9749116,-0.23707463,-0.14323331,0.022074431
20240115 08:34:09,0.420025,-0.478324,-0.664416,-0.063918,-0.111487,-0.230328,39.531147,-37.091183,-16.368042,-76.95235,-0.4272796,-0.37003127,-0.5953164,-0.22228266,-0.08358028,0.0090601165
20240115 08:34:09,0.180289,-0.400498,-0.606189,0.007461,-0.023063,-0.182388,39.531532,-37.283070,-16.087570,-74.27821,-0.43413025,-0.2737624,-0.34725177,-0.16308977,0.010470251,-0.030060168
20240115 08:34:09,0.128129,-0.293770,-0.724944,0.051140,0.000375,-0.144035,39.964748,-36.970646,-15.835724,-71.80767,-0.57653606,-0.13102195,-0.27484903,-0.11875594,0.033011243,-0.062229373
20240115 08:34:09,0.170917,-0.224908,-0.904095,0.080970,-0.006018,-0.100356,39.839890,-36.783291,-16.519043,-70.39394,-0.761691,-0.041778967,-0.30782536,-0.07081098,0.017320797,-0.088729404
20240115 08:34:09,0.305346,-0.216928,-1.131293,0.070316,-0.032651,-0.074787,39.593517,-36.234165,-16.691315,-70.58705,-0.973563,-0.03269492,-0.44052422,-0.04910691,-0.01831242,-0.08197582
20240115 08:34:09,0.381939,-0.172172,-1.255980,0.055401,-0.051828,-0.066265,39.681747,-36.417812,-16.544464,-73.92673,-1.1192888,-0.06412324,-0.48802957,-0.047670424,-0.045329228,-0.06936872
20240115 08:34:09,0.648230,-0.069686,-1.472521,-0.039415,-0.126402,-0.069461,39.760628,-36.504612,-16.671997,-77.59581,-1.2878383,-0.043412678,-0.7180313,-0.07448591,-0.12540694,0.0073079714
20240115 08:34:10,0.746484,0.086080,-1.307675,-0.108662,-0.184996,-0.090768,39.381966,-36.630695,-16.399582,-78.10333,-1.1004856,0.114942975,-0.76911426,-0.10986567,-0.18369773,0.059413254
20240115 08:34:10,0.617112,0.375420,-1.202329,-0.160864,-0.198846,-0.088637,39.804680,-35.645733,-17.263504,-73.417816,-1.0411136,0.4922359,-0.5939657,-0.107892014,-0.19388667,0.10269661
20240115 08:34:10,0.521168,0.521644,-1.103609,-0.165126,-0.164754,-0.060938,39.566624,-36.519222,-16.672974,-72.02127,-0.9869471,0.6992251,-0.46010777,-0.07820109,-0.16064468,0.111815065
20240115 08:34:10,0.286954,0.815598,-0.695728,-0.138492,-0.130663,-0.019389,39.565472,-35.943546,-17.514389,-71.503204,-0.69749343,0.9214589,-0.1170962,-0.038578905,-0.13233592,0.09556594
20240115 08:34:10,0.282719,0.832616,-0.587252,-0.111858,-0.112552,0.007244,39.521030,-36.610538,-17.203354,-74.626465,-0.57107973,0.9039397,-0.08205016,-0.012758058,-0.11648109,0.07597309
20240115 08:34:10,0.403815,0.946609,-0.620087,-0.084159,-0.093376,0.017898,39.460079,-36.333706,-17.088058,-73.85604,-0.587299,1.0221941,-0.18654014,0.0044578407,-0.097414814,0.05773598
20240115 08:34:10,0.393653,0.985139,-0.735893,-0.072440,-0.071004,0.021094,39.308712,-36.623295,-17.472580,-72.404045,-0.7171142,1.0783875,-0.18921497,0.009421696,-0.0753592,0.053558417
20240115 08:34:10,0.356238,1.087626,-0.706779,-0.067114,0.017420,0.020029,39.521030,-36.610538,-17.203354,-75.122185,-0.6880883,1.174411,-0.07855247,-0.0032140594,0.012524813,0.0706162
20240115 08:34:10,0.337687,1.030084,-0.099614,-0.095878,-0.039043,-0.000213,39.202938,-36.821560,-17.326706,-80.36362,-0.057622455,1.0445983,0.035572484,-0.030782154,-0.041806165,0.07617702
20240115 08:34:10,0.423468,0.995342,0.297193,-0.122512,-0.171146,-0.041762,39.300514,-37.102093,-16.905502,-81.67932,0.34669486,0.9803704,-0.021916758,-0.06896514,-0.17095558,0.050573472
20240115 08:34:10,0.247508,1.275028,0.405422,-0.129969,-0.246786,-0.062003,39.369663,-36.900120,-17.587860,-79.335304,0.32441548,1.2319857,0.26009315,-0.07788192,-0.24388199,0.027052648
20240115 08:34:10,0.221620,1.254478,0.443603,-0.115054,-0.253178,-0.069461,39.202171,-36.437786,-17.887650,-78.05739,0.34618804,1.2037365,0.2745573,-0.07696493,-0.24842124,0.0115893185
20240115 08:34:10,0.187635,1.344024,0.228191,-0.057525,-0.182865,-0.071591,39.166313,-36.817867,-17.863205,-74.39015,0.07989384,1.3044645,0.27554405,-0.059310522,-0.17323816,-0.010968014
20240115 08:34:10,0.049394,1.447586,-0.049180,0.028768,-0.003887,-0.050284,38.902008,-36.458775,-18.023239,-71.02466,-0.3002427,1.4312409,0.40143284,-0.036248244,0.0074992473,-0.033776395
20240115 08:34:10,-0.125726,1.689569,0.308408,0.150217,0.194268,0.004048,39.060535,-37.016140,-17.717331,-72.45482,-0.09255391,1.5825773,0.7149233,0.01830059,0.20018922,-0.07534557
20240115 08:34:10,-0.129408,1.813894,0.408824,0.170459,0.191072,0.022159,39.167076,-37.201641,-17.302246,-74.89034,0.017745256,1.7040086,0.7766433,0.047604747,0.19506295,-0.09236096
20240115 08:34:10,0.089582,2.084776,0.405975,0.185374,0.067491,0.038139,39.006363,-37.394360,-17.961136,-78.98718,0.29863775,2.06068,0.5840192,0.09083175,0.068660386,-0.1527735
20240115 08:34:10,0.507162,2.089222,0.119095,0.166198,0.032335,0.017898,38.857952,-37.317654,-17.431732,-82.187164,0.2930761,2.0884027,0.112370156,0.06532525,0.031818815,-0.14933203
20240115 08:34:10,0.776547,2.107260,-0.216202,0.102277,0.006767,-0.054546,38.928253,-37.691349,-17.272659,-79.549965,-0.043159246,2.1170824,-0.18407701,-0.024282444,0.008764299,-0.099184446
20240115 08:34:10,0.645503,2.137946,-0.327841,0.004265,0.056838,-0.128055,39.121487,-37.292965,-17.832642,-76.98387,-0.2607882,2.1658847,-0.04063528,-0.12470027,0.064765364,0.00354427
20240115 08:34:10,-0.119393,1.938037,0.485765,-0.132100,0.174026,-0.183453,39.219063,-37.573490,-17.411438,-72.69115,-0.08282125,1.7406164,0.8846904,-0.25649834,0.19881895,0.16505715
20240115 08:34:10,-0.449839,1.857338,0.886449,-0.155537,0.203856,-0.173865,39.191788,-37.666668,-17.673569,-72.02282,0.038885117,1.449156,1.2779549,-0.27374598,0.22209005,0.20052846
20240115 08:34:10,-1.375940,1.403998,2.200245,-0.110793,0.281626,-0.072657,39.263889,-37.098392,-17.442001,-80.27418,0.578935,0.40885496,2.1061766,-0.1999476,0.2643317,0.23654118
20240115 08:34:10,-1.506968,1.220342,2.605019,-0.050068,0.295476,-0.026847,39.309097,-36.815189,-17.192093,-83.4117,0.8162577,0.1144824,2.09794,-0.1328441,0.27531976,0.2058116
20240115 08:34:10,-1.585120,0.636901,3.096823,0.088427,0.283757,0.047728,39.608875,-36.602299,-17.336975,-87.68475,1.1807988,-0.5512756,1.7213684,0.01370262,0.27257234,0.10342801
20240115 08:34:10,-1.507807,-0.048420,3.200022,0.197093,0.201725,0.089276,39.360313,-36.803257,-17.862228,-89.906136,1.4573295,-1.1203887,1.1546372,0.1396127,0.20803715,-0.029010113
20240115 08:34:10,-1.298008,-0.403518,2.967177,0.275928,0.122890,0.093538,39.372234,-36.341938,-16.954407,-90.797104,1.5083293,-1.3398697,0.7424359,0.2115933,0.14684771,-0.14106253
20240115 08:34:10,-1.279679,-0.615096,2.530445,0.365418,0.056838,0.113779,39.476593,-37.277523,-16.892303,-87.364105,1.3145552,-1.5408971,0.73054624,0.28784764,0.09696048,-0.25642866
20240115 08:34:10,-1.345473,-0.721491,2.120033,0.447450,0.113301,0.168112,39.125595,-37.502331,-16.077301,-87.82008,1.0364724,-1.5254619,0.7207417,0.3581531,0.14849763,-0.29405063
20240115 08:34:10,-1.053124,-0.866829,2.056110,0.541200,0.158046,0.220314,39.238529,-38.151012,-16.301773,-88.23649,1.2356949,-1.5192418,0.41358793,0.4400376,0.18836378,-0.35290703
20240115 08:34:10,-0.745609,-0.991138,1.735567,0.610448,0.158046,0.252274,38.991119,-38.927624,-15.985596,-88.827484,1.2144933,-1.4819946,0.09635374,0.5001153,0.18736887,-0.41973668
20240115 08:34:10,-0.533493,-1.049223,1.470266,0.631755,0.144197,0.259732,39.176926,-39.391811,-15.417572,-86.44329,1.220933,-1.3245107,0.04098848,0.48981735,0.15212402,-0.49010882
20240115 08:34:10,-0.018267,-1.010442,0.749287,0.640278,0.129282,0.254405,39.150032,-39.676868,-15.399231,-85.672676,0.798103,-1.0961349,-0.36907625,0.4737718,0.13179359,-0.52515626
20240115 08:34:10,0.493909,-0.875531,-0.168512,0.595533,0.158046,0.225641,39.035294,-39.970150,-15.247253,-85.15583,0.0068701804,-0.8685176,-0.73859364,0.39158332,0.15723349,-0.51442105
20240115 08:34:10,0.939841,-0.616227,-1.109092,0.377137,0.284822,0.134021,39.184090,-40.238750,-15.496185,-87.57061,-0.90578765,-0.7388286,-1.0707119,0.24612229,0.28737754,-0.2970805
20240115 08:34:10,0.948457,-0.688332,-0.836736,0.182178,0.340221,0.054120,38.972542,-40.635288,-15.204468,-89.45866,-0.6130041,-0.78258157,-1.099046,0.13036388,0.33914214,-0.085371725
20240115 08:34:10,0.626428,-0.640874,-0.229209,0.008526,0.374312,-0.019389,38.893661,-40.548512,-15.076950,-83.5121,0.09895988,-0.5738304,-0.82468563,-0.062879935,0.37365198,0.12665583
20240115 08:34:10,0.276058,-0.597078,0.191475,-0.049003,0.400945,-0.039631,38.893661,-40.548512,-15.076950,-83.68085,0.4334041,-0.58683664,-0.5072397,-0.15250337,0.3895532,0.22381414
20240115 08:34:10,-0.446421,-0.562230,1.139774,-0.077767,0.442494,-0.026847,39.245808,-40.899364,-15.050537,-85.13704,0.8771954,-0.9004837,0.16264208,-0.17630827,0.41766652,0.2823618
20240115 08:34:10,-0.847945,-0.618134,1.731181,-0.054329,0.460605,0.024290,39.670444,-40.873844,-14.512085,-88.56745,1.103826,-1.211534,0.4114401,-0.13711949,0.41902387,0.29161215
20240115 08:34:10,-1.062201,-0.763844,2.097108,0.022376,0.386031,0.126563,39.106361,-40.727634,-14.527237,-91.146126,1.255036,-1.4976308,0.4293724,0.0047713593,0.3331647,0.19604632
20240115 08:34:10,-1.087730,-0.928085,2.160523,0.043683,0.329567,0.162785,39.352348,-41.084866,-14.635452,-88.95615,1.3968084,-1.6699843,0.4417169,0.06139154,0.27353343,0.14139679
20240115 08:34:10,-0.929600,-1.043667,1.746400,0.080970,0.162307,0.256536,39.558273,-40.608944,-13.726669,-87.129105,1.2631125,-1.5889146,0.33770365,0.2104599,0.09986176,0.015852544
20240115 08:34:10,-0.580417,-1.279747,1.141069,0.085231,0.116497,0.275712,39.098549,-41.398319,-13.679718,-85.9244,1.0254501,-1.5889661,-0.03474397,0.24487598,0.053758383,-0.013184842
20240115 08:34:10,-0.161979,-1.496581,0.436893,0.080970,0.071753,0.291692,39.380398,-41.375477,-13.812378,-85.44005,0.60531557,-1.5602306,-0.4469507,0.28015652,0.022222929,-0.03525132
20240115 08:34:10,0.253605,-1.741366,-0.000948,0.074578,0.064295,0.272516,39.168079,-41.388233,-14.081589,-88.85631,0.21391888,-1.7293565,-0.8702387,0.2757165,0.047000844,-0.044065103
20240115 08:34:10,0.489050,-1.848803,-0.263658,0.076708,0.077080,0.221379,39.229416,-41.856953,-13.916428,-86.305626,0.06711434,-1.8057085,-1.0786588,0.22711799,0.06071675,-0.042141654
20240115 08:34:10,0.363315,-1.680661,-0.672898,0.103342,0.131412,0.171308,38.631660,-41.340748,-13.554153,-81.04872,-0.293902,-1.5542467,-0.87655294,0.17456815,0.110866085,-0.051584274
20240115 08:34:10,0.348892,-1.602016,-0.839844,0.106538,0.147393,0.163851,38.886616,-41.602970,-13.668472,-80.49448,-0.48190737,-1.4604148,-0.83034414,0.16645736,0.12839675,-0.052207224
20240115 08:34:10,0.374591,-1.535148,-0.926882,0.090558,0.148458,0.152132,38.647404,-41.900784,-13.919357,-79.048584,-0.6109661,-1.4024835,-0.7963258,0.15173213,0.13225052,-0.042414382
20240115 08:34:10,0.373986,-1.355424,-1.148230,0.039421,0.127151,0.140413,38.806702,-42.841923,-13.052505,-75.59363,-0.78625035,-1.126292,-0.7305655,0.12218724,0.10310064,-0.0021200953
20240115 08:34:10,0.237087,-1.148125,-1.357396,-0.022369,0.121824,0.150001,38.603729,-42.951557,-13.047363,-68.59328,-0.9393234,-0.7486881,-0.55641794,0.105886206,0.078066625,0.05676504
20240115 08:34:10,0.171041,-1.032707,-1.339970,-0.117185,0.117563,0.176635,38.648941,-42.668339,-12.797462,-73.84555,-1.0007632,-0.70638454,-0.49860215,0.11287767,0.06985482,0.15316027
20240115 08:34:10,0.153579,-0.939584,-1.072798,-0.144884,0.100517,0.176635,38.709503,-42.753277,-13.193222,-75.48806,-0.7884516,-0.69881254,-0.4527118,0.10967016,0.055690028,0.17653133
20240115 08:34:10,0.101460,-0.845013,-0.787519,-0.185367,0.060034,0.171308,38.436623,-42.681095,-13.066681,-78.434456,-0.54686403,-0.6712962,-0.38418084,0.09508479,0.015232395,0.20446481
20240115 08:34:10,0.041497,-0.737481,-0.461159,-0.204544,0.007832,0.165981,38.445587,-42.586079,-13.072800,-79.79186,-0.26992384,-0.62797153,-0.29384944,0.08810433,-0.038373303,0.20582105
20240115 08:34:10,-0.033772,-0.529436,-0.330525,-0.190694,-0.030521,0.163851,38.312149,-42.685627,-13.469543,-77.85589,-0.20715505,-0.450081,-0.14770558,0.100135885,-0.07666403,0.18294519
20240115 08:34:10,-0.078681,-0.408456,-0.464182,-0.174714,-0.035847,0.168112,38.197411,-42.978916,-13.317581,-77.209145,-0.3686958,-0.3047257,-0.07337283,0.11236669,-0.08221085,0.16753331
20240115 08:34:10,-0.025755,-0.309595,-0.421913,-0.177910,-0.048631,0.162785,38.197792,-43.170803,-13.037094,-81.53098,-0.35541078,-0.2397627,-0.086545266,0.10709047,-0.08265093,0.16234764
20240115 08:34:10,0.125114,-0.248946,-0.397143,-0.189629,-0.082723,0.145740,38.400764,-43.061176,-13.042236,-82.61557,-0.30316615,-0.18632707,-0.2086877,0.09209849,-0.11009546,0.16192193
20240115 08:34:10,0.080297,-0.166360,-0.409592,-0.199217,-0.099768,0.130825,37.757797,-42.828175,-12.929871,-81.91081,-0.3301674,-0.09124542,-0.14587477,0.076547906,-0.1309152,0.16403717
20240115 08:34:10,-0.023176,-0.193587,-0.312694,-0.192825,-0.101899,0.112714,37.933491,-42.811718,-13.197128,-83.197,-0.26987368,-0.14455076,-0.052491367,0.058178894,-0.12785982,0.15387852
20240115 08:34:10,0.004120,-0.180298,-0.155430,-0.178975,-0.124271,0.090342,37.658417,-43.489613,-13.423569,-83.63048,-0.11673041,-0.15459307,-0.06819658,0.04426685,-0.14547053,0.13196321
20240115 08:34:10,0.004262,-0.200779,-0.114506,-0.172583,-0.158362,0.054120,37.403847,-43.419285,-13.028778,-87.60999,-0.082812585,-0.18631063,-0.07433093,0.009166487,-0.17036508,0.10874309
20240115 08:34:10,0.095217,-0.199577,-0.104703,-0.172583,-0.215891,-0.002344,37.606819,-43.309658,-13.033920,-86.567696,-0.045261152,-0.18319364,-0.15728778,-0.0351608,-0.22072515,0.092402495
20240115 08:34:10,0.082074,-0.138412,-0.283739,-0.159799,-0.211630,-0.059873,37.579155,-43.210934,-13.576508,-82.109245,-0.22147763,-0.09199862,-0.13237502,-0.075027265,-0.20801452,0.08481367
20240115 08:34:10,-0.097120,-0.003578,-0.498593,-0.119316,-0.112552,-0.106748,37.561607,-43.592861,-13.283829,-77.39339,-0.49021578,0.10174502,0.0582668,-0.10982375,-0.09393291,0.073059395
20240115 08:34:10,-0.395368,-0.013942,-0.289728,-0.061787,-0.017736,-0.131251,37.297306,-43.233768,-13.443863,-78.96949,-0.39694062,0.02214253,0.34559518,-0.1355615,0.010208078,0.042822883
20240115 08:34:10,-0.518474,-0.068936,0.170055,-0.015977,-0.042239,-0.160015,37.482727,-43.506069,-13.156296,-79.59779,-0.027291372,-0.17499398,0.4656625,-0.1347842,0.003726855,-0.011932759
20240115 08:34:10,-0.862884,0.094861,0.190141,0.022376,-0.126402,-0.163211,37.616165,-43.406521,-12.759552,-73.11932,-0.18907484,-0.109434456,0.85636085,-0.08423543,-0.052173577,-0.08250676
20240115 08:34:10,-0.981038,0.375429,-0.400993,0.075643,-0.206303,-0.111009,37.387722,-42.667355,-12.944054,-63.148003,-0.79206383,0.3779187,0.9825774,0.01355464,-0.12906072,-0.14161989
20240115 08:34:10,-0.789177,0.388336,-0.660676,0.088427,-0.219087,-0.097160,37.579922,-43.594715,-13.015579,-62.487377,-0.94629896,0.53100026,0.77082074,0.027471177,-0.14949745,-0.14929467
20240115 08:34:10,-0.412913,0.430330,-1.173227,0.080970,-0.223349,-0.096094,37.324966,-43.332493,-12.901260,-59.140984,-1.3055463,0.8214792,0.35618076,0.01848016,-0.15996838,-0.12888832
20240115 08:34:10,-0.204113,0.637804,-1.707341,0.050075,-0.153036,-0.112075,37.439705,-43.039211,-13.053223,-53.228695,-1.8227482,1.2999578,0.11811355,-0.024605036,-0.08508834,-0.0803063
20240115 08:34:10,-0.268731,0.781230,-1.759530,0.018114,-0.028390,-0.123793,37.431126,-43.326115,-12.766640,-55.164642,-1.9389337,1.4482272,0.19384658,-0.092701845,0.030529223,-0.035833728
20240115 08:34:10,-0.459883,0.793951,-1.240137,-0.011715,0.041923,-0.133382,37.133152,-42.597034,-12.549263,-62.62664,-1.5262716,1.1680012,0.47909975,-0.13715257,0.090004206,0.0051155984
20240115 08:34:10,-0.674608,0.833893,-0.487754,-0.027696,-0.007083,-0.136578,37.342514,-42.950558,-13.193954,-68.62658,-0.9644552,0.85714924,0.8360459,-0.12421532,0.041951414,0.007243268
20240115 08:34:10,-0.886289,0.900423,-0.023159,-0.019173,-0.115748,-0.126989,37.079361,-43.167149,-12.512589,-70.37214,-0.67431986,0.7028736,1.1215684,-0.070295915,-0.058904856,-0.034266934
20240115 08:34:10,-0.966132,0.975747,0.087283,0.013853,-0.230806,-0.101421,37.440090,-43.231091,-12.772751,-69.21499,-0.62598467,0.72319984,1.2262917,0.0067498833,-0.16934913,-0.09739996
20240115 08:34:10,-0.772130,0.930062,-0.184937,0.043683,-0.320295,-0.082245,37.079746,-43.359035,-12.232109,-68.749825,-0.7340056,0.8381892,0.97514313,0.058028765,-0.2605247,-0.13940138
20240115 08:34:10,-0.534597,0.862059,-0.628861,0.068186,-0.329883,-0.077983,37.097290,-42.977108,-12.524811,-64.23703,-1.0197327,0.9777931,0.64485,0.07150191,-0.2681198,-0.15003288
20240115 08:34:10,-0.428983,1.003620,-1.013955,0.106538,-0.234002,-0.069461,37.035305,-44.026020,-11.921082,-59.69189,-1.4123423,1.2929692,0.4972651,0.06258325,-0.17046413,-0.1567006
20240115 08:34:10,-0.548075,1.071726,-1.173910,0.138499,-0.098703,-0.048154,37.052853,-43.644093,-12.213768,-58.873177,-1.6139565,1.4130108,0.6047308,0.032760438,-0.053181935,-0.15990739
20240115 08:34:10,-0.485193,0.904494,-0.907357,0.141695,-0.024128,-0.048154,37.080132,-43.550922,-11.951645,-65.77315,-1.2755901,1.1257449,0.5870408,0.003664989,0.010721899,-0.14768939
20240115 08:34:10,-0.532592,0.871702,-0.495647,0.124649,-0.033717,-0.065199,37.284248,-44.016964,-11.115364,-72.400475,-0.9076402,0.9249915,0.71370155,-0.008107491,0.0056576263,-0.13449565
20240115 08:34:10,-0.774848,0.870893,-0.091504,0.111865,-0.104030,-0.090768,37.274521,-43.728199,-11.670189,-70.5127,-0.6843052,0.71609837,0.9945224,0.001342386,-0.04227328,-0.14833575
20240115 08:34:10,-1.057813,1.126157,0.265109,0.123584,-0.210564,-0.086506,37.221497,-44.682095,-11.072571,-72.43899,-0.5982052,0.7493199,1.3906579,0.055019677,-0.13616559,-0.1942074
20240115 08:34:10,-1.033965,1.380170,0.071784,0.147021,-0.325622,-0.065199,36.975124,-44.132961,-11.244835,-69.30596,-0.81703097,1.0839764,1.3925902,0.12104693,-0.24908806,-0.24176526
20240115 08:34:10,-0.737871,1.577873,-0.385139,0.158740,-0.382085,-0.054546,37.117523,-43.938396,-10.854210,-63.402023,-1.1711416,1.510177,1.0126976,0.14916487,-0.30621257,-0.2416991
20240115 08:34:10,-0.380029,1.867963,-0.957654,0.140629,-0.316034,-0.033239,37.081284,-44.126591,-11.110229,-63.669685,-1.6196811,2.0558853,0.6119966,0.11033267,-0.27217057,-0.19503164
20240115 08:34:10,-0.129975,2.208276,-1.212546,0.089493,-0.187127,-0.000213,36.984856,-44.421719,-10.690002,-70.85079,-1.7388899,2.4359326,0.4377814,0.06402613,-0.17637518,-0.12044311
20240115 08:34:10,0.149129,2.334376,-0.838225,0.001069,-0.086984,0.029617,37.011368,-43.944775,-10.988815,-81.80401,-1.0550427,2.4209182,0.35038215,0.03924836,-0.0898323,-0.019561965
20240115 08:34:10,0.303310,2.156952,-0.097785,-0.104401,-0.069938,0.036009,36.933254,-44.241756,-10.300346,-90.95989,-0.16220553,2.1646764,0.35116437,0.008446341,-0.074781656,0.078752205
20240115 08:34:10,0.356991,1.612683,0.738958,-0.182171,-0.098703,0.015767,37.056576,-43.661564,-10.738907,-98.72296,0.76965624,1.5937383,0.23620251,-0.05201236,-0.10143057,0.13017279
20240115 08:34:10,0.450298,0.990780,1.605603,-0.205609,-0.137055,-0.042827,37.100746,-44.704098,-10.000565,-106.94683,1.619908,0.97348773,-0.17855836,-0.13103595,-0.13784301,0.12781367
20240115 08:34:10,0.455150,0.476310,2.201564,-0.151276,-0.140251,-0.124859,37.357506,-44.024357,-10.042381,-108.38463,2.1125486,0.40963504,-0.5152499,-0.1792454,-0.138893,0.08330927
20240115 08:34:10,0.183930,0.078288,2.387167,-0.018108,-0.050762,-0.202629,37.338806,-43.830624,-10.591103,-106.457596,2.1103506,-0.1283432,-0.471909,-0.17644048,-0.033111215,0.01999265
20240115 08:34:10,-0.297086,-0.124567,2.335299,0.144891,0.063230,-0.230328,37.385170,-44.123074,-9.499779,-103.46849,1.8181125,-0.5748197,-0.09194389,-0.12840232,0.11915925,-0.063919514
20240115 08:34:10,-0.798654,-0.162294,2.002657,0.280190,0.141000,-0.189845,37.314869,-43.749371,-9.658844,-97.42703,1.3098003,-0.77246875,0.48547748,-0.054321095,0.2227807,-0.16185196
20240115 08:34:10,-0.898164,-0.172960,1.448018,0.340915,0.143131,-0.099290,38.004189,-44.274837,-8.679886,-92.866,0.87259775,-0.7061502,0.69267017,0.028018378,0.21285869,-0.23829624
20240115 08:34:11,-0.676944,-0.235394,0.806929,0.290843,0.050446,-0.000213,37.994843,-44.177959,-8.954247,-89.57676,0.50515306,-0.50877774,0.5314413,0.10160297,0.0806656,-0.2473244
20240115 08:34:11,-0.162585,-0.360288,0.348714,0.150217,-0.097637,0.067969,37.695450,-44.582729,-8.528893,-94.62259,0.31373948,-0.41468993,0.011464616,0.1308732,-0.097868495,-0.1772343
20240115 08:34:11,0.390581,-0.454090,0.218371,-0.019173,-0.240394,0.095668,37.986259,-44.464878,-8.667664,-101.65038,0.34887618,-0.45456716,-0.5416443,0.08393169,-0.24115671,-0.07481465
20240115 08:34:11,0.785900,-0.523543,0.364133,-0.147015,-0.310707,0.093538,37.985878,-44.272984,-8.948135,-106.75428,0.60667324,-0.5201584,-0.9603122,0.007846177,-0.299565,0.008553468
20240115 08:34:11,0.954339,-0.613271,0.711959,-0.192825,-0.294727,0.083949,37.765362,-44.764545,-8.650299,-111.80372,0.9894617,-0.5840703,-1.2211761,-0.03771442,-0.2752425,0.041940875
20240115 08:34:11,1.153441,-0.737592,1.113969,-0.172583,-0.223349,0.054120,37.932091,-44.843098,-8.911453,-115.228546,1.424645,-0.66786754,-1.5571294,-0.0628757,-0.20249175,0.045158565
20240115 08:34:11,1.254655,-0.902940,1.381863,-0.122512,-0.139186,0.012571,38.276691,-44.155125,-9.086906,-115.41826,1.69799,-0.8116275,-1.7858287,-0.066587955,-0.12775607,0.042017654
20240115 08:34:11,1.216412,-1.011888,1.482319,-0.072440,-0.067808,-0.032174,38.111118,-44.652233,-7.984337,-116.76405,1.7765508,-0.9226199,-1.840587,-0.07111706,-0.06626534,0.039540697
20240115 08:34:11,1.050475,-1.088497,1.489555,-0.023434,-0.021998,-0.065199,38.446754,-44.059269,-8.153671,-114.91236,1.7271919,-1.016804,-1.7206388,-0.06959689,-0.025869392,0.024029661
20240115 08:34:11,0.970254,-1.144685,1.503526,0.011722,-0.029455,-0.089702,38.392967,-44.629383,-8.116989,-115.08374,1.7024823,-1.0747083,-1.6819086,-0.07338046,-0.036170963,-0.0044012237
20240115 08:34:11,0.987296,-1.146664,1.341033,0.033029,-0.085919,-0.112075,38.119316,-44.173435,-8.551392,-114.07165,1.5273039,-1.0587875,-1.6268802,-0.09078484,-0.09832641,-0.04462728
20240115 08:34:11,1.143093,-1.031837,0.845379,0.033029,-0.126402,-0.135512,38.737572,-43.941418,-8.292442,-113.121765,1.0785033,-0.9687783,-1.5747298,-0.12670922,-0.14758591,-0.056408513
20240115 08:34:11,1.271221,-0.814312,0.314693,0.012788,-0.106160,-0.161081,38.753696,-44.693348,-8.377167,-112.26264,0.6212392,-0.8356111,-1.5069594,-0.16043675,-0.1338879,-0.025919545
20240115 08:34:11,1.186938,-0.502971,0.098415,-0.033022,-0.065677,-0.173865,38.765236,-44.040134,-7.749840,-108.31119,0.43836564,-0.54201084,-1.2895964,-0.18143414,-0.08585039,0.028293377
20240115 08:34:11,0.892269,-0.252969,0.017082,-0.093747,-0.017736,-0.165342,38.896099,-44.498775,-7.986542,-104.01879,0.32027552,-0.26560983,-0.92297125,-0.18834653,-0.022968493,0.09578259
20240115 08:34:11,0.581717,-0.147377,0.355799,-0.158734,-0.007083,-0.142970,38.765236,-44.040134,-7.749840,-101.964714,0.5604998,-0.1524849,-0.62068963,-0.19289204,-0.003420717,0.15508574
20240115 08:34:11,0.176268,-0.138135,0.785938,-0.208805,-0.043305,-0.105683,39.304222,-43.529438,-7.643845,-100.15097,0.7958899,-0.22840844,-0.27721837,-0.17857575,-0.042043526,0.17816305
20240115 08:34:11,-0.145092,-0.247248,1.119868,-0.229047,-0.107226,-0.053480,38.983177,-44.106770,-8.681122,-99.88867,0.9511436,-0.43589765,-0.07154443,-0.13470693,-0.115942,0.1590663
20240115 08:34:11,-0.283887,-0.399036,1.324810,-0.213066,-0.175408,0.004048,39.328163,-43.610676,-8.576096,-100.674095,1.0697263,-0.643419,-0.058546692,-0.06937342,-0.19270036,0.10323824
20240115 08:34:11,-0.241037,-0.649512,1.270368,-0.169387,-0.232937,0.057316,38.649342,-43.757755,-8.439278,-101.56026,1.0864818,-0.8578254,-0.21170929,0.005410459,-0.2524811,0.03499646
20240115 08:34:11,-0.073118,-0.860693,0.909703,-0.104401,-0.245721,0.098864,39.224575,-43.058872,-8.077271,-101.49194,0.870965,-0.9601989,-0.39337215,0.06857063,-0.26075494,-0.023269825
20240115 08:34:11,0.227343,-1.157419,0.427090,-0.037284,-0.221218,0.110583,39.364792,-43.614376,-8.039612,-102.333534,0.5399457,-1.1719521,-0.70610374,0.096654356,-0.22724594,-0.06377032
20240115 08:34:11,0.472498,-1.233241,-0.074542,0.013853,-0.173277,0.102060,38.983177,-44.106770,-8.681122,-101.00845,0.122109964,-1.2292951,-0.87878984,0.102524444,-0.17466022,-0.08250034
20240115 08:34:11,0.559508,-1.253012,-0.412617,0.045813,-0.130663,0.089276,39.028381,-43.823559,-8.431206,-99.885765,-0.21734932,-1.2586299,-0.9110571,0.09815118,-0.12997134,-0.09064003
20240115 08:34:11,0.586825,-1.122924,-0.742291,0.057532,-0.086984,0.074361,39.522167,-43.596066,-8.575119,-97.34964,-0.5406802,-1.129145,-0.8643324,0.08756247,-0.08660149,-0.083515614
20240115 08:34:11,0.511734,-1.055509,-0.888536,0.054336,-0.055024,0.059446,39.619362,-43.684711,-8.434395,-96.55771,-0.7018703,-1.0550252,-0.7639946,0.07265568,-0.05504348,-0.06979869
20240115 08:34:11,0.544397,-0.963998,-0.910676,0.040487,-0.043305,0.038139,39.328934,-43.994457,-8.015160,-97.32784,-0.7383839,-0.97972625,-0.75581735,0.047217026,-0.042906858,-0.05214991
20240115 08:34:11,0.553159,-0.855419,-1.017731,0.015984,-0.016671,0.013636,39.741646,-44.430256,-8.384514,-96.30869,-0.8411348,-0.8697592,-0.73189783,0.01723785,-0.016557159,-0.020266414
20240115 08:34:11,0.510333,-0.770023,-0.951953,0.000003,0.022747,-0.021520,39.488495,-43.226070,-8.197693,-95.14636,-0.73925424,-0.7365498,-0.6862586,-0.021261776,0.023379281,0.007136553
20240115 08:34:11,0.405208,-0.758367,-0.638815,-0.003193,0.029139,-0.057742,39.858574,-43.386890,-8.183517,-94.504524,-0.42605573,-0.70319045,-0.6057959,-0.057701416,0.03296556,0.013544952
20240115 08:34:11,0.193793,-0.617371,-0.551183,0.013853,0.040858,-0.088637,39.629093,-43.973469,-7.879570,-88.59189,-0.35214424,-0.5019085,-0.3752206,-0.08595477,0.05618386,-0.0015287983
20240115 08:34:11,-0.107380,-0.401027,-0.719427,0.061794,0.106909,-0.080114,39.965118,-43.572399,-7.768433,-82.09451,-0.5857722,-0.20278488,-0.042207547,-0.08396574,0.12900224,-0.031391118
20240115 08:34:11,-0.258834,-0.390160,-0.753256,0.098015,0.164438,-0.050284,40.201756,-43.832767,-8.150993,-78.11949,-0.62941337,-0.15168369,0.09037906,-0.069297045,0.18065424,-0.049659967
20240115 08:34:11,-0.387557,-0.282370,-0.796081,0.108669,0.161242,-0.004474,40.565056,-43.338535,-7.777725,-75.83244,-0.7220329,-0.024651766,0.23845014,-0.029515164,0.16295838,-0.0600866
20240115 08:34:11,-0.358545,-0.259047,-0.941167,0.093754,0.105844,0.050924,40.468246,-43.441776,-7.637985,-77.550354,-0.8770039,0.011035532,0.22679114,0.038957313,0.09268,-0.060575243
20240115 08:34:11,-0.032710,-0.318824,-1.217682,0.043683,0.038727,0.078623,40.681335,-43.812809,-6.807823,-81.60059,-1.096929,-0.049758494,-0.07639474,0.07603887,0.022923721,-0.031683
20240115 08:34:11,0.266795,-0.343331,-1.400687,-0.017042,0.003571,0.086080,40.838326,-43.602604,-7.623802,-87.38796,-1.2825924,-0.22197294,-0.34481496,0.08013509,-0.0038364325,0.01821895
20240115 08:34:11,0.495161,-0.303663,-1.454895,-0.060722,0.008897,0.072231,40.865990,-43.701321,-7.081200,-92.87894,-1.3305224,-0.31674707,-0.530944,0.058846995,0.009608609,0.060560204
20240115 08:34:11,0.569722,-0.193460,-1.493265,-0.086290,0.066426,0.050924,41.173965,-43.009640,-7.793137,-90.30245,-1.3371274,-0.15110403,-0.59581614,0.030170925,0.064588994,0.098129846
20240115 08:34:11,0.435199,-0.042097,-1.210301,-0.088421,0.129282,0.046662,41.474892,-43.372433,-7.096611,-91.834595,-1.0646266,0.03156291,-0.42305574,0.016576895,0.12523296,0.11671386
20240115 08:34:11,0.338561,0.156597,-0.865450,-0.078832,0.142066,0.056250,41.729851,-43.634655,-7.210930,-90.95669,-0.75942576,0.23838255,-0.28318346,0.021613374,0.13483824,0.112472855
20240115 08:34:11,0.300691,0.313819,-0.860164,-0.072440,0.116497,0.079688,41.535843,-43.649265,-7.211906,-91.56219,-0.7777551,0.37362435,-0.20817523,0.05164753,0.10989985,0.098405324
20240115 08:34:11,0.451264,0.355738,-0.943279,-0.089486,0.082406,0.092472,41.633038,-43.737904,-7.071182,-95.81625,-0.8023673,0.33855015,-0.33091098,0.0697632,0.084255666,0.10423268
20240115 08:34:11,0.596799,0.515308,-1.056885,-0.113989,0.041923,0.096734,42.143982,-42.936596,-7.788254,-97.1294,-0.8544549,0.41109663,-0.4436776,0.07302086,0.05224602,0.11769161
20240115 08:34:11,0.783659,0.577348,-1.199169,-0.155537,0.025943,0.090342,42.029625,-43.421772,-7.355812,-101.37156,-0.9022317,0.3590523,-0.5958554,0.058231585,0.044744335,0.15362118
20240115 08:34:11,0.863184,0.707738,-1.149159,-0.199217,0.041923,0.069035,42.408669,-43.487583,-7.347740,-103.01292,-0.7866717,0.47639036,-0.62026346,0.026947863,0.06034952,0.19966364
20240115 08:34:11,0.866627,0.762840,-0.818464,-0.232243,0.065361,0.032813,42.108505,-43.508572,-7.483330,-102.87188,-0.45360714,0.6302117,-0.58059275,-0.0243617,0.076620355,0.23881757
20240115 08:34:11,0.773915,0.821429,-0.288076,-0.252484,0.053642,-0.011932,42.690521,-43.464741,-7.480400,-101.434425,0.011128396,0.793791,-0.46240368,-0.08834286,0.057077404,0.25692445
20240115 08:34:11,0.579296,0.837733,0.129075,-0.272726,0.000375,-0.047088,42.753273,-42.799603,-7.523193,-98.2085,0.29744163,0.83872366,-0.2838208,-0.13330576,-3.613204E-4,0.26017943
20240115 08:34:11,0.304471,1.194239,0.172788,-0.285510,-0.026259,-0.031108,42.901684,-42.876308,-8.052597,-96.40055,0.19893934,1.1885874,0.115090206,-0.12574518,-0.030362837,0.26036614
20240115 08:34:11,0.300033,1.014857,0.458913,-0.300425,-0.067808,-0.008736,43.192883,-42.950344,-7.910896,-98.89614,0.49516392,0.9999406,0.0641537,-0.11597085,-0.07225878,0.25513875
20240115 08:34:11,0.330475,0.939278,0.589752,-0.310013,-0.108291,0.006179,43.034737,-42.584873,-7.936325,-100.795586,0.642398,0.9246271,0.016580187,-0.113165624,-0.112609126,0.2424879
20240115 08:34:11,0.367810,0.866406,0.989900,-0.282314,-0.137055,0.012571,43.237709,-42.475246,-7.941460,-103.42307,1.0417536,0.8563035,-0.073144354,-0.10666576,-0.13881764,0.19789271
20240115 08:34:11,0.446763,0.933328,1.230231,-0.196021,-0.148774,0.011506,43.138325,-43.136684,-8.435158,-105.514885,1.3226097,0.9554361,-0.15577489,-0.07779299,-0.14640027,0.11328188
20240115 08:34:11,0.757541,1.018131,1.294983,-0.071375,-0.154101,-0.008736,43.253448,-43.035282,-8.306664,-108.19487,1.5770992,1.0957888,-0.44985145,-0.051423304,-0.1512501,0.0041958163
20240115 08:34:11,1.115330,1.270531,0.926331,0.049009,-0.147709,-0.060938,43.536064,-43.396221,-7.878380,-110.82087,1.4876337,1.3329039,-0.7163464,-0.06395439,-0.15943871,-0.08876809
20240115 08:34:11,1.416079,1.528046,0.184143,0.126780,-0.096572,-0.141904,43.358841,-42.645130,-8.732994,-111.163826,1.0219607,1.389602,-0.91877055,-0.11543262,-0.14197053,-0.13256045
20240115 08:34:11,1.456128,1.804783,-0.366284,0.134237,-0.013475,-0.239916,43.765545,-42.809643,-8.182320,-110.65571,0.5752026,1.505067,-0.8919602,-0.18675874,-0.09106548,-0.10885562
20240115 08:34:11,1.294995,1.998052,-0.528729,0.069251,0.046185,-0.336863,43.879902,-42.324467,-8.614769,-103.98572,0.21169066,1.7965456,-0.70593333,-0.29210466,-0.020856641,-0.03361761
20240115 08:34:11,0.800657,2.134302,-0.434433,-0.025565,0.120759,-0.412503,44.443985,-42.470676,-8.599609,-93.013626,-0.27196112,2.1612678,-0.13483095,-0.40668643,0.1379701,0.06610319
20240115 08:34:11,-0.049227,1.960657,0.299718,-0.087355,0.204921,-0.445529,44.241398,-42.772190,-8.314003,-87.7714,-0.21339297,1.8202505,0.79608417,-0.47993472,0.29476777,0.15215708
20240115 08:34:11,-0.980687,1.689076,1.415646,-0.078832,0.276300,-0.426352,44.285839,-42.105213,-8.625038,-89.81094,0.16890049,0.9854506,1.6796383,-0.47184575,0.37558925,0.20237303
20240115 08:34:11,-1.838785,1.364470,2.503386,0.019180,0.306129,-0.357105,44.630440,-41.417240,-8.800491,-92.61215,0.3855971,-0.025476575,2.2228298,-0.36143818,0.40435427,0.16608667
20240115 08:34:11,-2.395491,0.940626,3.094737,0.169394,0.286953,-0.247374,44.976196,-41.304928,-8.134537,-95.15392,0.4375769,-0.88035613,2.3073301,-0.17554027,0.38956553,0.050947893
20240115 08:34:11,-2.610713,0.499936,3.248821,0.306824,0.214510,-0.130186,45.310032,-41.653934,-8.376373,-96.00867,0.48203814,-1.4362719,2.1472304,0.022720806,0.32336482,-0.10037839
20240115 08:34:11,-2.530949,0.112474,2.834917,0.384594,0.074949,-0.024716,45.125378,-41.765415,-8.102989,-93.94239,0.44428277,-1.667881,1.974731,0.18537185,0.18325163,-0.26171768
20240115 08:34:11,-2.253021,-0.214659,2.192395,0.402705,-0.062481,0.069035,44.828171,-41.420109,-7.324661,-90.77284,0.41734552,-1.6384943,1.7262529,0.30103374,0.024498913,-0.3687198
20240115 08:34:11,-1.776110,-0.474987,1.431633,0.384594,-0.160493,0.160655,44.965813,-42.533802,-7.920448,-86.84341,0.3870926,-1.3851395,1.3312032,0.38078842,-0.11796121,-0.40830094
20240115 08:34:11,-1.205960,-0.753484,0.751497,0.355830,-0.180735,0.235229,45.195675,-42.139111,-7.943924,-86.87896,0.31842425,-1.1484529,0.7488371,0.41605705,-0.18539557,-0.3931336
20240115 08:34:11,-0.495461,-0.999643,0.407517,0.330261,-0.159428,0.272516,45.062241,-42.238659,-8.340668,-90.436676,0.37309676,-1.1095264,0.032871332,0.41301036,-0.18136363,-0.3675165
20240115 08:34:11,0.123273,-1.103320,0.000274,0.308954,-0.094441,0.277843,44.726982,-43.023510,-7.890854,-96.24084,0.1340042,-1.0953285,-0.5153456,0.3781159,-0.10668428,-0.33293062
20240115 08:34:11,0.728904,-1.162855,-0.364122,0.285517,0.017420,0.252274,44.887314,-42.638905,-7.512451,-104.4777,-0.21700615,-1.2193674,-1.031972,0.33334783,0.032742612,-0.28460333
20240115 08:34:11,1.256504,-1.213639,-0.540856,0.226922,0.126086,0.181961,44.984894,-42.919422,-7.091255,-113.7102,-0.38559663,-1.4254686,-1.4838493,0.27399677,0.14760569,-0.19949563
20240115 08:34:11,1.523399,-1.149035,-0.512469,0.126780,0.202791,0.074361,45.072739,-42.911198,-7.224892,-114.121254,-0.25185874,-1.3877176,-1.7182459,0.1648247,0.20193483,-0.06645709
20240115 08:34:11,1.381333,-0.999187,-0.316369,0.026637,0.272038,-0.027912,45.099251,-42.434254,-7.523705,-109.30792,0.044195265,-1.1255305,-1.5913484,0.029461438,0.26125503,0.071637474
20240115 08:34:11,0.987896,-0.924764,0.112206,-0.054329,0.333828,-0.113140,45.275707,-42.801571,-7.230034,-104.10382,0.4842317,-0.9302393,-1.2763962,-0.119572915,0.3322043,0.19118269
20240115 08:34:11,0.430125,-0.747336,0.660401,-0.085225,0.387096,-0.165342,45.108982,-42.723003,-6.968872,-99.64072,0.86416507,-0.7930792,-0.7602417,-0.2296207,0.39815372,0.25729242
20240115 08:34:11,-0.159067,-0.610009,1.079033,-0.086290,0.416926,-0.171734,45.284672,-42.706547,-7.236145,-96.09526,0.97496086,-0.84005886,-0.20333444,-0.2764289,0.43114588,0.28188494
20240115 08:34:11,-0.700936,-0.394090,1.437113,-0.080963,0.404141,-0.137643,45.655136,-43.059254,-6.941490,-93.60908,0.9483606,-0.8922941,0.37138656,-0.267644,0.40811503,0.27353707
20240115 08:34:11,-1.088665,-0.117151,1.548696,-0.073506,0.349809,-0.062003,45.490211,-42.038731,-6.607834,-90.623985,0.7442901,-0.8264502,0.8797056,-0.20202553,0.33008417,0.23730394
20240115 08:34:11,-1.264892,-0.128452,1.447123,-0.089486,0.251797,0.024290,45.736202,-42.395969,-6.716042,-89.25577,0.59427154,-0.8550425,1.0527991,-0.11022079,0.2062729,0.20056796
20240115 08:34:11,-1.103131,-0.204144,1.134928,-0.132100,0.127151,0.100995,45.621460,-42.689259,-6.564064,-88.45149,0.49374774,-0.76215875,0.8996293,-0.020482652,0.060789227,0.17702551
20240115 08:34:11,-0.832735,-0.424461,0.806353,-0.182171,0.019551,0.152132,45.575871,-42.780582,-7.094444,-89.04241,0.44022417,-0.7635962,0.56501997,0.04222589,-0.053804763,0.17314738
20240115 08:34:11,-0.496388,-0.726568,0.581058,-0.213066,-0.048631,0.172373,45.788189,-42.767826,-6.825218,-92.68522,0.45810008,-0.89651847,0.11518696,0.06730601,-0.11265014,0.1665264
20240115 08:34:11,-0.197328,-1.005795,0.476049,-0.192825,-0.073134,0.162785,45.639008,-42.307339,-6.856766,-94.36191,0.5317615,-1.0940623,-0.27211684,0.074100286,-0.12177825,0.13686492
20240115 08:34:11,-0.072691,-1.237377,0.276070,-0.138492,-0.059285,0.134021,45.611729,-42.400501,-7.118896,-94.03348,0.437982,-1.268557,-0.4537458,0.07276368,-0.09346425,0.09759109
20240115 08:34:11,0.043478,-1.357801,-0.027569,-0.057525,-0.001756,0.095668,45.463318,-42.323788,-6.589493,-93.27565,0.23305969,-1.3241739,-0.56804115,0.0643215,-0.023028947,0.05015595
20240115 08:34:11,0.028859,-1.404035,-0.331721,0.034094,0.072818,0.055185,45.187477,-42.617908,-7.376862,-89.311325,-0.0050009787,-1.3000991,-0.5361681,0.04768475,0.062498257,-0.005208595
20240115 08:34:11,0.044314,-1.467169,-0.643439,0.100146,0.122890,0.014702,45.505569,-42.406879,-7.253510,-84.33773,-0.19866681,-1.2462779,-0.54402214,0.01523113,0.1235138,-0.053760853
20240115 08:34:11,-0.080869,-1.352524,-0.946407,0.131041,0.147393,-0.022585,45.611729,-42.400501,-7.118896,-76.43733,-0.3952815,-0.93917024,-0.3785284,-0.03249207,0.15927938,-0.08422258
20240115 08:34:11,-0.259464,-1.250717,-1.200704,0.139564,0.145262,-0.041762,45.930206,-42.381359,-6.715065,-68.40271,-0.5252863,-0.59505206,-0.19168419,-0.06271003,0.16512063,-0.10128599
20240115 08:34:11,-0.393535,-1.139508,-1.463888,0.124649,0.125020,-0.040696,45.912659,-42.763287,-6.422363,-62.429413,-0.6965201,-0.24842232,-0.047193587,-0.06683029,0.14354898,-0.09725498
20240115 08:34:11,-0.504413,-1.020745,-1.661441,0.088427,0.113301,-0.036435,45.887569,-42.106380,-6.331520,-57.1171,-0.81639826,0.077432156,0.05465649,-0.07240133,0.12488612,-0.06709265
20240115 08:34:11,-0.525154,-0.922556,-1.646879,0.051140,0.099452,-0.020455,45.824432,-42.579632,-6.569199,-57.90428,-0.8892919,0.12116772,0.095604315,-0.060157314,0.09946349,-0.031231899
20240115 08:34:11,-0.545517,-0.814047,-1.633085,0.034094,0.104779,0.001918,45.887569,-42.106380,-6.331520,-53.600895,-0.8464578,0.302082,0.13917264,-0.055320643,0.0846781,-0.012553889
20240115 08:34:11,-0.641728,-0.653062,-1.742245,0.023441,0.139935,0.038139,45.947754,-41.999432,-7.007759,-49.4358,-0.9788967,0.55189973,0.2373564,-0.058385774,0.08244097,0.008298778
20240115 08:34:11,-0.618433,-0.501760,-1.752042,-0.014912,0.160177,0.088211,45.779224,-42.862843,-6.819107,-50.815308,-1.1019351,0.6524578,0.25210187,-0.04187437,0.06139127,0.056497224
20240115 08:34:11,-0.611265,-0.354394,-1.694424,-0.085225,0.133543,0.135086,46.081573,-42.091770,-6.330544,-53.9195,-1.2073041,0.67114985,0.2978415,9.3289465E-4,0.008959539,0.12625362
20240115 08:34:11,-0.538056,-0.305646,-1.615543,-0.178975,0.065361,0.181961,45.878990,-42.393291,-6.044937,-61.185024,-1.2782984,0.5339011,0.27554715,0.07091251,-0.06523292,0.20816234
20240115 08:34:11,-0.366529,-0.277944,-1.328816,-0.279118,-0.043305,0.216053,45.800491,-42.498394,-5.636948,-71.37921,-1.1402755,0.25835675,0.18126279,0.13655393,-0.1585042,0.27714497
20240115 08:34:12,-0.139698,-0.218670,-1.147697,-0.349431,-0.137055,0.237360,46.239719,-42.457241,-6.305115,-78.885666,-1.0281988,0.116719484,0.02131902,0.16745429,-0.22773224,0.31424132
20240115 08:34:12,0.075238,-0.293678,-1.011608,-0.387783,-0.176473,0.235229,45.718273,-42.586010,-6.703812,-86.60764,-0.8821225,-0.10556516,-0.17040849,0.14554664,-0.23500077,0.3273969
20240115 08:34:12,0.246325,-0.281088,-0.749848,-0.400568,-0.187127,0.206464,45.824047,-42.387745,-6.849678,-92.40142,-0.61069137,-0.2008504,-0.3099362,0.093271434,-0.21789283,0.32318836
20240115 08:34:12,0.448677,-0.282271,-0.524989,-0.392045,-0.167950,0.153197,46.027016,-42.278118,-6.854813,-96.78126,-0.32674026,-0.24558908,-0.49605912,0.020304218,-0.18321328,0.306481
20240115 08:34:12,0.438922,-0.235485,-0.105819,-0.368607,-0.158362,0.086080,46.123444,-41.982975,-7.275032,-97.440346,0.079314426,-0.21744229,-0.4891289,-0.04699702,-0.17253831,0.2800094
20240115 08:34:12,0.287348,-0.229907,0.147624,-0.322797,-0.140251,0.023225,46.184776,-42.451694,-7.109848,-98.18721,0.2692089,-0.23081952,-0.3627344,-0.09576973,-0.15366018,0.23913181
20240115 08:34:12,0.142650,-0.084678,0.515552,-0.242896,-0.113618,-0.038566,45.814697,-42.290874,-7.124031,-97.42663,0.5333036,-0.14132595,-0.19325492,-0.123541236,-0.12221238,0.17378034
20240115 08:34:12,-0.189444,0.045599,0.723128,-0.149145,-0.110422,-0.074787,45.841209,-41.813931,-7.422844,-94.49388,0.54623973,-0.10300708,0.16553965,-0.1110208,-0.10772478,0.08866792
20240115 08:34:12,-0.343538,0.186773,0.747380,-0.057525,-0.134925,-0.092898,46.140987,-41.601048,-7.567726,-92.68369,0.47953248,0.007114157,0.37539616,-0.08054093,-0.119086884,-0.0032153595
20240115 08:34:12,-0.260157,0.384233,0.597851,0.021310,-0.180735,-0.113140,46.246765,-41.402775,-7.713593,-91.194885,0.37010545,0.25055704,0.38446504,-0.061641607,-0.15549828,-0.089143366
20240115 08:34:12,-0.193171,0.707772,0.139632,0.083100,-0.198846,-0.147231,46.264694,-41.212734,-7.725815,-86.375565,-0.08442147,0.64679974,0.42396438,-0.06562698,-0.15710641,-0.14854942
20240115 08:34:12,-0.207150,0.971257,-0.290657,0.127845,-0.159428,-0.171734,46.431419,-41.291302,-7.986969,-81.58404,-0.5749007,0.9929588,0.47960445,-0.07812534,-0.10011938,-0.17789687
20240115 08:34:12,-0.305820,1.263783,-0.388245,0.159806,-0.108291,-0.185584,46.634773,-41.373554,-7.711639,-79.33186,-0.81583476,1.287143,0.65107846,-0.08708735,-0.03351253,-0.19537412
20240115 08:34:12,-0.514004,1.404189,-0.263106,0.166198,-0.105095,-0.190910,46.546539,-41.189899,-7.858467,-77.76374,-0.86364454,1.3443036,0.91539735,-0.08027349,-0.016662993,-0.20381309
20240115 08:34:12,-0.726639,1.472569,-0.042576,0.161936,-0.149840,-0.189845,46.449730,-41.293148,-7.718727,-76.46265,-0.8237389,1.2754194,1.1683954,-0.054247834,-0.047038667,-0.21711768
20240115 08:34:12,-0.957300,1.517007,0.085924,0.166198,-0.195650,-0.177061,45.937252,-41.326900,-8.123535,-75.03968,-0.8631429,1.1999377,1.4238214,-0.014260367,-0.08321028,-0.2388097
20240115 08:34:12,-1.070830,1.453326,0.190865,0.193897,-0.224414,-0.152558,46.386208,-41.574505,-8.236870,-74.1773,-0.8236277,1.0568814,1.5242424,0.03450267,-0.10828023,-0.27414522
20240115 08:34:12,-1.172612,1.398072,0.138267,0.248229,-0.211630,-0.126989,46.060955,-40.938587,-8.281616,-71.34592,-0.91626716,0.9783548,1.5834516,0.07637592,-0.08981404,-0.31786507
20240115 08:34:12,-1.187233,1.419596,0.046141,0.326000,-0.147709,-0.093964,46.458313,-41.006245,-8.005310,-71.45384,-1.0052958,1.0359746,1.5918306,0.102605544,-0.035011735,-0.36503518
20240115 08:34:12,-1.111745,1.497820,0.038790,0.415489,-0.098703,-0.057742,46.546539,-41.189899,-7.858467,-70.62944,-0.98886615,1.1411992,1.5211842,0.13230845,0.0012376551,-0.42922434
20240115 08:34:12,-0.973903,1.730588,-0.228402,0.467691,-0.086984,-0.017259,46.643353,-41.086651,-7.998222,-67.46567,-1.2428184,1.5045532,1.3687826,0.1590258,-0.0068306495,-0.4728747
20240115 08:34:12,-0.663140,1.997277,-0.625111,0.458103,-0.101899,0.022159,46.167114,-40.932209,-8.147011,-68.01341,-1.5052576,2.005703,1.0330384,0.1702796,-0.05676251,-0.46538198
20240115 08:34:12,-0.275782,2.240302,-0.935127,0.372875,-0.140251,0.045597,46.352539,-41.204510,-7.859444,-70.721,-1.6753057,2.3981671,0.6498271,0.16788304,-0.11976627,-0.38922048
20240115 08:34:12,-0.012174,2.371389,-0.976751,0.219465,-0.206303,0.057316,46.089005,-41.229198,-7.458542,-77.52831,-1.4933318,2.5319233,0.4484029,0.14896935,-0.20267862,-0.253905
20240115 08:34:12,0.092335,2.476426,-0.651111,0.050075,-0.260636,0.060512,46.016899,-41.797466,-7.690117,-82.83868,-1.0490317,2.555212,0.49122655,0.117388755,-0.26471826,-0.10992312
20240115 08:34:12,0.125190,2.485991,0.010111,-0.073506,-0.280877,0.073296,45.876301,-41.050076,-8.008240,-88.01654,-0.29312158,2.4642816,0.62549686,0.08560248,-0.29116386,-0.013267885
20240115 08:34:12,0.202066,2.133300,0.747874,-0.144884,-0.259570,0.076492,45.858368,-41.240108,-7.996010,-95.461044,0.5909085,2.0700974,0.5818172,0.037690975,-0.26965475,0.034764428
20240115 08:34:12,0.275109,1.534792,1.634129,-0.150211,-0.203107,0.047728,45.946217,-41.231876,-8.129654,-101.32022,1.4808044,1.4413974,0.3024845,-0.014846336,-0.21022332,0.03701295
20240115 08:34:12,0.148297,0.798945,2.469855,-0.064983,-0.106160,-0.017259,45.485336,-41.445583,-8.924103,-103.617165,2.0930886,0.59700316,-0.021746576,-0.04028195,-0.1076114,0.0022557124
20240115 08:34:12,-0.260247,0.264943,3.017799,0.102277,0.009963,-0.079049,45.637089,-41.347889,-8.259117,-104.204636,2.2277348,-0.19125798,-0.069931835,-0.005173195,0.031299938,-0.06625108
20240115 08:34:12,-0.821960,-0.220736,3.297046,0.307889,0.087733,-0.089702,45.451668,-41.075588,-8.546677,-102.4261,2.0990517,-0.9800894,0.09864515,0.09894826,0.14805442,-0.18247055
20240115 08:34:12,-1.083884,-0.597346,2.930670,0.506044,0.118628,-0.051350,45.576138,-41.071064,-8.143829,-99.9763,1.7925773,-1.4076383,0.24283537,0.22791104,0.20706317,-0.3381568
20240115 08:34:12,-0.956984,-0.866711,2.106347,0.613644,0.080276,0.008310,45.179550,-41.387188,-7.859192,-95.22655,1.4550362,-1.4816773,0.28117454,0.30179837,0.16392796,-0.48637408
20240115 08:34:12,-0.543555,-1.008956,1.021120,0.605121,0.008897,0.063708,45.134727,-41.862286,-7.828629,-90.63393,0.8980756,-1.2648231,0.06573884,0.30771157,0.057403453,-0.54593194
20240115 08:34:12,-0.073922,-1.008736,0.123958,0.512436,-0.057154,0.116975,44.825981,-42.170177,-7.677635,-89.388054,0.25421166,-1.0180403,-0.26327664,0.28743368,-0.046176337,-0.50210184
20240115 08:34:12,0.332794,-0.926411,-0.525144,0.378202,-0.095507,0.167047,45.195290,-41.947216,-8.224396,-93.20278,-0.38828743,-0.90985215,-0.5674316,0.26753032,-0.09699282,-0.39240438
20240115 08:34:12,0.787713,-0.921386,-0.712518,0.225857,-0.129598,0.212857,44.932140,-42.163807,-7.543022,-105.192474,-0.62704504,-1.0734695,-0.94829404,0.23899198,-0.100354195,-0.2663406
20240115 08:34:12,1.315652,-0.954789,-0.741855,0.072447,-0.176473,0.224575,44.668221,-41.996601,-7.422585,-117.11536,-0.6255511,-1.3077427,-1.407821,0.15249398,-0.08636481,-0.14522707
20240115 08:34:12,1.792918,-1.000099,-0.618385,-0.075636,-0.210564,0.196876,44.620441,-42.838001,-8.305939,-123.3349,-0.39519584,-1.4492737,-1.8566656,0.037493967,-0.0774306,-0.020895943
20240115 08:34:12,2.118687,-1.088650,-0.424636,-0.188563,-0.200976,0.131890,44.189415,-42.400349,-8.204819,-125.51899,-0.1304887,-1.5239445,-2.2084365,-0.05919957,-0.07213914,0.092514984
20240115 08:34:12,2.178686,-0.953435,-0.302911,-0.256746,-0.100834,0.053054,44.146774,-42.125370,-7.821281,-124.361855,0.14901109,-1.3634732,-2.250531,-0.098060235,-0.018768487,0.19540685
20240115 08:34:12,2.079665,-1.038725,0.165318,-0.280183,0.028074,-0.028977,44.037659,-42.498043,-8.869804,-120.2875,0.6486697,-1.2363626,-2.2990692,-0.13200678,0.06093844,0.270649
20240115 08:34:12,1.779713,-1.015095,0.664821,-0.283379,0.138870,-0.109944,43.944191,-42.426891,-7.535675,-116.998985,1.1388128,-1.0333631,-2.1316676,-0.19009474,0.14160527,0.33115765
20240115 08:34:12,1.301992,-0.936170,1.132811,-0.268464,0.217706,-0.165342,44.268291,-42.487133,-8.332344,-111.45836,1.5204849,-0.88858646,-1.7606835,-0.25166982,0.21454212,0.36207896
20240115 08:34:12,0.791376,-0.812272,1.661533,-0.231177,0.240078,-0.188780,44.243969,-42.214008,-7.680565,-108.19187,1.8363283,-0.81596875,-1.3343213,-0.28036794,0.24024206,0.3444056
20240115 08:34:12,0.310111,-0.575171,1.915698,-0.177910,0.226228,-0.174930,44.235004,-42.309025,-7.674454,-104.794174,1.8468983,-0.7021689,-0.7953633,-0.2570982,0.23066363,0.28654277
20240115 08:34:12,0.025782,-0.337908,1.891814,-0.140623,0.179353,-0.132316,44.198380,-42.305325,-8.210938,-101.366066,1.6892368,-0.54196274,-0.3651944,-0.20285526,0.18386628,0.22111057
20240115 08:34:12,-0.077334,-0.176566,1.598056,-0.135296,0.133543,-0.083310,44.208111,-42.594090,-7.656113,-100.00503,1.3869443,-0.38068265,-0.14135027,-0.15267551,0.13373755,0.18764089
20240115 08:34:12,-0.097649,-0.015842,1.417036,-0.153407,0.080276,-0.037500,44.668221,-41.996601,-7.422585,-98.2079,1.2087857,-0.21712682,-0.010835409,-0.11312643,0.0738567,0.17515829
20240115 08:34:12,-0.106997,-0.015163,1.312928,-0.183237,0.036596,0.005114,44.156509,-42.414127,-7.266457,-98.82328,1.1118236,-0.20400989,-0.0019762814,-0.083116546,0.022657702,0.17952196
20240115 08:34:12,-0.119203,-0.123835,1.349878,-0.192825,0.012093,0.046662,43.820488,-42.815197,-7.377586,-99.97363,1.139522,-0.3218142,-0.061038032,-0.051184736,-0.009065216,0.17222306
20240115 08:34:12,-0.138350,-0.375820,1.482028,-0.168322,-0.009214,0.088211,43.784630,-43.195278,-7.353134,-102.08231,1.2597451,-0.5764178,-0.21070203,-0.005026743,-0.033092387,0.13339248
20240115 08:34:12,-0.149826,-0.693067,1.495009,-0.106531,-0.036913,0.118041,44.253319,-42.310879,-7.406197,-102.20329,1.2925637,-0.8877705,-0.3687339,0.052271865,-0.05950515,0.061542276
20240115 08:34:12,-0.083431,-1.026256,1.315695,-0.017042,-0.056089,0.138282,44.271629,-42.312725,-7.137955,-102.16575,1.2179227,-1.1744435,-0.548989,0.11801365,-0.07264729,-0.025886904
20240115 08:34:12,0.043020,-1.268576,0.939882,0.079904,-0.051828,0.143609,43.732258,-42.631542,-7.524429,-101.768135,0.9722241,-1.3512372,-0.7045152,0.16861781,-0.061541885,-0.10794773
20240115 08:34:12,0.171613,-1.522934,0.411090,0.159806,-0.052893,0.131890,43.635448,-42.734783,-7.384674,-99.80465,0.554392,-1.5424048,-0.7929363,0.18875265,-0.057149526,-0.17631744
20240115 08:34:12,0.392053,-1.657055,-0.348712,0.208812,-0.017736,0.113779,43.645180,-43.023540,-6.829849,-100.06645,-0.20257477,-1.6576778,-0.88658804,0.17607805,-0.01768352,-0.20948444
20240115 08:34:12,0.596174,-1.655846,-0.937473,0.231184,0.066426,0.089276,43.635834,-42.926670,-7.104210,-99.96817,-0.84785265,-1.7252328,-0.97279346,0.15293625,0.06785971,-0.20890738
20240115 08:34:12,0.702401,-1.681287,-1.283683,0.225857,0.162307,0.060512,43.090446,-42.974201,-6.570641,-102.51965,-1.2681,-1.849001,-1.0180991,0.13422048,0.16131522,-0.18282679
20240115 08:34:12,0.804514,-1.655861,-1.340390,0.197093,0.231555,0.024290,43.363716,-43.238270,-6.416718,-104.31657,-1.3107755,-1.8598368,-1.1048832,0.10700685,0.22498177,-0.13429482
20240115 08:34:12,0.785054,-1.741532,-1.144053,0.153413,0.240078,-0.022585,43.654530,-43.120411,-6.555489,-103.53511,-1.0520719,-1.8767647,-1.1573366,0.047468062,0.2313985,-0.07935648
20240115 08:34:12,0.741356,-1.729605,-0.952341,0.117192,0.221967,-0.076918,43.503162,-43.410000,-6.940002,-99.92333,-0.7672396,-1.7757744,-1.1541517,-0.03074731,0.21721157,-0.045276634
20240115 08:34:12,0.511120,-1.575487,-0.921401,0.116126,0.246470,-0.119532,43.618668,-43.500484,-6.531036,-93.372116,-0.61579967,-1.4868878,-0.9158072,-0.101067305,0.25760844,-0.04063412
20240115 08:34:12,0.242931,-1.450408,-0.987783,0.135303,0.298672,-0.145100,43.700123,-43.029087,-6.025116,-87.52266,-0.61851424,-1.242723,-0.6330787,-0.15334237,0.32556653,-0.05223913
20240115 08:34:12,0.105933,-1.247086,-1.104720,0.139564,0.351939,-0.160015,43.875813,-43.012630,-6.292381,-79.94688,-0.66594684,-0.892239,-0.45103276,-0.20980069,0.39074895,-0.057192374
20240115 08:34:12,-0.047346,-1.032163,-1.256904,0.117192,0.381769,-0.156819,43.797699,-43.309620,-5.603920,-72.28279,-0.73179555,-0.46243602,-0.2661558,-0.26150304,0.42166877,-0.041852932
20240115 08:34:12,-0.274534,-0.702014,-1.478356,0.064990,0.395619,-0.123793,43.955460,-43.483196,-5.858955,-61.327072,-0.9131718,0.14730561,-0.011336684,-0.2951157,0.40642247,-0.0028067743
20240115 08:34:12,-0.380468,-0.418991,-1.524909,-0.004258,0.400945,-0.056677,44.106445,-43.001720,-5.754921,-63.327904,-1.1542512,0.3573702,0.14475495,-0.24820176,0.37268403,0.075471886
