Timestamp,linacce_x,linacce_y,linacce_z,gyro_x,gyro_y,gyro_z,X-magnetometer,Y-magnetometer,Z-magnetometer,Yaw, worldXAccel,worldYAccel,worldZAccel,worldXgyro,worldYgyro,worldZgyro
20231225 03:43:27,2.564500,-1.060369,-0.707548,-0.032317,0.379582,-0.463879,-3.035534,33.122242,-28.376045,-9.417162,1.478232,-1.8700544,-2.204415,-0.20179623,0.26937786,-0.30230713
20231225 03:43:27,-0.933344,1.532575,0.167011,-0.251778,0.274112,-0.311534,-2.911831,33.510544,-28.534157,11.730468,-0.8250869,1.319633,0.48039198,-0.42538065,0.2686604,-0.11771839
20231225 03:43:27,-1.086565,1.504833,0.328300,-0.232602,0.263459,-0.305142,-3.017986,33.504169,-28.668755,12.442055,-0.8629722,1.2228582,0.67828965,-0.40532959,0.25872284,-0.13058247
20231225 03:43:27,-1.508455,1.516661,0.778996,-0.170812,0.169708,-0.256136,-2.497307,34.016712,-28.831001,12.957202,-0.98881173,1.0219811,1.2459859,-0.31251293,0.16867363,-0.12581122
20231225 03:43:27,-1.693992,1.492073,1.029921,-0.102630,0.059977,-0.189019,-2.427010,33.643017,-28.671944,13.268316,-1.0132389,0.8971573,1.5388838,-0.20047402,0.0659108,-0.09775689
20231225 03:43:27,-1.675165,1.443607,1.011254,-0.001422,-0.041231,-0.096334,-3.106983,34.071606,-29.376534,13.703841,-0.9920125,0.8845087,1.5101426,-0.0499715,-0.02515219,-0.06659666
20231225 03:43:27,-1.425930,1.280513,0.856708,0.125355,-0.134981,-0.003649,-2.764183,33.817612,-29.624489,12.151384,-0.8208039,0.86789185,1.3070016,0.11687308,-0.10790121,-0.05491474
20231225 03:43:27,-0.976509,0.941974,0.515173,0.256393,-0.226601,0.053880,-2.948456,33.514244,-29.070641,10.9015,-0.58454955,0.7185626,0.8481762,0.2625823,-0.18980312,-0.07726474
20231225 03:43:27,-0.525608,0.685047,-0.017921,0.370385,-0.307568,0.066664,-3.124531,33.689678,-29.083839,9.675933,-0.48699132,0.61648357,0.2232963,0.35989565,-0.2663746,-0.13870756
20231225 03:43:27,-0.155483,0.580812,-0.575376,0.456678,-0.348051,0.059207,-3.354778,33.486877,-29.340828,8.365325,-0.528691,0.6046938,-0.3985043,0.41080558,-0.31260484,-0.21171594
20231225 03:43:27,0.144688,0.497107,-1.072163,0.509945,-0.364031,0.029377,-3.875072,32.782436,-28.898109,7.7616715,-0.6410111,0.55508924,-0.9295732,0.41285768,-0.3377839,-0.2874026
20231225 03:43:27,0.413648,0.429263,-1.466826,0.521664,-0.365096,-0.011106,-4.033600,33.339798,-29.204018,6.743711,-0.7354144,0.48254335,-1.369934,0.37713864,-0.34923872,-0.34027433
20231225 03:43:27,0.509641,0.433160,-1.756947,0.497161,-0.358704,-0.061178,-3.929245,32.404209,-29.141899,6.288266,-0.9063449,0.48026294,-1.6197197,0.31189772,-0.34705365,-0.37007624
20231225 03:43:27,0.541615,0.484583,-1.906155,0.460939,-0.341659,-0.102726,-4.008507,32.682896,-29.294853,6.1047707,-1.0194227,0.5242343,-1.7318227,0.2479468,-0.33270594,-0.37996304
20231225 03:43:27,0.550977,0.581779,-1.982355,0.421522,-0.321417,-0.142144,-3.965870,32.407909,-29.678383,6.070115,-1.1188943,0.62373376,-1.7664162,0.1807634,-0.31249696,-0.38565654
20231225 03:43:27,0.451824,0.737152,-2.096132,0.365058,-0.286261,-0.154928,-4.520988,32.649143,-29.699654,7.579064,-1.31057,0.8182418,-1.7661581,0.13159235,-0.27049175,-0.35169935
20231225 03:43:27,0.353960,0.787206,-2.086170,0.288353,-0.259627,-0.158124,-4.829731,32.341248,-29.548668,8.204135,-1.3752142,0.87321776,-1.6901195,0.078194454,-0.24453995,-0.296367
20231225 03:43:27,0.337280,0.774465,-2.033098,0.200995,-0.254300,-0.177301,-4.838696,32.246227,-29.542549,8.379143,-1.3459873,0.86471295,-1.6442378,0.0074575543,-0.2401721,-0.24253598
20231225 03:43:27,0.277330,0.807374,-1.968704,0.109375,-0.251104,-0.219914,-4.566196,32.365932,-29.949562,8.464982,-1.3370554,0.9129697,-1.5674441,-0.08124936,-0.23528042,-0.20112482
20231225 03:43:27,0.106130,0.814373,-1.819054,0.023081,-0.234059,-0.274247,-4.592705,31.888985,-29.650749,10.446409,-1.3417351,0.9694084,-1.3732356,-0.16769111,-0.20788729,-0.16905919
20231225 03:43:27,-0.279690,0.973854,-1.545370,-0.038709,-0.199967,-0.314730,-5.138859,32.225235,-29.678139,13.3725815,-1.4223161,1.1197653,-0.9807771,-0.22734505,-0.16218695,-0.14992014
20231225 03:43:27,-0.719841,1.077190,-1.148480,-0.050428,-0.163746,-0.315796,-5.296623,32.398815,-29.423103,15.464542,-1.4705286,1.117739,-0.4762982,-0.22760479,-0.11780949,-0.14861348
20231225 03:43:27,-1.139712,1.206306,-0.706740,-0.006748,-0.132851,-0.287031,-5.350792,32.020588,-29.666878,16.864178,-1.5086558,1.0807663,0.045245796,-0.173199,-0.079134844,-0.16608398
20231225 03:43:27,-1.396251,1.345193,-0.382401,0.068891,-0.128589,-0.231633,-5.166138,32.132069,-29.940269,17.14866,-1.5173639,1.0925255,0.40090892,-0.07891269,-0.06770901,-0.18083768
20231225 03:43:27,-1.483640,1.448711,-0.212181,0.149858,-0.155223,-0.171974,-5.305588,32.303795,-29.416985,17.11133,-1.4839053,1.1485648,0.5597555,0.023623034,-0.08935701,-0.18915565
20231225 03:43:27,-1.354216,1.497715,-0.267436,0.221236,-0.201033,-0.133621,-5.756729,31.801331,-29.656609,17.184109,-1.4090867,1.2571068,0.44791552,0.10252349,-0.13233136,-0.20349547
20231225 03:43:27,-1.170819,1.600955,-0.459826,0.269177,-0.246843,-0.117641,-6.090946,32.342228,-29.695244,17.069979,-1.4068309,1.4417266,0.21355209,0.14632246,-0.17555588,-0.22175393
20231225 03:43:27,-1.078036,1.746109,-0.733109,0.281961,-0.273477,-0.106988,-5.729454,31.894501,-29.394493,16.786562,-1.5587573,1.6528927,-0.013477296,0.1607632,-0.20186386,-0.22442636
20231225 03:43:27,-1.045069,1.885611,-0.957595,0.263850,-0.266019,-0.083550,-6.224003,32.050789,-29.811516,17.394978,-1.7237794,1.8391552,-0.1899204,0.16040485,-0.20244527,-0.19836524
20231225 03:43:27,-1.010608,1.784832,-0.914934,0.226563,-0.253235,-0.046263,-6.144737,31.772110,-29.658562,16.638115,-1.6299672,1.7439067,-0.16961819,0.1584136,-0.20662974,-0.15030693
20231225 03:43:27,-0.838378,1.641723,-0.927049,0.192472,-0.212752,-0.016433,-6.348091,31.854370,-29.933907,15.550599,-1.4621074,1.6347857,-0.28403234,0.14730059,-0.18271324,-0.11391984
20231225 03:43:27,-0.568918,1.403294,-0.744737,0.170099,-0.154158,-0.007910,-6.708820,31.918324,-29.673714,14.40038,-1.0717876,1.4090297,-0.33270967,0.1284397,-0.134619,-0.101237155
20231225 03:43:27,-0.378923,1.186085,-0.439272,0.166903,-0.089171,-0.023890,-6.559639,31.457836,-29.642174,13.327223,-0.67347515,1.1809214,-0.24614444,0.11188988,-0.072017044,-0.11706163
20231225 03:43:27,-0.325162,0.911951,-0.021788,0.186080,-0.076387,-0.048393,-6.613811,31.079609,-29.885979,13.160624,-0.32596293,0.8804056,0.043340743,0.11346437,-0.0566335,-0.14534888
20231225 03:43:27,-0.387158,0.790135,0.326620,0.208452,-0.112609,-0.063308,-6.799236,31.351906,-30.173546,13.929943,-0.15303846,0.71911985,0.3460214,0.12852807,-0.08614855,-0.16031109
20231225 03:43:27,-0.509778,0.691201,0.612829,0.216975,-0.219144,-0.053720,-6.799236,31.351906,-30.173546,13.841066,-0.0667007,0.5881118,0.6549352,0.15205407,-0.19216467,-0.13660811
20231225 03:43:27,-0.407652,0.673325,0.768944,0.212713,-0.362966,-0.028152,-7.044842,31.517254,-29.784859,13.093582,0.123515725,0.59145737,0.72002083,0.17004646,-0.3432509,-0.09135708
20231225 03:43:27,0.118444,0.535647,0.688189,0.185014,-0.551532,-0.040936,-7.284054,31.219433,-30.035728,10.346633,0.5238494,0.52872336,0.37129796,0.12313337,-0.54812694,-0.07291457
20231225 03:43:27,0.311618,0.559183,0.519459,0.167969,-0.574970,-0.069700,-7.284054,31.219433,-30.035728,9.19406,0.5760274,0.56005037,0.123900056,0.08036102,-0.57656646,-0.0903486
20231225 03:43:27,0.796483,0.491001,0.504015,0.143466,-0.564317,-0.167712,-7.999504,31.076057,-30.435402,7.4474463,0.95852697,0.46694672,-0.16072613,-0.01985544,-0.57895744,-0.1625851
20231225 03:43:27,1.193364,0.405639,0.664765,0.156250,-0.503592,-0.344560,-7.981575,31.266098,-30.447639,6.1791897,1.3714281,0.3492661,-0.26330703,-0.12494745,-0.5361508,-0.32278287
20231225 03:43:27,1.269591,0.684990,0.831957,0.222302,-0.378946,-0.548042,-8.669357,31.023998,-30.304710,7.5808415,1.545955,0.64131635,-0.2536999,-0.20316756,-0.42590848,-0.52073663
20231225 03:43:27,0.976580,1.204472,1.080873,0.338424,-0.218078,-0.729151,-8.581516,31.032230,-30.438332,10.012161,1.4711895,1.2036743,-0.0114350915,-0.23648252,-0.23943058,-0.7329174
20231225 03:43:27,0.252890,1.900682,1.280068,0.462005,-0.068930,-0.828228,-9.013195,29.952248,-29.568306,14.875545,0.9734857,1.8472501,0.36711776,-0.23326784,-0.0056786537,-0.88516206
20231225 03:43:27,-0.587343,2.549137,1.441147,0.519534,0.017364,-0.822901,-8.819958,30.350636,-30.128288,18.385412,0.29346538,2.270958,0.8139105,-0.21451443,0.17698178,-0.9221501
20231225 03:43:27,-1.407988,3.278111,1.482034,0.446025,0.006710,-0.731282,-8.652851,30.080185,-30.108971,21.353859,-0.49239755,2.678124,1.1591058,-0.21762139,0.21195988,-0.7918654
20231225 03:43:27,-1.965354,3.900823,1.566248,0.244674,-0.065734,-0.582133,-9.111156,30.424667,-30.269981,23.764585,-1.0501997,3.0053394,1.3674614,-0.23554175,0.111505136,-0.52065814
20231225 03:43:27,-2.345796,4.174891,1.707170,-0.029121,-0.132851,-0.396762,-9.016918,29.969727,-31.043175,24.755013,-1.3822441,3.057172,1.5815244,-0.2643934,-0.040295586,-0.18636572
20231225 03:43:27,-2.512263,3.518724,2.088062,-0.276281,-0.147765,-0.184758,-9.350368,30.126846,-30.520866,24.507929,-1.2598615,2.3566184,2.0041294,-0.29316312,-0.16588673,0.10476577
20231225 03:43:27,-2.465521,2.085206,2.678825,-0.374293,-0.122197,0.043226,-9.235245,30.228249,-30.392357,23.17394,-0.8571018,1.0365498,2.762834,-0.26273754,-0.20771669,0.28747162
20231225 03:43:27,-2.098589,0.464783,3.197718,-0.330614,-0.094498,0.242447,-9.544373,30.112236,-30.521843,21.741192,-0.4400133,-0.25613722,3.4546213,-0.17210023,-0.17835172,0.3845925
20231225 03:43:27,-1.391863,-1.212956,3.700963,-0.167616,-0.178661,0.330870,-9.738762,30.289516,-30.803276,20.099644,0.08563733,-1.5873847,4.1324396,-0.028894946,-0.21730086,0.40752003
20231225 03:43:27,-0.759060,-2.552123,3.669278,0.094460,-0.354443,0.325544,-9.596745,30.675972,-30.693138,18.056585,0.36686528,-2.7006662,4.320016,0.19104415,-0.35310313,0.37573022
20231225 03:43:27,-0.164645,-3.485575,3.035202,0.409803,-0.560055,0.272276,-10.214615,30.252068,-30.671608,16.918732,0.6531229,-3.5159276,3.8284054,0.4710335,-0.5484929,0.30364162
20231225 03:43:27,0.349469,-3.656024,1.917672,0.715558,-0.735838,0.226466,-10.108459,30.258450,-30.536995,14.011007,0.9013798,-3.6506412,2.5052345,0.7463281,-0.74701816,0.15854225
20231225 03:43:27,0.843182,-3.458258,0.374718,0.954196,-0.820000,0.219009,-10.480339,29.477299,-30.623680,10.223425,0.7731507,-3.5045595,0.5578797,0.92553604,-0.89876187,-0.05545053
20231225 03:43:27,1.362652,-3.073113,-1.070854,1.083103,-0.797628,0.243512,-11.432426,29.594292,-30.640785,5.345001,0.23540258,-3.390554,-1.3793652,0.9481007,-0.9611195,-0.29929078
20231225 03:43:27,1.949238,-2.626583,-2.289394,1.107606,-0.687897,0.297845,-11.195396,29.142036,-30.742867,-2.9995344,-0.6174267,-3.609478,-3.1074724,0.82776743,-0.8872912,-0.5336175
20231225 03:43:27,2.562454,-2.055381,-3.369828,0.989352,-0.501461,0.343655,-11.397987,28.840519,-30.457268,-12.847055,-1.0537686,-4.2017326,-4.44056,0.65949464,-0.6643852,-0.55866075
20231225 03:43:27,3.209426,-1.774221,-3.885423,0.717688,-0.353378,0.324478,-11.876411,28.244884,-30.959038,-19.581707,-0.76500773,-4.895523,-5.236211,0.4540775,-0.41775218,-0.40571076
20231225 03:43:27,3.616502,-1.485421,-4.168266,0.334163,-0.221274,0.240316,-12.264420,28.215664,-30.960991,-21.905104,-0.42724645,-5.2173176,-5.6401086,0.20701747,-0.17242849,-0.15660802
20231225 03:43:27,3.799703,-1.189489,-3.992002,-0.111152,-0.100890,0.101821,-11.752708,28.633190,-31.117119,-19.80508,-0.093354225,-4.852785,-5.609375,-0.07845929,0.041709732,0.123678796
20231225 03:43:27,3.589391,-1.115524,-3.246403,-0.551141,-0.026316,-0.080354,-12.122787,28.794010,-31.131294,-11.66383,0.18966544,-3.7840624,-4.946556,-0.44382653,0.17599484,0.33372378
20231225 03:43:27,2.968769,-1.075676,-2.270659,-0.924013,0.025886,-0.263594,-11.901505,28.901787,-30.868202,-3.2680013,0.46083558,-2.5675526,-3.7270153,-0.83097696,0.2364566,0.43808466
20231225 03:43:27,2.164655,-0.970025,-1.200337,-1.181827,0.104722,-0.408481,-11.786758,29.195080,-31.020164,4.8408046,0.78378546,-1.5463514,-2.2340088,-1.1482139,0.2646789,0.42764467
20231225 03:43:27,1.238649,-0.852302,-0.046187,-1.292623,0.210192,-0.511820,-11.805077,29.196930,-31.288414,12.177032,0.941918,-0.9357329,-0.60768074,-1.3389928,0.27258384,0.3047099
20231225 03:43:27,0.130169,-0.793187,1.159338,-1.230833,0.336968,-0.549107,-12.136726,30.296009,-30.693596,18.684023,0.73693013,-0.8218457,1.0885714,-1.347327,0.28911301,0.10158789
20231225 03:43:27,-1.015174,-0.687963,2.341285,-0.998587,0.458418,-0.510754,-11.793541,29.850132,-30.661079,22.528704,0.25810874,-0.9967502,2.6170712,-1.1527674,0.3520882,-0.09464443
20231225 03:43:27,-1.950013,-0.518448,3.210955,-0.635304,0.517012,-0.410612,-12.049644,30.688023,-31.388176,25.12725,-0.24943602,-1.2235165,3.6728833,-0.801022,0.4192726,-0.23518799
20231225 03:43:27,-2.556290,-0.310820,3.723120,-0.228341,0.477594,-0.283835,-11.697495,30.337162,-31.361778,26.228895,-0.61008656,-1.3268193,4.258431,-0.38393873,0.4419897,-0.311417
20231225 03:43:27,-2.772915,-0.177511,3.556449,0.151989,0.342295,-0.140013,-11.370445,30.643208,-31.244514,26.240196,-0.79922473,-1.313526,4.1921515,0.02517172,0.3843467,-0.31588173
20231225 03:43:27,-2.621510,-0.048849,2.791073,0.463070,0.187819,0.003809,-11.537163,30.721771,-30.983376,25.975796,-0.83989835,-1.051685,3.5236244,0.37116435,0.2879675,-0.30774015
20231225 03:43:27,-2.053074,-0.077035,1.574536,0.694251,0.085546,0.135912,-11.573410,30.533581,-31.239388,24.70699,-0.7969118,-0.69844306,2.3749156,0.63278943,0.20154093,-0.32579094
20231225 03:43:27,-1.436106,-0.162210,0.391132,0.855118,0.046128,0.237120,-11.372246,29.701244,-31.317024,22.78005,-0.84469277,-0.42280248,1.23976,0.80227965,0.14421162,-0.38859072
20231225 03:43:27,-0.718522,-0.224194,-0.646198,0.932889,0.045063,0.301041,-11.390175,29.511204,-31.304802,19.899714,-0.9431868,-0.23072441,0.1178107,0.8743323,0.10130577,-0.45629436
20231225 03:43:27,-0.142572,-0.249434,-1.674146,0.936085,0.090873,0.357504,-11.258926,28.860680,-31.261040,16.286165,-1.3652191,-0.2084264,-0.8808291,0.8738111,0.10213925,-0.5115054
20231225 03:43:27,0.468183,-0.229819,-2.534816,0.852988,0.194211,0.428882,-11.735161,29.015118,-31.409813,11.124507,-1.7940714,-0.46378717,-1.8052772,0.86006165,0.17817421,-0.4691975
20231225 03:43:27,1.133163,-0.292783,-2.961997,0.678270,0.297550,0.475758,-11.480591,28.944782,-31.804604,3.709028,-1.7293439,-1.0760651,-2.6303856,0.8309891,0.28544143,-0.28660294
20231225 03:43:27,1.803006,-0.625735,-3.089362,0.440698,0.367863,0.466170,-10.951981,28.226608,-31.484520,-2.7421906,-1.3093437,-1.9480042,-3.3455367,0.72220385,0.37516412,-0.04659736
20231225 03:43:27,2.372199,-1.042473,-2.883320,0.186080,0.405150,0.379876,-11.243561,28.492527,-31.906700,-5.179921,-0.6093128,-2.5797775,-3.7577257,0.50687367,0.43009484,0.14705485
20231225 03:43:27,2.664176,-1.399009,-2.421785,-0.044035,0.405150,0.230728,-11.137787,28.690796,-32.052559,-4.2369637,0.119686246,-2.773777,-3.6540732,0.22045404,0.44622177,0.2228197
20231225 03:43:27,2.633158,-1.779441,-1.762904,-0.199576,0.378517,0.048553,-10.882835,28.428577,-32.166878,-1.4367429,0.7046186,-2.7750492,-3.0364065,-0.04990889,0.4203665,0.1675165
20231225 03:43:27,2.304119,-1.938154,-1.126667,-0.272020,0.340164,-0.141079,-10.707527,28.636921,-32.714622,2.515435,0.9539202,-2.52554,-2.1847787,-0.24965075,0.36467025,0.030983314
20231225 03:43:27,1.777421,-1.879291,-0.720170,-0.263497,0.311400,-0.292358,-10.706375,28.061256,-31.873207,7.09287,0.84795463,-2.1636162,-1.4280945,-0.35188812,0.31433165,-0.113422856
20231225 03:43:27,1.237818,-1.666392,-0.496978,-0.198511,0.301811,-0.386109,-10.670898,28.633224,-32.178123,10.891763,0.619171,-1.7592518,-0.87978935,-0.37581563,0.29547694,-0.23051369
20231225 03:43:27,0.692233,-1.293976,-0.400754,-0.097303,0.298615,-0.413808,-10.371506,29.037991,-32.603493,13.593951,0.28896815,-1.2930063,-0.50056267,-0.3354935,0.29884028,-0.30699283
20231225 03:43:27,0.349508,-0.829331,-0.446061,-0.000356,0.297550,-0.388240,-10.271355,29.315651,-31.548836,15.37387,-0.008090377,-0.8031774,-0.38893852,-0.26595098,0.30889916,-0.33947185
20231225 03:43:27,0.181664,-0.441808,-0.614238,0.064630,0.270916,-0.323253,-10.264961,28.852486,-32.188408,16.137411,-0.27612072,-0.4047354,-0.4619795,-0.19025439,0.2879276,-0.32206526
20231225 03:43:27,0.174561,-0.087895,-0.876740,0.073153,0.216584,-0.245483,-10.265350,29.044369,-32.468864,15.547416,-0.51151603,-0.047160923,-0.69179547,-0.13590854,0.22853835,-0.25580785
20231225 03:43:27,0.323033,0.155293,-1.048396,0.023081,0.154793,-0.176235,-10.292244,28.759312,-32.450523,14.794608,-0.5654954,0.18872723,-0.9453958,-0.11919236,0.159636,-0.15775184
20231225 03:43:27,0.517569,0.327777,-1.092432,-0.055754,0.100461,-0.133621,-10.380470,28.942974,-32.597374,14.050071,-0.47731957,0.34552395,-1.1432976,-0.13809377,0.101413436,-0.060509793
20231225 03:43:27,0.631735,0.452840,-0.924333,-0.137786,0.069566,-0.110184,-10.531075,28.269604,-32.420937,13.606222,-0.25925943,0.44890484,-1.1430035,-0.17399372,0.069603845,0.019153185
20231225 03:43:27,0.763700,0.570993,-0.694907,-0.191054,0.045063,-0.113380,-10.186081,28.765694,-32.315926,12.162906,0.027549744,0.5446096,-1.1041186,-0.21260732,0.046276078,0.05677955
20231225 03:43:27,0.841967,0.649287,-0.419055,-0.208099,0.036540,-0.148536,-10.301590,28.856182,-32.724892,12.193128,0.29408437,0.6263364,-0.98576546,-0.2506188,0.037485104,0.043892674
20231225 03:43:28,0.814784,0.776015,-0.187297,-0.191054,0.057847,-0.181562,-10.513145,28.459644,-32.433159,13.087463,0.44418702,0.76571405,-0.8327855,-0.2627785,0.057897303,0.0036560297
20231225 03:43:28,0.777255,0.896209,0.009762,-0.148440,0.095134,-0.205000,-10.398399,28.752934,-32.585152,13.236381,0.55854225,0.893128,-0.68916494,-0.24964866,0.09490163,-0.050792634
20231225 03:43:28,0.705822,1.005624,0.185841,-0.087715,0.152663,-0.212457,-10.158806,28.858864,-32.053780,13.856119,0.61874723,1.0105749,-0.5440755,-0.21417955,0.15388405,-0.108516365
20231225 03:43:28,0.577070,1.148463,0.332619,-0.020598,0.213388,-0.203934,-10.495979,29.033459,-33.006340,14.729751,0.6196849,1.1531458,-0.38568935,-0.16275027,0.21712358,-0.1638787
20231225 03:43:28,0.487784,1.197668,0.541179,0.039062,0.241087,-0.192215,-10.231674,28.674374,-32.846291,14.8930435,0.69480854,1.1958622,-0.18368217,-0.11158565,0.24707064,-0.20543769
20231225 03:43:28,0.456233,1.214024,0.881992,0.077414,0.189950,-0.195411,-10.451157,29.508556,-33.036903,15.3698435,0.8949491,1.1997334,0.07500589,-0.08286139,0.19884972,-0.22734547
20231225 03:43:28,0.363208,1.175444,1.051552,0.105113,0.095134,-0.222045,-9.659012,28.815071,-33.117729,14.790189,0.93535775,1.1499949,0.28193688,-0.07607059,0.10718026,-0.24708632
20231225 03:43:28,0.382878,1.197044,1.095356,0.158381,0.041867,-0.259332,-10.337837,28.667992,-32.980919,15.946192,0.9763291,1.167193,0.26982826,-0.061953723,0.05922237,-0.2988891
20231225 03:43:28,0.304841,1.343475,1.083225,0.257458,0.079154,-0.295554,-9.826122,29.085518,-33.137047,15.787385,0.898458,1.300474,0.27782017,-0.022077471,0.10791537,-0.3990245
20231225 03:43:28,0.159050,1.515595,1.040419,0.376777,0.169708,-0.314730,-10.170341,28.205650,-32.681114,17.63563,0.73128474,1.4459558,0.26884627,0.03791885,0.21814805,-0.5146607
20231225 03:43:28,-0.040961,1.636078,0.963291,0.477985,0.256002,-0.308338,-10.064186,28.212032,-32.546516,18.731731,0.502238,1.5294166,0.29998085,0.09238717,0.32571968,-0.6033225
20231225 03:43:28,-0.142729,1.800119,0.857326,0.522730,0.293289,-0.272117,-10.003235,27.935204,-32.661797,19.079018,0.3392333,1.6830616,0.25597772,0.13260712,0.36737615,-0.6225908
20231225 03:43:28,-0.077657,1.968923,0.660731,0.490769,0.278374,-0.245483,-10.208389,27.075500,-33.009636,19.527994,0.23776394,1.8740106,0.035429716,0.10901162,0.34579423,-0.5832825
20231225 03:43:28,-0.008501,2.272624,0.279468,0.372516,0.249609,-0.235895,-10.145248,27.548748,-32.771950,20.045057,-0.062384248,2.2112515,-0.3151465,0.019821838,0.31065127,-0.48275232
20231225 03:43:28,-0.219277,2.521163,-0.069665,0.172230,0.234695,-0.232699,-9.687328,27.396156,-32.891426,22.06775,-0.61179966,2.4474933,-0.43929923,-0.11588909,0.29069415,-0.32120883
20231225 03:43:28,-0.684120,2.609618,-0.118999,-0.061081,0.233629,-0.210326,-9.839077,27.298454,-33.556404,24.91355,-1.0735488,2.4205766,-0.20534241,-0.24725735,0.25971514,-0.13012926
20231225 03:43:28,-1.093909,2.604152,0.110422,-0.272020,0.274112,-0.178366,-9.732536,27.112949,-33.141319,26.582664,-1.2497422,2.2250583,0.14397624,-0.37062135,0.24778996,0.024835758
20231225 03:43:28,-1.556719,2.423008,0.678448,-0.397731,0.344425,-0.115510,-9.671970,27.028008,-33.537086,28.011076,-1.2258168,1.7268631,0.75172055,-0.4398085,0.2562773,0.10490148
20231225 03:43:28,-1.922201,1.890184,1.205801,-0.431822,0.442437,0.004874,-9.351303,27.797222,-32.780281,27.185425,-1.1152246,1.0035908,1.4349204,-0.42076007,0.30315217,0.1396259
20231225 03:43:28,-1.827188,1.076295,1.784779,-0.397731,0.517012,0.151892,-9.184963,27.910553,-33.321907,25.252375,-0.61705446,0.2651445,2.0263228,-0.32261848,0.37047493,0.17496839
20231225 03:43:28,-1.357276,0.254763,2.072308,-0.329549,0.538319,0.269080,-8.945751,28.208370,-33.071022,22.536991,-0.022298694,-0.30578727,2.2654066,-0.1983277,0.41997862,0.2206176
20231225 03:43:28,-0.706074,-0.441907,2.134427,-0.262432,0.520208,0.351112,-9.106087,27.823761,-33.449425,20.322504,0.5370336,-0.73722565,2.2062557,-0.09089431,0.44043747,0.26384997
20231225 03:43:28,-0.014860,-1.288625,1.966639,-0.184661,0.494639,0.393726,-8.894154,28.028412,-33.460686,17.574944,0.97718865,-1.3872149,2.0035415,-0.004950285,0.45179304,0.28635886
20231225 03:43:28,0.522515,-2.098616,1.794549,-0.115414,0.464810,0.386269,-8.478867,28.150799,-33.196587,14.85548,1.2815698,-2.1116624,1.8401703,0.04643452,0.44822136,0.27915192
20231225 03:43:28,1.010148,-2.745868,1.595662,-0.066408,0.446699,0.320217,-8.224293,28.080467,-33.591377,12.770239,1.5564647,-2.740202,1.6185529,0.057231985,0.44369537,0.2227894
20231225 03:43:28,1.317296,-3.209971,1.393410,-0.007814,0.469071,0.204094,-7.872528,27.921494,-33.845451,11.514126,1.7135506,-3.2131977,1.4257145,0.064057946,0.4694041,0.1024794
20231225 03:43:28,1.310914,-3.484623,1.306195,0.064630,0.496770,0.060272,-7.766373,27.927876,-33.710838,12.6453085,1.7014498,-3.4677913,1.4693444,0.0778278,0.4974891,-0.068960205
20231225 03:43:28,1.017032,-3.419994,1.236336,0.130682,0.503162,-0.079289,-7.493488,27.855694,-33.837379,14.632486,1.484713,-3.3749015,1.5511034,0.07990507,0.5127345,-0.2373415
20231225 03:43:28,0.459619,-2.992270,1.134870,0.169034,0.464810,-0.170908,-7.554440,28.132526,-33.722099,17.917751,1.0832981,-2.9664109,1.6198149,0.051956154,0.49386117,-0.3484008
20231225 03:43:28,-0.138304,-2.272553,1.032674,0.166903,0.379582,-0.181562,-7.317413,27.680267,-33.824181,20.146399,0.60733294,-2.35336,1.599178,0.019994318,0.4212886,-0.344342
20231225 03:43:28,-0.450325,-1.637486,0.809119,0.132812,0.257067,-0.155994,-6.874847,27.895824,-33.297966,20.653315,0.27414575,-1.791233,1.3646588,-0.00620196,0.29837388,-0.27079868
20231225 03:43:28,-0.626047,-1.029978,0.474173,0.058238,0.159055,-0.117641,-7.317799,27.872154,-34.104652,22.630589,-0.047861338,-1.2139639,1.0428182,-0.048867248,0.18628913,-0.17071909
20231225 03:43:28,-0.786842,-0.521170,0.159192,-0.058950,0.089807,-0.068635,-6.938370,27.614464,-33.816109,23.173086,-0.40726057,-0.71827495,0.7712342,-0.10490562,0.084605455,-0.03858181
20231225 03:43:28,-0.933427,-0.168208,0.094247,-0.187857,0.066370,-0.010041,-7.123409,27.694874,-33.823204,24.034945,-0.61791825,-0.41501635,0.72194946,-0.16359134,0.017249681,0.09398134
20231225 03:43:28,-1.016813,-0.001973,0.148263,-0.282673,0.123898,0.058141,-6.744751,27.820965,-34.095619,23.66747,-0.6938983,-0.29507345,0.75344586,-0.20923021,0.03166713,0.18291101
20231225 03:43:28,-1.149896,-0.072622,0.467803,-0.329549,0.214453,0.134846,-7.008667,27.988163,-33.975166,24.018133,-0.6369652,-0.46813276,1.0577192,-0.22936279,0.08750306,0.22729729
20231225 03:43:28,-1.274086,-0.297229,1.113313,-0.321026,0.274112,0.216878,-6.981773,28.273224,-33.993507,23.42172,-0.42991114,-0.8129111,1.6530235,-0.20244955,0.13731451,0.25197902
20231225 03:43:28,-1.290556,-0.612854,1.735636,-0.244321,0.244283,0.297845,-6.823627,27.907753,-33.968086,22.766453,-0.17208141,-1.176712,2.2388144,-0.10201271,0.12599158,0.27952713
20231225 03:43:28,-1.138749,-0.945054,2.029192,-0.116479,0.149467,0.366027,-6.663681,28.484249,-33.870155,21.36743,0.07108742,-1.4450293,2.5061486,0.04881634,0.06840995,0.30702874
20231225 03:43:28,-0.852682,-1.277673,1.975456,0.042258,0.042932,0.406510,-6.347778,27.945202,-34.099770,19.795057,0.3217011,-1.6453974,2.4190729,0.22202884,0.0039337203,0.30226305
20231225 03:43:28,-0.426336,-1.447189,1.510064,0.206321,-0.036969,0.417164,-6.763062,27.822815,-34.363853,18.678247,0.5189657,-1.6457019,1.8528049,0.38693756,-0.04237482,0.24893379
20231225 03:43:28,-0.035041,-1.572779,0.804141,0.342686,-0.079583,0.397987,-6.772026,27.727795,-34.357735,17.514032,0.5443848,-1.6298554,1.0675498,0.5063697,-0.0642381,0.1583797
20231225 03:43:28,0.201139,-1.620527,0.100514,0.440698,-0.097694,0.363896,-6.648323,28.116100,-34.515831,16.382448,0.37667775,-1.5798525,0.3384403,0.5761013,-0.07081305,0.05627109
20231225 03:43:28,0.385475,-1.599933,-0.552320,0.509945,-0.081714,0.334067,-6.250580,27.856564,-33.959038,15.009069,0.11548403,-1.48532,-0.3310997,0.6127529,-0.051334467,-0.04272762
20231225 03:43:28,0.565795,-1.602331,-1.038704,0.556821,-0.045492,0.293583,-6.438576,27.570675,-34.880043,14.524561,-0.09748477,-1.4380522,-0.8264807,0.6162965,-0.013588516,-0.13695522
20231225 03:43:28,0.665240,-1.573283,-1.515520,0.577062,-0.001813,0.238185,-6.577641,27.550514,-34.076302,14.950237,-0.39311892,-1.3402699,-1.2261078,0.5815023,0.0346124,-0.22880132
20231225 03:43:28,0.582173,-1.445909,-1.781694,0.553625,0.018429,0.183852,-6.825813,27.157677,-34.321053,16.622103,-0.66054475,-1.1361707,-1.3239938,0.51603234,0.06270189,-0.2730521
20231225 03:43:28,0.392928,-1.310569,-1.920264,0.483312,-0.027381,0.141239,-6.570862,26.895458,-34.435387,17.864367,-0.9077553,-0.93742156,-1.2600371,0.43494815,0.019949885,-0.25584915
20231225 03:43:28,0.255205,-1.094970,-1.983355,0.368254,-0.121132,0.114605,-6.509525,26.426743,-34.270195,19.285515,-1.0893383,-0.6693659,-1.1846057,0.34750775,-0.08080315,-0.18031763
20231225 03:43:28,0.122052,-0.863743,-2.122688,0.228694,-0.210621,0.107147,-6.606720,26.515377,-34.410927,20.228933,-1.3400946,-0.3947227,-1.1663177,0.2666809,-0.18778455,-0.06728092
20231225 03:43:28,0.084330,-0.692484,-2.260296,0.082741,-0.261758,0.111409,-6.598141,26.802288,-34.697502,20.258451,-1.5331372,-0.19382226,-1.2183193,0.1892317,-0.2625342,0.05408804
20231225 03:43:28,0.105904,-0.606925,-2.388998,-0.069604,-0.255366,0.113539,-6.906498,26.302502,-34.266029,20.520023,-1.6565292,-0.09145081,-1.3074777,0.09679757,-0.28052136,0.1737794
20231225 03:43:28,0.119457,-0.544563,-2.307220,-0.207034,-0.181857,0.114605,-6.606339,26.323494,-34.130455,19.11064,-1.590793,-0.09673947,-1.3335265,-0.007837057,-0.22712934,0.26648906
20231225 03:43:28,0.200927,-0.547367,-1.953657,-0.314634,-0.083845,0.103951,-6.676636,26.697189,-34.289513,17.513258,-1.2324172,-0.224323,-1.2671893,-0.11750287,-0.13775456,0.31891897
20231225 03:43:28,0.182448,-0.645679,-1.396102,-0.393470,-0.002878,0.065599,-6.976799,26.676197,-34.425117,17.790154,-0.7508065,-0.42125928,-0.9309354,-0.23299521,-0.0648388,0.32251474
20231225 03:43:28,-0.012203,-0.659234,-0.638195,-0.439280,0.020560,0.011266,-6.535004,27.275536,-34.459831,17.834236,-0.33115852,-0.56099796,-0.29746974,-0.32636234,-0.049251627,0.29231596
20231225 03:43:28,-0.312433,-0.666879,0.053199,-0.453129,-0.023120,-0.038805,-7.250065,26.940266,-34.579033,19.592834,-0.121723644,-0.7114412,0.40868366,-0.37521064,-0.09479392,0.25930536
20231225 03:43:28,-0.485772,-0.616239,0.570072,-0.419038,-0.094498,-0.080354,-7.213440,26.936565,-34.042549,20.0803,0.030838192,-0.7668464,0.88891447,-0.36872983,-0.15734664,0.21787207
20231225 03:43:28,-0.648963,-0.546866,0.841773,-0.340202,-0.155223,-0.114445,-7.001888,27.333107,-34.334267,20.227886,0.037789613,-0.7755375,1.173176,-0.3180206,-0.20018052,0.1579599
20231225 03:43:28,-0.813831,-0.543169,0.912386,-0.227275,-0.189314,-0.131491,-6.799305,27.634624,-34.619881,20.356358,-0.055381358,-0.82498705,1.3233833,-0.2306518,-0.20977835,0.08778511
20231225 03:43:28,-0.816647,-0.521614,0.770694,-0.083453,-0.174399,-0.130425,-7.197048,27.894161,-35.176659,20.6673,-0.12144229,-0.7834422,1.2146876,-0.1165424,-0.16583325,0.002210915
20231225 03:43:28,-0.698002,-0.403108,0.551095,0.073153,-0.105152,-0.118706,-7.257229,27.787216,-34.500420,20.277662,-0.1527501,-0.6050374,0.9484413,0.0012283847,-0.07054649,-0.10416379
20231225 03:43:28,-0.553639,-0.284326,0.381492,0.220171,-0.032708,-0.110184,-7.205627,27.607254,-34.890068,19.473684,-0.14805135,-0.42690906,0.7032623,0.10554196,0.02175678,-0.21213979
20231225 03:43:28,-0.357967,-0.238172,0.210413,0.339490,-0.012466,-0.106988,-7.232906,27.514084,-35.152199,18.804485,-0.10278608,-0.31815156,0.44306058,0.18945318,0.055967823,-0.29601616
20231225 03:43:28,-0.188630,-0.144791,-0.034209,0.416195,-0.050819,-0.114445,-6.684181,27.736023,-34.491386,17.41378,-0.14187388,-0.16453537,0.13605818,0.235749,0.02521494,-0.35183784
20231225 03:43:28,-0.068161,-0.008242,-0.310312,0.443894,-0.148831,-0.140013,-7.320370,27.313969,-34.738091,18.193913,-0.26332542,0.025575269,-0.15683238,0.23479918,-0.06587048,-0.37665597
20231225 03:43:28,-0.027998,0.244641,-0.731965,0.417260,-0.285195,-0.169843,-7.038517,27.336807,-34.870750,17.896458,-0.5943545,0.34482646,-0.48766536,0.19218223,-0.20008501,-0.36253804
20231225 03:43:28,0.076500,0.475860,-1.208955,0.367189,-0.383207,-0.192215,-7.401436,26.650681,-34.963554,18.450218,-0.96191525,0.66268384,-0.8574961,0.13610648,-0.30188882,-0.32722265
20231225 03:43:28,0.193615,0.722548,-1.612643,0.312856,-0.405580,-0.228437,-7.453804,27.214420,-35.134834,17.853382,-1.3022941,0.9737887,-1.1588817,0.054600254,-0.33156246,-0.31022713
20231225 03:43:28,0.253985,0.989681,-1.963707,0.256393,-0.302241,-0.282770,-7.250065,26.940266,-34.579033,18.921324,-1.6462705,1.3409306,-1.3987521,-0.039461955,-0.21684715,-0.30733487
20231225 03:43:28,-0.017833,1.401791,-1.809319,0.203125,-0.165876,-0.325384,-7.655621,26.529121,-34.288277,22.330412,-1.7786173,1.7541518,-1.2016445,-0.11209069,-0.05636332,-0.30066574
20231225 03:43:28,-0.483149,1.621048,-1.406378,0.148793,-0.048688,-0.318992,-7.646656,26.624142,-34.294395,24.258184,-1.7729129,1.8053007,-0.764326,-0.14352962,0.062416155,-0.2802708
20231225 03:43:28,-0.903147,1.666261,-0.691102,0.105113,-0.014597,-0.269986,-7.648846,25.874065,-34.647377,25.199226,-1.5036615,1.5593877,-0.14857128,-0.12650837,0.07744402,-0.23228408
20231225 03:43:28,-1.150872,1.670743,-0.037900,0.056107,-0.087041,-0.199673,-7.964748,26.413109,-34.417763,25.484758,-1.2113144,1.3274261,0.3486161,-0.08050272,-0.020172916,-0.13738415
20231225 03:43:28,-1.246901,1.450935,0.443840,-0.005683,-0.243647,-0.128295,-8.043629,26.499901,-34.290230,24.600058,-0.8934331,1.0081856,0.7514199,-0.03685462,-0.20417093,-0.0065800473
20231225 03:43:28,-1.076612,1.125053,0.657565,-0.053624,-0.408776,-0.083550,-7.922112,26.138134,-34.801292,22.7939,-0.5376866,0.74945146,0.8764913,-0.016828943,-0.38791057,0.095591255
20231225 03:43:28,-0.661204,0.897696,0.696751,-0.048297,-0.484415,-0.096334,-7.940041,25.948093,-34.789070,20.535515,-0.13697878,0.66527855,0.70310307,-0.026041925,-0.46546662,0.090808205
20231225 03:43:28,-0.362266,0.834700,0.689200,0.029474,-0.426887,-0.186889,-8.124695,25.836617,-34.515694,20.141678,0.09528154,0.665196,0.51042676,-0.046032093,-0.386706,-0.040961273
20231225 03:43:28,-0.414259,1.026843,0.658422,0.179688,-0.241516,-0.312600,-8.301540,26.395824,-35.089836,21.243841,-0.0012140274,0.8249692,0.464858,-0.051615626,-0.15497327,-0.27103475
20231225 03:43:28,-0.880614,1.495842,0.798952,0.361862,-0.006074,-0.431919,-8.379650,26.098835,-34.401375,24.873468,-0.38497514,1.0622784,0.7050853,-0.04836467,0.16598149,-0.53043234
20231225 03:43:28,-1.738608,2.342012,0.990375,0.541906,0.188885,-0.469206,-8.203960,26.115295,-34.668633,29.298113,-1.1890849,1.3676422,1.1149337,-0.01943484,0.46188235,-0.7382476
20231225 03:43:28,-2.641521,3.480559,0.973223,0.672944,0.299681,-0.366933,-7.940041,25.948093,-34.789070,32.94843,-2.3286374,1.8529439,1.367899,0.063379124,0.60815096,-0.8191484
20231225 03:43:28,-3.259453,4.569374,0.869124,0.677205,0.258132,-0.131491,-7.993446,25.186089,-34.471931,35.44359,-3.2974653,2.4774182,1.4440969,0.20754606,0.4894358,-0.6959426
20231225 03:43:28,-3.208184,5.057244,0.601897,0.518468,0.077023,0.159349,-7.871929,24.824322,-34.982979,35.03252,-3.5580826,3.1237853,1.252708,0.37577146,0.15171513,-0.37591526
20231225 03:43:28,-2.533676,4.953349,0.252187,0.223367,-0.171203,0.410772,-7.896252,25.097446,-34.331200,30.93217,-2.9926972,3.7715468,0.8550688,0.49431986,-0.25090668,0.05264063
20231225 03:43:28,-1.355044,4.212910,0.033657,-0.109022,-0.315025,0.572705,-7.914566,25.099297,-34.599434,24.115984,-1.7518849,3.7995002,0.18531775,0.47099727,-0.45828098,0.45303452
20231225 03:43:28,-0.289737,3.124066,0.358170,-0.393470,-0.306502,0.654736,-8.153782,24.801479,-34.850334,17.994846,-0.28109282,3.015153,-0.15889567,0.30182922,-0.42007476,0.7530507
20231225 03:43:28,0.362252,1.665899,0.907712,-0.596951,-0.165876,0.690958,-8.133659,25.741596,-34.509575,14.718936,0.79191875,1.6285243,0.07397044,0.06088218,-0.24207981,0.92555404
20231225 03:43:28,0.504701,0.192498,1.907033,-0.692833,0.010971,0.725049,-7.578926,25.692257,-34.768776,14.036312,1.4852583,0.14292938,1.2001867,-0.16176352,-0.06151709,0.9699447
20231225 03:43:28,0.318159,-1.352877,3.055847,-0.725858,0.074892,0.770859,-7.515789,26.165504,-34.531105,15.440324,1.6179972,-1.4340396,2.8655303,-0.33838865,-0.010457518,0.96127605
20231225 03:43:28,0.071053,-2.784889,4.140977,-0.700290,-0.041231,0.793232,-7.861164,25.861305,-34.916603,17.238611,1.3192701,-2.86823,4.5585713,-0.4428407,-0.11558035,0.9384774
20231225 03:43:28,0.119084,-3.919890,4.836051,-0.556468,-0.292653,0.790036,-7.912762,26.041264,-34.526939,16.938044,1.15768,-3.9641645,5.6200447,-0.3785866,-0.3330284,0.9376138
20231225 03:43:28,0.486270,-4.628530,4.882009,-0.274151,-0.588820,0.738899,-8.007767,26.879978,-34.314690,14.60149,1.2988367,-4.6319056,5.728561,-0.14654195,-0.59312254,0.897014
20231225 03:43:28,1.021266,-4.954288,3.892833,0.102983,-0.772060,0.640887,-8.017117,26.976849,-34.589058,10.315594,1.679811,-4.9617176,4.4412193,0.21303026,-0.76968277,0.7357445
20231225 03:43:28,1.655301,-4.654924,2.226992,0.486508,-0.748622,0.522633,-8.431633,26.470684,-34.292183,5.3127446,2.0151656,-4.745818,2.0753746,0.5812688,-0.787585,0.42890745
20231225 03:43:28,2.217836,-3.962324,0.369191,0.770956,-0.527029,0.390530,-8.662266,26.459774,-34.829659,-2.586287,1.6476171,-4.323124,-0.79927707,0.79012334,-0.6556257,-0.007799417
20231225 03:43:28,2.894843,-3.103538,-1.048410,0.905190,-0.208490,0.231793,-8.495544,26.381214,-35.090813,-9.220592,1.0401282,-4.053097,-2.9344811,0.8073558,-0.4384728,-0.37011227
20231225 03:43:28,3.030122,-2.203969,-2.097490,0.858314,0.094069,0.074122,-8.785973,26.071465,-34.671562,-11.664414,0.012334347,-3.6643517,-3.9168148,0.67429566,-0.17666674,-0.5551834
20231225 03:43:28,2.827381,-1.369906,-2.766474,0.590912,0.314596,-0.054786,-8.336628,25.631969,-34.504448,-10.771461,-0.74960566,-2.9925482,-4.049989,0.4317428,0.099096075,-0.46768963
20231225 03:43:28,2.270687,-0.876037,-2.716094,0.136008,0.366798,-0.141079,-8.151974,25.743446,-34.777809,-2.7641904,-0.96725595,-1.8487091,-3.458084,0.055572204,0.29605085,-0.18249848
20231225 03:43:29,1.464821,-0.825155,-2.088144,-0.425430,0.231498,-0.167712,-8.116501,26.315414,-35.082741,5.905123,-0.70045054,-1.0743079,-2.405573,-0.38478434,0.24501875,0.20124345
20231225 03:43:29,0.844249,-1.082144,-1.088847,-0.954908,-0.000747,-0.147471,-7.904949,26.711948,-35.374474,10.36909,-0.090607285,-1.080377,-1.2158065,-0.8120033,-0.0015511236,0.5255873
20231225 03:43:29,0.444240,-1.488737,0.102338,-1.283035,-0.168007,-0.106988,-8.309082,27.434658,-35.291695,12.411696,0.44938478,-1.4792116,0.09991182,-1.120996,-0.19670422,0.6604276
20231225 03:43:29,0.389219,-1.894391,1.382495,-1.340564,-0.223405,-0.091007,-7.987385,29.529621,-35.023323,11.523598,0.99779356,-1.899339,1.359128,-1.230002,-0.24409594,0.5778073
20231225 03:43:29,0.445849,-2.310354,2.515180,-1.147736,-0.214882,-0.124033,-8.158100,27.916138,-35.187645,12.391147,1.3924073,-2.317621,2.552595,-1.1057912,-0.22841656,0.37300238
20231225 03:43:29,0.432405,-2.576714,3.132278,-0.759949,-0.138177,-0.194346,-8.287815,27.799107,-34.109535,13.049857,1.5596467,-2.5889359,3.2259977,-0.7776575,-0.14902267,0.12959455
20231225 03:43:29,0.411787,-2.393029,3.198064,-0.302915,0.000318,-0.295554,-8.262074,28.659836,-34.969276,12.74959,1.6611183,-2.4126585,3.1892188,-0.39490312,-0.0033941285,-0.14548448
20231225 03:43:29,0.233878,-1.854456,2.926349,0.105113,0.120702,-0.415939,-8.473236,28.071407,-34.397087,14.862284,1.5845413,-1.9232533,2.8407223,-0.09762088,0.13883094,-0.43368652
20231225 03:43:29,-0.248799,-1.246244,2.274739,0.395953,0.180362,-0.495840,-8.333405,27.707790,-34.639915,17.179321,1.0524467,-1.4151186,2.295504,0.06784117,0.25508282,-0.65629244
20231225 03:43:29,-0.698246,-0.710061,1.412683,0.553625,0.216584,-0.515016,-8.369652,27.519600,-34.895927,19.726862,0.32888317,-0.96283007,1.6803217,0.12687889,0.35562938,-0.77669436
20231225 03:43:29,-1.038916,-0.265728,0.844151,0.627134,0.214453,-0.477729,-8.014931,27.726933,-34.236076,21.48279,-0.25303656,-0.5874556,1.3395684,0.16376069,0.40206382,-0.800972
20231225 03:43:29,-1.328260,-0.027592,0.374481,0.651637,0.157989,-0.377586,-8.017117,26.976849,-34.589058,23.734951,-0.74986184,-0.3914966,1.1467751,0.21659589,0.36799568,-0.7387401
20231225 03:43:29,-1.392329,0.019555,-0.176801,0.639918,0.075958,-0.232699,-8.008152,27.071869,-34.595161,24.306957,-1.1197002,-0.2527406,0.8492491,0.28819346,0.26477787,-0.6205406
20231225 03:43:29,-1.187943,0.026469,-0.757214,0.593043,-0.017793,-0.073962,-8.107151,26.218544,-34.808388,24.015902,-1.3441182,-0.049480096,0.39281762,0.35550663,0.11816113,-0.47569552
20231225 03:43:29,-0.733542,-0.085593,-1.354857,0.506749,-0.101955,0.070926,-8.028271,26.131752,-34.935921,21.288893,-1.4660723,0.054165557,-0.21864814,0.39453685,-0.03528902,-0.32502833
20231225 03:43:29,-0.161121,-0.241899,-1.931649,0.391692,-0.154158,0.176395,-7.639881,25.969082,-34.653481,16.291397,-1.6024672,-0.04006584,-0.9401315,0.3914022,-0.13988195,-0.18653813
20231225 03:43:29,0.508179,-0.377987,-2.336193,0.258523,-0.159484,0.236055,-7.728107,26.152744,-34.800316,10.379725,-1.6281277,-0.3632459,-1.688224,0.3421638,-0.15979195,-0.06376584
20231225 03:43:29,1.053553,-0.499897,-2.528779,0.123224,-0.117936,0.236055,-8.082829,25.945412,-35.460167,4.802206,-1.5057025,-0.81961524,-2.2817795,0.2510014,-0.10219867,0.039150648
20231225 03:43:29,1.511187,-0.621530,-2.531258,0.001774,-0.039100,0.182787,-7.825684,26.433270,-35.221504,1.141432,-1.1891053,-1.1751623,-2.7147624,0.13899864,-0.01029041,0.10800542
20231225 03:43:29,1.715014,-0.731855,-2.309198,-0.095172,0.049324,0.090102,-7.631298,26.255993,-34.940071,0.6087678,-0.80515254,-1.2932975,-2.777985,0.016976725,0.07435505,0.13028952
20231225 03:43:29,1.620206,-0.741684,-1.913946,-0.163354,0.132421,-0.003649,-7.789059,26.429569,-34.685020,4.413826,-0.44519258,-1.0487633,-2.436594,-0.09716568,0.1443832,0.11445011
20231225 03:43:29,1.173650,-0.593585,-1.310482,-0.199576,0.180362,-0.062243,-7.516560,26.549282,-35.092049,8.611229,-0.16677624,-0.63685787,-1.6814868,-0.17845955,0.18254918,0.0853834
20231225 03:43:29,0.707621,-0.395812,-0.628781,-0.196380,0.168643,-0.076092,-7.479931,26.545582,-34.555550,11.815288,0.07340869,-0.3542426,-0.87757576,-0.19824216,0.16473076,0.060610592
20231225 03:43:29,0.372744,-0.244898,-0.246918,-0.155897,0.111114,-0.057982,-7.225361,26.475246,-34.950340,13.143296,0.10843395,-0.208798,-0.3926267,-0.15814927,0.10504578,0.05046561
20231225 03:43:29,0.133227,-0.069139,-0.138025,-0.094107,0.055716,-0.002583,-7.013428,26.679897,-34.961601,14.200831,0.0029534698,-0.04742883,-0.1768083,-0.072834305,0.04817739,0.054973934
20231225 03:43:29,0.048757,0.034405,-0.235955,-0.035513,0.009906,0.078383,-7.489281,26.642452,-34.829903,14.548799,-0.13822164,0.055759445,-0.19925343,0.030920714,0.0012812247,0.07642256
20231225 03:43:29,0.192697,0.116539,-0.531066,-0.000356,-0.006074,0.157219,-7.004463,26.774918,-34.967705,12.266612,-0.26937777,0.15308072,-0.5078057,0.11631914,-0.014282496,0.104259335
20231225 03:43:29,0.519724,0.148269,-0.811723,0.000709,0.013102,0.215813,-7.243290,26.285210,-34.938118,9.907898,-0.2675739,0.1581255,-0.93513954,0.16243699,0.011428235,0.13835098
20231225 03:43:29,0.877361,0.055531,-0.881491,-0.016336,0.040801,0.236055,-6.968220,26.963104,-34.711693,7.0806336,-0.069422364,0.0021459348,-1.2417066,0.16615453,0.048785374,0.16503319
20231225 03:43:29,1.130301,-0.030930,-0.820555,-0.031251,0.064239,0.215813,-6.961826,26.499935,-35.351250,5.224306,0.17377019,-0.14305851,-1.3816569,0.13947964,0.0786621,0.16571051
20231225 03:43:29,1.323447,-0.197368,-0.707991,-0.038709,0.056781,0.164676,-7.056446,27.146767,-34.858513,4.6737366,0.4040953,-0.33601853,-1.4294128,0.09444209,0.07066345,0.13897316
20231225 03:43:29,1.399702,-0.336017,-0.529460,-0.052558,0.019494,0.081579,-7.031738,26.681747,-35.229836,4.4458485,0.595561,-0.47238076,-1.3435138,0.021458529,0.028984915,0.09363945
20231225 03:43:29,1.361651,-0.257659,-0.469685,-0.054689,-0.018858,-0.007910,-6.968220,26.963104,-34.711693,4.896637,0.603752,-0.3742825,-1.2839142,-0.045171943,-0.01579606,0.034619592
20231225 03:43:29,1.210446,-0.011760,-0.455454,-0.040839,-0.013532,-0.076092,-6.738358,27.357796,-34.735161,6.2012424,0.49627474,-0.07577089,-1.1916103,-0.083892055,-0.015030332,-0.020988537
20231225 03:43:29,0.913921,0.280603,-0.454345,-0.020598,0.018429,-0.103792,-6.925968,26.880016,-35.375710,9.151744,0.27803534,0.28594756,-1.0078464,-0.09069632,0.0187822,-0.055717085
20231225 03:43:29,0.557111,0.587745,-0.308246,-0.001422,0.046128,-0.082485,-6.723000,26.989643,-35.380836,10.887729,0.11980052,0.61699235,-0.69108367,-0.06409148,0.049090877,-0.05871813
20231225 03:43:29,0.360833,0.813686,-0.223271,0.011363,0.052520,-0.039871,-6.174274,27.211582,-34.720009,10.668531,0.032928333,0.8364578,-0.5151981,-0.024861459,0.05466642,-0.040730566
20231225 03:43:29,0.329828,1.059600,-0.180810,0.010297,0.055716,0.003809,-6.616837,26.996025,-35.246223,11.185461,0.030042022,1.0786251,-0.4996611,0.007080372,0.055844214,-0.012419933
20231225 03:43:29,0.355857,1.149582,-0.184296,-0.007814,0.058912,0.038965,-6.484169,27.479351,-35.410423,10.599196,0.044675037,1.1673802,-0.5254365,0.022233555,0.057017997,0.023746679
20231225 03:43:29,0.461822,1.094793,-0.244056,-0.029121,0.101526,0.052815,-6.414253,27.297543,-35.531837,9.836216,0.087206796,1.1120124,-0.62895703,0.018022545,0.0992795,0.04472296
20231225 03:43:29,0.563534,1.002703,-0.014889,-0.009944,0.186754,0.051749,-6.192589,27.213432,-34.988258,8.503099,0.35992146,1.0071721,-0.52633137,0.029948834,0.18621905,0.023222696
20231225 03:43:29,0.752586,0.853884,0.213866,0.033735,0.254936,0.022985,-6.077461,27.314835,-34.859749,8.041689,0.67513674,0.8553868,-0.4757343,0.039244153,0.25496256,-0.033195224
20231225 03:43:29,0.708860,0.592863,0.476485,0.068891,0.280504,-0.035609,-5.901772,27.331295,-35.127022,8.634293,0.82993835,0.5965206,-0.22553378,0.019669358,0.28208923,-0.10342501
20231225 03:43:29,0.524351,0.579415,0.669021,0.090198,0.257067,-0.092073,-5.892807,27.426315,-35.133141,10.009178,0.819664,0.5741374,0.03997329,-0.00792928,0.2635162,-0.1601235
20231225 03:43:29,0.276982,0.650985,0.838457,0.122159,0.205930,-0.129360,-5.496220,27.742435,-35.417778,11.157126,0.73832875,0.61330914,0.308213,-0.0147879645,0.2212682,-0.20479694
20231225 03:43:29,0.040823,0.825214,0.808905,0.173296,0.173970,-0.127229,-5.161617,27.009655,-35.098671,11.527549,0.53488594,0.7632244,0.41594326,0.020522922,0.19549178,-0.23525086
20231225 03:43:29,0.025087,1.019112,0.730415,0.204191,0.161186,-0.121902,-5.443848,27.178699,-35.246468,11.784263,0.46737,0.95938075,0.32976753,0.039715014,0.18436982,-0.25299162
20231225 03:43:29,0.172044,1.421618,0.533663,0.259589,0.110049,-0.122968,-5.401215,26.903721,-35.630013,10.552158,0.42964527,1.3937862,0.041827083,0.06961984,0.1306145,-0.2887936
20231225 03:43:29,0.402208,2.013525,0.275842,0.223367,0.054651,-0.143209,-5.577290,27.079147,-35.643211,9.734257,0.36981302,2.01151,-0.36188754,0.018571503,0.068947695,-0.2688474
20231225 03:43:29,0.548349,2.505235,-0.014283,0.106179,-0.001813,-0.182627,-5.189281,27.108368,-35.641258,9.395759,0.17325024,2.5202153,-0.6915492,-0.08996853,0.011012459,-0.1894039
20231225 03:43:29,0.442940,2.912343,-0.411534,0.018820,-0.008205,-0.205000,-5.515568,26.418545,-35.197563,10.510082,-0.2764039,2.947478,-0.88501185,-0.15981404,0.0050780335,-0.12585707
20231225 03:43:29,0.180807,3.033393,-0.471787,-0.294392,0.145205,-0.252940,-4.898083,27.034340,-35.499565,12.515923,-0.6296045,3.072193,-0.77572095,-0.38888308,0.14996071,0.0880598
20231225 03:43:29,-0.209355,2.872940,0.336783,-0.495743,0.327380,-0.258267,-4.941105,27.501209,-35.396507,14.699967,-0.29081494,2.7499435,-0.105048284,-0.5621284,0.29777515,0.15772782
20231225 03:43:29,-0.864427,2.032306,1.868859,-0.596951,0.433915,-0.222045,-4.904858,27.689400,-35.140480,16.580898,0.21300793,1.5632997,1.4836655,-0.6591438,0.35216343,0.124679565
20231225 03:43:29,-1.434178,0.866157,3.400655,-0.563925,0.454156,-0.134687,-4.374451,27.913185,-34.747902,16.558392,0.45993054,0.14569318,3.3117661,-0.60215366,0.34932902,0.08460867
20231225 03:43:29,-1.558749,-0.196891,4.620444,-0.420103,0.416869,-0.030283,-4.252930,27.551418,-35.258949,16.641582,0.6057062,-0.9374456,4.7115927,-0.43002772,0.32798272,0.05177925
20231225 03:43:29,-1.500742,-1.255859,5.226552,-0.183596,0.273047,0.061337,-4.162903,28.309723,-35.039619,16.05525,0.6053959,-1.9033257,5.542915,-0.16856578,0.22844626,0.052913148
20231225 03:43:29,-1.245253,-2.113431,5.184371,0.106179,0.065304,0.140173,-3.926258,28.049351,-35.422188,15.136833,0.67589045,-2.6059723,5.650835,0.1424759,0.073743604,0.075525165
20231225 03:43:29,-0.800300,-2.586243,4.353860,0.383169,-0.134981,0.214748,-4.048161,28.603012,-35.191597,13.121717,0.87417376,-2.8824759,4.8047905,0.43982208,-0.09299306,0.09179121
20231225 03:43:29,-0.001432,-2.836229,3.075549,0.607958,-0.262823,0.271211,-3.943806,27.667423,-35.129478,9.240855,1.2403176,-2.9092076,3.2286398,0.67197806,-0.23109868,0.0550545
20231225 03:43:29,0.911631,-2.990055,1.581296,0.720884,-0.311829,0.256296,-3.980049,27.479233,-35.385506,3.786983,1.4729869,-2.9920118,1.1802033,0.75419927,-0.33108667,-0.07523282
20231225 03:43:29,1.715035,-2.810923,0.282509,0.686793,-0.304372,0.161480,-3.785660,27.301956,-35.104057,-1.7019364,1.3835233,-2.9667838,-0.7511723,0.64229715,-0.37145388,-0.23941554
20231225 03:43:29,1.978934,-2.609786,-0.257803,0.533383,-0.258562,0.014462,-4.191982,27.274586,-35.374260,-4.569975,1.0358531,-2.9140568,-1.6014729,0.39012533,-0.33962896,-0.33875504
20231225 03:43:29,2.280433,-1.921552,-1.407273,0.305399,-0.159484,-0.158124,-3.830482,26.826859,-35.073494,-5.007578,0.392361,-2.4408894,-2.7142687,0.087860204,-0.22678308,-0.3356649
20231225 03:43:29,1.919053,-1.386439,-1.567315,0.047584,-0.022054,-0.328580,-4.097359,26.627758,-35.866966,0.37833008,0.07024467,-1.6375921,-2.465592,-0.20738727,-0.050616726,-0.2594508
20231225 03:43:29,1.094150,-0.914617,-1.141048,-0.187857,0.108983,-0.456422,-4.379208,26.604923,-35.734322,9.158493,0.015915692,-0.79294693,-1.4674008,-0.4607088,0.12302342,-0.19746798
20231225 03:43:29,-0.068752,-0.592398,-0.311686,-0.354052,0.201669,-0.508624,-4.279823,27.266357,-35.240608,16.06164,-0.1628587,-0.5408276,-0.055449173,-0.6245314,0.21333596,-0.17074163
20231225 03:43:29,-1.062914,-0.358483,0.542558,-0.426495,0.269851,-0.479859,-4.201332,27.371456,-35.648613,20.09021,-0.4420814,-0.70920813,1.1563901,-0.6700822,0.24481322,-0.16039795
20231225 03:43:29,-1.953184,-0.165083,1.401917,-0.424365,0.293289,-0.441507,-3.707165,27.407055,-35.512047,21.024529,-0.736351,-0.98989856,2.2671509,-0.64924324,0.24938616,-0.15838234
20231225 03:43:29,-2.521474,-0.096338,2.091346,-0.279477,0.305008,-0.240156,-3.804741,27.687580,-35.933250,23.483244,-1.0205823,-1.3664279,3.0230215,-0.4210006,0.24109408,-0.13085064
20231225 03:43:29,-2.796838,-0.205995,2.388754,-0.115414,0.234695,-0.057982,-3.495228,27.611706,-35.523293,23.117237,-1.1392472,-1.6147023,3.4222274,-0.17527203,0.19001244,-0.060924567
20231225 03:43:29,-2.609257,-0.432106,2.299084,0.055042,0.128160,0.117801,-3.476913,27.609856,-35.255043,21.852362,-0.96175957,-1.6599863,3.3385475,0.08014993,0.11302982,0.022304356
20231225 03:43:29,-1.979859,-0.688218,1.772634,0.204191,0.033344,0.258427,-3.398804,27.906841,-35.943520,19.378866,-0.5710554,-1.4892595,2.6845121,0.3006252,0.039168164,0.07784114
20231225 03:43:29,-1.135002,-0.981420,0.966795,0.309660,-0.031643,0.343655,-3.346050,27.151218,-35.491753,16.275614,-0.22655791,-1.323411,1.6400325,0.45051554,-0.018197212,0.09295951
20231225 03:43:29,-0.368304,-1.326328,0.197088,0.356535,-0.087041,0.366027,-3.274330,27.911373,-35.540657,12.499435,-0.024892524,-1.3785057,0.6045805,0.5122647,-0.07572794,0.07683684
20231225 03:43:29,0.239143,-1.562772,-0.458747,0.360797,-0.125393,0.341524,-3.531475,27.423515,-35.779320,9.669288,-0.002206266,-1.5005926,-0.2995139,0.5037142,-0.11878227,0.03839934
20231225 03:43:29,0.727627,-1.745372,-1.115808,0.339490,-0.141373,0.288257,-3.125153,27.450882,-35.509117,5.8892245,-0.17365485,-1.6918914,-1.1775284,0.44868562,-0.13908154,-0.008854017
20231225 03:43:29,1.075466,-1.845767,-1.598521,0.292614,-0.109413,0.205159,-3.212612,27.250763,-35.095009,3.9236069,-0.37412262,-1.855901,-1.7992358,0.35165066,-0.10974644,-0.05637233
20231225 03:43:29,1.115500,-1.833704,-1.906137,0.263850,-0.083845,0.160415,-3.081749,26.792122,-35.331718,3.9417036,-0.62515414,-1.8363527,-2.0292282,0.29757288,-0.08392331,-0.07850101
20231225 03:43:29,1.020101,-1.730431,-1.994007,0.171165,0.015233,0.028312,-3.444012,27.623634,-36.193428,6.544868,-0.7027163,-1.6247426,-1.9617871,0.13674036,0.019826625,-0.10736169
20231225 03:43:29,0.691104,-1.562546,-1.764907,0.127486,0.048259,-0.029217,-3.072399,26.695259,-35.057350,9.113196,-0.6752448,-1.3566656,-1.5285075,0.06241063,0.060083978,-0.11779308
20231225 03:43:29,0.329507,-1.435029,-1.593749,0.102983,0.039736,-0.052655,-3.187904,26.785744,-35.466331,11.8786545,-0.7343173,-1.1813856,-1.1108478,0.028642885,0.057590947,-0.11573613
20231225 03:43:29,0.095527,-1.279805,-1.508451,0.093394,0.025886,-0.051589,-3.337086,27.246235,-35.497871,12.884194,-0.84611243,-1.0352265,-0.87400556,0.022527162,0.0445415,-0.10665327
20231225 03:43:29,0.050820,-1.046729,-1.597675,0.035866,-0.029512,-0.047328,-3.478722,26.667889,-35.327553,13.7523,-0.9847784,-0.7756594,-0.89658946,-0.0067653134,-0.016941965,-0.05264579
20231225 03:43:29,0.020435,-0.844055,-1.640579,-0.042970,-0.062538,-0.052655,-2.931530,27.657383,-35.788612,13.51565,-1.0678465,-0.5515486,-0.92158526,-0.056720473,-0.058418393,0.009013083
20231225 03:43:29,-0.059644,-0.624055,-1.627590,-0.137786,-0.095563,-0.054786,-3.240276,27.349480,-35.637611,14.520658,-1.1423206,-0.3319155,-0.86748946,-0.11278938,-0.10370584,0.08676475
20231225 03:43:29,-0.165117,-0.457919,-1.437370,-0.227275,-0.088106,-0.047328,-2.948311,26.891674,-34.934975,14.190033,-1.0827549,-0.2247179,-0.720732,-0.16943598,-0.111806475,0.15484928
20231225 03:43:29,-0.209329,-0.379951,-1.214335,-0.284804,-0.081714,-0.035609,-2.930763,27.273602,-35.227669,13.858805,-0.9363338,-0.20953038,-0.6058556,-0.20994969,-0.117843166,0.19430196
20231225 03:43:29,-0.316121,-0.459107,-0.456740,-0.298654,-0.091302,-0.027086,-3.000294,27.263523,-34.825783,13.501956,-0.4700038,-0.43115842,-0.027878761,-0.22209634,-0.13106644,0.20141906
20231225 03:43:29,-0.337060,-0.479227,-0.208664,-0.292262,-0.107282,-0.024956,-2.973785,27.740471,-35.124596,13.162553,-0.32025218,-0.49119386,0.15797323,-0.21735877,-0.14580205,0.19727102
20231225 03:43:29,-0.322862,-0.486485,0.229268,-0.244321,-0.182922,-0.027086,-3.071362,28.021000,-35.545799,12.731938,-0.03174846,-0.55332035,0.46166375,-0.17765571,-0.21141492,0.17184149
20231225 03:43:29,-0.327846,-0.436624,0.267422,-0.225145,-0.206360,-0.028152,-3.291496,27.337555,-34.967491,12.913396,-0.018467605,-0.50838333,0.4855126,-0.16167673,-0.23098841,0.16271217
20231225 03:43:29,-0.141546,-0.346551,0.301497,-0.154832,-0.272411,-0.047328,-3.150627,28.299675,-35.698738,11.074429,0.13062374,-0.39014792,0.36390343,-0.117837854,-0.2820496,0.10810235
20231225 03:43:29,-0.072658,-0.304610,0.215433,-0.131394,-0.284130,-0.063308,-2.885559,27.556812,-34.977776,10.002036,0.12228712,-0.32935846,0.24271879,-0.11175875,-0.2886114,0.08066782
20231225 03:43:29,0.088258,0.000905,0.053180,-0.071735,-0.277738,-0.134687,-3.344246,28.093182,-35.419258,10.323488,0.099804595,0.004349155,-0.024644747,-0.11854951,-0.2694116,-0.008747473
20231225 03:43:29,0.083077,0.092606,0.018130,-0.052558,-0.270280,-0.161320,-3.256401,28.101414,-35.552879,10.240651,0.06269898,0.09798147,-0.057657935,-0.12426095,-0.25744343,-0.041329376
20231225 03:43:29,0.028460,0.276423,-0.049688,0.004971,-0.227667,-0.228437,-3.264599,27.622616,-34.985832,12.051582,-0.05067601,0.28188357,-0.09391009,-0.13079816,-0.19478637,-0.124854684
20231225 03:43:29,-0.193065,0.507796,-0.100066,0.026277,-0.212752,-0.238025,-3.528904,27.981705,-35.145866,12.84482,-0.27262607,0.48793793,-0.003389731,-0.123647995,-0.17346545,-0.14566694
20231225 03:43:29,-0.503995,0.788951,-0.143373,0.083806,-0.188249,-0.234829,-3.519554,27.884834,-34.871513,14.31754,-0.5711224,0.71832496,0.14520657,-0.08171738,-0.13343433,-0.1841518
20231225 03:43:29,-0.597590,0.829309,-0.153260,0.097656,-0.193575,-0.227372,-3.386887,28.368160,-35.035713,14.89437,-0.65715194,0.7374711,0.20174748,-0.06442557,-0.1323626,-0.1863642
20231225 03:43:30,-0.630058,0.918749,-0.250044,0.117897,-0.236189,-0.207130,-3.598820,28.163509,-35.024467,15.358717,-0.7650733,0.8362136,0.15143347,-0.029898152,-0.17295231,-0.17917752
20231225 03:43:30,-0.623225,0.924135,-0.294756,0.120028,-0.254300,-0.207130,-3.758381,27.395126,-34.841911,15.850328,-0.795274,0.85011464,0.115662634,-0.025341794,-0.18930535,-0.17581354
20231225 03:43:30,-0.623498,0.937008,-0.381660,0.127486,-0.293718,-0.208196,-4.032417,28.042976,-35.556786,16.346922,-0.8642907,0.87810355,0.062753305,-0.014186949,-0.22412407,-0.17301394
20231225 03:43:30,-0.661856,0.954038,-0.554146,0.139204,-0.312894,-0.213522,-3.820099,28.055733,-35.287560,16.345308,-1.0229344,0.9231918,-0.0016173422,-0.0082722455,-0.23759116,-0.18173456
20231225 03:43:30,-0.650344,0.972603,-0.751703,0.157315,-0.261758,-0.212457,-4.048813,27.085381,-34.422691,17.332819,-1.17507,0.9860619,-0.118988365,-0.007399127,-0.18163955,-0.20082209
20231225 03:43:30,-0.669862,1.038107,-0.842361,0.162642,-0.230863,-0.207130,-4.013336,27.657345,-34.727608,17.199738,-1.2692533,1.0639024,-0.17303535,-0.005621016,-0.15182172,-0.20796216
20231225 03:43:30,-0.736222,1.014333,-0.737964,0.164773,-0.179726,-0.180497,-3.909367,26.913647,-34.945976,17.477566,-1.2295825,1.0027301,-0.0764707,0.009178221,-0.10627297,-0.20228454
20231225 03:43:30,-0.751025,0.805418,-0.355596,0.145596,-0.168007,-0.108053,-4.535164,27.720463,-35.406776,17.002234,-0.90795636,0.7202507,0.17064083,0.051111057,-0.1184556,-0.14432365
20231225 03:43:30,-0.701909,0.716218,-0.200269,0.137074,-0.191445,-0.085681,-3.986443,27.942406,-34.745949,15.544465,-0.7435604,0.6188008,0.25027674,0.065320484,-0.14971435,-0.12150255
20231225 03:43:30,-0.520409,0.483909,0.077238,0.109375,-0.277738,-0.057982,-4.023453,28.137993,-35.562904,13.92353,-0.37873703,0.39217672,0.34172305,0.07501185,-0.2492143,-0.070531294
20231225 03:43:30,-0.273101,0.258708,0.198209,0.087002,-0.383207,-0.069700,-4.322849,27.733227,-35.137550,12.6672735,-0.08550222,0.20289089,0.2891088,0.05599663,-0.36093977,-0.04971253
20231225 03:43:30,-0.033958,0.114322,0.197294,0.095525,-0.439671,-0.118706,-4.534012,27.144798,-34.565361,11.775655,0.10336122,0.09227586,0.14441076,0.024875492,-0.41640708,-0.08610488
20231225 03:43:30,0.072059,0.158287,0.161667,0.143466,-0.418364,-0.186889,-4.853256,27.509438,-35.530128,11.932712,0.15028945,0.14904447,0.037698343,0.0075113177,-0.38563067,-0.16958645
20231225 03:43:30,0.039320,0.229909,0.207048,0.275569,-0.281999,-0.285966,-4.463062,28.288734,-35.175209,11.870967,0.15037353,0.21124426,0.081895635,0.02185817,-0.22428909,-0.3517582
20231225 03:43:30,-0.063772,0.257693,0.290478,0.328836,-0.218078,-0.313665,-4.922405,27.307472,-34.847771,13.398454,0.12992716,0.21564867,0.2024779,0.03658575,-0.14492677,-0.4126408
20231225 03:43:30,-0.211366,0.489208,0.532770,0.427914,-0.101955,-0.360540,-5.425919,27.368740,-35.258705,14.445283,0.16705613,0.39565814,0.42743734,0.060734093,-0.0087250285,-0.5317815
20231225 03:43:30,-0.405572,0.855256,0.801370,0.512076,-0.040165,-0.401024,-4.879768,27.032490,-35.231316,15.113168,0.16555208,0.6729976,0.67414784,0.07762253,0.08521412,-0.6301098
20231225 03:43:30,-0.687040,1.452627,0.929101,0.554690,-0.045492,-0.405285,-4.843525,27.220676,-34.975304,16.598677,-0.03008467,1.1503278,0.8292561,0.08207604,0.10958416,-0.663901
20231225 03:43:30,-0.849769,2.130239,0.891361,0.537645,-0.097694,-0.369063,-4.791924,27.040718,-35.364967,17.540653,-0.28106993,1.7549497,0.7901895,0.081425786,0.062085748,-0.6205124
20231225 03:43:30,-0.959491,2.705727,0.752700,0.439633,-0.186118,-0.299816,-4.862873,25.896786,-34.755104,18.551493,-0.56757754,2.2984455,0.67839,0.072376624,-0.04643301,-0.48661643
20231225 03:43:30,-1.004158,3.483109,0.624261,0.151989,-0.331005,-0.144275,-4.943291,26.751129,-35.749474,18.837116,-0.84257996,3.0609014,0.539569,0.043396004,-0.26321578,-0.14293095
20231225 03:43:30,-0.974052,3.976185,0.495794,0.022016,-0.355508,-0.088877,-5.048298,26.169086,-35.042671,19.032515,-1.0361961,3.571781,0.34753832,0.020765305,-0.3191524,-5.0022453E-4
20231225 03:43:30,-0.971838,3.852857,0.463572,-0.262432,-0.311829,0.040030,-5.152653,27.104671,-35.104774,18.201359,-0.99700654,3.4866512,0.34850526,-0.056199323,-0.34860674,0.2923101
20231225 03:43:30,-0.835773,3.063340,1.167793,-0.495743,-0.148831,0.200898,-5.116409,27.292862,-34.848747,15.76316,-0.17663425,2.7095246,0.8146933,-0.16544539,-0.2437015,0.5241035
20231225 03:43:30,-0.749962,0.843049,3.155574,-0.602278,0.068500,0.426752,-5.170582,26.914635,-35.092552,14.4041605,1.0223725,0.46480757,2.787851,-0.27552557,-0.047042485,0.6628472
20231225 03:43:30,-0.711682,-0.012738,3.812228,-0.579906,0.085546,0.478954,-5.213985,27.573387,-35.269951,13.991525,1.2044822,-0.3604918,3.5842338,-0.28385323,-0.019527342,0.6692331
20231225 03:43:30,-0.358804,-2.328945,5.350699,-0.460587,0.009906,0.541809,-4.992321,27.489281,-34.726372,12.132611,1.3745761,-2.48922,5.5495224,-0.27053547,-0.041153066,0.64452136
20231225 03:43:30,-0.160638,-2.983689,5.534417,-0.218753,-0.212752,0.527960,-5.044689,28.053017,-34.897652,11.414464,1.4384128,-3.0907936,5.822453,-0.059515476,-0.23625714,0.5983944
20231225 03:43:30,0.327571,-3.834013,5.087649,0.116832,-0.432213,0.460843,-5.467407,27.068050,-34.033760,10.003222,1.6063168,-3.8515677,5.41446,0.23030409,-0.43217254,0.4829548
20231225 03:43:30,1.084395,-4.107757,2.895348,0.632461,-0.549402,0.296779,-5.857601,26.288757,-34.388680,6.0056734,1.8750125,-4.1063085,2.7868314,0.683515,-0.5785696,0.1312278
20231225 03:43:30,1.240176,-4.051353,2.039005,0.783740,-0.506788,0.246708,-5.865143,27.327595,-34.590538,2.8596153,1.7870307,-4.056074,1.5104289,0.7904943,-0.57133937,-0.08271724
20231225 03:43:30,1.466283,-3.752092,0.415385,1.030901,-0.323548,0.166807,-5.849403,26.767555,-34.955742,1.0449637,1.2167615,-3.8684242,-0.29203424,0.95790523,-0.43839762,-0.35152635
20231225 03:43:30,1.699045,-3.182870,-0.988083,1.150220,-0.091302,0.112474,-6.106163,26.087807,-34.913918,-2.640345,0.21868664,-3.5391312,-1.9606311,0.93813676,-0.27232292,-0.6566231
20231225 03:43:30,1.892602,-2.473160,-2.079183,1.083103,0.070631,0.063468,-6.266109,25.511314,-35.011848,-6.0346456,-0.85484827,-3.205608,-2.9492629,0.76339823,-0.12954527,-0.7799755
20231225 03:43:30,1.928252,-1.911742,-2.796614,0.838073,0.116441,0.017658,-5.816769,25.071812,-34.844719,-8.834567,-1.6737441,-2.9723747,-3.2963445,0.51059407,-0.04653762,-0.6789888
20231225 03:43:30,1.865438,-1.458813,-3.149907,0.452417,0.054651,-0.030283,-5.719574,24.983173,-34.703987,-8.469313,-2.076988,-2.6077592,-3.271597,0.21562913,-0.033086836,-0.40371698
20231225 03:43:30,1.643321,-1.185549,-3.269589,0.002840,-0.054015,-0.077158,-5.729305,25.271927,-35.258827,-4.7256327,-2.2706873,-2.0905917,-3.038722,-0.07655799,-0.07008195,-0.041088168
20231225 03:43:30,1.322776,-1.103447,-3.028211,-0.417973,-0.111544,-0.105922,-6.143826,24.765766,-34.961967,1.2719235,-1.9981633,-1.5706878,-2.6986375,-0.32192677,-0.09153505,0.3020582
20231225 03:43:30,0.993156,-1.107855,-2.250288,-0.720532,-0.084910,-0.135752,-5.674747,25.458271,-34.734550,5.8189654,-1.1960788,-1.1942877,-2.0900106,-0.55216646,-0.07259145,0.4908221
20231225 03:43:30,0.640875,-1.023198,-1.088856,-0.845177,0.013102,-0.167712,-6.151367,25.804600,-35.163811,10.542651,-0.23948008,-0.96021074,-1.0828221,-0.7320284,-0.012483744,0.45532888
20231225 03:43:30,0.282130,-1.001917,0.014513,-0.816413,0.128160,-0.217784,-6.176460,26.461510,-35.072975,12.011509,0.27674675,-0.98165655,-0.017229017,-0.7652888,0.088587455,0.3551737
20231225 03:43:30,-0.267931,-0.828267,0.914871,-0.683244,0.222976,-0.260398,-6.051991,26.466038,-34.670128,15.333578,0.43186513,-0.93911505,1.029249,-0.716628,0.16230038,0.18180946
20231225 03:43:30,-0.865770,-0.621478,1.514038,-0.489351,0.277308,-0.268921,-5.918934,26.757477,-34.553856,17.929094,0.2924971,-0.95467687,1.8220637,-0.58464587,0.22200172,0.026404068
20231225 03:43:30,-1.413860,-0.354150,1.808529,-0.288000,0.287962,-0.232699,-5.618774,26.778461,-34.418282,19.844872,-0.007591963,-0.93530464,2.3056521,-0.41173905,0.25407404,-0.076684006
20231225 03:43:30,-1.925749,0.072823,1.686109,-0.101564,0.268786,-0.149601,-5.655403,26.782162,-34.954765,22.121536,-0.47735727,-0.7470223,2.4104648,-0.22339803,0.2602653,-0.11978583
20231225 03:43:30,-1.997427,0.186174,1.500150,0.057173,0.259198,-0.021760,-5.867714,26.769405,-35.223976,22.51766,-0.6284634,-0.62770617,2.2988024,-0.024552545,0.2639052,-0.12779118
20231225 03:43:30,-1.830158,0.284636,1.050585,0.175426,0.243217,0.125258,-5.822510,27.052612,-34.974083,21.631596,-0.7293494,-0.36517173,1.8808314,0.15885419,0.24498348,-0.09911023
20231225 03:43:30,-1.342784,0.090116,0.420550,0.238282,0.210192,0.257361,-5.330147,26.146244,-34.910011,18.970509,-0.68605155,-0.23746611,1.2058959,0.30585963,0.20003234,-0.04297632
20231225 03:43:30,-0.676528,-0.251757,-0.202148,0.253197,0.170774,0.344720,-5.391094,26.423077,-34.794716,15.2036495,-0.57734984,-0.30453867,0.40204495,0.39828065,0.15452684,0.01439701
20231225 03:43:30,0.025250,-0.519390,-0.811399,0.224432,0.124964,0.384138,-5.197090,26.437687,-34.793739,10.276655,-0.5622292,-0.4700432,-0.48390925,0.4288393,0.11383267,0.065464824
20231225 03:43:30,0.677157,-0.764767,-1.242901,0.156250,0.079154,0.378811,-5.488293,26.511715,-34.935448,5.757156,-0.53825593,-0.8064274,-1.262905,0.39270878,0.084893525,0.1162844
20231225 03:43:30,1.200892,-0.956270,-1.676908,0.047584,0.034409,0.331936,-5.127178,26.255875,-34.915154,0.7493714,-0.6395383,-1.2142309,-1.9787747,0.28978994,0.06367793,0.17063092
20231225 03:43:30,1.543264,-1.045724,-1.943835,-0.073865,0.038670,0.257361,-5.533497,26.228504,-35.185341,-1.888193,-0.7184749,-1.511056,-2.4321473,0.15982358,0.08653633,0.21702325
20231225 03:43:30,1.717170,-0.884885,-2.039198,-0.181465,0.113245,0.176395,-5.533882,26.420395,-35.465813,-2.3304389,-0.6757231,-1.4092327,-2.6258888,0.044275388,0.16192904,0.2541346
20231225 03:43:30,1.629874,-0.717309,-1.719862,-0.249648,0.242152,0.110343,-5.489056,26.895493,-35.496376,0.079856366,-0.36386377,-1.0661951,-2.3503613,-0.04579068,0.27619186,0.26276278
20231225 03:43:30,1.402653,-0.500432,-1.084204,-0.276281,0.330576,0.062403,-5.260998,26.348213,-35.592354,3.0303776,0.10533017,-0.6407823,-1.7491236,-0.11866128,0.3483057,0.23531249
20231225 03:43:30,1.011771,-0.359157,-0.433984,-0.260301,0.349752,0.030442,-4.967613,27.024265,-35.097694,6.128416,0.38506913,-0.36597994,-1.00248,-0.15644191,0.35110644,0.18302597
20231225 03:43:30,0.633643,-0.124047,0.022838,-0.214491,0.310334,0.025116,-5.206825,26.726440,-35.348579,8.646835,0.46479842,-0.10632889,-0.42221338,-0.14182016,0.30314887,0.13739468
20231225 03:43:30,0.344009,-0.045849,0.225975,-0.156962,0.236825,0.035769,-4.474213,27.443638,-35.522072,9.177685,0.40467674,-0.039539874,-0.08209632,-0.09789294,0.22587268,0.10973584
20231225 03:43:30,0.257072,0.063969,0.157274,-0.094107,0.162251,0.058141,-4.729168,27.705853,-35.407753,9.447621,0.2876277,0.06864681,-0.08545984,-0.03212177,0.15370299,0.08918939
20231225 03:43:30,0.316903,0.087803,-0.084212,-0.036578,0.112179,0.078383,-5.145874,26.449615,-35.463860,9.710475,0.14655872,0.10584213,-0.30035272,0.027806057,0.10646416,0.06629979
20231225 03:43:30,0.449042,0.062415,-0.481843,-0.001422,0.094069,0.089036,-4.783344,27.327625,-35.651543,8.043289,-0.07148504,0.090637505,-0.65755093,0.06321601,0.09105176,0.05021315
20231225 03:43:30,0.639184,0.018371,-0.769011,0.003905,0.084480,0.079448,-4.749287,26.765739,-35.748497,6.5331874,-0.18325463,0.02828649,-0.98119676,0.06296276,0.08389497,0.041288756
20231225 03:43:30,0.762319,0.077391,-0.976716,-0.012075,0.090873,0.060272,-5.022171,26.837921,-35.621941,6.2448435,-0.28823566,0.07245834,-1.2065759,0.03988238,0.09108937,0.040629543
20231225 03:43:30,0.837298,0.144961,-1.048859,-0.036578,0.120702,0.033638,-4.598305,27.247215,-35.644447,5.4437137,-0.3013531,0.13290022,-1.313165,0.0045099314,0.12113825,0.04235565
20231225 03:43:30,0.810979,0.221350,-0.947724,-0.054689,0.153728,-0.000453,-4.634163,26.867138,-35.619987,6.5685625,-0.22788084,0.23864141,-1.2388064,-0.036447193,0.15323998,0.03112818
20231225 03:43:30,0.662823,0.384798,-0.670624,-0.050428,0.180362,-0.033479,-4.713810,27.337708,-36.053413,7.812075,-0.101032436,0.42272264,-0.9682065,-0.06363897,0.17994145,0.0016959049
20231225 03:43:30,0.463695,0.475579,-0.419591,-0.018467,0.188885,-0.060112,-5.129097,27.215317,-36.317513,9.965961,-0.044088155,0.521619,-0.6745037,-0.06852377,0.19090633,-0.04570692
20231225 03:43:30,0.221733,0.592481,-0.247660,0.034800,0.185689,-0.073962,-4.459240,27.267376,-36.448204,10.52612,-0.091051236,0.6247054,-0.39720207,-0.048341278,0.19306985,-0.09579761
20231225 03:43:30,0.026007,0.676733,-0.213378,0.091264,0.172904,-0.075027,-4.556049,27.164124,-36.308464,12.326648,-0.21739209,0.69542325,-0.24911022,-0.015983779,0.18780325,-0.14098513
20231225 03:43:30,-0.194390,0.776194,-0.177739,0.144531,0.143075,-0.055851,-4.513027,26.697258,-36.411522,13.515231,-0.3594193,0.7668972,-0.0792915,0.032449927,0.1639342,-0.16708262
20231225 03:43:30,-0.224745,0.900234,-0.265467,0.190341,0.093003,-0.018564,-5.022938,27.221699,-36.182899,13.935741,-0.46121815,0.8984888,-0.123903766,0.09353248,0.11402632,-0.1733612
20231225 03:43:30,-0.134281,0.870310,-0.570346,0.215909,0.055716,0.010201,-4.107861,27.300293,-36.982750,12.29237,-0.6378576,0.91781,-0.34238532,0.13174304,0.07414248,-0.17304854
20231225 03:43:30,0.059756,0.889370,-0.904561,0.207387,0.037605,0.022985,-4.547470,27.451035,-36.595055,11.000642,-0.78153163,0.97297585,-0.6619061,0.13528344,0.049141202,-0.16004983
20231225 03:43:30,0.335413,0.990857,-1.244106,0.163707,0.053585,0.016593,-4.380741,27.372475,-36.856194,9.259855,-0.9186955,1.0884123,-1.0437384,0.10023422,0.059695646,-0.1324005
20231225 03:43:30,0.519681,1.028516,-1.306282,0.098721,0.102591,-0.000453,-4.549274,26.509071,-36.667549,8.709929,-0.84526503,1.1141393,-1.2394588,0.049350247,0.10592822,-0.090804726
20231225 03:43:30,0.569348,0.998924,-1.049818,0.039062,0.135617,-0.024956,-4.565399,27.260994,-36.582832,8.106782,-0.5670141,1.0592865,-1.1478341,-0.003435392,0.1376703,-0.057232305
20231225 03:43:30,0.617764,0.939903,-0.711658,-0.001422,0.147336,-0.053720,-4.619957,27.074657,-37.107079,8.67986,-0.23948991,0.9977065,-1.0032451,-0.051003594,0.14970015,-0.044434175
20231225 03:43:30,0.489544,0.895538,-0.369532,-0.014206,0.152663,-0.085681,-4.452461,26.612320,-36.807289,8.745674,-0.026631773,0.93372595,-0.69584686,-0.08348204,0.15621921,-0.05670126
20231225 03:43:30,0.457565,0.863899,-0.069175,0.002840,0.166512,-0.120837,-4.592297,26.975937,-36.564491,9.847583,0.18159088,0.89107287,-0.48968622,-0.10190496,0.17421137,-0.09667011
20231225 03:43:30,0.312079,1.058135,0.163047,0.044388,0.194211,-0.142144,-4.373966,26.717415,-37.215279,10.404029,0.2386775,1.0601608,-0.25899705,-0.09565358,0.2076879,-0.14630435
20231225 03:43:30,0.146189,1.316232,0.266450,0.083806,0.220845,-0.158124,-4.507790,26.809757,-37.892509,12.174763,0.15220894,1.2866727,-0.12447369,-0.09338504,0.2434749,-0.1916021
20231225 03:43:30,-0.109464,1.765252,0.288808,0.097656,0.252805,-0.159190,-4.241299,27.200745,-37.379494,13.805775,-0.100256205,1.6801367,0.0013756305,-0.1020057,0.28278804,-0.20816375
20231225 03:43:30,-0.432727,2.442366,0.256647,0.065695,0.233629,-0.147471,-4.552612,26.334660,-37.861946,17.111956,-0.5306473,2.2575316,0.08531247,-0.1266876,0.26520374,-0.17358857
20231225 03:43:30,-0.908718,3.142525,-0.068542,-0.055754,0.186754,-0.113380,-4.384083,27.198063,-38.050591,21.193975,-1.4322491,2.816022,0.12382247,-0.17297241,0.19801334,-0.045795992
20231225 03:43:30,-1.445277,3.642179,-0.363240,-0.267759,0.137748,-0.018564,-4.508171,27.001644,-38.172966,24.01143,-2.2515738,3.1763458,0.2604852,-0.20215708,0.07767589,0.18803164
20231225 03:43:30,-1.584607,3.609209,-0.236157,-0.509593,0.134552,0.126324,-4.339642,27.865051,-38.361626,21.783854,-2.1320226,3.1267087,0.41947562,-0.2312172,-0.013205931,0.45774361
20231225 03:43:30,-1.190288,2.882598,0.548528,-0.677918,0.185689,0.252035,-3.976345,28.359287,-37.988365,16.337824,-0.91689,2.4924212,0.72287273,-0.28850007,0.021524783,0.6394009
20231225 03:43:30,-0.645663,1.755050,1.618510,-0.725858,0.257067,0.319152,-3.872368,27.615589,-38.206718,12.66353,0.4019068,1.4688462,1.3173616,-0.35271645,0.12814555,0.67779166
20231225 03:43:30,-0.251627,0.612201,2.642581,-0.653415,0.331641,0.338328,-4.382282,28.140030,-37.978096,11.618659,1.2630527,0.3893646,2.1583424,-0.36399293,0.23720628,0.5932071
20231225 03:43:30,-0.074335,-0.603544,3.406609,-0.497874,0.369994,0.328740,-3.721771,28.288956,-38.383156,10.13082,1.5892172,-0.7760563,3.0717392,-0.29850966,0.30648884,0.46558458
20231225 03:43:30,0.018760,-1.719316,3.970059,-0.332745,0.276243,0.295714,-4.107975,29.201702,-38.312599,10.676754,1.6895964,-1.8699836,3.8493037,-0.19594657,0.23247282,0.35383004
20231225 03:43:30,-0.036266,-2.407913,3.953903,-0.175073,0.074892,0.291453,-3.641857,29.527912,-38.999107,10.285174,1.5119992,-2.5466797,4.026986,-0.05813192,0.047213044,0.31877694
20231225 03:43:30,0.117125,-2.864169,3.432805,-0.025925,-0.104086,0.324478,-3.510223,28.685493,-38.674858,8.933591,1.4466729,-2.942747,3.524176,0.09773426,-0.11457085,0.32265222
20231225 03:43:30,0.559610,-3.126238,2.641358,0.088068,-0.238320,0.360700,-3.783104,28.757671,-38.548332,6.13149,1.5284215,-3.1335483,2.5342438,0.21835832,-0.23916669,0.32303077
20231225 03:43:30,1.148165,-3.339789,1.757336,0.148793,-0.321417,0.366027,-4.196590,29.577251,-38.739906,2.428389,1.6651294,-3.3558252,1.2918044,0.2728442,-0.3203531,0.29007083
20231225 03:43:30,1.788183,-3.460376,0.962069,0.160511,-0.349116,0.324478,-4.454113,29.281281,-39.259041,-2.440374,1.7910566,-3.6101394,-0.011641085,0.25685644,-0.3461982,0.21341212
20231225 03:43:30,2.401124,-3.379052,0.247752,0.120028,-0.313960,0.209421,-4.269073,29.200871,-39.251945,-7.6239834,1.8375467,-3.7804973,-1.2943625,0.1631239,-0.30588272,0.091223046
20231225 03:43:30,2.905522,-2.991752,-0.257570,0.033735,-0.244712,0.016593,-4.332214,28.727623,-39.489616,-10.3203745,1.8392444,-3.6529682,-2.2099793,-0.0034739533,-0.2386986,-0.04121781
20231225 03:43:30,2.914404,-2.379558,-0.530842,-0.080257,-0.154158,-0.231633,-4.314285,28.917664,-39.501854,-8.176219,1.638001,-3.016333,-2.436524,-0.22294983,-0.16864972,-0.15318748
20231225 03:43:31,2.218368,-1.555389,-0.540633,-0.205968,-0.034839,-0.476663,-4.605865,29.183582,-39.924019,-0.63482517,1.1823283,-1.8014004,-1.8826284,-0.4695939,-0.054964922,-0.22263755
20231225 03:43:31,1.012918,-0.624660,-0.120546,-0.322091,0.078088,-0.662034,-4.296352,29.107700,-39.514076,9.180929,0.6888449,-0.55047256,-0.7122603,-0.6926691,0.09738248,-0.26044625
20231225 03:43:31,-0.524540,0.215260,0.399324,-0.421169,0.191015,-0.732347,-4.391361,29.946419,-39.301842,18.251793,-0.16596845,0.019361101,0.5853321,-0.8231956,0.23703162,-0.26733607
20231225 03:43:31,-2.241709,1.014983,1.149542,-0.478698,0.299681,-0.650315,-4.605484,28.991695,-39.643562,25.37455,-1.3175628,-0.11585322,1.906981,-0.8276121,0.2942568,-0.23854986
20231225 03:43:31,-3.693439,1.489156,2.334340,-0.427561,0.340164,-0.406350,-4.700874,30.022297,-39.711784,27.449076,-2.150753,-0.7192386,3.3132887,-0.65215933,0.25346282,-0.16070811
20231225 03:43:31,-4.329488,1.382916,3.211123,-0.279477,0.270916,-0.080354,-4.349106,29.863331,-39.965843,27.100435,-2.3607378,-1.247776,4.2628617,-0.3412427,0.15444943,-0.0061696395
20231225 03:43:31,-4.148887,0.917582,3.560646,-0.074931,0.123898,0.247773,-4.384968,29.483253,-39.941383,25.679798,-1.9694495,-1.4533575,4.601771,0.029525004,0.02937859,0.18328677
20231225 03:43:31,-3.116883,0.231817,3.034706,0.134943,-0.040165,0.509849,-4.260880,29.679668,-39.819008,21.677023,-1.1140354,-1.2452886,3.988305,0.3807314,-0.09376809,0.3371718
20231225 03:43:31,-2.409307,-0.139738,2.568809,0.232955,-0.096629,0.596142,-4.172653,29.496014,-39.672173,18.945791,-0.6220641,-1.1214294,3.3949914,0.52547467,-0.13172904,0.36668417
20231225 03:43:31,-0.339728,-1.106723,0.827058,0.447090,-0.193575,0.654736,-4.306473,29.588348,-40.349373,11.005672,0.30192384,-1.1924297,1.0223745,0.7617506,-0.19641492,0.2755466
20231225 03:43:31,0.516680,-1.613289,-0.394308,0.503553,-0.188249,0.592946,-3.918465,29.617565,-40.347420,5.497736,0.16760546,-1.6010087,-0.51194876,0.7676966,-0.18798888,0.14996397
20231225 03:43:31,1.103247,-1.968935,-1.303787,0.504619,-0.147765,0.491738,-4.105305,28.756008,-40.427025,1.1090581,-0.16990614,-2.0950077,-1.6782831,0.6954757,-0.1503756,0.023096174
20231225 03:43:31,1.496686,-2.136614,-1.977421,0.462005,-0.098759,0.368158,-4.175987,29.321598,-40.866554,-2.1719737,-0.549261,-2.4750896,-2.5125046,0.5738299,-0.107386015,-0.06965545
20231225 03:43:31,1.588591,-2.183349,-2.457028,0.381038,-0.045492,0.241381,-4.220814,28.846500,-40.835991,-2.7652621,-0.9764674,-2.6189096,-2.8996282,0.42756155,-0.057610128,-0.11994214
20231225 03:43:31,1.472530,-2.143645,-2.647012,0.283026,0.008841,0.133781,-4.617020,28.338486,-40.270882,-0.16052486,-1.1935606,-2.4760926,-2.856677,0.28731865,-0.0013208035,-0.12447651
20231225 03:43:31,1.192498,-2.036790,-2.560654,0.193537,0.041867,0.046423,-3.956894,28.679298,-40.956429,2.715185,-1.2052914,-2.1407185,-2.5160444,0.16334738,0.038253848,-0.11674933
20231225 03:43:31,0.829709,-1.804483,-2.374670,0.127486,0.064239,-0.014302,-4.266022,28.563293,-41.085884,6.3990655,-1.2203608,-1.729037,-2.033924,0.070469975,0.067187704,-0.11076045
20231225 03:43:31,0.513678,-1.494168,-2.236090,0.072087,0.085546,-0.054786,-4.223385,28.288311,-41.469429,9.578726,-1.2755679,-1.281105,-1.6400203,-0.0028740838,0.093939185,-0.09903706
20231225 03:43:31,0.147425,-1.147241,-2.087077,0.010297,0.099395,-0.079289,-4.435318,28.083668,-41.458183,13.540758,-1.337036,-0.82520634,-1.2300801,-0.0674861,0.10987885,-0.071586296
20231225 03:43:31,-0.234818,-0.858680,-1.904693,-0.068539,0.095134,-0.083550,-4.433517,29.025631,-41.385689,16.488617,-1.4119217,-0.51161444,-0.8277158,-0.12398737,0.09731077,-0.015452124
20231225 03:43:31,-0.547251,-0.586627,-1.659323,-0.154832,0.068500,-0.071831,-3.948696,29.158096,-41.523476,17.721992,-1.441566,-0.3074677,-0.4923085,-0.16753018,0.05288706,0.060004
20231225 03:43:31,-0.754144,-0.421601,-1.406694,-0.241125,0.043997,-0.063308,-4.293686,28.662006,-41.628487,18.605991,-1.4173462,-0.24348605,-0.2286697,-0.21461222,0.00971482,0.1316511
20231225 03:43:31,-0.871650,-0.191389,-1.074764,-0.301850,0.040801,-0.060112,-3.782356,29.271427,-42.065102,18.065199,-1.3058782,-0.12196094,-0.0015227795,-0.25426626,-0.00709703,0.17657593
20231225 03:43:31,-0.909412,-0.046780,-0.792373,-0.315699,0.105787,-0.053720,-3.721024,28.802708,-41.899925,17.492308,-1.1704235,-0.0630275,0.13560957,-0.2780208,0.051340446,0.16861023
20231225 03:43:31,-0.966144,-0.010163,-0.196668,-0.274151,0.179296,-0.051589,-3.816029,29.641422,-41.687675,16.62729,-0.8296799,-0.15639442,0.5305766,-0.26514372,0.13081932,0.115676366
20231225 03:43:31,-0.946850,-0.070541,0.366076,-0.207034,0.201669,-0.062243,-3.552109,29.474228,-41.808113,15.479145,-0.4683314,-0.29535833,0.9026892,-0.22725463,0.16853718,0.050441027
20231225 03:43:31,-0.916768,-0.104573,0.817841,-0.126067,0.155859,-0.086746,-3.721409,28.994598,-42.180397,15.678576,-0.16981894,-0.38914827,1.2149386,-0.17428562,0.14213504,-0.014388118
20231225 03:43:31,-0.958896,-0.041121,0.922104,-0.054689,0.065304,-0.089942,-3.534565,29.856155,-42.100792,15.670076,-0.14296156,-0.36228877,1.3061742,-0.108507104,0.06741178,-0.04384833
20231225 03:43:31,-0.938402,-0.025561,0.762076,-0.000356,-0.036969,-0.067570,-3.243752,29.974010,-42.239586,15.099053,-0.21426815,-0.31331843,1.1767879,-0.037684094,-0.025330964,-0.041594453
20231225 03:43:31,-0.764089,-0.073267,0.454051,0.028408,-0.132851,-0.034544,-3.809635,29.178253,-42.327232,15.066058,-0.24992251,-0.26525372,0.8544987,0.01811806,-0.11962829,-0.018410677
20231225 03:43:31,-0.526776,-0.127584,-0.014933,0.036931,-0.187183,-0.000453,-3.809635,29.178253,-42.327232,14.061276,-0.36820132,-0.19937788,0.38057372,0.052744724,-0.17782709,0.0063063256
20231225 03:43:31,-0.297573,-0.218517,-0.358233,0.046519,-0.205294,0.024050,-3.500889,29.486153,-42.478218,12.007022,-0.43393523,-0.20758912,-0.0025388151,0.07431662,-0.19968171,0.013439318
20231225 03:43:31,-0.047481,-0.360240,-0.626093,0.058238,-0.211686,0.020854,-3.658653,29.659733,-42.223198,10.729107,-0.4427878,-0.2982423,-0.34641218,0.0766214,-0.20604219,-3.1588972E-4
20231225 03:43:31,0.163862,-0.390185,-0.885134,0.081676,-0.214882,-0.004714,-3.580158,29.764832,-42.631187,9.273103,-0.5043619,-0.30232662,-0.6693549,0.069552846,-0.20694911,-0.03983296
20231225 03:43:31,0.374334,-0.318800,-1.081903,0.113636,-0.211686,-0.064374,-3.712444,29.089619,-42.186516,7.5471244,-0.56592333,-0.24160022,-0.9507593,0.035778333,-0.20238678,-0.11007321
20231225 03:43:31,0.560844,0.049702,-1.407351,0.137074,-0.191445,-0.153863,-3.670956,29.390305,-43.411476,6.7514243,-0.7850714,0.13395786,-1.2935936,-0.031087488,-0.17926809,-0.18791142
20231225 03:43:31,0.614101,0.381146,-1.685233,0.118963,-0.169072,-0.265724,-3.476181,29.021133,-42.849541,7.0409193,-1.0536609,0.4972819,-1.483773,-0.1408326,-0.14938886,-0.23615739
20231225 03:43:31,0.406382,0.820303,-1.672865,0.050780,-0.158419,-0.367998,-3.810402,29.562035,-42.888176,10.710943,-1.248074,1.0360782,-1.3339068,-0.25696212,-0.11065765,-0.22638191
20231225 03:43:31,-0.094896,1.297750,-1.522054,-0.026990,-0.126458,-0.409546,-3.828331,29.371994,-42.875938,15.019931,-1.521829,1.5379515,-0.94004136,-0.3207529,-0.049489684,-0.18224218
20231225 03:43:31,-0.672021,1.638298,-1.001120,-0.085584,-0.085975,-0.386109,-4.252197,28.962696,-42.853447,18.661526,-1.5526292,1.6830523,-0.34556887,-0.3266335,-0.006835781,-0.13442338
20231225 03:43:31,-1.131122,1.739986,-0.300827,-0.125002,-0.092367,-0.308338,-3.829102,29.755772,-43.436897,19.230036,-1.3705401,1.4900668,0.29850167,-0.28120056,-0.03957808,-0.07526375
20231225 03:43:31,-1.537174,1.675459,0.476464,-0.132459,-0.181857,-0.200738,-4.340427,29.146355,-43.000298,20.42747,-1.1261456,1.1283972,1.0198936,-0.18602124,-0.15429677,0.010291323
20231225 03:43:31,-1.612609,1.533486,0.947374,-0.103695,-0.317156,-0.091007,-4.393181,29.901985,-43.452049,18.941034,-0.82014406,0.9312121,1.4219098,-0.06865412,-0.30568853,0.085248604
20231225 03:43:31,-1.283662,1.309501,0.952065,-0.052558,-0.435409,-0.015368,-4.614082,29.602314,-43.434685,16.89005,-0.477794,0.8804581,1.2849128,0.028464163,-0.42844632,0.116051845
20231225 03:43:31,-0.804298,1.129557,0.782695,0.011363,-0.492938,-0.002583,-4.595768,29.600464,-43.166435,14.070121,-0.16423017,0.8984732,0.9139358,0.0724115,-0.4823067,0.07387912
20231225 03:43:31,-0.364756,0.988749,0.539007,0.074218,-0.475893,-0.038805,-4.771839,29.775894,-43.179649,12.364244,0.02616015,0.8819408,0.48116577,0.07490399,-0.45872304,-0.009353615
20231225 03:43:31,-0.172029,0.999646,0.458555,0.144531,-0.393861,-0.100595,-5.038334,29.384907,-43.692650,12.513727,0.105381876,0.92352766,0.28383586,0.06878032,-0.36463445,-0.11370311
20231225 03:43:31,-0.344728,0.991510,0.568338,0.224432,-0.290522,-0.151732,-5.178162,29.748524,-43.449852,14.114058,0.03309965,0.8620255,0.46274853,0.087158404,-0.2392112,-0.21361387
20231225 03:43:31,-0.685998,0.978141,0.820756,0.310725,-0.219144,-0.189019,-5.223370,29.465317,-43.699745,15.799886,-0.071544826,0.7352635,0.8538419,0.12479673,-0.1406179,-0.3046146
20231225 03:43:31,-0.998791,1.052227,1.081541,0.402345,-0.214882,-0.209261,-4.942677,30.063820,-44.673820,17.101736,-0.15049332,0.6615148,1.2177322,0.17941728,-0.10274233,-0.38060185
20231225 03:43:31,-1.235249,1.273053,0.972888,0.491835,-0.203164,-0.213522,-5.215176,29.944111,-44.266808,18.441238,-0.42223305,0.81111944,1.252126,0.23057117,-0.06380147,-0.4509569
20231225 03:43:31,-1.352655,1.616415,0.854336,0.579193,-0.179726,-0.210326,-5.375122,29.367619,-44.364738,19.7916,-0.62214947,1.1014528,1.1908505,0.266247,-0.0155483335,-0.5277013
20231225 03:43:31,-1.447127,2.323937,0.450610,0.626068,-0.158419,-0.176235,-4.971371,28.836796,-44.727989,20.99538,-1.137686,1.799954,0.8970727,0.28945023,0.018175524,-0.56224674
20231225 03:43:31,-1.615014,2.860532,0.081107,0.587716,-0.165876,-0.097399,-5.272301,29.199581,-45.424507,22.29207,-1.6663582,2.3463888,0.75187397,0.30656895,-0.013007263,-0.49850866
20231225 03:43:31,-1.459755,3.258521,-0.184242,0.459874,-0.201033,0.010201,-5.535454,28.983009,-44.743141,21.44355,-1.8130912,2.8844144,0.49405172,0.31041664,-0.11375207,-0.34246176
20231225 03:43:31,-1.100008,3.478179,-0.237249,0.260654,-0.243647,0.114605,-5.536873,27.849155,-44.535179,18.490978,-1.5353861,3.2620878,0.21236937,0.28619772,-0.22435898,-0.11960932
20231225 03:43:31,-0.652738,3.234628,0.046240,0.049715,-0.252170,0.195571,-5.792595,28.495152,-44.981789,14.639193,-0.7968143,3.114037,0.09762517,0.22280371,-0.27140394,0.10291874
20231225 03:43:31,-0.148951,2.631506,0.529959,-0.107956,-0.169072,0.261623,-5.440063,27.952400,-44.674919,11.467267,0.08465612,2.5570204,0.11384188,0.15023167,-0.19880448,0.2656435
20231225 03:43:31,-0.029499,1.840621,1.297032,-0.214491,-0.039100,0.330870,-5.625103,28.032814,-44.681999,11.00703,0.76724875,1.7417477,0.6722483,0.084101245,-0.07603761,0.38655335
20231225 03:43:31,-0.148843,0.794702,2.362255,-0.280543,0.026952,0.407576,-6.137585,27.999062,-45.086815,12.047537,1.2742469,0.6382185,1.7865608,0.02493295,-0.019193167,0.48247164
20231225 03:43:31,-0.251899,-0.345863,3.294464,-0.289066,-0.011401,0.489607,-5.616138,28.127831,-44.688118,11.518865,1.4769412,-0.5112345,2.9624226,0.0014489889,-0.055096574,0.5620507
20231225 03:43:31,-0.137294,-1.565810,3.997549,-0.217687,-0.130720,0.553528,-5.616520,28.319721,-44.968575,10.245362,1.6186988,-1.663908,3.8668,0.042506948,-0.15427667,0.6065023
20231225 03:43:31,0.291721,-2.506781,4.094929,-0.074931,-0.284130,0.576966,-6.013111,28.003593,-44.683952,8.263964,1.8145016,-2.512299,3.979018,0.14803156,-0.28537747,0.59507567
20231225 03:43:31,0.832849,-3.097263,3.533246,0.120028,-0.401318,0.553528,-5.695789,28.598396,-45.121544,4.3035626,2.0062218,-3.0647275,3.1895022,0.3062368,-0.3958189,0.49764532
20231225 03:43:31,1.313502,-3.410224,2.368067,0.329902,-0.414102,0.501326,-5.961510,27.823631,-45.073616,0.44056854,1.9787884,-3.4147277,1.662224,0.48170304,-0.42329496,0.32885155
20231225 03:43:31,1.702468,-3.350437,0.960019,0.476920,-0.324613,0.436340,-5.837803,28.211941,-45.231697,-4.5109267,1.6129048,-3.4929063,-0.20261407,0.59067863,-0.36130732,0.13235365
20231225 03:43:31,2.114262,-3.152787,-0.262665,0.535514,-0.181857,0.364962,-6.465027,27.884907,-45.484535,-9.4859915,1.0594237,-3.5885842,-1.8291522,0.60591686,-0.24759394,-0.026504695
20231225 03:43:31,2.483380,-2.796985,-1.204179,0.491835,-0.018858,0.278668,-6.457478,26.846069,-45.282661,-14.157967,0.4844334,-3.6387615,-3.011707,0.5364053,-0.09772137,-0.110336095
20231225 03:43:31,2.667645,-2.329120,-1.794056,0.334163,0.094069,0.177460,-5.645988,27.476475,-45.583687,-17.293055,0.05431521,-3.5049849,-3.5847585,0.37934175,0.032098547,-0.09238818
20231225 03:43:31,2.580663,-1.949911,-2.029888,0.067826,0.132421,0.069860,-6.006714,27.540424,-45.323509,-14.673079,-0.15617383,-3.1187305,-3.563633,0.13261677,0.12228697,0.020183899
20231225 03:43:31,2.244802,-1.719593,-1.688214,-0.258170,0.085546,-0.039871,-6.236580,27.145733,-45.300026,-8.956631,0.090470314,-2.4937625,-2.9548206,-0.19148982,0.1292541,0.16323659
20231225 03:43:31,1.793699,-1.671193,-0.809323,-0.552207,-0.030577,-0.148536,-6.334160,27.426266,-45.721230,-2.8264632,0.6441128,-2.0011945,-1.8409826,-0.5187737,0.031841982,0.24384342
20231225 03:43:31,1.255004,-1.707514,0.210444,-0.710943,-0.121132,-0.232699,-6.164093,27.522118,-44.788002,2.3953626,1.0456132,-1.78175,-0.51173407,-0.7175214,-0.08063141,0.23502646
20231225 03:43:31,0.732799,-1.704475,1.111980,-0.683244,-0.115805,-0.288097,-6.083797,28.569176,-45.123497,5.9519773,1.2025355,-1.7040721,0.668572,-0.7304807,-0.106632106,0.14632721
20231225 03:43:31,0.284254,-1.677142,1.796978,-0.487220,-0.031643,-0.326449,-5.950741,28.860619,-45.007210,8.876345,1.2110051,-1.7001365,1.5858622,-0.58532405,-0.040053852,-0.016233772
20231225 03:43:31,-0.168961,-1.566789,2.188387,-0.192119,0.069566,-0.346691,-6.235161,28.279591,-45.508018,11.616576,1.0738481,-1.6644522,2.1774533,-0.34855327,0.07092175,-0.19882293
20231225 03:43:31,-0.515111,-1.247870,2.003124,0.121093,0.164382,-0.346691,-6.093143,28.666046,-45.397850,13.217975,0.79312766,-1.4254661,2.1311803,-0.10750577,0.19861983,-0.37733346
20231225 03:43:31,-0.749521,-0.912139,1.328481,0.370385,0.236825,-0.324319,-5.777237,28.126999,-45.627464,14.865796,0.33433336,-1.1316695,1.6518404,0.06270179,0.31406,-0.5238567
20231225 03:43:31,-0.853968,-0.599747,0.456739,0.516338,0.279439,-0.279574,-5.873665,27.831863,-45.207237,16.31259,-0.22482401,-0.7709695,1.0290645,0.14491238,0.38504517,-0.60770947
20231225 03:43:31,-0.847083,-0.270144,-0.432419,0.571736,0.297550,-0.212457,-5.804131,27.841942,-45.609123,16.91505,-0.828644,-0.31234092,0.4231016,0.16735071,0.40569136,-0.6223465
20231225 03:43:31,-0.655539,-0.053781,-1.194491,0.547233,0.294354,-0.132556,-5.506157,27.112854,-45.826515,15.901547,-1.3215134,0.061727345,-0.1496405,0.17436612,0.37541828,-0.5634495
20231225 03:43:31,-0.382555,-0.011890,-1.768872,0.446025,0.253871,-0.062243,-5.611935,26.914585,-45.680641,14.546216,-1.660087,0.20470908,-0.63053167,0.16027774,0.3015511,-0.439837
20231225 03:43:31,-0.089981,-0.058143,-2.156591,0.300072,0.181427,-0.001518,-5.154392,26.953884,-46.080574,11.387894,-1.8619227,0.15429643,-1.0307189,0.13841978,0.199056,-0.27474615
20231225 03:43:31,0.233383,-0.233079,-2.356210,0.133878,0.105787,0.040030,-5.196648,27.036976,-45.416573,8.055363,-1.8820614,-0.12686774,-1.3913662,0.09907034,0.1073987,-0.101655155
20231225 03:43:31,0.507853,-0.324959,-2.381300,-0.025925,0.046128,0.064533,-5.003029,27.243473,-45.696053,4.504189,-1.7615364,-0.36535716,-1.6683757,0.041893646,0.047329918,0.054008752
20231225 03:43:31,0.790863,-0.399277,-2.334298,-0.169747,0.026952,0.082644,-4.775349,26.888081,-46.072502,1.7966143,-1.5405836,-0.5583577,-1.9306208,-0.022208065,0.03774703,0.18683569
20231225 03:43:31,0.999731,-0.500245,-2.022493,-0.285870,0.035474,0.093298,-5.393990,26.847954,-46.611931,0.8106231,-1.0672219,-0.71738005,-2.0001578,-0.091983184,0.0594874,0.28519148
20231225 03:43:31,1.155375,-0.522063,-1.465776,-0.366836,0.039736,0.099690,-4.951424,27.063515,-46.085701,-0.75420773,-0.43047774,-0.7453646,-1.8295,-0.15443063,0.07730874,0.3462684
20231225 03:43:31,1.332075,-0.538970,-0.953822,-0.411581,0.036540,0.093298,-4.869972,27.534912,-45.579781,-1.5099674,0.14824122,-0.7521946,-1.6359745,-0.20604463,0.08340411,0.36722258
20231225 03:43:31,1.415558,-0.574625,-0.472107,-0.433953,0.026952,0.075187,-5.276295,27.507542,-45.849983,-0.9823049,0.6167624,-0.74775684,-1.3412665,-0.25185367,0.0748016,0.36016965
20231225 03:43:31,1.468482,-0.630381,-0.007025,-0.429692,0.006710,0.042161,-4.684933,27.454498,-45.572701,-1.6733855,1.0179075,-0.77076787,-1.0135528,-0.28714633,0.05306815,0.32224435
20231225 03:43:31,1.548737,-0.633929,0.395619,-0.389208,-0.018858,-0.013237,-4.870739,27.918690,-46.140724,-1.647774,1.3657231,-0.7515251,-0.7374197,-0.30298868,0.020135984,0.2462418
20231225 03:43:31,1.543150,-0.602132,0.547400,-0.311438,-0.016728,-0.081419,-4.931690,28.195515,-46.025429,-1.0155873,1.4721757,-0.69926304,-0.60478127,-0.28966194,0.0063806497,0.14216338
20231225 03:43:31,1.392620,-0.544867,0.666875,-0.200642,0.018429,-0.148536,-5.019150,27.995399,-45.611336,0.94935125,1.4533982,-0.5981853,-0.40626353,-0.24733256,0.023222927,0.019760095
20231225 03:43:31,1.089391,-0.332670,0.729965,-0.071735,0.055716,-0.199673,-5.268482,28.178226,-46.697517,3.6264083,1.289075,-0.3460263,-0.16656798,-0.18483642,0.052342728,-0.10347894
20231225 03:43:31,0.716048,-0.081677,0.692230,0.059303,0.083415,-0.230568,-4.816952,28.488808,-46.177406,5.690304,0.9963778,-0.08129505,0.012760818,-0.11616744,0.08518716,-0.2132607
20231225 03:43:31,0.382535,0.231771,0.541829,0.174361,0.081284,-0.234829,-4.913761,28.385555,-46.037666,7.6734614,0.64754474,0.22546466,0.07341471,-0.051744163,0.09499659,-0.29437488
20231225 03:43:31,0.169037,0.565863,0.069491,0.250001,0.075958,-0.218849,-4.967934,28.007328,-46.281456,9.23231,0.12910034,0.56866235,-0.14246391,-0.006336853,0.10167594,-0.33836007
20231225 03:43:31,0.074037,0.825311,-0.310969,0.291549,0.067435,-0.196477,-4.668156,28.220203,-46.426338,9.546733,-0.2587862,0.8488518,-0.33183736,0.020873383,0.09841295,-0.35589203
20231225 03:43:31,0.046514,1.048172,-0.817028,0.313921,0.074892,-0.177301,-4.360832,27.394249,-46.369362,10.40829,-0.73854524,1.122224,-0.6071167,0.028418943,0.11231039,-0.36494914
20231225 03:43:32,-0.040951,1.187853,-1.193542,0.324575,0.113245,-0.151732,-4.458027,27.482887,-46.510078,11.741622,-1.1523911,1.31459,-0.7377883,0.038528517,0.15540487,-0.3655607
20231225 03:43:32,-0.156014,1.242915,-1.477394,0.320314,0.162251,-0.125098,-4.846031,27.453671,-46.512032,13.647842,-1.499881,1.4263755,-0.7812091,0.04090125,0.20732617,-0.35640755
20231225 03:43:32,-0.238290,1.217004,-1.550200,0.302203,0.204865,-0.092073,-4.591080,27.191452,-46.626366,14.016491,-1.6072351,1.4150254,-0.7547672,0.05204709,0.24540013,-0.32982078
20231225 03:43:32,-0.239255,1.106374,-1.554714,0.271308,0.215518,-0.059047,-4.679306,27.375107,-46.773201,14.143019,-1.5958731,1.3083581,-0.74104893,0.060911544,0.24782933,-0.28827363
20231225 03:43:32,-0.187386,0.974222,-1.606930,0.226563,0.218714,-0.011106,-4.399261,26.455982,-46.978355,13.827814,-1.5842769,1.1875196,-0.80365306,0.07853209,0.23897031,-0.22503844
20231225 03:43:32,-0.091346,0.821494,-1.554956,0.162642,0.198473,0.034704,-4.214607,26.567463,-47.251732,12.604891,-1.4484159,1.0146903,-0.8478409,0.090232596,0.20551291,-0.14152877
20231225 03:43:32,-0.000637,0.647116,-1.424555,0.082741,0.151597,0.077318,-4.380566,26.262245,-46.429634,11.187659,-1.2401217,0.7945407,-0.8523543,0.093577586,0.14802289,-0.04254799
20231225 03:43:32,0.181491,0.535605,-1.293607,-0.002487,0.100461,0.113539,-3.887165,26.681622,-46.854012,8.903988,-0.9925092,0.64409375,-0.9293138,0.0833087,0.091002166,0.057461403
20231225 03:43:32,0.422133,0.388824,-1.123834,-0.071735,0.064239,0.133781,-3.826218,26.404789,-46.969322,5.7299633,-0.66367304,0.42622703,-1.0264499,0.063356526,0.05931258,0.13293031
20231225 03:43:32,0.800309,0.220290,-0.959338,-0.120741,0.047193,0.120997,-3.774612,26.224831,-47.358971,2.3421004,-0.26352495,0.17849627,-1.2248715,0.023110077,0.052826807,0.16828236
20231225 03:43:32,1.130700,0.086222,-0.848601,-0.138851,0.081284,0.076252,-3.562294,26.237591,-47.089745,-0.42847812,0.05065769,-0.028840497,-1.4126587,-0.021968938,0.0932593,0.15645689
20231225 03:43:32,1.335882,0.082738,-0.702693,-0.130329,0.161186,-0.005780,-3.578423,26.989517,-47.005028,-0.8850571,0.3253287,-0.047939524,-1.4748781,-0.07641208,0.16786803,0.097919166
20231225 03:43:32,1.241587,0.107862,-0.412210,-0.107956,0.244283,-0.112314,-3.402733,27.005978,-47.272285,1.3315328,0.5012333,0.056593843,-1.2116303,-0.14701717,0.24335656,0.0049164146
20231225 03:43:32,0.882924,0.354421,-0.055425,-0.081323,0.293289,-0.202869,-3.677803,26.328083,-47.498711,5.190277,0.5323131,0.36924848,-0.72265613,-0.21158606,0.29558912,-0.0889938
20231225 03:43:32,0.397532,0.663778,0.226307,-0.047232,0.310334,-0.267855,-3.226658,26.830547,-47.259071,8.556059,0.38050154,0.6694611,-0.217974,-0.2556042,0.32593647,-0.16843055
20231225 03:43:32,-0.141277,1.066127,0.388370,0.003905,0.330576,-0.294489,-3.332432,26.632275,-47.113228,12.621336,0.05660467,0.9796694,0.20205107,-0.26507074,0.3660369,-0.233637
20231225 03:43:32,-0.561420,1.581214,0.394187,0.059303,0.350817,-0.272117,-2.944809,26.853386,-47.391747,14.877731,-0.33544022,1.3849435,0.42536741,-0.23518726,0.39944595,-0.2651799
20231225 03:43:32,-0.934180,2.206480,0.250587,0.073153,0.344425,-0.205000,-2.998981,26.475155,-47.635521,18.28648,-0.8864746,1.8824737,0.49095514,-0.19895804,0.39106953,-0.23661292
20231225 03:43:32,-1.276906,3.073270,0.064359,0.026277,0.303942,-0.080354,-2.840839,26.109688,-47.610100,20.4626,-1.5288669,2.6297526,0.5181083,-0.13637662,0.3135265,-0.120954484
20231225 03:43:32,-1.392707,3.601537,-0.289203,-0.106891,0.249609,0.085840,-2.538101,26.688869,-46.841072,20.37683,-2.0343533,3.2050433,0.3926723,-0.061792552,0.18857752,0.08783561
20231225 03:43:32,-1.081362,3.550883,-0.418755,-0.280543,0.230433,0.247773,-2.292500,26.523514,-47.229744,16.302507,-1.74324,3.3548143,0.18371645,9.614378E-4,0.12279416,0.32966185
20231225 03:43:32,-0.391647,3.161083,-0.074847,-0.426495,0.281570,0.329805,-2.274570,26.713554,-47.241966,10.108788,-0.68277174,3.09869,-0.03755161,-0.011609018,0.19926733,0.507303
20231225 03:43:32,0.181347,2.610878,0.746919,-0.515985,0.336968,0.309564,-1.692940,26.949272,-47.519524,6.151375,0.5159317,2.5617528,0.15575117,-0.11412014,0.2869479,0.5706296
20231225 03:43:32,0.331296,1.955313,1.564105,-0.554337,0.379582,0.224336,-1.480625,26.962032,-47.250282,6.3243165,1.2055936,1.8683752,0.7190691,-0.26130968,0.32769868,0.5186388
20231225 03:43:32,0.079782,1.107926,2.471723,-0.504266,0.448830,0.139108,-1.505714,27.618935,-47.159447,8.351878,1.5012721,0.9133899,1.738931,-0.34407586,0.3846677,0.37044784
20231225 03:43:32,-0.483700,0.232066,3.407387,-0.352986,0.512750,0.105017,-1.196587,27.734947,-47.029991,10.925577,1.386013,-0.16065976,3.03891,-0.28898397,0.44380692,0.19585183
20231225 03:43:32,-1.088477,-0.444975,4.246123,-0.128198,0.515946,0.141239,-0.959946,27.474579,-47.412544,13.002719,1.0982358,-1.054383,4.2360153,-0.09683946,0.4676921,0.08077633
20231225 03:43:32,-1.347791,-1.062780,4.329421,0.111505,0.437111,0.248839,-0.581287,27.600662,-47.684944,13.1128435,0.80199194,-1.7030791,4.5872507,0.1676018,0.42468056,0.07767716
20231225 03:43:32,-1.062326,-1.684008,3.889760,0.289418,0.267720,0.377746,-0.626110,27.125565,-47.654381,11.498839,0.90130967,-2.1414282,4.183592,0.4036584,0.27944183,0.15346077
20231225 03:43:32,-0.322502,-2.228919,2.757082,0.339490,0.085546,0.467235,-0.607796,27.123714,-47.386147,7.4689083,1.0951458,-2.391864,2.8310275,0.51090884,0.09472864,0.24444339
20231225 03:43:32,0.464625,-2.695383,1.659908,0.259589,-0.096629,0.486411,-0.404442,27.041458,-47.110802,2.7348068,1.243129,-2.707786,1.353842,0.46049017,-0.096618876,0.30915734
20231225 03:43:32,1.108422,-3.034046,0.721287,0.104048,-0.241516,0.446993,-0.926273,27.104576,-47.789970,-2.472306,1.227486,-3.0663571,-0.024442255,0.30081135,-0.23323224,0.33033895
20231225 03:43:32,1.743411,-3.237904,0.032546,-0.080257,-0.312894,0.346851,-0.758778,26.642239,-47.490181,-8.377712,1.2558619,-3.4348626,-1.261955,0.0786863,-0.26944444,0.29722518
20231225 03:43:32,2.238197,-3.114367,-0.314080,-0.249648,-0.300110,0.191310,-1.199158,27.176758,-47.663414,-11.21638,1.3596442,-3.4966786,-1.9658637,-0.14769894,-0.22241527,0.24241391
20231225 03:43:32,2.403632,-2.806468,-0.276449,-0.386012,-0.234059,-0.000453,-1.623791,27.151237,-48.201851,-9.685479,1.5355505,-3.1905313,-1.9479548,-0.34870875,-0.16279577,0.17991756
20231225 03:43:32,2.018415,-2.393050,-0.017754,-0.491482,-0.153092,-0.195411,-1.532993,27.525764,-47.421593,-3.9723241,1.5098965,-2.5549073,-1.2963717,-0.52406347,-0.12150043,0.10962039
20231225 03:43:32,1.196202,-1.905437,0.538081,-0.550076,-0.071060,-0.342430,-1.384197,27.257168,-47.670509,3.0221167,1.3172907,-1.8873446,-0.15957275,-0.6459935,-0.077659495,0.03650728
20231225 03:43:32,0.223259,-1.338118,1.159676,-0.553272,0.000318,-0.430853,-1.769634,27.786140,-47.039024,9.657771,0.95043445,-1.3929278,0.99168175,-0.6979098,-0.028735284,-0.030173182
20231225 03:43:32,-0.785447,-0.769454,1.702248,-0.508527,0.056781,-0.456422,-1.479202,28.095882,-47.458275,14.929405,0.40025622,-1.1422045,1.9625568,-0.67785823,0.016119014,-0.08543038
20231225 03:43:32,-1.866777,-0.241653,2.255362,-0.407319,0.089807,-0.391436,-1.336803,28.290455,-47.067635,19.024948,-0.2960199,-1.1462528,2.8784614,-0.561521,0.04709688,-0.10029507
20231225 03:43:32,-2.612577,0.118259,2.674535,-0.243256,0.087676,-0.247614,-1.479973,28.479660,-48.019203,21.307934,-0.7948859,-1.2223713,3.491494,-0.34852767,0.05873975,-0.081429556
20231225 03:43:32,-2.918921,0.284076,2.708041,-0.033382,0.062108,-0.045197,-1.213097,28.678761,-47.225716,21.408997,-1.0282792,-1.2220063,3.6504345,-0.06464107,0.056911282,-0.034152344
20231225 03:43:32,-2.578382,0.193164,2.163061,0.186080,0.043997,0.168938,-1.346531,28.579212,-47.622459,19.92308,-0.9025456,-0.9897187,3.1167002,0.23465538,0.058232747,0.0046230406
20231225 03:43:32,-1.232878,-0.287360,0.676491,0.418326,0.054651,0.385203,-1.427601,27.915928,-47.847923,13.931357,-0.45874456,-0.6050009,1.355201,0.5527426,0.06842854,-5.2922964E-4
20231225 03:43:32,-0.718845,-0.518940,0.185630,0.462005,0.053585,0.417164,-1.427601,27.915928,-47.847923,11.574303,-0.34209928,-0.6362326,0.69503033,0.6101992,0.06446478,-0.01611656
20231225 03:43:32,0.048319,-0.928065,-0.752004,0.496096,0.039736,0.432079,-0.987225,27.381409,-47.674675,6.855652,-0.42290622,-0.85805374,-0.48148158,0.6509168,0.044177398,-0.054389924
20231225 03:43:32,0.623425,-1.315497,-1.607183,0.463070,0.019494,0.392661,-1.172649,27.653706,-47.962242,2.2611308,-0.77595663,-1.282484,-1.493902,0.60024863,0.019703412,-0.089533776
20231225 03:43:32,0.993465,-1.439734,-2.341689,0.385300,0.018429,0.322348,-1.499321,27.155769,-47.799019,-0.438246,-1.2954973,-1.5372024,-2.2213535,0.4907574,0.019246656,-0.108979926
20231225 03:43:32,1.153195,-1.502149,-2.769091,0.291549,0.061043,0.241381,-1.032047,26.906311,-47.644096,-2.1846268,-1.6617427,-1.6895322,-2.5775888,0.3685576,0.062706396,-0.09623821
20231225 03:43:32,1.096774,-1.392098,-2.862064,0.199929,0.111114,0.154023,-1.031666,26.714420,-47.363640,-0.3393157,-1.7528722,-1.4764524,-2.5407639,0.24321894,0.1114135,-0.07560857
20231225 03:43:32,0.861244,-1.217828,-2.688175,0.113636,0.157989,0.075187,-0.919495,26.449520,-48.149040,3.7957487,-1.6085687,-1.0661393,-2.2270696,0.120419644,0.15808119,-0.053902816
20231225 03:43:32,0.466594,-0.970795,-2.221448,0.043323,0.160120,0.022985,-0.670937,26.650467,-47.623802,7.5888677,-1.3435063,-0.68512595,-1.644175,0.027480634,0.15979856,-0.033136178
20231225 03:43:32,0.029953,-0.731464,-1.743873,-0.009944,0.120702,0.005939,-0.971096,26.629478,-47.759407,11.462021,-1.1825728,-0.43695506,-1.0179218,-0.020885527,0.11592048,-0.0038835295
20231225 03:43:32,-0.314807,-0.517965,-1.424427,-0.050428,0.069566,0.021920,-0.891834,26.350800,-47.606453,13.207652,-1.1634531,-0.29257843,-0.5818794,-0.029106677,0.055765927,0.041942976
20231225 03:43:32,-0.479612,-0.338270,-1.252542,-0.094107,0.021625,0.058141,-0.909763,26.160759,-47.594215,14.005798,-1.1660042,-0.16674963,-0.37750363,-0.023044534,-0.0057561677,0.10468085
20231225 03:43:32,-0.530224,-0.333274,-1.082249,-0.145244,-0.023120,0.096494,-0.512405,26.093113,-47.317924,13.438577,-1.0732412,-0.20903464,-0.25239226,-0.022476472,-0.06446187,0.1744608
20231225 03:43:32,-0.548235,-0.382405,-0.873479,-0.203838,-0.073191,0.128454,-0.910149,26.352650,-47.874702,13.311691,-0.9273069,-0.3102576,-0.12509584,-0.03674274,-0.12647113,0.2455744
20231225 03:43:32,-0.514483,-0.528008,-0.598218,-0.253909,-0.134981,0.145500,-0.573738,26.561832,-47.483086,11.366817,-0.7011826,-0.5063732,0.014636278,-0.06263321,-0.19038115,0.29851648
20231225 03:43:32,-0.421147,-0.696625,-0.264977,-0.274151,-0.186118,0.140173,-0.767742,26.547222,-47.484062,10.597946,-0.39983267,-0.7091335,0.18601586,-0.08653747,-0.23783576,0.31183183
20231225 03:43:32,-0.349822,-0.801829,0.011392,-0.252844,-0.219144,0.123128,-0.785294,26.165291,-47.191368,9.841225,-0.16993378,-0.83617777,0.3406463,-0.08836261,-0.26165742,0.28531092
20231225 03:43:32,-0.322542,-0.860844,0.234105,-0.189988,-0.248974,0.101821,-1.085838,26.336193,-47.607430,9.639143,-0.012811765,-0.9125245,0.4945334,-0.05632136,-0.2789798,0.23083532
20231225 03:43:32,-0.240802,-0.957736,0.219507,-0.105826,-0.271346,0.077318,-1.022697,26.809441,-47.369759,8.368002,0.04196626,-0.99315655,0.42760766,-0.007042326,-0.28661564,0.15691221
20231225 03:43:32,-0.072827,-0.892560,-0.037970,-0.034447,-0.286261,0.042161,-1.489590,26.867012,-47.244179,7.730456,-0.009446451,-0.8898043,0.10998613,0.025092728,-0.29057908,0.08256255
20231225 03:43:32,0.111080,-0.791030,-0.364369,0.006036,-0.290522,-0.006845,-1.498936,26.963882,-47.518547,6.642808,-0.120005935,-0.7551157,-0.27128756,0.01913518,-0.28828615,0.015007412
20231225 03:43:32,0.225886,-0.629268,-0.690248,0.007101,-0.301176,-0.063308,-1.913456,26.457718,-47.221672,6.3362846,-0.30225378,-0.5733181,-0.5900604,-0.022714078,-0.2959949,-0.025684996
20231225 03:43:32,0.267072,-0.405002,-0.860328,-0.013140,-0.315025,-0.122968,-1.771820,27.036060,-47.392006,5.73943,-0.43601888,-0.34221324,-0.7442304,-0.08226571,-0.3079073,-0.051036425
20231225 03:43:32,0.235049,-0.143391,-0.983810,-0.034447,-0.309698,-0.181562,-1.975174,27.118320,-47.667320,6.793012,-0.5814057,-0.059429623,-0.80268925,-0.13797332,-0.2976709,-0.06722204
20231225 03:43:32,0.129051,0.154904,-0.942982,-0.035513,-0.270280,-0.230568,-2.256641,26.903595,-47.254189,7.5555253,-0.6470046,0.23586503,-0.71348697,-0.17739913,-0.2532753,-0.09704569
20231225 03:43:32,0.036813,0.442840,-0.758098,-0.007814,-0.224471,-0.278509,-2.408005,26.614002,-47.638710,8.663639,-0.5949449,0.51219565,-0.55125123,-0.19663787,-0.19784085,-0.1487654
20231225 03:43:32,-0.117959,0.749599,-0.551913,0.041192,-0.183987,-0.331776,-2.381111,26.899063,-47.657051,10.011766,-0.58140755,0.7931409,-0.33801413,-0.20587401,-0.14031719,-0.2194059
20231225 03:43:32,-0.316140,1.095322,-0.437908,0.107244,-0.147765,-0.385043,-2.539257,27.264534,-47.682487,12.127571,-0.6938073,1.1029714,-0.16437581,-0.2066766,-0.07617444,-0.2995268
20231225 03:43:32,-0.639380,1.421611,-0.355106,0.173296,-0.119001,-0.428723,-2.689854,26.591167,-47.506065,14.946501,-0.9326155,1.3531328,0.064836904,-0.1982522,-0.009671226,-0.37309736
20231225 03:43:32,-1.040771,1.736068,-0.385151,0.224432,-0.088106,-0.448964,-2.768734,26.677956,-47.378548,18.534187,-1.3478185,1.5512269,0.26858497,-0.18113326,0.067804046,-0.41999257
20231225 03:43:32,-1.555089,2.084952,-0.370828,0.264915,-0.039100,-0.422331,-2.780270,26.024746,-48.005867,22.396126,-1.8416466,1.6862947,0.55103534,-0.13946176,0.1515714,-0.43809193
20231225 03:43:32,-2.009813,2.336823,-0.338999,0.300072,0.017364,-0.337103,-2.901405,26.194630,-47.214333,24.28459,-2.2398386,1.7287358,0.8055859,-0.06355685,0.20180608,-0.4299265
20231225 03:43:32,-2.254051,2.300643,-0.106052,0.327771,0.039736,-0.209261,-2.998596,26.283268,-47.355064,24.975124,-2.2542582,1.5157105,1.0711805,0.04735729,0.1923698,-0.38448143
20231225 03:43:32,-2.255262,2.030066,0.118552,0.333098,0.005645,-0.065439,-2.610973,26.504375,-47.633568,23.255539,-1.998923,1.2429343,1.2599105,0.1697281,0.11118142,-0.29334265
20231225 03:43:32,-1.935186,1.634687,0.332728,0.320314,-0.088106,0.061337,-2.664379,25.742371,-47.316429,20.550821,-1.4666859,1.0145831,1.2737962,0.27813745,-0.026056992,-0.1810151
20231225 03:43:32,-1.396911,1.182984,0.264707,0.297941,-0.206360,0.151892,-2.745831,25.270973,-47.822350,17.310213,-0.9793087,0.8286338,0.979429,0.34934098,-0.1753616,-0.08601381
20231225 03:43:32,-0.782828,0.819754,-0.004456,0.254262,-0.313960,0.201963,-2.870304,25.266441,-48.225212,13.2639675,-0.6374392,0.7044985,0.4647541,0.36252528,-0.30513832,-0.015773684
20231225 03:43:32,-0.119968,0.383928,-0.286642,0.196733,-0.378946,0.206225,-3.415302,25.027023,-47.411171,8.659205,-0.32196435,0.3953407,-0.13207984,0.311153,-0.37985513,0.02153287
20231225 03:43:32,0.433305,0.141876,-0.383336,0.150923,-0.377881,0.163611,-3.761440,25.106606,-48.357613,5.169512,-0.0014035106,0.1538818,-0.58598006,0.2284458,-0.37826392,0.017814696
20231225 03:43:32,0.803443,-0.165682,-0.272064,0.131747,-0.332071,0.083710,-3.575253,24.450527,-47.509102,2.2112865,0.35401392,-0.19076815,-0.76449317,0.14343582,-0.332903,-0.028704822
20231225 03:43:32,0.989036,-0.413874,-0.017632,0.161577,-0.263888,-0.036675,-3.733395,24.815998,-47.534538,2.0934136,0.6809086,-0.44164556,-0.6958016,0.08214751,-0.26920372,-0.1326243
20231225 03:43:32,0.893785,-0.316639,0.361594,0.238282,-0.205294,-0.174105,-4.333721,24.774017,-47.805717,5.014541,0.8927759,-0.3154128,-0.34697908,0.049281083,-0.204368,-0.27772933
20231225 03:43:32,0.683962,-0.177667,0.510115,0.339490,-0.172268,-0.298750,-4.111671,24.498016,-46.981667,8.640821,0.8527807,-0.16791117,-0.10803592,0.03862311,-0.13784249,-0.43059862
20231225 03:43:32,-0.094670,0.449561,0.624143,0.450286,-0.155223,-0.389305,-4.097080,24.513645,-48.188271,12.103089,0.3477749,0.3685175,0.415268,0.03106445,-0.068168536,-0.5676038
20231225 03:43:32,-0.479008,1.258930,0.409719,0.551494,-0.120066,-0.441507,-3.939320,24.340069,-48.443306,14.518595,-0.1729053,1.1123621,0.4279431,0.015359938,0.017843,-0.6792563
20231225 03:43:32,-0.834891,2.352221,0.126831,0.627134,-0.060407,-0.444703,-4.281349,24.210281,-47.634422,18.59378,-0.8897195,2.1109526,0.35123298,8.4227324E-4,0.13604653,-0.7449895
20231225 03:43:32,-1.277581,3.458203,-0.243575,0.617546,-0.016728,-0.377586,-4.283157,23.268314,-47.706917,23.194887,-1.8992616,3.0819612,0.32249993,0.005114436,0.20990172,-0.7051045
20231225 03:43:32,-1.670675,4.293778,-0.603689,0.462005,-0.041231,-0.240156,-4.283157,23.268314,-47.706917,26.48344,-2.8466249,3.7993932,0.32016513,0.03962165,0.14106269,-0.50017476
20231225 03:43:32,-1.830617,4.572309,-0.587883,0.166903,-0.142439,-0.059047,-4.319016,22.888237,-47.682472,25.211342,-2.921008,4.0663724,0.41263828,0.08139847,-0.07953545,-0.14284964
20231225 03:43:32,-1.457810,4.180340,-0.108279,-0.159093,-0.213817,0.112474,-4.513020,22.873627,-47.683449,19.35272,-1.8481625,3.8244967,0.41950727,0.054329094,-0.25543115,0.22960016
20231225 03:43:32,-0.893467,3.188630,1.138114,-0.381751,-0.219144,0.241381,-4.212856,22.894619,-47.547859,13.994614,-0.14614844,2.8869562,0.8975505,-0.03557034,-0.29103076,0.47696668
20231225 03:43:32,-0.508843,1.794292,2.446996,-0.446737,-0.177595,0.348981,-4.485741,22.966797,-47.421303,11.667238,1.080858,1.5534892,1.866073,-0.09482868,-0.2414253,0.57836336
20231225 03:43:32,-0.286113,0.350381,3.623463,-0.413711,-0.189314,0.440601,-4.704453,23.417210,-47.050972,10.718051,1.7341576,0.16595204,3.0748773,-0.094937846,-0.23689847,0.6185765
20231225 03:43:32,0.004164,-1.045529,4.439539,-0.329549,-0.301176,0.495999,-5.120121,23.486706,-47.595543,9.072928,2.0389087,-1.1154457,4.048935,-0.06315331,-0.319159,0.62839127
20231225 03:43:32,0.578295,-2.111717,4.681245,-0.195315,-0.470566,0.495999,-5.544373,23.269299,-47.853508,6.2034726,2.3518186,-2.079174,4.2612686,0.010904938,-0.46129343,0.576927
20231225 03:43:32,1.174780,-2.928834,4.143723,-0.007814,-0.578166,0.443797,-5.560116,23.829338,-47.488304,1.6600813,2.5060923,-2.8770006,3.502151,0.13511713,-0.5600006,0.43119067
20231225 03:43:32,1.742879,-3.488428,3.210684,0.205256,-0.569643,0.343655,-5.675236,23.727940,-47.616814,-3.42389,2.5605235,-3.5163214,2.161,0.27961084,-0.57278275,0.21359658
20231225 03:43:33,2.246152,-3.780271,2.071595,0.411933,-0.452455,0.196637,-5.647957,23.821110,-47.354668,-8.253733,2.4994895,-3.9708784,0.50688803,0.41129777,-0.51164937,-0.042114407
20231225 03:43:33,2.450693,-3.775459,0.931831,0.585585,-0.261758,0.028312,-6.435127,22.917572,-47.705437,-10.298361,2.0976002,-4.1246934,-0.8901215,0.500689,-0.39780602,-0.28116667
20231225 03:43:33,2.491602,-3.459990,-0.012980,0.693185,-0.063603,-0.144275,-6.541286,22.911190,-47.840050,-11.263055,1.4929113,-3.9474268,-1.929086,0.49743962,-0.26970485,-0.50506383
20231225 03:43:33,2.239026,-2.877224,-0.747706,0.683597,0.041867,-0.304077,-6.240742,22.740295,-47.423988,-8.843282,0.6694412,-3.3773096,-2.3648868,0.32918578,-0.16306499,-0.67198795
20231225 03:43:33,1.654387,-2.122392,-1.397233,0.541906,0.056781,-0.410612,-5.870277,22.387585,-47.129341,-3.30608,-0.2629283,-2.4801455,-2.2435598,0.054262877,-0.06670968,-0.6760886
20231225 03:43:33,0.989486,-1.436613,-1.787594,0.288353,0.007775,-0.458552,-6.569218,21.300392,-47.333260,4.630122,-0.94296694,-1.5384644,-1.7710536,-0.20622674,-0.019863961,-0.5000496
20231225 03:43:33,0.373020,-0.861184,-1.908429,-0.026990,-0.055080,-0.448964,-6.382374,22.161949,-47.253670,11.442053,-1.3062246,-0.7082788,-1.2614796,-0.3818319,-0.025012638,-0.21813643
20231225 03:43:33,-0.175638,-0.443901,-1.514906,-0.322091,-0.093433,-0.386109,-6.146114,22.093464,-47.916695,15.817629,-1.2394027,-0.2487875,-0.66087914,-0.4848714,-0.072326005,0.050275803
20231225 03:43:33,-0.601377,-0.292322,-0.708036,-0.524508,-0.104086,-0.290228,-6.507229,22.349308,-47.936989,18.453001,-0.87190104,-0.2591658,0.06429008,-0.54464114,-0.12917754,0.23072153
20231225 03:43:33,-0.902336,-0.309824,0.237283,-0.586298,-0.082779,-0.183693,-6.416431,22.723835,-47.156731,18.677385,-0.44462258,-0.47173905,0.8592036,-0.5351494,-0.1420508,0.30032623
20231225 03:43:33,-1.012489,-0.419066,1.037569,-0.513854,-0.028446,-0.084615,-6.425396,22.628815,-47.150612,18.337858,-0.05242783,-0.690081,1.5068307,-0.4403966,-0.092570096,0.28054938
20231225 03:43:33,-1.001289,-0.496610,1.535354,-0.341268,0.043997,-0.003649,-6.611202,23.093002,-47.718636,17.769354,0.23732102,-0.80022603,1.8830233,-0.27142045,-0.0034110919,0.20295368
20231225 03:43:33,-0.842716,-0.524063,1.660935,-0.146309,0.100461,0.049619,-6.265831,23.397202,-47.333153,16.011343,0.44122416,-0.78202116,1.8804243,-0.091868125,0.076839134,0.10827431
20231225 03:43:33,-0.619925,-0.552137,1.370128,0.016689,0.136682,0.069860,-6.671768,23.177944,-47.322868,15.365433,0.47713223,-0.7349478,1.5125818,0.045762807,0.1307918,0.012448568
20231225 03:43:33,-0.415793,-0.439433,0.849681,0.120028,0.156924,0.074122,-6.356247,22.830784,-47.832954,14.223945,0.32380295,-0.54858756,0.95945024,0.12365472,0.16010015,-0.059281386
20231225 03:43:33,-0.309220,-0.366401,0.279809,0.167969,0.178231,0.083710,-6.108070,23.223621,-47.588203,13.674367,0.021986768,-0.41609034,0.47108704,0.15951386,0.18375392,-0.09481089
20231225 03:43:33,-0.235785,-0.343855,-0.211613,0.176492,0.203799,0.105017,-6.416813,22.915722,-47.437187,13.723699,-0.28220397,-0.34109178,0.09384039,0.17653677,0.20701076,-0.0962496
20231225 03:43:33,-0.174716,-0.388488,-0.548557,0.155185,0.228302,0.140173,-6.065052,22.756752,-47.691261,12.916635,-0.493034,-0.3511544,-0.15978685,0.18684538,0.22621015,-0.06175822
20231225 03:43:33,-0.024279,-0.546127,-0.731156,0.113636,0.240021,0.177460,-6.074017,22.661732,-47.685143,11.7706,-0.528545,-0.49370742,-0.3764412,0.19109668,0.23338318,-0.0045297295
20231225 03:43:33,0.116342,-0.801089,-0.837614,0.063565,0.238956,0.210486,-5.767456,22.219555,-48.189110,9.749448,-0.5136321,-0.7568636,-0.5435866,0.18874677,0.23149501,0.06278607
20231225 03:43:33,0.369113,-1.097797,-0.851770,0.022016,0.233629,0.223270,-5.324509,22.243221,-47.382423,7.0395746,-0.36387172,-1.0821539,-0.75247794,0.17636284,0.23095307,0.11419724
20231225 03:43:33,0.591718,-1.379391,-0.914154,-0.002487,0.241087,0.216878,-5.703938,22.500912,-47.670967,5.7492046,-0.26811525,-1.3940607,-0.96040297,0.15780175,0.24326038,0.1339039
20231225 03:43:33,0.729186,-1.560956,-0.834289,-0.008879,0.247479,0.195571,-5.509548,22.323635,-47.389519,4.339046,-0.11859059,-1.600765,-1.0203745,0.13889511,0.25267005,0.13053112
20231225 03:43:33,0.784392,-1.621997,-0.783790,-0.014206,0.233629,0.167872,-5.094646,22.637909,-47.405907,3.3104389,-0.058345586,-1.6719604,-1.0420451,0.11692353,0.23940657,0.118509434
20231225 03:43:33,0.859480,-1.503111,-0.839037,-0.020598,0.219780,0.145500,-4.760811,22.288902,-47.647743,2.2415967,-0.07153708,-1.5710143,-1.1598878,0.09971316,0.22639704,0.10966867
20231225 03:43:33,0.973655,-1.407800,-0.818177,-0.031251,0.212322,0.120997,-5.112961,22.639759,-47.674156,1.1982069,-0.009501398,-1.5098294,-1.2492044,0.07915325,0.22082764,0.102798305
20231225 03:43:33,1.095870,-1.192415,-0.807797,-0.039774,0.195277,0.085840,-4.979523,22.739311,-47.277412,0.47675878,0.061408818,-1.3150809,-1.3471649,0.050064333,0.2030308,0.08617419
20231225 03:43:33,1.135818,-0.979216,-0.824445,-0.044035,0.193146,0.052815,-4.839691,22.375694,-47.520226,0.45975843,0.054159045,-1.1018689,-1.3931758,0.024486654,0.19869442,0.066846184
20231225 03:43:33,1.075462,-0.737540,-0.881779,-0.045101,0.215518,0.035769,-4.618027,22.291584,-46.976631,0.7634076,-0.033205926,-0.849197,-1.3843439,0.012321228,0.21947643,0.055704117
20231225 03:43:33,1.022547,-0.565593,-0.900710,-0.052558,0.245348,0.037900,-4.927536,22.367462,-47.386589,1.6004789,-0.06974715,-0.66323984,-1.3517821,0.0094015505,0.24930334,0.060258955
20231225 03:43:33,1.021238,-0.539285,-0.793430,-0.066408,0.244283,0.043226,-4.539528,22.396679,-47.384636,1.1362821,0.028957725,-0.63185775,-1.28491,0.0035981778,0.24925084,0.0754414
20231225 03:43:33,1.052457,-0.504908,-0.670846,-0.082388,0.213388,0.043226,-4.415440,22.593098,-47.262245,0.84965354,0.1482454,-0.59564614,-1.2306373,-0.008443337,0.21942712,0.08860902
20231225 03:43:33,1.105172,-0.440865,-0.588209,-0.101564,0.162251,0.041096,-4.646072,22.582188,-47.799706,0.79330695,0.24939722,-0.53512937,-1.2172909,-0.025137259,0.16969717,0.10231323
20231225 03:43:33,1.142734,-0.373371,-0.619810,-0.116479,0.114310,0.027246,-4.027431,22.622318,-47.260292,-0.30969745,0.23877099,-0.48159882,-1.2744769,-0.046409063,0.12253658,0.107013516
20231225 03:43:33,1.137883,-0.245223,-0.657445,-0.130329,0.087676,0.011266,-4.036396,22.527302,-47.254189,0.055476993,0.20392752,-0.347902,-1.2957946,-0.068682864,0.09507589,0.10758835
20231225 03:43:33,1.101744,-0.123656,-0.645793,-0.138851,0.077023,-0.007910,-4.257679,22.419521,-47.517296,0.77405983,0.19128287,-0.21287787,-1.2606752,-0.08950342,0.08292194,0.10185805
20231225 03:43:33,1.055079,0.096247,-0.584512,-0.133525,0.089807,-0.037740,-4.000919,23.099266,-47.559120,1.33646,0.20849258,0.030664666,-1.1902171,-0.10876435,0.092819236,0.079326764
20231225 03:43:33,0.949958,0.346042,-0.469743,-0.100499,0.135617,-0.068635,-4.230400,22.512691,-47.255165,2.912995,0.2327159,0.31280932,-1.0465525,-0.112566754,0.13583913,0.031757187
20231225 03:43:33,0.730993,0.559528,-0.304385,-0.054689,0.181427,-0.101661,-4.064060,22.626015,-47.796776,5.2471414,0.20963399,0.5690739,-0.792893,-0.11559862,0.1820427,-0.030357774
20231225 03:43:33,0.426552,0.858276,-0.212431,-0.018467,0.196342,-0.124033,-3.788605,23.112026,-47.289894,7.6403403,0.049620017,0.88453394,-0.5360264,-0.11925908,0.20159383,-0.07676967
20231225 03:43:33,0.115118,1.092093,-0.228220,0.001774,0.193146,-0.128295,-3.958282,22.824287,-47.942635,10.219196,-0.2111073,1.1133746,-0.3420014,-0.11854841,0.2035466,-0.09720646
20231225 03:43:33,-0.140572,1.381642,-0.247486,0.014559,0.201669,-0.114445,-3.754166,22.358246,-47.106377,12.549023,-0.45666432,1.3825402,-0.20797008,-0.10813675,0.21510725,-0.10392637
20231225 03:43:33,-0.345980,1.432673,-0.181784,0.036931,0.221910,-0.080354,-3.472698,22.572979,-47.519508,13.430527,-0.55856276,1.3974646,-0.030339621,-0.07303803,0.2339025,-0.10754664
20231225 03:43:33,-0.464057,1.311917,-0.128591,0.069957,0.236825,-0.031348,-3.296623,22.397549,-47.506294,14.131355,-0.58697337,1.2512147,0.1039779,-0.020048007,0.24541296,-0.10890897
20231225 03:43:33,-0.479013,1.215445,-0.345601,0.080610,0.279439,0.041096,-3.224140,22.773926,-46.994255,13.768105,-0.7469513,1.1910651,0.013915852,0.036730442,0.27701178,-0.08063486
20231225 03:43:33,-0.327404,1.022701,-0.470607,0.058238,0.297550,0.120997,-3.181503,22.498947,-47.377800,12.375794,-0.70504665,1.0386934,-0.14309248,0.09047583,0.28291944,-0.014186144
20231225 03:43:33,-0.097829,0.700750,-0.543040,-0.023794,0.265590,0.189179,-2.872372,22.614956,-47.248329,9.527345,-0.55373657,0.7401495,-0.31924176,0.10924329,0.24397433,0.10573073
20231225 03:43:33,0.313057,0.370747,-0.459608,-0.132459,0.206995,0.220074,-2.751240,22.445072,-48.039864,5.675943,-0.16993439,0.39731494,-0.5555011,0.07795367,0.19435644,0.22837229
20231225 03:43:33,0.696094,0.084366,-0.296355,-0.227275,0.148401,0.193441,-2.784531,22.623184,-47.381950,3.2628434,0.23436995,0.08577936,-0.72213423,-0.003962666,0.14778847,0.2926675
20231225 03:43:33,0.867463,-0.154823,-0.042039,-0.275216,0.140944,0.134846,-2.715382,22.825150,-48.064308,1.7319059,0.5691409,-0.17040987,-0.650348,-0.0914955,0.14802317,0.2887131
20231225 03:43:33,1.038753,-0.366992,0.431945,-0.230471,0.187819,0.045357,-2.766598,22.813221,-47.394188,1.2423416,1.0357375,-0.38252488,-0.4107814,-0.12859431,0.19471829,0.1905126
20231225 03:43:33,1.018369,-0.259905,0.688459,-0.077061,0.351883,-0.063308,-2.600258,22.926552,-47.935799,2.0470505,1.2090659,-0.26437846,-0.19751433,-0.09528546,0.35203934,-0.0017589331
20231225 03:43:33,0.781173,0.125478,1.013631,0.034800,0.457352,-0.117641,-2.105320,22.578373,-47.238304,5.4158125,1.2635968,0.11618939,0.14986187,-0.07633833,0.46254614,-0.13773656
20231225 03:43:33,0.061723,1.010647,1.171199,0.310725,0.635265,-0.249744,-1.727047,22.896347,-47.791176,10.870438,0.7819743,0.856835,0.58691055,-0.059408292,0.69177645,-0.47437716
20231225 03:43:33,-0.824959,2.131368,0.880378,0.379973,0.615024,-0.255071,-1.408573,22.915489,-47.387352,17.695494,-0.34289145,1.6638527,0.77523017,-0.11769089,0.71742547,-0.5616931
20231225 03:43:33,-1.710633,3.150628,0.299826,0.379973,0.589455,-0.218849,-1.162968,22.750137,-47.776024,21.02727,-1.7126544,2.468617,0.913888,-0.12820038,0.6948734,-0.5496993
20231225 03:43:33,-2.184117,3.653124,-0.127682,0.235086,0.488247,0.036834,-0.943489,21.915951,-47.585426,26.000998,-2.6988945,2.741097,0.91652286,-0.03673876,0.4768715,-0.29551947
20231225 03:43:33,-2.007114,3.628165,-0.203852,0.148793,0.437111,0.144435,-1.135303,22.651421,-47.233421,22.400192,-2.4582777,2.9641027,0.84943545,0.04428359,0.3839563,-0.1432571
20231225 03:43:33,-1.183126,3.170865,-0.024619,-0.136721,0.270916,0.387334,-0.714005,22.502529,-47.889351,14.516322,-1.362061,2.896437,0.5324227,0.17709209,0.1578957,0.28380403
20231225 03:43:33,-0.189773,2.553374,0.294795,-0.307176,0.203799,0.436340,-0.361858,22.151669,-47.862953,6.683167,-0.12022227,2.4941328,0.14989609,0.14597987,0.13932344,0.49067077
