Timestamp,linacce_x,linacce_y,linacce_z,gyro_x,gyro_y,gyro_z,X-magnetometer,Y-magnetometer,Z-magnetometer,Yaw, worldXAccel,worldYAccel,worldZAccel,worldXgyro,worldYgyro,worldZgyro
20240115 08:33:39,-0.327082,0.761333,-1.540191,-0.364346,0.065361,-0.004474,41.744362,-33.279179,1.893135,-91.50962,-1.7068588,1.090255,0.54412633,-0.12515515,0.037330072,0.367758
20240115 08:33:39,-0.289977,0.859682,-1.382195,-0.453835,0.120759,0.018963,41.471481,-33.206997,2.019684,-94.7614,-1.5547482,1.1163682,0.58392423,-0.1531445,0.08026698,0.4680419
20240115 08:33:39,-0.318990,0.699451,-0.942316,-0.480469,0.154850,0.024290,41.674446,-33.097370,2.014549,-97.812096,-1.1124574,0.84566057,0.5968909,-0.18419878,0.10900048,0.502098
20240115 08:33:39,-0.413968,0.751512,-0.466666,-0.481534,0.200660,0.017898,41.683796,-33.194233,2.288902,-98.95488,-0.74281144,0.79162693,0.7068998,-0.22077137,0.14596426,0.519468
20240115 08:33:39,-0.593755,0.756806,-0.229660,-0.455966,0.199595,0.013636,42.195511,-32.776707,2.132767,-97.807724,-0.6285659,0.7204012,0.86641246,-0.22617945,0.13994025,0.49608755
20240115 08:33:39,-0.753769,0.815849,-0.155086,-0.432528,0.193203,0.009375,41.850136,-33.080906,1.747276,-96.40758,-0.67156076,0.72711873,1.0350013,-0.2275364,0.12828931,0.47265446
20240115 08:33:39,-0.881740,0.869507,-0.118167,-0.399502,0.181484,0.009375,41.684181,-33.386127,2.569374,-96.64163,-0.72419333,0.7414718,1.1722181,-0.21406002,0.11634282,0.43775517
20240115 08:33:39,-0.936818,0.985248,-0.251483,-0.385653,0.178288,0.008310,41.640778,-32.727367,2.391975,-94.72845,-0.9029605,0.8760992,1.2708441,-0.20787007,0.11259548,0.4243284
20240115 08:33:39,-1.027640,0.970620,-0.329739,-0.346235,0.186810,0.008310,41.726433,-33.469219,1.905365,-92.28949,-1.0320807,0.8549298,1.343815,-0.19985417,0.11769814,0.3923873
20240115 08:33:39,-1.191729,1.048027,-0.498341,-0.321732,0.207052,0.015767,41.834396,-32.520870,2.112473,-88.21853,-1.3047847,0.9353315,1.509192,-0.19860882,0.12551884,0.37838408
20240115 08:33:39,-1.405510,1.083596,-0.671442,-0.303621,0.250731,0.050924,41.683411,-33.002354,2.008430,-86.03046,-1.580076,0.97445107,1.7062047,-0.19047095,0.14162678,0.3809582
20240115 08:33:39,-1.507868,1.115354,-0.697389,-0.280183,0.284822,0.110583,41.720425,-33.197933,2.825386,-86.497574,-1.6793973,0.97359174,1.8179771,-0.15615523,0.1422141,0.37645632
20240115 08:33:39,-1.693092,1.112689,-0.632959,-0.247157,0.297607,0.193680,41.922623,-32.704525,2.259315,-85.56575,-1.7145729,0.8961816,1.9835234,-0.08492446,0.121431455,0.3563922
20240115 08:33:39,-1.636646,1.067004,-0.614343,-0.227981,0.295476,0.244817,41.826199,-32.999668,2.679535,-88.53719,-1.6268969,0.8896822,1.9277914,-0.019855618,0.11957295,0.33431733
20240115 08:33:39,-1.324256,0.940211,-0.609069,-0.166191,0.277365,0.386508,42.019821,-32.793171,2.400040,-91.909065,-1.3845887,0.8729566,1.603469,0.16224924,0.09946193,0.2610311
20240115 08:33:39,-1.088806,0.865305,-0.629066,-0.141688,0.264581,0.418469,41.535385,-33.117527,2.818298,-97.08205,-1.2141676,0.8690752,1.3733909,0.24211822,0.12946095,0.21456422
20240115 08:33:39,-0.461532,0.621134,-0.848276,-0.090551,0.224098,0.460017,41.647934,-33.574314,2.313354,-99.867905,-1.0590897,0.73027784,0.7150881,0.34089443,0.12764798,0.13777101
20240115 08:33:39,-0.112268,0.420521,-0.991122,-0.075636,0.196399,0.463213,41.384018,-33.407116,2.433792,-104.599594,-0.996139,0.513418,0.35399586,0.377078,0.14530152,0.09785593
20240115 08:33:39,0.213722,0.258211,-1.158991,-0.068179,0.188941,0.454691,41.569057,-33.487530,2.440880,-106.23268,-1.0120853,0.33150786,0.011787578,0.38559467,0.1599617,0.08338107
20240115 08:33:39,0.540960,0.151531,-1.230932,-0.086290,0.211313,0.412077,41.648323,-33.766209,2.593826,-113.65964,-0.93090916,0.036318727,-0.27149156,0.3671836,0.24596241,0.090615734
20240115 08:33:39,0.685367,0.059235,-1.266169,-0.083094,0.276300,0.356679,41.693913,-33.674885,3.124207,-117.81979,-0.89969736,-0.16856058,-0.39920127,0.33730733,0.33029994,0.105997756
20240115 08:33:39,1.005589,0.050900,-1.215487,-0.067114,0.408403,0.295954,41.233803,-34.272366,2.890678,-120.14025,-0.6963866,-0.23592848,-0.6696124,0.3123025,0.4575057,0.14177498
20240115 08:33:39,1.049569,0.033417,-0.883744,-0.053264,0.464866,0.263993,41.207943,-33.231686,2.420586,-119.41554,-0.3351693,-0.17909555,-0.75195694,0.2841204,0.50256467,0.16553886
20240115 08:33:39,0.965132,-0.138011,-0.478388,-0.009585,0.546898,0.150001,41.650505,-33.016125,2.946800,-118.377464,0.017537296,-0.23559585,-0.803502,0.18169677,0.5588555,0.20018813
20240115 08:33:39,0.742285,-0.252799,-0.059390,0.021310,0.492565,0.081819,41.526802,-33.404438,3.104889,-117.36165,0.30164486,-0.2774633,-0.74289894,0.10728694,0.49531895,0.17884606
20240115 08:33:39,0.605837,-0.239339,0.105058,0.039421,0.387096,0.026421,41.816849,-32.902798,2.405174,-115.613014,0.38260376,-0.24818018,-0.655639,0.0570361,0.3868793,0.1332206
20240115 08:33:39,0.622278,-0.214564,0.090875,0.058597,0.282692,-0.016193,41.491596,-32.266880,2.360428,-114.943214,0.37197363,-0.22396483,-0.6573431,0.024896964,0.28057936,0.07583329
20240115 08:33:39,0.651610,-0.140437,-0.137098,0.069251,0.207052,-0.042827,41.953239,-32.436947,3.715828,-115.82789,0.16879538,-0.16343263,-0.6101756,0.0037655868,0.20287703,0.031994775
20240115 08:33:39,0.656064,-0.152695,-0.423986,0.060728,0.180418,-0.062003,41.766399,-33.298512,3.636238,-115.46782,-0.097782135,-0.18553841,-0.5693342,-0.020841453,0.17613395,0.029015983
20240115 08:33:39,0.596893,-0.149914,-0.522360,0.054336,0.180418,-0.073722,41.588524,-34.065037,3.550537,-115.131195,-0.21267793,-0.17579709,-0.49888772,-0.036673132,0.17710349,0.036400035
20240115 08:33:39,0.568816,0.001398,-0.573033,0.055401,0.203856,-0.095029,41.563812,-33.600025,3.921852,-113.78728,-0.27912116,-0.009669179,-0.41744685,-0.060039636,0.20223857,0.04474961
20240115 08:33:39,0.475378,0.044671,-0.553850,0.060728,0.239013,-0.091833,41.679321,-33.690510,4.330818,-114.07244,-0.29268944,0.04284022,-0.31262064,-0.055837877,0.23872855,0.05620255
20240115 08:33:39,0.502990,-0.024830,-0.376163,0.070316,0.232620,-0.104617,42.024311,-33.194424,4.435837,-114.06288,-0.11432965,-0.02593206,-0.3929696,-0.06220844,0.2323741,0.050005674
20240115 08:33:39,0.509586,0.032139,-0.310357,0.077774,0.212379,-0.117401,41.960403,-33.283901,3.637215,-113.10223,-0.055395156,0.031715598,-0.39158604,-0.07123649,0.21226114,0.0359848
20240115 08:33:39,0.521359,0.123822,-0.337016,0.078839,0.101583,-0.168538,41.775749,-33.395374,3.910599,-112.42161,-0.09005071,0.12671226,-0.37290674,-0.120938495,0.10260901,-0.0058441963
20240115 08:33:39,0.513288,0.378856,-0.474422,0.046879,0.002505,-0.190910,42.005997,-33.192570,4.167595,-110.29819,-0.25115955,0.39411402,-0.27620602,-0.15860602,0.0072137835,-0.017180808
20240115 08:33:39,0.442869,0.612256,-0.937468,-0.007454,-0.088049,-0.203695,42.190269,-32.889210,3.613739,-108.2424,-0.73539126,0.64061284,-0.10432909,-0.19078365,-0.082819015,-6.184168E-5
20240115 08:33:40,0.481130,0.596223,-1.277289,-0.040480,-0.123206,-0.212217,42.314354,-32.692783,3.736122,-107.23624,-1.0625232,0.6360371,-0.14082693,-0.21017006,-0.11766365,0.020098375
20240115 08:33:40,0.511649,0.611782,-1.561805,-0.124642,-0.148774,-0.237786,41.750275,-32.546581,3.720970,-105.86568,-1.3553311,0.6715956,-0.18178579,-0.2589452,-0.14174227,0.09530542
20240115 08:33:40,0.447995,0.577461,-1.764399,-0.186433,-0.102964,-0.239916,42.271332,-32.225918,3.839195,-103.4959,-1.5898565,0.7099381,-0.14098606,-0.27635425,-0.08983587,0.16512167
20240115 08:33:40,0.370353,0.603518,-1.677487,-0.250353,-0.026259,-0.239916,42.023159,-32.618763,3.594421,-103.31079,-1.5160037,0.77142733,-0.03472419,-0.30449575,-0.011526953,0.24645421
20240115 08:33:40,0.241366,0.567877,-1.246554,-0.276987,0.002505,-0.242047,42.438061,-32.304485,3.578033,-103.229744,-1.1251361,0.73619854,0.09309293,-0.32687148,0.01916385,0.27831155
20240115 08:33:40,0.021220,0.553694,-0.612422,-0.325993,-0.030521,-0.262289,42.695202,-31.816624,3.816696,-103.42118,-0.6241496,0.6468405,0.27677885,-0.36891443,-0.0127359,0.30714428
20240115 08:33:40,-0.264761,0.605220,-0.039271,-0.322797,-0.160493,-0.266550,42.676888,-31.814777,3.548447,-103.81151,-0.2727125,0.5720869,0.5190616,-0.3539441,-0.14030702,0.23880182
20240115 08:33:40,-0.381179,0.651209,0.231083,-0.310013,-0.252113,-0.260158,42.200268,-31.468441,3.119179,-103.33052,-0.131654,0.5400122,0.6220888,-0.32325238,-0.22887203,0.17399132
20240115 08:33:40,-0.650427,0.979550,0.605554,-0.216262,-0.562129,-0.211152,42.482117,-31.445606,2.986526,-101.76753,-0.011021137,0.74388564,0.97414434,-0.16413827,-0.5257291,-0.057072345
20240115 08:33:40,-0.540466,1.100035,0.145943,-0.128904,-0.652684,-0.164277,42.542683,-31.530552,2.590759,-100.71538,-0.32768393,0.99256885,0.9525038,-0.07331734,-0.6173433,-0.1560027
20240115 08:33:40,-0.210531,1.136702,-0.240568,-0.035153,-0.629246,-0.122728,42.163639,-31.464741,2.582695,-104.10715,-0.45631757,1.1424916,0.6999858,-0.041446656,-0.60849375,-0.22382599
20240115 08:33:40,0.093423,0.826949,-0.178415,0.058597,-0.577044,-0.138708,42.462650,-30.868092,1.876869,-104.54947,-0.19629285,0.84312063,0.2777466,-0.046578914,-0.5587645,-0.27732998
20240115 08:33:40,0.178721,0.942172,-0.311495,0.102277,-0.510993,-0.147231,42.153908,-31.175983,2.027863,-105.55635,-0.27675462,0.96791935,0.2505886,-0.053364173,-0.49511746,-0.28165945
20240115 08:33:40,0.364574,1.147814,-0.251729,0.194962,-0.239329,-0.148296,42.560226,-31.148624,2.298065,-108.14526,-0.11345121,1.1643257,0.1850803,-0.0377613,-0.22903539,-0.25469828
20240115 08:33:40,0.403027,1.242669,0.014511,0.249295,-0.133859,-0.162146,42.560226,-31.148624,2.298065,-109.78313,0.1565994,1.2498615,0.21069238,-0.015620977,-0.12137858,-0.25256217
20240115 08:33:40,0.372372,1.265086,0.686484,0.264210,-0.141317,-0.175996,42.392735,-30.686275,1.998276,-109.89296,0.70020443,1.233876,0.191068,-8.696318E-5,-0.11997613,-0.26272705
20240115 08:33:40,0.190698,1.233744,1.395021,0.259948,-0.382085,-0.238851,42.013306,-30.428593,1.709740,-110.61983,1.1788583,1.1490164,0.21483776,-0.026563078,-0.35434934,-0.36868227
20240115 08:33:40,0.122541,1.241234,1.947508,0.255687,-0.651618,-0.291053,42.162872,-31.080967,2.021751,-111.85668,1.5949336,1.130676,0.14248136,-0.055394232,-0.6229871,-0.4929126
20240115 08:33:40,0.142775,1.517176,2.302772,0.253556,-0.798637,-0.316621,42.419243,-30.209332,1.699463,-110.87,1.9180442,1.4094956,0.21337134,-0.08373049,-0.77415365,-0.5629175
20240115 08:33:40,0.223548,1.788218,2.265324,0.240772,-1.060712,-0.369889,42.188999,-30.412128,1.442474,-110.932945,1.9527419,1.7058591,0.28057352,-0.13886172,-1.0396528,-0.6689737
20240115 08:33:40,0.288309,1.683865,1.700214,0.266340,-1.171508,-0.435940,42.196812,-29.741444,0.594940,-107.06296,1.5339658,1.6019516,0.29369026,-0.18840627,-1.139382,-0.7187261
20240115 08:33:40,0.141501,1.908530,0.689780,0.305758,-0.953112,-0.455117,42.469311,-29.621738,0.187927,-97.65931,0.37096462,1.778562,0.6160844,-0.12859386,-0.84306455,-0.644227
20240115 08:33:40,-0.271338,2.073233,0.170368,0.357960,-0.515254,-0.375216,42.108582,-29.557789,0.448105,-95.43299,-0.39220428,1.9574324,1.096142,-0.07694742,-0.3898352,-0.52371514
20240115 08:33:40,-0.813899,1.333941,0.279967,0.439992,0.155915,-0.155754,42.390430,-29.534946,0.315453,-96.68687,-0.47780782,1.1110895,1.3432279,0.048547342,0.24494064,-0.29852164
20240115 08:33:40,-0.828859,0.853835,0.612586,0.458103,0.290149,-0.101421,41.984108,-29.562313,0.045250,-99.223206,-0.13048774,0.57435775,1.0984168,0.09799422,0.36614993,-0.2256819
20240115 08:33:40,-0.855239,0.025518,1.365820,0.474083,0.349809,-0.032174,42.462532,-28.966679,0.547012,-104.548004,0.5139817,-0.33680752,0.47612083,0.20598303,0.41256553,-0.15883934
20240115 08:33:40,-0.752691,-0.698389,1.956770,0.425077,0.088798,0.028551,42.145592,-29.753376,1.265068,-107.860344,1.0980222,-1.0908357,-0.23263755,0.27984077,0.13831253,-0.2777966
20240115 08:33:40,-0.552246,-0.911287,2.016678,0.399509,-0.055024,0.041336,42.311550,-29.448162,0.442963,-107.78794,1.3067392,-1.2255968,-0.5141164,0.29216975,-0.016188784,-0.3501152
20240115 08:33:40,-0.438919,-0.959327,1.888826,0.352634,-0.453464,0.080753,42.223705,-29.456387,0.576599,-108.04148,1.3532044,-1.1656314,-0.5235274,0.3157082,-0.43332973,-0.5532693
20240115 08:33:40,-0.041014,-0.937285,1.250557,0.360091,-0.520581,0.100995,41.835312,-29.293720,0.294182,-109.80235,1.0549816,-0.9563882,-0.65344846,0.28350648,-0.51865166,-0.5822499
20240115 08:33:40,0.518323,-0.865098,0.548877,0.382463,-0.487555,0.103126,41.798687,-29.290020,-0.242310,-112.29534,0.67416906,-0.84554976,-0.94982594,0.24607861,-0.49379992,-0.5750493
20240115 08:33:40,0.923289,-0.888120,0.163996,0.459168,-0.330949,0.082884,41.595718,-29.399647,-0.237175,-112.8333,0.4938469,-0.91344076,-1.2288934,0.25706223,-0.34403312,-0.5636044
20240115 08:33:40,1.088775,-0.768220,-0.183347,0.512436,-0.075265,0.074361,41.753860,-29.765118,-0.211746,-115.02317,0.21811205,-0.863884,-1.2506956,0.28551817,-0.10086782,-0.50237983
20240115 08:33:40,1.280136,-0.822457,-0.316130,0.540135,0.203856,0.062642,41.674599,-29.486439,-0.364700,-116.84721,0.18036643,-0.9792539,-1.4079876,0.34206465,0.1610583,-0.40590408
20240115 08:33:40,1.330793,-1.106895,0.048252,0.507109,0.509611,-0.019389,41.719807,-29.203236,-0.114792,-116.04673,0.56315553,-1.1904808,-1.6610849,0.30649307,0.4615788,-0.20364024
20240115 08:33:40,1.068362,-1.188692,0.551118,0.468756,0.545833,-0.059873,41.719807,-29.203236,-0.114792,-112.52344,0.9945718,-1.1926306,-1.6062188,0.22389187,0.5313586,-0.10977322
20240115 08:33:40,0.816963,-1.209841,0.821675,0.353699,0.490435,-0.134447,41.686516,-29.025120,0.543106,-111.44523,1.1379981,-1.2103364,-1.4678413,0.08186724,0.49108317,-0.016489347
20240115 08:33:40,0.375786,-1.204703,1.106651,0.215204,0.327436,-0.183453,41.684715,-29.967091,0.470604,-108.99014,1.2089138,-1.2613832,-1.1568824,-0.052890927,0.3500477,0.030994851
20240115 08:33:40,-0.055976,-1.162440,1.246033,0.078839,0.127151,-0.196237,42.003845,-28.430309,0.105522,-104.015434,1.1419051,-1.325861,-0.7660743,-0.13220213,0.16049978,0.032199226
20240115 08:33:40,-0.451447,-1.083711,1.183142,-0.034088,-0.057154,-0.168538,41.916382,-28.630428,0.519630,-100.95313,0.9227531,-1.3486763,-0.33816835,-0.14365514,-0.026311267,0.015032159
20240115 08:33:40,-0.665027,-1.025193,0.811330,-0.104401,-0.157297,-0.097160,41.622993,-29.306477,0.024956,-97.49344,0.56206733,-1.2810924,-0.024599094,-0.09554143,-0.14265966,0.013438953
20240115 08:33:40,-0.699164,-1.010263,0.374835,-0.131034,-0.142382,0.001918,41.695099,-28.738216,0.256523,-95.355736,0.22442785,-1.1632757,0.09311625,-0.026724698,-0.15564191,0.043720193
20240115 08:33:40,-0.504262,-1.057615,0.048353,-0.123577,-0.057154,0.105256,41.473816,-28.845989,-0.006592,-95.95632,0.042652015,-1.0936847,-0.04856009,0.045016676,-0.093544886,0.0775382
20240115 08:33:40,-0.226128,-1.136993,-0.275676,-0.107597,0.062165,0.180896,41.658855,-28.926395,0.000504,-97.69943,-0.13760477,-1.084324,-0.28934672,0.09841886,0.018403556,0.11289062
20240115 08:33:40,-0.028490,-1.334171,-0.257692,-0.119316,0.153785,0.209661,41.519028,-28.562786,0.243324,-101.557945,-0.065651506,-1.2884575,-0.5707205,0.106077135,0.11674966,0.15658942
20240115 08:33:40,0.190087,-1.564437,0.171934,-0.155537,0.096256,0.180896,41.279812,-28.860600,-0.007568,-106.2047,0.36241433,-1.5625784,-0.9705074,0.06546047,0.075220644,0.15459444
20240115 08:33:40,0.238833,-1.612458,0.272765,-0.194955,-0.044370,0.115910,41.085426,-28.683323,-0.289009,-108.226585,0.41840655,-1.6154555,-1.0643783,-0.004361771,-0.053290643,0.123099275
20240115 08:33:40,0.412519,-1.625501,0.394334,-0.208805,-0.121075,0.074361,41.039833,-28.774647,-0.819389,-107.57928,0.5938479,-1.628656,-1.2117293,-0.040345542,-0.12637985,0.10820933
20240115 08:33:40,0.464953,-1.517247,0.208642,-0.213066,-0.227610,-0.008736,40.979263,-28.689693,-0.423622,-108.158936,0.43344232,-1.516268,-1.156248,-0.11110178,-0.22910768,0.07768152
20240115 08:33:40,0.592619,-1.310966,-0.103239,-0.180041,-0.229741,-0.076918,40.732895,-28.140568,-0.595886,-107.122314,0.1786179,-1.311945,-1.0896876,-0.15184177,-0.22969994,0.06891503
20240115 08:33:40,0.675545,-0.899324,-0.410650,-0.109728,-0.149840,-0.126989,40.872723,-28.504192,-0.838707,-106.87933,-0.0945203,-0.91348207,-0.9302213,-0.16491234,-0.15125291,0.052678306
20240115 08:33:40,0.698289,-0.817476,-0.540018,-0.025565,-0.033717,-0.161081,40.978882,-28.497807,-0.704094,-105.61745,-0.22653201,-0.8306781,-0.89743394,-0.15827732,-0.036069848,0.027787417
20240115 08:33:40,0.591421,-0.610820,-0.790542,0.034094,0.080276,-0.169603,40.547852,-28.060154,-0.602974,-102.91608,-0.500064,-0.59328616,-0.7053676,-0.14571153,0.08336581,0.01202975
20240115 08:33:40,0.565954,-0.469130,-0.979931,0.069251,0.168700,-0.156819,40.705612,-28.233738,-0.858025,-101.310074,-0.7113956,-0.44318426,-0.62378,-0.12655172,0.17261463,0.0033255285
20240115 08:33:40,0.535515,-0.223897,-1.118039,0.074578,0.219836,-0.139774,40.220795,-28.366215,-0.720230,-99.40891,-0.86512685,-0.15696815,-0.5179956,-0.11827448,0.22797757,0.008881927
20240115 08:33:40,0.457408,-0.136915,-1.162682,0.038356,0.209183,-0.124859,40.371780,-27.884731,-0.616180,-97.26175,-0.9318466,-0.023146987,-0.42840055,-0.1227801,0.22015738,0.037067905
20240115 08:33:40,0.322047,-0.053084,-1.175419,-0.022369,0.135674,-0.112075,40.195705,-27.709301,-0.629387,-93.52881,-0.99315983,0.13017167,-0.29941294,-0.1315139,0.14903459,0.0662078
20240115 08:33:40,0.251788,0.116755,-1.246848,-0.095878,0.060034,-0.089702,40.292515,-27.606052,-0.769135,-91.74414,-1.1108279,0.33096787,-0.19213359,-0.12331577,0.068706006,0.110510446
20240115 08:33:40,0.268270,0.479458,-1.195496,-0.227981,-0.006018,-0.048154,40.222599,-27.424244,-0.647720,-93.787094,-1.1019413,0.6493331,-0.07740811,-0.11676039,-0.009789276,0.21528657
20240115 08:33:40,0.260359,0.596254,-1.096417,-0.264203,-0.029455,-0.028977,40.071232,-27.713833,-1.032242,-94.64454,-1.015423,0.7344886,-0.02383104,-0.10962208,-0.036692552,0.24102135
20240115 08:33:40,0.393561,0.680666,-0.922306,-0.304686,-0.053958,0.012571,40.070847,-27.521938,-1.312706,-97.69167,-0.77868354,0.7494634,-0.101600945,-0.08730126,-0.061888535,0.26827314
20240115 08:33:40,0.539080,0.715732,-0.777455,-0.301490,-0.034782,0.047728,39.940750,-27.447079,-0.515068,-102.33227,-0.5460643,0.72645247,-0.20039879,-0.06095461,-0.03654875,0.26670393
20240115 08:33:40,0.718153,0.740447,-0.622192,-0.268464,-0.000691,0.079688,39.876846,-27.536549,-1.313683,-103.27346,-0.30473348,0.7293664,-0.34942055,-0.024860196,0.0015702106,0.24258344
20240115 08:33:40,0.792633,0.639040,-0.427975,-0.222654,0.015289,0.107387,39.771069,-27.734821,-1.167831,-106.02838,-0.054801732,0.608669,-0.4387117,0.011165664,0.023149952,0.19862223
20240115 08:33:40,0.917738,0.430613,-0.184699,-0.174714,-0.011344,0.113779,39.313530,-27.774120,-0.767906,-108.98788,0.24852735,0.3914243,-0.6334772,0.028130561,8.391356E-4,0.13805075
20240115 08:33:40,0.986019,0.244638,-0.081569,-0.124642,-0.067808,0.088211,39.516884,-27.856373,-0.492569,-109.796844,0.3661608,0.20649384,-0.7800985,0.021369498,-0.057575062,0.07240773
20240115 08:33:40,0.833622,0.163049,-0.105917,-0.055395,-0.106160,0.049858,39.383446,-27.955936,-0.889313,-106.493996,0.25578767,0.15335369,-0.67917687,0.020007182,-0.10464951,0.0018065129
20240115 08:33:40,0.730598,0.239516,-0.211867,0.033029,-0.107226,0.022159,39.155388,-27.408649,-0.793335,-105.18094,0.10230684,0.23527718,-0.5532241,0.032736134,-0.10716115,-0.07425579
20240115 08:33:40,0.564948,0.494742,-0.396264,0.102277,-0.073134,0.014702,39.083664,-28.168804,-0.744423,-102.609535,-0.16724816,0.51588905,-0.3048588,0.055114925,-0.072144955,-0.12300044
20240115 08:33:40,0.463901,0.679646,-0.552916,0.148087,-0.018802,0.023225,39.022331,-27.700085,-0.909607,-100.74316,-0.37687314,0.7157585,-0.14767076,0.077009514,-0.01699103,-0.14608493
20240115 08:33:40,0.445752,0.838410,-0.478253,0.172590,0.012093,0.032813,38.995056,-27.793255,-1.171738,-101.382164,-0.30830455,0.8607728,-0.07489315,0.09392519,0.013343536,-0.15833782
20240115 08:33:40,0.566812,0.904923,-0.425472,0.191766,0.036596,0.032813,38.722939,-28.104855,-0.484253,-104.26761,-0.18778218,0.9076957,-0.1606266,0.1016756,0.036783874,-0.16779615
20240115 08:33:40,0.662255,0.996907,-0.304341,0.206681,0.038727,0.029617,38.750214,-28.011692,-0.222115,-105.839836,-0.015368938,0.9896778,-0.2129652,0.10694219,0.03803253,-0.1797777
20240115 08:33:40,0.674212,0.875341,-0.182194,0.214138,0.006767,0.001918,38.872887,-28.949123,0.108238,-107.19394,0.11022453,0.8698733,-0.26577443,0.08679007,0.005732591,-0.19422653
20240115 08:33:40,0.574773,0.706328,-0.076936,0.213073,-0.074200,-0.043892,38.908745,-28.569042,0.083786,-105.14695,0.14156285,0.713839,-0.2477447,0.046357624,-0.0709383,-0.21940452
20240115 08:33:40,0.435628,0.688876,-0.187948,0.197093,-0.147709,-0.087572,38.644440,-28.209949,-0.076256,-102.30092,-0.047794476,0.71149164,-0.123045646,0.006085515,-0.1361511,-0.2304926
20240115 08:33:40,0.221089,0.737029,-0.193000,0.185374,-0.178604,-0.113140,38.944603,-28.188961,0.059334,-100.214294,-0.1683079,0.7628843,0.09586003,-0.011109509,-0.15669714,-0.23171043
20240115 08:33:40,0.120848,0.651564,-0.057594,0.194962,-0.158362,-0.138708,38.899399,-28.472179,-0.190567,-100.9888,-0.07399522,0.65934557,0.16555029,-0.024485573,-0.13130076,-0.23122774
20240115 08:33:40,0.087256,0.439216,0.119667,0.234380,-0.076331,-0.191976,39.305717,-28.444805,0.079628,-101.19053,0.09145549,0.42581293,0.09927275,-0.059688106,-0.0385492,-0.22732142
20240115 08:33:40,-0.018103,0.216121,0.440398,0.322804,0.051511,-0.269746,39.420456,-28.151516,-0.072350,-101.52382,0.34286729,0.15064071,0.075198516,-0.08627653,0.11299516,-0.2333354
20240115 08:33:40,-0.237506,0.085765,0.989858,0.452776,0.135674,-0.363497,39.757248,-28.134220,0.599731,-102.2863,0.6944792,-0.102063246,0.13766792,-0.09342244,0.23783845,-0.27893773
20240115 08:33:40,-0.400249,0.409976,1.445487,0.616840,0.131412,-0.439136,39.906044,-28.402828,0.350800,-102.52105,0.9252425,0.1227659,0.38576066,-0.0617975,0.26457244,-0.4058327
20240115 08:33:40,-0.423857,1.088099,1.894060,0.832040,0.022747,-0.484946,39.818581,-28.602940,0.764908,-101.82731,1.2559377,0.73662823,0.69810516,-0.019252628,0.17050292,-0.6696855
20240115 08:33:40,-0.068217,2.024332,1.277659,1.055763,-0.024128,-0.496665,40.461159,-28.644062,0.372070,-98.45084,0.88291705,1.8354837,0.7508054,-0.051874816,0.096333176,-0.95839566
20240115 08:33:40,0.349199,2.752513,0.031917,1.214500,0.106909,-0.491339,40.719070,-28.539974,1.171669,-97.36215,-0.11515657,2.7469518,0.39668027,-0.15400118,0.17878358,-1.1243147
20240115 08:33:40,0.721550,3.111907,-0.922014,1.228350,0.346613,-0.494535,41.284958,-27.744221,1.259331,-93.70285,-1.0640867,3.202196,-0.074322976,-0.2709887,0.41895077,-1.1280315
20240115 08:33:40,0.631215,3.437588,-1.362100,1.049371,0.579924,-0.480685,41.576153,-27.818249,1.401024,-88.47996,-1.8176773,3.6436327,-0.01589328,-0.3816303,0.68969023,-0.9316933
20240115 08:33:40,0.450795,3.568676,-1.257379,0.683957,0.726942,-0.434875,41.859535,-28.562969,2.390259,-85.96224,-2.0315733,3.793021,0.27211994,-0.46065068,0.85238355,-0.526649
20240115 08:33:40,0.227838,2.881979,-0.531974,0.223726,0.734399,-0.430614,42.213875,-28.163754,2.769638,-87.966835,-1.258568,2.9197934,0.63280976,-0.5396643,0.84539366,-3.7986785E-5
20240115 08:33:40,-0.267594,1.993857,0.581905,-0.237569,0.589512,-0.470032,42.690109,-28.318188,2.918419,-90.17142,-0.28544736,1.6194706,1.0789155,-0.6929953,0.6683753,0.46362546
20240115 08:33:40,-1.111252,1.399015,1.770072,-0.614703,0.353005,-0.465770,42.910625,-27.826633,2.620590,-91.01266,0.26438498,0.35674495,1.6617429,-0.80935204,0.3512621,0.712843
20240115 08:33:40,-1.839175,0.791584,2.660391,-0.868255,0.110105,-0.367758,43.492638,-27.782803,2.623520,-95.272736,0.4456346,-0.7454339,1.7804861,-0.83466065,-0.01386486,0.77036715
20240115 08:33:40,-2.330942,-0.032173,3.571969,-0.941764,-0.169016,-0.227132,43.483673,-27.877819,2.629631,-99.85508,0.6653825,-1.9330435,1.2225132,-0.74650896,-0.37518752,0.58608353
20240115 08:33:40,-2.649322,-0.667253,3.925198,-0.853341,-0.405523,-0.039631,43.852982,-27.654873,2.082870,-102.053,0.61322784,-2.638148,0.69777673,-0.53326094,-0.6311113,0.28820163
20240115 08:33:40,-2.481937,-1.273559,4.178304,-0.639206,-0.586632,0.175569,44.425644,-27.514172,1.811440,-103.89549,0.93497026,-3.0351572,-0.08657521,-0.22597626,-0.77978694,-0.048731536
20240115 08:33:40,-1.948361,-1.664991,3.977348,-0.343039,-0.668664,0.365201,43.798042,-27.649319,1.278137,-105.388756,1.4034588,-2.9766774,-0.6957647,0.124308914,-0.79977477,-0.32673007
20240115 08:33:40,-1.087540,-1.918383,3.335364,-0.036219,-0.636704,0.485586,44.113945,-28.188366,1.048515,-106.91082,1.8242381,-2.6380897,-1.2391971,0.41553444,-0.70819896,-0.50992155
20240115 08:33:40,-0.168872,-2.037928,2.495714,0.231184,-0.517385,0.523938,43.910591,-28.106106,0.773186,-107.876976,1.9737524,-2.3242056,-1.6667787,0.6016307,-0.5485631,-0.6060649
20240115 08:33:40,0.337499,-2.030679,1.893198,0.436796,-0.366105,0.488782,44.421921,-27.496693,0.336578,-107.59001,1.8380426,-2.143647,-1.8248672,0.6802279,-0.37506598,-0.65101296
20240115 08:33:40,0.647190,-1.951004,1.157894,0.565703,-0.237198,0.396096,44.410767,-28.341793,-0.010284,-106.77328,1.4128429,-1.9823103,-1.7424027,0.65086603,-0.23816301,-0.66038233
20240115 08:33:40,0.733695,-1.752264,0.351928,0.607252,-0.075265,0.283170,44.693386,-28.702724,0.418007,-104.275505,0.74119854,-1.7477039,-1.4766579,0.5355675,-0.07339057,-0.604354
20240115 08:33:41,0.700513,-1.713515,-0.343073,0.574226,0.116497,0.177700,44.535629,-28.529148,0.673050,-99.218605,0.13433343,-1.6375842,-1.2833542,0.37470746,0.122475475,-0.49498478
20240115 08:33:41,0.451738,-1.485293,-0.761354,0.475149,0.296541,0.098864,44.976006,-29.063663,0.846291,-92.756744,-0.23141706,-1.2611527,-0.94126344,0.20082036,0.30647647,-0.338778
20240115 08:33:41,0.139166,-1.329056,-0.859792,0.328131,0.387096,0.061577,45.081394,-28.673512,0.419960,-86.40012,-0.3110934,-0.9856678,-0.6307424,0.05776051,0.386443,-0.16411531
20240115 08:33:41,-0.131885,-1.370209,-0.823392,0.149152,0.372181,0.051989,45.284363,-28.563885,0.414818,-81.77307,-0.2312226,-0.9621984,-0.42938122,-0.040249635,0.34321332,0.0023446025
20240115 08:33:41,-0.424745,-1.426013,-0.770288,-0.030892,0.309325,0.073296,45.576328,-29.021687,1.117462,-80.612976,-0.20261088,-1.0246067,-0.20591581,-0.08098151,0.23968007,0.15201077
20240115 08:33:41,-0.599951,-1.382360,-0.647858,-0.189629,0.228359,0.121237,45.370407,-29.497616,0.208687,-79.64064,-0.16707343,-1.0525554,-0.06472491,-0.080503635,0.11077441,0.27460748
20240115 08:33:41,-0.789833,-1.324232,-0.492516,-0.320666,0.139935,0.189419,45.697079,-28.999683,0.045464,-79.89003,-0.16137156,-1.1145171,0.12010604,-0.04630077,-0.023095325,0.36299124
20240115 08:33:41,-0.752283,-1.369937,-0.354175,-0.409090,0.061099,0.268255,45.466831,-29.202480,-0.211533,-83.984535,-0.10570952,-1.249909,0.052435327,0.013327315,-0.12209499,0.40600055
20240115 08:33:41,-0.554765,-1.377530,-0.175683,-0.436789,-0.014540,0.333241,45.607048,-29.757992,-0.173874,-88.192154,0.04341796,-1.3197495,-0.12283142,0.087528944,-0.18931404,0.38877028
20240115 08:33:41,-0.365962,-1.315405,-0.179323,-0.437855,-0.072069,0.382247,46.118759,-29.340458,-0.330009,-89.88513,0.04724939,-1.2523111,-0.24746883,0.1551555,-0.23212978,0.36236012
20240115 08:33:41,-0.164174,-1.215457,-0.187567,-0.415482,-0.079527,0.417403,45.985321,-29.440014,-0.726753,-92.10118,0.040271565,-1.1519971,-0.37111104,0.2041618,-0.21610656,0.33435693
20240115 08:33:41,-0.035171,-1.076262,-0.207278,-0.357954,-0.037978,0.449364,45.957657,-29.341297,-1.269356,-93.75326,-0.006860167,-1.021041,-0.41207096,0.2569924,-0.14708,0.29687715
20240115 08:33:41,0.183820,-1.006661,-0.299748,-0.291902,0.048315,0.468540,45.984936,-29.248119,-1.007225,-96.793,-0.0687847,-0.9492575,-0.565218,0.29629904,-0.027241163,0.26283038
20240115 08:33:41,0.330454,-1.049503,-0.249229,-0.242896,0.130347,0.465344,45.964821,-30.188236,-1.347969,-99.61425,0.006975889,-1.0099238,-0.7229403,0.30393425,0.079910025,0.24132518
20240115 08:33:41,0.415925,-1.060168,-0.110791,-0.210936,0.163373,0.434449,46.052280,-29.988117,-1.762077,-100.97781,0.14666882,-1.0391982,-0.8222978,0.28671122,0.13112955,0.22358185
20240115 08:33:41,0.404970,-1.052215,0.020238,-0.201347,0.162307,0.388639,45.787979,-29.629032,-1.922112,-101.67496,0.26224366,-1.0397546,-0.8357714,0.24272189,0.1348748,0.21571161
20240115 08:33:41,0.366446,-0.996227,0.306553,-0.207740,0.096256,0.348156,46.237320,-30.068531,-1.754990,-102.89448,0.4975211,-0.99993324,-0.82281315,0.19894058,0.07163873,0.18971074
20240115 08:33:41,0.328350,-0.958824,0.449933,-0.224785,-0.034782,0.303411,46.094536,-30.071209,-2.426086,-101.52349,0.6116753,-0.973471,-0.78045005,0.16056517,-0.061574705,0.15217969
20240115 08:33:41,0.222061,-0.800714,0.265089,-0.254615,-0.163689,0.268255,46.085567,-30.166225,-2.419975,-99.28581,0.40062183,-0.81005114,-0.56887025,0.13967255,-0.19526492,0.13717565
20240115 08:33:41,0.171618,-0.598484,-0.130465,-0.273791,-0.206303,0.257601,46.236935,-29.876644,-2.035454,-97.73641,0.0018748716,-0.57811004,-0.38926265,0.1418951,-0.23792154,0.15401241
20240115 08:33:41,0.197427,-0.491739,-0.485513,-0.276987,-0.162624,0.265059,45.573090,-30.199978,-2.824783,-96.93888,-0.33165607,-0.44557,-0.34788835,0.14945005,-0.19181196,0.18086277
20240115 08:33:41,0.244005,-0.688473,-0.598434,-0.285510,-0.092311,0.259732,45.800381,-30.363476,-3.481705,-98.249115,-0.4139068,-0.6507385,-0.46214008,0.1280027,-0.1121385,0.21006456
20240115 08:33:41,0.304148,-0.963211,-0.459988,-0.276987,-0.026259,0.219249,46.109509,-30.247478,-3.352226,-99.60734,-0.24032357,-0.9338292,-0.6482898,0.08066953,-0.04252721,0.22364785
20240115 08:33:41,0.257734,-0.972060,-0.172348,-0.254615,-0.007083,0.181961,46.127052,-29.865543,-3.644928,-102.168945,-0.011758089,-0.9657437,-0.65730053,0.04091484,-0.013312966,0.20339303
20240115 08:33:41,0.406648,-1.158594,0.131265,-0.213066,-0.042239,0.113779,45.869530,-30.161510,-4.164047,-104.37229,0.31122,-1.1591293,-0.9307639,-0.008570068,-0.0409713,0.14970285
20240115 08:33:41,0.433228,-1.107229,0.562665,-0.144884,-0.130663,0.024290,45.659397,-29.424191,-4.080307,-104.20735,0.7197037,-1.1105946,-1.0079947,-0.054396115,-0.13200782,0.052913018
20240115 08:33:41,0.238407,-0.877025,0.716921,-0.062852,-0.290466,-0.058807,45.532738,-30.178799,-4.836128,-100.773605,0.7854374,-0.9064762,-0.7077996,-0.0667066,-0.2887054,-0.08403002
20240115 08:33:41,0.066075,-0.590512,0.231515,-0.009585,-0.414046,-0.125924,45.620583,-30.170574,-4.969765,-96.47506,0.2840058,-0.60424596,-0.32847685,-0.083339565,-0.40253738,-0.16580687
20240115 08:33:41,-0.030514,-0.232256,-0.232184,0.027702,-0.441745,-0.170669,45.681149,-30.255512,-5.365532,-92.06279,-0.19677642,-0.20479177,-0.05946199,-0.09339118,-0.41688016,-0.1958155
20240115 08:33:41,-0.068600,0.085327,-0.609868,0.071382,-0.388478,-0.183453,45.134613,-29.727375,-5.673386,-90.04732,-0.5996785,0.15341818,0.094719306,-0.09874087,-0.3605436,-0.20530106
20240115 08:33:41,0.078789,0.187330,-0.862425,0.143825,-0.275551,-0.198368,45.064316,-29.353680,-5.832451,-91.42455,-0.7982093,0.24908656,-0.0050244243,-0.11957151,-0.2573732,-0.22548775
20240115 08:33:41,0.232577,0.326869,-1.224717,0.207746,-0.099768,-0.217544,45.061745,-29.911869,-6.465889,-90.955734,-1.1132478,0.38366762,-0.11875384,-0.14128263,-0.08722654,-0.22693615
20240115 08:33:41,0.259020,0.439798,-1.180875,0.252491,0.090929,-0.225002,45.106567,-29.436771,-6.496460,-90.98198,-1.0572702,0.51226026,-0.096601784,-0.13626194,0.10872446,-0.20835789
20240115 08:33:41,0.161149,0.550837,-0.805388,0.276994,0.131412,-0.239916,45.282642,-29.612202,-6.483253,-89.60249,-0.75181043,0.62687385,0.030418862,-0.14441755,0.16162053,-0.21767467
20240115 08:33:41,-0.008610,0.649562,-0.688097,0.229053,0.039792,-0.271877,45.142811,-29.248577,-6.240440,-85.2956,-0.7503667,0.7556824,0.20846498,-0.18065605,0.0996173,-0.20959873
20240115 08:33:41,-0.282462,0.851318,-0.598871,0.121453,-0.118944,-0.295314,45.336430,-29.042080,-6.519936,-81.31218,-0.8393949,0.939853,0.5232675,-0.19947617,-0.03651239,-0.16977288
20240115 08:33:41,-0.462865,1.107572,-0.542367,0.002134,-0.281943,-0.289988,44.866970,-29.542698,-7.027817,-80.79295,-0.90874916,1.1603198,0.77767456,-0.19809714,-0.20574245,-0.112472504
20240115 08:33:41,-0.348040,1.176509,-0.424974,-0.083094,-0.333079,-0.272942,44.823563,-28.883938,-7.205215,-82.14145,-0.75599277,1.2083826,0.7145684,-0.20866449,-0.27412763,-0.051101077
20240115 08:33:41,-0.243529,1.269703,-0.233323,-0.122512,-0.324557,-0.258027,44.274841,-29.105869,-7.866035,-86.050026,-0.49507588,1.2732192,0.69437367,-0.2333291,-0.28902528,-0.014390038
20240115 08:33:41,-0.053554,1.158173,0.273356,-0.112924,-0.273420,-0.260158,44.514053,-28.808064,-7.615158,-91.25031,0.11115143,1.122457,0.5342197,-0.25554347,-0.25163183,-0.010456992
20240115 08:33:41,0.043247,1.184855,0.905346,-0.050068,-0.199911,-0.265485,44.019501,-28.651768,-8.032196,-92.20865,0.6872678,1.0814595,0.49973798,-0.23486039,-0.17280607,-0.044488154
20240115 08:33:41,-0.173250,1.227249,1.425974,0.073512,-0.165820,-0.243112,44.459114,-28.802517,-8.419891,-91.538475,1.0000621,1.0270262,0.72668153,-0.1545836,-0.1291158,-0.14137873
20240115 08:33:41,-0.229987,1.218921,1.382973,0.184309,-0.118944,-0.218609,44.063175,-27.601009,-8.904175,-89.97864,0.9617201,1.0328882,0.77403015,-0.09136034,-0.081048,-0.21858457
20240115 08:33:41,-0.078533,1.409660,1.449471,0.248229,-0.062481,-0.185584,43.930122,-27.892445,-9.020454,-90.78163,1.0549752,1.2235663,0.74173796,-0.03345245,-0.024372337,-0.24620879
20240115 08:33:41,-0.220288,1.260325,1.633796,0.300431,-0.082723,-0.161081,44.185844,-28.538441,-8.573822,-90.63494,1.1136291,0.9935763,0.8051409,0.021986336,-0.0344906,-0.30119517
20240115 08:33:41,-0.341174,1.052214,1.627553,0.311085,-0.155166,-0.142970,43.400482,-28.500011,-8.852089,-90.95185,1.0687351,0.7817797,0.8103726,0.056299813,-0.1076068,-0.3457128
20240115 08:33:41,-0.261242,0.990009,1.612258,0.335588,-0.246786,-0.114205,43.294708,-28.698277,-8.706223,-91.48585,1.1415286,0.7602015,0.69065225,0.09596713,-0.20654224,-0.4118667
20240115 08:33:41,-0.027078,1.098658,1.357991,0.394182,-0.286204,-0.093964,43.117863,-28.139072,-9.280373,-90.23429,1.077293,0.9513776,0.5207789,0.1251642,-0.25420168,-0.48100847
20240115 08:33:41,0.134959,1.247330,0.986175,0.482606,-0.235067,-0.072657,42.879036,-28.628780,-9.250786,-89.06013,0.83129644,1.1528097,0.3963502,0.15482558,-0.20626065,-0.5370524
20240115 08:33:41,0.134338,1.502176,0.535128,0.557180,-0.109356,-0.017259,42.915279,-28.440594,-8.994766,-87.892586,0.40178543,1.449058,0.4527148,0.20582727,-0.08560278,-0.55722386
20240115 08:33:41,0.279236,1.760745,0.450875,0.599794,0.005701,0.056250,42.737015,-29.015240,-9.360939,-89.19996,0.4216588,1.7382901,0.38059488,0.26954105,0.015655654,-0.5566027
20240115 08:33:41,0.538149,1.804599,0.303344,0.581683,0.067491,0.123367,42.215958,-29.335896,-9.479164,-93.023384,0.5130534,1.8065056,0.11236931,0.31837153,0.065330215,-0.52478534
20240115 08:33:41,0.888684,1.424379,0.054709,0.457038,0.064295,0.121237,42.279091,-28.862644,-9.241486,-97.67243,0.50747335,1.3871201,-0.34591556,0.2783351,0.058918893,-0.41211423
20240115 08:33:41,1.046306,0.764507,-0.030455,0.219465,-0.001756,0.033878,42.464134,-28.943050,-9.234398,-97.34329,0.41807503,0.72475445,-0.69494355,0.11154914,-0.0061019715,-0.2064717
20240115 08:33:41,0.762731,0.145212,0.154977,-0.072440,-0.105095,-0.085441,42.374100,-29.701359,-9.453735,-94.57342,0.45315695,0.14586778,-0.6416726,-0.10724103,-0.10490856,0.025989508
20240115 08:33:41,0.326139,-0.239001,0.600279,-0.306817,-0.196715,-0.175996,41.952034,-29.168697,-9.358727,-90.69103,0.7066146,-0.2874399,-0.40343878,-0.2744167,-0.1933375,0.18013914
20240115 08:33:41,-0.523637,-0.614193,1.123394,-0.412286,-0.209499,-0.187714,41.642525,-29.092815,-9.768677,-87.59994,0.7477579,-0.9431645,0.11829972,-0.32868147,-0.22205262,0.2209115
20240115 08:33:41,-1.069129,-0.763631,2.246971,-0.334516,-0.188192,-0.095029,41.484383,-28.727345,-9.794106,-94.67546,1.1624401,-1.3120917,0.23564771,-0.24798542,-0.21515119,0.14655702
20240115 08:33:41,-1.014884,-0.834215,2.948066,-0.121446,-0.277681,-0.034304,41.290760,-28.933849,-9.514610,-97.15291,1.6299727,-1.4996719,-0.02646032,-0.055323128,-0.2826359,-0.08784613
20240115 08:33:41,-1.045422,-1.295508,2.834708,0.092689,-0.366105,0.011506,41.139778,-29.415325,-9.618660,-96.75768,1.644323,-1.9497995,-0.26263824,0.13690417,-0.34228516,-0.30809128
20240115 08:33:41,-0.757373,-1.448225,2.098155,0.246099,-0.442810,0.082884,40.539833,-29.649197,-9.609360,-98.678444,1.3541591,-1.7283335,-0.45604378,0.2630373,-0.42708883,-0.46850827
20240115 08:33:41,0.257712,-1.391039,1.501145,0.362222,-0.443876,0.054120,40.451607,-29.465527,-9.756195,-100.83082,1.4053924,-1.398585,-1.1176147,0.2460151,-0.44282675,-0.54729825
20240115 08:33:41,0.748210,-1.244525,1.163570,0.421881,-0.437484,-0.005540,40.626915,-29.257183,-10.303940,-101.97637,1.3069631,-1.1995618,-1.3953136,0.18779884,-0.45184246,-0.5818901
20240115 08:33:41,0.992780,-1.178448,0.714149,0.431469,-0.424699,-0.089702,40.266182,-29.193233,-10.043762,-102.419525,0.9712413,-1.1512796,-1.489397,0.08040116,-0.45470974,-0.5667151
20240115 08:33:41,1.025549,-0.978097,0.359395,0.411228,-0.361844,-0.167473,40.045284,-29.492901,-10.026398,-100.80314,0.67198706,-0.9856757,-1.3708768,-0.0063854903,-0.39568856,-0.5112882
20240115 08:33:41,0.857125,-0.762496,0.099275,0.371810,-0.263832,-0.214348,40.248638,-29.575153,-9.751060,-96.40488,0.39250892,-0.7740505,-1.0904359,-0.06294975,-0.28101006,-0.43556133
20240115 08:33:41,0.605856,-0.593298,-0.094366,0.305758,-0.147709,-0.230328,39.551117,-29.528500,-10.162956,-94.083336,0.14381473,-0.5980819,-0.78734577,-0.09325441,-0.15264282,-0.33261314
20240115 08:33:41,0.549488,-0.837607,0.108117,0.216269,-0.080592,-0.258027,39.790329,-29.230679,-9.912079,-94.622154,0.35119537,-0.8348405,-0.86288756,-0.13620913,-0.07457678,-0.22054382
20240115 08:33:41,0.431083,-1.010664,0.617416,0.127845,-0.094441,-0.299576,39.250954,-29.549488,-10.298546,-94.19854,0.80348516,-1.030077,-0.88023067,-0.19686794,-0.07366577,-0.14682557
20240115 08:33:41,0.162275,-0.862339,0.962904,0.089493,-0.132794,-0.305968,39.208702,-29.466396,-9.634537,-93.57504,0.99844265,-0.94567555,-0.59957504,-0.20512277,-0.09510209,-0.13413306
20240115 08:33:41,-0.064591,-0.725375,1.223483,0.094819,-0.167950,-0.274008,39.286816,-29.169407,-10.322998,-89.61782,1.1254101,-0.8947122,-0.29343516,-0.16589199,-0.11923739,-0.16558453
20240115 08:33:41,-0.127833,-0.543974,1.011372,0.127845,-0.141317,-0.212217,38.786636,-28.933727,-9.539536,-89.96817,0.89542884,-0.6871059,-0.14402212,-0.10470283,-0.10057767,-0.17949252
20240115 08:33:41,-0.001720,-0.567621,0.989094,0.147021,-0.099768,-0.168538,39.217667,-29.371380,-9.640648,-92.59261,0.91877013,-0.6639546,-0.29183194,-0.06633131,-0.073937275,-0.17315158
20240115 08:33:41,0.124566,-0.472430,1.142969,0.149152,-0.096572,-0.154689,39.032631,-29.290974,-9.647743,-91.211945,1.112727,-0.59688395,-0.34498283,-0.052701265,-0.06753875,-0.17554498
20240115 08:33:41,-0.059243,-0.396735,1.002533,0.152348,-0.081657,-0.123793,38.802383,-29.493763,-9.904732,-87.67376,0.91294146,-0.5600563,-0.11094486,-0.024523795,-0.046852,-0.1751139
20240115 08:33:41,-0.268873,-0.283401,0.803379,0.166198,-0.023063,-0.071591,38.441650,-29.429813,-9.644554,-83.021904,0.6437609,-0.48922274,0.16038774,0.016442895,0.012968093,-0.16310799
20240115 08:33:41,-0.528494,-0.307437,0.529880,0.172590,0.060034,0.001918,38.441269,-29.237919,-9.925026,-79.6207,0.30835077,-0.5049112,0.38593653,0.060514513,0.07922372,-0.1295933
20240115 08:33:41,-0.560265,-0.506629,0.492238,0.167263,0.089864,0.078623,38.626694,-29.510227,-9.637466,-82.16757,0.30018717,-0.6774714,0.3086778,0.11978915,0.08744457,-0.10551752
20240115 08:33:41,-0.390000,-0.772210,0.522898,0.131041,0.012093,0.121237,38.812881,-30.166302,-8.788963,-85.7945,0.44806126,-0.9037039,0.024837548,0.16100825,-3.9070845E-4,-0.10814167
20240115 08:33:41,-0.281747,-0.954580,0.364711,0.068186,-0.123206,0.132955,38.379665,-30.478718,-9.040817,-84.385796,0.4123052,-1.0365728,-0.13827139,0.1732434,-0.14190573,-0.10865322
20240115 08:33:41,-0.267715,-1.103124,0.114186,0.017049,-0.247852,0.139348,38.618111,-29.797138,-9.350876,-82.04607,0.24025217,-1.1215944,-0.18985656,0.18599895,-0.26983386,-0.10693035
20240115 08:33:41,-0.172411,-0.951134,-0.135141,0.020245,-0.301119,0.156393,38.053642,-29.459034,-9.646507,-81.39166,-8.942932E-5,-0.9166963,-0.19512261,0.20853683,-0.32341474,-0.12026935
20240115 08:33:41,0.072870,-0.850444,-0.535496,0.068186,-0.256374,0.181961,37.866802,-30.320591,-9.726097,-82.86641,-0.37261596,-0.7711743,-0.35342595,0.22536165,-0.27444294,-0.13713948
20240115 08:33:41,0.346560,-0.794877,-0.984787,0.109734,-0.125337,0.191550,38.211021,-29.440723,-10.182022,-85.80731,-0.8155745,-0.7544742,-0.57841533,0.21931897,-0.13106485,-0.13679412
20240115 08:33:41,0.563998,-0.853011,-1.015244,0.127845,-0.016671,0.189419,37.972576,-30.122318,-9.871964,-90.29349,-0.84043586,-0.8887169,-0.7803148,0.21719447,-0.012017435,-0.1276275
20240115 08:33:41,0.712936,-0.875415,-1.001073,0.117192,0.033400,0.167047,37.860023,-29.665531,-9.367012,-93.82957,-0.8240964,-0.97073627,-0.91318494,0.19564718,0.04401343,-0.10601944
20240115 08:33:41,0.746002,-0.892319,-0.925925,0.090558,0.039792,0.122302,37.850292,-29.376774,-9.921844,-92.12007,-0.7060615,-0.9536841,-0.96903914,0.14581469,0.044803105,-0.07579791
20240115 08:33:41,0.651323,-0.931756,-0.741333,0.058597,0.005701,0.081819,37.515038,-30.161617,-9.472031,-93.56386,-0.5406416,-0.97632545,-0.89759517,0.096332975,0.008665555,-0.055393573
20240115 08:33:41,0.640614,-0.965078,-0.658086,0.045813,-0.035847,0.037074,37.772564,-29.865658,-8.952911,-93.329636,-0.45731315,-0.99511427,-0.8987058,0.048293512,-0.035048716,-0.05540845
20240115 08:33:41,0.520209,-0.753957,-0.702676,0.054336,-0.037978,0.013636,37.735550,-29.670063,-9.769867,-88.11707,-0.49990308,-0.73620105,-0.7283041,0.030001659,-0.037901185,-0.06305495
20240115 08:33:41,0.409295,-0.701709,-0.810003,0.086297,0.017420,0.015767,37.648857,-30.253956,-8.794823,-88.72041,-0.6279532,-0.6678023,-0.6030728,0.039849978,0.017794425,-0.07723672
20240115 08:33:41,0.407665,-0.822682,-0.928689,0.103342,0.062165,0.020029,37.763985,-30.152561,-8.666321,-89.91675,-0.7742773,-0.8182399,-0.6216979,0.047845937,0.06220667,-0.081845134
20240115 08:33:41,0.536734,-0.699747,-0.962329,0.082035,0.093060,0.001918,37.930321,-30.039227,-9.207954,-89.166626,-0.78523195,-0.7055745,-0.7095569,0.024493577,0.09294778,-0.05384372
20240115 08:33:41,0.464879,-0.487736,-0.998184,0.044748,0.101583,-0.021520,37.596874,-29.882107,-8.685638,-87.23855,-0.81830966,-0.44468105,-0.5910833,-0.012600362,0.10278913,-0.016262854
20240115 08:33:41,0.342987,-0.487686,-1.013145,0.024506,0.119694,-0.037500,37.482132,-30.175396,-8.533669,-84.65562,-0.8437443,-0.39377642,-0.48287138,-0.039604783,0.122922815,0.0066386377
20240115 08:33:41,0.309198,-0.415402,-0.936012,0.022376,0.141000,-0.041762,37.603653,-30.537159,-9.044724,-85.25918,-0.7803755,-0.33736768,-0.4328581,-0.044398867,0.14418152,0.016345387
20240115 08:33:41,0.338822,-0.472190,-0.785196,0.023441,0.132478,-0.055611,38.064529,-30.323460,-8.250259,-87.83379,-0.61886036,-0.41376013,-0.47120062,-0.054694343,0.1362269,0.015863938
20240115 08:33:41,0.402693,-0.476382,-0.672652,0.038356,0.100517,-0.073722,37.711998,-29.780704,-8.557144,-89.18251,-0.51780885,-0.45786762,-0.5250606,-0.061946057,0.102461725,-0.008245133
20240115 08:33:41,0.495495,-0.342443,-0.848038,0.063924,0.079210,-0.081180,37.975914,-29.947910,-8.677574,-89.48766,-0.692982,-0.34951425,-0.56931084,-0.06125138,0.07849825,-0.041385297
20240115 08:33:41,0.671667,-0.114001,-1.073375,0.085231,0.086668,-0.074787,38.682014,-29.707661,-8.552261,-93.8273,-0.89748013,-0.24462232,-0.6635306,-0.043662257,0.07603535,-0.062089443
20240115 08:33:42,0.897571,-0.051595,-1.291803,0.074578,0.111171,-0.080114,38.337799,-30.587528,-8.096336,-101.19867,-1.0398698,-0.3896019,-0.8315566,-0.034349166,0.08609557,-0.045348283
20240115 08:33:42,1.141278,0.164392,-1.315279,0.037291,0.126086,-0.108879,38.443188,-30.197361,-8.522675,-103.32329,-0.9401933,-0.2829412,-1.015906,-0.05840449,0.087809645,-0.0048370124
20240115 08:33:42,1.115220,0.381254,-1.358953,-0.010650,0.151654,-0.138708,38.840546,-30.265026,-8.246353,-99.49993,-0.98156285,0.03849408,-0.9626519,-0.103050515,0.11970171,0.046961505
20240115 08:33:42,0.968462,0.537345,-1.069942,-0.062852,0.153785,-0.163211,38.849510,-30.170002,-8.252472,-96.45533,-0.717946,0.36768898,-0.7741596,-0.15317586,0.13410544,0.10364494
20240115 08:33:42,0.885711,0.642320,-0.686278,-0.109728,0.088798,-0.184518,38.912647,-29.696751,-8.014793,-94.33074,-0.37827706,0.5735565,-0.67000306,-0.20014687,0.077443905,0.13300623
20240115 08:33:42,0.781486,0.717594,-0.589855,-0.141688,0.016355,-0.206891,38.903297,-29.599888,-8.289146,-92.248795,-0.32908136,0.6840239,-0.55455154,-0.23644681,0.009508548,0.14306058
20240115 08:33:42,0.739339,0.738907,-0.594846,-0.162995,-0.018802,-0.222871,39.097687,-29.777164,-8.007706,-91.54998,-0.35950014,0.7231159,-0.5090668,-0.25882426,-0.022259027,0.15355282
20240115 08:33:42,0.673909,0.767902,-0.560675,-0.159799,-0.019867,-0.240982,39.167217,-29.767086,-8.409584,-89.35517,-0.36438134,0.77793103,-0.43895715,-0.27530265,-0.017244125,0.14746138
20240115 08:33:42,0.534024,0.796784,-0.485094,-0.133165,0.009963,-0.252701,39.309235,-29.380627,-8.299423,-85.733315,-0.37812868,0.84843004,-0.29494604,-0.28011262,0.028031984,0.12507552
20240115 08:33:42,0.357903,0.870024,-0.342063,-0.089486,0.052577,-0.244178,39.264030,-29.663830,-8.549332,-83.40619,-0.330204,0.9210433,-0.09570741,-0.26442248,0.080278054,0.09262844
20240115 08:33:42,0.173059,0.929590,-0.261758,-0.042611,0.077080,-0.229263,39.572769,-29.355938,-8.700325,-79.339134,-0.3727827,0.9715773,0.09584234,-0.2418308,0.1173909,0.050679065
20240115 08:33:42,0.030917,0.877455,-0.320905,-0.005323,0.106909,-0.203695,39.530136,-29.080959,-8.316788,-77.532135,-0.49214137,0.92797464,0.21196829,-0.21460132,0.15093821,0.02358606
20240115 08:33:42,-0.071425,0.881572,-0.159006,0.018114,0.142066,-0.180257,40.136856,-29.502148,-8.685173,-79.13712,-0.36671066,0.8862936,0.3463249,-0.19080399,0.17977609,0.01815749
20240115 08:33:42,-0.002482,0.937380,0.322731,0.037291,0.116497,-0.169603,40.136471,-29.310261,-8.965645,-82.45784,0.11624515,0.8568682,0.35935235,-0.1627257,0.14883803,-4.2306725E-4
20240115 08:33:42,-0.002858,1.221807,0.733224,0.073512,0.032335,-0.160015,40.303963,-29.772594,-8.665855,-83.91679,0.44310707,1.064488,0.48786113,-0.123717554,0.066223755,-0.06243283
20240115 08:33:42,-0.002855,1.731078,0.916175,0.129976,-0.065677,-0.129120,40.109959,-29.787205,-8.666832,-84.80576,0.57291555,1.5645262,0.65383005,-0.061727926,-0.03691928,-0.1490262
20240115 08:33:42,0.258462,2.007156,0.742533,0.191766,-0.163689,-0.100356,40.330090,-29.103756,-9.245140,-85.109024,0.58102816,1.930258,0.4214809,-0.016123302,-0.14614822,-0.23691459
20240115 08:33:42,0.612524,2.268791,0.174296,0.224792,-0.188192,-0.104617,40.478886,-29.372356,-9.494064,-86.7358,0.27850384,2.2680182,0.012037434,-0.03700669,-0.18434219,-0.2681117
20240115 08:33:42,0.882930,2.512232,-0.445029,0.223726,-0.112552,-0.132316,40.409355,-29.382435,-9.092186,-87.31714,-0.2044306,2.5018392,-0.32503524,-0.08266767,-0.11539604,-0.24405468
20240115 08:33:42,0.781235,2.708124,-0.831283,0.168328,0.036596,-0.170669,40.628067,-29.832844,-9.462524,-80.34075,-0.8870791,2.7826462,-0.25916225,-0.13603196,0.054025188,-0.16343544
20240115 08:33:42,0.396443,2.710075,-0.686328,0.045813,0.179353,-0.189845,40.715527,-29.632732,-9.876625,-72.91764,-1.1744903,2.813705,0.20150484,-0.20891517,0.22068642,-0.016047033
20240115 08:33:42,-0.063052,2.236186,-0.072543,-0.111858,0.231555,-0.204760,40.954739,-29.334911,-9.625748,-71.59136,-0.77729774,2.1291149,0.7359908,-0.29089484,0.27041864,0.15585129
20240115 08:33:42,-0.624155,1.766583,0.668635,-0.272726,0.208117,-0.213283,40.779434,-29.543255,-9.078003,-72.49503,-0.34190577,1.2704633,1.3341177,-0.3654571,0.22458383,0.30375716
20240115 08:33:42,-1.313895,1.140858,1.453126,-0.408025,0.149523,-0.189845,41.291145,-29.125736,-9.234146,-76.219185,0.028987765,0.1811803,1.8687484,-0.4101073,0.11561856,0.402602
20240115 08:33:42,-1.865962,0.504020,2.235607,-0.490057,0.067491,-0.139774,41.085220,-29.601665,-10.142921,-80.152565,0.35257137,-0.8796711,2.0302784,-0.41025195,-0.01763777,0.42421937
20240115 08:33:42,-2.276181,0.030913,2.990257,-0.511364,-0.014540,-0.067330,41.200729,-29.692150,-9.733948,-87.89929,0.5349746,-1.6464953,1.8176668,-0.37411928,-0.13899262,0.37669656
20240115 08:33:42,-2.516549,-0.474889,3.727476,-0.460227,-0.153036,0.023225,41.236588,-29.312069,-9.758400,-92.2104,0.808239,-2.3449512,1.3763704,-0.25776482,-0.28385657,0.22335052
20240115 08:33:42,-2.511878,-0.851132,4.061651,-0.328124,-0.296858,0.127629,41.421242,-29.200596,-10.031792,-94.92383,1.0466702,-2.6232061,0.9007872,-0.07021709,-0.40109497,0.0101391105
20240115 08:33:42,-2.060050,-1.067520,3.878868,-0.134231,-0.390608,0.218183,41.357338,-29.290066,-10.830406,-93.93754,1.4831266,-2.4731293,0.5744727,0.15412089,-0.4534056,-0.1817364
20240115 08:33:42,-1.315792,-1.193288,3.143120,0.079904,-0.366105,0.270385,41.100578,-29.969814,-10.788589,-93.75466,1.7377372,-2.0504744,0.12037563,0.32905674,-0.3952903,-0.30613273
20240115 08:33:42,-0.508283,-1.314639,2.249892,0.268471,-0.258505,0.269320,41.373848,-30.233875,-10.634666,-93.69245,1.7160926,-1.6937424,-0.4238067,0.41075963,-0.26621887,-0.37805048
20240115 08:33:42,0.188058,-1.248052,1.397561,0.393117,-0.118944,0.217118,40.906960,-30.176311,-10.509094,-93.77556,1.4002975,-1.3436843,-0.8245229,0.39156887,-0.11796476,-0.4074678
20240115 08:33:42,0.597061,-1.055518,0.524789,0.430404,0.053642,0.128694,41.355919,-30.423916,-10.622437,-90.66366,0.7707697,-1.0668346,-0.97259724,0.2876996,0.056466863,-0.3733811
20240115 08:33:42,0.622928,-0.695694,-0.180392,0.376071,0.252862,0.039205,40.782867,-30.372730,-10.631485,-84.84564,0.11594896,-0.6506844,-0.8290291,0.14074549,0.26132193,-0.2651173
20240115 08:33:42,0.347785,-0.397772,-0.344045,0.237576,0.408403,-0.033239,41.100964,-30.161701,-10.508118,-77.00981,-0.10039802,-0.27639753,-0.48735702,-0.04220435,0.42377877,-0.0875291
20240115 08:33:42,-0.272759,-0.154447,-0.111465,0.046879,0.458474,-0.059873,41.109543,-29.874798,-10.794701,-68.93949,-0.14235775,-0.14255162,0.17994066,-0.20285743,0.44908407,0.11443142
20240115 08:33:42,-1.059419,-0.117723,0.366054,-0.148080,0.435037,-0.026847,41.637383,-30.209187,-11.035568,-68.17743,-0.15814292,-0.4995262,0.9506243,-0.27676,0.35835654,0.31410035
20240115 08:33:42,-1.619762,-0.213615,0.994566,-0.296163,0.367920,0.042401,41.576813,-30.124249,-10.639801,-72.47917,-0.026516855,-1.0325091,1.4287057,-0.2806217,0.22307467,0.4429889
20240115 08:33:42,-1.936706,-0.405864,1.523305,-0.355823,0.311456,0.122302,41.743156,-30.010929,-11.181427,-75.02127,0.15244722,-1.5320516,1.5950799,-0.24361446,0.11751293,0.4816912
20240115 08:33:42,-2.140058,-0.580339,1.769747,-0.323862,0.297607,0.217118,41.532375,-30.791233,-10.328766,-79.24134,0.20285916,-1.8562648,1.5837482,-0.16098486,0.07275584,0.45804355
20240115 08:33:42,-2.199046,-0.811840,1.890810,-0.238635,0.293345,0.319391,41.452343,-30.128780,-11.042656,-79.96956,0.2994765,-2.0853171,1.4664043,-0.035263017,0.06319695,0.39843267
20240115 08:33:42,-1.980201,-1.118626,1.790426,-0.133165,0.263516,0.398227,41.381775,-31.464611,-10.152336,-82.83697,0.5298313,-2.1930895,1.0752476,0.109482706,0.050640255,0.29111755
20240115 08:33:42,-1.520948,-1.366532,1.311830,-0.062852,0.225163,0.442972,41.873371,-31.987194,-10.649216,-81.59416,0.6185539,-2.0612547,0.61439025,0.21796794,0.03235899,0.2126301
20240115 08:33:42,-1.105663,-1.620952,0.760739,-0.021304,0.174026,0.450429,41.406868,-32.121502,-10.243179,-80.87139,0.5767294,-1.9689001,0.18920228,0.28656313,0.004939437,0.14317563
20240115 08:33:42,-0.691106,-1.727577,0.237354,-0.012781,0.125020,0.439776,41.661819,-32.383732,-10.357491,-79.06642,0.42250806,-1.8027533,-0.1444582,0.32026085,-0.023286581,0.10603984
20240115 08:33:42,-0.366410,-1.805090,-0.287169,-0.022369,0.086668,0.421665,41.335915,-33.265438,-9.633331,-79.69322,0.11169827,-1.6815869,-0.40324822,0.33336696,-0.039398246,0.0854038
20240115 08:33:42,-0.125696,-1.843462,-0.728078,-0.039415,0.060034,0.399292,41.644661,-32.957546,-9.784325,-79.0688,-0.25848448,-1.6172379,-0.5680311,0.33279935,-0.04179012,0.084290735
20240115 08:33:42,0.134913,-1.840015,-1.155639,-0.071375,0.058969,0.367332,41.430153,-33.720387,-10.406517,-79.997986,-0.7378436,-1.6095766,-0.72000533,0.31475103,-0.007523373,0.10401552
20240115 08:33:42,0.513165,-1.763281,-1.451283,-0.117185,0.091994,0.324718,41.396099,-33.158497,-10.309563,-88.71688,-1.246929,-1.7572278,-0.9881708,0.2794856,0.09063993,0.14000133
20240115 08:33:42,0.726098,-1.632018,-1.552088,-0.166191,0.121824,0.260797,41.272011,-33.354916,-10.431953,-91.8208,-1.4136741,-1.7430063,-1.1123648,0.21604432,0.14160766,0.1899768
20240115 08:33:42,0.828987,-1.419871,-1.479675,-0.201347,0.185745,0.193680,41.474594,-33.053394,-10.717560,-94.24564,-1.3208733,-1.5828345,-1.162091,0.14684844,0.20976304,0.24119337
20240115 08:33:42,0.806235,-1.116081,-1.215781,-0.192825,0.280561,0.134021,41.501488,-32.768337,-10.735893,-91.87987,-0.95607096,-1.1730897,-1.0950599,0.07998939,0.2880162,0.26760706
20240115 08:33:42,0.586561,-0.894694,-0.871171,-0.149145,0.384965,0.093538,41.405064,-33.063473,-10.315674,-89.49506,-0.5900476,-0.8510719,-0.8534134,0.023202315,0.37881708,0.26902482
20240115 08:33:42,0.398284,-0.646652,-0.563082,-0.086290,0.460605,0.072231,41.493294,-33.247135,-10.168846,-86.69958,-0.31386814,-0.564918,-0.61073154,-0.013105825,0.44613922,0.2435092
20240115 08:33:42,0.217013,-0.446879,-0.426594,-0.037284,0.493631,0.060512,41.669365,-33.422565,-10.155640,-86.00337,-0.25873402,-0.37663937,-0.37316102,-0.021253187,0.47919777,0.21297382
20240115 08:33:42,0.174043,-0.378016,-0.296228,-0.024500,0.458474,0.048793,41.906395,-33.874821,-10.257729,-86.015076,-0.16307747,-0.32758808,-0.30463886,-0.02276377,0.4465761,0.18749788
20240115 08:33:42,0.156972,-0.197029,-0.450551,-0.049003,0.384965,0.029617,42.039829,-33.775280,-9.860985,-82.172226,-0.33178884,-0.10481051,-0.23263016,-0.056284502,0.37003857,0.17305668
20240115 08:33:42,0.026477,-0.015175,-0.715511,-0.106531,0.338090,0.029617,41.827511,-33.788036,-10.130211,-78.08736,-0.6528148,0.14067647,-0.074627,-0.077489406,0.31573164,0.20389336
20240115 08:33:42,0.061944,0.120710,-0.811311,-0.190694,0.316783,0.039205,41.933289,-33.589764,-10.276070,-79.660904,-0.75942916,0.27632284,-0.06722063,-0.08285667,0.29110605,0.2801534
20240115 08:33:42,0.112451,0.185297,-0.486969,-0.281249,0.281626,0.042401,41.633507,-33.802647,-10.131187,-84.12141,-0.43908355,0.2663707,-0.057990156,-0.10434407,0.25414708,0.3633267
20240115 08:33:42,0.089488,0.195594,0.005237,-0.354758,0.218771,0.037074,41.961334,-33.880367,-9.452988,-88.254456,0.011568755,0.19802897,-0.0038007032,-0.14066695,0.18751669,0.4130466
20240115 08:33:42,0.002844,0.134268,0.580978,-0.380326,0.164438,0.027486,41.809582,-33.978069,-10.117989,-90.79214,0.4919634,0.04843039,0.055030618,-0.1731535,0.12999167,0.41328475
20240115 08:33:42,-0.106182,0.116592,1.135006,-0.333451,0.106909,0.015767,41.906010,-33.682934,-10.538193,-91.7716,0.90649426,-0.061648093,0.13245131,-0.1653412,0.07539632,0.34287012
20240115 08:33:42,-0.208554,0.056277,1.307832,-0.239700,0.080276,0.002983,42.064537,-34.240299,-10.232300,-92.13872,0.99457747,-0.18511677,0.18401122,-0.13148957,0.054795224,0.24747616
20240115 08:33:42,-0.389363,-0.033860,1.298023,-0.120381,0.068557,0.002983,42.179276,-33.947002,-10.384277,-89.99615,0.9018439,-0.33572674,0.31933284,-0.07174669,0.052192297,0.13852663
20240115 08:33:42,-0.570476,-0.039976,1.198826,0.005330,0.050446,0.017898,41.915359,-33.779804,-10.263840,-87.93117,0.73125213,-0.3843583,0.49708614,0.006204839,0.045325797,0.020683896
20240115 08:33:42,-0.555245,-0.139356,0.847694,0.112930,0.007832,0.040270,41.957993,-34.054783,-10.647385,-84.69248,0.5067361,-0.40165895,0.46650907,0.08423846,0.011717861,-0.095224746
20240115 08:33:42,-0.426559,-0.223272,0.341094,0.176851,-0.029455,0.058381,42.134068,-34.230213,-10.634178,-83.55492,0.17073414,-0.33561736,0.31019333,0.13210683,-0.023400508,-0.17006543
20240115 08:33:42,-0.097758,-0.342499,-0.092869,0.198158,-0.079527,0.057316,41.948647,-33.957912,-10.921738,-83.8755,-0.06434821,-0.32806015,-0.040671755,0.13975626,-0.0744479,-0.21105886
20240115 08:33:42,0.238650,-0.294584,-0.440946,0.203485,-0.115748,0.032813,41.930717,-34.147953,-10.909508,-86.76889,-0.3035906,-0.2451919,-0.3335929,0.111006826,-0.11143188,-0.23014708
20240115 08:33:42,0.537457,-0.349505,-0.749772,0.202419,-0.121075,-0.012997,42.186054,-34.602062,-10.743362,-89.93009,-0.5316305,-0.32949924,-0.62113106,0.05481129,-0.11930875,-0.23046255
20240115 08:33:42,0.694507,-0.324788,-0.811927,0.189635,-0.097637,-0.075853,42.204369,-34.603916,-10.475113,-91.56022,-0.544351,-0.32280818,-0.75494796,-0.010546517,-0.09737224,-0.21030062
20240115 08:33:42,0.630658,-0.098442,-0.576003,0.188570,-0.080592,-0.132316,41.834290,-34.443089,-10.489288,-89.679794,-0.31871977,-0.055774227,-0.6272714,-0.055169865,-0.069857776,-0.20502637
20240115 08:33:42,0.418956,0.115671,-0.251960,0.200289,-0.097637,-0.167473,42.239845,-34.031948,-10.780045,-87.83096,-0.0921831,0.1535825,-0.3518474,-0.07348752,-0.07439707,-0.2243481
20240115 08:33:42,0.259854,0.295442,-0.039735,0.230119,-0.126402,-0.184518,41.930717,-34.147953,-10.909508,-85.5228,0.019197915,0.31110218,-0.13572374,-0.06955479,-0.088968195,-0.26547334
20240115 08:33:42,0.115825,0.497634,-0.016554,0.265275,-0.145578,-0.185584,41.743874,-35.009510,-10.989105,-83.6777,-0.0538245,0.4999818,0.0672233,-0.053042933,-0.09743423,-0.30668533
20240115 08:33:42,0.117222,0.511673,-0.155589,0.283386,-0.160493,-0.184518,42.088860,-34.513424,-10.884079,-82.62328,-0.18605915,0.53572625,0.05420833,-0.05004342,-0.112741046,-0.32847744
20240115 08:33:42,0.180630,0.511005,-0.288310,0.282321,-0.172212,-0.199433,41.964771,-34.709850,-11.006470,-81.98475,-0.29089165,0.55993044,-0.017369162,-0.06510781,-0.121930614,-0.33184806
20240115 08:33:42,0.154431,0.572975,-0.395073,0.267406,-0.170081,-0.230328,42.273514,-34.401943,-11.157471,-77.9203,-0.43655092,0.6520005,0.003896214,-0.09358273,-0.099439904,-0.32136965
20240115 08:33:42,-0.126630,0.745666,-0.373771,0.248229,-0.125337,-0.249505,41.982315,-34.327915,-11.299164,-73.450066,-0.59220284,0.8048971,0.32086462,-0.10604181,-0.022622213,-0.29753366
20240115 08:33:42,-0.406562,0.811118,-0.050195,0.233315,-0.101899,-0.244178,42.228306,-34.685154,-11.407372,-73.91088,-0.44557256,0.7301187,0.65941864,-0.096602656,0.008534759,-0.2778386
20240115 08:33:42,-0.554652,0.920060,0.400416,0.222661,-0.127467,-0.226067,42.034302,-34.699764,-11.408348,-76.51193,-0.14519602,0.6804989,0.90069026,-0.07032998,-0.024902284,-0.2744349
20240115 08:33:42,-0.586157,1.186671,0.884637,0.223726,-0.221218,-0.195172,42.289642,-35.153873,-11.242188,-79.84344,0.20861584,0.82434815,1.0805258,-0.017965943,-0.13158096,-0.30787888
20240115 08:33:42,-0.526417,1.564615,0.991732,0.235445,-0.349060,-0.153623,41.841068,-35.098148,-10.848373,-79.28405,0.2743594,1.1895936,1.1443667,0.04388453,-0.27026185,-0.35954776
20240115 08:33:42,-0.214405,1.883544,0.565473,0.237576,-0.424699,-0.103552,41.892670,-35.278111,-11.238029,-79.27983,0.07485953,1.7124348,0.83960223,0.06686974,-0.3778496,-0.36678037
20240115 08:33:42,0.284331,2.105928,0.041261,0.197093,-0.439614,-0.082245,41.707630,-35.197697,-11.245117,-84.494545,-0.033268053,2.102953,0.3151049,0.008266568,-0.428253,-0.31394514
20240115 08:33:42,0.843006,2.307959,-0.259182,0.116126,-0.424699,-0.105683,41.741302,-35.567699,-11.622551,-91.743614,0.1438871,2.264928,-0.20243338,-0.10241942,-0.43361646,-0.22315945
20240115 08:33:42,1.262782,2.488885,-0.294297,0.008526,-0.391674,-0.164277,41.873970,-35.084370,-11.786751,-97.22021,0.4959464,2.3322928,-0.5615758,-0.2234334,-0.41464177,-0.10468603
20240115 08:33:42,1.466910,2.585323,-0.203016,-0.118250,-0.298988,-0.255897,41.883705,-35.373127,-11.231918,-98.55492,0.65787494,2.43994,-0.6622502,-0.32489938,-0.33099258,0.03929272
20240115 08:33:42,1.219667,2.292339,0.319386,-0.241831,-0.155166,-0.376281,41.740921,-35.375805,-11.903015,-91.478294,0.7178458,2.2927923,-0.34414685,-0.43655524,-0.15417926,0.17571041
20240115 08:33:42,0.331428,1.938078,1.309637,-0.304686,0.003571,-0.466836,41.952469,-34.979275,-12.194740,-86.53016,0.9462042,1.6936698,0.6161082,-0.54631865,0.05949961,0.26050103
20240115 08:33:42,-0.769691,1.465131,2.526863,-0.275922,0.113301,-0.482816,42.199875,-34.202656,-12.510925,-87.1078,1.1837981,0.5990446,1.5247513,-0.56398916,0.18519554,0.27866414
20240115 08:33:42,-1.604612,0.812601,3.425941,-0.174714,0.115432,-0.432744,42.100880,-35.055981,-12.724136,-91.96209,1.2099937,-0.5920083,1.6805749,-0.4545443,0.18940589,0.21762854
20240115 08:33:42,-2.126242,0.157509,4.033868,-0.035153,-0.009214,-0.335798,42.366985,-34.473103,-12.491608,-94.92814,1.2342044,-1.5645163,1.4297589,-0.2481421,0.07780585,0.03914693
20240115 08:33:42,-2.190842,-0.337190,4.004513,0.127845,-0.224414,-0.200499,41.960663,-34.500477,-12.761795,-93.874565,1.3294019,-2.083367,1.2071587,0.01695393,-0.11191766,-0.23629841
20240115 08:33:42,-1.802434,-0.761197,2.966632,0.265275,-0.416177,-0.059873,41.599934,-34.436520,-12.501625,-88.42487,1.3083631,-2.032424,1.0169485,0.24486163,-0.30350155,-0.4646579
20240115 08:33:42,-0.893008,-0.974903,1.534836,0.348372,-0.485424,0.050924,41.730415,-34.703281,-13.018799,-83.33477,1.080017,-1.4515917,0.38411954,0.3382371,-0.42664948,-0.5385777
20240115 08:33:42,0.176305,-1.186610,0.351613,0.370744,-0.441745,0.089276,42.067207,-34.685993,-12.346710,-88.117935,0.50437385,-1.2063352,-0.6331215,0.2723921,-0.4323368,-0.51566756
20240115 08:33:42,1.004171,-1.371956,-0.425307,0.353699,-0.349060,0.061577,41.606712,-35.091579,-12.860695,-96.32469,-0.18233699,-1.4466867,-1.4046757,0.14617443,-0.35436535,-0.45587066
20240115 08:33:42,1.502476,-1.416913,-0.668119,0.324935,-0.244656,-0.008736,41.491203,-35.001095,-13.269669,-101.523735,-0.4016672,-1.642067,-1.8418311,0.050582655,-0.265644,-0.38686246
20240115 08:33:43,1.627634,-1.390593,-0.723006,0.297235,-0.156232,-0.093964,41.500168,-34.906071,-13.275787,-99.76046,-0.37547332,-1.6095617,-1.9547722,-0.015062563,-0.1910244,-0.3264532
20240115 08:33:43,1.392468,-1.250198,-0.590523,0.279125,-0.092311,-0.158950,41.324863,-35.114422,-12.728043,-94.69866,-0.20506805,-1.3426695,-1.7114097,-0.06480961,-0.11527225,-0.28950524
20240115 08:33:43,1.028769,-1.018113,-0.552660,0.253556,-0.050762,-0.189845,41.659081,-35.655323,-12.689415,-86.414215,-0.14093572,-0.9722338,-1.3123707,-0.095309004,-0.037082165,-0.26018587
20240115 08:33:43,0.652546,-0.821055,-0.548719,0.193897,-0.031586,-0.179192,41.579819,-35.376637,-12.842361,-78.90344,-0.16066039,-0.6768997,-0.9121066,-0.09878812,0.010548094,-0.2046545
20240115 08:33:43,0.316861,-0.662820,-0.414839,0.092689,-0.039043,-0.149362,41.588402,-35.089725,-13.128952,-75.87497,-0.116577715,-0.52129453,-0.55428356,-0.095013015,0.0040940885,-0.11264802
20240115 08:33:43,0.152664,-0.597441,-0.137984,-0.011715,-0.073134,-0.099290,41.525642,-35.754864,-13.086151,-77.224495,0.080815695,-0.5271519,-0.37353083,-0.07517069,-0.04741642,-0.024488054
20240115 08:33:43,0.084059,-0.605562,0.047861,-0.103335,-0.108291,-0.042827,42.019428,-35.527378,-13.230057,-81.28937,0.20762435,-0.5902699,-0.32461604,-0.0578886,-0.106283955,0.046105783
20240115 08:33:43,0.120305,-0.650216,0.631937,-0.145949,-0.124271,0.006179,41.164917,-35.690922,-12.825974,-85.34068,0.7287103,-0.74297404,-0.37321332,-0.036250334,-0.13625537,0.075833365
20240115 08:33:43,0.221960,-0.758582,0.864170,-0.140623,-0.105095,0.046662,41.649349,-35.366558,-13.244232,-88.76131,0.9619531,-0.85041493,-0.5389456,-0.010024458,-0.12001502,0.0765419
20240115 08:33:43,0.495502,-0.886555,1.018504,-0.106531,-0.072069,0.055185,41.358150,-35.292530,-13.385956,-92.91183,1.1931491,-0.9382245,-0.88165927,0.0029496215,-0.08004545,0.058131322
20240115 08:33:43,0.738480,-0.982010,1.023278,-0.061787,-0.037978,0.032813,40.855404,-35.615032,-13.235916,-95.22089,1.2890091,-1.0056127,-1.158633,9.880736E-4,-0.040544502,0.034984972
20240115 08:33:43,0.864978,-1.018669,1.003748,-0.023434,-0.014540,-0.006605,41.719265,-35.548374,-13.365662,-95.56233,1.320118,-1.0322117,-1.288661,-0.016553214,-0.014690854,0.014064596
20240115 08:33:43,0.811308,-0.958056,0.985343,0.009591,-0.017736,-0.050284,41.323444,-36.248272,-12.520081,-95.016785,1.301609,-0.98720366,-1.2029575,-0.038932126,-0.014619872,-0.014673805
20240115 08:33:43,0.603628,-0.826474,0.847765,0.027702,-0.032651,-0.080114,41.225868,-35.967754,-12.941277,-89.63187,1.1186166,-0.88348395,-0.9068119,-0.054846525,-0.021336693,-0.039600205
20240115 08:33:43,0.330931,-0.628771,0.659527,0.050075,-0.026259,-0.069461,41.356731,-36.426388,-13.177963,-85.72378,0.8312088,-0.7008608,-0.5470274,-0.035852578,-0.010474414,-0.058692075
20240115 08:33:43,0.253919,-0.606954,0.533670,0.067120,-0.009214,-0.043892,41.313713,-35.959515,-13.074905,-83.67847,0.6920858,-0.6708432,-0.45799673,-0.009370729,0.004649317,-0.06683414
20240115 08:33:43,0.201473,-0.590697,0.400048,0.074578,-0.001756,-0.017259,41.259922,-36.529629,-13.038223,-83.21687,0.5489986,-0.63592786,-0.4027764,0.0151009755,0.0075814174,-0.06971005
20240115 08:33:43,0.232927,-0.608340,0.173842,0.067120,-0.006018,0.002983,41.613876,-35.938534,-12.939323,-81.54916,0.35966408,-0.6102378,-0.43598074,0.02954352,-0.0012703151,-0.06410775
20240115 08:33:43,0.277074,-0.644920,-0.012028,0.055401,-0.009214,0.009375,41.462509,-36.228115,-13.323837,-79.585556,0.22111882,-0.6051584,-0.49375063,0.030930597,-0.0064353654,-0.05417177
20240115 08:33:43,0.253538,-0.652314,-0.160400,0.041552,-0.021998,0.013636,41.426262,-36.416302,-13.579849,-76.11041,0.090914056,-0.5747957,-0.47135884,0.03186609,-0.02093322,-0.045246452
20240115 08:33:43,0.210083,-0.558905,-0.486436,0.037291,-0.012410,0.028551,41.278236,-36.531483,-12.769974,-72.477875,-0.22526789,-0.3850354,-0.41270924,0.041047726,-0.016289884,-0.036422435
20240115 08:33:43,0.163265,-0.508839,-0.766498,0.026637,0.014224,0.055185,41.241226,-36.335888,-13.586945,-69.47429,-0.50922835,-0.25722593,-0.3757783,0.05427102,4.2067654E-4,-0.015818648
20240115 08:33:43,0.284433,-0.477887,-0.886628,0.004265,0.015289,0.083949,41.250957,-36.624653,-13.032120,-71.37246,-0.6265908,-0.22104545,-0.4757126,0.07534597,-0.005795163,0.0072471327
20240115 08:33:43,0.390484,-0.346045,-1.140481,-0.028761,0.002505,0.113779,41.559700,-36.316753,-13.183105,-69.78225,-0.9036539,-0.04649484,-0.54783213,0.100042336,-0.025859779,0.03771239
20240115 08:33:43,0.553209,-0.273245,-1.387483,-0.076702,0.030204,0.140413,41.126488,-36.629192,-13.434967,-74.861145,-1.1816072,-0.06517157,-0.67732626,0.11467697,0.008488229,0.089297116
20240115 08:33:43,0.742898,-0.335577,-1.386886,-0.119316,0.052577,0.151066,41.444962,-36.610043,-13.031143,-81.17121,-1.1634021,-0.26002777,-0.8473877,0.11720616,0.043895364,0.13329452
20240115 08:33:43,0.889330,-0.436950,-1.241820,-0.161930,0.068557,0.140413,41.117905,-36.916096,-13.148376,-85.06981,-0.9735669,-0.43018252,-0.99774957,0.09442417,0.067717634,0.17702122
20240115 08:33:43,0.917966,-0.538888,-0.928463,-0.191759,0.066426,0.104191,41.020325,-36.635563,-13.569580,-85.135635,-0.5951368,-0.4976384,-1.059424,0.040221237,0.060862966,0.20538925
20240115 08:33:43,0.770401,-0.534174,-0.541763,-0.193890,0.045119,0.071165,41.284630,-36.994656,-13.409546,-85.96572,-0.21802261,-0.48151222,-0.9169993,-7.812083E-4,0.036181107,0.19945155
20240115 08:33:43,0.651721,-0.505577,-0.222193,-0.148080,0.037662,0.044532,41.293213,-36.707745,-13.696136,-84.84231,0.07642107,-0.4568842,-0.7960412,-0.015382443,0.027597228,0.1531214
20240115 08:33:43,0.509200,-0.449987,-0.147152,-0.072440,0.055773,0.030682,40.790462,-37.030247,-13.546097,-83.85669,0.09914683,-0.40565184,-0.64107513,-0.004094243,0.048373055,0.08864526
20240115 08:33:43,0.445263,-0.349394,-0.191411,0.018114,0.089864,0.030682,41.230453,-37.372883,-13.653336,-81.589325,0.022658631,-0.29613754,-0.5459301,0.022122594,0.08548832,0.014790361
20240115 08:33:43,0.435115,-0.249730,-0.416119,0.090558,0.123955,0.037074,41.521652,-37.446911,-13.511627,-79.16205,-0.22245803,-0.16484335,-0.51289546,0.044148006,0.12125556,-0.047122594
20240115 08:33:43,0.492180,-0.092733,-0.765809,0.111865,0.147393,0.051989,40.897003,-37.215763,-13.131012,-78.453865,-0.5871471,0.026043326,-0.5395757,0.0603218,0.14330013,-0.06633145
20240115 08:33:43,0.612818,0.046783,-0.991843,0.101211,0.147393,0.059446,41.415497,-37.453289,-13.646240,-79.07199,-0.8083179,0.15360004,-0.62890446,0.06874005,0.14359125,-0.059266277
20240115 08:33:43,0.669697,0.218382,-1.029951,0.010657,0.112236,0.072231,41.009560,-37.672550,-13.635971,-80.6123,-0.84209776,0.30190143,-0.63647616,0.06457128,0.10708772,0.020361751
20240115 08:33:43,0.772297,0.411109,-0.862152,-0.055395,0.077080,0.078623,41.415497,-37.453289,-13.646240,-84.36741,-0.6297384,0.44064736,-0.6544864,0.05838108,0.07445628,0.07632376
20240115 08:33:43,0.853832,0.531091,-0.573633,-0.079898,0.044054,0.081819,41.160542,-37.191067,-13.531921,-87.40171,-0.29898885,0.5228705,-0.6729691,0.05585766,0.045095917,0.09023585
20240115 08:33:43,0.967656,0.567680,-0.469259,-0.078832,0.061099,0.076492,41.203949,-37.849834,-13.354523,-89.92742,-0.13946125,0.5415975,-0.7539793,0.051431097,0.064433955,0.09351753
20240115 08:33:43,1.013758,0.606457,-0.189841,-0.059656,0.105844,0.055185,41.194981,-37.944851,-13.348404,-92.241234,0.1804158,0.5832662,-0.7548047,0.03677659,0.10890055,0.09048135
20240115 08:33:43,1.013220,0.582444,0.151052,-0.045807,0.120759,0.038139,40.964733,-38.147648,-13.605408,-92.30948,0.51261824,0.57741445,-0.74324244,0.02194339,0.12189139,0.08506374
20240115 08:33:43,0.887593,0.617511,0.336341,0.008526,0.149523,-0.014063,41.354546,-37.176456,-13.530945,-90.178566,0.6244457,0.6176113,-0.6007845,-0.013122184,0.1498521,0.046743203
20240115 08:33:43,0.684521,0.732593,0.501249,0.056467,0.167634,-0.033239,41.264896,-38.126652,-13.469803,-88.25706,0.66648936,0.7143481,-0.35759574,-0.021661472,0.17110437,0.009490624
20240115 08:33:43,0.491108,0.750230,0.546014,0.104407,0.171896,-0.042827,41.088821,-37.951221,-13.483017,-85.04529,0.59335244,0.7011588,-0.16239566,-0.021732392,0.18067831,-0.035031628
20240115 08:33:43,0.265312,0.804680,0.451320,0.135303,0.165503,-0.037500,41.265282,-38.318546,-13.189346,-82.05588,0.37425023,0.7327726,0.059889197,-0.01382654,0.17782187,-0.06951404
20240115 08:33:43,0.151350,0.850809,0.323368,0.147021,0.153785,-0.020455,40.947571,-38.721462,-13.032227,-80.43082,0.18025675,0.77863073,0.17561217,0.00300969,0.16542701,-0.084778436
20240115 08:33:43,0.073858,0.798450,0.332585,0.141695,0.117563,-0.006605,41.380402,-38.217144,-13.060837,-79.40673,0.16087191,0.71376455,0.23242748,0.019709762,0.12731025,-0.091651656
20240115 08:33:43,0.072571,0.928154,0.393082,0.132106,0.088798,0.002983,41.098171,-38.048100,-13.208664,-80.96399,0.22282095,0.84680384,0.276233,0.033518963,0.09544845,-0.09264881
20240115 08:33:43,0.267556,1.234932,0.403040,0.100146,-0.039043,0.034943,41.256317,-38.413563,-13.183228,-82.60898,0.29560998,1.1793948,0.17711021,0.07159083,-0.038514726,-0.10582274
20240115 08:33:43,0.445209,1.534352,0.331081,0.074578,-0.124271,0.056250,41.423424,-38.684017,-13.163910,-84.856224,0.32827443,1.5137261,0.06940006,0.08686645,-0.1263768,-0.108247414
20240115 08:33:43,0.739861,1.711720,0.151292,0.063924,-0.155166,0.064773,40.903130,-39.388454,-12.721199,-88.85409,0.3557516,1.7118924,-0.20941517,0.08093512,-0.15527509,-0.105892986
20240115 08:33:43,1.008662,1.642790,-0.108377,0.043683,-0.135990,0.047728,40.938992,-39.008381,-12.745651,-90.605934,0.25769472,1.6177776,-0.5357241,0.04975152,-0.13370708,-0.07837146
20240115 08:33:43,1.011008,1.754274,-0.382833,0.014918,-0.020932,0.007244,40.717323,-38.924267,-13.289230,-87.395096,-0.07432321,1.7442565,-0.5135431,0.010637256,-0.020883506,-0.019851469
20240115 08:33:43,0.910985,1.794858,-0.302819,-0.005323,0.101583,-0.023651,40.990593,-39.188328,-13.135300,-86.283585,-0.105320275,1.8253093,-0.3167887,-0.02977929,0.10263251,0.03601823
20240115 08:33:43,0.440258,1.604631,0.451463,-0.010650,0.136739,-0.042827,40.878426,-38.923428,-12.349884,-84.51497,0.33020785,1.5404835,0.17436707,-0.063992575,0.14080025,0.05707767
20240115 08:33:43,-0.016109,1.446485,1.011510,-0.025565,0.161242,-0.065199,41.299721,-39.072323,-13.005821,-83.93875,0.59779775,1.2022109,0.6480988,-0.101315856,0.16811264,0.086222686
20240115 08:33:43,-0.177867,1.371326,1.298963,-0.015977,0.094125,-0.068395,41.141960,-38.898746,-12.750786,-84.27605,0.73087,1.0015898,0.81334573,-0.08833018,0.10503868,0.052343324
20240115 08:33:43,-0.540678,1.014081,1.501056,0.018114,0.065361,-0.054546,40.789810,-38.547894,-12.777191,-81.95235,0.7474923,0.46797955,1.0286609,-0.056401707,0.0798649,0.009468644
20240115 08:33:43,-0.800052,0.688547,1.480957,0.035160,0.080276,-0.041762,41.139771,-39.648815,-13.103760,-82.24532,0.63068783,0.05816266,1.1228013,-0.042416155,0.093875825,0.0041200398
20240115 08:33:43,-1.095410,0.451666,1.756358,0.045813,0.086668,-0.022585,40.718475,-39.499935,-12.447807,-84.73938,0.69050574,-0.36795586,1.2537318,-0.022877466,0.09643131,0.0036042703
20240115 08:33:43,-1.363547,0.185983,2.070647,0.068186,0.065361,0.020029,40.742798,-39.773060,-13.099594,-86.92346,0.7792418,-0.81222075,1.3027923,0.031125933,0.06820112,-0.020595651
20240115 08:33:43,-1.583972,-0.075556,2.378887,0.083100,0.038727,0.050924,41.194328,-39.462482,-12.579483,-89.44321,0.9102079,-1.2032776,1.2694826,0.07325607,0.03782527,-0.045747753
20240115 08:33:43,-1.578890,-0.180401,2.449899,0.148087,-0.086984,0.167047,40.858307,-39.863552,-12.690628,-91.830444,1.0169909,-1.2236974,1.144476,0.23830369,-0.099839315,-0.17422774
20240115 08:33:43,-1.067203,-0.621982,2.240249,0.203485,-0.151970,0.220314,40.706940,-40.153133,-13.075150,-93.47289,1.334382,-1.3123138,0.46410203,0.32523298,-0.16562882,-0.26093823
20240115 08:33:43,-0.457196,-0.918788,1.916010,0.248229,-0.192453,0.224575,40.521515,-39.880833,-13.362701,-94.681206,1.5111326,-1.2698053,-0.17515668,0.35012054,-0.20059058,-0.3216518
20240115 08:33:43,-0.142500,-0.992110,1.699412,0.270602,-0.200976,0.206464,40.215347,-39.630550,-12.578255,-97.04225,1.4958559,-1.1307046,-0.44762915,0.32639694,-0.20482285,-0.34528208
20240115 08:33:43,0.699399,-1.226808,0.853438,0.306824,-0.116814,0.080753,40.531250,-40.169590,-12.807877,-98.992584,1.0664383,-1.2235843,-1.2199401,0.20679355,-0.11724608,-0.33184642
20240115 08:33:43,0.929283,-1.157699,0.525352,0.314281,0.019551,-0.046023,40.000839,-40.393383,-13.200455,-97.93773,0.8335842,-1.1547362,-1.34956,0.08825898,0.01494625,-0.27566198
20240115 08:33:43,0.923398,-1.094188,0.467602,0.310020,0.170830,-0.164277,40.425476,-40.367863,-12.662018,-94.2077,0.85164464,-1.0954893,-1.3002129,-0.032302447,0.18455894,-0.20953554
20240115 08:33:43,0.448902,-0.985841,0.508501,0.282321,0.305064,-0.260158,40.152977,-40.487576,-12.255005,-89.639244,0.7962418,-1.0181192,-0.81938505,-0.161822,0.36125457,-0.12917046
20240115 08:33:43,-0.082652,-0.910688,0.759947,0.258883,0.346613,-0.295314,40.082676,-40.113873,-12.414063,-84.55077,0.8562029,-1.0865378,-0.30594867,-0.22757038,0.44709584,-0.08635062
20240115 08:33:43,-0.723976,-0.785374,1.110845,0.157675,0.373246,-0.330471,40.311504,-41.044933,-11.949097,-84.24715,0.8019829,-1.246063,0.29999548,-0.31522498,0.48755467,0.029389119
20240115 08:33:43,-1.165902,-0.832625,1.361393,0.103342,0.318914,-0.300641,41.053463,-40.424610,-11.848236,-82.5778,0.7521859,-1.5521576,0.6572631,-0.29928815,0.42588472,0.056160077
20240115 08:33:43,-1.528365,-0.911796,1.460320,0.060728,0.234751,-0.247374,40.338398,-40.759876,-11.967438,-81.69477,0.63890886,-1.8230159,0.9230957,-0.24834949,0.32464227,0.053611245
20240115 08:33:43,-1.692783,-0.987756,1.306078,0.041552,0.152719,-0.164277,41.001862,-40.244640,-11.458588,-78.19503,0.49388796,-1.9189168,1.0685489,-0.16573346,0.21600813,0.025866415
20240115 08:33:43,-1.656704,-1.126067,1.045024,0.038356,0.094125,-0.074787,40.932331,-40.254726,-11.056709,-76.96341,0.4348436,-1.8933867,0.98486394,-0.07839318,0.12460548,0.0052188225
20240115 08:33:43,-1.367561,-1.353351,0.681050,0.035160,0.038727,-0.006605,40.869576,-40.919865,-11.013916,-75.00433,0.4845534,-1.8117585,0.66039854,-0.0061798533,0.044822015,-0.013813701
20240115 08:33:43,-0.969373,-1.618774,0.252269,0.020245,-0.007083,0.031747,40.490532,-40.854053,-11.021980,-71.99243,0.52080435,-1.7222843,0.24089502,0.036631234,-0.016225602,-0.016915236
20240115 08:33:43,-0.586009,-1.723197,-0.193991,0.012788,-0.018802,0.044532,40.436745,-41.424175,-10.985298,-68.520905,0.40986764,-1.5194477,-0.08818889,0.04929202,-0.034319915,-0.012293401
20240115 08:33:43,-0.292805,-1.757782,-0.666494,-0.001062,0.027008,0.041336,40.781349,-40.736202,-11.160744,-64.67823,0.16114223,-1.2763393,-0.3517387,0.021242324,0.004418064,0.015098494
20240115 08:33:43,-0.186717,-1.779973,-0.820044,-0.006389,0.058969,0.034943,41.045265,-40.903408,-11.281189,-65.189255,0.054075003,-1.2289243,-0.47173238,5.1130913E-4,0.035258234,0.028574198
20240115 08:33:43,-0.172155,-1.756167,-0.795259,-0.020238,0.095191,0.016832,40.684540,-40.839451,-11.021004,-62.90285,0.12594622,-1.1704308,-0.4564783,-0.037869323,0.07113839,0.0488906
20240115 08:33:43,-0.246124,-1.581681,-0.934490,-0.028761,0.095191,0.020029,40.878540,-40.824841,-11.020027,-58.63223,-0.012037575,-0.8924019,-0.3268295,-0.041621316,0.06512662,0.055401504
20240115 08:33:43,-0.290307,-1.402469,-1.130220,-0.045807,0.081341,0.039205,40.075630,-41.168331,-11.005592,-52.031097,-0.14751822,-0.5254021,-0.22410154,-0.029228874,0.035134096,0.06862423
20240115 08:33:43,-0.257739,-1.240031,-1.368130,-0.077767,0.077080,0.060512,40.315228,-41.062405,-10.474236,-48.77128,-0.3509946,-0.1837604,-0.21412636,-0.020429056,0.011444565,0.09996915
20240115 08:33:43,-0.239881,-1.161051,-1.460502,-0.095878,0.074949,0.069035,40.154510,-41.255131,-11.133110,-43.47745,-0.39055914,0.016355217,-0.19131975,-0.018829122,-0.001630485,0.11657774
20240115 08:33:43,-0.200608,-0.945277,-1.642705,-0.164060,0.112236,0.098864,40.128002,-41.732075,-10.834297,-39.660755,-0.55714697,0.40271246,-0.20884764,-0.042136908,-0.010890335,0.19217254
20240115 08:33:43,-0.231782,-0.690573,-1.902508,-0.216262,0.201725,0.129759,40.076401,-41.552113,-10.444649,-44.302864,-1.0137419,0.6578978,-0.18306059,-0.08099292,0.038375728,0.26273283
20240115 08:33:43,-0.241700,-0.459117,-1.627575,-0.256746,0.264581,0.161720,40.409851,-41.709232,-10.966957,-54.115025,-1.1052513,0.4743195,-0.12329297,-0.0852156,0.090433516,0.3303412
20240115 08:33:43,-0.384579,-0.249600,-0.835649,-0.287641,0.265646,0.194746,40.243507,-41.822559,-10.425331,-65.9214,-0.70635605,0.0995692,0.18444568,-0.048599243,0.10238267,0.3748698
20240115 08:33:43,-0.379300,-0.221833,-0.530715,-0.296163,0.237947,0.206464,40.297684,-41.444332,-10.181541,-69.74783,-0.48145795,-0.03225313,0.22613333,-0.025043324,0.08201364,0.37777224
20240115 08:33:43,-0.352603,-0.156530,-0.148450,-0.308948,0.159111,0.227771,39.907486,-42.223637,-10.536469,-74.95073,-0.19513169,-0.13851316,0.26245522,0.027874544,0.019600414,0.36431834
20240115 08:33:43,-0.320760,-0.084095,0.044946,-0.300425,0.081341,0.245882,39.925034,-41.841702,-10.829163,-76.78402,-0.048477635,-0.13578348,0.273142,0.0772693,-0.047149543,0.3290595
20240115 08:33:43,-0.228538,-0.033811,0.118666,-0.283379,0.013159,0.259732,40.015450,-41.275288,-10.329361,-80.84088,0.03076195,-0.092860065,0.20725438,0.121601544,-0.09556405,0.28353575
20240115 08:33:43,-0.053715,-0.024790,0.197856,-0.256746,-0.100834,0.252274,39.483620,-42.632923,-10.513969,-84.35485,0.16616736,-0.07404408,0.048413314,0.16124299,-0.17781956,0.213516
20240115 08:33:43,0.104264,-0.009048,0.053086,-0.255680,-0.130663,0.242686,39.431633,-42.261082,-10.404785,-83.90499,0.08566453,-0.012233207,-0.09932715,0.16474661,-0.19925278,0.20579657
20240115 08:33:43,0.224572,0.091169,-0.225654,-0.250353,-0.145578,0.214987,39.484001,-42.824810,-10.233498,-85.30319,-0.1543819,0.14481209,-0.18948889,0.14618662,-0.19783446,0.19623545
20240115 08:33:43,0.387138,0.059194,-0.246715,-0.240765,-0.095507,0.173439,39.325089,-42.075565,-10.819870,-88.190056,-0.11137907,0.10575122,-0.34886447,0.09525051,-0.12642804,0.19792615
20240115 08:33:43,0.531401,0.039274,-0.108083,-0.215197,-0.035847,0.106322,39.371067,-42.176136,-10.009018,-92.94067,0.08246398,0.06664032,-0.48179126,0.026687339,-0.052441448,0.18698172
20240115 08:33:43,0.534826,0.011317,0.027955,-0.193890,-0.008148,0.065839,38.903793,-41.926678,-10.163925,-93.92036,0.22722381,0.03072225,-0.4913859,-0.012083456,-0.022902865,0.17464416
20240115 08:33:44,0.376798,-0.023283,0.370031,-0.116120,0.019551,-0.055611,39.158749,-42.188892,-10.278244,-92.185646,0.4868673,-0.053676043,-0.36148524,-0.09874107,0.020232566,0.11535897
20240115 08:33:44,0.245250,0.022033,0.412181,-0.082028,0.019551,-0.088637,38.698639,-42.786388,-10.511757,-89.09293,0.46124354,-0.041850902,-0.21423389,-0.11571765,0.030086637,0.0825517
20240115 08:33:44,-0.126826,0.174232,0.367691,0.003199,-0.029455,-0.148296,38.619759,-42.699589,-10.384239,-84.490425,0.23272318,0.056567274,0.196193,-0.12270174,0.011170292,-0.019393604
20240115 08:33:44,-0.201723,0.229631,0.223723,0.023441,-0.048631,-0.157885,39.070904,-42.197124,-10.144608,-81.12069,0.05505994,0.12684512,0.2830919,-0.11613308,0.0039604343,-0.048212
20240115 08:33:44,-0.355997,0.370378,-0.078025,0.052205,-0.081657,-0.155754,39.069099,-43.139088,-10.217110,-77.174576,-0.31632748,0.32760707,0.45228088,-0.09072235,-0.016661197,-0.08818504
20240115 08:33:44,-0.320344,0.388030,-0.295912,0.062859,-0.123206,-0.148296,39.177444,-42.382633,-9.729523,-75.90295,-0.49957642,0.425052,0.40233913,-0.06701474,-0.055617236,-0.110365376
20240115 08:33:44,-0.222229,0.326524,-0.424589,0.069251,-0.193519,-0.146166,38.559959,-42.998440,-9.427528,-74.74178,-0.5583248,0.42781538,0.2735331,-0.040286623,-0.1206741,-0.1344629
20240115 08:33:44,-0.195376,0.367826,-0.593754,0.077774,-0.202042,-0.145100,38.929653,-42.967365,-9.693825,-73.59944,-0.7144781,0.5295099,0.2413682,-0.0349013,-0.12840585,-0.1436587
20240115 08:33:44,-0.162132,0.394123,-0.746704,0.101211,-0.188192,-0.149362,38.789825,-42.603748,-9.451012,-71.761635,-0.8523089,0.62068534,0.19515765,-0.03490308,-0.108203396,-0.16058317
20240115 08:33:44,-0.209049,0.436368,-0.849113,0.123584,-0.155166,-0.158950,38.408592,-43.288021,-9.812050,-67.27276,-0.9748173,0.7263016,0.22154781,-0.03592342,-0.056039073,-0.17614625
20240115 08:33:44,-0.316148,0.592649,-0.824785,0.136368,-0.133859,-0.158950,38.550613,-42.901562,-9.701889,-67.31295,-1.0514255,0.8434172,0.36834672,-0.039694846,-0.03395772,-0.18353061
20240115 08:33:44,-0.405915,0.745776,-0.710920,0.143825,-0.137055,-0.147231,38.913910,-42.407330,-9.328621,-66.16399,-1.055593,0.9230906,0.50338256,-0.019750722,-0.033809207,-0.19146298
20240115 08:33:44,-0.559238,0.871964,-0.651919,0.139564,-0.169016,-0.122728,38.893795,-43.347439,-9.669365,-64.4834,-1.120648,0.9841924,0.6835986,0.020185329,-0.06733551,-0.19392255
20240115 08:33:44,-0.582046,0.949956,-0.641857,0.127845,-0.202042,-0.086506,38.490814,-43.200397,-8.745186,-67.83946,-1.15005,1.0420126,0.7477912,0.05989428,-0.11802997,-0.18837582
20240115 08:33:44,-0.530399,0.877181,-0.437163,0.119322,-0.242525,-0.051350,38.551376,-43.285343,-9.140945,-69.94575,-0.91413236,0.89539564,0.71319026,0.0984879,-0.17687091,-0.18950748
20240115 08:33:44,-0.499805,0.795041,-0.336874,0.115061,-0.264897,-0.030043,38.878437,-42.979298,-9.023697,-74.34093,-0.76436627,0.78769547,0.6932944,0.115431905,-0.21380354,-0.19495822
20240115 08:33:44,-0.524141,0.743918,-0.000144,0.136368,-0.272355,-0.020455,38.711708,-42.900730,-8.762543,-77.89881,-0.47221327,0.6020251,0.7505391,0.13545907,-0.22074111,-0.22450945
20240115 08:33:44,-0.684420,0.652627,0.497118,0.194962,-0.310707,-0.005540,38.570076,-43.479084,-8.592232,-81.902695,-0.0837864,0.311355,0.9084595,0.18469393,-0.25306395,-0.29923522
20240115 08:33:44,-0.674086,0.768224,0.633153,0.259948,-0.349060,0.010440,38.199997,-43.318264,-8.606407,-81.63257,6.980896E-4,0.37425175,0.94851446,0.23522657,-0.285534,-0.371582
20240115 08:33:44,-0.727157,1.071393,0.629101,0.295105,-0.365040,0.025355,38.500546,-43.489155,-8.190353,-81.797516,-0.07193136,0.69265807,1.0877175,0.25023735,-0.31102362,-0.40275204
20240115 08:33:44,-0.289219,1.019802,0.106855,0.347307,-0.389543,0.047728,38.588005,-43.289043,-8.604454,-80.56242,-0.2755282,0.91915005,0.58259076,0.25693947,-0.35507417,-0.444139
20240115 08:33:44,-0.048297,1.210995,-0.088769,0.371810,-0.395935,0.038139,38.033657,-43.431583,-8.064789,-83.14568,-0.3739528,1.1931511,0.3767627,0.2294603,-0.36863413,-0.4649479
20240115 08:33:44,0.421660,0.973378,-0.311255,0.359026,-0.404458,-0.014063,38.368259,-44.164371,-7.745674,-89.98536,-0.2797271,1.0042278,-0.17447965,0.10641811,-0.39445186,-0.44597325
20240115 08:33:44,0.671214,1.079660,-0.602052,0.310020,-0.401262,-0.085441,38.588776,-43.672817,-8.043518,-90.61157,-0.48390085,1.1185778,-0.39730334,0.011179611,-0.3921609,-0.39538777
20240115 08:33:44,0.831451,1.200044,-0.643698,0.254622,-0.384216,-0.157885,38.146591,-44.080265,-8.289261,-91.72987,-0.4616096,1.2144729,-0.5367117,-0.08996745,-0.38036308,-0.33323887
20240115 08:33:44,0.728437,1.516119,-0.867098,0.187505,-0.300054,-0.198368,38.474037,-43.966106,-7.891541,-80.49755,-0.9661237,1.6673901,-0.4624061,-0.104366794,-0.25448996,-0.24572521
20240115 08:33:44,0.383184,1.731144,-1.097961,0.088427,-0.122140,-0.194106,38.440361,-43.596111,-7.514114,-77.115135,-1.4006349,1.970938,-0.08317318,-0.13464758,-0.06400217,-0.11946355
20240115 08:33:44,0.207080,1.466076,-0.551876,-0.012781,0.078145,-0.204760,38.836952,-43.279980,-7.798744,-80.8524,-0.86156934,1.5747489,0.19755703,-0.2129948,0.13184273,0.025206078
20240115 08:33:44,-0.361427,1.032630,0.592508,-0.090551,0.184680,-0.199433,38.519241,-43.682888,-7.641640,-88.83387,0.027776778,0.72721195,0.7612737,-0.26629075,0.22335419,0.15716627
20240115 08:33:44,-0.967555,0.554538,1.785835,-0.119316,0.150589,-0.149362,38.706856,-43.205112,-7.001099,-96.413666,0.7265921,-0.28307688,1.0106721,-0.22975826,0.16471693,0.18784122
20240115 08:33:44,-1.511265,0.118583,2.742467,-0.101205,0.078145,-0.112075,39.234306,-43.347630,-7.522430,-103.36795,1.0998893,-1.0953584,0.90828604,-0.16760513,0.08370771,0.1419573
20240115 08:33:44,-1.749325,-0.246353,3.306586,-0.019173,-0.146644,-0.016193,38.785736,-43.291904,-7.128624,-105.930214,1.3984371,-1.6793754,0.67659765,0.022109333,-0.13436185,-0.068807915
20240115 08:33:44,-1.625770,-0.432599,3.003042,0.096950,-0.349060,0.104191,38.961807,-43.467342,-7.115417,-103.1556,1.4473909,-1.6970308,0.680892,0.24342583,-0.3333504,-0.29022923
20240115 08:33:44,-1.019827,-0.608929,2.097342,0.208812,-0.456660,0.213922,39.016365,-43.281002,-6.591148,-98.34125,1.3983686,-1.3125167,0.44186985,0.4049405,-0.45968142,-0.41932616
20240115 08:33:44,-0.132875,-0.683763,0.983186,0.278059,-0.432157,0.274647,38.450478,-44.076756,-6.678810,-99.33092,0.9349505,-0.82472444,-0.21187271,0.42184633,-0.44882274,-0.4432346
20240115 08:33:44,0.772819,-0.796288,0.224088,0.286582,-0.362909,0.274647,38.715168,-44.627720,-6.238297,-106.29573,0.4148509,-0.7974452,-1.0030099,0.32975954,-0.35070372,-0.41120937
20240115 08:33:44,1.271163,-0.647456,-0.322320,0.248229,-0.254244,0.233098,38.493118,-44.351727,-7.062355,-110.42048,-0.0632572,-0.78175116,-1.3603026,0.23673883,-0.21497793,-0.33119997
20240115 08:33:44,1.508001,-0.415899,-0.471248,0.188570,-0.139186,0.187288,38.432934,-44.458683,-6.386116,-114.8631,-0.07951692,-0.6523959,-1.4904991,0.19217078,-0.10019779,-0.24226633
20240115 08:33:44,1.606315,-0.368874,-0.283087,0.107603,-0.078461,0.129759,38.962959,-44.043003,-6.274002,-114.67191,0.15435278,-0.5623431,-1.5927774,0.13274717,-0.051820014,-0.14168294
20240115 08:33:44,1.517751,-0.385710,0.002129,0.006395,-0.081657,0.058381,38.416809,-43.706745,-6.301384,-112.32821,0.44376057,-0.477711,-1.549358,0.041096542,-0.06981684,-0.03901366
20240115 08:33:44,1.232408,-0.343789,0.293585,-0.096943,-0.111487,-0.002344,38.733097,-44.437687,-6.250526,-107.719826,0.70060474,-0.3536111,-1.2996835,-0.04359527,-0.10929565,0.05210328
20240115 08:33:44,0.731999,-0.243629,0.608537,-0.166191,-0.111487,-0.024716,38.714401,-44.243954,-6.799248,-102.05901,0.85833615,-0.26353142,-0.81623524,-0.07914312,-0.11420613,0.11343154
20240115 08:33:44,0.301148,-0.223165,0.869638,-0.191759,-0.071004,-0.006605,38.715168,-44.627720,-6.238297,-100.997505,0.93849826,-0.33792388,-0.4365674,-0.07610543,-0.08348308,0.14425705
20240115 08:33:44,0.001879,-0.274055,1.095148,-0.192825,-0.027325,0.031747,38.971924,-43.947987,-6.280113,-100.69832,1.0123248,-0.4632359,-0.21066487,-0.052497577,-0.049337663,0.15846877
20240115 08:33:44,-0.136416,-0.396812,1.327908,-0.182171,0.000375,0.074361,38.796234,-43.964443,-6.012848,-103.33062,1.1551687,-0.6284534,-0.20357011,-0.020881526,-0.028815202,0.15311705
20240115 08:33:44,-0.100932,-0.543953,1.480206,-0.162995,-0.011344,0.110583,39.114326,-43.753414,-5.889488,-104.46678,1.3175837,-0.77357584,-0.3380828,0.01987297,-0.042018656,0.124950826
20240115 08:33:44,-0.018865,-0.660274,1.475564,-0.152341,-0.065677,0.134021,38.953995,-44.138020,-6.267891,-105.187164,1.3647301,-0.8506132,-0.46689898,0.053572685,-0.093651906,0.0877612
20240115 08:33:44,0.147434,-0.757682,1.292243,-0.152341,-0.131729,0.145740,38.996632,-44.413006,-6.651428,-106.31676,1.2766095,-0.8648226,-0.6359346,0.06989756,-0.15165183,0.057419382
20240115 08:33:44,0.356038,-0.864270,1.139704,-0.159799,-0.194584,0.137217,39.465706,-43.720493,-6.424026,-106.38041,1.2295895,-0.9219969,-0.83462507,0.06270538,-0.20765287,0.041628264
20240115 08:33:44,0.400647,-0.972679,0.948452,-0.150211,-0.232937,0.125498,38.874733,-43.859341,-6.420845,-106.402336,1.0888455,-1.0189841,-0.8938377,0.060314897,-0.2453901,0.019097758
20240115 08:33:44,0.351793,-1.045391,0.763850,-0.117185,-0.240394,0.121237,38.820942,-44.429462,-6.384163,-104.67379,0.9243659,-1.0904192,-0.8315293,0.079153,-0.2539569,-0.00613504
20240115 08:33:44,0.281830,-1.080813,0.444592,-0.072440,-0.214826,0.125498,39.448162,-44.102421,-6.131332,-102.25413,0.611688,-1.1040245,-0.7136458,0.104760826,-0.22745259,-0.026963942
20240115 08:33:44,0.339131,-1.151052,0.065925,-0.035153,-0.158362,0.134021,39.130455,-44.505344,-5.974220,-102.159966,0.26778796,-1.1428747,-0.73897594,0.12200552,-0.16826867,-0.03554567
20240115 08:33:44,0.428857,-1.281907,-0.124316,-0.012781,-0.108291,0.126563,38.724133,-44.532703,-6.244415,-101.8402,0.11395081,-1.2624726,-0.8439456,0.119477965,-0.11574372,-0.035754837
20240115 08:33:44,0.348535,-1.298249,-0.221103,0.002134,-0.072069,0.119106,39.218681,-44.688999,-5.827377,-100.70046,0.018094793,-1.2662634,-0.76208305,0.11741312,-0.08103571,-0.034814987
20240115 08:33:44,0.365509,-1.362946,-0.289522,0.022376,-0.061416,0.118041,38.821709,-44.813236,-5.823219,-102.76451,-0.08182058,-1.3428358,-0.78953815,0.12087725,-0.06612144,-0.05134814
20240115 08:33:44,0.550215,-1.478077,-0.389858,0.021310,-0.086984,0.094603,38.608624,-44.442226,-6.653381,-104.19274,-0.22574678,-1.4946613,-0.96765596,0.09364975,-0.08437199,-0.056205727
20240115 08:33:44,0.678971,-1.422956,-0.550036,0.017049,-0.104030,0.053054,39.361084,-44.494434,-5.436745,-104.900536,-0.38246724,-1.4590007,-1.027196,0.05053619,-0.10155076,-0.051520944
20240115 08:33:44,0.689177,-1.348445,-0.805974,0.011722,-0.092311,0.006179,39.428429,-45.234425,-6.191597,-103.28997,-0.65559554,-1.4069762,-0.9824213,0.0036705215,-0.09196389,-0.037303433
20240115 08:33:44,0.668690,-1.233097,-0.958565,0.024506,-0.037978,-0.044958,39.290787,-44.120731,-5.595810,-100.10547,-0.7825111,-1.260989,-0.91720176,-0.037986353,-0.039246924,-0.031323254
20240115 08:33:44,0.463764,-1.020385,-1.132562,0.059663,0.074949,-0.082245,39.491570,-44.761181,-5.953926,-92.20252,-0.8832291,-0.8977869,-0.6885853,-0.0718244,0.08376427,-0.038741842
20240115 08:33:44,0.201417,-0.847586,-1.117740,0.106538,0.199595,-0.093964,39.997269,-44.072369,-5.190025,-86.90153,-0.84433097,-0.59881914,-0.41690835,-0.1026177,0.21928434,-0.055842366
20240115 08:33:44,0.027886,-0.652702,-1.138687,0.141695,0.300803,-0.086506,40.306015,-43.764477,-5.341026,-81.72185,-0.8735423,-0.311573,-0.22371227,-0.128642,0.32199034,-0.06819304
20240115 08:33:44,-0.050020,-0.566875,-1.075000,0.154479,0.343417,-0.067330,40.349800,-44.615124,-4.883148,-83.3953,-0.8576716,-0.2558197,-0.123443745,-0.117137514,0.35875887,-0.06612577
20240115 08:33:44,-0.040339,-0.467085,-0.996582,0.131041,0.309325,-0.053480,40.094463,-44.161015,-5.049301,-83.61814,-0.81694895,-0.19168001,-0.10458558,-0.09805378,0.32065794,-0.05157012
20240115 08:33:44,0.028440,-0.318759,-0.983701,0.079904,0.202791,-0.039631,40.358383,-44.328213,-5.169731,-83.11554,-0.83686745,-0.059257656,-0.12993583,-0.069301024,0.2107183,-0.03136247
20240115 08:33:44,0.046572,-0.066321,-1.148829,0.010657,0.091994,-0.016193,40.528061,-44.040470,-4.516975,-80.32589,-1.0503572,0.25730315,-0.09872258,-0.038488243,0.09333843,0.0076607433
20240115 08:33:44,0.104473,0.154009,-1.363605,-0.056460,0.036596,0.017898,40.854355,-43.350658,-4.960670,-77.09037,-1.3048728,0.55232036,-0.13127306,-0.0043861046,0.02657127,0.06282776
20240115 08:33:44,0.200834,0.351727,-1.428748,-0.113989,0.029139,0.055185,40.774055,-44.397717,-4.625183,-82.80392,-1.4098332,0.6505172,-0.16657592,0.026194084,0.0125068175,0.11860238
20240115 08:33:44,0.317421,0.438050,-1.362320,-0.154472,0.050446,0.083949,40.773670,-44.205830,-4.905655,-88.341644,-1.3176167,0.60879254,-0.23381205,0.045477472,0.036050577,0.16180468
20240115 08:33:44,0.343639,0.546674,-1.127143,-0.171518,0.084537,0.106322,40.959091,-44.478123,-4.618095,-90.40992,-1.0821383,0.6918042,-0.21243753,0.054417066,0.065824546,0.18579867
20240115 08:33:44,0.330228,0.607350,-0.823872,-0.154472,0.110105,0.142544,41.383347,-44.260715,-4.360115,-94.47681,-0.76548296,0.6831143,-0.15398735,0.089808114,0.09400444,0.17409523
20240115 08:33:44,0.452933,0.607205,-0.607625,-0.122512,0.097321,0.168112,41.577347,-44.246105,-4.359138,-99.20676,-0.47722012,0.6176546,-0.2556702,0.1289403,0.094411604,0.13630767
20240115 08:33:44,0.725787,0.551015,-0.568460,-0.093747,0.042988,0.167047,41.604240,-43.961040,-4.377480,-105.507484,-0.30014494,0.46295667,-0.5280778,0.14139453,0.06401126,0.08983612
20240115 08:33:44,0.968061,0.585089,-0.756848,-0.078832,-0.007083,0.139348,41.613205,-43.866024,-4.383591,-109.58385,-0.3686137,0.36773294,-0.7493702,0.11213863,0.025668293,0.06391141
20240115 08:33:44,1.151705,0.702464,-0.910201,-0.067114,-0.016671,0.099930,41.682739,-43.855953,-4.785469,-111.9587,-0.40096232,0.3597756,-0.89451367,0.07374574,0.014902913,0.053262167
20240115 08:33:44,1.269468,0.838615,-0.973804,-0.067114,-0.002822,0.043466,41.859962,-44.607044,-3.930855,-114.99768,-0.35920054,0.4168789,-0.9663311,0.023989685,0.015064383,0.060510457
20240115 08:33:44,1.215972,0.958204,-0.886981,-0.079898,0.030204,-0.019389,42.283066,-43.813969,-4.514297,-110.55142,-0.32925516,0.66235524,-0.8918614,-0.030545548,0.029430203,0.085968666
20240115 08:33:44,0.959201,1.173760,-0.578931,-0.083094,0.076014,-0.074787,42.387421,-44.749554,-4.452187,-104.42768,-0.2082474,1.101463,-0.58717734,-0.08765118,0.07152914,0.10449169
20240115 08:33:44,0.582455,1.264733,-0.146998,-0.072440,0.109040,-0.107813,42.459522,-44.181293,-4.220627,-100.66566,-0.004512042,1.2745953,-0.1717626,-0.12807363,0.111685134,0.10744015
20240115 08:33:44,0.281742,1.271599,0.297036,-0.057525,0.091994,-0.129120,42.865459,-43.962032,-4.230904,-98.66179,0.23644531,1.2422262,0.14830366,-0.1501061,0.10305196,0.09170344
20240115 08:33:44,-0.010238,1.189651,0.597667,-0.039415,0.036596,-0.136578,43.059845,-44.139309,-3.949448,-95.18288,0.32793128,1.0562856,0.40145966,-0.14601381,0.05828149,0.05387768
20240115 08:33:44,-0.319572,1.068907,0.567059,-0.007454,0.016355,-0.129120,43.158073,-42.902203,-4.297173,-92.84169,0.16018638,0.88442457,0.6738775,-0.12323893,0.043948293,0.015172213
20240115 08:33:44,-0.418769,0.858879,0.592418,0.043683,0.021681,-0.124859,43.766602,-42.381428,-4.593048,-90.78556,0.15305945,0.6317165,0.7060248,-0.10059652,0.057173725,-0.031794567
20240115 08:33:44,-0.484299,0.630847,0.644308,0.107603,0.021681,-0.122728,43.536354,-42.584232,-4.850044,-91.393105,0.22997385,0.3949995,0.68224204,-0.0735909,0.06285712,-0.090066314
20240115 08:33:44,-0.495079,0.673717,0.637917,0.188570,0.006767,-0.119532,43.941906,-42.173084,-5.140785,-89.33241,0.21527791,0.43262917,0.7101745,-0.039533176,0.056458138,-0.17349277
20240115 08:33:44,-0.373174,1.055742,0.435641,0.258883,-0.039043,-0.104617,43.899651,-42.089985,-4.476776,-88.080055,0.03197229,0.88882387,0.68958277,-0.0057466477,0.0074880775,-0.2591707
20240115 08:33:44,0.022801,1.434772,-0.164628,0.292974,-0.063546,-0.091833,43.871990,-41.991276,-5.019379,-89.37972,-0.3490833,1.4437037,0.33176503,-0.007026039,-0.040070146,-0.29983744
20240115 08:33:44,0.414180,1.795372,-0.696834,0.280190,-0.047566,-0.099290,43.456055,-43.631298,-4.514557,-91.13023,-0.73340654,1.8475875,-0.055581972,-0.0393023,-0.03605732,-0.2837137
20240115 08:33:44,0.521946,2.031802,-1.153601,0.204550,0.013159,-0.115271,44.268311,-43.384670,-4.254631,-90.70286,-1.1603835,2.0958133,-0.17896327,-0.0806618,0.021211632,-0.19938165
20240115 08:33:44,0.482563,2.127199,-1.179570,0.069251,0.098387,-0.132316,44.153572,-43.677959,-4.102654,-87.06969,-1.3632455,2.287655,-0.08859286,-0.12984936,0.118323155,-0.050945863
20240115 08:33:44,0.169888,2.014208,-0.601571,-0.087355,0.149523,-0.136578,44.435806,-43.847004,-3.954834,-86.06981,-1.0121305,2.1071618,0.36520484,-0.18757197,0.17224698,0.12170855
20240115 08:33:44,-0.370354,1.638606,0.482090,-0.221589,0.127151,-0.122728,44.462315,-43.370060,-4.253654,-90.48774,-0.18394879,1.3787471,0.9710229,-0.22915795,0.12959148,0.25386074
20240115 08:33:44,-0.919497,1.088456,1.608593,-0.295098,0.035531,-0.087572,44.541195,-43.456844,-4.381172,-95.6077,0.5683307,0.40050438,1.2503694,-0.22403023,0.011821011,0.28017792
20240115 08:33:44,-1.323691,0.669964,2.607674,-0.263138,-0.063546,-0.023651,44.867867,-42.958912,-4.544395,-100.39471,1.1252873,-0.3550976,1.2077754,-0.1458361,-0.10235892,0.18726528
20240115 08:33:44,-1.532901,0.087747,2.961093,-0.135296,-0.116814,0.054120,44.673866,-42.973515,-4.545372,-104.01671,1.3101447,-1.0139005,0.85680306,-0.008118376,-0.15143068,0.03361512
20240115 08:33:44,-1.374373,-0.443147,3.035220,0.060728,-0.110422,0.113779,45.017433,-43.611294,-4.232384,-105.0513,1.6487073,-1.4134221,0.40204588,0.15061341,-0.12241587,-0.12896702
20240115 08:33:44,-0.928977,-0.664062,2.465898,0.250360,-0.015606,0.159589,44.638390,-43.545490,-4.240448,-104.95626,1.6187255,-1.2853994,0.07077885,0.27017576,-0.0139034465,-0.23991121
20240115 08:33:44,-0.434815,-1.014629,2.036947,0.370744,0.080276,0.173439,44.929588,-43.619518,-4.098747,-107.15175,1.611777,-1.326585,-0.46799207,0.33082193,0.08758869,-0.30021417
20240115 08:33:44,0.045998,-1.123628,1.724498,0.430404,0.116497,0.144674,44.435421,-43.655117,-4.235313,-107.72569,1.61357,-1.2714759,-0.8318361,0.32798913,0.12505864,-0.34041497
20240115 08:33:45,0.333584,-1.030312,1.350505,0.447450,0.133543,0.105256,45.018200,-43.995075,-3.671440,-108.39863,1.3965533,-1.0796313,-0.9378277,0.29212862,0.13871674,-0.35538664
20240115 08:33:45,0.615244,-0.896515,0.993021,0.446384,0.154850,0.054120,45.167763,-44.647442,-3.359428,-109.27334,1.1451286,-0.886399,-1.0413084,0.23396823,0.15279841,-0.35497475
20240115 08:33:45,0.837403,-0.659512,0.554816,0.419750,0.205987,-0.006605,44.612648,-44.406208,-3.380699,-108.968124,0.77533877,-0.6437467,-1.068808,0.15584615,0.1954023,-0.32211608
20240115 08:33:45,0.915922,-0.385586,0.105406,0.361156,0.283757,-0.070526,44.975948,-43.911976,-3.007431,-106.493095,0.36099786,-0.39606184,-0.99462813,0.061293542,0.27229378,-0.2530654
20240115 08:33:45,0.763359,-0.152802,-0.173982,0.269536,0.367920,-0.120597,45.080688,-45.039448,-2.664848,-100.190506,0.046302855,-0.13855898,-0.76706046,-0.055818547,0.37479302,-0.15482771
20240115 08:33:45,0.438336,0.075746,-0.444994,0.127845,0.449951,-0.141904,45.161369,-44.184269,-2.719872,-89.73247,-0.32361418,0.18546683,-0.40480006,-0.19072059,0.47524947,-0.008388229
20240115 08:33:45,-0.030462,0.191219,-0.370266,-0.051133,0.521330,-0.134447,45.601364,-44.526905,-2.827095,-83.218895,-0.40460193,0.3022213,0.07249265,-0.3138348,0.52719253,0.19784623
20240115 08:33:45,-0.631525,0.199352,0.199350,-0.233308,0.547964,-0.095029,45.381886,-43.692715,-3.017700,-85.09012,-0.1559422,-0.0015371591,0.66580254,-0.38438007,0.49488124,0.42311284
20240115 08:33:45,-1.158809,0.056940,1.140839,-0.385653,0.479781,-0.027912,45.354988,-43.977779,-2.999359,-92.38029,0.33163536,-0.6114583,1.022511,-0.3860439,0.36597392,0.56838363
20240115 08:33:45,-1.519546,-0.241500,1.948981,-0.491122,0.328502,0.050924,45.504169,-44.438267,-2.967819,-98.194595,0.7410203,-1.2606654,0.9939746,-0.3450714,0.16650829,0.5850251
20240115 08:33:45,-1.664491,-0.465160,2.422487,-0.544390,0.139935,0.138282,45.700363,-43.673573,-2.613869,-101.1313,1.0135059,-1.6106389,0.83258396,-0.25504577,-0.043574918,0.50926864
20240115 08:33:45,-1.559906,-0.790159,2.523614,-0.555043,-0.040109,0.214987,45.415558,-44.062717,-3.395126,-103.500305,1.232449,-1.801712,0.47441027,-0.14933541,-0.2167145,0.39865112
20240115 08:33:45,-1.118438,-1.107414,2.286186,-0.526279,-0.177539,0.261863,45.602783,-43.393047,-3.035065,-104.34067,1.4481227,-1.7978381,0.004044771,-0.04557535,-0.3200289,0.302224
20240115 08:33:45,-0.525017,-1.417624,1.678556,-0.492187,-0.238263,0.263993,45.478695,-43.589466,-3.157455,-104.87832,1.3894076,-1.7525069,-0.4866327,0.008626223,-0.3364581,0.26583683
20240115 08:33:45,-0.043738,-1.617802,1.061215,-0.454900,-0.200976,0.234164,45.175964,-44.168644,-3.926476,-106.75554,1.0749784,-1.7258368,-0.8765477,2.3111701E-4,-0.25432864,0.26760444
20240115 08:33:45,0.295458,-1.830327,0.803751,-0.389914,-0.122140,0.183027,45.239098,-43.695400,-3.688805,-108.43262,0.9651571,-1.8673807,-1.2219098,-0.02093321,-0.1481077,0.25712314
20240115 08:33:45,0.428753,-1.979445,0.690337,-0.307882,-0.056089,0.123367,45.299667,-43.780338,-4.084572,-109.48342,0.90210503,-1.9972612,-1.4055235,-0.041820087,-0.06968711,0.22165799
20240115 08:33:45,0.490153,-2.063619,0.566411,-0.215197,-0.030521,0.060512,45.389313,-42.830143,-4.145699,-108.21275,0.81152594,-2.0734534,-1.4440682,-0.047498424,-0.037409317,0.16683096
20240115 08:33:45,0.471737,-2.030629,0.272003,-0.135296,-0.021998,0.006179,45.195694,-43.036640,-3.866211,-105.956924,0.5442563,-2.0300877,-1.2964613,-0.051476497,-0.025314007,0.11237807
20240115 08:33:45,0.482277,-1.868466,-0.208211,-0.072440,0.003571,-0.032174,45.229752,-43.598530,-3.963158,-103.509415,0.0729488,-1.8482808,-1.1150239,-0.05729997,0.0036815195,0.071216926
20240115 08:33:45,0.556895,-1.727470,-0.603074,-0.045807,0.018485,-0.072657,44.895531,-43.057636,-4.001793,-100.446465,-0.30171794,-1.6865996,-1.0491638,-0.084491864,0.021205526,0.053575322
20240115 08:33:45,0.496997,-1.491496,-0.918789,-0.051133,0.042988,-0.109944,45.388931,-42.638248,-4.426170,-96.07189,-0.598897,-1.3954701,-0.88968205,-0.1234189,0.050701916,0.06508475
20240115 08:33:45,0.381663,-1.219748,-0.995226,-0.062852,0.072818,-0.140839,45.371384,-43.020184,-4.133476,-91.847374,-0.6237711,-1.0193403,-0.7160294,-0.16306654,0.09161249,0.08292844
20240115 08:33:45,0.126716,-0.986403,-0.856948,-0.063918,0.102648,-0.152558,44.982994,-42.857510,-4.415894,-88.500854,-0.51131284,-0.74080396,-0.44119373,-0.18476307,0.13055313,0.09198983
20240115 08:33:45,-0.039876,-0.877910,-0.675631,-0.053264,0.119694,-0.152558,45.705219,-43.369190,-4.375313,-87.98375,-0.38260162,-0.66066235,-0.27135542,-0.18797801,0.15076056,0.089192525
20240115 08:33:45,-0.263199,-0.758112,-0.397916,-0.036219,0.111171,-0.147231,46.034847,-42.504963,-3.624619,-86.49679,-0.19783956,-0.6152928,-0.03991386,-0.1777406,0.147316,0.07092611
20240115 08:33:45,-0.551905,-0.515091,-0.276936,-0.004258,0.090929,-0.116336,45.761581,-42.240887,-3.778549,-82.21111,-0.23586918,-0.44477046,0.30927247,-0.13516688,0.12737831,0.031526934
20240115 08:33:45,-0.788872,-0.321892,-0.265733,0.025572,0.068557,-0.066265,45.838272,-43.077755,-4.259048,-80.00423,-0.37721914,-0.30797958,0.5970759,-0.07421018,0.09336812,-0.0028898064
20240115 08:33:45,-0.859018,-0.202260,-0.302364,0.042617,0.015289,-0.009801,45.804600,-42.707752,-3.881615,-79.054245,-0.47181323,-0.19122508,0.7106028,5.7041086E-4,0.024764162,-0.035093166
20240115 08:33:45,-0.739989,-0.157865,-0.488835,0.038356,-0.053958,0.032813,45.487274,-43.302563,-3.444038,-77.97426,-0.58684254,-0.041150555,0.6117836,0.06377405,-0.056210093,-0.051504005
20240115 08:33:45,-0.622519,-0.132584,-0.705119,0.011722,-0.114683,0.067969,45.673347,-42.057224,-3.925385,-75.42266,-0.7320212,0.09956123,0.4981429,0.11078316,-0.12990423,-0.040056594
20240115 08:33:45,-0.435962,-0.066058,-0.918964,-0.010650,-0.135990,0.092472,45.840462,-42.327679,-3.906075,-75.95382,-0.8967648,0.25806227,0.33866477,0.13229558,-0.16190064,-0.02028515
20240115 08:33:45,-0.302317,-0.003979,-1.115075,-0.022369,-0.106160,0.106322,45.732880,-43.467915,-3.832710,-76.25967,-1.0619348,0.39940757,0.22145362,0.12942147,-0.14094672,0.0012104977
20240115 08:33:45,-0.188050,0.055726,-1.095797,-0.019173,-0.049697,0.115910,46.016918,-42.694996,-3.612389,-81.984055,-1.066358,0.37687376,0.15435319,0.11577514,-0.084754825,0.009447779
20240115 08:33:45,0.063312,0.052572,-0.711458,0.006395,-0.023063,0.090342,45.741463,-43.181004,-4.119293,-88.571075,-0.6567789,0.20692535,-0.050522007,0.091068886,-0.041321605,-0.012143981
20240115 08:33:45,0.099362,0.064031,-0.700790,0.009591,-0.025194,0.073296,45.741463,-43.181004,-4.119293,-88.765755,-0.6417564,0.21107697,-0.081454985,0.07653933,-0.038953394,-0.015880883
20240115 08:33:45,0.147248,0.177838,-0.693508,0.008526,-0.033717,0.036009,45.795250,-42.610889,-4.155975,-88.70263,-0.6424552,0.32546368,-0.09413279,0.043066137,-0.039806154,-0.017666502
20240115 08:33:45,0.047493,0.267776,-0.677194,-0.001062,-0.056089,-0.003409,45.680126,-42.712284,-4.284477,-86.46347,-0.6792696,0.42266423,0.018287545,0.009766825,-0.053633895,-0.014889512
20240115 08:33:45,-0.032300,0.394027,-0.659401,-0.001062,-0.041174,-0.033239,45.831493,-42.422695,-3.899956,-86.00736,-0.7183119,0.54764605,0.1328851,-0.020216959,-0.031097012,-0.011734468
20240115 08:33:45,-0.171012,0.507915,-0.514257,0.026637,-0.014540,-0.049219,46.297997,-42.288380,-4.306000,-82.93721,-0.6712631,0.6217195,0.29622135,-0.031947266,0.0038536964,-0.031580787
20240115 08:33:45,-0.307045,0.536886,-0.459550,0.059663,0.031270,-0.052415,46.492004,-42.273777,-4.305023,-83.049194,-0.6746768,0.619002,0.43984768,-0.03831788,0.051844444,-0.049072653
20240115 08:33:45,-0.357700,0.593314,-0.375300,0.095885,0.048315,-0.049219,46.016151,-42.311222,-4.173340,-82.43151,-0.64235663,0.6409017,0.5093271,-0.029490242,0.07203492,-0.07793385
20240115 08:33:45,-0.443950,0.631767,-0.328892,0.115061,0.033400,-0.047088,46.016918,-42.694996,-3.612389,-82.32578,-0.6476821,0.6514643,0.6043565,-0.017009841,0.06040719,-0.10081433
20240115 08:33:45,-0.447182,0.712562,-0.352827,0.125714,0.005701,-0.044958,46.501350,-42.370640,-4.030655,-80.70697,-0.7006437,0.73501605,0.62501866,-0.0028747916,0.035486214,-0.12006419
20240115 08:33:45,-0.425290,0.773795,-0.385719,0.131041,-0.020932,-0.041762,46.070320,-41.932987,-3.929550,-79.85433,-0.74316543,0.8082442,0.6122396,0.009367824,0.009900177,-0.13343062
20240115 08:33:45,-0.409204,0.856146,-0.523298,0.139564,-0.025194,-0.044958,46.025116,-42.216198,-4.179451,-78.05249,-0.8961065,0.9382105,0.6005661,0.009454668,0.008764113,-0.14344689
20240115 08:33:45,-0.469121,1.005009,-0.523399,0.149152,-0.000691,-0.047088,46.643753,-42.176067,-3.640030,-77.906586,-0.98314923,1.0660207,0.7043123,0.0027714223,0.03517781,-0.14569575
20240115 08:33:45,-0.583248,1.090933,-0.342959,0.167263,0.013159,-0.035370,46.634403,-42.079197,-3.914391,-78.44944,-0.8996669,1.056122,0.8640924,0.01593608,0.046690714,-0.15725724
20240115 08:33:45,-0.626422,1.161645,-0.125478,0.182178,-0.019867,-0.020455,46.440399,-42.093807,-3.915367,-79.222565,-0.7549454,1.0290489,0.9506619,0.04811021,0.013280666,-0.18008809
20240115 08:33:45,-0.688883,1.186201,-0.077121,0.198158,-0.058220,-0.002344,46.176483,-41.926609,-3.794937,-78.81378,-0.7558679,1.0164806,1.0218407,0.0847005,-0.025446095,-0.20614362
20240115 08:33:45,-0.672885,1.145348,-0.123050,0.229053,-0.082723,0.021094,46.167519,-42.021633,-3.788818,-78.43546,-0.7667082,1.004154,0.98218066,0.12233431,-0.05399308,-0.2415863
20240115 08:33:45,-0.580681,1.067638,-0.213906,0.265275,-0.089115,0.036009,46.688580,-41.700970,-3.670593,-77.74862,-0.773801,0.98820424,0.8510675,0.14486855,-0.06332277,-0.27689928
20240115 08:33:45,-0.497199,0.933863,-0.480318,0.301497,-0.055024,0.048793,46.352940,-42.293926,-3.501259,-75.956085,-0.935074,0.9832121,0.6964727,0.14837097,-0.0343901,-0.3012007
20240115 08:33:45,-0.430034,0.839942,-0.567828,0.335588,0.018485,0.049858,46.591766,-41.804226,-3.530853,-76.98985,-0.94703555,0.9395629,0.60741967,0.13116196,0.035968564,-0.31369996
20240115 08:33:45,-0.398894,0.654445,-0.378811,0.368614,0.073884,0.043466,46.679611,-41.795994,-3.664482,-80.645515,-0.6854662,0.69699496,0.5569393,0.124218866,0.09445225,-0.3271445
20240115 08:33:45,-0.406366,0.600130,-0.010182,0.386725,0.057903,0.029617,46.372021,-42.679546,-2.672073,-86.000694,-0.33383405,0.5232401,0.5811405,0.13574377,0.08811031,-0.34522676
20240115 08:33:45,-0.469151,0.818258,0.274878,0.388855,-0.061416,0.033878,46.071091,-42.316769,-3.368599,-84.38132,-0.17342186,0.6274826,0.71732247,0.1765002,-0.025344867,-0.38650575
20240115 08:33:45,-0.408016,1.136420,0.153737,0.354764,-0.226545,0.072231,46.238201,-42.587215,-3.349289,-83.6071,-0.32580882,0.9923911,0.7231741,0.23761028,-0.20392369,-0.402499
20240115 08:33:45,-0.057052,1.215875,-0.221020,0.284451,-0.376759,0.110583,46.352940,-42.293926,-3.501259,-89.13194,-0.41971606,1.2323835,0.3443858,0.23396778,-0.37813666,-0.36564538
20240115 08:33:45,0.594718,1.067869,-0.667190,0.199223,-0.444941,0.098864,46.080437,-42.413639,-3.094246,-101.103874,-0.4516897,1.0090826,-0.33673388,0.10653676,-0.4397991,-0.28973436
20240115 08:33:45,1.052548,1.001846,-0.823685,0.139564,-0.404458,0.034943,45.858772,-42.329533,-3.637817,-109.74859,-0.32290667,0.7253066,-0.76981467,-0.032301668,-0.39149624,-0.21957313
20240115 08:33:45,1.283553,1.088501,-0.689655,0.132106,-0.274485,-0.050284,45.989639,-42.788166,-3.874527,-111.61144,-0.07008642,0.8034291,-0.9422656,-0.083414555,-0.2859414,-0.1850378
20240115 08:33:45,1.251532,1.086977,-0.315583,0.161936,-0.126402,-0.148296,46.052776,-42.314922,-3.636841,-107.28115,0.1836927,0.97596335,-0.9193773,-0.1191058,-0.15370311,-0.17617775
20240115 08:33:45,0.864857,1.025358,-0.098534,0.192831,0.017420,-0.231394,45.840073,-42.135792,-4.186539,-98.19577,0.12087863,1.0339501,-0.5428832,-0.16865839,0.02476567,-0.17111403
20240115 08:33:45,0.306391,0.966186,0.286171,0.198158,0.127151,-0.285726,45.665154,-42.536022,-3.358330,-92.13921,0.1775519,0.91092116,0.013369482,-0.22662604,0.19218087,-0.14403196
20240115 08:33:45,-0.346702,0.840589,0.675390,0.186439,0.181484,-0.293184,46.044197,-42.601826,-3.350266,-88.313065,0.19867724,0.5386114,0.6440749,-0.24247712,0.28549904,-0.107997574
20240115 08:33:45,-0.911307,0.622649,1.296757,0.157675,0.150589,-0.259093,46.062126,-42.411785,-3.362488,-89.753006,0.4484172,-0.039963275,1.0952147,-0.19691005,0.25681692,-0.07526953
20240115 08:33:45,-1.332044,0.386752,1.851207,0.131041,0.022747,-0.188780,45.903595,-41.854435,-3.668388,-90.89392,0.66773057,-0.6096741,1.3367671,-0.09341342,0.11750949,-0.10170999
20240115 08:33:45,-1.574190,0.101350,2.087841,0.124649,-0.133859,-0.088637,46.000790,-41.943066,-3.527672,-91.335915,0.77902037,-1.0596607,1.38435,0.0456845,-0.05820524,-0.17418821
20240115 08:33:45,-1.578936,-0.095802,1.997952,0.163002,-0.244656,0.032813,46.176865,-42.118496,-3.514465,-91.463745,0.8265863,-1.1554105,1.2996548,0.19670926,-0.1993972,-0.26305267
20240115 08:33:45,-1.138898,-0.302025,1.665832,0.231184,-0.293662,0.145740,45.525322,-42.172405,-3.115517,-92.85066,0.97241247,-0.9892863,0.843039,0.31855434,-0.28383845,-0.34189242
20240115 08:33:45,-0.440647,-0.579778,1.120747,0.283386,-0.302184,0.213922,45.567959,-42.447384,-3.499054,-96.333176,0.94256264,-0.8224122,0.12588486,0.36345518,-0.31303728,-0.3888587
20240115 08:33:45,0.339232,-0.743567,0.621788,0.296170,-0.303250,0.219249,45.461418,-42.261868,-3.914139,-101.41585,0.7259089,-0.7605558,-0.6094977,0.31763104,-0.306962,-0.39460808
20240115 08:33:45,0.840567,-0.646366,0.095969,0.284451,-0.281943,0.193680,45.135513,-43.143589,-3.189972,-107.57695,0.2722147,-0.65939605,-0.99330664,0.23876758,-0.26938826,-0.36822635
20240115 08:33:45,1.176593,-0.543813,-0.257719,0.253556,-0.241459,0.163851,45.231937,-42.848454,-3.610184,-113.7582,-0.075691715,-0.6735952,-1.238542,0.15518084,-0.2074974,-0.31945878
20240115 08:33:45,1.425310,-0.454513,-0.577930,0.186439,-0.187127,0.119106,44.683983,-43.454166,-3.710068,-118.535614,-0.34658042,-0.7591026,-1.4136645,0.083463125,-0.14673078,-0.23376128
20240115 08:33:45,1.481113,-0.449052,-0.786768,0.092689,-0.122140,0.067969,44.780792,-43.350918,-3.849823,-118.8605,-0.5462699,-0.8466712,-1.4466405,0.03449207,-0.09418009,-0.12159449
20240115 08:33:45,1.385739,-0.557626,-0.781694,-0.022369,-0.048631,0.013636,44.604717,-43.175488,-3.863022,-114.05556,-0.5558356,-0.8552584,-1.391276,-0.006668864,-0.04094606,0.009835152
20240115 08:33:45,1.134780,-0.655314,-0.464271,-0.128904,-0.002822,-0.031108,44.347576,-43.663349,-4.101677,-107.8827,-0.21233395,-0.75670785,-1.224108,-0.06605062,-0.0019104402,0.12566768
20240115 08:33:45,0.908895,-0.744844,0.022124,-0.212001,0.007832,-0.070526,44.392399,-43.188251,-4.132240,-105.47449,0.2803052,-0.75808835,-1.0950005,-0.13522902,0.007942371,0.20903502
20240115 08:33:45,0.672810,-0.753019,0.369126,-0.252484,0.027008,-0.096094,44.489594,-43.276882,-3.991516,-102.48872,0.6037918,-0.75648206,-0.91366875,-0.17850247,0.027081711,0.25316912
20240115 08:33:45,0.425949,-0.717118,0.585969,-0.250353,0.097321,-0.105683,44.640575,-42.795406,-3.887474,-101.3199,0.7583848,-0.74770224,-0.70117724,-0.19914308,0.09732925,0.27563658
20240115 08:33:45,0.296999,-0.698297,0.811011,-0.221589,0.185745,-0.100356,44.692562,-43.167255,-3.996651,-101.59852,0.9279351,-0.7626642,-0.60933536,-0.19830284,0.18506274,0.28368998
20240115 08:33:45,0.263658,-0.759188,1.105801,-0.196021,0.246470,-0.103552,44.622646,-42.985447,-3.875252,-102.80329,1.1905009,-0.8656299,-0.66293555,-0.2055548,0.24558972,0.29042298
20240115 08:33:45,0.026721,-0.786967,1.349694,-0.177910,0.243274,-0.113140,44.843544,-42.685780,-3.892616,-101.3636,1.3219323,-0.9901019,-0.49503002,-0.21929744,0.24285743,0.27695444
20240115 08:33:45,-0.240571,-0.812653,1.515645,-0.165126,0.209183,-0.103552,44.543381,-42.706768,-4.028198,-99.99026,1.3526125,-1.1344491,-0.29215237,-0.21071582,0.20623319,0.25156066
20240115 08:33:45,-0.464079,-0.927183,1.569705,-0.150211,0.133543,-0.084376,44.562080,-42.900509,-3.479485,-98.912445,1.3300161,-1.3413823,-0.14723328,-0.17606783,0.12872995,0.20128503
20240115 08:33:45,-0.631632,-0.972607,1.399750,-0.137427,0.060034,-0.051350,44.270500,-42.634594,-3.901657,-96.025055,1.1486025,-1.4100224,0.034713797,-0.1243724,0.0508027,0.15189987
20240115 08:33:45,-0.706362,-1.032979,1.185761,-0.111858,-0.002822,0.000852,44.279846,-42.731464,-3.627296,-93.7952,0.99169517,-1.442683,0.13006017,-0.048880015,-0.020223137,0.09853547
20240115 08:33:45,-0.646792,-1.120712,0.828588,-0.083094,-0.048631,0.064773,44.658890,-42.797260,-3.619225,-91.28903,0.78501594,-1.404561,0.10921137,0.03553738,-0.07790228,0.05441701
20240115 08:33:45,-0.333880,-1.302681,0.328665,-0.063918,-0.075265,0.115910,44.491783,-42.526814,-3.638542,-92.31553,0.48674902,-1.3694508,-0.17646834,0.098530434,-0.10690694,0.029813008
20240115 08:33:45,0.121868,-1.484893,-0.096947,-0.063918,-0.080592,0.130825,44.189812,-43.489765,-3.846642,-96.215904,0.14179547,-1.4527451,-0.58935547,0.11243248,-0.09969485,0.029988367
20240115 08:33:45,0.561347,-1.573398,-0.505013,-0.074571,-0.075265,0.116975,44.022324,-43.027431,-4.146423,-101.43382,-0.35925066,-1.5863626,-0.9419423,0.089956,-0.07248886,0.044506907
20240115 08:33:45,0.849028,-1.634768,-0.877496,-0.103335,-0.042239,0.073296,43.995811,-43.504375,-3.847618,-105.29632,-0.8004886,-1.7419282,-1.164129,0.039592672,-0.031296216,0.084591165
20240115 08:33:45,0.983723,-1.541729,-0.967075,-0.125708,-0.000691,0.024290,44.268311,-43.384670,-4.254631,-106.76189,-0.91907704,-1.7083759,-1.2481307,-0.0077939257,0.007905912,0.11995472
20240115 08:33:45,1.004439,-1.464761,-1.074633,-0.137427,0.063230,-0.027912,44.171501,-43.487919,-4.114883,-106.26741,-0.98974127,-1.6358278,-1.2449917,-0.05163705,0.06353092,0.15004157
20240115 08:33:45,0.881362,-1.258315,-0.971738,-0.128904,0.135674,-0.070526,44.313904,-43.293346,-3.724251,-101.758286,-0.8009248,-1.3228214,-1.1035694,-0.09166818,0.1332817,0.1604406
20240115 08:33:45,0.725995,-1.090772,-0.924745,-0.110793,0.202791,-0.095029,44.304554,-43.196476,-3.998604,-97.93954,-0.69167495,-1.0696503,-0.9423138,-0.12363992,0.20399651,0.1610652
20240115 08:33:45,0.653741,-0.904815,-0.816246,-0.098009,0.232620,-0.108879,44.165108,-43.024746,-3.475327,-96.90305,-0.57709384,-0.8536942,-0.83521307,-0.14177299,0.23650567,0.15666208
20240115 08:33:45,0.561780,-0.712365,-0.828774,-0.101205,0.233686,-0.109944,44.040634,-43.029278,-3.878181,-91.72438,-0.5790463,-0.5914334,-0.7098985,-0.15806928,0.24206261,0.15495811
20240115 08:33:46,0.433876,-0.458003,-0.894587,-0.125708,0.235816,-0.091833,44.341179,-43.200176,-3.462120,-90.88524,-0.6941162,-0.31372863,-0.5263746,-0.15086994,0.24193062,0.17810108
20240115 08:33:46,0.440715,-0.370942,-0.780969,-0.151276,0.216640,-0.074787,44.614449,-43.464245,-3.308189,-92.71753,-0.5906705,-0.25321662,-0.5105363,-0.13754997,0.21926592,0.20182166
20240115 08:33:46,0.452524,-0.300144,-0.696465,-0.171518,0.192137,-0.059873,44.826385,-43.259594,-3.319443,-92.36404,-0.51368546,-0.18968101,-0.5063205,-0.12608288,0.19233537,0.21504895
20240115 08:33:46,0.467125,-0.193297,-0.699746,-0.174714,0.199595,-0.041762,44.562462,-43.092396,-3.199013,-93.16492,-0.5286199,-0.090661526,-0.49102968,-0.10903856,0.19746041,0.22026022
20240115 08:33:46,0.511487,-0.117964,-0.616704,-0.157668,0.233686,-0.019389,44.562851,-43.284283,-2.918541,-95.77379,-0.4450381,-0.045728303,-0.50785613,-0.0825112,0.23029093,0.214172
20240115 08:33:46,0.564436,-0.074742,-0.521906,-0.124642,0.269908,-0.004474,44.562851,-43.284283,-2.918541,-96.88048,-0.34069508,-0.018636432,-0.5463196,-0.06031646,0.26640674,0.19299473
20240115 08:33:46,0.626713,-0.102001,-0.498325,-0.100139,0.283757,0.002983,44.608826,-43.384853,-2.107689,-99.15084,-0.302661,-0.062462248,-0.6090036,-0.040858455,0.28141597,0.1722982
20240115 08:33:46,0.652563,-0.027102,-0.525172,-0.080963,0.280561,0.008310,44.748657,-43.748470,-2.350510,-98.887436,-0.33308917,0.008550119,-0.6153233,-0.02749057,0.27863547,0.15064442
20240115 08:33:46,0.680205,0.037405,-0.581331,-0.066048,0.275234,0.011506,44.475388,-43.484409,-2.504433,-97.74352,-0.39036745,0.08223567,-0.6284861,-0.021948388,0.27301514,0.13284776
20240115 08:33:46,0.678783,0.137252,-0.715055,-0.058591,0.273104,0.008310,44.848038,-43.087040,-1.856812,-98.89618,-0.53237784,0.17110609,-0.5981207,-0.016723908,0.27200615,0.12238947
20240115 08:33:46,0.737439,0.274934,-0.699882,-0.064983,0.263516,0.000852,44.466423,-43.579433,-2.498322,-98.59817,-0.51138,0.29964897,-0.62643564,-0.02209127,0.26293084,0.1251896
