Timestamp,linacce_x,linacce_y,linacce_z,gyro_x,gyro_y,gyro_z,X-magnetometer,Y-magnetometer,Z-magnetometer,Yaw, worldXAccel,worldYAccel,worldZAccel,worldXgyro,worldYgyro,worldZgyro,Distance
20240115 08:24:38,0.565294,0.141549,-0.437052,0.035546,-0.095274,-0.037733,1.112083,-38.156109,35.165993,177.18861,-0.16329229,0.07989474,-0.34934795,-0.02897471,-0.099572256,-0.015897876,0.006
20240115 08:24:38,0.478285,0.215018,-0.67399,0.087748,0.046418,-0.024949,0.57386,-39.050579,35.620941,176.52147,-0.427558,0.13616444,-0.20103684,0.013489587,0.040811267,-0.07340125,0.006
20240115 08:24:38,0.416724,0.119694,-0.843266,0.114382,0.199828,-0.019622,0.865059,-39.124615,35.762642,178.4204,-0.62485516,0.062475946,-0.0816406,0.034812815,0.1958086,-0.10134952,0.006
20240115 08:24:38,0.281957,0.053641,-0.818687,0.116512,0.31382,-0.023884,0.669903,-38.563557,34.92025,-179.28082,-0.6551692,0.05158422,0.04268089,0.021815132,0.31366336,-0.09783135,0.006
20240115 08:24:38,0.06909,-0.058428,-0.77358,0.097336,0.372414,-0.029211,0.741623,-37.803402,34.871346,-176.42494,-0.68462765,-0.012241013,0.22795439,-0.011395099,0.3756695,-0.0701483,0.006
20240115 08:24:38,-0.192427,-0.200731,-0.671969,0.057918,0.388394,-0.035603,0.609337,-38.478619,35.316017,-173.18202,-0.660478,-0.12140705,0.43195033,-0.06032619,0.39236256,-0.020835806,0.006
20240115 08:24:38,-0.479506,-0.324662,-0.57559,0.017435,0.378806,-0.033472,0.645195,-38.098537,35.291565,-169.5015,-0.64124095,-0.24180613,0.64655304,-0.10121927,0.37738913,0.026427343,0.006
20240115 08:24:38,-0.769767,-0.451767,-0.513189,-0.034767,0.347911,-0.018557,0.275116,-37.937725,35.277382,-167.62659,-0.6586078,-0.39520338,0.868806,-0.120014295,0.33420444,0.07108181,0.006
20240115 08:24:38,-0.939997,-0.72408,-0.464665,-0.051813,0.344715,0.003815,0.538654,-37.913036,34.87648,-165.74245,-0.6063626,-0.6876702,0.9619282,-0.119599655,0.3175772,0.08278975,0.006
20240115 08:24:38,-1.082711,-1.00094,-0.446044,-0.030506,0.373479,-0.001511,0.300591,-38.786518,35.46701,-164.62347,-0.55832916,-0.975212,1.0333359,-0.13400222,0.34390005,0.07410105,0.006
20240115 08:24:38,-1.249326,-1.068778,-0.351157,0.039807,0.410767,-0.012165,-0.145794,-37.980717,36.213791,-162.84105,-0.50822115,-1.0992012,1.1006109,-0.1366501,0.38725674,0.030001078,0.006
20240115 08:24:38,-1.503307,-0.911538,-0.243997,0.131427,0.412897,0.000619,0.046024,-38.71619,35.861801,-161.44797,-0.5694973,-1.0443051,1.2874718,-0.09424743,0.39878744,-0.051797736,0.006
20240115 08:24:38,-1.511676,-0.54323,-0.291389,0.228374,0.366022,0.037906,-0.340836,-39.321072,36.701263,-161.35161,-0.6952868,-0.6710315,1.3977633,-0.012127614,0.3584958,-0.16795176,0.006
20240115 08:24:38,-1.270289,-0.1781,-0.613556,0.313602,0.309559,0.083716,-0.359531,-39.127331,36.15255,-161.73894,-0.92682195,-0.12518069,1.3751997,0.06816782,0.2981124,-0.2835205,0.006
20240115 08:24:38,-0.809599,0.293545,-1.179243,0.35302,0.28399,0.122069,0.221714,-38.699726,35.594528,-162.55719,-1.3866781,0.6049082,1.1260349,0.10963641,0.2582026,-0.3469772,0.006
20240115 08:24:38,-0.365448,0.798704,-1.771253,0.327451,0.291448,0.144441,-0.712833,-38.200809,35.284729,-167.56938,-1.9572113,1.2266874,0.7470193,0.123930216,0.2594812,-0.3365496,0.006
20240115 08:24:38,0.129654,1.206606,-2.24015,0.235831,0.327669,0.144441,-0.182808,-37.78513,35.396835,-174.49045,-2.3158925,1.45717,0.23680063,0.14091018,0.31318396,-0.25043166,0.006
20240115 08:24:38,0.422218,1.495988,-2.60716,0.089879,0.362826,0.122069,-0.761478,-37.654552,36.588295,178.72136,-2.5224156,1.4845259,-0.07974741,0.13439865,0.36329588,-0.10623065,0.006
20240115 08:24:38,0.468614,1.492279,-2.561622,-0.098688,0.35963,0.089043,-0.517025,-37.244228,35.3582,179.39705,-2.4893422,1.4996108,-0.15404972,0.07531008,0.359345,0.08660698,0.006
20240115 08:24:38,0.582596,1.697605,-2.700787,-0.342653,0.409701,0.06454,-0.76405,-38.212734,35.954849,172.47244,-2.3697913,1.33569,-0.26439747,0.071158364,0.4200415,0.32482833,0.006
20240115 08:24:38,0.686589,1.896057,-2.592065,-0.622839,0.443792,0.004881,-0.879555,-38.12225,35.545876,175.8857,-2.3404706,1.7377906,-0.29715887,-0.066603296,0.44895536,0.6095439,0.006
20240115 08:24:38,0.415221,1.625482,-2.094571,-0.909418,0.471491,-0.073955,-1.101223,-38.038136,35.002304,-174.9502,-2.1408038,1.9061908,0.113883466,-0.34614775,0.44756845,0.91130126,0.006
20240115 08:24:38,-0.110735,1.310621,-1.237477,-1.134206,0.460838,-0.127223,-1.24324,-38.424595,34.892143,-170.38658,-1.4750333,1.5531064,0.59645116,-0.61359197,0.37763283,1.1349931,0.006
20240115 08:24:38,-0.5602,1.082454,-0.246362,-1.241806,0.416093,-0.149595,-0.803635,-38.575336,34.50444,-169.45996,-0.7282983,1.0328649,0.69726527,-0.78211206,0.28509104,1.2121265,0.006
20240115 08:24:38,-0.836797,0.713538,0.678872,-1.221565,0.353238,-0.151726,-1.027103,-39.433193,33.888367,-170.25911,-0.053828776,0.40502298,0.42207476,-0.8506286,0.19747408,1.1484146,0.006
20240115 08:24:38,-1.040957,0.329996,1.313223,-1.045782,0.287186,-0.151726,-1.29179,-38.882214,33.447853,-170.3189,0.34917688,-0.16319388,0.13465476,-0.7896191,0.13767606,0.968131,0.006
20240115 08:24:38,-1.235957,0.178339,1.480869,-0.76453,0.241376,-0.114438,-1.38221,-39.448635,32.948036,-169.7654,0.37179315,-0.42249644,0.16484249,-0.596777,0.120188594,0.71041834,0.006
20240115 08:24:38,-1.268503,0.200278,1.226984,-0.432142,0.246703,-0.04306,-1.612453,-39.651424,32.691048,-169.82906,0.20304435,-0.34896994,0.393924,-0.33979803,0.169911,0.40610477,0.006
20240115 08:24:38,-0.95513,0.323763,0.715202,-0.122126,0.287186,0.035776,-1.699913,-39.851551,33.105148,-170.908,0.026087523,0.00051561,0.4886939,-0.10220151,0.24940501,0.11023815,0.006
20240115 08:24:38,-0.517659,0.396894,-0.061454,0.121839,0.350042,0.09437,-1.769833,-39.669735,33.226563,-173.19308,-0.35730514,0.34993824,0.5132721,0.06643978,0.33439615,-0.1324287,0.006
20240115 08:24:38,0.008173,0.427883,-0.770838,0.297622,0.415028,0.122069,-1.38221,-39.448635,32.948036,-175.94789,-0.7611506,0.5233552,0.2883672,0.16912054,0.41058892,-0.3106924,0.006
20240115 08:24:38,0.385451,0.489844,-1.378781,0.389242,0.457642,0.121004,-1.699913,-39.851551,33.105148,-179.15987,-1.2217939,0.589662,0.061700642,0.2043423,0.45686707,-0.4055049,0.006
20240115 08:24:38,0.603805,0.519803,-1.875808,0.412679,0.495994,0.11035,-1.973186,-39.587482,32.951218,179.12852,-1.6720415,0.59881693,-0.09553653,0.19480069,0.49563703,-0.42914182,0.006
20240115 08:24:38,0.666024,0.602472,-2.222942,0.350889,0.514105,0.103958,-1.90966,-39.306126,33.469376,178.86131,-2.027155,0.676932,-0.13815784,0.1658954,0.5131849,-0.36775818,0.006
20240115 08:24:38,0.714519,0.628646,-2.35307,0.235831,0.502387,0.093305,-2.370159,-39.71172,32.955383,178.23122,-2.151503,0.7101716,-0.17211163,0.1275236,0.5008411,-0.25424093,0.006
20240115 08:24:38,0.645694,0.588573,-2.299444,0.10799,0.457642,0.074128,-2.2887,-39.240322,33.461311,-178.58992,-2.123022,0.82184625,-0.072001696,0.05356119,0.45084012,-0.11991083,0.006
20240115 08:24:38,0.435286,0.590421,-2.075792,-0.020917,0.384133,0.061344,-2.464779,-39.064899,33.448105,-174.11769,-1.9552517,1.0081959,0.15417475,-0.022980299,0.36296427,0.014301047,0.006
20240115 08:24:38,0.145743,0.681268,-1.713022,-0.115733,0.285056,0.083716,-2.579517,-39.358181,33.600082,-171.76451,-1.6989502,1.0960567,0.41042992,-0.029565968,0.24497604,0.0973001,0.006
20240115 08:24:38,-0.085628,0.737296,-1.371505,-0.169001,0.178521,0.136984,-2.791454,-39.562832,33.611336,-171.60707,-1.4610904,1.0561204,0.5747637,0.020705886,0.12045905,0.12215234,0.006
20240115 08:24:38,-0.137373,0.696461,-1.099695,-0.184981,0.070921,0.20197,-3.101345,-39.295055,32.920906,-173.28711,-1.2058948,0.9190863,0.5493345,0.099542536,0.0047903806,0.10366091,0.006
20240115 08:24:38,-0.017375,0.586349,-0.999833,-0.171132,-0.020699,0.258433,-3.2075,-39.301441,32.786301,-175.69394,-1.0289463,0.7586589,0.39141876,0.17841703,-0.08041626,0.0661876,0.006
20240115 08:24:38,0.15393,0.422891,-1.03571,-0.146629,-0.079294,0.295721,-2.870716,-39.284145,33.458382,-178.00238,-0.9544732,0.5544475,0.23454727,0.2304207,-0.1221186,0.029336922,0.006
20240115 08:24:38,0.401034,0.205983,-1.139076,-0.128518,-0.116581,0.303178,-3.260143,-40.447224,33.664398,177.9164,-0.93308735,0.2627201,0.02243048,0.24341786,-0.13197461,0.0152055845,0.006
20240115 08:24:38,0.672515,0.075156,-1.236357,-0.128518,-0.135757,0.27761,-3.39024,-40.372364,34.462036,174.40677,-0.92077065,0.02892007,-0.20313358,0.2109068,-0.12557013,0.02858404,0.006
20240115 08:24:38,0.842719,0.002607,-1.290942,-0.145563,-0.140018,0.222212,-3.047825,-40.43446,33.933617,173.38884,-0.90288615,-0.09834409,-0.3303767,0.14649744,-0.12231573,0.063067466,0.006
20240115 08:24:38,0.91709,-0.001554,-1.174753,-0.163674,-0.136822,0.152964,-2.976109,-39.674305,33.884712,172.51651,-0.74482393,-0.13071421,-0.41775057,0.069038816,-0.117959745,0.1021177,0.006
20240115 08:24:38,0.930532,-0.002089,-0.919085,-0.169001,-0.152803,0.068802,-3.54314,-39.894398,32.955635,172.53587,-0.46935555,-0.09300267,-0.4896408,-0.014999017,-0.14259924,0.13567604,0.006
20240115 08:24:38,0.818997,0.148601,-0.676238,-0.157282,-0.193286,-0.029211,-3.498318,-39.4193,32.925072,174.18925,-0.28108692,0.11448036,-0.48221597,-0.0967505,-0.19183566,0.16349563,0.006
20240115 08:24:38,0.587215,0.423161,-0.542869,-0.130648,-0.242292,-0.110177,-3.294964,-39.501553,33.200409,176.8286,-0.26876104,0.43908966,-0.32862705,-0.14859095,-0.24117966,0.1692864,0.006
20240115 08:24:38,0.429456,0.672266,-0.634824,-0.106145,-0.277448,-0.16451,-2.900951,-39.743618,32.282333,179.48506,-0.4686286,0.72809815,-0.1565754,-0.17238636,-0.2680385,0.16190757,0.006
20240115 08:24:38,0.19155,0.946361,-0.801333,-0.084838,-0.259337,-0.195405,-2.874058,-39.458561,32.263992,-178.15259,-0.7888621,1.0463332,0.121149346,-0.1791428,-0.23691964,0.14654204,0.006
20240115 08:24:38,0.024901,1.216511,-0.936603,-0.053943,-0.181567,-0.204993,-3.09457,-39.950115,32.561821,-176.3819,-1.0587354,1.3560433,0.33228832,-0.17714149,-0.14747165,0.11839448,0.006
20240115 08:24:38,-0.115149,1.353224,-0.879595,-0.041159,-0.08249,-0.214581,-3.033237,-40.418827,32.727005,-175.24847,-1.1003458,1.4834876,0.47485757,-0.19445463,-0.042873695,0.11525131,0.006
20240115 08:24:38,-0.307417,1.357615,-0.517488,-0.024113,-0.034549,-0.220973,-2.829494,-40.692982,33.282814,-173.55132,-0.88280535,1.4013739,0.552106,-0.19810298,0.012762476,0.10979776,0.006
20240115 08:24:38,-0.497166,1.282533,-0.071187,-0.007068,-0.064379,-0.232692,-2.555195,-39.631313,32.948288,-172.80853,-0.5753654,1.2001401,0.54807574,-0.18986443,-0.010143887,0.105844535,0.006
20240115 08:24:38,-0.656568,1.223494,0.346744,0.023827,-0.165587,-0.247607,-2.423557,-40.473728,33.272537,-172.5248,-0.2985587,1.02073,0.48895735,-0.16092166,-0.10035297,0.08590336,0.006
20240115 08:24:38,-0.831475,1.227739,0.603209,0.070702,-0.296625,-0.253999,-2.404209,-39.14983,33.052338,-171.06543,-0.2137332,0.89990336,0.5315893,-0.101908535,-0.20808089,0.03724481,0.006
20240115 08:24:38,-0.889819,1.375518,0.661721,0.098402,-0.350957,-0.243345,-1.973949,-39.203701,32.390282,-171.3344,-0.21191901,1.0397052,0.5602381,-0.07101025,-0.26456243,0.0052756593,0.006
20240115 08:24:38,-0.814229,1.367372,0.6016,0.18576,-0.491583,-0.200732,-2.379505,-39.614849,32.681023,-172.12282,-0.19864541,1.0705687,0.5244527,0.034056187,-0.4021786,-0.101564355,0.006
20240115 08:24:38,-0.775167,1.543911,0.662136,0.248616,-0.538459,-0.161314,-2.122746,-38.935101,32.639206,-172.67072,-0.13515049,1.261639,0.46762127,0.096429646,-0.45771238,-0.17640314,0.006
20240115 08:24:38,-0.573068,1.711481,0.846379,0.317863,-0.57468,-0.121896,-1.65509,-39.376453,33.074585,-174.57202,0.19157624,1.4939858,0.19327202,0.13510153,-0.5175442,-0.25084114,0.006
20240115 08:24:38,-0.157771,2.058434,0.888621,0.394568,-0.590661,-0.089935,-1.355312,-39.16357,32.929695,-176.73534,0.4949139,1.9374143,-0.20108648,0.16004747,-0.5550197,-0.32843584,0.006
20240115 08:24:38,0.208355,2.310236,0.690772,0.44677,-0.568288,-0.079282,-1.891346,-39.307972,33.737617,179.26697,0.63411444,2.2879303,-0.49018317,0.13434672,-0.5580064,-0.36977026,0.006
20240115 08:24:38,0.520192,2.344439,0.49536,0.462751,-0.484126,-0.094197,-1.12468,-39.152668,33.467171,178.68263,0.65883124,2.3440094,-0.6969285,0.10034345,-0.48365188,-0.38150567,0.006
20240115 08:24:38,0.653081,2.340432,0.375711,0.424398,-0.380787,-0.12083,-1.203945,-38.873981,33.314217,178.21944,0.61848015,2.3409605,-0.7773038,0.05504009,-0.3826712,-0.33699507,0.006
20240115 08:24:38,0.687603,2.317501,0.513161,0.345562,-0.291298,-0.152791,-0.884701,-39.238628,34.278992,178.05748,0.7981215,2.3207726,-0.8718478,3.4570694e-05,-0.2972398,-0.24598795,0.006
20240115 08:24:38,0.709865,2.121591,0.815933,0.273119,-0.225246,-0.213516,-0.769577,-39.137218,34.407486,178.97655,1.0479162,2.1226702,-1.0098585,-0.07446763,-0.22603565,-0.15177661,0.006
20240115 08:24:38,0.615319,2.034699,0.835722,0.214524,-0.108058,-0.277437,-0.698895,-39.702816,34.847023,-178.22517,0.90611345,2.0007243,-0.89679587,-0.14477056,-0.08596422,-0.06849248,0.006
20240115 08:24:38,0.288639,1.555076,0.843226,0.16978,0.043222,-0.324312,-0.698509,-39.894703,35.127502,-175.41615,0.6872906,1.4623159,-0.60775125,-0.19867869,0.09191397,0.016065836,0.006
20240115 08:24:38,-0.095619,0.830581,1.158194,0.142081,0.14656,-0.357338,-0.399498,-39.298038,34.421669,-173.19649,0.75376046,0.62945557,-0.5211244,-0.22977541,0.21352948,0.095510885,0.006
20240115 08:24:38,-0.612842,-0.155454,2.048908,0.156996,0.165737,-0.381841,-0.250702,-39.566647,34.172737,-172.16461,1.1930625,-0.5713153,-0.8177613,-0.21788359,0.2458485,0.13095361,0.006
20240115 08:24:38,-0.881726,-0.465575,2.514089,0.226243,0.117796,-0.385037,-0.40065,-38.722378,33.580261,-171.14926,1.3530616,-1.0552663,-1.0052019,-0.15612054,0.22124304,0.089649215,0.006
20240115 08:24:38,-1.050128,-0.548414,2.697269,0.300818,0.012326,-0.356272,-0.073208,-38.608212,33.977966,-169.93147,1.3691293,-1.2467673,-1.0282309,-0.061884567,0.13495971,0.0071308315,0.006
20240115 08:24:38,-1.157155,-0.593502,2.576771,0.343432,-0.151737,-0.297678,-0.063477,-38.896976,34.532806,-168.98541,1.2646574,-1.3445764,-0.8262231,0.037579432,-0.01699885,-0.09176661,0.006
20240115 08:24:38,-1.090546,-0.365402,2.312411,0.35302,-0.340304,-0.208189,-0.542667,-39.108837,33.4701,-170.29256,1.1897635,-1.0231419,-0.55035526,0.12695524,-0.22595769,-0.19132987,0.006
20240115 08:24:38,-0.611821,-0.09798,1.810517,0.324255,-0.494779,-0.130419,0.182514,-39.254215,34.424599,-172.30846,1.1617897,-0.4476506,-0.48522532,0.15033336,-0.43107268,-0.23587304,0.006
20240115 08:24:39,0.059711,-0.004973,1.198513,0.289099,-0.567223,-0.10272,0.078926,-38.702412,34.923431,-175.91943,1.0674702,-0.10473559,-0.6416173,0.10222663,-0.5416252,-0.22088706,0.006
20240115 08:24:39,0.507009,0.025055,0.443119,0.262465,-0.551243,-0.112308,0.739433,-38.553478,34.518372,-177.42201,0.6195731,0.017836034,-0.6494585,0.03486786,-0.54189795,-0.1973639,0.006
20240115 08:24:39,0.711068,0.01918,-0.077593,0.177237,-0.323258,-0.16664,0.783989,-39.787907,35.537186,-178.1385,0.21823177,0.027255101,-0.617651,-0.07339384,-0.31814644,-0.09835595,0.006
20240115 08:24:39,0.656609,-0.206038,-0.352166,0.104794,-0.088882,-0.211385,0.93536,-39.498318,35.9217,-175.4699,-0.03240782,-0.1568726,-0.45916975,-0.14179203,-0.06928654,-0.011088312,0.006
20240115 08:24:39,0.498238,-0.374538,-0.302004,0.0185,0.087966,-0.24228,1.021015,-40.24017,35.435097,-173.3494,-0.001926899,-0.305558,-0.33228797,-0.21738784,0.117231056,0.09490763,0.006
20240115 08:24:39,-0.145723,-0.889843,0.620416,-0.016656,0.127384,-0.244411,0.943554,-39.01952,35.354645,-170.12378,0.5842878,-0.999691,-0.30510157,-0.23051313,0.16704883,0.16031578,0.006
20240115 08:24:39,-0.430831,-1.170012,1.264823,-0.081642,0.026176,-0.213516,1.127441,-38.524258,34.520325,-169.02612,0.93928784,-1.4472212,-0.55045617,-0.21891889,0.055006113,0.19547346,0.006
20240115 08:24:39,-0.666104,-1.329121,1.624524,-0.093361,-0.166652,-0.157052,1.153687,-39.756832,35.270897,-168.72139,1.0609004,-1.7181457,-0.6555276,-0.14319642,-0.14479369,0.14910372,0.006
20240115 08:24:39,-0.608995,-1.435365,1.674489,-0.095492,-0.403159,-0.082478,1.250496,-39.653584,35.131149,-169.51839,1.1560291,-1.7920133,-0.71382505,-0.048167966,-0.39071542,0.07948053,0.006
20240115 08:24:39,-0.23806,-1.451191,1.270661,-0.090165,-0.560831,-0.012165,1.34692,-39.358456,34.71093,-172.40207,1.0615449,-1.6162009,-0.65739244,0.008522921,-0.560649,0.036690794,0.006
20240115 08:24:39,0.336059,-1.398433,0.87699,-0.083773,-0.576811,0.03471,1.392132,-39.075245,34.960838,-176.59068,0.9697526,-1.4222485,-0.81069535,0.004836606,-0.57969123,0.0315679,0.006
20240115 08:24:39,0.829139,-1.339473,0.691124,-0.072054,-0.54272,0.04856,1.823158,-39.51289,34.859718,-179.60484,0.98521495,-1.3331285,-1.0775433,-0.018167038,-0.53885514,0.03148479,0.006
20240115 08:24:39,1.21431,-1.310669,0.67909,-0.015591,-0.328585,0.046429,1.760403,-40.178028,34.902512,177.50826,1.1139688,-1.3152752,-1.3543034,-0.0015686564,-0.32104656,-0.005008504,0.006
20240115 08:24:39,1.366475,-1.356728,0.74561,0.03235,-0.163456,0.003815,2.080299,-39.025028,35.098381,177.54048,1.259361,-1.368737,-1.511979,0.0055890502,-0.1641391,-0.024544954,0.006
20240115 08:24:39,1.369275,-1.368099,1.129861,0.058984,-0.099535,-0.023884,1.989883,-39.591442,34.598564,178.68828,1.6183276,-1.353759,-1.7539344,0.008633709,-0.10407346,-0.031880036,0.006
20240115 08:24:39,1.117233,-1.309821,1.314821,0.073899,-0.021765,-0.119765,1.771938,-39.524822,35.529839,-179.18282,1.6912649,-1.2981693,-1.6932108,-0.0521333,-0.025808563,0.012336787,0.006
20240115 08:24:39,0.946012,-1.299707,1.366571,0.066441,-0.034549,-0.149595,1.869137,-39.613453,35.67057,-176.79793,1.6916423,-1.3149973,-1.614165,-0.08011913,-0.029829795,0.03400036,0.006
20240115 08:24:39,0.428251,-1.152355,1.338075,-0.011329,-0.124038,-0.202862,1.858749,-40.842327,35.884651,-174.10089,1.424372,-1.2302746,-1.194379,-0.16034575,-0.10758582,0.11964031,0.006
20240115 08:24:39,-0.007848,-0.981668,1.257054,-0.082708,-0.19009,-0.200732,2.388008,-40.042881,35.435822,-169.87093,1.157018,-1.1611407,-0.8069019,-0.17888246,-0.16428247,0.16225477,0.006
20240115 08:24:39,-0.249444,-0.879798,1.229554,-0.117864,-0.217789,-0.18049,2.132286,-39.396877,34.989197,-168.78699,0.99626774,-1.1155384,-0.5908169,-0.17162776,-0.19434124,0.17398076,0.006
20240115 08:24:39,-0.595404,-0.796457,1.236774,-0.1967,-0.255076,-0.065432,2.165955,-39.76688,34.611771,-167.01984,0.79769623,-1.1332592,-0.32070696,-0.10939039,-0.2621106,0.1637656,0.006
20240115 08:24:39,-0.727123,-0.7398,1.198954,-0.210549,-0.214593,0.031514,2.517338,-39.733959,34.077225,-166.9707,0.6729558,-1.0823963,-0.18889946,-0.052266058,-0.24616775,0.12478232,0.006
20240115 08:24:39,-0.701097,-0.748841,1.242398,-0.207353,-0.179436,0.079455,2.156223,-39.478123,34.056938,-168.13531,0.7104556,-1.0719473,-0.23795491,-0.0241266,-0.21942867,0.10036363,0.006
20240115 08:24:39,-0.507331,-0.830005,1.366279,-0.169001,-0.112319,0.187055,2.350227,-39.463512,34.057915,-169.96193,0.8943946,-1.0833908,-0.4899996,0.06242405,-0.15855093,0.012613416,0.006
20240115 08:24:39,-0.139021,-1.024926,1.451807,-0.153021,-0.13043,0.198774,2.322948,-39.556683,33.795784,-173.96341,1.1238207,-1.1315962,-0.84925085,0.07038594,-0.15255159,-0.010275364,0.006
20240115 08:24:39,0.22827,-1.265713,1.467096,-0.15089,-0.193286,0.167879,2.42091,-40.029095,34.497444,-175.75145,1.3252418,-1.3061646,-1.1550834,0.04208517,-0.20249632,0.003349185,0.006
20240115 08:24:39,0.486586,-1.384008,1.520821,-0.142367,-0.240161,0.142311,2.403366,-40.41103,34.790154,-176.75713,1.510962,-1.3981926,-1.37396,0.025943555,-0.24336335,0.0146898925,0.006
20240115 08:24:39,0.613341,-1.322784,1.457614,-0.123191,-0.393571,0.031514,1.882305,-40.731678,34.671921,-177.05177,1.5568783,-1.34085,-1.4080184,-0.041846577,-0.39577448,0.06709998,0.006
20240115 08:24:39,0.555144,-1.24731,1.208487,-0.104015,-0.420205,-0.031341,2.534233,-40.869663,34.553444,-174.76944,1.3741479,-1.2880069,-1.2005198,-0.062573075,-0.42142847,0.08195536,0.006
20240115 08:24:39,0.336023,-0.940354,0.83691,-0.090165,-0.394637,-0.044125,2.59737,-40.39642,34.79113,-173.89586,0.947711,-0.97986495,-0.7879763,-0.058691926,-0.39428017,0.07678033,0.006
20240115 08:24:39,0.138637,-0.575701,0.541141,-0.039028,-0.278514,-0.040929,2.755516,-40.761883,34.816559,-172.21211,0.5914447,-0.6184766,-0.433222,-0.026425947,-0.27472934,0.034976415,0.006
20240115 08:24:39,0.008956,-0.240768,0.328417,0.027023,-0.089947,-0.007904,2.869873,-40.276707,34.384109,-170.77277,0.3198984,-0.28010535,-0.1832245,0.017901387,-0.085987985,-0.026856637,0.006
20240115 08:24:39,-0.092665,0.006766,0.266064,0.116512,0.23605,0.07839,2.366737,-40.40733,34.253654,-171.07397,0.18503886,-0.03648617,-0.044546597,0.09173997,0.23120189,-0.12179081,0.006
20240115 08:24:39,-0.001887,0.062656,0.438457,0.151669,0.384133,0.119938,2.484051,-39.555851,34.73513,-172.06642,0.36887318,0.013793532,-0.21105458,0.13658072,0.37745368,-0.16424033,0.006
20240115 08:24:39,0.018136,-0.003358,0.553389,0.158061,0.424616,0.128461,2.340881,-39.366642,33.783554,-172.57114,0.48120105,-0.058914967,-0.29742354,0.14708576,0.41810337,-0.1728558,0.006
20240115 08:24:39,0.049692,-0.094881,0.843646,0.165518,0.411832,0.1242,2.156609,-39.670017,34.33741,-173.18207,0.74565667,-0.17065038,-0.49309653,0.15380308,0.40737224,-0.17977127,0.006
20240115 08:24:39,0.046712,-0.195661,0.884259,0.144212,0.303166,0.097566,2.147644,-39.765034,34.343529,-172.5894,0.79355466,-0.28588936,-0.5108376,0.12532614,0.2997634,-0.15309398,0.006
20240115 08:24:39,0.020742,-0.37784,0.492322,0.06431,0.14443,0.056017,2.244839,-39.853664,34.484245,-172.08716,0.47616908,-0.4301641,-0.28892076,0.06353487,0.14095548,-0.073491365,0.006
20240115 08:24:39,0.031,-0.453115,0.382565,0.047265,0.1146,0.044299,1.680756,-39.707462,34.469086,-172.42667,0.4002876,-0.49334735,-0.24355376,0.047413602,0.11131085,-0.055325195,0.006
20240115 08:24:39,-0.027809,-0.420437,0.247057,0.008912,0.113534,0.054952,2.0411,-39.579517,33.928444,-170.71384,0.26321393,-0.4537557,-0.12602045,0.034571603,0.104280315,-0.025133476,0.006
20240115 08:24:39,-0.118107,-0.343723,0.176437,0.015304,0.140168,0.069867,2.307205,-38.996647,34.16098,-170.14215,0.14815393,-0.3757954,-0.009234898,0.045822904,0.12841536,-0.035090286,0.006
20240115 08:24:39,-0.139279,-0.270184,0.207626,0.055788,0.204089,0.105023,2.279545,-38.897923,33.618385,-169.93712,0.1551131,-0.31123894,0.000784412,0.084585816,0.18869905,-0.08152887,0.006
20240115 08:24:39,-0.16578,-0.318717,0.111632,0.099467,0.258422,0.139114,1.743507,-39.042324,34.426292,-170.74498,0.06829884,-0.34503287,0.06976578,0.12723239,0.24090035,-0.13291168,0.006
20240115 08:24:39,-0.061017,-0.407223,-0.01373,0.121839,0.306362,0.167879,1.558853,-39.153805,34.699684,-171.50172,0.018767413,-0.4043718,0.032556072,0.15881139,0.28713104,-0.16386983,0.006
20240115 08:24:39,-0.021916,-0.422233,-0.010563,0.118643,0.340454,0.195578,1.612644,-38.583691,34.663002,-172.46176,0.031744078,-0.41831702,-0.0023082793,0.18538496,0.32123128,-0.17566863,0.006
20240115 08:24:39,0.281763,-0.597657,0.464874,0.126101,0.298905,0.193447,1.61084,-39.525646,34.5905,-175.89206,0.5721055,-0.61141,-0.49840468,0.2157378,0.29255623,-0.19530341,0.006
20240115 08:24:39,0.398536,-0.631454,0.406306,0.136754,0.187044,0.155095,1.472813,-38.220066,34.905815,-175.91501,0.5828332,-0.6392526,-0.57063586,0.1930539,0.18287788,-0.18922432,0.006
20240115 08:24:39,0.391377,-0.880679,0.255702,0.135689,0.050679,0.129526,1.639153,-38.106739,34.364182,-176.37921,0.44587913,-0.88126737,-0.49323803,0.177299,0.048679993,-0.17993,0.006
20240115 08:24:39,0.658168,-0.946909,-0.168591,0.100532,-0.031353,0.083716,0.807549,-39.677258,34.324463,-179.8596,0.12725739,-0.9556588,-0.51388425,0.11931234,-0.03074886,-0.12742189,0.006
20240115 08:24:39,0.847425,-0.501721,-0.351816,0.050461,-0.02283,0.008077,1.004124,-39.104458,34.958885,176.76575,-0.031003952,-0.5686258,-0.625458,0.025299702,-0.0240463,-0.048970766,0.006
20240115 08:24:39,1.024044,-0.216092,-0.573516,0.044069,0.011261,-0.017492,1.231796,-39.459843,34.582436,176.70036,-0.15113533,-0.32010102,-0.71734357,0.0022390746,0.0074061775,-0.03410995,0.006
20240115 08:24:39,0.946836,-0.231346,-0.776287,0.028089,0.129515,-0.069694,1.224636,-38.612904,34.661049,178.87773,-0.37508973,-0.29717934,-0.58376426,-0.04649669,0.12463771,-0.00077724457,0.006
20240115 08:24:39,0.747546,-0.03293,-0.749479,0.021696,0.234984,-0.093131,1.188778,-38.992977,34.685501,-178.39069,-0.41158321,-0.029351568,-0.40963992,-0.07883996,0.23532872,0.0175564,0.006
20240115 08:24:39,0.489816,0.131923,-0.588965,0.009978,0.292513,-0.100589,1.117058,-39.753139,34.734406,-174.9273,-0.36073846,0.19642939,-0.21855271,-0.1123274,0.29992414,0.039834782,0.006
20240115 08:24:39,0.189667,0.206147,-0.410529,-0.01346,0.29784,-0.096327,1.355885,-39.263439,34.704819,-171.98701,-0.3219184,0.27272633,0.004193425,-0.13391773,0.30693674,0.06808838,0.006
20240115 08:24:39,-0.02244,0.175952,-0.124592,-0.031571,0.229657,-0.080347,1.602257,-39.812557,34.877083,-169.77689,-0.15176103,0.19304657,0.086704604,-0.12639546,0.23680207,0.080245055,0.006
20240115 08:24:39,-0.138782,0.141825,-0.078494,-0.060335,0.105012,-0.057975,1.470623,-38.970135,34.552841,-170.15504,-0.15383583,0.14139105,0.168877,-0.09565587,0.10818911,0.08662262,0.006
20240115 08:24:39,-0.008517,0.135162,-0.155316,-0.084838,-0.002588,-0.04306,1.170849,-39.183018,34.697731,-171.4393,-0.16390401,0.15678391,0.07964704,-0.07332866,-0.0018501808,0.094694674,0.006
20240115 08:24:39,0.099189,0.220019,-0.358616,-0.081642,-0.056921,-0.021753,1.223984,-40.130535,35.429962,-172.6121,-0.31622094,0.26978567,0.05931279,-0.044449218,-0.058044866,0.080692306,0.006
20240115 08:24:39,0.236532,0.230108,-0.599376,-0.067793,-0.047333,-0.001511,1.390324,-40.017208,34.888329,-172.99852,-0.49159086,0.30899167,0.01092568,-0.020986686,-0.049927983,0.061394166,0.006
20240115 08:24:39,0.370335,0.210566,-0.816141,-0.036898,0.012326,0.025122,1.090931,-40.421963,35.31369,-175.61078,-0.64613354,0.27403092,-0.055141777,0.00966972,0.009683341,0.026075475,0.006
20240115 08:24:39,0.583125,0.254097,-0.959841,-0.008133,0.090097,0.052821,1.214634,-40.033665,35.155602,-177.67006,-0.707018,0.2755294,-0.21643382,0.045193892,0.08905737,-0.009154502,0.006
20240115 08:24:39,0.688781,0.171888,-1.090797,0.003586,0.16041,0.062409,0.658367,-39.21677,34.292923,-178.81706,-0.8027012,0.18206486,-0.2879259,0.058852106,0.1599372,-0.022935122,0.006
20240115 08:24:39,0.706097,0.113565,-1.167809,0.004651,0.223265,0.053887,1.372395,-40.207249,34.900558,-177.06967,-0.8682395,0.15165758,-0.27498952,0.046326954,0.22176881,-0.018519936,0.006
20240115 08:24:39,0.556749,0.189162,-1.069517,0.007847,0.259487,0.046429,0.934589,-39.114544,35.360764,-176.30704,-0.8228953,0.25878322,-0.15345448,0.031970687,0.25664768,-0.017514873,0.006
20240115 08:24:39,0.457346,0.264507,-0.958957,0.014239,0.249899,0.036841,0.897961,-39.110844,34.824265,-174.89188,-0.7622435,0.36093813,-0.09285951,0.017700637,0.24609488,-0.018338263,0.006
20240115 08:24:39,0.358183,0.351296,-0.934116,0.022762,0.2222,0.033645,0.844173,-39.680958,34.860947,-174.10172,-0.78385186,0.4617934,-0.0017737448,0.015752703,0.21811569,-0.025035571,0.006
20240115 08:24:39,0.35835,0.461321,-0.911017,0.03235,0.177455,0.038972,0.880032,-39.300884,34.836494,-174.13632,-0.7799597,0.5658899,-0.0169051,0.02902263,0.17355067,-0.03740611,0.006
20240115 08:24:39,0.449458,0.58993,-0.969094,0.031285,0.118861,0.03471,0.64159,-39.982471,35.146561,-175.45311,-0.82717556,0.6779463,-0.11455199,0.032948833,0.11644641,-0.037533112,0.006
20240115 08:24:39,0.483244,0.751912,-1.152164,0.01637,0.064528,0.027253,0.739166,-40.263004,35.567749,-175.47937,-1.0079674,0.8505061,-0.097382605,0.025830371,0.0626039,-0.022255931,0.006
20240115 08:24:39,0.479697,0.914322,-1.315264,0.003586,0.043222,0.028318,0.608685,-39.99625,36.08493,-176.01582,-1.1905141,1.0114657,-0.08028594,0.025177607,0.041244436,-0.010432148,0.006
20240115 08:24:39,0.594903,1.117404,-1.510015,-0.011329,0.063463,0.036841,0.951485,-40.25024,35.836975,-177.863,-1.3269863,1.1498953,-0.17464855,0.031418595,0.0626684,0.0020568017,0.006
20240115 08:24:39,0.691184,1.189184,-1.622091,-0.04542,0.109273,0.041102,0.613544,-39.691868,34.323486,-178.12376,-1.4282993,1.2292585,-0.26119286,0.026189115,0.10806089,0.034789573,0.006
20240115 08:24:39,0.552394,1.255547,-1.671277,-0.129583,0.198762,0.065605,0.526081,-39.891987,34.737595,-174.62817,-1.5895694,1.4297367,-0.07614863,0.010001682,0.18775363,0.11323238,0.006
20240115 08:24:39,0.46691,1.268428,-1.568871,-0.160478,0.221135,0.082651,0.526081,-39.891987,34.737595,-173.74672,-1.5198238,1.4614217,0.017220289,0.008453809,0.20412703,0.13836268,0.006
20240115 08:24:39,0.333518,1.142859,-1.155429,-0.216941,0.231788,0.109285,0.506996,-39.506351,33.908401,-173.24208,-1.1019175,1.3033595,0.14721525,-0.0077711493,0.20352843,0.17350903,0.006
20240115 08:24:39,0.207992,0.924116,-0.580375,-0.255294,0.179586,0.116742,0.54401,-39.701946,34.725365,-173.14279,-0.5776426,1.0043514,0.06781462,-0.014258631,0.14765507,0.20042408,0.006
20240115 08:24:39,0.139496,0.757301,-0.181791,-0.254229,0.111404,0.119938,0.410576,-39.801495,34.328621,-174.19008,-0.19437632,0.7797827,-0.019355983,-0.0110082105,0.08275077,0.18598215,0.006
20240115 08:24:39,0.163805,0.583336,0.161273,-0.208419,0.048548,0.117808,0.719315,-39.493595,34.17762,-173.99818,0.15014991,0.5696215,-0.19092038,0.0064656734,0.023120306,0.13680717,0.006
20240115 08:24:39,0.181566,0.429233,0.352235,-0.139171,0.019784,0.097566,-0.065281,-39.838947,34.460297,-175.67194,0.3529174,0.40192753,-0.30974743,0.018596232,0.0031124195,0.07809956,0.006
20240115 08:24:39,0.102221,0.432633,0.53958,-0.046486,0.024045,0.075194,0.128723,-39.824337,34.461273,-174.19006,0.46649355,0.36813414,-0.32062802,0.041142106,0.01143738,0.007306818,0.006
20240115 08:24:39,-0.048753,0.663815,0.543967,0.065376,0.069855,0.07839,0.0839,-40.299435,34.491844,-174.08398,0.36878455,0.583904,-0.17671803,0.09012957,0.06348252,-0.09079403,0.006
20240115 08:24:39,0.026531,0.906092,0.666209,0.190021,0.108208,0.096501,0.110409,-39.822491,34.193031,-175.07877,0.50594926,0.83081305,-0.28944093,0.16016182,0.107467584,-0.20874922,0.006
20240115 08:24:39,0.134942,1.209293,0.543289,0.294426,0.13058,0.108219,0.181091,-40.388065,34.632568,-175.55827,0.43355215,1.1580026,-0.3125112,0.21034437,0.1326832,-0.3080734,0.006
20240115 08:24:39,0.264793,1.402546,0.331084,0.356216,0.166802,0.108219,-0.318699,-40.34428,35.696503,-177.90652,0.33286887,1.3884423,-0.35420328,0.23186488,0.16901274,-0.3674064,0.006
20240115 08:24:39,0.489959,1.504725,0.157875,0.369,0.244572,0.085847,-0.203575,-40.242878,35.825005,-177.86266,0.26155522,1.505155,-0.48993188,0.21281606,0.24803358,-0.36902475,0.006
20240115 08:24:39,0.363927,1.566369,0.387391,0.347693,0.306362,0.049625,-0.451366,-40.827602,35.86071,-176.74567,0.37332147,1.541723,-0.45534712,0.16547948,0.3142884,-0.32906485,0.006
20240115 08:24:39,0.111826,1.610115,0.839162,0.310406,0.321277,0.024057,0.026287,-39.848194,35.801529,-174.08244,0.5851735,1.4938945,-0.40404716,0.12160088,0.3351339,-0.27217203,0.006
20240115 08:24:39,-0.17829,1.526438,1.375216,0.278445,0.278663,0.007011,-0.547523,-39.413219,35.231537,-173.62329,0.85941577,1.2812879,-0.43715668,0.101803266,0.29723802,-0.23014256,0.006
20240115 08:24:39,-0.409108,1.504156,1.949959,0.252877,0.159344,-0.006838,0.098007,-39.088032,35.752625,-172.06737,1.1637566,1.1128753,-0.55918896,0.1011265,0.18322459,-0.19989564,0.006
20240115 08:24:39,-0.629436,1.409008,2.190133,0.246485,-0.00685,-0.012165,-0.34494,-39.111698,34.94593,-171.40056,1.2095649,0.8810431,-0.50018007,0.12166032,0.024920987,-0.20333531,0.006
20240115 08:24:39,-0.738608,1.263872,1.967291,0.250746,-0.119777,-0.000446,-0.247364,-39.392239,35.367126,-170.55882,0.99443424,0.72905374,-0.26082647,0.15362622,-0.085027225,-0.22475107,0.006
20240115 08:24:39,-0.709228,1.035174,1.579857,0.252877,-0.152803,0.01873,0.052032,-38.987469,34.941772,-169.66267,0.74892896,0.56608987,-0.062304616,0.17461021,-0.12028696,-0.24235219,0.006
20240115 08:24:39,-0.727463,0.783023,1.207893,0.252877,-0.110189,0.033645,0.185471,-38.88792,35.338516,-168.29407,0.4739585,0.35889125,0.143484,0.1771849,-0.080016315,-0.24819663,0.006
20240115 08:24:39,-0.782396,0.464941,0.862617,0.219851,0.015522,0.051756,0.205971,-38.13969,35.959732,-167.51382,0.21959132,0.11146149,0.32171616,0.14637148,0.033022836,-0.21496585,0.006
20240115 08:24:39,-0.821984,-0.018517,0.963399,0.192152,0.122057,0.071998,-0.096382,-38.910763,35.471169,-167.80492,0.3500721,-0.3969063,0.19836676,0.12838596,0.1285555,-0.18670489,0.006
20240115 08:24:39,-0.936108,-0.504609,1.330017,0.171911,0.14443,0.090108,-0.244408,-39.025928,36.281044,-168.65057,0.6187892,-0.95210874,-0.045211732,0.13565606,0.14567836,-0.17498119,0.006
20240115 08:24:39,-0.845929,-0.981741,1.749252,0.176172,0.065594,0.095435,-0.297428,-39.979824,36.87867,-170.78741,1.0048051,-1.4095335,-0.49144065,0.168957,0.07162252,-0.19039561,0.006
20240115 08:24:39,-0.606947,-1.319589,1.943225,0.219851,-0.077163,0.08052,-0.076912,-39.488277,36.580833,-171.96236,1.3264498,-1.6812538,-0.83318484,0.21067181,-0.060478512,-0.22855155,0.006
20240115 08:24:39,-0.39899,-1.467187,1.640633,0.29123,-0.19009,0.063475,-0.131088,-39.866505,36.337036,-172.71298,1.2918515,-1.7342422,-0.74329567,0.25049984,-0.1642162,-0.28678107,0.006
20240115 08:24:39,-0.213083,-1.435644,1.032008,0.382849,-0.205005,0.060279,-0.38681,-39.220509,35.890411,-174.48515,0.9372121,-1.5659701,-0.4301492,0.2774085,-0.18070233,-0.3677146,0.006
20240115 08:24:40,0.181071,-1.374329,0.359336,0.473404,-0.119777,0.054952,-0.11174,-38.542606,36.116844,-177.50703,0.4789067,-1.3872073,-0.33998987,0.25505233,-0.11032699,-0.45497674,0.006
20240115 08:24:40,0.447479,-1.165533,-0.258062,0.516018,0.031503,0.047495,-0.156181,-39.209591,36.427879,-178.37436,-0.019434169,-1.147131,-0.32578596,0.24197574,0.038049582,-0.49392256,0.006
20240115 08:24:40,0.564574,-0.986692,-0.698177,0.49045,0.194501,0.036841,-0.172302,-38.457668,36.512611,-178.26176,-0.4128122,-0.94791317,-0.29295903,0.19921497,0.20044716,-0.46988127,0.006
20240115 08:24:40,0.451414,-0.818226,-0.743326,0.397764,0.289317,0.028318,0.085606,-38.353588,37.312202,-175.45834,-0.46326187,-0.7288833,-0.19229689,0.1356448,0.29883477,-0.375493,0.006
20240115 08:24:40,0.246328,-0.648308,-0.658856,0.252877,0.31382,0.020861,-0.444805,-38.577374,36.919624,-172.47125,-0.4031424,-0.5083682,-0.022972688,0.057405166,0.3217869,-0.22815853,0.006
20240115 08:24:40,-0.098668,-0.594917,-0.301407,0.083487,0.288252,0.03471,0.076256,-38.256718,37.037849,-168.7794,-0.1668436,-0.51474005,0.16357414,-0.002777122,0.27922383,-0.067184314,0.006
20240115 08:24:40,-0.397986,-0.655082,0.247862,-0.061401,0.230723,0.068802,-0.435841,-38.482357,36.913513,-169.41887,0.17730683,-0.7384146,0.18171021,-0.023507006,0.19916335,0.04247011,0.006
20240115 08:24:40,-0.556328,-0.724863,0.816868,-0.15089,0.154018,0.103958,-0.338646,-38.570988,37.05423,-169.39206,0.55844307,-0.9595745,0.00081434846,-0.025711536,0.10462113,0.09211481,0.006
20240115 08:24:40,-0.648413,-0.791867,1.171565,-0.188177,0.101816,0.144441,-0.152454,-39.22707,37.90274,-169.79605,0.77693415,-1.1020242,-0.14663294,-0.0045294613,0.042614445,0.09221747,0.006
20240115 08:24:40,-0.54253,-0.893772,1.36709,-0.194569,0.067725,0.180663,-0.806953,-39.647274,37.387772,-172.1422,0.98067576,-1.18212,-0.35448083,0.028954573,0.010856621,0.06988231,0.006
20240115 08:24:40,-0.354494,-0.942847,1.428004,-0.191373,0.071986,0.193447,-0.470551,-39.438107,37.779373,-173.36476,1.1177666,-1.1710532,-0.54300386,0.043474853,0.024218613,0.05889474,0.006
20240115 08:24:40,-0.198477,-0.901162,1.484437,-0.178589,0.096489,0.196643,-0.507942,-39.050625,36.681946,-174.13571,1.2327379,-1.1037095,-0.69921005,0.050753526,0.05359254,0.046599336,0.006
20240115 08:24:40,-0.161605,-0.764462,1.582791,-0.163674,0.123123,0.206231,-0.29678,-38.4622,36.109756,-174.97093,1.301618,-0.9445636,-0.7752194,0.06603061,0.08720561,0.028577127,0.006
20240115 08:24:40,-0.007656,-0.743417,1.706198,-0.161543,0.132711,0.206231,-0.332253,-39.034161,36.41468,-176.66257,1.4529814,-0.87058175,-0.9820882,0.06777934,0.10799217,0.021050416,0.006
20240115 08:24:40,0.184863,-0.779511,1.831334,-0.170066,0.10075,0.181728,-0.923615,-38.981129,36.13739,-178.49577,1.6467192,-0.86635995,-1.2083564,0.046625495,0.08497634,0.037467726,0.006
20240115 08:24:40,0.339683,-0.807774,1.799634,-0.190308,0.050679,0.142311,-1.063446,-38.617496,36.380203,-179.66351,1.6955407,-0.85546994,-1.3086629,0.0066059604,0.042167094,0.0752296,0.006
20240115 08:24:40,0.3932,-0.85873,1.758798,-0.206288,0.012326,0.093305,-0.975597,-38.609272,36.246567,-179.48755,1.6950014,-0.9064208,-1.3318311,-0.04172925,0.0046017817,0.11607458,0.006
20240115 08:24:40,0.311134,-0.851515,1.75292,-0.193504,-0.007915,0.043233,-1.214428,-39.09898,36.276161,-178.88528,1.6576046,-0.927381,-1.2644501,-0.07449904,-0.01685039,0.13422075,0.006
20240115 08:24:40,0.166219,-0.820691,1.688616,-0.160478,0.007,0.004881,-1.15271,-39.759586,36.721809,-177.65991,1.5359807,-0.9336014,-1.1193403,-0.08819579,-0.0016429854,0.1290976,0.006
20240115 08:24:40,0.016103,-0.841557,1.640407,-0.094426,0.044287,-0.022818,-0.950127,-39.458073,36.436203,-176.02304,1.4295303,-1.0027267,-0.98453635,-0.07723133,0.03948239,0.09218626,0.006
20240115 08:24:40,-0.28558,-0.860119,1.701282,-0.026244,0.060267,-0.033472,-0.994564,-40.125057,36.747238,-174.38954,1.3209414,-1.1089214,-0.7948484,-0.050359607,0.06144824,0.044082724,0.006
20240115 08:24:40,-0.425468,-0.783414,1.641751,0.045134,0.037895,-0.033472,-1.31982,-39.48914,36.702492,-173.83653,1.2136283,-1.0709027,-0.61664975,-0.0076027047,0.047247518,-0.0162084,0.006
20240115 08:24:40,-0.477762,-0.707152,1.32762,0.095206,-0.003654,-0.029211,-0.993912,-38.607426,35.978325,-172.59377,0.9719373,-0.98019934,-0.34252492,0.02699122,0.01219666,-0.065549426,0.006
20240115 08:24:40,-0.477286,-0.613725,0.891199,0.118643,-0.049464,-0.015361,-0.825382,-37.744022,35.789665,-171.66118,0.64037466,-0.82417715,-0.06269652,0.0550247,-0.0321571,-0.09930587,0.006
20240115 08:24:40,-0.386395,-0.516315,0.411366,0.106924,-0.081424,-0.004708,-1.081375,-38.807537,36.392433,-172.04335,0.28985327,-0.6216471,0.1344232,0.059147235,-0.068217404,-0.09879831,0.006
20240115 08:24:40,-0.245295,-0.411433,-0.01867,0.073899,-0.088882,0.011273,-0.739342,-38.677753,35.583534,-172.18181,-0.0409802,-0.4199369,0.208039,0.057102125,-0.08286106,-0.07691548,0.006
20240115 08:24:40,-0.151369,-0.453565,-0.243109,0.023827,-0.094208,0.019795,-0.833965,-38.030933,36.076256,-172.84518,-0.20081814,-0.41474906,0.21283627,0.04369963,-0.094124675,-0.034425974,0.006
20240115 08:24:40,-0.0562,-0.589219,-0.323395,-0.028375,-0.112319,0.01873,-0.570045,-38.198124,35.955826,-173.22798,-0.2201454,-0.5327802,0.1535748,0.023188524,-0.115589544,0.0129942335,0.006
20240115 08:24:40,-0.021773,-0.648392,-0.298311,-0.080577,-0.151737,0.016599,-0.764435,-38.020847,35.674377,-174.84914,-0.1944448,-0.6043632,0.11711357,0.0019059042,-0.15701102,0.06132928,0.006
20240115 08:24:40,0.092517,-0.793859,-0.285077,-0.118929,-0.17411,0.010207,-0.74612,-38.022701,35.942619,-176.09294,-0.13746884,-0.755289,0.012186982,-0.022666708,-0.17964268,0.098836824,0.006
20240115 08:24:40,0.254293,-0.784562,-0.193775,-0.135975,-0.189024,-0.004708,-0.824615,-38.127796,36.350616,-178.54854,-0.026470914,-0.7671625,-0.1561392,-0.052388314,-0.19176741,0.12301335,0.006
20240115 08:24:40,0.40734,-0.815433,-0.11315,-0.130648,-0.19009,-0.035603,-0.359531,-39.127331,36.15255,-179.14977,0.0947859,-0.80668825,-0.3246534,-0.08298399,-0.19072434,0.13208151,0.006
20240115 08:24:40,0.35751,-0.827285,-0.122693,-0.112537,-0.152803,-0.070759,-0.641766,-38.958286,36.00473,-177.82968,0.09838646,-0.80665255,-0.28145486,-0.10315068,-0.15142962,0.12960243,0.006
20240115 08:24:40,0.216766,-0.624654,0.090073,-0.068858,-0.088882,-0.083543,-0.720261,-39.063381,36.412727,-177.26022,0.22462812,-0.62101763,-0.24744904,-0.09840521,-0.08479179,0.096927196,0.006
20240115 08:24:40,0.165902,-0.357586,0.249679,-0.002807,-0.017503,-0.08887,-0.527023,-38.664997,35.852753,-175.92697,0.33215427,-0.37196928,-0.271839,-0.07832522,-0.008611474,0.041919626,0.006
20240115 08:24:40,-0.008211,-0.28973,0.348116,0.053657,0.032568,-0.089935,-0.014931,-38.439365,35.977097,-173.90276,0.3409626,-0.33256215,-0.16366662,-0.05919361,0.047510676,-0.0056821853,0.006
20240115 08:24:40,-0.147048,-0.185694,0.343154,0.072833,0.03896,-0.085674,-0.281036,-39.022228,35.744553,-172.76877,0.26751602,-0.25014862,-0.02940309,-0.049580526,0.058074325,-0.02545172,0.006
20240115 08:24:40,-0.243058,-0.046569,0.250892,0.06431,0.019784,-0.07289,-0.587975,-38.388165,35.968048,-171.74237,0.12488932,-0.115529835,0.10890567,-0.040200472,0.039101385,-0.02556756,0.006
20240115 08:24:40,-0.331465,0.040232,0.164366,0.019566,-0.028157,-0.05691,-0.023895,-38.534382,35.983208,-170.1073,-0.005787477,-0.028764945,0.23334092,-0.03569955,-0.013391933,0.0042193756,0.006
20240115 08:24:40,-0.399468,0.071397,0.111369,-0.04329,-0.096339,-0.031341,-0.251572,-38.178982,36.359657,-169.69731,-0.08604184,0.0027251374,0.32174483,-0.024160389,-0.09082385,0.044998094,0.006
20240115 08:24:40,-0.415113,0.130998,0.091049,-0.102949,-0.152803,-0.003642,-0.263107,-38.832188,35.73233,-170.60869,-0.12158676,0.06855103,0.34771997,-0.014798353,-0.15791063,0.08439852,0.006
20240115 08:24:40,-0.325055,0.092212,0.089171,-0.146629,-0.193286,0.010207,-0.368877,-39.030468,35.878181,-171.63058,-0.0763274,0.04459069,0.2626291,-0.01665973,-0.20393483,0.116563685,0.006
20240115 08:24:40,-0.26149,-0.011854,0.06442,-0.177524,-0.198612,0.013403,0.346184,-38.695202,35.997391,-171.18074,-0.054631207,-0.045891583,0.20706797,-0.029580876,-0.2124262,0.14090523,0.006
20240115 08:24:40,-0.298327,-0.152918,0.202666,-0.179654,-0.17411,0.003815,-0.165909,-38.920841,35.873047,-171.61874,0.06846319,-0.21478038,0.1638938,-0.046710677,-0.18794581,0.14658895,0.006
20240115 08:24:40,-0.371204,-0.279512,0.420321,-0.141302,-0.129365,-0.0111,-0.051174,-38.627544,35.721077,-171.32323,0.23248477,-0.38903987,0.10425091,-0.05370366,-0.13881083,0.11963617,0.006
20240115 08:24:40,-0.493358,-0.414648,0.6632,-0.066727,-0.096339,-0.021753,0.379471,-38.87331,35.339493,-170.12047,0.39064455,-0.59404725,0.059865624,-0.032661848,-0.09717275,0.06006586,0.006
20240115 08:24:40,-0.632423,-0.464184,0.771711,0.020631,-0.080359,-0.020688,0.230679,-38.604702,35.588417,-169.34396,0.42414612,-0.69921476,0.11691445,0.01079658,-0.07054553,-0.015006327,0.006
20240115 08:24:40,-0.742768,-0.42659,0.632364,0.127166,-0.106993,0.00275,0.292011,-39.073421,35.753601,-168.34433,0.2779854,-0.6602205,0.31142107,0.08924317,-0.08677226,-0.12316403,0.006
20240115 08:24:40,-0.648507,-0.312036,0.169861,0.196414,-0.155999,0.031514,0.15218,-38.709812,35.996414,-168.18733,-0.050225437,-0.41746572,0.48940948,0.14945689,-0.13505743,-0.20448524,0.006
20240115 08:24:40,-0.384803,-0.169361,-0.508612,0.227309,-0.213527,0.065605,0.08123,-39.853748,36.606262,-169.55804,-0.55968934,-0.083731584,0.5236942,0.18573754,-0.20346978,-0.24899508,0.006
20240115 08:24:40,-0.033567,-0.039664,-1.25134,0.196414,-0.257207,0.085847,0.16946,-40.037395,36.753098,-172.46326,-1.1955053,0.15153849,0.3538849,0.17243105,-0.25898713,-0.22057275,0.006
20240115 08:24:40,0.326067,0.115437,-1.898321,0.111186,-0.262533,0.087978,0.310711,-39.267162,36.302307,-179.37482,-1.7949739,0.124090925,0.061157763,0.10962816,-0.2628181,-0.12713246,0.006
20240115 08:24:40,0.603681,0.269076,-2.267431,-0.001741,-0.234834,0.079455,0.292011,-39.073421,35.753601,175.91864,-2.0866702,0.05228266,-0.18745857,0.056202054,-0.22660187,-0.009616705,0.006
20240115 08:24:40,0.701213,0.386477,-2.241891,-0.139171,-0.203939,0.060279,0.249374,-38.798443,36.137138,174.7475,-2.0007946,0.1130802,-0.25405094,0.008069344,-0.1925327,0.12827912,0.006
20240115 08:24:40,0.629288,0.368279,-1.879753,-0.27234,-0.175175,0.044299,0.413528,-39.435192,35.242531,178.1816,-1.6353735,0.265957,-0.1305058,-0.035646975,-0.1691503,0.25336194,0.006
20240115 08:24:40,0.552857,0.352895,-1.178066,-0.361829,-0.175175,0.021926,0.355148,-38.600178,35.991272,-179.74542,-0.9299181,0.34757772,-0.13498485,-0.09874597,-0.17460065,0.33432457,0.006
20240115 08:24:40,0.346797,0.379045,-0.537544,-0.400181,-0.196482,-0.001511,0.503944,-38.868778,35.742348,-176.93704,-0.38514954,0.41451055,-0.10961129,-0.14274664,-0.2047877,0.36687022,0.006
20240115 08:24:40,0.110948,0.380147,-0.097017,-0.396985,-0.218854,-0.004708,0.56451,-38.953716,35.346581,-175.20306,-0.07615078,0.39148727,-0.048023228,-0.14856012,-0.23347156,0.35596532,0.006
20240115 08:24:40,-0.034496,0.404727,0.216899,-0.360763,-0.234834,0.005946,0.740585,-39.129154,35.359787,-174.49872,0.1385117,0.37875134,-0.045871466,-0.12783012,-0.25144216,0.31258556,0.006
20240115 08:24:40,-0.039386,0.423905,0.394739,-0.310692,-0.256141,0.019795,0.644157,-39.424282,35.780006,-175.63597,0.30197418,0.3898447,-0.12462502,-0.09977923,-0.26872513,0.2612337,0.006
20240115 08:24:40,0.011537,0.381413,0.340518,-0.260621,-0.269991,0.024057,1.014622,-39.776997,36.074654,-175.6519,0.28379104,0.35720098,-0.14678258,-0.07429614,-0.2796365,0.21461728,0.006
20240115 08:24:40,0.120289,0.357375,0.273645,-0.208419,-0.262533,0.015534,0.563091,-40.087574,35.55455,-177.79266,0.28641808,0.34979206,-0.22106989,-0.06754835,-0.2662858,0.17664197,0.006
20240115 08:24:40,0.289668,0.338285,0.152124,-0.15089,-0.240161,-0.001511,1.056873,-39.860088,35.410645,-178.61794,0.26048315,0.3382355,-0.32339698,-0.0652488,-0.24038665,0.13449799,0.006
20240115 08:24:40,0.408927,0.355071,0.045861,-0.092296,-0.210331,-0.032407,0.597801,-39.131832,34.688683,-179.86292,0.21676257,0.35324076,-0.39042214,-0.07061496,-0.21018483,0.097190104,0.006
20240115 08:24:40,0.405202,0.396028,-0.079303,-0.056074,-0.189024,-0.066498,0.81012,-39.119068,34.957909,-179.01848,0.09285651,0.39609656,-0.3347989,-0.08354169,-0.18901339,0.07700402,0.006
20240115 08:24:40,0.364391,0.480964,-0.126924,-0.025179,-0.189024,-0.08887,1.419025,-38.790188,34.942497,-178.45148,0.030737698,0.47995415,-0.27829537,-0.09220013,-0.1892975,0.05650156,0.006
20240115 08:24:40,0.358925,0.562455,-0.260985,-0.028375,-0.197547,-0.116569,1.022053,-38.914417,34.946655,-178.18217,-0.10853,0.5676035,-0.22283286,-0.11594969,-0.1962074,0.06889,0.006
20240115 08:24:40,0.252623,0.641608,-0.325635,-0.035832,-0.215658,-0.140007,1.15472,-38.431095,34.782448,-175.38678,-0.2496179,0.6695409,-0.09166708,-0.1278436,-0.20635787,0.079371765,0.006
20240115 08:24:40,0.076068,0.728216,-0.381465,-0.04542,-0.223116,-0.152791,1.319641,-39.451618,34.448792,-174.72508,-0.38177928,0.7585597,0.09787129,-0.14021695,-0.21150398,0.091666676,0.006
20240115 08:24:40,-0.092258,0.836559,-0.368714,-0.048616,-0.218854,-0.154922,1.568588,-39.442554,35.254509,-172.31436,-0.47838408,0.8704645,0.26600677,-0.13290377,-0.19981228,0.09202318,0.006
20240115 08:24:40,-0.236065,0.836901,-0.367669,-0.02731,-0.202874,-0.142137,1.725964,-39.424252,34.719002,-170.8597,-0.5531384,0.8670246,0.40542746,-0.10903151,-0.17997979,0.06600415,0.006
20240115 08:24:40,-0.324871,0.903172,-0.386091,-0.004937,-0.175175,-0.126157,1.840702,-39.130955,34.567024,-170.00243,-0.62641877,0.9307979,0.50372994,-0.08720639,-0.15133691,0.040031083,0.006
20240115 08:24:40,-0.291873,0.841537,-0.409527,0.019566,-0.164521,-0.117634,1.971951,-39.781483,34.610794,-170.37453,-0.6157592,0.875525,0.47295034,-0.074459635,-0.14234644,0.014631875,0.006
20240115 08:24:40,-0.299632,0.755363,-0.553182,0.006782,-0.16026,-0.127223,1.928547,-39.12273,34.433388,-169.47408,-0.74876237,0.81863284,0.5283812,-0.08538842,-0.13434449,0.028749835,0.006
20240115 08:24:40,-0.361179,0.663182,-0.607453,-0.018787,-0.170913,-0.140007,2.422714,-39.087132,34.569954,-167.9844,-0.8158483,0.7387334,0.60903543,-0.10038901,-0.14106566,0.055367373,0.006
20240115 08:24:40,-0.42943,0.627355,-0.499005,-0.052878,-0.20607,-0.155987,2.105007,-39.490055,34.727066,-167.7137,-0.7460948,0.6784297,0.6350336,-0.11692145,-0.17225358,0.0905188,0.006
20240115 08:24:40,-0.559993,0.576242,-0.412818,-0.064597,-0.247619,-0.16451,2.598789,-39.262562,34.583153,-165.95049,-0.72405577,0.59743077,0.7280179,-0.113014534,-0.20695817,0.09866627,0.006
20240115 08:24:40,-0.667257,0.599732,-0.406538,-0.05927,-0.259337,-0.162379,2.924042,-39.898479,34.627899,-164.56314,-0.77657616,0.606721,0.83048654,-0.09938495,-0.21334904,0.08892639,0.006
20240115 08:24:40,-0.758149,0.639367,-0.447008,-0.025179,-0.242292,-0.147464,3.189766,-39.123714,34.579971,-163.24672,-0.86210656,0.64636016,0.935181,-0.07237645,-0.19313776,0.05065664,0.006
20240115 08:24:40,-0.779851,0.615183,-0.577422,0.007847,-0.19009,-0.131484,2.086308,-39.296314,34.178345,-164.153,-0.9792408,0.6594537,0.9951534,-0.058227606,-0.14205167,0.020867292,0.006
20240115 08:24:40,-0.757585,0.632623,-0.62071,0.036611,-0.136822,-0.112308,2.650776,-39.634411,34.473969,-163.71756,-1.0137324,0.6895621,0.9949699,-0.04628473,-0.09429681,-0.0074031167,0.006
20240115 08:24:40,-0.789878,0.658391,-0.518019,0.056853,-0.11445,-0.10485,2.783447,-39.151089,34.309776,-163.22177,-0.95012724,0.67872554,0.9942652,-0.036638312,-0.07149468,-0.026244726,0.006
20240115 08:24:40,-0.872128,0.616504,-0.454784,0.061114,-0.110189,-0.097393,3.153904,-39.503788,34.604424,-162.1766,-0.9276686,0.6050244,1.0475801,-0.026668902,-0.066546366,-0.03255777,0.006
20240115 08:24:40,-0.871191,0.586423,-0.27656,0.065376,-0.1283,-0.085674,3.383389,-38.917217,34.300476,-162.86568,-0.76505464,0.5240358,0.97395754,-0.010992013,-0.08951922,-0.041277092,0.006
20240115 08:24:40,-0.881959,0.537127,-0.136807,0.072833,-0.178371,-0.073955,3.21666,-38.83865,34.56163,-163.75555,-0.6333219,0.44058064,0.91853386,0.014166176,-0.14171042,-0.057174616,0.006
20240115 08:24:40,-0.716976,0.702777,-0.016232,0.082421,-0.259337,-0.048387,3.799438,-39.178608,35.125504,-165.6298,-0.45748147,0.61839104,0.7319785,0.045997508,-0.23402059,-0.08235784,0.006
20240115 08:24:40,-0.395949,0.915126,-0.136744,0.095206,-0.332846,-0.017492,3.674969,-39.18314,34.722649,-168.89287,-0.40783328,0.9000912,0.48436627,0.06834684,-0.32057527,-0.10591471,0.006
20240115 08:24:40,0.017091,0.968581,-0.43549,0.098402,-0.364807,-0.003642,3.664848,-38.702488,33.887352,-173.52501,-0.44047916,0.98553383,0.17439869,0.045904636,-0.3628278,-0.10531056,0.006
20240115 08:24:40,0.456541,1.074577,-0.633201,0.080291,-0.336042,-0.023884,3.631561,-38.524372,34.545242,-178.24243,-0.3789471,1.0240682,-0.20934325,-0.016230255,-0.3385153,-0.07122061,0.006
20240115 08:24:40,0.757715,1.424942,-0.678623,0.066441,-0.256141,-0.048387,3.632332,-38.908154,35.106194,178.49707,-0.19971526,1.2894619,-0.5031968,-0.05638525,-0.2629911,-0.04449366,0.006
20240115 08:24:40,1.016339,1.607674,-0.540527,0.058984,-0.155999,-0.085674,4.063362,-39.345806,35.005074,176.65231,0.13626054,1.4143847,-0.80417824,-0.08711071,-0.1723817,-0.023283616,0.006
20240115 08:24:40,1.129337,1.639933,-0.441587,0.03235,-0.060117,-0.144268,3.842461,-39.645473,35.022438,177.3997,0.24379638,1.4803023,-0.93154263,-0.13161162,-0.08398255,0.020690333,0.006
20240115 08:24:40,0.98357,1.496982,-0.29069,-0.030506,0.032568,-0.199666,4.406544,-39.791683,35.03759,-179.39986,0.2539908,1.4171454,-0.7974024,-0.1920864,0.013126524,0.10314696,0.006
20240115 08:24:40,0.700994,1.195055,0.131279,-0.113603,0.096489,-0.25826,4.397846,-38.177181,33.994316,-174.81766,0.42192104,1.1943523,-0.6437418,-0.28170663,0.09577565,0.21618274,0.006
20240115 08:24:40,0.153739,0.864066,0.724601,-0.183916,0.124188,-0.298744,4.504005,-38.170803,34.128929,-169.9766,0.61471444,0.7934049,-0.4104063,-0.36139035,0.14315082,0.31526315,0.006
20240115 08:24:40,-0.469429,0.443614,1.459383,-0.203092,0.159344,-0.300874,4.414356,-39.120998,34.190063,-167.23053,0.8421391,0.14318381,-0.3616284,-0.38414812,0.18266098,0.35328004,0.006
20240115 08:24:40,-1.013926,0.165235,2.276289,-0.142367,0.155083,-0.261456,4.361603,-38.365376,33.738304,-165.54573,1.0505614,-0.4341722,-0.56677175,-0.31644,0.17850398,0.29394835,0.006
20240115 08:24:40,-1.323174,-0.208966,2.834705,-0.034767,0.089031,-0.192209,4.757538,-39.566883,34.22258,-164.88255,1.203647,-0.9837752,-0.8688054,-0.17901272,0.11736223,0.16484317,0.006
20240115 08:24:40,-1.340054,-0.393837,3.066864,0.099467,-0.026026,-0.117634,4.415123,-39.50478,34.751007,-166.1345,1.4106741,-1.1359862,-1.034883,-0.014941402,0.011152149,-0.0028136745,0.006
20240115 08:24:40,-0.988618,-0.366989,2.692988,0.218786,-0.157064,-0.053714,4.502201,-39.112766,34.056427,-167.17633,1.5098566,-0.91198915,-0.9079606,0.11972412,-0.11767891,-0.16052163,0.006
20240115 08:24:41,-0.531229,-0.411891,1.845675,0.27738,-0.246553,-0.012165,4.740379,-40.140697,34.795753,-168.99849,1.2569882,-0.6760709,-0.6287148,0.17664972,-0.2193073,-0.24877103,0.006
20240115 08:24:41,-0.012026,-0.353465,1.09955,0.288034,-0.288102,0.004881,4.734367,-39.869411,35.715782,-172.09259,0.9586964,-0.41453207,-0.5676896,0.1666291,-0.27827793,-0.2706807,0.006
20240115 08:24:41,0.453479,-0.273863,0.541937,0.27738,-0.274252,-0.001511,5.059238,-40.313442,35.480057,-175.0235,0.6856793,-0.26859638,-0.663201,0.12263359,-0.2767146,-0.25606847,0.006
20240115 08:24:41,0.759856,-0.25603,0.128326,0.253942,-0.212462,-0.032407,5.236351,-39.163128,35.004822,-176.6402,0.4351103,-0.2702635,-0.74491346,0.070372045,-0.2214687,-0.2190301,0.006
20240115 08:24:41,0.830164,-0.334736,-0.040201,0.218786,-0.129365,-0.07502,4.978436,-39.267216,34.205223,-176.20276,0.31456795,-0.3551256,-0.7371334,0.023247257,-0.13767877,-0.167116,0.006
20240115 08:24:41,0.65183,-0.378175,0.095382,0.197479,-0.046268,-0.112308,5.032997,-39.080875,34.729485,-173.79855,0.38872585,-0.37645566,-0.6406579,-0.007892579,-0.044763833,-0.12574415,0.006
20240115 08:24:41,0.348774,-0.49935,0.408515,0.182564,0.007,-0.140007,5.113678,-38.225697,34.674469,-170.89412,0.5597998,-0.51211095,-0.54089195,-0.032252826,0.023362659,-0.09045251,0.006
20240115 08:24:41,0.021641,-0.650596,0.626785,0.172976,0.026176,-0.148529,5.050541,-38.69894,34.436783,-168.56361,0.6214546,-0.71785223,-0.40085268,-0.04030951,0.056189455,-0.07080711,0.006
20240115 08:24:41,-0.224996,-0.753353,0.769854,0.170845,0.007,-0.135745,5.07782,-38.605778,34.698921,-166.97632,0.6429531,-0.87996274,-0.28943563,-0.025507525,0.04367778,-0.07559176,0.006
20240115 08:24:41,-0.435061,-0.836535,0.806864,0.154865,-0.010046,-0.112308,5.466213,-38.768444,34.981346,-164.75526,0.59260345,-1.0210857,-0.16420716,-0.008096702,0.030221954,-0.074663185,0.006
20240115 08:24:41,-0.664624,-0.7802,0.930417,0.133558,-0.047333,-0.065432,5.605274,-38.748287,34.177582,-163.96707,0.5573429,-1.0335541,-0.042742968,0.028649703,-0.015081502,-0.0852562,0.006
20240115 08:24:41,-0.641707,-0.854949,0.986925,0.111186,-0.089947,-0.008969,5.668797,-38.46693,34.69574,-164.76321,0.61654305,-1.0926318,-0.10159606,0.06970681,-0.072815746,-0.101453476,0.006
20240115 08:24:41,-0.448348,-0.921718,1.024461,0.093075,-0.112319,0.038972,5.423573,-38.493465,35.364883,-166.93524,0.7310341,-1.09899,-0.287212,0.09945187,-0.107407115,-0.112574354,0.006
20240115 08:24:41,-0.171766,-0.980742,1.086512,0.082421,-0.127234,0.067736,5.421001,-39.051655,34.731438,-169.36272,0.8989066,-1.0887042,-0.5458473,0.1137262,-0.12765923,-0.11843078,0.006
20240115 08:24:41,0.087294,-1.187551,1.059069,0.06431,-0.131496,0.066671,5.527161,-39.045277,34.866043,-170.69644,0.99949676,-1.2487762,-0.76733696,0.09965029,-0.13258213,-0.10211197,0.006
20240115 08:24:41,0.269607,-1.340552,1.178473,0.061114,-0.149606,0.047495,5.342121,-38.964863,34.858955,-172.17513,1.169434,-1.3769156,-0.99680054,0.07967763,-0.14961682,-0.08876702,0.006
20240115 08:24:41,0.369167,-1.406783,1.266018,0.061114,-0.169848,0.013403,5.55444,-38.952106,35.128181,-172.34277,1.2869154,-1.4362459,-1.1383482,0.051565625,-0.16881214,-0.070608266,0.006
20240115 08:24:41,0.286616,-1.422685,1.267659,0.081356,-0.17411,-0.014296,5.378365,-38.776669,35.114983,-171.91008,1.2577286,-1.4664046,-1.0793706,0.043180104,-0.17075045,-0.07220587,0.006
20240115 08:24:41,0.25177,-1.358351,1.315075,0.131427,-0.155999,-0.022818,5.687111,-38.468777,34.963982,-171.67534,1.2734878,-1.4021132,-1.0674531,0.063164316,-0.15121922,-0.10751935,0.006
20240115 08:24:41,0.330774,-1.250795,1.139945,0.194283,-0.122973,-0.019622,5.456478,-38.479687,34.426506,-172.39319,1.1700907,-1.2766494,-0.98710436,0.09370135,-0.118662134,-0.16071594,0.006
20240115 08:24:41,0.411104,-1.150752,0.858655,0.246485,-0.05266,-0.021753,5.662018,-37.811871,35.054825,-173.01118,0.9587068,-1.1567816,-0.8671987,0.11014057,-0.050930448,-0.20263135,0.006
20240115 08:24:41,0.525442,-0.947655,0.63765,0.278445,0.014457,-0.023884,5.811199,-38.272358,35.086365,-173.56879,0.80689996,-0.9454739,-0.81927735,0.11488617,0.013334982,-0.23081546,0.006
20240115 08:24:41,0.558605,-0.743561,0.338366,0.283772,0.06879,-0.022818,5.899044,-38.264126,34.952728,-173.33028,0.54948145,-0.74321496,-0.68905675,0.10795413,0.067814775,-0.23948672,0.006
20240115 08:24:41,0.542974,-0.52074,0.075835,0.252877,0.09862,-0.0111,5.697227,-38.949421,35.799278,-173.56487,0.29439014,-0.5215549,-0.5489342,0.0965778,0.098017745,-0.22022793,0.006
20240115 08:24:41,0.572601,-0.330363,-0.074674,0.18576,0.101816,0.00275,5.874722,-37.991001,35.604515,-173.66306,0.15804523,-0.3349088,-0.50870955,0.07888098,0.10069452,-0.16654281,0.006
20240115 08:24:41,0.639145,-0.252275,-0.138408,0.090944,0.079443,0.012338,6.017124,-37.796429,35.99514,-174.08128,0.1193202,-0.26296592,-0.5427679,0.049390733,0.078711,-0.085133344,0.006
20240115 08:24:41,0.591232,-0.211212,-0.198801,-0.01346,0.049614,0.017665,6.120327,-38.156338,35.215836,-173.00943,0.048042715,-0.21479215,-0.47611195,0.011342073,0.049797792,0.007855181,0.006
20240115 08:24:41,0.525163,-0.211668,-0.129778,-0.115733,0.030437,0.022992,6.005585,-38.449642,35.367813,-172.4436,0.09865799,-0.20829701,-0.43779778,-0.02670914,0.029746814,0.09788445,0.006
20240115 08:24:41,0.451026,-0.229918,0.145617,-0.186046,0.02298,0.027253,5.529732,-38.487087,35.499489,-172.22392,0.335132,-0.22770621,-0.4822486,-0.057789434,0.01964583,0.15670411,0.006
20240115 08:24:41,0.285545,-0.298246,0.433754,-0.224399,0.013392,0.03258,5.741283,-38.090542,35.207771,-169.93988,0.5369848,-0.31764874,-0.4757657,-0.07667032,0.002521169,0.18476674,0.006
20240115 08:24:41,0.047758,-0.353161,0.703983,-0.232922,0.003804,0.050691,5.996235,-38.352764,35.093452,-168.38676,0.6686048,-0.4185664,-0.41382557,-0.070426255,-0.014362274,0.1792186,0.006
20240115 08:24:41,-0.069636,-0.314512,0.865368,-0.22866,-0.005785,0.071998,5.997005,-38.736546,35.654396,-168.27107,0.7422065,-0.4068258,-0.39496595,-0.05173154,-0.027044285,0.16226429,0.006
20240115 08:24:41,-0.143761,-0.376846,0.960251,-0.21268,-0.020699,0.092239,5.934254,-39.401684,35.697189,-167.63982,0.7876588,-0.49997708,-0.3996294,-0.028323218,-0.047115546,0.13397495,0.006
20240115 08:24:41,-0.220168,-0.413321,1.017902,-0.199896,-0.048398,0.118873,5.413574,-39.914227,35.859436,-168.62903,0.799584,-0.54076666,-0.36564016,0.0039073005,-0.07517496,0.10672756,0.006
20240115 08:24:41,-0.108841,-0.424091,0.944964,-0.183916,-0.087816,0.141245,5.89724,-39.206097,34.880226,-169.09,0.7931775,-0.51223177,-0.4169112,0.03581348,-0.10968889,0.079881616,0.006
20240115 08:24:41,0.06618,-0.50475,0.77288,-0.175393,-0.120842,0.142311,5.677761,-38.371906,34.689621,-170.61517,0.73332465,-0.5475182,-0.47477704,0.044058584,-0.13502055,0.07344014,0.006
20240115 08:24:41,0.198857,-0.523293,0.549244,-0.175393,-0.141084,0.134853,5.951412,-38.827862,35.124023,-171.66846,0.59345734,-0.5368622,-0.47193563,0.03837976,-0.14828755,0.079893194,0.006
20240115 08:24:41,0.338364,-0.611181,0.326436,-0.161543,-0.150672,0.122069,5.342121,-38.964863,34.858955,-173.83707,0.44594222,-0.61100113,-0.48142797,0.032294318,-0.1504196,0.07859352,0.006
20240115 08:24:41,0.510042,-0.639435,0.136335,-0.147694,-0.131496,0.093305,5.942062,-38.730999,34.849655,-174.39027,0.33397865,-0.6427028,-0.5444572,0.012277901,-0.12648119,0.08369519,0.006
20240115 08:24:41,0.536767,-0.649012,-0.051687,-0.126387,-0.091012,0.062409,5.853065,-38.163555,34.141884,-174.30324,0.17241573,-0.6577891,-0.487143,-0.0025848001,-0.0873732,0.081883,0.006
20240115 08:24:41,0.53683,-0.606726,-0.172633,-0.10508,-0.03881,0.035776,5.632553,-38.655109,34.439713,-174.89543,0.056862295,-0.621407,-0.43210042,-0.014868941,-0.035747547,0.07762339,0.006
20240115 08:24:41,0.529649,-0.603452,-0.21234,-0.084838,0.014457,0.00275,5.675575,-39.121983,34.336647,-174.09752,0.025328904,-0.61209464,-0.41364712,-0.03381089,0.015269935,0.076016314,0.006
20240115 08:24:41,0.419905,-0.538739,-0.242883,-0.064597,0.062398,-0.022818,5.791466,-39.404362,35.026085,-172.59386,-0.033745527,-0.53298384,-0.30678856,-0.04898026,0.062292863,0.071508154,0.006
20240115 08:24:41,0.247497,-0.45097,-0.245206,-0.053943,0.103946,-0.036668,5.473373,-39.615391,34.902725,-171.5526,-0.09754114,-0.43472993,-0.14964867,-0.060539298,0.10432606,0.07068479,0.006
20240115 08:24:41,0.19279,-0.313676,-0.196121,-0.047551,0.123123,-0.044125,5.870342,-39.491154,34.898567,-170.91936,-0.08075141,-0.29975483,-0.113391586,-0.06588082,0.123984724,0.06979436,0.006
20240115 08:24:41,0.20425,-0.240435,-0.161842,-0.050747,0.112469,-0.046256,5.650482,-38.465076,34.427483,-171.33856,-0.052314326,-0.22992602,-0.1341848,-0.06766592,0.11328524,0.07222715,0.006
20240115 08:24:41,0.247757,-0.066218,-0.253678,-0.074185,0.096489,-0.048387,5.756638,-38.458698,34.562103,-171.2256,-0.12980202,-0.051935963,-0.13006637,-0.07788163,0.09702009,0.093072966,0.006
20240115 08:24:41,0.286394,0.054663,-0.338662,-0.10508,0.093293,-0.04306,5.517044,-38.564625,34.030746,-171.7986,-0.19958442,0.06908653,-0.12768298,-0.083951205,0.093172856,0.118625164,0.006
20240115 08:24:41,0.310159,0.102457,-0.368817,-0.13491,0.108208,-0.039864,5.580566,-38.283268,34.548897,-171.51772,-0.21772085,0.12100995,-0.13257374,-0.09441057,0.10741985,0.14580414,0.006
20240115 08:24:41,0.275027,0.133763,-0.24201,-0.157282,0.131645,-0.032407,5.693119,-38.740055,34.043945,-171.00934,-0.11100752,0.15049717,-0.14144872,-0.10109353,0.1296496,0.16487435,0.006
20240115 08:24:41,0.191261,0.100492,-0.005303,-0.157282,0.141234,-0.026014,5.905437,-38.727299,34.313171,-170.11604,0.07360228,0.10644454,-0.16159527,-0.10162187,0.13768885,0.16311923,0.006
20240115 08:24:41,0.117987,0.041644,0.187531,-0.133844,0.139103,-0.01323,5.66584,-38.833225,33.781815,-169.98639,0.21719,0.0324699,-0.18581918,-0.08255167,0.1347365,0.13611513,0.006
20240115 08:24:41,0.089741,0.067738,0.287604,-0.093361,0.139103,-0.000446,5.896088,-38.630421,34.038811,-169.90575,0.2918046,0.051366605,-0.20289241,-0.051988427,0.13556932,0.09447588,0.006
20240115 08:24:41,0.202806,0.055477,0.148658,-0.047551,0.139103,0.009142,6.108406,-38.617664,34.308037,-170.51431,0.21950956,0.053007778,-0.24249819,-0.019209223,0.13736808,0.048847415,0.006
20240115 08:24:41,0.303968,0.07013,-0.088125,-0.006003,0.143364,0.009142,5.27002,-39.533123,34.627396,-172.44763,0.044367336,0.076456755,-0.23625527,0.0017992565,0.14296347,0.009526584,0.006
20240115 08:24:41,0.358808,0.163518,-0.32759,0.011043,0.151887,0.00275,5.666225,-39.025112,34.062286,-172.29683,-0.16584574,0.17142124,-0.19671199,0.00429068,0.15189372,-0.003357199,0.006
20240115 08:24:41,0.403981,0.268925,-0.594772,0.007847,0.167867,0.003815,5.524204,-39.411572,33.952133,-171.70804,-0.41706073,0.2922596,-0.150438,0.0011379889,0.16774847,5.38351e-05,0.006
20240115 08:24:41,0.3381,0.36342,-0.791585,-0.001741,0.187044,0.011273,5.33239,-38.676098,34.304131,-171.09909,-0.64135164,0.4072991,-0.02571565,0.000900873,0.1862177,0.007819594,0.006
20240115 08:24:41,0.237621,0.400294,-0.837544,-0.037963,0.198762,0.019795,5.074863,-38.972073,33.785004,-170.06357,-0.73073405,0.47033328,0.08832276,-0.01004317,0.1954753,0.04074013,0.006
20240115 08:24:41,0.138208,0.345579,-0.776977,-0.064597,0.200893,0.035776,5.268867,-38.957462,33.78598,-168.45631,-0.7074349,0.43292543,0.17028768,-0.011821117,0.19298454,0.062113278,0.006
20240115 08:24:41,0.017642,0.380357,-0.632067,-0.080577,0.188109,0.058148,5.551098,-39.126507,33.933792,-167.76717,-0.61996007,0.45219764,0.24353282,0.0015088953,0.17600563,0.06847152,0.006
20240115 08:24:41,-0.07809,0.341459,-0.476343,-0.07525,0.157214,0.087978,5.365681,-38.854214,33.646233,-166.61827,-0.51477844,0.40233126,0.27852967,0.028640531,0.13776715,0.050881002,0.006
20240115 08:24:41,-0.121506,0.380857,-0.473948,-0.057139,0.124188,0.127396,5.252087,-39.723164,34.639618,-167.31831,-0.53257185,0.43506455,0.31613111,0.07858533,0.10217105,0.01688892,0.006
20240115 08:24:41,-0.010643,0.442208,-0.595417,-0.035832,0.099685,0.164683,5.409466,-39.704861,34.104103,-167.68945,-0.609826,0.51078445,0.24968648,0.12774634,0.07700768,-0.016018368,0.006
20240115 08:24:41,0.075474,0.551384,-0.758225,-0.025179,0.087966,0.204101,5.260288,-39.244366,34.072563,-169.43933,-0.7336846,0.6160678,0.2112774,0.17571145,0.06943815,-0.037832275,0.006
20240115 08:24:41,0.224606,0.681845,-0.879484,-0.020917,0.086901,0.245649,4.643452,-38.342541,33.605652,-172.66441,-0.7796295,0.7091198,0.096234664,0.22321704,0.07956412,-0.05506842,0.006
20240115 08:24:41,0.476645,0.726979,-0.913638,-0.018787,0.070921,0.27761,5.180256,-38.581913,33.358665,-176.59778,-0.66330135,0.6472176,-0.15373766,0.2621546,0.091292575,-0.06757572,0.006
20240115 08:24:41,0.782572,0.66275,-1.144003,-0.036898,0.059202,0.287198,4.899174,-38.988529,34.052269,178.33609,-0.7286329,0.4142938,-0.41328242,0.26896635,0.10941088,-0.05055441,0.006
20240115 08:24:41,1.040345,0.55789,-1.260989,-0.073119,0.056006,0.273348,4.713367,-38.524349,33.484238,174.03636,-0.7018965,0.12612933,-0.63415444,0.2436,0.13058245,-0.013438612,0.006
20240115 08:24:41,1.227024,0.392681,-1.273142,-0.112537,0.066659,0.230734,4.422935,-38.834087,33.903481,170.79337,-0.6347331,-0.15941066,-0.7943381,0.19281405,0.14748237,0.032714248,0.006
20240115 08:24:41,1.28031,0.345525,-1.172219,-0.133844,0.102881,0.168944,4.483501,-38.919033,33.507713,173.17807,-0.5506932,-0.10560936,-0.84406495,0.13720636,0.15678181,0.06782745,0.006
20240115 08:24:41,1.06345,0.370728,-0.887557,-0.122126,0.16254,0.121004,4.563148,-39.389599,33.941139,177.30745,-0.3752239,0.1284776,-0.6918469,0.09814386,0.18989997,0.06940584,0.006
20240115 08:24:41,0.761738,0.451841,-0.49461,-0.083773,0.220069,0.091174,4.678276,-39.288197,34.069633,-179.01244,-0.12080863,0.36486384,-0.51617026,0.07532582,0.2317557,0.044656266,0.006
20240115 08:24:41,0.561354,0.54614,-0.191856,-0.020917,0.226461,0.077324,4.017769,-39.437122,34.474693,-177.90694,0.07275103,0.5188842,-0.43665898,0.07701562,0.23122717,-0.0072482545,0.006
20240115 08:24:41,0.407773,0.563165,-0.198937,0.012108,0.185978,0.066671,4.148247,-39.703869,33.957527,-176.82004,-0.008566797,0.5470751,-0.2928846,0.07426876,0.18842264,-0.03217946,0.006
20240115 08:24:41,0.400192,0.671516,-0.355004,0.005716,0.13058,0.054952,4.165413,-39.130054,33.384354,-176.92633,-0.1560837,0.6460741,-0.23466182,0.05962192,0.13295601,-0.022408655,0.006
20240115 08:24:41,0.408699,0.765214,-0.513773,-0.034767,0.069855,0.03471,4.501434,-38.728992,33.495491,-176.38622,-0.31013063,0.7332727,-0.19657812,0.024261141,0.07198168,0.022593489,0.006
20240115 08:24:41,0.299895,0.865601,-0.657676,-0.086969,0.041091,0.01873,4.589664,-38.912655,33.642326,-175.41063,-0.4982429,0.8437696,-0.045499593,-0.009689884,0.042450126,0.077108964,0.006
20240115 08:24:41,0.256156,0.915288,-0.600254,-0.130648,0.037895,0.013403,3.971024,-38.952778,33.102905,-174.90785,-0.4760008,0.91507006,-0.008179858,-0.032121863,0.037913922,0.11933456,0.006
20240115 08:24:41,0.110148,0.863648,-0.352768,-0.15089,0.037895,0.008077,4.359417,-39.115444,33.38533,-173.3015,-0.3098236,0.8740356,0.065404676,-0.049613878,0.036022622,0.13874218,0.006
20240115 08:24:41,0.041332,0.762484,-0.102275,-0.140236,0.032568,0.005946,3.998302,-38.859608,33.365036,-173.2686,-0.10728594,0.7664586,0.03707666,-0.05094278,0.029981356,0.12811986,0.006
20240115 08:24:41,-0.01304,0.622581,0.060754,-0.102949,0.021915,0.003815,4.446873,-38.915333,32.971222,-172.12373,0.017567363,0.61809146,0.022168813,-0.03971944,0.019276911,0.09365137,0.006
20240115 08:24:41,-0.024252,0.504069,0.125606,-0.053943,0.012326,0.00275,4.192692,-39.036892,33.646492,-173.30434,0.08648084,0.49893633,-0.0053971447,-0.020374514,0.01136161,0.048514124,0.006
20240115 08:24:41,0.080501,0.362535,0.124678,0.00039,-0.003654,-0.0111,4.615139,-39.761448,33.831955,-173.92632,0.14283158,0.36153245,-0.10882669,-0.009889643,-0.0035282345,0.0040775565,0.006
20240115 08:24:41,0.170103,0.29495,-0.025423,0.046199,-0.007915,-0.035603,4.500015,-39.86285,33.703461,-174.5384,0.045728568,0.29492244,-0.1339075,-0.013842689,-0.007930253,-0.028191855,0.006
20240115 08:24:41,0.246794,0.281013,-0.105391,0.087748,0.013392,-0.066498,4.368382,-39.020428,33.379211,-175.32877,0.0066300407,0.27753133,-0.17505568,-0.025639173,0.0116990665,-0.053491548,0.006
20240115 08:24:41,0.219246,0.191893,-0.106569,0.130362,0.05281,-0.10272,4.58709,-39.470844,33.008881,-173.69627,-0.010604799,0.19477369,-0.14839375,-0.041363545,0.055089034,-0.07502587,0.006
20240115 08:24:41,0.071982,0.261532,0.059509,0.187891,0.09862,-0.129353,4.659191,-38.902569,33.240448,-172.17181,0.071913026,0.2599635,-0.075152904,-0.04358963,0.10849157,-0.11168933,0.006
20240115 08:24:41,-0.038419,0.551915,0.282938,0.275249,0.141234,-0.129353,4.543301,-38.620197,32.551003,-171.77048,0.20974237,0.53386694,-0.04853314,-0.011119515,0.15537292,-0.18883136,0.006
20240115 08:24:41,-0.063078,0.939891,0.326227,0.374327,0.179586,-0.116569,4.394505,-38.351597,32.799934,-172.02989,0.22403678,0.919377,-0.018094994,0.031154841,0.19412848,-0.2885796,0.006
20240115 08:24:41,0.069084,1.230396,0.179027,0.439313,0.220069,-0.100589,4.440483,-38.45216,33.610786,-173.80382,0.17552765,1.2282548,-0.08084606,0.06478859,0.22368595,-0.36321297,0.006
20240115 08:24:41,0.29404,1.469104,0.001557,0.448901,0.255226,-0.110177,4.334709,-38.650433,33.756638,-175.22542,0.12581304,1.4672065,-0.23470433,0.05474391,0.2508233,-0.3766097,0.006
20240115 08:24:41,0.273883,1.581352,-0.13282,0.397764,0.28399,-0.137876,4.485691,-38.168949,33.860687,-172.85922,-0.08101286,1.5876101,-0.14686185,-0.0040625334,0.29246086,-0.31624463,0.006
20240115 08:24:41,0.119031,1.604765,-0.027107,0.30721,0.305297,-0.16664,4.828491,-38.422947,33.61274,-169.59265,-0.13290316,1.6034884,8.031353e-05,-0.07545088,0.330087,-0.21038145,0.006
20240115 08:24:41,-0.324488,1.763218,0.333293,0.21559,0.306362,-0.160248,4.273754,-38.3736,33.871941,-166.04688,-0.1558758,1.6380358,0.33857363,-0.11888063,0.34703335,-0.110113144,0.006
20240115 08:24:41,-0.7638,1.27495,0.739191,0.135689,0.288252,-0.130419,4.415775,-37.987141,33.982094,-163.67644,0.0016651154,0.96625674,0.53078634,-0.121286586,0.3246787,-0.030889366,0.006
20240115 08:24:41,-1.08465,0.865483,1.242134,0.082421,0.232853,-0.094197,4.582886,-38.257587,34.001404,-162.9936,0.29253918,0.3701705,0.48829126,-0.09620034,0.25808778,0.0055585764,0.006
20240115 08:24:41,-1.247419,0.42813,1.638719,0.053657,0.149756,-0.055844,4.432285,-38.930958,34.177834,-162.81161,0.5598243,-0.21180432,0.30150235,-0.055430543,0.16564775,0.0058531594,0.006
20240115 08:24:41,-1.39528,-0.045867,1.764601,0.068572,0.074117,-0.008969,4.255444,-38.371754,33.603699,-162.3757,0.63261837,-0.76233935,0.22415292,0.011063042,0.08476374,-0.03997663,0.006
20240115 08:24:41,-1.454412,-0.416868,1.755514,0.105859,0.021915,0.049625,4.77689,-38.242977,34.00238,-162.16083,0.66743207,-1.1028616,0.18954599,0.092925824,0.026607953,-0.11030699,0.006
20240115 08:24:42,-1.284088,-0.726693,1.697489,0.160192,-0.016438,0.101827,4.32793,-37.995373,34.11573,-164.23428,0.7856246,-1.2770116,0.025284767,0.17503785,-0.014064012,-0.19006522,0.006
20240115 08:24:42,-0.938153,-1.052335,1.53458,0.21559,-0.060117,0.125265,4.786621,-38.531742,34.55722,-166.0006,0.9094322,-1.4150934,-0.19314176,0.23249564,-0.055211246,-0.25484672,0.006
20240115 08:24:42,-0.536671,-1.228569,1.297696,0.244354,-0.11445,0.117808,5.016102,-37.945164,34.253273,-168.32016,0.9556559,-1.4178485,-0.35137045,0.24262267,-0.10886251,-0.2806283,0.006
20240115 08:24:42,-0.144162,-1.304941,0.896391,0.2614,-0.149606,0.085847,4.495037,-38.26582,34.135048,-171.83646,0.7834796,-1.362481,-0.41122857,0.21411407,-0.14517953,-0.27949825,0.006
20240115 08:24:42,0.244874,-1.360008,0.590787,0.275249,-0.164521,0.036841,4.345474,-37.613445,33.823029,-174.13878,0.65517074,-1.3662528,-0.5605345,0.16542749,-0.16293807,-0.2676163,0.006
20240115 08:24:42,0.3797,-1.259534,0.458873,0.285903,-0.151737,-0.024949,4.391068,-37.522121,34.353401,-174.95966,0.5747987,-1.2582029,-0.5954879,0.10635509,-0.15257242,-0.24975495,0.006
20240115 08:24:42,0.362533,-1.073614,0.151996,0.302948,-0.087816,-0.069694,4.743217,-37.87299,34.379807,-174.02916,0.29262513,-1.0735494,-0.43866405,0.061812155,-0.08691724,-0.2511769,0.006
20240115 08:24:42,0.332762,-0.900382,-0.04495,0.30934,0.000608,-0.091001,4.691231,-37.501133,34.488991,-173.00046,0.11239411,-0.8950916,-0.3317626,0.03705705,0.006481142,-0.24946931,0.006
20240115 08:24:42,0.221785,-0.648671,-0.157103,0.297622,0.09862,-0.089935,4.330116,-37.245296,34.468704,-171.80705,-0.025409676,-0.6326717,-0.18305881,0.020074539,0.11084352,-0.23886956,0.006
20240115 08:24:42,0.150075,-0.485311,-0.246351,0.260334,0.187044,-0.07502,4.867302,-37.676563,34.502197,-169.73242,-0.13114488,-0.45561814,-0.084036775,0.00699088,0.20197009,-0.20444725,0.006
20240115 08:24:42,0.041954,-0.466425,-0.274725,0.179368,0.248834,-0.064367,4.627708,-37.78249,33.97084,-169.04489,-0.1876347,-0.43090618,0.026186481,-0.022466239,0.2618832,-0.12744188,0.006
20240115 08:24:42,-0.040788,-0.518098,-0.163655,0.057918,0.275467,-0.061171,4.558563,-37.984463,34.653198,-167.78915,-0.09110819,-0.4909669,0.056977697,-0.07290122,0.2843139,-0.0082515925,0.006
20240115 08:24:42,-0.184993,-0.694254,0.09594,-0.074185,0.273337,-0.063302,4.585457,-37.699406,34.634857,-166.46494,0.1256294,-0.71308976,0.058220606,-0.13484362,0.2732215,0.12063738,0.006
20240115 08:24:42,-0.46292,-0.862928,0.577232,-0.188177,0.255226,-0.063302,4.382488,-37.809032,34.639992,-165.38467,0.44093758,-1.0075758,0.028968483,-0.19642434,0.24014543,0.22549245,0.006
20240115 08:24:42,-0.719566,-0.946141,1.128992,-0.253163,0.243507,-0.045191,4.522701,-38.364544,34.67765,-164.59346,0.74132806,-1.2555584,-0.10826486,-0.22463357,0.21078178,0.2718209,0.006
20240115 08:24:42,-0.951479,-1.077459,1.638576,-0.268078,0.244572,-0.017492,4.250202,-38.484249,35.084663,-165.02356,0.97266597,-1.5255339,-0.29416513,-0.21949497,0.20045945,0.2652864,0.006
20240115 08:24:42,-1.015379,-1.213128,2.050984,-0.243575,0.258422,0.003815,4.734634,-38.159901,34.666397,-164.58936,1.193319,-1.748439,-0.60350466,-0.19856483,0.21073563,0.23244303,0.006
20240115 08:24:42,-1.128312,-1.26615,2.501741,-0.175393,0.271206,0.027253,4.495422,-38.457706,34.415512,-165.20805,1.3896224,-1.8920004,-0.88109374,-0.14422658,0.22897175,0.1624105,0.006
20240115 08:24:42,-1.180611,-1.195292,2.848528,-0.129583,0.271206,0.040037,4.009838,-38.206402,33.992363,-165.91574,1.5558245,-1.8854971,-1.0868633,-0.10586898,0.23428212,0.11614967,0.006
20240115 08:24:42,-1.082292,-1.238627,2.914764,0.03235,0.231788,0.06454,4.142891,-37.914967,34.108635,-166.39143,1.6711012,-1.8782945,-1.2059643,0.028129635,0.21907288,-0.029919764,0.006
20240115 08:24:42,-0.948284,-1.350415,2.68689,0.121839,0.173194,0.057083,4.266979,-37.718548,34.231026,-166.69772,1.6725318,-1.9001653,-1.1002667,0.0907194,0.17604367,-0.10465461,0.006
20240115 08:24:42,-0.789496,-1.302251,2.225139,0.180433,0.113534,0.036841,4.17952,-37.918667,34.645134,-166.42932,1.5228945,-1.7740033,-0.81555796,0.114822716,0.12772466,-0.15123345,0.006
20240115 08:24:42,-0.740888,-1.279904,1.635063,0.206002,0.092228,0.012338,3.984745,-37.549496,34.083206,-165.17377,1.1865754,-1.6889879,-0.4289428,0.10350932,0.11535913,-0.1657341,0.006
20240115 08:24:42,-0.846449,-1.258353,1.09645,0.223047,0.097554,0.009142,3.87859,-37.555874,33.948593,-163.38925,0.7821398,-1.6095045,6.836653e-05,0.09746721,0.12485975,-0.1814125,0.006
20240115 08:24:42,-0.913575,-1.282817,0.715969,0.230505,0.09862,0.029384,3.915215,-37.559574,34.485085,-161.46005,0.51646465,-1.5684257,0.26429,0.10811232,0.12221931,-0.1992541,0.006
20240115 08:24:42,-0.935028,-1.331391,0.370399,0.223047,0.086901,0.059213,4.125729,-38.488781,34.681808,-160.75417,0.28394294,-1.5120894,0.464908,0.12573145,0.099006325,-0.21040748,0.006
20240115 08:24:42,-0.809245,-1.365183,0.007739,0.203871,0.047483,0.089043,4.207565,-38.20927,35.468201,-159.81517,0.102059826,-1.4005014,0.5306778,0.14650759,0.046399318,-0.2131462,0.006
20240115 08:24:42,-0.625941,-1.369455,-0.382876,0.1538,-0.000458,0.111415,4.072208,-37.349377,33.669106,-160.51436,-0.15431531,-1.254338,0.54123974,0.15621951,-0.014981845,-0.18238862,0.006
20240115 08:24:42,-0.422781,-1.369276,-0.656119,0.083487,-0.044137,0.1242,4.126766,-37.163044,34.193367,-161.69542,-0.3560828,-1.1702064,0.463579,0.15262064,-0.06789191,-0.12442543,0.006
20240115 08:24:42,-0.277652,-1.249423,-0.863716,0.013174,-0.069705,0.131657,3.942108,-37.274517,34.466751,-163.01991,-0.5617473,-1.0102048,0.41382653,0.14174628,-0.09925817,-0.060526717,0.006
20240115 08:24:42,-0.203583,-1.079543,-0.945971,-0.050747,-0.06864,0.144441,4.223957,-37.251675,34.334091,-164.09004,-0.698564,-0.85553944,0.3861803,0.13257977,-0.10241113,-0.0013959408,0.006
20240115 08:24:42,-0.037588,-1.032248,-0.964362,-0.107211,-0.039876,0.161487,4.145847,-37.548664,35.02256,-166.7449,-0.7366686,-0.85427505,0.25855374,0.12337799,-0.072694555,0.048845943,0.006
20240115 08:24:42,0.111302,-1.002195,-0.801075,-0.155151,0.000608,0.162552,3.896519,-37.365833,33.936371,-170.59242,-0.6159695,-0.91706496,0.10900684,0.09905962,-0.020199008,0.09119916,0.006
20240115 08:24:42,0.201712,-1.037394,-0.53243,-0.197765,0.026176,0.143376,3.81802,-37.470936,34.34436,-171.76611,-0.33930418,-0.98804724,-0.045856044,0.05677548,0.009390076,0.1318848,0.006
20240115 08:24:42,0.194394,-1.020657,-0.153261,-0.22866,0.040025,0.112481,3.508125,-37.203167,33.653946,-172.27087,0.015311211,-0.99977565,-0.17115207,0.0051361993,0.02414396,0.16472729,0.006
20240115 08:24:42,0.066167,-0.938307,0.193842,-0.237183,0.037895,0.082651,3.526054,-37.013126,33.641716,-170.58826,0.30472207,-0.94901985,-0.21039572,-0.034242228,0.015907811,0.1802544,0.006
20240115 08:24:42,-0.152413,-0.82715,0.44658,-0.229726,0.035764,0.062409,3.350365,-37.029583,33.908989,-169.4089,0.43916056,-0.8902766,-0.1331838,-0.05464705,0.010154442,0.17964698,0.006
20240115 08:24:42,-0.295062,-0.692692,0.685522,-0.209484,0.021915,0.054952,3.480846,-37.296337,33.391815,-168.64532,0.56450266,-0.8115166,-0.11823854,-0.053737335,-0.003938874,0.16182826,0.006
20240115 08:24:42,-0.37769,-0.518675,0.748851,-0.183916,-0.000458,0.057083,3.236008,-37.514767,34.341431,-168.69281,0.5634211,-0.6606956,-0.048677444,-0.03455607,-0.024702743,0.13759033,0.006
20240115 08:24:42,-0.382257,-0.381679,0.636907,-0.18072,-0.00685,0.061344,3.304119,-38.638546,34.147522,-169.02708,0.45022398,-0.50234467,0.031789005,-0.02523429,-0.029827513,0.13446718,0.006
20240115 08:24:42,-0.272401,-0.295164,0.551499,-0.189242,0.005934,0.060279,3.578423,-37.576862,33.813011,-168.75279,0.41017336,-0.39338356,-0.021842748,-0.031708263,-0.017119955,0.14378968,0.006
20240115 08:24:42,-0.346067,-0.17004,0.594262,-0.214811,0.021915,0.054952,3.232285,-37.497288,32.86657,-168.63132,0.39160204,-0.2910624,0.02933219,-0.05267177,-0.0048310375,0.16904071,0.006
20240115 08:24:42,-0.466474,-0.182937,0.792583,-0.22866,0.033633,0.057083,3.144825,-37.697407,33.280678,-168.202,0.49492842,-0.35986492,0.025388122,-0.06488813,0.00182423,0.17813495,0.006
20240115 08:24:42,-0.57929,-0.157105,1.058811,-0.231856,0.024045,0.058148,3.065559,-37.41872,33.127731,-168.10551,0.6386241,-0.39907333,-0.029265285,-0.07024054,-0.010158477,0.17525594,0.006
20240115 08:24:42,-0.6709,-0.234133,1.28854,-0.218007,-0.010046,0.053887,2.96875,-37.521969,33.267479,-168.0321,0.7665955,-0.5344826,-0.110687554,-0.06700353,-0.0434999,0.15738826,0.006
20240115 08:24:42,-0.782528,-0.352174,1.46893,-0.186046,-0.078228,0.04856,2.913807,-37.516422,32.462738,-167.70613,0.8564421,-0.7135525,-0.14804697,-0.044933032,-0.107636176,0.12277825,0.006
20240115 08:24:42,-0.841245,-0.39953,1.465373,-0.13704,-0.155999,0.043233,3.108967,-38.07748,33.30513,-167.3136,0.83599263,-0.7734394,-0.09684026,-0.0073592924,-0.17685983,0.07521982,0.006
20240115 08:24:42,-0.770817,-0.487092,1.248851,-0.07525,-0.214593,0.036841,3.416943,-37.385799,32.593193,-167.06151,0.74441314,-0.7987275,-0.01636666,0.033029534,-0.22478184,0.021692583,0.006
20240115 08:24:42,-0.673199,-0.514738,0.849727,-0.004937,-0.233769,0.028318,3.450996,-37.947697,32.496239,-167.20782,0.51138544,-0.7295346,0.14939365,0.06586105,-0.2342348,-0.033061363,0.006
20240115 08:24:42,-0.49899,-0.478183,0.276398,0.055788,-0.210331,0.015534,3.49736,-38.240154,33.587563,-167.48982,0.11970349,-0.5600834,0.29379234,0.075118765,-0.20428249,-0.07626082,0.006
20240115 08:24:42,-0.372608,-0.498778,-0.232802,0.09414,-0.142149,-0.004708,2.933659,-38.285824,33.852875,-168.2875,-0.26645985,-0.4760042,0.39272797,0.056665163,-0.1319145,-0.09625085,0.006
20240115 08:24:42,-0.26089,-0.477559,-0.555744,0.114382,-0.070771,-0.030276,3.004345,-38.851414,34.292412,-168.51826,-0.5236955,-0.39330572,0.40559137,0.025415797,-0.057080913,-0.10104273,0.006
20240115 08:24:42,-0.237576,-0.485621,-0.658625,0.118643,-0.021765,-0.063302,3.321285,-38.064724,33.574356,-167.00603,-0.595011,-0.36767587,0.41194177,-0.011443086,-0.0006914539,-0.09057659,0.006
20240115 08:24:42,-0.343359,-0.500558,-0.680004,0.105859,-0.005785,-0.096327,3.214355,-37.687328,32.878799,-165.47705,-0.6268557,-0.3627857,0.5122575,-0.04776611,0.025226396,-0.06567085,0.006
20240115 08:24:42,-0.428865,-0.471832,-0.628327,0.09414,-0.014307,-0.122961,3.462532,-37.294483,33.123573,-164.45464,-0.60962707,-0.34631172,0.5752279,-0.0723105,0.024527375,-0.045239337,0.006
20240115 08:24:42,-0.591362,-0.409305,-0.520167,0.098402,-0.03668,-0.138941,3.074139,-37.131817,32.841141,-163.10371,-0.5660986,-0.31142026,0.68949485,-0.07661206,0.014488487,-0.046216045,0.006
20240115 08:24:42,-0.712803,-0.225133,-0.598418,0.112251,-0.061183,-0.128288,3.338444,-37.49091,33.001183,-161.12263,-0.707379,-0.10866931,0.8399341,-0.055408657,-0.004920397,-0.069889784,0.006
20240115 08:24:42,-0.647168,-0.085167,-0.82789,0.126101,-0.060117,-0.112308,3.453568,-37.3895,33.129684,-160.46857,-0.91910267,0.11306667,0.85360914,-0.040870078,-0.007521685,-0.092054576,0.006
20240115 08:24:42,-0.558903,0.018195,-1.108502,0.118643,-0.040941,-0.094197,3.241634,-37.594151,33.140938,-160.27126,-1.1663328,0.3206577,0.8380117,-0.037448633,0.0034183692,-0.09199612,0.006
20240115 08:24:42,-0.459945,0.174268,-1.322383,0.093075,-0.015373,-0.070759,3.277493,-37.214077,33.116486,-160.56511,-1.3830836,0.53701454,0.79157317,-0.034906212,0.015510762,-0.073253885,0.006
20240115 08:24:42,-0.364741,0.288139,-1.421674,0.040873,0.008065,-0.050517,3.268528,-37.309093,33.122597,-161.45226,-1.4875892,0.66175556,0.72116315,-0.038440645,0.025608255,-0.026590124,0.006
20240115 08:24:42,-0.277667,0.31773,-1.384603,-0.021983,0.028307,-0.034537,3.33025,-37.969707,33.568245,-163.12473,-1.4417675,0.645772,0.64433473,-0.045259234,0.034657076,0.0321598,0.006
20240115 08:24:42,-0.260963,0.282692,-1.17891,-0.090165,0.037895,-0.021753,3.391582,-38.438419,33.733421,-163.78015,-1.2350314,0.547402,0.60496783,-0.056010194,0.035093956,0.09543148,0.006
20240115 08:24:42,-0.331095,0.259836,-0.848446,-0.145563,0.034699,-0.012165,3.540379,-38.70702,33.484489,-163.69124,-0.94656837,0.4357515,0.60402036,-0.06762898,0.023719521,0.1445276,0.006
20240115 08:24:42,-0.450185,0.183825,-0.499325,-0.177524,0.028307,0.001685,3.478661,-38.046413,33.038841,-164.41472,-0.6576297,0.255481,0.6126509,-0.07008617,0.010142081,0.16746925,0.006
20240115 08:24:42,-0.472487,0.068328,-0.151072,-0.181785,0.018718,0.008077,3.435253,-37.387653,32.861435,-165.4152,-0.33787346,0.05426611,0.49847057,-0.069400616,-0.0011628869,0.16549486,0.006
20240115 08:24:42,-0.482745,-0.063731,0.064847,-0.161543,-0.031353,0.026188,3.629257,-37.373043,32.862411,-165.71132,-0.13048312,-0.12249987,0.40602234,-0.03757779,-0.05169259,0.13302422,0.006
20240115 08:24:42,-0.498304,-0.106023,0.150579,-0.123191,-0.067575,0.040037,3.381084,-37.765881,32.617645,-166.13005,-0.054977596,-0.18358664,0.3794905,-0.002406504,-0.086211994,0.08848626,0.006
20240115 08:24:42,-0.462783,-0.12965,0.161071,-0.10508,-0.083555,0.04856,3.002422,-37.891972,32.890053,-167.56026,-0.02449347,-0.19753437,0.34390903,0.015375255,-0.1000524,0.068376504,0.006
20240115 08:24:42,-0.304443,-0.174888,0.041865,-0.032636,-0.122973,0.076259,3.020351,-37.701939,32.877823,-169.09659,-0.05585501,-0.19923711,0.25000873,0.07508158,-0.13520049,-0.0089872535,0.006
20240115 08:24:42,-0.095896,-0.14048,-0.238083,0.007847,-0.135757,0.083716,3.089497,-37.499973,32.195473,-171.09576,-0.2402032,-0.11816578,0.16739896,0.094753385,-0.14346771,-0.045279372,0.006
20240115 08:24:42,0.132741,-0.074198,-0.509098,0.035546,-0.140018,0.082651,2.914577,-37.900196,33.023689,-174.24695,-0.43198434,-0.050575547,0.041432723,0.095625654,-0.14284396,-0.065636456,0.006
20240115 08:24:42,0.394531,0.014953,-0.851386,0.044069,-0.127234,0.070932,3.020737,-37.893818,33.158302,-177.13371,-0.6919674,-0.009224735,-0.119273454,0.077751815,-0.12578043,-0.06531522,0.006
20240115 08:24:42,0.59325,0.077611,-1.094539,0.025958,-0.1006,0.049625,2.949017,-38.65398,33.207207,179.28247,-0.8663722,-0.050156742,-0.25676212,0.044627953,-0.09585144,-0.03867211,0.006
20240115 08:24:42,0.785027,0.23425,-1.221727,0.00039,-0.077163,0.019795,2.97591,-38.368916,33.188866,177.05945,-0.9136493,0.017179564,-0.42728183,0.0074737538,-0.07331693,-0.0046704183,0.006
20240115 08:24:42,0.764812,0.370216,-1.269823,-0.039028,-0.055856,-0.0111,3.459194,-37.468899,31.929184,-179.20764,-0.97975487,0.23991983,-0.3931412,-0.026007239,-0.0556444,0.040367294,0.006
20240115 08:24:42,0.51642,0.524516,-1.168915,-0.09123,-0.040941,-0.036668,3.222939,-37.40041,32.592216,-175.64098,-0.9776716,0.5229132,-0.15943727,-0.060725,-0.04095329,0.09694121,0.006
20240115 08:24:42,0.206419,0.723461,-0.941368,-0.142367,-0.029222,-0.037733,3.141487,-37.871807,32.086296,-170.75018,-0.9062723,0.82783455,0.12182242,-0.07590857,-0.029876709,0.14551526,0.006
20240115 08:24:42,-0.117162,0.856836,-0.541769,-0.160478,-0.026026,-0.030276,2.956062,-37.599514,31.798729,-168.84322,-0.6771568,0.92342985,0.3479578,-0.07868339,-0.030064443,0.15926966,0.006
20240115 08:24:42,-0.293481,0.835528,-0.141079,-0.187112,-0.030288,-0.0111,3.010235,-37.221287,32.042526,-167.98708,-0.38639486,0.82406217,0.38924325,-0.07512242,-0.041195642,0.1750832,0.006
20240115 08:24:42,-0.446088,0.778582,0.176691,-0.188177,-0.080359,0.021926,2.946712,-37.502651,31.524376,-167.59485,-0.16929613,0.6909528,0.40605333,-0.041039824,-0.09849073,0.15659258,0.006
20240115 08:24:42,-0.546575,0.664358,0.39316,-0.178589,-0.133626,0.033645,3.053257,-37.68816,31.939461,-167.46184,-0.010447711,0.5256157,0.39341915,-0.020448925,-0.15299973,0.13551012,0.006
20240115 08:24:42,-0.640232,0.540384,0.519226,-0.157282,-0.181567,0.035776,3.194889,-37.109806,31.769142,-166.60364,0.06714338,0.35709637,0.41182333,0.00021819398,-0.19963683,0.1083156,0.006
20240115 08:24:42,-0.673552,0.434815,0.549187,-0.112537,-0.218854,0.041102,2.973991,-37.409473,31.786507,-166.84358,0.09022203,0.24089259,0.41017723,0.031076401,-0.23295811,0.060977846,0.006
20240115 08:24:42,-0.777678,0.315751,0.516166,-0.053943,-0.227377,0.044299,2.752708,-37.517262,31.523399,-166.2667,0.03096214,0.10219202,0.50737715,0.065744065,-0.23607688,0.005246138,0.006
20240115 08:24:42,-0.812996,0.232549,0.455825,0.023827,-0.224181,0.056017,2.849903,-37.605892,31.664124,-166.6615,-0.0081136525,0.043255076,0.55998,0.107380256,-0.22723292,-0.06796082,0.006
20240115 08:24:42,-0.698409,0.084037,0.290789,0.10799,-0.213527,0.056017,2.699303,-38.279263,31.840546,-167.58725,-0.05921039,-0.04205543,0.51750475,0.13820003,-0.20923533,-0.14064868,0.006
20240115 08:24:42,-0.595304,-0.038548,0.10962,0.182564,-0.210331,0.046429,2.50787,-37.735683,32.473015,-168.00595,-0.1411365,-0.111163706,0.4943962,0.1574783,-0.19847502,-0.20307802,0.006
20240115 08:24:42,-0.440981,-0.043924,-0.045622,0.236897,-0.212462,0.026188,3.230099,-38.247364,32.513596,-168.97456,-0.20769894,-0.065036625,0.41989732,0.14908755,-0.19811152,-0.24392919,0.006
20240115 08:24:42,-0.275946,0.154238,-0.214653,0.278445,-0.23803,0.004881,3.053638,-37.880047,32.219925,-170.14275,-0.3176973,0.16667052,0.34317654,0.13562621,-0.22249468,-0.27613363,0.006
20240115 08:24:42,-0.129795,0.381697,-0.459058,0.289099,-0.285971,-0.007904,3.088734,-37.116192,31.634537,-172.09499,-0.5055518,0.41383883,0.28938806,0.11083158,-0.276112,-0.2833757,0.006
20240115 08:24:42,0.134687,0.580145,-0.739126,0.246485,-0.345631,-0.023884,3.079384,-37.019321,31.360168,-175.17578,-0.6739196,0.5887106,0.10052712,0.052955247,-0.3445142,-0.23727779,0.006
20240115 08:24:42,0.319303,0.816069,-1.00404,0.175107,-0.369068,-0.049452,2.798687,-37.617825,32.334251,-178.39522,-0.84178025,0.76166254,-0.03467512,-0.019048724,-0.3733711,-0.15839235,0.006
20240115 08:24:42,0.402504,0.99829,-1.076558,0.13995,-0.362676,-0.05904,3.319363,-37.105282,32.171997,-178.72685,-0.8557341,0.91018283,-0.09516263,-0.045497578,-0.3686887,-0.121302865,0.006
20240115 08:24:42,0.465286,1.204026,-1.00387,0.04833,-0.262533,-0.079282,3.168381,-37.58675,32.067955,-178.7389,-0.74199647,1.1244894,-0.14511245,-0.07913825,-0.26817617,-0.024834173,0.006
20240115 08:24:42,0.435399,1.340178,-0.437397,0.017435,-0.151737,-0.08887,3.379929,-37.19022,31.77623,-177.21812,-0.21228178,1.3160393,-0.24019688,-0.08356025,-0.15529433,0.0110947415,0.006
20240115 08:24:42,0.356625,1.147502,0.220066,0.01637,-0.061183,-0.108046,3.194504,-36.917919,31.48867,-176.35532,0.3575497,1.1481999,-0.38554537,-0.09338918,-0.062576756,0.026263598,0.006
20240115 08:24:42,0.218703,0.926702,0.899973,0.024893,-0.016438,-0.142137,3.054676,-36.554302,31.731483,-174.95793,0.8783642,0.90653235,-0.56265014,-0.11519032,-0.01255078,0.040958386,0.006
20240115 08:24:42,-0.010003,0.758636,1.47668,0.037677,-0.010046,-0.158118,3.308861,-36.432743,31.056229,-172.4785,1.2209557,0.6481488,-0.6627564,-0.11790292,0.0030408064,0.043682463,0.006
20240115 08:24:42,-0.312084,0.510831,1.863884,0.100532,-0.021765,-0.182621,3.116013,-37.023022,31.896667,-171.27422,1.3672992,0.28914136,-0.645695,-0.10078506,0.0042229937,0.0056126863,0.006
20240115 08:24:43,-0.467667,0.252202,1.953518,0.152734,-0.020699,-0.175163,3.434486,-37.00388,32.300499,-170.1971,1.356532,-0.02188553,-0.607075,-0.062826924,0.012283505,-0.039154373,0.006
20240115 08:24:43,-0.533558,0.170274,2.003538,0.211328,-0.015373,-0.157052,3.221401,-36.632862,31.470329,-170.45123,1.353872,-0.11305606,-0.6109605,-0.013732456,0.020018324,-0.09455759,0.006
20240115 08:24:43,-0.489336,-0.092704,2.091863,0.269923,-0.019634,-0.135745,3.17696,-37.299847,31.781364,-170.9269,1.4778643,-0.36268485,-0.7285716,0.03728479,0.015598434,-0.15429492,0.006
20240115 08:24:43,-0.366844,-0.136262,2.064857,0.322125,-0.034549,-0.117634,3.531681,-37.092518,32.441216,-171.51794,1.5428852,-0.34294176,-0.80386275,0.07844212,-0.00511878,-0.21119133,0.006
20240115 08:24:43,-0.156014,-0.162387,1.860597,0.356216,-0.053725,-0.108046,3.16761,-37.202984,31.507011,-173.2313,1.5181668,-0.28371078,-0.83113045,0.09517382,-0.033460412,-0.25279,0.006
20240115 08:24:43,-0.039402,-0.183067,1.697656,0.372196,-0.053725,-0.10485,3.646805,-36.991116,32.569717,-173.42534,1.4526349,-0.26154822,-0.8266841,0.09965311,-0.038910575,-0.2720412,0.006
20240115 08:24:43,0.224359,-0.152883,1.285155,0.387111,-0.018569,-0.124026,3.180302,-37.125439,32.975754,-175.13054,1.2421453,-0.17722724,-0.8073698,0.07342552,-0.0116399145,-0.28395867,0.006
20240115 08:24:43,0.302278,-0.111295,1.083369,0.374327,0.021915,-0.138941,3.471497,-37.199467,33.117462,-175.04767,1.1022413,-0.1250972,-0.770293,0.048984416,0.026885403,-0.26747322,0.006
20240115 08:24:43,0.29226,-0.186172,1.036433,0.365804,0.05281,-0.147464,3.180302,-37.125439,32.975754,-174.35777,1.0622917,-0.21901035,-0.73688054,0.032788903,0.0651746,-0.25698584,0.006
20240115 08:24:43,0.209659,-0.132401,1.032946,0.344497,0.097554,-0.159183,3.82288,-37.166553,32.582916,-171.61421,1.0233467,-0.20522964,-0.65666723,0.0061136186,0.12353726,-0.23004803,0.006
20240115 08:24:43,-0.156716,-0.303963,0.994457,0.278445,0.157214,-0.152791,3.339481,-36.165157,32.512741,-169.67958,0.83809996,-0.4430978,-0.3411528,-0.025202565,0.19502133,-0.16362266,0.006
20240115 08:24:43,-0.261386,-0.346521,1.078318,0.260334,0.157214,-0.137876,3.003071,-36.37434,32.12114,-169.10646,0.8606057,-0.5295919,-0.30838588,-0.018911943,0.19794925,-0.14962092,0.006
20240115 08:24:43,-0.711565,-0.653106,1.39935,0.168715,0.093293,-0.081413,3.630676,-36.239201,32.654449,-165.65723,0.92726904,-1.0172893,-0.17933977,0.00052908063,0.12900463,-0.091285035,0.006
20240115 08:24:43,-0.803289,-0.755561,1.506174,0.147408,0.05494,-0.052648,3.233704,-36.363438,32.658607,-165.90546,0.9729856,-1.1617956,-0.18944699,0.023048706,0.08419499,-0.09092876,0.006
20240115 08:24:43,-0.904078,-0.901769,1.687473,0.111186,-0.033484,0.011273,3.514786,-35.956806,31.965012,-165.92836,1.0818198,-1.3404784,-0.23269647,0.07576772,-0.020234523,-0.10406667,0.006
20240115 08:24:43,-0.805962,-1.054003,1.578109,0.090944,-0.105927,0.077324,3.305809,-35.79517,32.890167,-167.31693,1.0704504,-1.4073555,-0.25624442,0.1314884,-0.107176706,-0.12944807,0.006
20240115 08:24:43,-0.162289,-1.3757,1.3879,0.082421,-0.163456,0.134853,3.163788,-36.181622,32.780014,-173.0832,1.1833197,-1.4682386,-0.6698701,0.16831893,-0.16844508,-0.15062037,0.006
20240115 08:24:43,0.084677,-1.49774,1.284394,0.080291,-0.196482,0.12633,3.207195,-36.840382,32.95742,-176.62737,1.1314931,-1.4838372,-0.7710641,0.14740953,-0.19558588,-0.13923383,0.006
20240115 08:24:43,0.491031,-1.712634,0.998756,0.080291,-0.201809,0.109285,3.164558,-36.565403,33.340958,-178.31308,1.0305501,-1.6775857,-0.9520314,0.12546858,-0.19866146,-0.12733984,0.006
20240115 08:24:43,0.753326,-1.850114,0.797,0.065376,-0.185828,0.060279,3.233322,-36.171543,32.378128,-179.90993,0.90569735,-1.8102379,-1.0502739,0.06877621,-0.1829987,-0.08677194,0.006
20240115 08:24:43,0.817139,-1.826553,0.740899,0.083487,-0.152803,0.011273,2.933926,-36.576313,32.80349,179.82066,0.89685166,-1.7961364,-1.0738249,0.0386332,-0.15507844,-0.07789712,0.006
20240115 08:24:43,0.769452,-1.803545,0.746613,0.105859,-0.109123,-0.029211,3.314774,-35.700146,32.884056,-178.5936,0.9235742,-1.7817088,-1.058925,0.020452669,-0.11400171,-0.07910055,0.006
20240115 08:24:43,0.602648,-1.752535,0.735562,0.138885,-0.059052,-0.062236,2.950703,-35.810604,31.949852,-176.59315,0.91891646,-1.7493522,-0.9249333,0.0095515065,-0.060066942,-0.095308356,0.006
20240115 08:24:43,0.402885,-1.530423,0.560185,0.136754,-0.042006,-0.060106,3.005264,-35.624264,32.474113,-176.39755,0.67504644,-1.5287948,-0.6562542,0.008269787,-0.04259326,-0.09586762,0.006
20240115 08:24:43,0.391494,-1.425848,0.47551,0.131427,-0.043072,-0.05691,3.129349,-35.427845,32.596497,-175.96849,0.6002114,-1.4260837,-0.6038035,0.0065214895,-0.04297116,-0.0945517,0.006
20240115 08:24:43,0.397378,-1.3782,0.418222,0.109055,-0.05266,-0.044125,3.014229,-35.52924,32.467995,-176.33046,0.5428214,-1.3772174,-0.57648695,0.006967783,-0.053066593,-0.08087659,0.006
20240115 08:24:43,0.475123,-1.253677,0.335386,0.074964,-0.047333,-0.039864,3.084526,-35.902943,32.627068,-177.04451,0.4763547,-1.2508137,-0.5987606,-0.005832255,-0.048924856,-0.052435268,0.006
20240115 08:24:43,0.514206,-1.04008,0.31947,0.055788,-0.026026,-0.033472,3.339863,-36.357052,32.793213,-177.51495,0.46145645,-1.0357138,-0.6182356,-0.008694587,-0.028261956,-0.03768404,0.006
20240115 08:24:43,0.566382,-0.837942,0.284693,0.041938,0.007,-0.031341,3.384304,-35.69006,32.482178,-177.13394,0.4602782,-0.8361944,-0.6497043,-0.011620102,0.005353654,-0.02570456,0.006
20240115 08:24:43,0.541154,-0.78,0.302687,0.012108,0.044287,-0.024949,3.032921,-35.72298,33.016716,-177.0286,0.47868645,-0.7785076,-0.63315743,-0.01711693,0.0436755,-0.00018365495,0.006
20240115 08:24:43,0.491087,-0.637558,0.361191,-0.000676,0.050679,-0.024949,3.385841,-36.457615,33.604065,-176.6515,0.5158888,-0.6345606,-0.6097823,-0.022102345,0.05018226,0.0118518965,0.006
20240115 08:24:43,0.443448,-0.578262,0.371798,-0.040094,0.048548,-0.021753,3.022926,-37.143742,33.511276,-174.69838,0.5371239,-0.58371663,-0.57609105,-0.037580382,0.048655055,0.04721264,0.006
20240115 08:24:43,0.276097,-0.541485,0.392588,-0.09123,0.047483,-0.008969,3.119347,-36.848606,33.091057,-173.45636,0.50063086,-0.55570495,-0.43537295,-0.047806658,0.04561876,0.08921543,0.006
20240115 08:24:43,0.067001,-0.491138,0.528111,-0.139171,0.048548,0.015534,2.960819,-36.291256,32.785149,-171.61623,0.5533251,-0.5379312,-0.3115129,-0.04961732,0.040198617,0.12266464,0.006
20240115 08:24:43,-0.115594,-0.480187,0.754826,-0.172197,0.037895,0.056017,2.960819,-36.291256,32.785149,-170.40703,0.67186874,-0.57883507,-0.2753991,-0.034544982,0.019074209,0.13057168,0.006
20240115 08:24:43,-0.235021,-0.585344,0.963461,-0.194569,0.015522,0.096501,2.818417,-36.485813,32.394516,-170.73581,0.80428916,-0.7149665,-0.28378487,-0.009056374,-0.0095345685,0.12814711,0.006
20240115 08:24:43,-0.178063,-0.797895,1.266497,-0.192438,-0.057987,0.128461,2.853893,-35.913853,32.089592,-172.42029,1.0710502,-0.91206014,-0.5263195,0.019446231,-0.07836894,0.09913146,0.006
20240115 08:24:43,-0.096337,-0.875079,1.301295,-0.178589,-0.085686,0.128461,2.872593,-36.107594,32.638313,-173.03632,1.1400768,-0.97119653,-0.6132257,0.02821581,-0.1022878,0.08608271,0.006
20240115 08:24:43,0.082378,-0.900753,1.214761,-0.145563,-0.132561,0.115677,2.757469,-36.208988,32.509811,-175.46422,1.1290091,-0.9280332,-0.68143237,0.035758175,-0.13709462,0.06835592,0.006
20240115 08:24:43,0.23664,-0.927496,0.933156,-0.109341,-0.147476,0.091174,2.827,-36.19891,32.107933,-176.07648,0.94366825,-0.9335592,-0.6700367,0.031319335,-0.148587,0.050153136,0.006
20240115 08:24:43,0.404668,-0.900517,0.632137,-0.065662,-0.131496,0.061344,2.73019,-36.302166,32.247688,-177.49174,0.72401094,-0.890572,-0.6498232,0.02505632,-0.12945338,0.031275295,0.006
20240115 08:24:43,0.427785,-0.822183,0.335309,-0.04542,-0.080359,0.025122,2.94289,-36.481289,32.797371,-177.12173,0.46684128,-0.8193568,-0.54518664,0.0025292467,-0.07947857,0.029273547,0.006
20240115 08:24:43,0.365256,-0.732737,0.239801,-0.014525,-0.011111,-0.008969,3.003841,-36.758121,32.682083,-176.04518,0.36934334,-0.7329337,-0.45144862,-0.014065485,-0.01110471,0.016595976,0.006
20240115 08:24:43,0.249344,-0.636939,0.215797,-0.008133,0.004869,-0.015361,2.571396,-37.454319,32.991165,-174.12889,0.3343162,-0.64175403,-0.34111845,-0.017589241,0.0055354126,0.01381324,0.006
20240115 08:24:43,0.088183,-0.589612,0.221908,-0.000676,0.018718,-0.022818,2.898064,-36.956387,32.827942,-172.86351,0.28233328,-0.60137135,-0.19976911,-0.022465304,0.020351483,0.010758587,0.006
20240115 08:24:43,-0.014752,-0.478176,0.262253,0.008912,-0.000458,-0.016426,2.482399,-36.88689,32.283386,-173.26834,0.27146262,-0.497187,-0.11053004,-0.011527939,0.0011021907,-0.0018231319,0.006
20240115 08:24:43,0.017453,-0.448666,0.143103,0.015304,-0.037745,-0.015361,2.878601,-36.378872,31.718285,-173.0535,0.16950333,-0.45675132,-0.090077415,-0.005845709,-0.03616409,-0.010156379,0.006
20240115 08:24:43,0.105644,-0.321406,-0.18338,0.01637,-0.066509,-0.014296,3.029968,-36.089283,32.102798,-173.2165,-0.11707014,-0.30777317,-0.050048172,-0.003916405,-0.065192364,-0.013219054,0.006
20240115 08:24:43,0.180929,-0.206228,-0.476166,-0.001741,-0.066509,-0.015361,2.712261,-36.492199,32.259911,-175.2462,-0.3904422,-0.19382824,-0.028221816,-0.013595818,-0.06614939,0.0047277287,0.006
20240115 08:24:43,0.277681,-0.145589,-0.638561,-0.031571,-0.059052,-0.022818,3.03035,-36.28117,32.38327,-175.4812,-0.5225783,-0.13963339,-0.074311286,-0.030858766,-0.05894555,0.035579827,0.006
20240115 08:24:43,0.341815,-0.091144,-0.724503,-0.056074,-0.053725,-0.033472,3.029202,-35.705502,31.541862,-176.28424,-0.59274846,-0.10085203,-0.11551516,-0.04912576,-0.053910743,0.062397934,0.006
20240115 08:24:43,0.347137,-0.050227,-0.814908,-0.086969,-0.043072,-0.039864,2.862476,-35.626942,31.803009,-176.11221,-0.680975,-0.052888576,-0.09991805,-0.063292354,-0.043111406,0.09388976,0.006
20240115 08:24:43,0.269743,0.056363,-0.855457,-0.122126,-0.033484,-0.039864,2.72942,-35.918385,31.686737,-174.57452,-0.7472228,0.08761546,-0.019230261,-0.071293294,-0.03331991,0.12746574,0.006
20240115 08:24:43,0.221233,0.056317,-0.910944,-0.161543,-0.005785,-0.029211,3.25983,-35.694599,32.079323,-173.38681,-0.8127402,0.098904416,0.045547873,-0.0734231,-0.006583249,0.16296609,0.006
20240115 08:24:43,0.213636,0.16284,-0.761782,-0.187112,0.02298,-0.014296,2.835583,-35.911999,31.82135,-174.28008,-0.66791946,0.19439144,0.029069468,-0.07076784,0.021253342,0.18341747,0.006
20240115 08:24:43,0.224735,0.097855,-0.572202,-0.209484,0.035764,-0.003642,2.720455,-36.013401,31.692856,-175.07758,-0.47010636,0.11457343,-0.024034172,-0.0726042,0.033983134,0.20023964,0.006
20240115 08:24:43,0.283062,0.050379,-0.305643,-0.213745,0.020849,-0.003642,2.73877,-36.015247,31.961105,-175.61174,-0.18854976,0.05664131,-0.15775263,-0.07823001,0.019689322,0.20216413,0.006
20240115 08:24:43,0.288088,0.065319,-0.241003,-0.21268,-0.015373,-0.01323,3.099113,-35.887318,31.420448,-175.01244,-0.12887889,0.07094643,-0.18657432,-0.08496951,-0.016417122,0.20388937,0.006
20240115 08:24:43,0.278344,0.068254,-0.326985,-0.221203,-0.048398,-0.024949,2.815845,-37.04401,31.761078,-176.06084,-0.21415985,0.069554165,-0.15043579,-0.09794277,-0.048563607,0.21551608,0.006
20240115 08:24:43,0.325891,0.083674,-0.399547,-0.238248,-0.073967,-0.035603,2.375469,-36.509487,31.587837,-176.93076,-0.26841062,0.081715755,-0.17350799,-0.112942025,-0.07378255,0.23522799,0.006
20240115 08:24:43,0.385665,0.092667,-0.480779,-0.251033,-0.062248,-0.048387,2.842743,-36.758953,31.742737,-177.17325,-0.32369226,0.07873558,-0.20334636,-0.13018899,-0.061333627,0.2518541,0.006
20240115 08:24:43,0.416081,0.07819,-0.519767,-0.253163,-0.021765,-0.060106,3.114857,-36.447353,31.055252,-176.31554,-0.3492279,0.069237925,-0.21656932,-0.14173648,-0.021361807,0.25815916,0.006
20240115 08:24:43,0.317768,-0.031838,-0.43877,-0.244641,0.044287,-0.073955,2.833393,-36.662083,31.468376,-175.4519,-0.29457363,-0.022722617,-0.14013723,-0.15768805,0.043950234,0.25604916,0.006
20240115 08:24:43,0.216294,-0.099003,-0.172273,-0.206288,0.099685,-0.086739,2.840553,-37.509022,31.389763,-173.56403,-0.06780946,-0.08290477,-0.13658246,-0.16625054,0.09942441,0.22793195,0.006
20240115 08:24:43,0.032229,-0.174678,0.135873,-0.153021,0.131645,-0.094197,2.867836,-37.415852,31.651901,-171.68228,0.15406965,-0.1859712,-0.09573586,-0.16224213,0.13328761,0.18584386,0.006
20240115 08:24:43,-0.140354,-0.192473,0.328851,-0.098688,0.120992,-0.099523,2.665249,-37.717373,31.937508,-171.21664,0.25802636,-0.23797697,-0.02411469,-0.14576419,0.1262656,0.139077,0.006
20240115 08:24:43,-0.224686,-0.236093,0.213018,-0.047551,0.08477,-0.098458,2.795731,-37.984119,31.420326,-169.61037,0.13445403,-0.2803803,0.10078997,-0.120874204,0.0952247,0.08954492,0.006
20240115 08:24:43,-0.276833,-0.164319,0.04435,-0.014525,0.049614,-0.093131,3.060684,-36.825588,30.811462,-168.69815,-0.03965769,-0.18722369,0.22663778,-0.09819271,0.06273889,0.05216729,0.006
20240115 08:24:43,-0.212225,-0.098204,-0.343095,0.021696,0.033633,-0.081413,2.459976,-36.675671,30.259811,-169.82304,-0.3766347,-0.05742792,0.31017315,-0.07287985,0.04656305,0.009509727,0.006
20240115 08:24:43,-0.025288,-0.050071,-0.710803,0.043003,0.03896,-0.07289,2.850555,-36.088268,30.895203,-170.75325,-0.6736557,0.029835839,0.23735335,-0.06004967,0.048509493,-0.016868003,0.006
20240115 08:24:43,0.196484,-0.000915,-1.089743,0.043003,0.063463,-0.081413,2.981037,-36.355015,30.378036,-172.52425,-0.9941633,0.07576842,0.101271704,-0.07091151,0.06956787,-0.017492622,0.006
20240115 08:24:43,0.386096,0.080759,-1.415359,0.027023,0.109273,-0.097393,2.920467,-36.270077,30.773804,-175.9185,-1.2867643,0.07203465,-0.04688075,-0.087838195,0.10867028,-0.0019572042,0.006
20240115 08:24:43,0.47643,0.197546,-1.628271,-0.016656,0.168933,-0.127223,3.026245,-36.071804,30.627937,-175.2851,-1.4857228,0.20236334,-0.10753089,-0.12826146,0.16927493,0.046934128,0.006
20240115 08:24:43,0.328498,0.326133,-1.629054,-0.073119,0.212612,-0.146399,3.042755,-37.015629,30.823685,-169.8938,-1.5365599,0.5252942,0.06250024,-0.18335234,0.22628891,0.11290434,0.006
20240115 08:24:43,0.046372,0.438204,-1.34673,-0.133844,0.227527,-0.138941,3.087578,-36.540531,30.793121,-165.91914,-1.3471473,0.70588505,0.32693014,-0.21268465,0.24329273,0.1791435,0.006
20240115 08:24:43,-0.163514,0.538644,-0.97223,-0.175393,0.207285,-0.105916,2.963493,-36.736942,30.670731,-165.08638,-1.0741549,0.73518306,0.47229922,-0.19743279,0.21319218,0.2133216,0.006
20240115 08:24:43,-0.213327,0.536773,-0.701901,-0.194569,0.168933,-0.063302,2.761673,-37.422237,31.517288,-166.21936,-0.8320948,0.6593921,0.45672476,-0.15620455,0.1642497,0.21666785,0.006
20240115 08:24:43,-0.170706,0.521175,-0.572636,-0.200961,0.127384,-0.023884,2.840553,-37.509022,31.389763,-167.89401,-0.68074596,0.60407907,0.3746515,-0.108951434,0.11729876,0.20645103,0.006
20240115 08:24:43,0.003481,0.453721,-0.585527,-0.197765,0.112469,0.004881,2.910854,-37.882725,31.548828,-170.53038,-0.60560036,0.5203769,0.19858219,-0.070087336,0.10327696,0.19228894,0.006
20240115 08:24:43,0.191148,0.444132,-0.675911,-0.199896,0.125253,0.009142,2.822239,-37.507175,31.121521,-171.6235,-0.6244812,0.51365924,0.04323484,-0.06491615,0.11742218,0.193068,0.006
20240115 08:24:43,0.267843,0.489371,-0.651565,-0.199896,0.156148,0.011273,2.935829,-36.638218,30.128136,-172.68848,-0.56880635,0.5385893,-0.035866126,-0.061729603,0.15053618,0.19280401,0.006
20240115 08:24:43,0.313313,0.505064,-0.539882,-0.205223,0.187044,0.005946,2.847599,-36.454556,29.981293,-172.8239,-0.44200197,0.5484327,-0.101357535,-0.074105635,0.1812567,0.19973175,0.006
20240115 08:24:43,0.293652,0.490089,-0.330846,-0.207353,0.201958,-0.001511,2.971687,-36.258144,30.103683,-172.39426,-0.24608262,0.5217542,-0.1409136,-0.08794981,0.19565664,0.20443836,0.006
20240115 08:24:43,0.206608,0.494224,-0.153661,-0.200961,0.205154,-0.004708,2.90855,-36.731396,29.865997,-171.80063,-0.113736585,0.5134639,-0.11217586,-0.09605334,0.19734155,0.19963224,0.006
20240115 08:24:43,0.109493,0.458076,-0.000313,-0.194569,0.201958,-0.006838,2.504417,-36.008678,29.948776,-171.02551,-0.014838815,0.459583,-0.074067004,-0.104846194,0.19124329,0.19453298,0.006
20240115 08:24:43,-0.030872,0.370052,0.189477,-0.169001,0.189174,-0.002577,2.634899,-36.275433,29.431595,-169.67514,0.1032139,0.33455405,-0.019940142,-0.0985932,0.17587356,0.16941176,0.006
20240115 08:24:43,-0.193471,0.384277,0.380691,-0.130648,0.171063,0.010207,2.502995,-37.142536,30.156746,-168.37071,0.18660682,0.28894758,0.052623123,-0.07719046,0.154417,0.12895393,0.006
20240115 08:24:43,-0.400385,0.403728,0.508643,-0.083773,0.152952,0.037906,2.81097,-36.450855,29.444801,-167.2122,0.19435221,0.25270858,0.18680334,-0.03344123,0.13343126,0.074308366,0.006
20240115 08:24:43,-0.39689,0.361513,0.563281,-0.020917,0.13058,0.074128,2.617737,-36.849247,30.004768,-168.04482,0.25777826,0.21082342,0.15331767,0.031667892,0.11172844,-0.00068852864,0.006
20240115 08:24:43,-0.279227,0.362429,0.539831,0.033415,0.099685,0.097566,2.31834,-37.254025,30.43013,-169.83435,0.30729112,0.25040245,0.056962997,0.085351534,0.08508679,-0.063284814,0.006
20240115 08:24:43,-0.110252,0.529283,0.481402,0.084552,0.064528,0.119938,2.519775,-36.376835,29.303108,-170.85922,0.3249827,0.45660895,-0.05593647,0.13448757,0.053331148,-0.12084006,0.006
20240115 08:24:43,0.107345,0.776274,0.312498,0.142081,0.056006,0.142311,2.114605,-36.97987,29.874321,-174.31355,0.28094557,0.75774777,-0.18710157,0.18133992,0.050583273,-0.18266252,0.006
20240115 08:24:43,0.420653,0.943071,0.028493,0.193218,0.091162,0.152964,1.868233,-36.430744,29.702057,-177.9333,0.18275586,0.94136393,-0.39344767,0.2109457,0.0922286,-0.23269525,0.006
20240115 08:24:43,0.70184,1.070354,-0.283969,0.220917,0.187044,0.139114,2.002052,-36.523075,30.379265,179.28635,0.038509518,1.0262018,-0.57925534,0.21632022,0.1914768,-0.25443763,0.006
20240115 08:24:43,0.894608,1.109612,-0.320849,0.227309,0.324473,0.099697,1.753876,-36.915913,30.134499,178.97697,0.078495115,1.0568259,-0.74570715,0.19378859,0.32496512,-0.24935843,0.006
20240115 08:24:43,0.657728,1.124871,0.038393,0.210263,0.427812,0.050691,2.29287,-36.405224,30.240494,-175.89597,0.25275466,1.1291828,-0.5967372,0.1151237,0.42837107,-0.20299295,0.006
20240115 08:24:43,0.176775,1.079137,0.648072,0.188956,0.459773,0.020861,1.638752,-37.017315,30.006004,-172.8355,0.53724486,1.0074985,-0.37350935,0.046495933,0.46368903,-0.15622413,0.006
20240115 08:24:43,-0.316746,0.947265,1.29037,0.183629,0.426747,0.008077,1.525818,-36.368649,30.230476,-169.53984,0.78948736,0.65221137,-0.2320602,0.012646632,0.43370622,-0.12992017,0.006
20240115 08:24:43,-0.897057,0.801509,1.706099,0.196414,0.352172,0.030449,1.44809,-36.857517,31.199417,-166.77364,0.7701266,0.21607408,0.040402293,0.035823125,0.3579216,-0.14481719,0.006
20240115 08:24:43,-1.302145,0.595752,1.882561,0.225178,0.282925,0.086912,1.718784,-37.679768,30.719894,-164.91579,0.66482073,-0.19786304,0.24171531,0.10733851,0.28130537,-0.19738217,0.006
20240115 08:24:44,-1.530655,0.314845,1.932311,0.252877,0.20835,0.157225,1.287754,-37.24213,30.821014,-164.34555,0.6154718,-0.5862926,0.34984046,0.1955382,0.19502568,-0.26471764,0.006
20240115 08:24:44,-1.576863,-0.055027,1.81871,0.251812,0.136972,0.223277,1.877964,-36.719501,30.256882,-163.51256,0.59074736,-0.91545874,0.37596315,0.26934427,0.10885627,-0.3065667,0.006
20240115 08:24:44,-1.535778,-0.529054,1.732782,0.23157,0.075182,0.273348,1.183014,-36.114643,30.478424,-165.01645,0.66076934,-1.2877066,0.28129864,0.32011598,0.03600982,-0.32811612,0.006
20240115 08:24:44,-1.345836,-0.865302,1.805688,0.241158,0.026176,0.304243,1.059311,-36.502956,30.636513,-166.99016,0.8792057,-1.5047123,0.010249615,0.36895943,-0.009909645,-0.36296278,0.006
20240115 08:24:44,-1.146394,-1.187136,1.758105,0.289099,-0.005785,0.324485,0.898979,-36.887569,30.25811,-168.11734,1.0205503,-1.7298691,-0.16364443,0.42156768,-0.034972604,-0.4185836,0.006
20240115 08:24:44,-0.928517,-1.404739,1.579096,0.359412,-0.00685,0.340465,1.016674,-36.227978,31.02005,-169.68033,1.0515101,-1.7902198,-0.20884931,0.4751201,-0.02720638,-0.48471367,0.006
20240115 08:24:44,-0.499427,-1.514421,1.285717,0.439313,0.017653,0.341531,0.786041,-36.238888,30.482582,-172.59183,1.0516143,-1.7161603,-0.31680226,0.51094455,0.005840279,-0.54930276,0.006
20240115 08:24:44,-0.129728,-1.530629,0.773227,0.481927,0.05281,0.313832,0.391644,-35.804935,31.120193,-175.53436,0.7632784,-1.5961814,-0.28194493,0.49028775,0.046227604,-0.5691284,0.006
20240115 08:24:44,0.109129,-1.468588,0.148036,0.464881,0.077313,0.275479,0.514309,-36.742374,31.450546,-176.6533,0.2647304,-1.4716455,-0.19038525,0.427718,0.072312556,-0.53309125,0.006
20240115 08:24:44,0.208499,-1.316592,-0.280316,0.38498,0.097554,0.242453,0.48922,-36.085468,31.541389,-177.46008,-0.13680121,-1.3007257,-0.11897261,0.35641485,0.09334624,-0.44349343,0.006
20240115 08:24:44,0.200834,-1.132823,-0.465176,0.267792,0.105012,0.220081,0.331463,-35.911884,31.796432,-177.29839,-0.3186792,-1.1053128,-0.055933237,0.28991413,0.0986508,-0.32317907,0.006
20240115 08:24:44,0.101974,-0.992934,-0.527318,0.135689,0.113534,0.211558,0.549019,-35.786625,30.584679,-175.13768,-0.37584293,-0.93841183,0.045181155,0.2329188,0.09826834,-0.19312215,0.006
20240115 08:24:44,-0.088966,-0.877508,-0.391469,0.005716,0.139103,0.21795,-0.217262,-36.133823,31.135605,-173.45013,-0.26169893,-0.81259525,0.18462159,0.18265404,0.10500078,-0.0757384,0.006
20240115 08:24:44,-0.298548,-0.894317,0.040435,-0.104015,0.16041,0.234996,0.066772,-35.360912,31.355919,-172.3187,0.062488087,-0.90824413,0.20762433,0.14218122,0.111256585,0.008848235,0.006
20240115 08:24:44,-0.470602,-1.060679,0.681595,-0.175393,0.16041,0.256303,-0.102142,-36.032429,31.264099,-173.25995,0.5298774,-1.1852518,0.037477642,0.116045795,0.10553457,0.04363724,0.006
20240115 08:24:44,-0.514999,-1.186298,1.255597,-0.206288,0.140168,0.26163,-0.066666,-35.460461,30.959175,-174.09453,0.951568,-1.3750705,-0.26530662,0.09719205,0.0887058,0.05007702,0.006
20240115 08:24:44,-0.478999,-1.248672,1.66595,-0.194569,0.108208,0.259499,-0.093945,-35.553638,30.697044,-175.41983,1.2605062,-1.4391096,-0.54623973,0.101029046,0.06858343,0.028961629,0.006
20240115 08:24:44,-0.345788,-1.270763,1.828355,-0.158347,0.077313,0.249911,-0.285759,-34.818157,31.049042,-177.05565,1.4251726,-1.4101827,-0.744876,0.1164668,0.05229345,-0.001766175,0.006
20240115 08:24:44,-0.145629,-1.25815,1.79553,-0.112537,0.065594,0.226473,-0.499111,-36.156658,31.268257,-179.24779,1.4738811,-1.3134282,-0.84867144,0.12874755,0.056706496,-0.025980048,0.006
20240115 08:24:44,0.111412,-1.249553,1.626351,-0.066727,0.087966,0.189186,-0.665836,-36.078106,31.529419,178.83461,1.4375222,-1.2383771,-0.92854226,0.12739405,0.08960513,-0.042451385,0.006
20240115 08:24:44,0.298808,-1.172972,1.40665,-0.033702,0.135907,0.130592,-0.270782,-34.994419,30.122894,178.19157,1.3288288,-1.1330154,-0.9448816,0.10033439,0.14058189,-0.03843286,0.006
20240115 08:24:44,0.321263,-1.159726,1.245523,-0.012395,0.210481,0.06454,-0.736904,-35.320629,30.809402,178.40471,1.2231436,-1.1447424,-0.8840272,0.052660767,0.21145654,-0.024410179,0.006
20240115 08:24:44,0.077561,-1.010818,1.438143,0.011043,0.275467,0.008077,-0.860996,-35.517048,30.687027,-179.19125,1.315118,-1.0676092,-0.81125236,0.0011127056,0.2750812,-0.01162806,0.006
20240115 08:24:44,-0.223221,-0.808284,1.688119,0.051526,0.306362,-0.030276,-1.063965,-35.626682,30.692162,-177.02065,1.3927729,-0.97507566,-0.7083943,-0.027727703,0.31030083,-0.019985402,0.006
20240115 08:24:44,-0.59557,-0.676844,1.795298,0.088813,0.31382,-0.052648,-0.80901,-35.888897,30.577843,-173.67259,1.3063309,-1.0098662,-0.45609885,-0.04828152,0.32532483,-0.030783363,0.006
20240115 08:24:44,-0.958285,-0.51354,1.738512,0.121839,0.296774,-0.044125,-0.842682,-35.518894,30.955269,-171.35846,1.0642478,-0.9806554,-0.09742594,-0.03630034,0.31226417,-0.059419774,0.006
20240115 08:24:44,-1.15723,-0.430615,1.574678,0.143146,0.263749,-0.015361,-0.860996,-35.517048,30.687027,-169.83586,0.84212196,-0.9580194,0.1970532,-0.0059438245,0.2768394,-0.09362911,0.006
20240115 08:24:44,-1.252201,-0.429697,1.293013,0.135689,0.216873,0.011273,-1.081894,-35.816715,30.704391,-168.9898,0.6019381,-0.9399706,0.45778775,0.015621137,0.22320089,-0.1048697,0.006
20240115 08:24:44,-1.272521,-0.502574,0.994301,0.114382,0.161475,0.042168,-1.081894,-35.816715,30.704391,-168.25435,0.395644,-0.94799805,0.6364597,0.041841462,0.15773636,-0.10547386,0.006
20240115 08:24:44,-1.154248,-0.629471,0.698766,0.093075,0.103946,0.074128,-1.089706,-36.4874,31.551918,-168.53062,0.27735716,-0.9483102,0.6917998,0.07466222,0.09054111,-0.10639264,0.006
20240115 08:24:44,-0.945199,-0.791208,0.361013,0.065376,0.058136,0.089043,-1.011208,-36.382305,31.143929,-169.22005,0.14183432,-0.9638535,0.6600768,0.08903692,0.039760724,-0.09082581,0.006
20240115 08:24:44,-0.734566,-0.980403,0.057559,0.041938,0.035764,0.09437,-1.035915,-35.917286,31.515236,-171.04668,-0.009354711,-1.0322185,0.5985735,0.09259515,0.017407726,-0.07227981,0.006
20240115 08:24:44,-0.501474,-1.108669,-0.220794,0.035546,0.02298,0.091174,-1.460938,-35.750919,30.69632,-173.44505,-0.17345335,-1.0807014,0.5015308,0.0918193,0.007977331,-0.06462139,0.006
20240115 08:24:44,-0.304454,-1.167005,-0.413081,0.025958,0.03896,0.077324,-1.266933,-35.736309,30.697296,-175.65846,-0.33218157,-1.1147091,0.39627808,0.075604565,0.029492239,-0.04960947,0.006
20240115 08:24:44,-0.117966,-1.145922,-0.526869,0.0185,0.05494,0.06454,-1.3978,-35.277668,30.933998,-177.5563,-0.42419702,-1.0935965,0.26876006,0.061465625,0.04910494,-0.03794658,0.006
20240115 08:24:44,-0.035431,-1.146141,-0.593198,-0.000676,0.070921,0.050691,-1.691566,-35.761829,30.158852,-179.0167,-0.4856267,-1.0992737,0.21894512,0.04231457,0.06690521,-0.015354892,0.006
20240115 08:24:44,0.024847,-1.09298,-0.546605,-0.018787,0.069855,0.038972,-1.327496,-35.651363,31.093063,-179.36562,-0.44740766,-1.0611736,0.15408802,0.026683807,0.0672769,0.0050333887,0.006
20240115 08:24:44,0.059444,-1.055935,-0.504623,-0.042224,0.05281,0.031514,-1.344009,-34.707554,30.897316,-179.8495,-0.4094907,-1.0315075,0.10941751,0.01345163,0.05070271,0.029512037,0.006
20240115 08:24:44,0.03426,-1.018232,-0.481474,-0.072054,0.045352,0.020861,-1.61908,-35.385448,30.670891,-179.13182,-0.371103,-0.981669,0.12388986,-0.007656168,0.042042956,0.06112729,0.006
20240115 08:24:44,-0.011583,-0.974841,-0.353561,-0.085904,0.050679,0.022992,-1.04488,-36.012302,31.521355,-178.45647,-0.27059898,-0.9499248,0.12753218,-0.012493828,0.046949346,0.07254035,0.006
20240115 08:24:44,-0.021642,-0.933603,-0.116891,-0.0891,0.041091,0.022992,-1.522152,-37.183605,31.861,-178.6223,-0.04651283,-0.922508,0.055326026,-0.015072225,0.036566954,0.074443765,0.006
20240115 08:24:44,-0.055737,-0.837431,0.052094,-0.085904,0.025111,0.017665,-1.36182,-36.798992,32.239403,-178.78224,0.08215789,-0.84023535,0.025266884,-0.017729213,0.021586314,0.073101,0.006
20240115 08:24:44,-0.044626,-0.729697,0.048904,-0.09123,0.011261,0.010207,-1.417915,-36.217777,30.593254,-179.00513,0.07573047,-0.7322564,0.018129293,-0.02568636,0.008160995,0.08072865,0.006
20240115 08:24:44,-0.042662,-0.578778,0.09244,-0.10508,0.007,0.007011,-1.770061,-35.866917,30.566849,-179.0776,0.11179037,-0.58505,0.00084802136,-0.033937983,0.0032762235,0.094597034,0.006
20240115 08:24:44,-0.076221,-0.516142,0.201368,-0.117864,-0.001523,0.001685,-1.443008,-35.560879,30.684097,-178.84395,0.19068624,-0.5307555,-0.0123287365,-0.044284135,-0.0050618327,0.10787584,0.006
20240115 08:24:44,-0.081079,-0.486739,0.3234,-0.126387,-0.00685,-0.003642,-1.558128,-35.662273,30.555595,-179.0319,0.29549783,-0.50980675,-0.059540495,-0.053832524,-0.0103700105,0.11707347,0.006
20240115 08:24:44,-0.092584,-0.4404,0.518519,-0.129583,-0.019634,-0.014296,-1.673256,-35.763676,30.427094,-179.30983,0.46005297,-0.47583285,-0.13446592,-0.06575925,-0.022530537,0.12362518,0.006
20240115 08:24:44,-0.108152,-0.499318,0.665225,-0.126387,-0.045202,-0.036668,-1.524456,-36.032276,30.178169,-178.53583,0.58952725,-0.55342215,-0.1959751,-0.08412391,-0.0469092,0.12929666,0.006
20240115 08:24:44,-0.172704,-0.472108,0.733187,-0.115733,-0.081424,-0.05904,-1.34581,-35.649517,30.824814,-177.56915,0.6257316,-0.54531825,-0.17121853,-0.09560543,-0.08069018,0.12836727,0.006
20240115 08:24:44,-0.272197,-0.514554,0.686971,-0.109341,-0.116581,-0.080347,-1.284477,-36.118237,30.989998,-176.25209,0.555056,-0.6080947,-0.069467306,-0.10544728,-0.112282395,0.13005562,0.006
20240115 08:24:44,-0.401947,-0.502229,0.704,-0.083773,-0.14641,-0.091001,-1.143879,-36.865627,31.308121,-174.81065,0.5234675,-0.62794256,0.03584355,-0.09575204,-0.13700913,0.10914668,0.006
20240115 08:24:44,-0.570148,-0.478917,0.591954,-0.053943,-0.186894,-0.087805,-1.126717,-36.291813,30.734955,-173.31621,0.37271124,-0.6240313,0.24623412,-0.06700222,-0.17181347,0.07648377,0.006
20240115 08:24:44,-0.582212,-0.399374,0.329897,-0.018787,-0.225246,-0.069694,-1.251575,-36.10445,30.051628,-173.38924,0.14130151,-0.49824423,0.38781783,-0.028560199,-0.20927238,0.034330864,0.006
20240115 08:24:44,-0.461012,-0.361752,-0.014869,-0.006003,-0.264664,-0.057975,-1.110325,-35.334217,29.600845,-174.37935,-0.11914113,-0.38179493,0.4239841,-0.013529945,-0.2519727,0.016842546,0.006
20240115 08:24:44,-0.241981,-0.27429,-0.45632,-0.02944,-0.298755,-0.060106,-1.091625,-35.527958,30.149559,-175.85985,-0.47079933,-0.22490495,0.36423945,-0.028590683,-0.2898975,0.03982521,0.006
