Timestamp,linacce_x,linacce_y,linacce_z,gyro_x,gyro_y,gyro_z,X-magnetometer,Y-magnetometer,Z-magnetometer,Yaw, worldXAccel,worldYAccel,worldZAccel,worldXgyro,worldYgyro,worldZgyro,Distance
20240115 08:28:33,-0.815359,0.243162,-0.088404,-0.059659,0.557563,-0.092993,-1.01754,-2.972267,-11.228302,26.848045,-0.5279435,0.15030506,0.61979675,-0.23545682,0.5516305,-0.11118589,0.0075
20240115 08:28:34,-1.194908,0.190067,0.072568,-0.076705,0.512819,-0.048249,-0.999996,-2.590336,-11.520996,31.130169,-0.6025826,-0.03870976,1.0100365,-0.22202745,0.4856799,-0.08999117,0.0075
20240115 08:28:34,-1.394765,-0.027038,0.108885,-0.099077,0.430787,0.006084,-0.683437,-1.611752,-12.519524,30.0778,-0.64142007,-0.32281962,1.2416443,-0.178898,0.3814016,-0.026987012,0.0075
20240115 08:28:34,-1.45774,-0.312665,0.099909,-0.118254,0.332775,0.052959,-0.754124,-1.046169,-12.959061,29.928162,-0.6153227,-0.60722107,1.3571643,-0.123701274,0.2709798,0.034446485,0.0075
20240115 08:28:34,-1.371754,-0.50533,0.096897,-0.102273,0.252874,0.077462,-0.180695,-1.289249,-12.669548,25.546452,-0.52323294,-0.75336426,1.318521,-0.06563682,0.19754483,0.06476553,0.0075
20240115 08:28:34,-1.147967,-0.521293,0.074798,-0.03196,0.211325,0.078528,-0.056217,-1.284718,-12.266693,22.546026,-0.41547933,-0.7029126,1.1149963,-0.008573212,0.17555815,0.022531783,0.0075
20240115 08:28:34,-0.960055,-0.382473,-0.084375,0.09162,0.209194,0.074266,-0.559353,-1.415333,-12.397141,24.396955,-0.45222583,-0.4874803,0.87111753,0.052995104,0.1940901,-0.08866835,0.0075
20240115 08:28:34,-0.843056,-0.046526,-0.376652,0.234377,0.244351,0.080659,-0.295815,-1.390644,-12.798042,21.492205,-0.6909999,-0.05797574,0.6005154,0.11137792,0.24371602,-0.21550041,0.0075
20240115 08:28:34,-0.641996,0.281963,-0.741503,0.361153,0.285899,0.096639,0.005116,-1.753433,-12.101509,19.057127,-0.9812561,0.39106488,0.27327713,0.15419224,0.2897716,-0.33210152,0.0075
20240115 08:28:34,-0.458002,0.620996,-1.220387,0.436793,0.334906,0.119011,-0.101044,-1.759815,-12.236122,18.013254,-1.418829,0.86803174,-0.019371927,0.1681709,0.33145773,-0.40857416,0.0075
20240115 08:28:34,-0.251013,0.963047,-1.690104,0.462361,0.400957,0.14671,-0.118587,-2.141743,-11.94342,17.006462,-1.87808,1.3326104,-0.28097865,0.16380611,0.38374898,-0.43817157,0.0075
20240115 08:28:34,-0.03274,1.261405,-2.010645,0.426139,0.462747,0.174409,0.248535,-2.668861,-12.843163,12.433499,-2.1822686,1.655628,-0.49408793,0.16759199,0.4364992,-0.39754233,0.0075
20240115 08:28:34,0.123782,1.454049,-2.321647,0.3228,0.500034,0.191455,0.654854,-2.641495,-12.572968,8.191111,-2.4708064,1.8536236,-0.6347903,0.15990081,0.46902347,-0.29169536,0.0075
20240115 08:28:34,0.229521,1.477129,-2.450668,0.159802,0.495773,0.196781,0.66497,-3.122139,-11.737663,7.1423616,-2.5737834,1.8757378,-0.7288737,0.13746136,0.46053347,-0.13108028,0.0075
20240115 08:28:34,0.293405,1.405364,-2.530398,-0.058594,0.448898,0.190389,0.329983,-2.19746,-12.337234,7.5378175,-2.608125,1.7725611,-0.8003299,0.1071233,0.41386998,0.08222762,0.0075
20240115 08:28:34,0.303071,1.250737,-2.500929,-0.311082,0.387108,0.16269,0.390167,-2.090511,-13.013474,6.051824,-2.523752,1.565338,-0.8331598,0.045085654,0.35496262,0.32926664,0.0075
20240115 08:28:34,0.296099,1.076912,-2.281018,-0.555046,0.328513,0.117946,1.009193,-2.242275,-12.193588,3.5569196,-2.2622137,1.3849796,-0.8631452,-0.06767276,0.2903159,0.5619413,0.0075
20240115 08:28:34,0.183288,0.876378,-1.821948,-0.760659,0.290161,0.072136,0.993065,-1.490345,-12.108856,5.682859,-1.793007,1.1703339,-0.7623494,-0.21521544,0.23369727,0.7366245,0.0075
20240115 08:28:34,-0.065328,0.690315,-1.24167,-0.897023,0.277377,0.035914,0.920959,-2.058613,-12.340416,9.524953,-1.2840726,0.9169169,-0.4488027,-0.36423278,0.18985687,0.82561475,0.0075
20240115 08:28:34,-0.310906,0.484413,-0.600748,-0.946029,0.275246,0.02526,0.929161,-1.579819,-12.907478,10.734207,-0.7604733,0.56141174,-0.030810773,-0.46202958,0.16573992,0.8315725,0.0075
20240115 08:28:34,-0.46664,0.19739,-0.056575,-0.904481,0.27205,0.02526,1.308201,-1.645618,-12.899414,8.556004,-0.3212935,0.1515635,0.35903698,-0.48842555,0.1604683,0.7718664,0.0075
20240115 08:28:34,-0.435329,-0.095841,0.322091,-0.797946,0.276311,0.018868,1.425125,-0.602253,-12.698418,6.0529222,0.04197468,-0.19364567,0.54516053,-0.46643433,0.18215257,0.6622827,0.0075
20240115 08:28:34,-0.362244,-0.266828,0.583775,-0.637078,0.291226,0.002888,1.830685,-0.191109,-12.989159,2.2830694,0.3007137,-0.3805021,0.6374502,-0.40407178,0.22383288,0.5168027,0.0075
20240115 08:28:34,-0.28932,-0.380777,0.706763,-0.432531,0.300814,-0.02055,1.364563,-0.517311,-12.30265,4.0471992,0.4484877,-0.49838257,0.6619497,-0.30919892,0.25770092,0.32695597,0.0075
20240115 08:28:34,-0.242723,-0.43024,0.620195,-0.214135,0.30401,-0.045053,1.274143,-1.083729,-12.802452,5.401874,0.42380083,-0.5348593,0.57476914,-0.20141229,0.2849209,0.13392316,0.0075
20240115 08:28:34,-0.222739,-0.372971,0.255797,-0.004261,0.322121,-0.062098,1.734642,-0.678135,-12.288467,2.867899,0.15220626,-0.42723987,0.33421057,-0.10327095,0.325928,-0.037820272,0.0075
20240115 08:28:34,-0.121366,-0.220837,-0.26215,0.181109,0.373258,-0.067425,2.156704,-1.2108,-12.383469,0.8026619,-0.24887408,-0.18554693,-0.017035574,-0.031808164,0.3936248,-0.19381852,0.0075
20240115 08:28:34,-0.038583,0.027582,-0.792506,0.310016,0.43931,-0.072752,2.422424,-0.436035,-12.431396,0.13453521,-0.7266105,0.16295044,-0.29807305,-0.011547513,0.4689719,-0.31231806,0.0075
20240115 08:28:34,0.040123,0.22228,-1.220772,0.36648,0.488316,-0.06849,2.165283,-0.923893,-12.670059,2.7362425,-1.1307981,0.4580083,-0.50700116,-0.016856004,0.5201713,-0.37372202,0.0075
20240115 08:28:34,0.086487,0.397855,-1.471909,0.364349,0.495773,-0.057837,2.493111,-1.001625,-11.991859,0.5988931,-1.3938934,0.6882568,-0.60281587,-0.022716906,0.5233476,-0.36309287,0.0075
20240115 08:28:34,0.162467,0.521163,-1.627782,0.311082,0.461682,-0.046118,2.5182,-1.658531,-12.082703,0.36359802,-1.5498081,0.8426604,-0.69608396,-0.030235972,0.48224425,-0.30966952,0.0075
20240115 08:28:34,0.189534,0.666446,-1.691018,0.214135,0.394565,-0.034399,2.677113,-2.407776,-11.49633,-0.72167027,-1.6328807,1.0091543,-0.73230314,-0.04179128,0.40747893,-0.21190159,0.0075
20240115 08:28:34,0.183401,0.780531,-1.634423,0.099077,0.312533,-0.019484,2.994438,-1.812969,-11.933907,-0.8326805,-1.6108302,1.129435,-0.7084648,-0.053291216,0.3158849,-0.098460235,0.0075
20240115 08:28:34,0.116766,0.923451,-1.542746,-0.009588,0.24009,0.007149,3.081512,-1.420967,-12.628494,0.20911658,-1.5814153,1.2551179,-0.6270253,-0.051030878,0.23066723,0.011133832,0.0075
20240115 08:28:34,0.068665,0.967942,-1.446312,-0.096947,0.213456,0.045502,3.169746,-1.604626,-12.481651,-0.2546025,-1.5067912,1.2726382,-0.5759106,-0.041484606,0.18845148,0.10712066,0.0075
20240115 08:28:34,0.021286,0.982452,-1.103898,-0.156606,0.203868,0.085985,3.214184,-0.937637,-12.792686,-0.9331019,-1.1900452,1.1916828,-0.44125724,-0.02669207,0.16629863,0.17897466,0.0075
20240115 08:28:34,0.008461,0.881859,-0.72377,-0.184305,0.195345,0.124338,2.878544,-1.530594,-12.62336,-1.2936888,-0.8011406,0.9975723,-0.3052503,-0.003638193,0.15248187,0.2214471,0.0075
20240115 08:28:34,0.018331,0.75822,-0.322331,-0.18324,0.176169,0.150971,3.162968,-0.949566,-12.122566,-4.7124662,-0.39661863,0.7994719,-0.13553311,0.018553242,0.13297516,0.23861106,0.0075
20240115 08:28:34,0.046565,0.641507,0.035457,-0.155541,0.120771,0.161625,3.257587,-1.596397,-12.615288,-5.50227,-0.044597033,0.6302904,0.005312873,0.04723333,0.08153038,0.21901469,0.0075
20240115 08:28:34,0.04741,0.599992,0.03839,-0.110796,0.071765,0.165886,3.691189,-1.475853,-12.082954,-8.478726,-0.035755426,0.5889533,0.01828818,0.080253735,0.03625332,0.18042368,0.0075
20240115 08:28:34,0.033899,0.597239,-0.015321,-0.078836,0.044065,0.168017,3.418308,-1.403675,-11.956413,-7.581535,-0.08563929,0.59371114,0.00026943954,0.10201858,0.012298392,0.15106314,0.0075
20240115 08:28:34,0.095198,0.564149,-0.051913,-0.037287,0.002517,0.171213,3.34697,-2.355721,-11.627037,-9.331896,-0.075387195,0.5713666,-0.06499781,0.13138258,-0.02291581,0.11269221,0.0075
20240115 08:28:34,0.245083,0.488421,-0.109093,0.009588,-0.035836,0.169082,3.424316,-1.674957,-12.876442,-10.528856,-0.02876965,0.508161,-0.22546269,0.15677154,-0.0512131,0.065594964,0.0075
20240115 08:28:34,0.419631,0.468072,-0.25326,0.057529,-0.058208,0.155233,2.920799,-1.613682,-13.287369,-9.956796,-0.065383136,0.49608174,-0.45051605,0.16779307,-0.06596738,0.013124891,0.0075
20240115 08:28:34,0.54169,0.447874,-0.385748,0.1076,-0.063535,0.126468,3.223534,-1.034508,-12.518333,-12.974342,-0.1312742,0.47971216,-0.6075694,0.16383344,-0.06714185,-0.04897023,0.0075
20240115 08:28:34,0.637223,0.49497,-0.473068,0.154475,-0.065665,0.095573,3.223534,-1.034508,-12.518333,-14.133505,-0.16672525,0.52086663,-0.7206985,0.15520668,-0.066337876,-0.10602979,0.0075
20240115 08:28:34,0.653721,0.530506,-0.513375,0.190697,-0.075254,0.056155,3.31739,-1.297558,-13.571991,-13.732801,-0.20240551,0.5535004,-0.75011486,0.1338578,-0.0742753,-0.15712664,0.0075
20240115 08:28:34,0.680262,0.56966,-0.541507,0.207743,-0.097626,0.010346,3.221348,-1.784584,-12.871307,-14.7942,-0.21748674,0.5886388,-0.7762085,0.098996535,-0.09567376,-0.19472958,0.0075
20240115 08:28:34,0.70965,0.622904,-0.542445,0.21307,-0.133848,-0.043987,3.451591,-1.581787,-12.614311,-15.928891,-0.21592811,0.643596,-0.7911218,0.051167678,-0.13039844,-0.22669104,0.0075
20240115 08:28:34,0.581644,0.817112,-0.552436,0.218396,-0.149828,-0.088732,3.300224,-1.871372,-12.998825,-11.985301,-0.3177901,0.8662775,-0.6822133,0.017563738,-0.13775305,-0.24748728,0.0075
20240115 08:28:34,0.430626,1.030057,-0.437681,0.223723,-0.155155,-0.115366,3.044888,-1.417267,-13.164978,-8.296313,-0.31403613,1.083151,-0.50963354,0.0020757616,-0.13435726,-0.2601304,0.0075
20240115 08:28:34,0.245762,1.223404,-0.270399,0.237573,-0.161547,-0.117496,3.335701,-1.299404,-13.303757,-7.2051044,-0.2917473,1.2593856,-0.2712568,0.013419561,-0.13206269,-0.27300978,0.0075
20240115 08:28:34,0.110974,1.310325,-0.1356,0.252488,-0.175396,-0.102581,3.369759,-1.861294,-13.400696,-6.393177,-0.2527017,1.3209717,-0.09549451,0.04054316,-0.14298339,-0.28018457,0.0075
20240115 08:28:34,0.031884,1.303259,0.011611,0.259945,-0.199899,-0.08447,3.193684,-1.685867,-13.41391,-5.3439736,-0.15659043,1.2882297,0.02908052,0.06557425,-0.16838919,-0.27875194,0.0075
20240115 08:28:34,0.083994,1.26451,0.12328,0.265272,-0.243579,-0.074882,3.060631,-1.977306,-13.530182,-5.554771,-0.013613552,1.2414765,0.031659234,0.08018618,-0.21533631,-0.2814644,0.0075
20240115 08:28:34,0.102139,1.330961,0.143683,0.265272,-0.302173,-0.067425,3.078178,-1.595379,-13.822876,-5.542236,0.009016223,1.3069271,0.02449599,0.09080529,-0.2755833,-0.28090656,0.0075
20240115 08:28:34,0.15274,1.356594,0.01304,0.25888,-0.343721,-0.065294,2.875591,-1.896893,-13.537262,-6.208014,-0.06835976,1.3533804,-0.07216767,0.08556464,-0.32183868,-0.27785924,0.0075
20240115 08:28:34,0.266611,1.308513,-0.134833,0.250357,-0.357571,-0.085536,2.742153,-1.996441,-13.934006,-5.706408,-0.14606489,1.3257637,-0.24594101,0.057813585,-0.33610657,-0.27772555,0.0075
20240115 08:28:34,0.267224,1.392693,-0.335779,0.231181,-0.338395,-0.108973,2.602322,-1.632824,-13.691193,-4.5942307,-0.35671055,1.4313841,-0.3322033,0.024897128,-0.31394896,-0.26549748,0.0075
20240115 08:28:34,0.232895,1.58551,-0.370539,0.201351,-0.296846,-0.13028,2.522675,-1.162258,-14.124619,-3.0672882,-0.43910474,1.6278096,-0.32412148,-0.0072781295,-0.26902276,-0.24182896,0.0075
20240115 08:28:34,0.190289,1.734057,-0.228531,0.154475,-0.280866,-0.150522,2.849079,-2.373837,-13.238464,-5.676681,-0.33915278,1.7560842,-0.19715548,-0.04561521,-0.25345418,-0.21084344,0.0075
20240115 08:28:34,0.190635,1.803284,-0.243921,0.109731,-0.256363,-0.16011,2.874943,-3.414528,-12.768356,-6.734729,-0.35911006,1.8262683,-0.18818322,-0.07647027,-0.23092857,-0.17285946,0.0075
20240115 08:28:34,0.190691,1.860287,-0.258525,0.043679,-0.198834,-0.16011,2.22979,-3.931602,-13.008965,-2.5894072,-0.39376014,1.8851461,-0.24233165,-0.10607034,-0.17523438,-0.10419294,0.0075
20240115 08:28:34,0.126999,1.731439,-0.247584,-0.04581,-0.095495,-0.163306,2.706291,-2.376518,-13.909561,-1.5571234,-0.44125098,1.7534689,-0.19599018,-0.15121055,-0.07196187,-0.023604952,0.0075
20240115 08:28:34,-0.127812,1.353754,0.028489,-0.147018,0.004648,-0.148391,2.232243,-1.472004,-13.705383,2.634183,-0.27304932,1.3101289,0.09859947,-0.19711223,0.017596414,0.06369949,0.0075
20240115 08:28:34,-0.331772,0.814205,0.759486,-0.243965,0.020628,-0.136672,2.063332,-2.143524,-13.797195,4.0344605,0.31473225,0.63290805,0.65363526,-0.24670982,0.017362317,0.1331913,0.0075
20240115 08:28:34,-0.435964,0.272846,1.452106,-0.302559,-0.043293,-0.132411,2.336601,-2.407589,-13.643265,2.546892,0.8403785,-0.017067507,1.2064472,-0.27739134,-0.05710815,0.16557524,0.0075
20240115 08:28:34,-0.555608,-0.238832,1.954619,-0.292971,-0.143436,-0.131346,2.247986,-2.032043,-14.070572,4.1571207,1.1464154,-0.61567044,1.6894093,-0.26408917,-0.15839759,0.1470143,0.0075
20240115 08:28:34,-0.660476,-0.695191,2.218166,-0.225854,-0.245709,-0.131346,2.265915,-1.842003,-14.082794,3.8568969,1.2628875,-1.1017706,2.0114145,-0.21061495,-0.25180745,0.08959543,0.0075
20240115 08:28:34,-0.592997,-1.02987,2.365468,-0.103339,-0.341591,-0.137738,2.274883,-1.746986,-14.088913,2.2978182,1.4256599,-1.4057579,2.0796547,-0.12340376,-0.3302447,-0.009642608,0.0075
20240115 08:28:34,-0.416877,-1.068457,2.152461,0.055398,-0.411904,-0.146261,1.939625,-2.531826,-13.639114,2.0521717,1.4541538,-1.3631353,1.7559518,-0.021508947,-0.38247904,-0.1282539,0.0075
20240115 08:28:34,-0.154818,-0.99047,1.619432,0.22905,-0.412969,-0.152653,1.975101,-1.959858,-13.944031,-0.28370112,1.2783322,-1.1690384,1.1132729,0.065820985,-0.37336907,-0.27577722,0.0075
20240115 08:28:34,0.167671,-0.860622,0.989917,0.371807,-0.363963,-0.166502,1.595024,-3.219807,-13.463654,-2.3074248,0.97441924,-0.92232,0.39623433,0.098183304,-0.33139127,-0.40936786,0.0075
20240115 08:28:34,0.441039,-0.691513,0.428878,0.465557,-0.280866,-0.185679,1.700027,-2.637756,-14.170471,-4.7076902,0.62654823,-0.69857246,-0.19110759,0.09087627,-0.25807893,-0.5066766,0.0075
20240115 08:28:34,0.585631,-0.473347,-0.078283,0.477276,-0.206291,-0.210182,1.953835,-2.32431,-15.12619,-5.899514,0.21305326,-0.4583272,-0.57966155,0.036166653,-0.18852855,-0.529827,0.0075
20240115 08:28:34,0.646997,-0.38396,-0.491185,0.39844,-0.130652,-0.227227,1.276047,-1.145649,-15.477814,-2.8449495,-0.1466744,-0.35533878,-0.80433345,-0.026352003,-0.11575844,-0.46032408,0.0075
20240115 08:28:34,0.626809,-0.44794,-0.509094,0.267402,-0.104018,-0.252795,1.345963,-1.327457,-15.599228,-2.4218366,-0.16221648,-0.4110433,-0.7946521,-0.105054036,-0.08679645,-0.35299096,0.0075
20240115 08:28:34,0.58565,-0.461946,-0.38872,0.096947,-0.106149,-0.26558,1.768795,-2.2439,-15.133286,-3.3726177,-0.04282865,-0.418806,-0.7115993,-0.18299727,-0.08678724,-0.2120924,0.0075
20240115 08:28:34,0.511745,-0.67629,0.166207,-0.051137,-0.12426,-0.266645,1.51384,-1.981682,-15.018967,-1.4616747,0.45837688,-0.66353697,-0.35443708,-0.2438561,-0.10785133,-0.09998022,0.0075
20240115 08:28:34,0.360097,-0.774015,0.855845,-0.150214,-0.219076,-0.274102,1.847675,-2.330688,-15.260803,0.04271232,0.9779969,-0.8276625,0.20004049,-0.28730458,-0.20090798,-0.03537357,0.0075
20240115 08:28:34,0.044127,-0.826754,1.107035,-0.209874,-0.342656,-0.255991,1.310871,-2.091312,-15.01384,6.4933543,1.018267,-0.9609349,0.67033553,-0.2810438,-0.3238953,0.04169473,0.0075
20240115 08:28:34,-0.176219,-0.879772,1.017737,-0.2152,-0.442799,-0.200593,1.189735,-1.921425,-14.222305,8.612206,0.8541528,-1.0439807,0.799415,-0.21467006,-0.4266439,0.09990453,0.0075
20240115 08:28:34,-0.149253,-0.861677,0.572339,-0.184305,-0.414034,-0.113235,0.983929,-4.298763,-13.801224,10.201876,0.5325946,-0.9533266,0.51034784,-0.12603721,-0.40707305,0.1350109,0.0075
20240115 08:28:34,0.013633,-0.798494,0.294885,-0.108666,-0.246775,-0.010961,0.992508,-4.011856,-14.087814,5.899971,0.35097083,-0.82488453,0.18712333,-0.03702362,-0.25111806,0.09985238,0.0075
20240115 08:28:34,0.259442,-0.850051,0.191714,-0.026634,-0.046489,0.064678,0.752533,-3.9259,-14.899628,5.2369432,0.3819021,-0.8473183,-0.078001454,0.044952966,-0.054118186,0.05893419,0.0075
20240115 08:28:34,0.333289,-1.051221,0.230866,0.01598,0.101594,0.105162,0.745754,-3.270844,-14.540543,4.524225,0.46894872,-1.046386,-0.10866301,0.08719048,0.09245763,0.039400306,0.0075
20240115 08:28:34,0.299673,-1.16495,0.392753,-0.006392,0.136751,0.11688,1.070625,-3.714874,-14.77626,2.7597563,0.59240973,-1.1746598,0.0071542263,0.08032114,0.12550364,0.06768816,0.0075
20240115 08:28:34,0.287443,-1.159629,0.634891,-0.073509,0.080287,0.117946,0.939758,-3.256233,-14.539566,3.3750818,0.7789743,-1.1896496,0.17611663,0.04556851,0.06535062,0.12563501,0.0075
20240115 08:28:34,0.279041,-1.050683,0.929458,-0.151279,-0.027313,0.117946,1.370789,-3.693886,-14.640686,-0.4485111,0.983027,-1.0975268,0.3275251,0.005566694,-0.04351481,0.19165264,0.0075
20240115 08:28:34,0.313358,-1.000577,1.191681,-0.218396,-0.163677,0.112619,0.98278,-3.723103,-14.642639,1.4649165,1.1983638,-1.0598241,0.49352694,-0.03339743,-0.18162228,0.24430132,0.0075
20240115 08:28:34,0.568363,-1.248813,1.049742,-0.280187,-0.302173,0.119011,0.762917,-2.697025,-15.113708,-6.375882,1.1534035,-1.2353024,0.09264344,-0.08058655,-0.29508218,0.2745448,0.0075
20240115 08:28:34,1.116333,-1.170676,0.852056,-0.325997,-0.350113,0.059352,0.527042,-2.820435,-14.170212,-7.538022,1.3007158,-1.1683471,-0.47971547,-0.16262704,-0.33683702,0.26874274,0.0075
20240115 08:28:34,0.893008,-1.05924,1.009917,-0.343042,-0.350113,-0.013092,0.260551,-3.211422,-14.683212,-1.6537474,1.3429459,-1.0588474,-0.1214512,-0.21783821,-0.3498245,0.25956458,0.0075
20240115 08:28:34,0.598833,-1.037895,0.860594,-0.329193,-0.359701,-0.049314,0.312157,-3.39138,-15.072876,3.5374174,1.0998604,-1.0578128,0.051645756,-0.21358578,-0.3685225,0.2516887,0.0075
20240115 08:28:34,0.131156,-0.892953,0.565551,-0.29084,-0.26382,-0.035464,-0.003368,-3.04422,-14.56279,10.642004,0.6290775,-0.93566066,0.30682102,-0.1679092,-0.27950153,0.24599275,0.0075
20240115 08:28:34,-0.117624,-0.669538,0.737565,-0.209874,-0.1722,0.022064,0.489647,-2.432957,-15.267639,9.777477,0.6090062,-0.7650476,0.5842568,-0.08252948,-0.19180419,0.20041937,0.0075
20240115 08:28:34,-0.170391,-0.66135,0.746221,-0.159802,-0.14024,0.057221,0.374908,-2.726246,-15.115662,11.018101,0.5870948,-0.7665028,0.63772255,-0.028504841,-0.16086948,0.17826657,0.0075
20240115 08:28:34,-0.151706,-0.647038,0.608526,-0.017046,-0.085907,0.163756,0.357365,-3.108173,-14.822968,8.976091,0.48325467,-0.7202661,0.5222285,0.13370213,-0.1046048,0.11313857,0.0075
20240115 08:28:34,0.13774,-0.773241,0.312259,0.034091,-0.111475,0.20637,0.304993,-2.544434,-14.994263,2.9696264,0.37505597,-0.7829943,0.074842654,0.19717191,-0.12044382,0.08611241,0.0075
20240115 08:28:34,0.575,-0.84139,-0.111709,0.036222,-0.155155,0.2085,-0.1637,-3.428829,-14.941193,-1.3019145,0.17246854,-0.85185134,-0.56272745,0.19459125,-0.1505644,0.07180088,0.0075
20240115 08:28:34,0.892593,-0.767757,-0.51175,-0.002131,-0.18818,0.17654,0.07436,-2.555344,-15.531723,-6.863151,-0.08854306,-0.8443593,-1.070159,0.13872042,-0.1730822,0.07415749,0.0075
20240115 08:28:34,1.041882,-0.711041,-0.804649,-0.053267,-0.1722,0.127534,-0.295334,-2.586414,-15.265427,-7.060263,-0.31850868,-0.8481834,-1.3296046,0.07054415,-0.15445976,0.09510885,0.0075
20240115 08:28:35,1.038382,-0.620759,-0.861698,-0.096947,-0.12639,0.083855,0.108803,-3.309124,-15.34819,-9.606752,-0.35914284,-0.771777,-1.3581522,0.015877571,-0.110444255,0.11434527,0.0075
20240115 08:28:35,1.030988,-0.554731,-0.783187,-0.128907,-0.070992,0.052959,-0.373829,-2.691513,-14.857437,-5.7969885,-0.26128173,-0.6760009,-1.3012856,-0.020072352,-0.059257902,0.13527606,0.0075
20240115 08:28:35,0.916786,-0.494454,-0.537187,-0.139561,-0.016659,0.02313,-0.373829,-2.691513,-14.857437,-2.650569,-0.05578968,-0.5497368,-1.0728751,-0.04779301,-0.01123875,0.13309728,0.0075
20240115 08:28:35,0.714191,-0.467434,-0.344565,-0.139561,0.021693,0.010346,0.013412,-2.278519,-15.416428,-1.4267807,0.052646697,-0.47970733,-0.7964617,-0.06071017,0.023175796,0.12618853,0.0075
20240115 08:28:35,0.583795,-0.476443,-0.108875,-0.124646,0.022758,0.003953,-0.26844,-2.301357,-15.283768,0.1876745,0.20427728,-0.48234338,-0.5545362,-0.061108906,0.023779579,0.108506896,0.0075
20240115 08:28:35,0.60215,-0.49801,0.065199,-0.119319,0.008909,-0.002439,-0.049343,-2.943653,-15.373627,-0.80828756,0.36549306,-0.5015557,-0.4821584,-0.06455683,0.009743361,0.100374736,0.0075
20240115 08:28:35,0.562438,-0.374613,0.065923,-0.089489,-0.074188,-0.031203,-0.276634,-2.780155,-14.716721,0.54947394,0.34152573,-0.37725532,-0.4470478,-0.07343684,-0.073963225,0.061157957,0.0075
20240115 08:28:35,0.612326,-0.163696,-0.109348,-0.07564,-0.128521,-0.045053,-0.340157,-3.061512,-15.234863,-0.200578,0.1955607,-0.17343399,-0.58955514,-0.07872526,-0.1285569,0.04436838,0.0075
20240115 08:28:35,0.658257,0.079492,-0.48164,-0.062856,-0.141305,-0.047183,-0.561058,-3.361183,-15.217499,-1.5149812,-0.13656259,0.037457615,-0.80228984,-0.07736927,-0.14191233,0.03391395,0.0075
20240115 08:28:35,0.814129,0.312099,-0.79011,-0.063921,-0.12639,-0.046118,0.08371,-2.652214,-15.257355,-6.323971,-0.35375077,0.21904114,-1.0522908,-0.07832044,-0.12725443,0.03336936,0.0075
20240115 08:28:35,0.88603,0.370289,-0.921801,-0.080966,-0.063535,-0.045053,-0.435814,-3.740429,-14.253708,-5.1754193,-0.42913288,0.24440959,-1.1743088,-0.08043371,-0.063934594,0.0524733,0.0075
20240115 08:28:35,0.916301,0.319265,-0.791254,-0.111862,0.039804,-0.061033,-0.181244,-3.81076,-14.648499,-4.4833393,-0.28627005,0.23633309,-1.1584593,-0.101113796,0.03926767,0.07522009,0.0075
20240115 08:28:35,0.718788,0.29102,-0.507108,-0.122515,0.080287,-0.074882,-0.312111,-3.352123,-14.411789,0.85231256,-0.11087519,0.2830853,-0.87430686,-0.122644655,0.08019098,0.0729193,0.0075
20240115 08:28:35,0.481133,0.327624,-0.142577,-0.106535,0.073895,-0.072752,-0.261662,-2.956413,-15.642853,3.7823567,0.102128394,0.33992538,-0.49962232,-0.117872536,0.07423534,0.054790776,0.0075
20240115 08:28:35,0.348078,0.255501,0.124724,-0.070313,0.036608,-0.062098,-0.331577,-2.774605,-15.521454,4.304013,0.27768832,0.25792888,-0.24472865,-0.09048824,0.03720745,0.027148824,0.0075
20240115 08:28:35,0.389181,0.205351,0.378006,-0.009588,-0.036901,-0.053575,-0.233997,-3.05513,-15.10025,2.929292,0.52222097,0.20266978,-0.13777708,-0.04988307,-0.035978347,-0.019012839,0.0075
20240115 08:28:35,0.494955,0.286004,0.34152,0.06179,-0.12426,-0.053575,-0.277405,-2.396378,-15.277649,1.307757,0.5442818,0.2860148,-0.2591353,-0.015220599,-0.12427759,-0.07892384,0.0075
20240115 08:28:35,0.548543,0.372774,0.190266,0.093751,-0.155155,-0.055706,-0.507652,-2.599174,-15.534653,0.49856818,0.42860925,0.3705579,-0.40217215,-0.010148004,-0.15746939,-0.10823136,0.0075
20240115 08:28:35,0.681924,0.635206,-0.553846,0.161933,-0.148763,-0.051445,-0.419422,-2.782837,-15.387802,-1.8928308,-0.18912917,0.5911316,-0.8412816,0.012910571,-0.15478307,-0.17071973,0.0075
20240115 08:28:35,0.737968,0.79291,-0.859122,0.191763,-0.059273,-0.05251,-0.294563,-2.970192,-14.704483,-1.5327381,-0.4627972,0.74631613,-1.0104064,0.025902987,-0.0645,-0.19744064,0.0075
20240115 08:28:35,0.640677,0.908175,-0.814013,0.205612,-0.007071,-0.047183,-0.083668,-4.091286,-14.227295,-0.34145832,-0.47852612,0.89744425,-0.91187704,0.039470766,-0.008411576,-0.20723498,0.0075
20240115 08:28:35,0.520825,1.036097,-0.646697,0.241834,0.123967,-0.023746,-0.235035,-4.380875,-14.611816,2.0437145,-0.38915414,1.0457487,-0.7543682,0.07567799,0.12541616,-0.23225735,0.0075
20240115 08:28:35,0.4931,1.014628,-0.608977,0.267402,0.197476,-0.008831,-0.181629,-3.61887,-14.92897,3.4979284,-0.3860883,1.0422536,-0.72513616,0.095338345,0.20175426,-0.25227168,0.0075
20240115 08:28:35,0.329999,1.013115,-0.447121,0.270598,0.251808,-0.010961,-0.246689,-3.132675,-16.569,5.185779,-0.3177135,1.0438508,-0.52740973,0.09188657,0.25883883,-0.2591261,0.0075
20240115 08:28:35,0.297843,0.969482,-0.343432,0.266337,0.280573,-0.014157,-0.173435,-3.140072,-15.496017,8.038041,-0.25609758,1.0090483,-0.4814654,0.083288796,0.2926232,-0.26144326,0.0075
20240115 08:28:35,-0.02083,0.822555,0.167593,0.272729,0.263527,-0.015223,0.144276,-2.737156,-15.653122,8.904864,0.04021185,0.7945468,0.036646686,0.08725119,0.2803204,-0.26600254,0.0075
20240115 08:28:35,-0.167651,0.860042,0.479208,0.292971,0.215586,-0.014157,0.168983,-3.202171,-16.024445,10.332352,0.2175923,0.7756929,0.30231076,0.10432608,0.23661347,-0.28078252,0.0075
20240115 08:28:35,-0.25742,1.039669,0.682018,0.312147,0.186822,-0.002439,0.25798,-3.769615,-15.31665,10.986246,0.3165526,0.90973806,0.45408928,0.12328681,0.20919193,-0.29126126,0.0075
20240115 08:28:35,-0.196676,1.381379,0.658817,0.387787,0.107986,0.038045,0.458763,-4.410057,-15.674759,8.154045,0.32121915,1.275734,0.38419735,0.19838203,0.12674136,-0.33423367,0.0075
20240115 08:28:35,-0.001375,1.619326,0.345837,0.438923,0.111182,0.052959,0.345825,-3.761383,-15.450302,6.511457,0.14406745,1.573025,0.06836012,0.2204169,0.12594181,-0.38164538,0.0075
20240115 08:28:35,0.119291,1.838195,-0.122768,0.433597,0.171907,0.046567,0.758926,-4.389069,-15.539185,4.818842,-0.26835132,1.8440951,-0.21461383,0.18718755,0.18481326,-0.38974604,0.0075
20240115 08:28:35,0.066728,2.021922,-0.491232,0.365414,0.274181,0.040175,0.555573,-4.306808,-15.814529,7.9581904,-0.71648216,2.0717146,-0.3336255,0.12767811,0.28489813,-0.3411239,0.0075
20240115 08:28:35,-0.040173,2.130297,-0.473137,0.239703,0.37965,0.042306,0.731262,-4.290348,-16.081787,9.393014,-0.8053225,2.1720018,-0.26352525,0.063397914,0.3822928,-0.23022008,0.0075
20240115 08:28:35,-0.248399,2.029521,0.011817,0.076705,0.419068,0.056155,0.934231,-4.180725,-16.086914,10.001745,-0.45402473,1.9675431,0.07766241,0.008859534,0.40754983,-0.07676685,0.0075
20240115 08:28:35,-0.327165,1.864797,0.415986,-0.008523,0.390304,0.057221,1.285614,-4.147804,-16.62146,8.483428,-0.10429585,1.7316232,0.35310277,-0.020029318,0.37275434,0.007097777,0.0075
20240115 08:28:35,-0.400778,1.426963,1.168379,-0.168325,0.270985,0.044437,0.854584,-3.710155,-16.52034,10.976703,0.50603247,1.1808358,0.8229251,-0.09996647,0.24190472,0.13484536,0.0075
20240115 08:28:35,-0.656431,0.696364,2.129554,-0.316408,0.01104,0.00928,1.268448,-4.721619,-16.048279,11.024112,1.1420963,0.2741786,1.7167555,-0.1881263,-0.028545147,0.25453827,0.0075
20240115 08:28:35,-0.701212,0.418035,2.330853,-0.324931,-0.059273,-0.004569,1.382805,-4.236443,-16.480728,11.233873,1.2681111,-0.05044329,1.9309049,-0.19825631,-0.09894736,0.25720534,0.0075
20240115 08:28:35,-0.898265,-0.056077,2.509796,-0.271664,-0.123194,-0.026942,1.189186,-4.442944,-16.201248,15.652811,1.248678,-0.6213262,2.2817912,-0.17814657,-0.15640034,0.2086339,0.0075
20240115 08:28:35,-1.102449,-0.367273,2.577321,-0.136365,-0.109345,-0.028007,0.960358,-3.511887,-16.666214,18.898388,1.1975706,-1.0419816,2.5238209,-0.08976111,-0.12365917,0.10778592,0.0075
20240115 08:28:35,-1.29072,-0.440893,2.206247,0.052202,-0.001745,0.007149,0.881477,-3.425095,-16.538681,21.217203,0.8648047,-1.1424098,2.4209414,0.039496493,0.006476457,-0.034950376,0.0075
20240115 08:28:35,-1.221564,-0.525332,1.630482,0.209874,0.120771,0.063613,1.090187,-5.296268,-16.414459,22.139273,0.56743824,-1.0941154,2.022949,0.15174802,0.13941956,-0.15502292,0.0075
20240115 08:28:35,-1.023409,-0.71976,1.243864,0.317474,0.187887,0.131795,1.294964,-4.244671,-16.347107,17.347973,0.49676424,-1.1315093,1.6609728,0.25136885,0.20416197,-0.2115727,0.0075
20240115 08:28:35,-0.930224,-0.827108,1.0869,0.283383,0.11864,0.141383,0.992996,-5.207626,-16.555191,15.499835,0.46369737,-1.1314487,1.497674,0.25580192,0.12736747,-0.16804749,0.0075
20240115 08:28:35,-0.46359,-1.080983,0.690099,0.191763,0.019562,0.108358,1.550301,-4.69878,-16.180954,8.967589,0.47024143,-1.2240465,0.8640243,0.19306137,0.023038883,-0.09894866,0.0075
20240115 08:28:35,-0.351374,-1.11776,0.497537,0.102273,-0.049685,0.059352,1.337982,-4.71154,-16.450165,11.322031,0.40331098,-1.2216184,0.68689203,0.11403189,-0.04684954,-0.04676907,0.0075
20240115 08:28:35,-0.421631,-1.116501,0.448577,0.063921,-0.060339,0.040175,1.329399,-4.998451,-16.163589,14.66701,0.3588427,-1.2328084,0.7487335,0.08039324,-0.057897836,-0.023066163,0.0075
20240115 08:28:35,-0.634374,-0.941881,0.470877,0.03196,-0.023051,0.045502,0.923462,-5.217709,-16.15332,18.212557,0.23080872,-1.104857,0.9397998,0.059304584,-0.027516505,0.0015070848,0.0075
20240115 08:28:35,-0.75954,-0.836224,0.510814,0.054333,0.099464,0.107292,1.318634,-6.035435,-16.22998,18.890745,0.19054103,-1.0439982,1.0493262,0.091793105,0.078101106,-0.0071466602,0.0075
20240115 08:28:35,-0.825871,-0.902155,0.401805,0.056463,0.19641,0.166952,1.761581,-6.011768,-15.423279,14.558997,0.066340804,-1.0818688,1.028651,0.12120327,0.16023901,0.0151859075,0.0075
20240115 08:28:35,-0.729572,-0.981795,0.411582,0.054333,0.227305,0.19252,1.373573,-6.040985,-15.425232,15.027656,0.12698808,-1.1369632,0.9691741,0.13821475,0.18797654,0.025666706,0.0075
20240115 08:28:35,-0.521643,-1.145569,0.459628,0.026634,0.260331,0.218088,1.344494,-7.076115,-15.759872,10.94561,0.24592936,-1.2537568,0.8120619,0.14952293,0.2244326,0.07334962,0.0075
20240115 08:28:35,-0.352943,-1.351242,0.572995,0.017046,0.252874,0.215958,1.49509,-6.402756,-15.936295,6.3449554,0.42271483,-1.439712,0.70752996,0.1506364,0.22391005,0.0957205,0.0075
20240115 08:28:35,-0.192145,-1.421697,0.679767,0.01385,0.223044,0.202108,1.582935,-6.394527,-16.069931,1.7828078,0.5688291,-1.4890647,0.5792254,0.14992905,0.20347378,0.10289961,0.0075
20240115 08:28:35,0.020849,-1.451406,0.666798,0.037287,0.185757,0.153102,1.521984,-6.117695,-15.954636,0.2821834,0.673784,-1.4969059,0.36716214,0.13148703,0.17462993,0.05614719,0.0075
20240115 08:28:35,0.12983,-1.467073,0.470979,0.046875,0.181495,0.132861,1.715607,-5.911198,-16.234131,-1.7716922,0.5654036,-1.4888573,0.13150647,0.12295002,0.173645,0.038953677,0.0075
20240115 08:28:35,0.136627,-1.320199,0.15733,0.050071,0.19428,0.07107,1.591133,-5.91573,-16.636993,1.6808867,0.33312365,-1.3185081,-0.012042731,0.0675449,0.18913877,-0.007849168,0.0075
20240115 08:28:35,0.085129,-1.221826,0.124034,0.044745,0.204933,0.060417,1.812416,-5.807949,-16.373871,1.3734536,0.2808075,-1.2198534,0.007083319,0.05242069,0.1997348,-0.009329762,0.0075
20240115 08:28:35,0.04873,-1.044055,0.085504,0.017046,0.21026,0.050829,2.024734,-5.795189,-16.10466,0.5539254,0.2148745,-1.041315,0.007858105,0.028341617,0.20389958,0.010705844,0.0075
20240115 08:28:35,0.008047,-1.022991,0.11596,-0.025568,0.177234,0.048698,2.155598,-6.253826,-16.341354,0.96942616,0.22601375,-1.026099,0.06251287,0.006389804,0.1676617,0.045620598,0.0075
20240115 08:28:35,-0.093887,-0.877775,0.170403,-0.090555,0.123967,0.050829,1.971714,-6.749081,-15.507034,2.6965022,0.21134491,-0.8973187,0.19027257,-0.020726088,0.108385034,0.10071154,0.0075
20240115 08:28:35,-0.139035,-0.790162,0.228912,-0.129972,0.066438,0.072136,1.980679,-6.65406,-15.513138,2.861314,0.2253474,-0.8225061,0.25911465,-0.016565785,0.045163848,0.1466999,0.0075
20240115 08:28:35,-0.099979,-0.78007,0.345829,-0.15341,0.014236,0.092377,2.156754,-6.829491,-15.499939,-2.5275476,0.31184572,-0.81363606,0.24960648,-0.0047464073,-0.0035393666,0.17933714,0.0075
20240115 08:28:35,0.078701,-0.840915,0.312252,-0.164064,-0.036901,0.089181,2.104382,-6.265755,-15.671234,-4.010805,0.36892438,-0.85741204,0.06655934,-0.008401953,-0.051130354,0.1849404,0.0075
20240115 08:28:35,0.24824,-0.846226,0.239673,-0.159802,-0.068861,0.06894,1.784752,-5.709229,-16.916489,-2.5297227,0.3874132,-0.8495309,-0.10713324,-0.019859906,-0.079312846,0.170747,0.0075
20240115 08:28:35,0.296265,-0.758576,0.146472,-0.132103,-0.069927,0.045502,2.075951,-5.783257,-16.77478,-4.9673414,0.3180877,-0.75547504,-0.21417561,-0.024329223,-0.07654306,0.13370192,0.0075
20240115 08:28:35,0.265108,-0.653252,0.001164,-0.093751,-0.044358,0.02526,1.926769,-5.322769,-16.80632,-2.7014325,0.17322807,-0.6411783,-0.24713671,-0.019479964,-0.049550273,0.09343664,0.0075
20240115 08:28:35,0.239625,-0.535582,-0.211851,-0.053267,0.017432,0.012476,2.27137,-4.634792,-16.981781,-1.8704613,-0.023959205,-0.50018287,-0.31869352,-0.015434086,0.01346556,0.053226296,0.0075
20240115 08:28:35,0.122689,-0.379291,-0.291374,-0.022372,0.087745,0.007149,2.199654,-5.394951,-16.932877,0.06953759,-0.15701674,-0.33519596,-0.24219494,-0.014053234,0.08485093,0.023115722,0.0075
20240115 08:28:35,0.032997,-0.22924,-0.310972,-0.01598,0.121836,0.008215,1.961594,-6.268436,-16.342331,1.254445,-0.23251821,-0.18772274,-0.16745275,-0.014605316,0.118762895,0.016763344,0.0075
20240115 08:28:35,-0.03627,-0.184827,-0.368441,-0.043679,0.127163,0.00928,2.593674,-5.637012,-17.850952,1.0121262,-0.31490663,-0.13360709,-0.13328288,-0.029422041,0.121182725,0.04211761,0.0075
20240115 08:28:35,-0.119973,-0.220094,-0.27607,-0.138495,0.041935,0.007149,2.296848,-5.483589,-16.792145,2.1049635,-0.26535144,-0.18738487,-0.023615375,-0.06637078,0.029596685,0.124120146,0.0075
20240115 08:28:35,-0.131931,-0.304896,-0.108468,-0.197089,-0.046489,-0.012027,2.421707,-5.670952,-16.108826,0.7211703,-0.117344126,-0.29674652,0.061696563,-0.10276672,-0.059813578,0.16479163,0.0075
20240115 08:28:35,-0.141739,-0.410351,0.067116,-0.221592,-0.084842,-0.023746,2.376881,-6.146049,-16.078262,1.673599,0.04290816,-0.42622024,0.16224381,-0.12122619,-0.09901965,0.17966294,0.0075
20240115 08:28:35,-0.241738,-0.491842,0.216457,-0.237573,-0.151959,-0.043987,2.100658,-6.248276,-17.146088,4.953964,0.12788981,-0.5394109,0.3415081,-0.13907236,-0.16517694,0.1856703,0.0075
20240115 08:28:35,-0.316306,-0.548875,0.324165,-0.212004,-0.176462,-0.053575,2.348831,-5.855442,-16.901337,3.7556193,0.18272175,-0.6198225,0.4598122,-0.1314207,-0.18594177,0.15637131,0.0075
20240115 08:28:35,-0.2902,-0.571313,0.41277,-0.144887,-0.180723,-0.06636,1.997452,-5.888359,-16.366791,4.2170076,0.2630077,-0.64790946,0.49076268,-0.10844749,-0.18209714,0.09254107,0.0075
20240115 08:28:35,-0.225101,-0.554183,0.388181,-0.051137,-0.175396,-0.075948,1.751083,-5.33923,-16.539063,4.0268445,0.27520236,-0.61599076,0.41804484,-0.06820493,-0.16774136,0.009300388,0.0075
20240115 08:28:35,-0.075597,-0.520093,0.187879,0.039418,-0.169004,-0.087666,1.99707,-5.696468,-16.647263,-0.6221192,0.17786004,-0.53925604,0.15411192,-0.0408082,-0.15727593,-0.07769592,0.0075
20240115 08:28:35,0.097002,-0.43961,-0.253359,0.100143,-0.137044,-0.108973,1.890526,-5.51096,-17.062347,-0.51248425,-0.13842651,-0.4093346,-0.20476721,-0.037365586,-0.12151051,-0.13968922,0.0075
20240115 08:28:35,0.20575,-0.323483,-0.676616,0.129972,-0.09443,-0.129215,1.945084,-5.324619,-16.538086,-0.8267932,-0.49363804,-0.2476161,-0.47227037,-0.053138584,-0.07574152,-0.17272252,0.0075
20240115 08:28:35,0.200632,-0.232447,-0.967685,0.122515,-0.058208,-0.137738,1.73315,-5.52927,-16.52684,0.24379918,-0.77904814,-0.12699887,-0.56986403,-0.07090016,-0.03901639,-0.16721615,0.0075
20240115 08:28:35,0.195429,-0.16686,-1.08026,0.076705,-0.047554,-0.154783,1.572052,-5.530102,-17.466171,2.734417,-0.88747597,-0.029333353,-0.60284066,-0.10514612,-0.025206098,-0.13066918,0.0075
20240115 08:28:35,0.079434,-0.099017,-0.998443,0.017046,-0.063535,-0.166502,1.741348,-5.050472,-17.093887,4.5750976,-0.85122246,0.05708956,-0.47675624,-0.13335848,-0.036609843,-0.08143493,0.0075
20240115 08:28:35,-0.046092,-0.05741,-0.761571,-0.023438,-0.101887,-0.165437,1.960823,-5.884659,-16.90329,4.505976,-0.68796813,0.059640616,-0.28270996,-0.14117265,-0.0761005,-0.046272334,0.0075
20240115 08:28:35,-0.087318,-0.014153,-0.55988,-0.049006,-0.148763,-0.166502,1.767204,-6.091156,-16.623779,6.3767114,-0.53023326,0.0731159,-0.16471186,-0.14346737,-0.12214563,-0.021238714,0.0075
20240115 08:28:35,-0.178329,0.16855,-0.499166,-0.047941,-0.169004,-0.156914,1.803066,-5.711079,-16.648239,7.229274,-0.54810923,0.23961098,-0.06621495,-0.12860852,-0.14141195,-0.015858851,0.0075
20240115 08:28:35,-0.189214,0.254849,-0.466928,-0.028764,-0.162612,-0.140934,1.864403,-6.179794,-16.483063,6.193899,-0.5389724,0.31497422,-0.04278107,-0.10906038,-0.13767895,-0.027244244,0.0075
20240115 08:28:35,-0.091192,0.277682,-0.511768,-0.005327,-0.149828,-0.129215,1.494324,-6.018978,-16.497253,6.2515674,-0.53832924,0.34640312,-0.14625064,-0.09425154,-0.12792845,-0.04278244,0.0075
20240115 08:28:35,-0.024694,0.373307,-0.621102,0.025568,-0.125325,-0.123888,2.013195,-6.448395,-16.731979,4.3866405,-0.6272644,0.46555382,-0.24442473,-0.08041704,-0.101569146,-0.07024335,0.0075
20240115 08:28:35,-0.060061,0.498566,-0.660864,0.044745,-0.097626,-0.122823,1.9347,-6.553493,-16.32399,5.491415,-0.7035893,0.599112,-0.23145157,-0.07521029,-0.07122312,-0.08672111,0.0075
20240115 08:28:35,-0.115284,0.606356,-0.722402,0.057529,-0.088038,-0.115366,1.662197,-6.673203,-15.916977,7.878558,-0.8098644,0.7208707,-0.20961101,-0.06428188,-0.059578158,-0.09322631,0.0075
20240115 08:28:35,-0.157434,0.707848,-0.829369,0.050071,-0.089103,-0.106843,1.608795,-7.435211,-15.599838,9.136756,-0.95117253,0.84547424,-0.21163462,-0.059010275,-0.061055604,-0.081264004,0.0075
20240115 08:28:35,-0.168958,0.777446,-0.87882,0.022372,-0.093364,-0.09832,1.598679,-6.954563,-16.435135,10.20207,-1.0234044,0.9308032,-0.21827784,-0.060214914,-0.06769118,-0.050753713,0.0075
20240115 08:28:35,-0.202585,0.816397,-0.891917,-0.022372,-0.105083,-0.091928,1.667442,-6.560703,-17.397949,10.979524,-1.0627537,0.97514904,-0.19807974,-0.06723974,-0.083127424,-0.0055419058,0.0075
20240115 08:28:35,-0.27669,0.898911,-0.822839,-0.082032,-0.130652,-0.079144,1.333988,-6.403584,-16.875656,13.181721,-1.051979,1.0352463,-0.13522723,-0.07163902,-0.11584045,0.05727718,0.0075
20240115 08:28:35,-0.299599,0.875278,-0.578998,-0.13743,-0.159416,-0.069556,1.546307,-6.390827,-16.60643,10.657592,-0.82060903,0.9444358,-0.031280577,-0.08522269,-0.1536975,0.108840264,0.0075
20240115 08:28:35,-0.331856,0.794387,-0.297573,-0.174717,-0.199899,-0.06849,1.467045,-6.112144,-16.759369,10.922138,-0.567876,0.80139905,0.10448556,-0.0957119,-0.19807614,0.14421141,0.0075
20240115 08:28:35,-0.416071,0.784503,-0.022197,-0.189632,-0.21801,-0.063163,1.44873,-6.110294,-17.027618,12.187242,-0.3758764,0.72137606,0.2829887,-0.09596194,-0.21921724,0.16106726,0.0075
20240115 08:28:35,-0.450919,0.739065,0.232761,-0.171521,-0.21801,-0.057837,1.148571,-6.131283,-17.163208,11.861404,-0.15332256,0.6329505,0.4324939,-0.09076704,-0.21961717,0.145117,0.0075
20240115 08:28:36,-0.33547,0.649548,0.324316,-0.132103,-0.203095,-0.058902,0.885033,-6.155972,-16.762299,11.107575,0.0074115396,0.5549334,0.38706303,-0.08238055,-0.20207702,0.105887115,0.0075
20240115 08:28:36,-0.24283,0.438932,0.490843,-0.092685,-0.191376,-0.08234,1.246529,-6.603699,-16.461548,8.217326,0.22544795,0.34094408,0.42659533,-0.0898589,-0.1848602,0.051342037,0.0075
20240115 08:28:36,-0.205147,0.193829,0.715298,-0.056463,-0.209487,-0.129215,1.053291,-7.00209,-15.901566,8.775299,0.45724067,0.07867216,0.53897923,-0.10998208,-0.19449158,-0.004309319,0.0075
20240115 08:28:36,-0.245729,0.002776,0.911384,-0.003196,-0.245709,-0.183548,1.150105,-6.898842,-16.041321,9.819309,0.6087069,-0.15158138,0.7036556,-0.11674997,-0.21600343,-0.074673295,0.0075
20240115 08:28:36,-0.335949,-0.032401,0.956401,0.072444,-0.288323,-0.227227,1.043564,-6.713329,-16.456406,12.965406,0.59602314,-0.22747827,0.8026069,-0.0967014,-0.23684685,-0.14753506,0.0075
20240115 08:28:36,-0.437501,0.315946,0.873576,0.160868,-0.317088,-0.244273,0.832279,-5.400349,-17.214066,13.001036,0.44737297,0.11006974,0.7795277,-0.06508373,-0.25057977,-0.22410262,0.0075
20240115 08:28:36,-0.417391,0.48858,0.731905,0.253553,-0.332002,-0.232554,0.717155,-5.501751,-17.342575,13.141862,0.32517725,0.30747193,0.66273594,-0.011674076,-0.25848308,-0.29507762,0.0075
20240115 08:28:36,-0.269066,0.837276,0.366129,0.318539,-0.326676,-0.196332,0.73328,-6.253674,-17.427292,9.495884,0.07912332,0.7532502,0.34081337,0.018625766,-0.2704334,-0.34730503,0.0075
20240115 08:28:36,0.326316,1.193449,-0.258637,0.3228,-0.302173,-0.17396,0.726505,-5.598618,-17.068207,3.511005,-0.20039663,1.2218864,-0.43303126,-0.0016625077,-0.27474222,-0.35800123,0.0075
20240115 08:28:36,0.563636,1.271558,-0.423016,0.275925,-0.248905,-0.171829,0.505989,-6.090172,-16.77037,-1.6825081,-0.18186049,1.2758749,-0.6685948,-0.05073051,-0.24700262,-0.32359022,0.0075
20240115 08:28:36,0.808189,1.44461,-0.335039,0.16939,-0.199899,-0.193136,0.461166,-6.565269,-16.739792,-3.9632778,0.050042182,1.4283977,-0.8343909,-0.113598794,-0.20595397,-0.2379379,0.0075
20240115 08:28:36,0.850428,1.608047,0.12142,0.064986,-0.175396,-0.215508,0.452202,-6.660286,-16.733688,-3.3968635,0.504299,1.6036379,-0.6700536,-0.16786757,-0.17892765,-0.15708855,0.0075
20240115 08:28:36,0.80471,1.603743,0.764117,-0.020242,-0.164743,-0.236815,0.300835,-6.949879,-17.118195,-0.61652404,1.0446261,1.600815,-0.32293615,-0.21525492,-0.16270521,-0.09838302,0.0075
20240115 08:28:36,0.610534,1.459571,1.367708,-0.058594,-0.161547,-0.254926,0.707153,-6.922512,-16.848007,0.16563499,1.4293408,1.4211646,0.19396788,-0.241624,-0.15322855,-0.083347835,0.0075
20240115 08:28:36,0.375797,1.157069,1.730757,-0.057529,-0.111475,-0.264514,0.433887,-6.658436,-17.001938,4.2838387,1.5718713,1.0674783,0.6089988,-0.24412318,-0.09795154,-0.09573534,0.0075
20240115 08:28:36,0.20492,0.783124,2.113549,-0.019176,-0.027313,-0.276233,0.512383,-6.553341,-17.409927,7.210103,1.7409823,0.6197393,1.0357925,-0.22907488,-0.005883664,-0.14711091,0.0075
20240115 08:28:36,-0.099345,0.522865,2.540755,0.053267,0.05685,-0.275168,1.08543,-6.60453,-17.400879,9.08784,1.8199571,0.22017834,1.6166686,-0.18297917,0.09235997,-0.21931276,0.0075
20240115 08:28:36,-0.462242,0.307324,2.957811,0.156606,0.10479,-0.242142,0.425308,-6.945347,-16.715347,18.774227,1.8318598,-0.16034327,2.1342993,-0.089227766,0.15527864,-0.2914418,0.0075
20240115 08:28:36,-0.639323,0.178073,3.14662,0.279121,0.111182,-0.180352,0.442852,-6.563419,-17.008041,18.33998,1.8574324,-0.33733174,2.4281423,0.03823109,0.16845249,-0.34553534,0.0075
20240115 08:28:36,-0.561415,0.140924,3.01107,0.39844,0.07283,-0.111104,0.856331,-7.382999,-16.816467,15.30252,1.8856977,-0.3429759,2.2750716,0.16275254,0.1333214,-0.38628387,0.0075
20240115 08:28:36,-0.28863,0.141081,2.409851,0.47408,0.019562,-0.045053,0.784233,-7.951267,-17.048019,12.235269,1.7101896,-0.19011351,1.629002,0.24711426,0.0697214,-0.40773502,0.0075
20240115 08:28:36,0.066725,0.074078,1.682636,0.464492,-0.023051,-0.000308,0.880657,-7.656128,-17.468246,5.569743,1.4218616,-0.07278927,0.87019044,0.259662,0.0048230994,-0.38527367,0.0075
20240115 08:28:36,0.432829,-0.016001,1.04384,0.406963,-0.045424,0.015672,0.881042,-7.848019,-17.18779,1.0115726,1.1162374,-0.05750929,0.17037126,0.2265495,-0.033078916,-0.33960935,0.0075
20240115 08:28:36,0.669725,-0.155153,0.593916,0.30469,-0.049685,0.011411,0.290066,-7.986866,-17.184601,1.9209515,0.85404557,-0.16186951,-0.28033414,0.16394164,-0.044216968,-0.25728154,0.0075
20240115 08:28:36,0.67003,-0.3319,0.465399,0.175782,-0.046489,-0.005635,0.862728,-7.846169,-17.456024,1.3021703,0.7604751,-0.33478457,-0.33272403,0.0878607,-0.04035201,-0.1532531,0.0075
20240115 08:28:36,0.473393,-0.538371,0.699243,0.07564,-0.057143,-0.013092,0.678455,-8.149532,-16.902176,6.531074,0.8885666,-0.56979865,0.01709631,0.035512004,-0.05130629,-0.06688457,0.0075
20240115 08:28:36,0.219549,-0.751993,1.04339,-0.002131,-0.084842,0.002888,0.438477,-8.063576,-17.713989,11.764933,1.0528756,-0.8442538,0.5042278,0.010605231,-0.084526435,0.013432647,0.0075
20240115 08:28:36,0.072922,-1.108253,1.270773,-0.035156,-0.12426,0.028456,0.723282,-7.674435,-16.932739,10.138783,1.1550814,-1.2259746,0.8307382,0.013718117,-0.12901981,0.05838576,0.0075
20240115 08:28:36,0.095024,-1.501009,1.404273,-0.02983,-0.169004,0.03911,0.544636,-8.057194,-17.579391,11.577848,1.2826705,-1.6196777,0.9946462,0.027615808,-0.17391095,0.06899847,0.0075
20240115 08:28:36,0.150315,-1.781011,1.339711,0.0,-0.192442,0.041241,0.359596,-7.976784,-17.586487,10.028676,1.2689108,-1.870023,0.91970164,0.04731673,-0.19472542,0.047116876,0.0075
20240115 08:28:36,0.360362,-1.956752,1.072879,0.051137,-0.179658,0.027391,0.316574,-7.509918,-17.483398,5.975819,1.1715523,-1.9958599,0.5097048,0.063322246,-0.1784445,-0.011381257,0.0075
20240115 08:28:36,0.588964,-2.012345,0.814057,0.1076,-0.146632,0.005019,0.448208,-8.352337,-17.159164,-0.56209165,1.0382218,-2.0180357,0.013886452,0.07175733,-0.14529838,-0.08334993,0.0075
20240115 08:28:36,0.818226,-2.029313,0.556017,0.147018,-0.117867,-0.031203,0.562565,-7.867157,-17.591614,-5.4274907,0.8948425,-2.0293965,-0.45433062,0.05834696,-0.120110296,-0.14408058,0.0075
20240115 08:28:36,0.996398,-1.932604,0.337534,0.154475,-0.106149,-0.073817,0.41312,-9.116188,-16.573761,-8.452615,0.7562559,-1.9445535,-0.79603714,0.021337897,-0.11365689,-0.17757267,0.0075
20240115 08:28:36,1.108814,-1.764113,0.215399,0.142757,-0.114671,-0.113235,0.163792,-8.933361,-17.659958,-8.409704,0.670665,-1.7903262,-0.9567223,-0.024853937,-0.12714833,-0.18974237,0.0075
20240115 08:28:36,1.180987,-1.611588,0.096535,0.110796,-0.137044,-0.154783,0.420547,-8.253616,-17.701767,-9.728798,0.5867676,-1.6491549,-1.1004479,-0.08339408,-0.15184401,-0.18609996,0.0075
20240115 08:28:36,1.193431,-1.43366,-0.116145,0.057529,-0.144501,-0.193136,0.463184,-8.528595,-18.085312,-8.242997,0.3985049,-1.476274,-1.1978071,-0.1484348,-0.157338,-0.15374053,0.0075
20240115 08:28:36,1.010776,-1.224722,-0.311556,-0.001065,-0.104018,-0.218704,0.096062,-8.001476,-17.185577,-2.6504996,0.17317382,-1.2431791,-1.0650461,-0.1957717,-0.10882089,-0.10403443,0.0075
20240115 08:28:36,0.868523,-1.128301,-0.300828,-0.060725,-0.041162,-0.233619,-0.118061,-8.9562,-17.527298,2.9074676,0.18177453,-1.1107626,-0.87778866,-0.23287006,-0.03674754,-0.058711827,0.0075
20240115 08:28:36,0.629971,-1.039003,0.037665,-0.106535,0.002517,-0.241077,0.235889,-8.365093,-17.428375,6.350024,0.4280137,-1.0118794,-0.46258786,-0.26107776,0.014903758,-0.031617425,0.0075
20240115 08:28:36,0.369751,-0.945604,0.376635,-0.134234,0.001452,-0.233619,0.384689,-8.633694,-17.677322,11.61819,0.6246649,-0.95292383,-0.011032626,-0.2673894,0.018878948,-0.010004774,0.0075
20240115 08:28:36,0.118492,-0.856296,0.705648,-0.142757,-0.03264,-0.208051,0.323738,-8.356861,-17.562027,15.177078,0.7651129,-0.9323112,0.40375906,-0.2451823,-0.016245142,0.012073912,0.0075
20240115 08:28:36,-0.026544,-0.772001,0.844108,-0.131038,-0.090168,-0.169698,0.439243,-8.447357,-17.153061,16.19395,0.7911616,-0.890055,0.5946309,-0.19783805,-0.07623158,0.03180641,0.0075
20240115 08:28:36,-0.031574,-0.724781,0.81804,-0.108666,-0.146632,-0.124954,0.289028,-9.312607,-16.696152,17.16265,0.7610009,-0.83689106,0.5752633,-0.14094156,-0.13651143,0.048678353,0.0075
20240115 08:28:36,0.083945,-0.678992,0.590204,-0.089489,-0.183919,-0.087666,0.155975,-9.604042,-16.812424,15.846223,0.63478947,-0.7449026,0.32230663,-0.0948981,-0.17688261,0.058438897,0.0075
20240115 08:28:36,0.139694,-0.617607,0.218288,-0.082032,-0.190311,-0.056771,0.306576,-8.930679,-16.988846,13.505643,0.3435461,-0.62907577,0.054119878,-0.062271863,-0.18632646,0.06607926,0.0075
20240115 08:28:36,0.228519,-0.523432,-0.094841,-0.094816,-0.17007,-0.025876,0.445637,-8.910522,-17.792603,10.323703,0.08899928,-0.49093226,-0.20225361,-0.045121096,-0.17132857,0.08634116,0.0075
20240115 08:28:36,0.394702,-0.500556,-0.301045,-0.127842,-0.133848,-0.009896,0.093872,-8.751549,-17.538544,10.688343,-0.026671812,-0.43880305,-0.44383758,-0.05221367,-0.13915493,0.12047884,0.0075
20240115 08:28:36,0.357468,-0.47403,-0.263008,-0.156606,-0.11041,0.002888,0.093105,-8.367775,-18.099487,10.6220665,-0.008176148,-0.41865528,-0.39594227,-0.058645815,-0.11929298,0.14909637,0.0075
20240115 08:28:36,0.298679,-0.47976,-0.1247,-0.185371,-0.102953,0.010346,-0.092316,-8.095474,-18.387039,12.42179,0.095504865,-0.4400046,-0.26991037,-0.06890738,-0.115689576,0.17760585,0.0075
20240115 08:28:36,0.215592,-0.513173,0.104522,-0.193893,-0.113606,0.016738,-0.337154,-8.313904,-17.437424,15.402094,0.26406008,-0.5046469,-0.06588988,-0.06933601,-0.1290797,0.19065122,0.0075
20240115 08:28:36,0.141183,-0.508276,0.270934,-0.166194,-0.130652,0.026326,-0.232151,-7.731857,-18.144241,15.410743,0.37135893,-0.52715904,0.083515465,-0.04564887,-0.14624302,0.1733724,0.0075
20240115 08:28:36,0.089147,-0.476197,0.243462,-0.126776,-0.143436,0.03911,-0.047112,-7.812267,-18.137146,14.454921,0.31770757,-0.49630097,0.10390193,-0.0116238,-0.15728772,0.1466256,0.0075
20240115 08:28:36,0.138567,-0.427114,0.131372,-0.069248,-0.14024,0.051894,-0.045956,-8.387932,-17.295731,13.467054,0.23562348,-0.42921588,-0.0081682205,0.028192353,-0.15031156,0.10128144,0.0075
20240115 08:28:36,0.246724,-0.347352,-0.085563,-0.020242,-0.139174,0.056155,-0.486717,-7.661522,-17.749451,13.663339,0.08170278,-0.31812325,-0.2188954,0.056622304,-0.14593703,0.05860429,0.0075
20240115 08:28:36,0.323689,-0.224448,-0.438983,0.009588,-0.109345,0.051894,-0.407455,-7.940201,-17.596497,12.091316,-0.22998269,-0.15442039,-0.45575213,0.06325298,-0.11391479,0.022724137,0.0075
20240115 08:28:36,0.390109,-0.067436,-0.769415,0.033026,-0.065665,0.057221,0.11142,-8.369621,-17.831238,8.570425,-0.5412132,0.03285017,-0.6546058,0.0722506,-0.0698093,-0.0041713007,0.0075
20240115 08:28:36,0.436592,0.050179,-1.011154,0.036222,-0.011333,0.062548,0.165207,-7.799503,-17.86792,7.3447423,-0.7736904,0.16778597,-0.7827604,0.07235218,-0.016025107,-0.009814454,0.0075
20240115 08:28:36,0.470894,0.086344,-1.125408,0.018111,0.039804,0.063613,-0.117023,-7.630455,-18.015747,8.126018,-0.8768055,0.21196285,-0.8513399,0.06167658,0.034160748,0.004195947,0.0075
20240115 08:28:36,0.432964,0.166314,-1.097195,-0.012784,0.073895,0.062548,-0.425385,-8.130238,-17.584274,11.566732,-0.86938816,0.3167734,-0.8135253,0.04401297,0.06519295,0.029121816,0.0075
20240115 08:28:36,0.286552,0.235774,-0.952369,-0.055398,0.078157,0.065744,-0.381329,-7.271366,-18.175781,13.582954,-0.7893333,0.3915354,-0.6456971,0.02665886,0.06395228,0.068755254,0.0075
20240115 08:28:36,0.159086,0.254409,-0.837986,-0.102273,0.057915,0.075332,-0.151848,-6.684792,-18.479721,14.110002,-0.7337508,0.4012492,-0.4960252,0.017287947,0.036970884,0.11731707,0.0075
20240115 08:28:36,0.094399,0.301314,-0.646766,-0.138495,0.025955,0.093443,0.068016,-7.710865,-18.008652,14.018495,-0.5882534,0.4105552,-0.378385,0.021325875,-0.00049796794,0.16107775,0.0075
20240115 08:28:36,0.055499,0.194004,-0.494893,-0.15341,-0.011333,0.107292,-0.232151,-7.731857,-18.144241,15.073266,-0.44620135,0.273902,-0.27830952,0.03076709,-0.039908007,0.18438675,0.0075
20240115 08:28:36,0.13373,0.089725,-0.408971,-0.139561,-0.030509,0.107292,0.022808,-7.994076,-18.258545,11.929508,-0.31579363,0.15175086,-0.30483046,0.037648693,-0.053526863,0.17435187,0.0075
20240115 08:28:36,0.187419,0.049185,-0.373912,-0.09162,-0.023051,0.099835,-0.574562,-7.66975,-17.615814,13.884996,-0.2561516,0.106899545,-0.33323675,0.051333204,-0.04091091,0.12735769,0.0075
20240115 08:28:36,0.175237,0.078063,-0.460899,-0.025568,0.008909,0.096639,-0.319607,-7.931976,-17.730133,12.505251,-0.3485406,0.14532977,-0.3569935,0.074662395,-0.0047814013,0.06241137,0.0075
20240115 08:28:36,0.205687,0.249699,-0.625404,0.035156,0.068568,0.1009,-0.038147,-7.717247,-18.143265,10.513117,-0.5169957,0.33588582,-0.45219386,0.097215265,0.057348635,0.002365943,0.0075
20240115 08:28:36,0.238678,0.394529,-0.853706,0.069248,0.141012,0.106227,-0.399639,-7.269516,-18.444016,11.364347,-0.7408708,0.5075569,-0.56761074,0.106419556,0.13023953,-0.035133567,0.0075
20240115 08:28:36,0.295755,0.475303,-0.9323,0.085228,0.203868,0.11475,0.049702,-7.709015,-18.276886,9.429392,-0.80422676,0.59748137,-0.64682966,0.1129116,0.19249983,-0.049269862,0.0075
20240115 08:28:36,0.330766,0.469427,-0.988171,0.064986,0.230501,0.112619,0.022808,-7.994076,-18.258545,7.9016557,-0.8364748,0.57794744,-0.69398624,0.10520348,0.2205756,-0.030748218,0.0075
20240115 08:28:36,0.35496,0.448001,-0.883251,0.034091,0.231567,0.106227,0.225777,-7.884445,-18.263687,8.09718,-0.7192625,0.55787826,-0.69129103,0.085089795,0.21987411,-0.003229797,0.0075
20240115 08:28:36,0.297998,0.461516,-0.654564,0.020242,0.200672,0.101965,0.288528,-7.219307,-18.306473,8.53186,-0.5270549,0.5497858,-0.56219834,0.0771745,0.18813255,0.010252215,0.0075
20240115 08:28:36,0.199285,0.444374,-0.492033,0.01598,0.161254,0.097704,0.350632,-8.0718,-17.580368,9.047341,-0.41555965,0.5112429,-0.41133726,0.07515508,0.14880905,0.014874369,0.0075
20240115 08:28:36,0.218674,0.558729,-0.468754,0.03196,0.130359,0.105162,0.208229,-8.266373,-17.970993,9.145255,-0.40068564,0.6200699,-0.42426732,0.09311068,0.11871518,0.0046356134,0.0075
20240115 08:28:36,0.322069,0.662248,-0.491933,0.057529,0.121836,0.121142,0.473301,-9.009239,-17.25,4.394776,-0.3724978,0.70748705,-0.51006305,0.12447805,0.11417745,-0.008693766,0.0075
20240115 08:28:36,0.430889,0.802668,-0.630256,0.078836,0.136751,0.131795,0.295692,-8.066254,-18.385086,4.008853,-0.47165316,0.8524448,-0.65711,0.14271112,0.13001925,-0.027107831,0.0075
20240115 08:28:36,0.57061,0.896352,-0.701891,0.087359,0.181495,0.14671,0.358448,-7.401119,-18.427887,0.5501028,-0.46619445,0.9192752,-0.79128075,0.16391465,0.17861177,-0.028155826,0.0075
20240115 08:28:36,0.758866,0.917692,-0.719636,0.088424,0.243286,0.155233,0.631714,-7.665188,-18.273956,-5.06673,-0.3549584,0.88516545,-0.9414531,0.18454143,0.24688175,-0.016219273,0.0075
20240115 08:28:36,0.896164,0.912568,-0.593439,0.093751,0.298684,0.147775,0.674351,-7.94017,-18.657501,-5.4559374,-0.17019129,0.879724,-1.0213166,0.18237893,0.30209956,-0.018625665,0.0075
20240115 08:28:36,0.795182,0.931244,-0.507277,0.096947,0.372193,0.134991,1.028301,-7.34906,-18.558594,-4.534972,-0.14497694,0.9274416,-0.901427,0.16406947,0.37260196,-0.023715328,0.0075
20240115 08:28:36,0.688822,1.064454,-0.056912,0.115058,0.421199,0.140318,0.816753,-7.745598,-18.266861,-1.8460078,0.22285935,1.0716225,-0.63218796,0.16788861,0.4194422,-0.03813759,0.0075
20240115 08:28:36,0.646177,1.139132,0.391759,0.134234,0.413741,0.145645,1.238434,-8.08638,-18.642334,-4.318756,0.6298052,1.1382724,-0.35610154,0.18570575,0.41273096,-0.038507,0.0075
20240115 08:28:36,0.795391,1.277185,0.788213,0.157672,0.329579,0.143514,1.108334,-8.011513,-17.844696,-8.183001,1.1074052,1.287546,-0.25179902,0.21059829,0.331201,-0.050725378,0.0075
20240115 08:28:36,0.99825,1.387567,0.795604,0.181109,0.233697,0.111554,1.202957,-8.658348,-18.337418,-10.500131,1.233432,1.4003547,-0.42112526,0.19364272,0.23431896,-0.09249593,0.0075
20240115 08:28:36,1.051281,1.425382,0.529078,0.186436,0.169777,0.075332,1.467644,-9.209324,-17.896912,-12.3146,1.0105757,1.4243475,-0.6024841,0.15751871,0.1686638,-0.122055635,0.0075
20240115 08:28:36,1.002483,1.542336,0.174409,0.174717,0.174038,0.03911,1.738991,-8.513947,-19.145325,-9.603864,0.6017457,1.5333039,-0.75515044,0.10983713,0.17280252,-0.1344309,0.0075
20240115 08:28:36,0.749525,1.712481,-0.194779,0.140626,0.241155,0.020999,1.792782,-7.943829,-19.182007,-3.3153474,0.017378926,1.7324357,-0.73227054,0.06031497,0.24241732,-0.11801375,0.0075
20240115 08:28:36,0.312602,1.790961,-0.221943,0.074574,0.318925,0.032718,1.670879,-7.390175,-18.951431,4.9002624,-0.33998412,1.8194461,-0.43090183,0.012684459,0.31480336,-0.06700603,0.0075
20240115 08:28:36,-0.112478,1.678693,-0.054145,-0.02983,0.343428,0.070005,1.793549,-8.32761,-18.621078,10.869984,-0.45182058,1.6332268,-0.047313266,-0.023148589,0.31618708,0.028878745,0.0075
20240115 08:28:36,-0.479616,1.411219,0.24684,-0.164064,0.319991,0.110488,1.838375,-7.852512,-18.651642,15.154221,-0.3604606,1.2316598,0.36661616,-0.060521953,0.25859857,0.15639313,0.0075
20240115 08:28:36,-0.769843,0.903809,0.862336,-0.288709,0.237959,0.153102,2.138535,-7.831524,-18.516052,14.611315,0.08804685,0.5589651,0.9740753,-0.08267681,0.15188026,0.29165345,0.0075
20240115 08:28:36,-0.825491,0.330531,1.583191,-0.344107,0.119705,0.183997,1.75769,-8.707687,-18.596619,16.252699,0.6752759,-0.10683936,1.5143236,-0.08546658,0.030527294,0.36152476,0.0075
20240115 08:28:36,-0.819242,-0.182306,2.214309,-0.327062,-0.012398,0.193585,2.208836,-8.205223,-18.356979,11.366111,1.156635,-0.6530849,2.048165,-0.064003736,-0.08882082,0.37399516,0.0075
20240115 08:28:36,-0.675971,-0.52814,2.482786,-0.235442,-0.130652,0.190389,2.005867,-8.314854,-18.351852,8.73034,1.4637089,-0.9307718,2.1778529,0.003355503,-0.18158108,0.31416684,0.0075
20240115 08:28:36,-0.39166,-0.760527,2.295192,-0.099077,-0.196703,0.178671,1.732597,-8.050777,-18.505783,5.6761923,1.5710487,-1.0368408,1.8165406,0.09308849,-0.2230627,0.20269144,0.0075
20240115 08:28:36,-0.122767,-0.766259,1.689273,0.026634,-0.149828,0.148841,1.687389,-8.333988,-18.755676,3.7385936,1.3425884,-0.9373105,1.1405787,0.1489651,-0.16146637,0.073775485,0.0075
20240115 08:28:36,-0.035143,-0.693708,1.208592,0.134234,-0.021986,0.121142,1.20219,-8.27457,-18.898361,5.623336,1.0321705,-0.80944383,0.7555478,0.17758486,-0.024526868,-0.039939642,0.0075
20240115 08:28:36,-0.003767,-0.573155,0.956419,0.216266,0.136751,0.097704,1.872429,-8.414394,-18.748581,2.7562015,0.8459723,-0.6697395,0.55105966,0.18658131,0.14065729,-0.12880258,0.0075
20240115 08:28:37,-0.142589,-0.463042,1.01815,0.251422,0.252874,0.067874,2.260437,-8.385178,-18.746628,5.628487,0.811091,-0.61698055,0.7183589,0.16124903,0.2641816,-0.18271828,0.0075
20240115 08:28:37,-0.504078,-0.373363,1.290635,0.249291,0.279507,0.059352,1.880627,-7.9356,-19.315659,12.735697,0.79180527,-0.66312176,1.1942354,0.14240748,0.29431176,-0.20421709,0.0075
20240115 08:28:37,-0.735066,-0.376602,1.609458,0.221592,0.209194,0.064678,1.898937,-7.93745,-19.047409,14.670739,0.87911177,-0.7792995,1.5806421,0.14336056,0.22262132,-0.17133383,0.0075
20240115 08:28:37,-0.845705,-0.442922,1.653831,0.176848,0.082418,0.06894,1.872044,-8.222511,-19.029068,15.755632,0.86688304,-0.8817327,1.7013487,0.14294183,0.09232886,-0.11548683,0.0075
20240115 08:28:37,-0.844868,-0.43521,1.497091,0.127842,-0.024117,0.074266,2.321003,-8.470119,-19.142395,13.76491,0.7673459,-0.85150635,1.5975739,0.1380904,-0.019617457,-0.057925284,0.0075
20240115 08:28:37,-0.829931,-0.451852,1.259658,0.099077,-0.074188,0.094508,2.091526,-9.056698,-18.83847,16.066242,0.6252694,-0.8336159,1.4422522,0.14742745,-0.077198066,-0.01814995,0.0075
20240115 08:28:37,-0.818528,-0.467544,0.991791,0.087359,-0.056077,0.132861,1.969624,-8.50304,-18.607864,16.182043,0.44526032,-0.79316664,1.2816758,0.16746373,-0.07066181,0.00675714,0.0075
20240115 08:28:37,-0.759408,-0.523844,0.812659,0.088424,-0.000679,0.181867,2.172207,-8.201523,-18.893478,13.370306,0.36347675,-0.78527236,1.1315787,0.19591214,-0.027479436,0.02123876,0.0075
20240115 08:28:37,-0.611206,-0.620959,0.577146,0.09162,0.082418,0.230873,1.657925,-9.177235,-19.370789,14.492902,0.2762292,-0.79522425,0.8966972,0.22234917,0.045357447,0.029749438,0.0075
20240115 08:28:37,-0.42529,-0.78506,0.474256,0.082032,0.172973,0.259637,1.657539,-8.985344,-19.65126,9.556194,0.2930354,-0.8874499,0.6774891,0.23278885,0.13735129,0.05083286,0.0075
20240115 08:28:37,-0.226156,-0.967378,0.526411,0.058594,0.252874,0.267094,1.472885,-9.096825,-19.377884,7.5987573,0.43074083,-1.0416722,0.5476824,0.22042108,0.22111124,0.07907546,0.0075
20240115 08:28:37,-0.09864,-1.143414,0.830211,0.037287,0.277377,0.247918,1.790977,-8.885796,-19.254517,3.6068969,0.7312053,-1.2271918,0.6032748,0.19319844,0.25227594,0.103207,0.0075
20240115 08:28:37,-0.095332,-1.179231,1.195996,0.020242,0.261396,0.212762,2.26683,-8.848347,-19.3862,1.3142964,1.0003366,-1.2980769,0.82234395,0.15297689,0.23929228,0.11023505,0.0075
20240115 08:28:37,-0.217007,-1.183126,1.655135,0.025568,0.192149,0.181867,2.548679,-8.825508,-19.518845,0.28188774,1.2490602,-1.3594549,1.2232962,0.13586569,0.17410263,0.09526263,0.0075
20240115 08:28:37,-0.281904,-1.220747,1.867251,0.046875,0.08881,0.155233,1.958088,-9.15625,-19.235199,5.630833,1.376317,-1.4445035,1.4826363,0.13797043,0.07475165,0.05728515,0.0075
20240115 08:28:37,-0.315343,-1.259223,1.795995,0.078836,-0.003875,0.128599,1.801865,-9.750221,-17.858276,5.809678,1.3221275,-1.475745,1.4511858,0.1489218,-0.011066798,0.019662634,0.0075
20240115 08:28:37,-0.314332,-1.227235,1.459832,0.122515,-0.050751,0.108358,2.153625,-9.909191,-18.112335,4.61072,1.1190209,-1.4238487,1.1829302,0.1654446,-0.05220369,-0.030882545,0.0075
20240115 08:28:37,-0.384688,-1.156457,0.953643,0.165129,-0.029444,0.099835,2.248249,-10.556019,-18.605057,8.781904,0.75238997,-1.3331194,0.9429121,0.17810842,-0.027053138,-0.07965007,0.0075
20240115 08:28:37,-0.493909,-0.982656,0.543769,0.216266,0.035543,0.124338,2.646255,-9.106041,-19.097656,7.539897,0.37253955,-1.1151912,0.7711921,0.21040684,0.036391154,-0.12171614,0.0075
20240115 08:28:37,-0.492589,-0.97161,0.242139,0.240769,0.082418,0.155233,2.143127,-9.23666,-19.228119,9.618238,0.13859878,-1.0469556,0.6272373,0.23649509,0.07753931,-0.13861862,0.0075
20240115 08:28:37,-0.310421,-1.023582,-0.045027,0.233311,0.08881,0.171213,2.575958,-8.732342,-19.256729,3.9080546,-0.027557235,-1.026612,0.2846398,0.24557954,0.08046655,-0.1263876,0.0075
20240115 08:28:37,-0.144611,-1.086631,-0.278036,0.193893,0.039804,0.175474,2.107647,-9.808624,-18.923187,3.2308397,-0.16794649,-1.0479195,0.030563653,0.23746064,0.029304748,-0.09418227,0.0075
20240115 08:28:37,-0.027015,-1.116295,-0.448054,0.115058,-0.03264,0.159494,2.3895,-9.785782,-19.055832,-0.37503627,-0.29022738,-1.0615019,-0.178788,0.19653465,-0.04338914,-0.031997688,0.0075
20240115 08:28:37,0.07648,-1.111146,-0.527235,0.033026,-0.130652,0.136057,1.832195,-10.294632,-19.430084,0.251673,-0.34241182,-1.0567418,-0.29602233,0.14769489,-0.14050901,0.029676087,0.0075
20240115 08:28:37,0.170743,-1.035535,-0.580193,-0.035156,-0.197769,0.109423,1.895336,-9.821384,-19.192413,-1.4191561,-0.37435997,-0.9835142,-0.41236892,0.09826153,-0.20638059,0.076300345,0.0075
20240115 08:28:37,0.145143,-0.973937,-0.607954,-0.076705,-0.213749,0.090247,2.080753,-10.093685,-18.904846,-2.772208,-0.4204107,-0.9242071,-0.40816906,0.06394497,-0.22186448,0.10325105,0.0075
20240115 08:28:37,0.17394,-0.853575,-0.597955,-0.086293,-0.165808,0.07107,1.968971,-10.020672,-17.838959,-3.6763625,-0.41542104,-0.8105181,-0.43304685,0.037826568,-0.17218244,0.10369193,0.0075
20240115 08:28:37,0.168469,-0.831404,-0.492135,-0.070313,-0.090168,0.051894,1.966785,-10.770748,-18.191925,-4.3899355,-0.3253173,-0.7998905,-0.3930043,0.02075744,-0.09452254,0.0828214,0.0075
20240115 08:28:37,0.201498,-0.774095,-0.379864,-0.050071,-0.029444,0.02526,2.080372,-9.901794,-19.185318,-3.2403464,-0.20354831,-0.7421851,-0.36663938,0.0025280975,-0.03249152,0.05532973,0.0075
20240115 08:28:37,0.08381,-0.626849,-0.335124,-0.03196,0.007844,0.003953,1.85231,-9.354515,-19.08934,0.009046583,-0.20911016,-0.591218,-0.2214752,-0.011073738,0.0061157444,0.030486647,0.0075
20240115 08:28:37,-0.035467,-0.525969,-0.30583,-0.028764,0.012105,-0.009896,1.940159,-9.346287,-19.222977,0.8109482,-0.2368447,-0.49418187,-0.0983812,-0.022608586,0.011628602,0.021480996,0.0075
20240115 08:28:37,-0.024449,-0.453967,-0.276707,-0.039418,-0.023051,-0.021615,1.833996,-9.352665,-19.35759,0.44839877,-0.21784648,-0.4279121,-0.09662279,-0.03442372,-0.022702511,0.026195101,0.0075
20240115 08:28:37,-0.011797,-0.410091,-0.308942,-0.068182,-0.08058,-0.03653,2.091526,-9.056698,-18.83847,-1.0805551,-0.2470411,-0.38148057,-0.12449311,-0.05490022,-0.0798168,0.04541751,0.0075
20240115 08:28:37,0.018523,-0.350644,-0.391717,-0.108666,-0.144501,-0.047183,1.991756,-9.526245,-19.61264,-0.38522404,-0.3158801,-0.31398955,-0.1813349,-0.07539299,-0.144069,0.078642495,0.0075
20240115 08:28:37,0.037549,-0.339478,-0.457126,-0.160868,-0.194573,-0.059967,1.842964,-9.257648,-19.363693,0.3427896,-0.3675173,-0.29511437,-0.22338112,-0.10364477,-0.19483979,0.12185006,0.0075
20240115 08:28:37,0.022422,-0.295005,-0.455266,-0.200285,-0.208422,-0.070621,1.676239,-9.179085,-19.102539,1.0596352,-0.3741282,-0.25115812,-0.21056129,-0.12943682,-0.20945053,0.15324466,0.0075
20240115 08:28:37,-0.037682,-0.270579,-0.360864,-0.223723,-0.190311,-0.074882,1.436642,-9.285015,-19.633896,3.2132986,-0.31209177,-0.23436607,-0.116043776,-0.1450729,-0.19244778,0.17363942,0.0075
20240115 08:28:37,-0.079532,-0.223909,-0.186781,-0.224788,-0.151959,-0.079144,1.754734,-9.073986,-19.510529,2.2369678,-0.17824785,-0.20722975,-0.009492077,-0.15601224,-0.15453434,0.16742836,0.0075
20240115 08:28:37,-0.13359,-0.246812,0.018567,-0.201351,-0.118933,-0.080209,1.129314,-8.459057,-19.690872,4.873226,-0.022307916,-0.25432882,0.136309,-0.15373927,-0.12101699,0.14404985,0.0075
20240115 08:28:37,-0.0764,-0.299522,0.259334,-0.164064,-0.130652,-0.088732,1.102806,-8.936005,-19.392059,3.437365,0.21148036,-0.3232202,0.20320533,-0.1470451,-0.13043165,0.1027426,0.0075
20240115 08:28:37,-0.033439,-0.413449,0.301938,-0.127842,-0.167939,-0.119627,1.550995,-8.799839,-20.066345,0.64556026,0.2743654,-0.4354598,0.18183114,-0.15478612,-0.16396926,0.052128054,0.0075
20240115 08:28:37,0.036849,-0.423357,0.316396,-0.083097,-0.216945,-0.155849,1.226898,-8.73959,-19.269684,1.5918633,0.32279745,-0.44293275,0.12912077,-0.16071536,-0.20848817,-0.001230739,0.0075
20240115 08:28:37,0.029019,-0.308434,0.105156,-0.039418,-0.238252,-0.187809,1.084492,-8.934155,-19.660309,2.5028603,0.1294786,-0.31408408,0.029010136,-0.16630669,-0.22484605,-0.046901233,0.0075
20240115 08:28:37,0.071063,-0.245948,-0.237773,0.010653,-0.226533,-0.208051,1.041859,-8.65918,-19.276764,1.125396,-0.16764952,-0.22877231,-0.16533127,-0.16842383,-0.21299848,-0.09817608,0.0075
20240115 08:28:37,0.120379,-0.192665,-0.451611,0.038353,-0.197769,-0.231488,1.005997,-9.039257,-19.252319,2.458719,-0.34507382,-0.15383543,-0.29324767,-0.17910348,-0.17832707,-0.12730409,0.0075
20240115 08:28:37,0.067577,-0.066233,-0.646224,0.04581,-0.167939,-0.243207,1.111771,-8.840988,-19.398178,4.128104,-0.55557567,0.002388619,-0.31675702,-0.18653563,-0.14035058,-0.13380419,0.0075
20240115 08:28:37,-0.052438,0.059616,-0.765573,0.04581,-0.14237,-0.241077,0.811611,-8.861977,-19.533752,8.251899,-0.72758836,0.16145867,-0.24499847,-0.1830396,-0.10493638,-0.12586254,0.0075
20240115 08:28:37,-0.176191,0.175823,-0.849002,0.02983,-0.129586,-0.233619,0.635536,-8.686546,-19.546951,12.267041,-0.8693732,0.3122695,-0.16398968,-0.17766286,-0.082911685,-0.10337883,0.0075
20240115 08:28:37,-0.314502,0.273316,-0.849981,0.012784,-0.129586,-0.214443,0.944275,-8.378647,-19.697968,12.870171,-0.94196606,0.4122987,-0.04699543,-0.16255277,-0.08209111,-0.080279544,0.0075
20240115 08:28:37,-0.322826,0.270867,-0.74744,-0.007457,-0.157285,-0.196332,0.714413,-8.773335,-19.674484,13.596865,-0.85150194,0.38461095,-0.00971663,-0.14877082,-0.115761645,-0.05293492,0.0075
20240115 08:28:37,-0.286353,0.176128,-0.747601,-0.035156,-0.220141,-0.197397,0.607487,-8.395939,-20.370026,13.379351,-0.81870854,0.29133737,-0.036402807,-0.14968991,-0.18071279,-0.022750102,0.0075
20240115 08:28:37,-0.233073,0.161863,-0.748219,-0.059659,-0.278735,-0.214443,0.65308,-8.304619,-19.839661,12.80794,-0.79605675,0.2797597,-0.081207916,-0.16478989,-0.23767594,-0.0019761398,0.0075
20240115 08:28:37,-0.257272,0.184624,-0.763164,-0.084162,-0.326676,-0.241077,0.228058,-8.138248,-20.658569,14.927364,-0.8232012,0.30751482,-0.068164304,-0.1864525,-0.27945477,0.01969082,0.0075
20240115 08:28:37,-0.257131,0.261091,-0.729964,-0.09162,-0.350113,-0.261318,0.715836,-7.639481,-19.882446,13.580018,-0.8085965,0.37918648,-0.064593524,-0.20044383,-0.2971688,0.017186992,0.0075
20240115 08:28:37,-0.346966,0.46915,-0.706873,-0.078836,-0.337329,-0.269841,0.609676,-7.645863,-20.017059,15.762339,-0.8715571,0.58111453,0.009585232,-0.1963653,-0.274134,0.008128196,0.0075
20240115 08:28:37,-0.46878,0.589889,-0.792247,-0.055398,-0.292585,-0.262384,-0.042252,-7.507881,-19.89859,21.11028,-1.0359051,0.7270278,0.08464354,-0.17577241,-0.2159411,6.016344e-05,0.0075
20240115 08:28:37,-0.569758,0.835925,-0.944335,-0.036222,-0.220141,-0.241077,0.237793,-8.42701,-20.103745,22.854471,-1.2900484,1.0085241,0.100369066,-0.16003993,-0.14044388,-0.015510991,0.0075
20240115 08:28:37,-0.676667,0.982378,-0.929156,-0.027699,-0.15622,-0.203789,0.107311,-8.160255,-19.586563,24.82476,-1.3716216,1.1376576,0.18385711,-0.13863727,-0.08482532,-0.016734585,0.0075
20240115 08:28:37,-0.733964,1.058814,-0.982794,-0.046875,-0.123194,-0.164372,-0.192852,-8.181244,-19.722168,27.009993,-1.4734668,1.2233586,0.20068032,-0.11888093,-0.06604522,0.011435732,0.0075
20240115 08:28:37,-0.762039,1.11706,-0.912013,-0.098012,-0.114671,-0.136672,0.274422,-8.43071,-19.567245,25.007402,-1.4370054,1.2425268,0.22254276,-0.118679464,-0.076324984,0.06281514,0.0075
20240115 08:28:37,-0.756355,1.036454,-0.638234,-0.159802,-0.143436,-0.122823,-0.493397,-8.010349,-20.138229,26.313461,-1.1633127,1.0719768,0.28010815,-0.12798966,-0.120029576,0.12781411,0.0075
20240115 08:28:37,-0.817741,0.996975,-0.260664,-0.206678,-0.18818,-0.117496,-0.281078,-7.997589,-19.869003,24.951035,-0.85129005,0.9135079,0.4495515,-0.13971852,-0.17465435,0.17416707,0.0075
20240115 08:28:37,-0.812047,0.923525,0.129052,-0.217331,-0.23186,-0.122823,-0.281464,-7.805698,-20.149475,24.030882,-0.49941456,0.74632245,0.59921145,-0.14704265,-0.22012874,0.18421938,0.0075
20240115 08:28:37,-0.853009,0.878958,0.426874,-0.181109,-0.244644,-0.127084,-0.226906,-7.619358,-19.625198,24.003853,-0.26813343,0.6254488,0.76208365,-0.13492575,-0.22843869,0.15045127,0.0075
20240115 08:28:37,-0.891558,0.877793,0.563128,-0.096947,-0.221206,-0.117496,-0.448189,-7.727139,-19.888306,25.22702,-0.18304211,0.5837708,0.8419752,-0.09240271,-0.19731987,0.078351274,0.0075
20240115 08:28:37,-0.900762,0.805627,0.675818,-0.001065,-0.1722,-0.105777,-0.615299,-7.456688,-19.907623,25.40642,-0.07944524,0.49219745,0.9121076,-0.047916677,-0.14083408,-0.009944256,0.0075
20240115 08:28:37,-0.916264,0.709789,0.701612,0.102273,-0.135978,-0.091928,-0.887798,-7.576397,-19.50061,26.91937,-0.04553622,0.3907084,0.9449322,0.0071845725,-0.09497836,-0.09865448,0.0075
20240115 08:28:37,-0.795154,0.635927,0.54976,0.191763,-0.116802,-0.079144,-1.074257,-8.629841,-19.299744,28.103699,-0.07919952,0.3776173,0.7836212,0.055319473,-0.06842653,-0.17428079,0.0075
20240115 08:28:37,-0.772567,0.560886,0.501132,0.247161,-0.129586,-0.071686,-0.977062,-8.718479,-19.158997,26.699492,-0.081971675,0.33298114,0.76928556,0.08975066,-0.078153476,-0.21827029,0.0075
20240115 08:28:37,-0.620526,0.682105,0.516684,0.292971,-0.192442,-0.055706,-0.968483,-8.431572,-19.445587,23.24859,0.0147304535,0.4928729,0.6443333,0.12862436,-0.14457771,-0.24700299,0.0075
20240115 08:28:37,-0.413527,0.920517,0.308486,0.323866,-0.254232,-0.035464,-0.854511,-7.754505,-20.158524,18.74321,-0.07228884,0.8113562,0.3706993,0.15511239,-0.21485688,-0.2706306,0.0075
20240115 08:28:37,-0.163494,1.004051,-0.073943,0.334519,-0.287258,-0.017354,-0.881405,-8.039566,-20.140182,14.748255,-0.27144486,0.99281514,0.01762208,0.1589204,-0.26121342,-0.28335145,0.0075
20240115 08:28:37,0.11478,0.974923,-0.393161,0.316408,-0.274474,-0.016288,-1.331131,-7.40818,-20.587784,11.098403,-0.40065962,1.0073962,-0.3213809,0.12627187,-0.2614485,-0.27952304,0.0075
20240115 08:28:37,0.331608,1.032994,-0.529165,0.280187,-0.212683,-0.031203,-1.3419,-8.445164,-20.65416,8.698102,-0.4180972,1.0642059,-0.5605225,0.08581056,-0.20530102,-0.2595843,0.0075
20240115 08:28:37,0.399641,1.061697,-0.383171,0.242899,-0.129586,-0.055706,-1.190533,-8.155575,-20.269638,8.056089,-0.24521331,1.085363,-0.57355326,0.049035113,-0.12227841,-0.23817268,0.0075
20240115 08:28:37,0.413685,1.070457,-0.060683,0.222658,-0.047554,-0.08234,-1.163254,-8.062408,-20.007507,7.3624787,0.08042647,1.0782102,-0.4582898,0.01936742,-0.04125391,-0.23391823,0.0075
20240115 08:28:37,0.352366,0.977351,0.381941,0.224788,0.014236,-0.112169,-1.418209,-7.800182,-19.893188,10.900346,0.44172657,0.9632844,-0.22891653,0.00048258156,0.027419101,-0.25151926,0.0075
20240115 08:28:37,0.212386,0.829498,0.699955,0.233311,0.040869,-0.143065,-1.463032,-8.27528,-19.862625,12.944082,0.6553457,0.78491527,0.049365938,-0.017328292,0.059989758,-0.27590606,0.0075
20240115 08:28:37,0.164602,0.638899,0.905651,0.236507,0.032347,-0.168633,-1.226391,-8.535656,-20.245193,13.589905,0.81175697,0.56594765,0.21351129,-0.033492222,0.058057845,-0.29017264,0.0075
20240115 08:28:37,-0.015344,0.556661,1.034129,0.220527,0.000386,-0.188875,-1.58712,-8.471703,-19.985001,19.416178,0.80955,0.41828543,0.4059157,-0.052648112,0.04038252,-0.27994767,0.0075
20240115 08:28:37,-0.233342,0.611809,1.002705,0.201351,-0.028378,-0.170764,-1.544102,-8.938568,-20.088089,22.42716,0.64818394,0.41961813,0.54215395,-0.043659806,0.0175596,-0.24749893,0.0075
20240115 08:28:37,-0.30367,0.62681,0.909874,0.175782,-0.023051,-0.107908,-1.437939,-8.932194,-19.953461,22.406004,0.5306201,0.4373664,0.5576084,-0.0036334395,0.011295792,-0.19784804,0.0075
20240115 08:28:37,-0.255263,0.563573,0.898712,0.148083,-0.006006,-0.024811,-1.164673,-9.196259,-19.799545,19.448372,0.56890893,0.40800864,0.54504675,0.05183451,0.009383397,-0.1396631,0.0075
20240115 08:28:37,-0.070358,0.326701,0.949527,0.112927,-0.006006,0.050829,-1.256241,-9.187012,-21.140762,14.196475,0.7516285,0.23822302,0.48454514,0.10113794,-0.0046506617,-0.07192671,0.0075
20240115 08:28:37,0.335053,-0.102034,1.097232,0.076705,-0.036901,0.077462,-1.289528,-9.008904,-20.48288,8.203307,1.1086369,-0.12068181,0.30382043,0.107198864,-0.037502598,-0.021159094,0.0075
20240115 08:28:37,0.700938,-0.403969,1.270046,0.053267,-0.089103,0.050829,-1.3419,-8.445164,-20.65416,3.9182978,1.438638,-0.38832477,0.12096292,0.06996705,-0.08877288,-0.013546521,0.0075
20240115 08:28:37,0.772685,-0.510716,1.204144,0.063921,-0.108279,0.007149,-1.835297,-8.86454,-20.229782,6.9878135,1.4234655,-0.50078475,0.031155229,0.03910843,-0.10873918,-0.042765692,0.0075
20240115 08:28:37,0.673388,-0.500386,1.170749,0.090555,-0.075254,-0.023746,-1.650642,-8.753059,-20.503174,7.763334,1.349824,-0.5018829,0.100281596,0.029330628,-0.07508592,-0.083320476,0.0075
20240115 08:28:37,0.537658,-0.433773,1.212032,0.122515,-0.027313,-0.03653,-1.501465,-9.213551,-20.471634,9.48062,1.3195505,-0.4527484,0.23249283,0.036105372,-0.024760108,-0.120118156,0.0075
20240115 08:28:37,0.471817,-0.480923,1.165318,0.13743,0.01104,-0.031203,-1.580345,-9.126755,-20.344101,10.9373255,1.2501864,-0.50792813,0.26972422,0.047589853,0.014814374,-0.13335466,0.0075
20240115 08:28:37,0.363881,-0.58542,1.142996,0.096947,0.01317,-0.023746,-1.73772,-9.145065,-19.808578,14.44833,1.1822294,-0.6299051,0.38630396,0.03294407,0.017571874,-0.09539304,0.0075
20240115 08:28:37,0.20723,-0.728275,1.338647,0.03196,-0.037966,-0.005635,-1.738491,-8.761288,-20.369522,17.287024,1.2599964,-0.81139874,0.69572496,0.016653363,-0.03577513,-0.022652939,0.0075
20240115 08:28:37,0.106117,-0.906399,1.601664,-0.024503,-0.132782,0.02313,-1.4925,-9.11853,-20.477737,17.582588,1.4021755,-1.0142888,1.0022787,0.013325397,-0.13527915,0.05705611,0.0075
20240115 08:28:37,0.196915,-1.161219,1.804252,-0.04581,-0.232925,0.050829,-1.75565,-9.335106,-19.796356,16.385178,1.5870507,-1.2308012,1.119532,0.021582821,-0.23633239,0.10683441,0.0075
20240115 08:28:37,0.455793,-1.410264,1.684297,-0.027699,-0.301107,0.056155,-1.685352,-9.708801,-19.637299,9.814928,1.604759,-1.4078795,0.8121027,0.02661071,-0.30096698,0.08755097,0.0075
20240115 08:28:37,0.728804,-1.556909,1.380277,0.025568,-0.297911,0.035914,-2.012024,-10.206741,-19.47406,6.4188256,1.4810953,-1.5229757,0.33975285,0.032597933,-0.29692188,0.020747263,0.0075
20240115 08:28:37,0.982564,-1.519155,1.027603,0.101208,-0.219076,0.006084,-2.322308,-9.747086,-20.444962,1.3721477,1.2743903,-1.4826385,-0.20764178,0.04430463,-0.22319473,-0.07700865,0.0075
20240115 08:28:37,1.223405,-1.458361,0.702473,0.178979,-0.097626,-0.037595,-2.729008,-9.582565,-20.995636,-1.7318797,1.0742698,-1.4551044,-0.660707,0.05530482,-0.11557606,-0.17181495,0.0075
20240115 08:28:37,1.288939,-1.386126,0.600506,0.235442,0.004648,-0.094059,-2.560101,-8.911049,-20.903824,-2.7552195,1.0126932,-1.3973981,-0.8055786,0.047594413,-0.02640966,-0.24913365,0.0075
20240115 08:28:37,1.241213,-1.174685,0.51553,0.26101,0.061111,-0.145195,-2.657291,-8.822407,-21.04454,-0.10223236,0.9458265,-1.1893516,-0.80500364,0.01608967,0.027988765,-0.2985019,0.0075
20240115 08:28:37,1.063592,-0.99043,0.310706,0.250357,0.096268,-0.178221,-2.250965,-8.79504,-20.774338,3.1433542,0.7226112,-1.0049822,-0.75622094,-0.02912134,0.07639355,-0.30767095,0.0075
20240115 08:28:38,0.749059,-0.839136,0.191028,0.210939,0.112248,-0.186744,-2.373905,-9.567123,-20.055313,9.826779,0.5172516,-0.83988774,-0.50578314,-0.06544486,0.11115233,-0.28162587,0.0075
20240115 08:28:38,0.538921,-0.762704,0.199066,0.150214,0.093071,-0.179286,-2.489414,-9.476635,-20.464279,16.467728,0.47653443,-0.75513166,-0.2864482,-0.093987115,0.10954464,-0.22543733,0.0075
20240115 08:28:38,0.329672,-0.774707,0.175079,0.079901,0.05685,-0.165437,-2.322689,-9.555199,-20.725433,17.764929,0.37534797,-0.7709636,-0.10090952,-0.112470224,0.074402176,-0.15286836,0.0075
20240115 08:28:38,0.156293,-0.776633,0.27366,0.01598,0.018497,-0.141999,-2.216526,-9.548817,-20.59082,21.313776,0.40807047,-0.7920572,0.12126321,-0.11786957,0.036821514,-0.08084917,0.0075
20240115 08:28:38,-0.058685,-0.742899,0.342797,-0.022372,-0.003875,-0.111104,-1.803047,-10.368393,-20.399246,23.864658,0.38236788,-0.78954345,0.3492633,-0.10584013,0.0115855755,-0.028978113,0.0075
20240115 08:28:38,-0.179037,-0.722511,0.360982,-0.03196,-0.012398,-0.065294,-2.330112,-10.41777,-19.597443,28.652521,0.34552404,-0.78773874,0.4805219,-0.06932759,-0.0039961776,0.0027621053,0.0075
20240115 08:28:38,-0.203008,-0.762057,0.412114,-0.028764,-0.028378,-0.023746,-2.348431,-10.415924,-19.865677,27.7159,0.37603393,-0.83435786,0.531278,-0.029862612,-0.026667742,0.021166706,0.0075
20240115 08:28:38,-0.147618,-0.770903,0.365415,-0.018111,-0.050751,0.00928,-2.428844,-9.561577,-20.860046,24.318176,0.35826507,-0.8257362,0.44255435,0.006778442,-0.052862,0.030007556,0.0075
20240115 08:28:38,-0.000437,-0.739826,0.164447,-0.006392,-0.065665,0.038045,-2.59557,-9.483013,-20.598892,22.143639,0.2380348,-0.75313085,0.19707139,0.038885463,-0.070216686,0.03305266,0.0075
20240115 08:28:38,0.193931,-0.69013,-0.11438,-0.010653,-0.055012,0.05509,-2.525654,-9.664822,-20.720291,17.348192,0.038723327,-0.6694286,-0.13424343,0.04977549,-0.059908662,0.03904657,0.0075
20240115 08:28:38,0.396772,-0.65232,-0.323675,-0.025568,-0.024117,0.061482,-2.419498,-9.65844,-20.585678,13.8231535,-0.09624137,-0.62507033,-0.4267789,0.046567313,-0.027876128,0.05035139,0.0075
20240115 08:28:38,0.504315,-0.64025,-0.407029,-0.050071,0.004648,0.062548,-2.489414,-9.476635,-20.464279,12.472061,-0.13937879,-0.6189489,-0.56640375,0.03588847,0.0018456809,0.07050775,0.0075
20240115 08:28:38,0.615069,-0.694028,-0.348928,-0.079901,0.006778,0.054025,-2.277096,-9.463879,-20.195053,8.980432,-0.056229174,-0.69456685,-0.6572701,0.015112579,0.0068557,0.094532475,0.0075
20240115 08:28:38,0.633192,-0.715315,-0.236272,-0.105469,-0.010267,0.032718,-2.729008,-9.582565,-20.995636,10.644109,0.06532411,-0.71457547,-0.61322206,-0.016674647,-0.010381291,0.10974235,0.0075
20240115 08:28:38,0.645241,-0.735522,-0.111479,-0.117188,-0.035836,0.007149,-2.515926,-9.953583,-20.165466,10.188919,0.18719697,-0.7370055,-0.5675813,-0.046284508,-0.035609823,0.11074257,0.0075
20240115 08:28:38,0.613248,-0.752731,-0.105028,-0.102273,-0.051816,-0.02055,-2.700962,-9.873173,-20.172562,12.249452,0.1864531,-0.74778193,-0.52454793,-0.06309839,-0.052169938,0.08767088,0.0075
20240115 08:28:38,0.494809,-0.641443,-0.1615,-0.076705,-0.029444,-0.037595,-2.709156,-10.351967,-19.605499,15.801262,0.09559439,-0.6220356,-0.4391802,-0.06532693,-0.029339897,0.05733145,0.0075
20240115 08:28:38,0.284935,-0.331555,-0.446009,-0.043679,0.030216,-0.031203,-2.497997,-9.763542,-20.177689,17.853064,-0.26339334,-0.27421874,-0.3889222,-0.048650213,0.03126878,0.024846386,0.0075
20240115 08:28:38,0.253463,-0.251394,-0.51378,-0.021307,0.090941,-0.009896,-2.577641,-9.292973,-20.611115,17.761503,-0.34861913,-0.1868958,-0.39246193,-0.026511643,0.09049281,0.005402655,0.0075
20240115 08:28:38,0.219164,-0.168513,-0.666806,-0.034091,0.128228,0.011411,-2.657291,-8.822407,-21.04454,18.142763,-0.51243925,-0.083318725,-0.42144936,-0.016559195,0.12449866,0.020667326,0.0075
20240115 08:28:38,0.287022,-0.137703,-0.598865,-0.078836,0.109052,0.028456,-2.638973,-8.824257,-20.776291,16.757795,-0.42813694,-0.072081074,-0.46956494,-0.013904065,0.102994256,0.071217,0.0075
20240115 08:28:38,0.359416,-0.198238,-0.624063,-0.134234,0.051523,0.02526,-2.797123,-8.45879,-20.801712,15.767063,-0.42493892,-0.14038953,-0.5396653,-0.03134521,0.045408525,0.12814285,0.0075
20240115 08:28:38,0.346211,-0.186795,-0.659431,-0.189632,0.006778,0.016738,-2.763065,-9.020679,-20.898682,16.629286,-0.46183467,-0.117902264,-0.53867644,-0.05661155,-0.0012409537,0.18096074,0.0075
20240115 08:28:38,0.300986,-0.07768,-0.658663,-0.217331,0.001452,0.017803,-2.611698,-8.731087,-20.51416,16.288475,-0.48449793,-0.011187676,-0.5114527,-0.06680785,-0.007653443,0.20720549,0.0075
20240115 08:28:38,0.298762,-0.039706,-0.544748,-0.207743,0.028085,0.026326,-2.445744,-8.425869,-21.336258,15.123985,-0.3787801,0.015536826,-0.47693896,-0.059617467,0.018559935,0.19820514,0.0075
20240115 08:28:38,0.321094,-0.055285,-0.453103,-0.174717,0.068568,0.028456,-2.621815,-8.250439,-21.349472,13.904163,-0.28029302,-0.020960432,-0.46630228,-0.048715662,0.062350336,0.16426753,0.0075
20240115 08:28:38,0.486134,-0.131958,-0.334581,-0.140626,0.084549,0.013542,-2.417431,-7.006958,-21.562576,10.944841,-0.098624796,-0.113089055,-0.5681419,-0.04875999,0.08187144,0.1268661,0.0075
20240115 08:28:38,0.504555,-0.063794,-0.285286,-0.118254,0.077091,-0.012027,-2.919407,-7.713245,-20.851593,14.824567,-0.042989627,-0.036896117,-0.5668837,-0.06459398,0.07475857,0.09411141,0.0075
20240115 08:28:38,0.347847,-0.008516,-0.248594,-0.090555,0.063242,-0.030138,-2.779186,-8.268749,-20.81395,17.405165,-0.081367716,0.027176611,-0.41363934,-0.07020167,0.06199719,0.06286377,0.0075
20240115 08:28:38,0.206647,0.136395,-0.365019,-0.060725,0.064307,-0.031203,-2.637554,-7.690407,-20.984268,18.91418,-0.2675047,0.190506,-0.34359553,-0.060220562,0.06436299,0.035920944,0.0075
20240115 08:28:38,0.125548,0.262963,-0.526394,-0.039418,0.083483,-0.016288,-2.653683,-6.938477,-20.899536,19.572731,-0.47010344,0.33954388,-0.33785635,-0.041349053,0.08257104,0.020026332,0.0075
20240115 08:28:38,0.094243,0.294943,-0.642249,-0.022372,0.110117,0.003953,-2.549709,-7.682175,-21.117905,19.341652,-0.59494865,0.38578987,-0.34983435,-0.019958122,0.107092924,0.008550654,0.0075
20240115 08:28:38,0.15327,0.326113,-0.639283,-0.014915,0.122901,0.017803,-2.558292,-7.969082,-20.831314,17.54296,-0.56542796,0.40088052,-0.40964788,-0.0027728193,0.11940962,0.0062143994,0.0075
20240115 08:28:38,0.287713,0.301834,-0.585486,-0.007457,0.103725,0.02526,-2.885738,-8.083244,-21.229019,16.84543,-0.45694152,0.3630227,-0.51194483,0.011206764,0.10072475,0.004668958,0.0075
20240115 08:28:38,0.358328,0.22951,-0.634269,-0.008523,0.07283,0.018868,-3.010204,-8.087772,-21.631882,15.368457,-0.46946892,0.28279787,-0.58296275,0.009240348,0.071081616,0.007497078,0.0075
20240115 08:28:38,0.449489,0.272202,-0.702339,-0.009588,0.039804,0.012476,-2.663685,-8.359238,-20.404968,13.008983,-0.5013839,0.3115929,-0.6905925,0.006303459,0.03902327,0.010093177,0.0075
20240115 08:28:38,0.518291,0.338988,-0.744637,-0.027699,0.008909,-0.002439,-2.49696,-8.437798,-20.666138,12.165146,-0.5265497,0.38100207,-0.7683426,-0.012513412,0.008534595,0.024381163,0.0075
20240115 08:28:38,0.512717,0.423146,-0.819635,-0.04581,-0.009202,-0.008831,-3.194859,-8.199249,-21.358505,13.45382,-0.6050497,0.46176177,-0.7928525,-0.023889877,-0.009511012,0.04068566,0.0075
20240115 08:28:38,0.521577,0.548585,-0.766981,-0.058594,-0.000679,-0.016288,-3.167965,-7.914188,-21.376846,13.571258,-0.5476691,0.5869465,-0.80254716,-0.03634163,-0.00093715655,0.048954744,0.0075
20240115 08:28:38,0.481183,0.62629,-0.586078,-0.054333,0.014236,-0.017354,-2.895084,-7.986374,-21.503387,13.73211,-0.3974169,0.6662332,-0.71349716,-0.037020348,0.013982041,0.042925145,0.0075
20240115 08:28:38,0.458547,0.713164,-0.416908,-0.037287,0.050458,-0.013092,-2.919407,-7.713245,-20.851593,14.533084,-0.24223165,0.74509007,-0.64992213,-0.029352129,0.050220266,0.024401005,0.0075
20240115 08:28:38,0.432251,0.755835,-0.164798,-0.004261,0.069634,-0.012027,-2.78931,-7.788101,-21.649246,14.199841,-0.01974763,0.77503115,-0.53488743,-0.016757837,0.07008341,-0.007719577,0.0075
20240115 08:28:38,0.409078,0.756091,-0.038959,0.037287,0.084549,-0.016288,-2.964611,-7.996452,-21.101517,15.492728,0.08765234,0.7679387,-0.47143492,-0.0045317058,0.086362004,-0.04975223,0.0075
20240115 08:28:38,0.363325,0.752283,0.085489,0.078836,0.090941,-0.029072,-2.840908,-7.608147,-21.259598,15.953162,0.17366508,0.75575966,-0.38220397,-0.00018563122,0.09541506,-0.09372154,0.0075
20240115 08:28:38,0.295209,0.761198,0.069731,0.118254,0.092006,-0.045053,-2.797886,-8.075012,-21.362671,17.191175,0.11713791,0.76326054,-0.33426353,-0.0001982972,0.100381,-0.13670556,0.0075
20240115 08:28:38,0.241825,0.776609,0.04,0.134234,0.096268,-0.05251,-3.052845,-7.81279,-21.248337,18.50072,0.058271434,0.7787071,-0.30550298,-0.0028504804,0.106656626,-0.15526253,0.0075
20240115 08:28:38,0.195943,0.820979,-0.06819,0.202416,0.159123,-0.069556,-2.640514,-8.056705,-21.898178,19.219692,-0.08858362,0.8326389,-0.3136861,-0.0023370907,0.17784044,-0.23277053,0.0075
20240115 08:28:38,0.066921,0.983432,0.062079,0.262076,0.223044,-0.069556,-3.070393,-8.194721,-20.955658,21.964308,-0.05017744,0.9681532,-0.1865362,0.012680501,0.24570516,-0.2994977,0.0075
20240115 08:28:38,0.0863,1.27761,0.24853,0.347303,0.269919,-0.055706,-2.594921,-7.965382,-21.367813,18.82233,0.104605235,1.2405891,-0.15007746,0.05596459,0.29285064,-0.3742167,0.0075
20240115 08:28:38,0.188643,1.563025,0.285676,0.429335,0.295488,-0.046118,-2.391178,-8.239529,-20.811996,16.395163,0.17844838,1.5331335,-0.23822299,0.092353895,0.31611538,-0.44551086,0.0075
20240115 08:28:38,0.315288,1.715354,0.09782,0.483668,0.314664,-0.048249,-2.339581,-8.419491,-21.201645,15.511962,0.034179598,1.7079966,-0.42468482,0.09689455,0.33591917,-0.49842605,0.0075
20240115 08:28:38,0.296556,1.858875,-0.144108,0.488995,0.31786,-0.057837,-2.287983,-8.599453,-21.591293,17.744173,-0.2955646,1.8730236,-0.51176155,0.062779725,0.34616363,-0.5117615,0.0075
20240115 08:28:38,0.03442,2.009745,-0.349028,0.426139,0.322121,-0.056771,-2.093204,-8.96862,-21.029388,24.08734,-0.7670562,2.0327022,-0.40420142,0.013564251,0.35909167,-0.46262586,0.0075
20240115 08:28:38,-0.285415,2.096351,-0.143799,0.333454,0.280573,-0.025876,-2.384022,-9.086479,-20.89061,29.64271,-0.8121984,2.0123901,-0.13372579,0.013808452,0.30936587,-0.36863896,0.0075
20240115 08:28:38,-0.538265,2.141182,0.029889,0.216266,0.19428,0.018868,-2.332035,-9.458328,-20.999786,32.64894,-0.8303895,1.9461194,0.09009448,0.035337977,0.20356174,-0.23379807,0.0075
20240115 08:28:38,-0.700671,1.912948,0.284886,0.101208,0.082418,0.080659,-1.997818,-9.999226,-20.961166,32.997715,-0.6147036,1.6236892,0.33392295,0.083922274,0.06594068,-0.08442713,0.0075
20240115 08:28:38,-0.676793,1.529053,0.401487,0.007457,-0.011333,0.139253,-1.963493,-8.851593,-22.107483,29.33777,-0.3438791,1.2642205,0.46065748,0.12777536,-0.04850772,0.043936525,0.0075
20240115 08:28:38,-0.508162,1.118027,0.368248,-0.057529,-0.0646,0.178671,-2.148151,-8.963074,-21.834122,28.478214,-0.16681224,0.92321616,0.3794338,0.14991863,-0.11390929,0.12882027,0.0075
20240115 08:28:38,-0.383256,0.621691,0.331719,-0.103339,-0.07845,0.209566,-2.402721,-8.892738,-21.439331,27.786875,-0.011514872,0.4880288,0.34820879,0.15713026,-0.13369541,0.18813595,0.0075
20240115 08:28:38,-0.237599,0.144721,0.499617,-0.118254,-0.068861,0.227677,-2.120869,-8.8699,-21.571976,25.015028,0.29647964,0.024559401,0.39145058,0.15578921,-0.121545404,0.21353897,0.0075
20240115 08:28:38,-0.258371,-0.256663,0.757203,-0.112927,-0.069927,0.239395,-2.53577,-9.184174,-21.555588,27.677288,0.560183,-0.41416848,0.6170801,0.15954064,-0.12319592,0.21960104,0.0075
20240115 08:28:38,-0.297155,-0.654951,0.959745,-0.105469,-0.098691,0.250049,-2.296558,-8.88636,-21.304718,26.044525,0.74170524,-0.8220704,0.8642439,0.16710973,-0.14620212,0.23206589,0.0075
20240115 08:28:38,-0.196969,-1.055039,1.181694,-0.079901,-0.137044,0.247918,-2.800457,-8.633202,-21.996109,25.18932,0.99090594,-1.2063935,1.0104389,0.17589986,-0.17296804,0.2239925,0.0075
20240115 08:28:38,-0.035444,-1.295156,1.195549,-0.012784,-0.145566,0.223415,-3.187321,-9.238083,-21.156647,24.458841,1.0883063,-1.3991253,0.92976034,0.19110952,-0.16595963,0.15674148,0.0075
20240115 08:28:38,0.126131,-1.441901,1.015662,0.071378,-0.090168,0.17654,-3.04491,-9.043518,-20.766006,20.777187,1.0073731,-1.4969326,0.6962153,0.19205262,-0.098137304,0.048437934,0.0075
20240115 08:28:38,0.318568,-1.512509,0.940265,0.176848,0.000386,0.11475,-2.886387,-9.600876,-20.460129,17.815887,1.0196291,-1.5389526,0.4685082,0.19218536,0.00036103418,-0.089439586,0.0075
20240115 08:28:38,0.410514,-1.424349,0.918648,0.298297,0.112248,0.041241,-3.259037,-9.998241,-21.107742,18.059566,1.0372789,-1.4431009,0.36242136,0.19204009,0.11665302,-0.24894877,0.0075
20240115 08:28:38,0.393586,-1.312119,0.944788,0.41229,0.195345,-0.029072,-3.002666,-9.12661,-21.430023,17.151741,1.0708702,-1.3425642,0.33194667,0.17994358,0.2078347,-0.39683735,0.0075
20240115 08:28:38,0.283358,-1.079288,0.729563,0.446381,0.233697,-0.063163,-2.421032,-8.890888,-21.707565,17.863426,0.86868,-1.1248463,0.24920824,0.14050259,0.2602512,-0.45432502,0.0075
20240115 08:28:38,0.017443,-0.767597,0.515872,0.502844,0.310402,-0.106843,-2.766018,-9.386978,-21.812592,25.497778,0.5895969,-0.8395126,0.34463,0.081387706,0.36607003,-0.55252063,0.0075
20240115 08:28:38,-0.362028,-0.432788,0.306512,0.477276,0.346624,-0.090863,-2.235226,-9.35508,-21.139526,30.515474,0.21914805,-0.5368522,0.53516597,0.039118424,0.4134528,-0.54026395,0.0075
20240115 08:28:38,-0.632137,-0.267115,0.163977,0.406963,0.362605,-0.03653,-2.131641,-9.906887,-21.638367,33.691566,-0.049208164,-0.3890965,0.6931648,0.0341464,0.41011426,-0.4667865,0.0075
20240115 08:28:38,-0.741629,-0.278372,0.239472,0.30469,0.34982,0.020999,-2.050957,-9.051712,-21.69339,33.33309,-0.041299537,-0.4411046,0.82131654,0.048608486,0.3682847,-0.35048035,0.0075
20240115 08:28:38,-0.727638,-0.453272,0.515548,0.251422,0.329579,0.043371,-2.08643,-9.623676,-21.388474,34.070892,0.21075916,-0.67923236,0.9634648,0.065189466,0.33841357,-0.29187065,0.0075
20240115 08:28:38,-0.73071,-0.578605,0.933939,0.150214,0.267789,0.07107,-2.10693,-10.371906,-22.009674,33.608173,0.54617035,-0.8890215,1.1850736,0.06886814,0.2608387,-0.17461427,0.0075
20240115 08:28:38,-0.681147,-0.767939,1.209984,0.072444,0.167646,0.090247,-2.080036,-10.086845,-22.028015,31.751808,0.80073994,-1.0961261,1.3347366,0.076061,0.15231441,-0.06759672,0.0075
20240115 08:28:38,-0.614911,-0.864916,1.460845,0.07777,0.129293,0.082789,-1.849022,-10.267822,-21.210098,32.24586,1.0397989,-1.2307347,1.4351466,0.082021676,0.118161656,-0.06485009,0.0075
20240115 08:28:38,-0.621014,-0.873667,1.451558,0.115058,0.125032,0.075332,-1.867332,-10.265972,-21.478333,31.745588,1.04317,-1.2394567,1.4291923,0.096300736,0.120384485,-0.09822713,0.0075
20240115 08:28:38,-0.585577,-0.886515,1.375153,0.151279,0.146339,0.076397,-2.078503,-10.854401,-20.906143,33.402657,1.0045519,-1.2263496,1.3650992,0.112144485,0.14561498,-0.13709293,0.0075
20240115 08:28:38,-0.47904,-0.935386,1.202919,0.247161,0.216652,0.074266,-1.532349,-11.190651,-20.878754,29.619713,0.95520794,-1.2153926,1.1794832,0.14296152,0.2251475,-0.23442647,0.0075
20240115 08:28:38,-0.392704,-1.031443,0.904865,0.269533,0.22624,0.064678,-1.745049,-11.01152,-21.428452,28.91371,0.7947192,-1.238337,0.9703827,0.13796009,0.23752649,-0.261219,0.0075
20240115 08:28:38,-0.377619,-1.094005,0.641937,0.242899,0.182561,0.054025,-1.949173,-10.545483,-22.264725,28.580345,0.6216324,-1.2465098,0.8371711,0.11765208,0.19289087,-0.23384961,0.0075
20240115 08:28:38,-0.320434,-1.157224,0.418753,0.173652,0.107986,0.038045,-2.07069,-10.183716,-21.753662,29.699203,0.48922265,-1.2532741,0.7093253,0.08564171,0.11593208,-0.16415209,0.0075
20240115 08:28:38,-0.360481,-1.138777,0.313464,0.111862,0.030216,0.032718,-1.948788,-10.737373,-21.984253,30.130358,0.39470616,-1.2162344,0.69530106,0.070038736,0.034574866,-0.09459423,0.0075
20240115 08:28:38,-0.352396,-1.18287,0.226696,0.082032,-0.012398,0.032718,-1.594067,-10.530045,-21.324402,27.51519,0.31460428,-1.2353572,0.64571047,0.06738963,-0.010237746,-0.058330923,0.0075
20240115 08:28:38,-0.230991,-1.261988,0.219295,0.089489,-0.03477,0.032718,-1.524921,-10.328079,-22.006744,23.581825,0.34049338,-1.2966847,0.51663345,0.07473457,-0.031779274,-0.06124936,0.0075
20240115 08:28:38,-0.071913,-1.324464,0.162498,0.115058,-0.053947,0.019934,-1.842628,-10.730991,-21.84964,22.299683,0.3453684,-1.3339369,0.33931506,0.07544932,-0.047144927,-0.088099696,0.0075
20240115 08:28:38,0.11385,-1.294605,-0.063512,0.150214,-0.039032,-0.001373,-1.885647,-10.264126,-21.746582,20.192017,0.19575037,-1.2565367,0.046091795,0.06360396,-0.027944027,-0.13358513,0.0075
20240115 08:28:38,0.096247,-1.165537,-0.326084,0.176848,-0.010267,-0.018419,-1.755169,-10.530876,-22.263748,20.06325,-0.05750692,-1.0799246,-0.056180388,0.048523396,0.0052640494,-0.16997792,0.0075
20240115 08:28:38,0.083572,-0.958404,-0.523833,0.185371,0.024889,-0.029072,-2.211941,-10.953953,-21.302887,23.174458,-0.26465854,-0.8273089,-0.11371701,0.030385902,0.04314965,-0.18689443,0.0075
20240115 08:28:38,0.044157,-0.780602,-0.586419,0.177913,0.055784,-0.028007,-2.178265,-11.323952,-21.680313,26.28254,-0.3325618,-0.6109625,-0.10218698,0.020998934,0.07585596,-0.18430114,0.0075
20240115 08:28:38,-0.128432,-0.62674,-0.439417,0.157672,0.044065,-0.014157,-2.063145,-11.222549,-21.551804,28.653616,-0.27208287,-0.49618593,0.09049192,0.030754741,0.06176734,-0.15943468,0.0075
20240115 08:28:38,-0.195431,-0.563394,-0.326212,0.125711,-0.013463,0.005019,-1.833279,-10.827862,-21.575272,26.559605,-0.2195155,-0.47803247,0.16922155,0.051822085,-0.002351719,-0.11413681,0.0075
20240115 08:28:38,-0.122719,-0.458518,-0.317171,0.087359,-0.072057,0.015672,-2.07288,-10.933792,-22.106644,26.120077,-0.21777348,-0.37620634,0.08689507,0.061741084,-0.065628245,-0.066388205,0.0075
20240115 08:28:38,-0.093384,-0.338278,-0.374245,0.059659,-0.09656,0.026326,-1.957752,-10.832394,-21.978134,24.892134,-0.29256126,-0.24664839,0.022304125,0.06678258,-0.09470162,-0.03472438,0.0075
20240115 08:28:38,-0.077021,-0.329412,-0.383314,0.044745,-0.098691,0.032718,-2.045216,-11.032509,-21.564026,24.484259,-0.30290592,-0.24017668,0.0018906668,0.066986166,-0.09965257,-0.018643836,0.0075
20240115 08:28:38,-0.017165,-0.283038,-0.403078,0.026634,-0.097626,0.034849,-2.276226,-10.851532,-22.381973,23.923363,-0.31511506,-0.18920356,-0.06619696,0.061935566,-0.10059781,-0.0019731428,0.0075
20240115 08:28:38,0.010074,-0.283318,-0.477161,0.005327,-0.077384,0.02313,-1.993996,-11.02058,-22.234161,22.906208,-0.37584242,-0.17338306,-0.11653249,0.039563134,-0.07993391,0.0116750095,0.0075
20240115 08:28:38,-0.054031,-0.361758,-0.411586,0.001065,-0.059273,0.006084,-2.223858,-11.415272,-22.210678,25.792086,-0.308955,-0.25878695,-0.021217331,0.019757546,-0.058749426,0.00956792,0.0075
20240115 08:28:39,-0.129956,-0.473033,-0.258312,-0.01598,-0.058208,-0.018419,-2.177883,-11.515835,-21.399826,27.48244,-0.16627558,-0.40724325,0.117310725,-0.008406363,-0.05331623,0.018697847,0.0075
20240115 08:28:39,-0.2108,-0.499859,-0.075369,-0.010653,-0.076319,-0.042922,-2.134861,-11.982704,-21.502899,29.10419,-0.018888764,-0.4831346,0.26151663,-0.022965332,-0.0636283,0.009752325,0.0075
20240115 08:28:39,-0.323338,-0.359365,-0.033371,0.0,-0.097626,-0.061033,-2.680248,-12.030231,-20.969345,34.627823,-0.048188612,-0.36996153,0.3661637,-0.025601117,-0.07522004,0.0019865893,0.0075
20240115 08:28:39,-0.497214,-0.303084,0.011484,0.004261,-0.14024,-0.063163,-2.478428,-11.34494,-21.815887,34.994293,-0.08061857,-0.3521936,0.5296358,-0.009052075,-0.11127881,0.0068107545,0.0075
20240115 08:28:39,-0.560082,-0.192151,-0.070391,0.007457,-0.187115,-0.055706,-2.742352,-11.177738,-21.695465,36.463512,-0.19887248,-0.22806662,0.5432573,0.016569756,-0.15520152,0.016949557,0.0075
20240115 08:28:39,-0.529355,-0.119749,-0.226464,-0.001065,-0.211618,-0.047183,-2.257915,-10.853382,-22.113739,33.86863,-0.34274077,-0.10193405,0.454083,0.028773125,-0.18222389,0.028398763,0.0075
20240115 08:28:39,-0.508622,-0.085925,-0.255681,-0.004261,-0.219076,-0.043987,-2.567043,-10.969395,-22.243195,35.933475,-0.36870962,-0.056012012,0.42306477,0.036560383,-0.18861784,0.036146715,0.0075
20240115 08:28:39,-0.639022,-0.061024,-0.267356,-0.007457,-0.237186,-0.03653,-2.821995,-10.707169,-22.128891,37.899876,-0.43444538,-0.046872288,0.53658926,0.05138294,-0.20669033,0.04824945,0.0075
20240115 08:28:39,-0.63105,-0.142024,-0.265807,-0.008523,-0.246775,-0.035464,-2.955051,-10.998611,-22.245148,37.622704,-0.40653995,-0.123364225,0.54505664,0.052123655,-0.21778055,0.051779788,0.0075
20240115 08:28:39,-0.510712,-0.236738,-0.305949,0.019176,-0.298977,-0.045053,-3.210392,-10.544502,-22.411301,36.186874,-0.36105755,-0.17942291,0.4448308,0.067684636,-0.26163277,0.029126603,0.0075
20240115 08:28:39,-0.395826,-0.258167,-0.574965,0.046875,-0.302173,-0.062098,-3.112041,-11.208805,-21.429169,35.852833,-0.54686546,-0.09117335,0.2788488,0.061096083,-0.25651,-0.005340538,0.0075
20240115 08:28:39,-0.356996,-0.24648,-0.695105,0.06179,-0.296846,-0.071686,-3.103077,-11.113785,-21.435287,36.121117,-0.6377555,-0.025528908,0.21779221,0.05811903,-0.24464159,-0.024361104,0.0075
20240115 08:28:39,-0.320859,-0.168731,-0.99035,0.082032,-0.262755,-0.083405,-3.633488,-11.337574,-21.827866,39.040745,-0.8931858,0.19699624,0.1376304,0.049731083,-0.19951873,-0.05305033,0.0075
20240115 08:28:39,-0.308901,-0.120569,-1.174928,0.099077,-0.222272,-0.087666,-3.192463,-10.354462,-22.423523,37.68391,-1.0654755,0.3255697,0.07563162,0.03731241,-0.15682733,-0.07837559,0.0075
20240115 08:28:39,-0.33149,-0.080045,-1.226454,0.096947,-0.230794,-0.086601,-3.5984,-10.573719,-22.413254,41.284794,-1.1051855,0.43273455,0.111956835,0.050215118,-0.15685065,-0.07302835,0.0075
20240115 08:28:39,-0.381375,0.081822,-1.372988,0.039418,-0.291519,-0.078078,-3.925068,-11.071659,-22.250031,42.587566,-1.3112562,0.645772,0.12446059,0.07192724,-0.21985897,-0.006021117,0.0075
20240115 08:28:39,-0.343963,0.126766,-1.415888,0.008523,-0.317088,-0.077013,-3.534878,-10.292358,-21.895111,42.2228,-1.3507708,0.7290555,0.08188033,0.0822265,-0.24277605,0.02657128,0.0075
20240115 08:28:39,-0.279797,0.197645,-1.570259,-0.089489,-0.340525,-0.073817,-4.101139,-10.896229,-22.263245,41.98153,-1.5153643,0.8424286,-0.005440995,0.066830546,-0.27983963,0.12449247,0.0075
20240115 08:28:39,-0.267039,0.292003,-1.48256,-0.139561,-0.30963,-0.069556,-4.110493,-10.799358,-22.537598,40.958416,-1.4835002,0.8711438,-0.026394844,0.040938295,-0.26190808,0.16910475,0.0075
20240115 08:28:39,-0.317977,0.296849,-1.236495,-0.166194,-0.260624,-0.065294,-4.249935,-10.627628,-22.014313,39.89798,-1.2920454,0.7159581,0.015194371,-0.00014225766,-0.23088196,0.1906635,0.0075
20240115 08:28:39,-0.347726,0.356959,-1.088053,-0.161933,-0.23399,-0.059967,-4.471218,-10.735405,-22.27742,38.13885,-1.1956917,0.66621625,0.022009611,-0.021419894,-0.21517512,0.18314818,0.0075
20240115 08:28:39,-0.351441,0.314051,-0.740361,-0.129972,-0.193507,-0.058902,-4.425632,-10.644089,-21.74704,38.689503,-0.8719506,0.5055455,0.103008986,-0.026562955,-0.17504987,0.14648089,0.0075
20240115 08:28:39,-0.399784,0.382882,-0.618572,-0.117188,-0.189246,-0.057837,-4.550488,-10.456726,-22.430359,38.73313,-0.8014794,0.52597904,0.16554733,-0.021952692,-0.16950256,0.13374375,0.0075
20240115 08:28:39,-0.404665,0.467446,-0.554544,-0.103339,-0.192442,-0.057837,-4.698513,-10.571907,-21.620499,37.99852,-0.768581,0.57331777,0.16143341,-0.024101444,-0.1743373,0.12078286,0.0075
20240115 08:28:39,-0.314056,0.391521,-0.480758,-0.122515,-0.223337,-0.079144,-4.68993,-10.284996,-21.907089,34.666992,-0.6414613,0.4773789,0.10609717,-0.04998486,-0.20361659,0.13570803,0.0075
20240115 08:28:39,-0.205618,0.491253,-0.359129,-0.144887,-0.23399,-0.117496,-4.81287,-11.057083,-21.188065,36.199158,-0.5223184,0.5476491,0.005283408,-0.09241013,-0.20700343,0.15111272,0.0075
20240115 08:28:39,-0.421284,0.548614,-0.100865,-0.148083,-0.204161,-0.151587,-4.875355,-10.012699,-22.194656,39.455555,-0.40909243,0.49909478,0.23709318,-0.12522921,-0.16444717,0.14254321,0.0075
20240115 08:28:39,-0.917125,0.646255,0.559276,-0.1076,-0.164743,-0.14413,-4.549068,-9.322872,-22.638351,44.231792,-0.148337,0.24697435,0.8102795,-0.10759411,-0.11853409,0.10246017,0.0075
20240115 08:28:39,-1.108374,0.68851,0.725262,-0.056463,-0.159416,-0.108973,-5.042469,-9.742249,-22.213959,47.619274,-0.13058078,0.17933965,0.98918855,-0.05741968,-0.11695273,0.07012104,0.0075
20240115 08:28:39,-1.320066,0.675794,0.997833,-0.002131,-0.194573,-0.057837,-4.918758,-9.353939,-22.372055,46.425056,-0.0114892125,0.055184633,1.2650911,0.017614935,-0.16052093,0.048022307,0.0075
20240115 08:28:39,-1.235287,0.660836,1.143178,0.022372,-0.229729,-0.033334,-5.166164,-10.130558,-22.055862,45.964817,0.19004714,0.059109777,1.2470301,0.05495084,-0.20069434,0.04386807,0.0075
20240115 08:28:39,-0.81575,0.708357,0.988583,0.06179,-0.318153,-0.001373,-4.964352,-9.445259,-22.90242,36.211117,0.35595113,0.34853554,0.8995247,0.10243937,-0.29915106,0.02093059,0.0075
20240115 08:28:39,0.041542,0.594397,0.260383,0.085228,-0.365028,-0.010961,-5.341862,-10.147018,-21.788605,24.366625,0.20382395,0.56944996,-0.041768648,0.052167024,-0.35950476,-0.03152815,0.0075
20240115 08:28:39,0.330777,0.584913,0.052685,0.109731,-0.324545,-0.055706,-5.782238,-9.612495,-21.961853,21.368837,0.13642277,0.58702725,-0.36663264,-0.0023180582,-0.3203428,-0.08113522,0.0075
20240115 08:28:39,0.706204,0.54631,-0.13928,0.171521,-0.150893,-0.171829,-5.439053,-10.058376,-21.929321,14.3340025,0.11674698,0.531019,-0.75558376,-0.113288194,-0.15976095,-0.20393866,0.0075
20240115 08:28:39,0.819398,0.717133,-0.132246,0.200285,-0.07845,-0.209116,-5.405766,-10.236488,-22.587234,14.910882,0.15596816,0.707284,-0.8763438,-0.13510334,-0.08491639,-0.24825266,0.0075
20240115 08:28:39,0.654891,0.946134,-0.079144,0.239703,0.044065,-0.266645,-5.757145,-10.269405,-22.052689,21.713488,0.08737129,0.9596021,-0.75577825,-0.17810158,0.061104696,-0.31139117,0.0075
20240115 08:28:39,0.367778,1.154805,0.108946,0.236507,0.10266,-0.291148,-5.440853,-11.000343,-22.001831,30.442686,0.046490155,1.1427302,-0.5179465,-0.20085365,0.16188765,-0.32852614,0.0075
20240115 08:28:39,0.072071,1.246668,0.476855,0.176848,0.045131,-0.283691,-5.535099,-10.545403,-21.228653,32.475784,0.25212768,1.1502494,-0.16516794,-0.2021088,0.10407425,-0.2613134,0.0075
20240115 08:28:39,-0.050075,1.302364,0.731907,0.094816,-0.084842,-0.258122,-5.298077,-10.997662,-21.330734,34.11853,0.39274314,1.1275843,6.224215e-05,-0.182453,-0.025472827,-0.1498709,0.0075
20240115 08:28:39,-0.147737,1.296254,0.738105,0.003196,-0.190311,-0.222966,-5.23827,-10.698826,-22.287445,32.574245,0.3672804,1.1171303,0.10822958,-0.16478528,-0.14367925,-0.035163444,0.0075
20240115 08:28:39,-0.055631,1.096784,0.697452,-0.059659,-0.205226,-0.185679,-5.96088,-9.995255,-22.608505,33.860603,0.4052629,0.9402842,0.039071307,-0.15266337,-0.17111021,0.039751388,0.0075
20240115 08:28:39,-0.045392,0.920825,0.941534,-0.067117,-0.12639,-0.156914,-5.818867,-9.608795,-22.498337,32.308292,0.679904,0.7666198,0.17363206,-0.14996429,-0.10640143,0.031890407,0.0075
20240115 08:28:39,0.057505,0.453459,1.506134,-0.027699,-0.003875,-0.132411,-5.459553,-10.806602,-22.550552,32.26992,1.2859566,0.24426681,0.42195764,-0.12840524,0.012466995,-0.025788343,0.0075
20240115 08:28:39,0.033118,0.328882,1.746484,0.04581,0.10266,-0.119627,-5.590038,-10.539856,-22.033371,35.473568,1.461084,0.08383742,0.59009045,-0.09337044,0.121700965,-0.11848971,0.0075
20240115 08:28:39,-0.076343,0.15231,2.189022,0.127842,0.149535,-0.09832,-5.705547,-10.449364,-22.442337,36.396782,1.7734327,-0.15341187,0.9481875,-0.035145998,0.17177045,-0.19724451,0.0075
20240115 08:28:39,-0.019646,0.016016,2.282428,0.2152,0.130359,-0.06636,-5.407955,-10.986565,-22.940201,33.032166,1.9205092,-0.2537116,1.005177,0.040162105,0.1522667,-0.2497019,0.0075
20240115 08:28:39,0.224428,-0.058394,1.96928,0.267402,0.085614,-0.042922,-5.220341,-10.508785,-22.299667,28.023397,1.8263862,-0.2146043,0.6633023,0.08555114,0.10149093,-0.27161518,0.0075
20240115 08:28:39,0.531387,-0.115023,1.375976,0.275925,0.038739,-0.034399,-5.342899,-11.472759,-21.300171,25.237474,1.4724901,-0.1673956,0.099033,0.09004758,0.046776034,-0.2683408,0.0075
20240115 08:28:39,0.720702,-0.123582,0.879114,0.243965,0.016366,-0.029072,-5.291294,-11.652721,-21.689819,21.504307,1.0952821,-0.1401578,-0.3218783,0.06902837,0.020263905,-0.23722595,0.0075
20240115 08:28:39,0.777247,-0.125949,0.374885,0.177913,0.049392,-0.023746,-5.723743,-12.348923,-21.380737,24.31204,0.64065075,-0.12887795,-0.5772065,0.04130602,0.05372353,-0.18084683,0.0075
20240115 08:28:39,0.702876,-0.147578,0.293889,0.103339,0.107986,-0.009896,-5.451244,-12.229214,-21.78775,25.404888,0.5478982,-0.14760388,-0.526288,0.022029819,0.11147241,-0.11656575,0.0075
20240115 08:28:39,0.466697,-0.250381,0.495863,0.027699,0.146339,0.007149,-5.177326,-10.975651,-22.402725,28.349169,0.6700325,-0.28360176,-0.19923341,-0.000336112,0.14563616,-0.051092356,0.0075
20240115 08:28:39,0.246752,-0.455888,0.80061,-0.038353,0.143143,0.041241,-4.834522,-11.229645,-22.650681,30.665121,0.8841276,-0.5493829,0.18849126,-0.0016490333,0.13234334,0.017668737,0.0075
20240115 08:28:39,0.140944,-0.704501,1.182403,-0.084162,0.110117,0.075332,-5.310757,-11.075203,-22.799469,32.86551,1.1797645,-0.84179634,0.5540277,0.008896813,0.09263971,0.075002,0.0075
20240115 08:28:39,0.226963,-1.03524,1.535476,-0.088424,0.033412,0.098769,-5.22253,-11.258862,-22.652634,31.897394,1.5193835,-1.1684272,0.7831066,0.03333011,0.017697714,0.11003981,0.0075
20240115 08:28:39,0.391758,-1.398777,1.633528,-0.076705,-0.062469,0.105162,-5.274899,-10.695126,-22.823929,28.44798,1.6698077,-1.4834441,0.8149656,0.050280474,-0.07225336,0.13084637,0.0075
20240115 08:28:39,0.6625,-1.67844,1.593815,-0.027699,-0.145566,0.1009,-4.868191,-10.859646,-22.273254,17.47968,1.6682087,-1.6506066,0.47806567,0.06875077,-0.14283271,0.09599825,0.0075
20240115 08:28:39,0.976594,-1.796627,1.140393,0.043679,-0.15622,0.078528,-5.714893,-10.352497,-22.716705,15.477535,1.3640052,-1.7574288,-0.075838625,0.08042517,-0.15265688,0.01956945,0.0075
20240115 08:28:39,1.25671,-1.773311,0.522989,0.119319,-0.083776,0.046567,-5.265163,-10.983883,-22.269104,6.972506,0.7803355,-1.7657942,-0.8076109,0.08257605,-0.084400766,-0.08252407,0.0075
20240115 08:28:39,1.44199,-1.620828,0.067848,0.176848,0.044065,0.001823,-5.149662,-11.074371,-21.860123,2.9140456,0.34984514,-1.6896876,-1.2617837,0.08014029,0.02987689,-0.16227542,0.0075
20240115 08:28:39,1.48946,-1.522566,-0.191621,0.203481,0.152731,-0.037595,-5.185902,-11.262558,-22.11615,2.7908785,0.10200088,-1.6342598,-1.4276448,0.06814514,0.12866297,-0.20572409,0.0075
20240115 08:28:39,1.355054,-1.33859,-0.249891,0.178979,0.213456,-0.081274,-4.746296,-11.413303,-22.50386,6.6899047,0.122193724,-1.4173534,-1.2926767,0.015320122,0.1948052,-0.20537044,0.0075
20240115 08:28:39,1.056312,-1.179875,-0.028792,0.116123,0.181495,-0.115366,-4.818394,-11.981571,-22.735413,15.108988,0.36335894,-1.1871324,-0.8659515,-0.05861043,0.1788853,-0.16845413,0.0075
20240115 08:28:39,0.809814,-1.085753,0.265892,0.030895,0.085614,-0.137738,-4.649868,-11.118168,-22.924072,19.853086,0.62259704,-1.079783,-0.4909703,-0.11750978,0.09283837,-0.09231879,0.0075
20240115 08:28:39,0.538555,-0.941148,0.474781,-0.037287,-0.016659,-0.152653,-5.038647,-10.763607,-23.486969,25.697416,0.7540326,-0.9584695,-0.13620467,-0.1514475,-0.0022428948,-0.021098532,0.0075
20240115 08:28:39,0.332765,-0.852156,0.660004,-0.067117,-0.083776,-0.152653,-5.265553,-10.791992,-22.549576,31.243134,0.8555719,-0.91382277,0.13722001,-0.15260613,-0.06510727,0.02265215,0.0075
20240115 08:28:39,0.153903,-0.829836,0.701902,-0.042614,-0.105083,-0.139869,-5.019947,-10.957348,-22.938248,32.83127,0.8328577,-0.9243449,0.31439447,-0.12350811,-0.08203547,0.011978205,0.0075
20240115 08:28:39,0.074223,-0.794518,0.6583,0.018111,-0.068861,-0.115366,-4.764225,-11.603344,-22.491623,33.775085,0.76554084,-0.89560413,0.35348743,-0.08121861,-0.043678917,-0.040897995,0.0075
20240115 08:28:39,0.065494,-0.761638,0.42754,0.085228,-0.010267,-0.087666,-4.950794,-10.755375,-23.62059,32.750694,0.5658405,-0.8246195,0.24748705,-0.042226985,0.01582816,-0.105339095,0.0075
20240115 08:28:39,0.092161,-0.654675,0.182241,0.131038,0.043,-0.062098,-4.763569,-10.085712,-23.260529,32.62171,0.34768736,-0.66785914,0.101321466,-0.01738121,0.0677481,-0.14964834,0.0075
20240115 08:28:39,0.096303,-0.508837,-0.0896,0.136365,0.055784,-0.033334,-4.596081,-10.54805,-22.960754,33.085476,0.07794333,-0.45977905,-0.02208602,0.001970822,0.0742964,-0.14807323,0.0075
20240115 08:28:39,0.143057,-0.385045,-0.387414,0.109731,0.022758,0.000757,-4.409885,-11.204121,-22.112244,31.817272,-0.22081834,-0.26679543,-0.1741999,0.027892763,0.030189846,-0.10811915,0.0075
20240115 08:28:39,0.271442,-0.282109,-0.779026,0.046875,-0.019855,0.024195,-4.788929,-11.138325,-22.120316,30.136328,-0.6000911,-0.08293469,-0.3979342,0.039155826,-0.021979101,-0.03746829,0.0075
20240115 08:28:39,0.446469,-0.23714,-1.135884,-0.042614,-0.047554,0.038045,-4.975773,-11.999882,-22.199905,28.486002,-0.933831,0.018019736,-0.6349234,0.03622318,-0.056191728,0.054190636,0.0075
20240115 08:28:39,0.542737,-0.277708,-1.228223,-0.139561,-0.066731,0.041241,-4.658062,-11.596962,-22.35701,24.157587,-1.0117413,-0.06702532,-0.7614056,0.017452471,-0.077277,0.15081312,0.0075
20240115 08:28:39,0.54471,-0.257686,-1.066485,-0.226919,-0.089103,0.036979,-5.257626,-12.022717,-22.067245,27.323122,-0.83320487,-0.06168835,-0.74165154,-0.009666491,-0.10345813,0.23829217,0.0075
20240115 08:28:39,0.458009,-0.31862,-0.71675,-0.286579,-0.112541,0.033783,-4.631939,-10.928127,-22.936295,26.808294,-0.4762326,-0.16222416,-0.58712065,-0.03579237,-0.13253729,0.29761174,0.0075
20240115 08:28:39,0.28718,-0.346498,-0.454234,-0.312147,-0.131717,0.034849,-4.737331,-11.318283,-22.509964,30.980297,-0.25257373,-0.22047482,-0.3399853,-0.040790632,-0.1583784,0.32696387,0.0075
20240115 08:28:39,0.139878,-0.251956,-0.339429,-0.29084,-0.107214,0.05509,-4.965389,-10.771004,-22.413971,33.278614,-0.20531741,-0.15349106,-0.18013719,-0.020811483,-0.14052644,0.30916205,0.0075
20240115 08:28:39,0.130849,-0.314003,-0.368102,-0.252488,-0.042228,0.074266,-4.61401,-10.738087,-22.948532,30.732948,-0.22562554,-0.2153599,-0.17539765,-0.0069798306,-0.076697595,0.26651773,0.0075
20240115 08:28:39,0.220862,-0.405996,-0.349169,-0.208808,0.029151,0.06894,-4.87077,-11.417835,-22.906708,30.825487,-0.1640931,-0.3102481,-0.23891047,-0.013426095,-0.0005770987,0.21143232,0.0075
20240115 08:28:39,0.203707,-0.432211,-0.299282,-0.164064,0.070699,0.05509,-4.665997,-10.366238,-22.83934,29.565666,-0.11963403,-0.34893537,-0.20746924,-0.019728713,0.04644165,0.15854989,0.0075
20240115 08:28:39,0.184263,-0.41186,-0.295496,-0.131038,0.078157,0.040175,-4.668179,-11.116318,-23.192307,29.382467,-0.12922013,-0.33180806,-0.19216356,-0.02245048,0.05934459,0.12227189,0.0075
20240115 08:28:39,0.245032,-0.359112,-0.484697,-0.104404,0.071765,0.028456,-5.159779,-10.593727,-22.695435,29.835472,-0.3057493,-0.24273972,-0.30803102,-0.019791322,0.05820456,0.09581306,0.0075
20240115 08:28:39,0.347421,-0.223466,-0.733676,-0.100143,0.074961,0.015672,-4.711201,-10.649448,-23.089249,26.74966,-0.5533527,-0.06635344,-0.48863822,-0.026970271,0.06536475,0.090626806,0.0075
20240115 08:28:39,0.355074,-0.135774,-0.970181,-0.120384,0.080287,0.00928,-4.798283,-11.041454,-22.394669,27.809196,-0.7979655,0.0714715,-0.55158615,-0.03827434,0.07061714,0.10845558,0.0075
20240115 08:28:39,0.363415,-0.006711,-1.065008,-0.15341,0.077091,0.007149,-4.532169,-10.458576,-22.162125,24.499367,-0.91688365,0.17393988,-0.6056321,-0.045647386,0.06846907,0.14124562,0.0075
20240115 08:28:39,0.465077,-0.058417,-1.024123,-0.189632,0.066438,-0.003504,-4.53294,-10.074802,-22.723068,23.194527,-0.83993757,0.10539049,-0.69749534,-0.06433532,0.05863903,0.17447151,0.0075
20240115 08:28:39,0.486116,-0.106275,-0.831141,-0.218396,0.046196,-0.030138,-4.684696,-10.172501,-23.388062,24.116451,-0.623665,0.0387457,-0.677103,-0.10025022,0.040089168,0.19466147,0.0075
20240115 08:28:39,0.36048,-0.121814,-0.63389,-0.221592,0.031281,-0.050379,-4.560223,-10.167973,-22.985199,27.037529,-0.452832,0.016252458,-0.50417435,-0.12323621,0.026349375,0.19113687,0.0075
20240115 08:28:39,0.219835,-0.075127,-0.412762,-0.182175,0.032347,-0.059967,-4.417431,-10.165291,-22.314102,29.00838,-0.29034317,0.023369864,-0.31689072,-0.123324424,0.030504752,0.14826348,0.0075
20240115 08:28:39,0.159234,-0.011134,-0.307145,-0.109731,0.054719,-0.058902,-4.301922,-10.255775,-21.905136,30.403917,-0.22572887,0.06788978,-0.23702657,-0.1026739,0.05753956,0.0770147,0.0075
20240115 08:28:39,0.135303,-0.012287,-0.488256,-0.021307,0.100529,-0.051445,-4.295147,-10.910835,-22.264221,29.956818,-0.40555063,0.1050186,-0.25971246,-0.07627056,0.1075418,-0.009624254,0.0075
20240115 08:28:39,0.19847,0.002643,-0.73257,0.043679,0.139947,-0.046118,-3.906109,-9.555878,-22.750702,28.755062,-0.6191488,0.19240202,-0.38033754,-0.06314508,0.14975774,-0.07366332,0.0075
20240115 08:28:39,0.233676,0.094379,-0.860747,0.071378,0.153796,-0.046118,-4.578915,-9.974232,-23.53392,29.692503,-0.7597176,0.313798,-0.44324547,-0.060171857,0.16489169,-0.100606434,0.0075
20240115 08:28:39,0.255942,0.238759,-1.191805,0.072444,0.141012,-0.035464,-3.864231,-9.447075,-23.69519,29.49415,-1.1112394,0.5799669,-0.5295361,-0.054733686,0.15002942,-0.094690606,0.0075
20240115 08:28:39,0.23781,0.30454,-1.256382,0.043679,0.127163,-0.02055,-3.844501,-8.315071,-23.634918,28.535107,-1.1974211,0.6510142,-0.52875113,-0.043438263,0.13057308,-0.061204217,0.0075
20240115 08:28:39,0.27422,0.484309,-1.310861,0.020242,0.127163,-0.000308,-3.899448,-8.309521,-24.439651,28.59869,-1.301998,0.85343766,-0.5685278,-0.032042827,0.12301705,-0.033060197,0.0075
20240115 08:28:39,0.289714,0.585351,-1.565648,-0.010653,0.171907,0.02526,-3.423588,-8.272072,-24.57132,28.01919,-1.5750229,1.0425011,-0.62247205,-0.029896121,0.15553704,-0.0015260661,0.0075
20240115 08:28:39,0.340339,0.6153,-1.482832,-0.043679,0.217717,0.048698,-3.428951,-6.483162,-24.420227,25.241705,-1.4753981,0.99344075,-0.69156325,-0.019763093,0.19502142,0.031613927,0.0075
20240115 08:28:40,0.306667,0.552851,-1.099141,-0.066052,0.220913,0.058286,-3.624371,-7.631626,-24.213211,24.201569,-1.0656618,0.79296917,-0.6303371,-0.01065461,0.19887993,0.053344563,0.0075
20240115 08:28:40,0.333898,0.534491,-0.47835,-0.059659,0.127163,0.056155,-3.52821,-9.046009,-23.584061,22.660448,-0.4402724,0.6280114,-0.5148435,0.012128215,0.111786,0.057697207,0.0075
20240115 08:28:40,0.366629,0.551355,-0.470332,-0.050071,0.10266,0.050829,-3.52821,-9.046009,-23.584061,21.58167,-0.42235535,0.63813674,-0.54092336,0.016235337,0.090396434,0.05062657,0.0075
20240115 08:28:40,0.450784,0.684916,-0.548661,-0.019176,0.096268,0.038045,-3.272228,-7.982483,-24.186813,20.036207,-0.49881512,0.7854405,-0.6474404,0.01487915,0.08782953,0.019159835,0.0075
20240115 08:28:40,0.442837,0.78606,-0.647713,0.01385,0.135685,0.029522,-3.131741,-6.828472,-25.198532,18.966473,-0.61815596,0.9012902,-0.66689396,0.009650225,0.12954816,-0.01780514,0.0075
20240115 08:28:40,0.384583,0.909833,-0.661947,0.044745,0.199606,0.031652,-2.689564,-6.421024,-24.952805,20.932549,-0.70354295,1.0495642,-0.631918,0.00044687465,0.19092986,-0.054596003,0.0075
20240115 08:28:40,0.230308,1.046459,-0.572235,0.064986,0.267789,0.045502,-2.565472,-6.224606,-24.830414,22.462358,-0.7076326,1.1645355,-0.49056208,-0.0012111403,0.25374678,-0.079710454,0.0075
20240115 08:28:40,0.13678,1.110321,-0.287014,0.073509,0.297618,0.067874,-2.42564,-6.588226,-25.073227,21.908373,-0.46614608,1.153363,-0.34804428,0.020223394,0.2798672,-0.0850526,0.0075
20240115 08:28:40,0.190104,1.087566,0.122551,0.07564,0.249678,0.080659,-2.542568,-7.631592,-25.274231,18.987177,0.00024859607,1.0620936,-0.26143873,0.059694294,0.23714207,-0.07258297,0.0075
20240115 08:28:40,0.331009,1.20335,0.418305,0.087359,0.137816,0.077462,-2.266727,-7.337471,-24.486862,15.929931,0.3429047,1.1518531,-0.2863763,0.08369081,0.13038865,-0.06953093,0.0075
20240115 08:28:40,0.513547,1.447358,0.147118,0.1076,0.057915,0.073201,-2.443188,-6.97015,-24.780533,11.845127,0.18176392,1.4436975,-0.53581446,0.09746658,0.05466714,-0.0846054,0.0075
20240115 08:28:40,0.796835,1.608918,-0.208236,0.119319,0.050458,0.054025,-2.328449,-6.676868,-24.93251,6.582393,0.00889349,1.6125345,-0.87436366,0.08474447,0.050293732,-0.10122203,0.0075
20240115 08:28:40,0.962533,1.712628,-0.401388,0.134234,0.098398,0.008215,-2.107548,-6.377197,-24.949875,6.106532,-0.1583185,1.7199627,-1.0800685,0.041516084,0.09870473,-0.13026719,0.0075
20240115 08:28:40,0.792383,1.954642,-0.584909,0.141691,0.208129,-0.029072,-2.399784,-7.628914,-24.603119,13.852901,-0.59464145,2.0313532,-1.0219253,-0.017312646,0.21413516,-0.15649228,0.0075
20240115 08:28:40,0.414351,2.172353,-0.508412,0.126776,0.341298,-0.026942,-1.685101,-7.101753,-24.764404,19.214424,-0.84366107,2.252216,-0.7201011,-0.066340566,0.34597853,-0.1591203,0.0075
20240115 08:28:40,0.069057,2.143907,0.011773,0.083097,0.399892,0.000757,-1.694065,-7.19677,-24.758286,23.01852,-0.5197131,2.065686,-0.33506984,-0.07535528,0.391918,-0.12931009,0.0075
20240115 08:28:40,-0.267646,1.815813,0.743689,0.009588,0.328513,0.031652,-1.747471,-7.958778,-24.441132,27.018984,0.04049784,1.4917073,0.1818634,-0.059893273,0.30543312,-0.056568492,0.0075
20240115 08:28:40,-0.590698,1.495818,1.407844,-0.085228,0.156992,0.065744,-1.421181,-7.268955,-24.884827,28.127789,0.49974465,0.93000394,0.7684996,-0.02742372,0.11772443,0.06899053,0.0075
20240115 08:28:40,-0.740736,1.195985,1.859704,-0.139561,-0.023051,0.106227,-1.826351,-7.87199,-24.313614,30.039612,0.8681153,0.52663195,1.137451,0.027158435,-0.07132909,0.17221086,0.0075
20240115 08:28:40,-0.866345,0.909902,2.089743,-0.136365,-0.14024,0.147775,-1.783329,-8.338856,-24.416687,30.580385,1.0500485,0.18073785,1.4179558,0.09091234,-0.19347763,0.21732026,0.0075
20240115 08:28:40,-0.778984,0.537501,1.992408,-0.087359,-0.162612,0.185063,-1.544117,-8.041042,-24.165787,28.65003,1.1199341,-0.09893599,1.4238938,0.14974287,-0.21477503,0.19655108,0.0075
20240115 08:28:40,-0.596567,0.173338,1.860268,-0.001065,-0.090168,0.195716,-1.712646,-8.904449,-23.977142,28.261147,1.1941504,-0.33686972,1.3106868,0.18193951,-0.13158876,0.111276254,0.0075
20240115 08:28:40,-0.505368,-0.307753,1.912072,0.093751,0.003582,0.181867,-1.677555,-8.140591,-24.562531,26.898111,1.3513763,-0.7679225,1.4202707,0.19811231,-0.02213757,0.007645026,0.0075
20240115 08:28:40,-0.503074,-0.68082,2.04522,0.187501,0.057915,0.158429,-1.527992,-8.792969,-24.250534,28.688915,1.5072886,-1.1721394,1.598907,0.21895939,0.048849758,-0.0938342,0.0075
20240115 08:28:40,-0.638132,-0.960267,1.950305,0.278056,0.073895,0.139253,-1.3605,-9.255306,-23.950745,30.963419,1.4260932,-1.4854686,1.7355907,0.24800226,0.08196376,-0.18576175,0.0075
20240115 08:28:40,-0.699281,-1.182005,1.710784,0.347303,0.071765,0.13073,-1.378815,-9.253456,-24.218994,31.477808,1.3000528,-1.6772357,1.706368,0.27353045,0.091602154,-0.25295395,0.0075
20240115 08:28:40,-0.630804,-1.223682,1.353813,0.409094,0.070699,0.132861,-1.51968,-10.21558,-23.487732,31.256311,1.1049123,-1.6067935,1.4530783,0.2991109,0.09496212,-0.3134771,0.0075
20240115 08:28:40,-0.495878,-1.269381,0.967048,0.439989,0.061111,0.132861,-1.599712,-9.553123,-24.20163,29.809032,0.9300237,-1.5406976,1.1204867,0.29939237,0.08448647,-0.35060087,0.0075
