Timestamp,linacce_x,linacce_y,linacce_z,gyro_x,gyro_y,gyro_z,X-magnetometer,Y-magnetometer,Z-magnetometer,Yaw, worldXAccel,worldYAccel,worldZAccel,worldXgyro,worldYgyro,worldZgyro
08:24:18,0.48594,0.497671,0.024509,0.034481,0.454446,-0.057975,-1.666916,-1.378567,-14.554092,4.021555,0.28050256,0.48501018,-0.43050072,-0.01184839,0.44998318,-0.07353168
08:24:18,0.48608439,0.488712355,0.023581555,0.035993794999999995,0.450450945,-0.05728785,-1.65184152,-1.38812804,-14.566045125,3.965549975,0.27950901525,0.47607860560000004,-0.4313771384,-0.010666240300000001,0.446001977,-0.0745603662
08:24:18,0.48622877999999997,0.47975371,0.022654109999999998,0.03750659,0.44645589,-0.0566007,-1.63676704,-1.3976890800000001,-14.57799825,3.9095449500000004,0.27851547050000003,0.4671470312,-0.4322535568,-0.0094840906,0.442020774,-0.0755890524
08:24:18,0.48637316999999997,0.47079506499999996,0.021726665,0.039019385,0.442460835,-0.05591355,-1.62169256,-1.40725012,-14.589951375,3.853539925,0.27752192575,0.45821545680000003,-0.4331299752,-0.0083019409,0.43803957099999996,-0.0766177386
08:24:18,0.48651755999999996,0.46183641999999997,0.02079922,0.04053218,0.43846578,-0.0552264,-1.60661808,-1.4168111600000002,-14.6019045,3.7975349,0.276528381,0.4492838824,-0.4340063936,-0.0071197912,0.43405836799999997,-0.0776464248
08:24:18,0.48666195,0.452877775,0.019871775,0.042044975,0.434470725,-0.05453925,-1.5915436,-1.4263722,-14.613857625000001,3.7415298750000003,0.27553483625,0.440352308,-0.434882812,-0.0059376415,0.430077165,-0.078675111
08:24:18,0.48680634,0.44391913,0.01894433,0.043557769999999996,0.43047567000000003,-0.0538521,-1.57646912,-1.43593324,-14.625810750000001,3.68552485,0.2745412915,0.4314207336,-0.43575923040000003,-0.004755491800000001,0.426095962,-0.0797037972
08:24:18,0.48695073,0.43496048499999995,0.018016885,0.045070565,0.426480615,-0.05316495,-1.56139464,-1.4454942800000001,-14.637763875000001,3.629519825,0.27354774675,0.4224891592,-0.4366356488,-0.0035733421,0.422114759,-0.0807324834
08:24:18,0.48709512,0.42600183999999996,0.017089439999999997,0.04658336,0.42248556000000004,-0.0524778,-1.54632016,-1.45505532,-14.649717,3.5735148000000003,0.272554202,0.41355758480000004,-0.4375120672,-0.0023911924000000005,0.41813355599999996,-0.0817611696
08:24:18,0.48723951,0.417043195,0.016161995,0.048096155,0.418490505,-0.05179065,-1.53124568,-1.4646163600000002,-14.661670125,3.517509775,0.27156065725,0.4046260104,-0.4383884856,-0.0012090427000000011,0.414152353,-0.0827898558
08:24:18,0.4873839,0.40808455,0.01523455,0.04960895,0.41449545,-0.051103499999999996,-1.5161712,-1.4741774,-14.67362325,3.4615047500000005,0.2705671125,0.395694436,-0.439264904,-2.6893000000000056e-05,0.41017115,-0.083818542
08:24:18,0.48752829,0.399125905,0.014307104999999999,0.051121744999999996,0.410500395,-0.05041635,-1.50109672,-1.4837384400000002,-14.685576375,3.4054997250000003,0.26957356775,0.3867628616,-0.4401413224,0.0011552566999999993,0.406189947,-0.0848472282
08:24:18,0.48767267999999997,0.39016726,0.013379659999999998,0.05263454,0.40650534000000005,-0.0497292,-1.48602224,-1.4932994800000001,-14.6975295,3.3494947,0.268580023,0.37783128720000003,-0.4410177408,0.0023374063999999986,0.40220874399999995,-0.0858759144
08:24:18,0.48781706999999996,0.381208615,0.012452214999999999,0.054147335000000005,0.402510285,-0.04904205,-1.47094776,-1.50286052,-14.709482625000001,3.293489675,0.26758647825000004,0.3688997128,-0.4418941592,0.0035195560999999997,0.39822754099999996,-0.08690460059999999
08:24:18,0.48796145999999996,0.37224997,0.011524769999999998,0.05566013,0.39851523,-0.0483549,-1.45587328,-1.5124215600000002,-14.721435750000001,3.2374846500000003,0.2665929335,0.3599681384,-0.4427705776,0.004701705800000001,0.394246338,-0.0879332868
08:24:18,0.48810585,0.36329132499999994,0.010597325,0.057172925,0.39452017500000003,-0.047667749999999995,-1.4407988,-1.5219826,-14.733388875000001,3.181479625,0.26559938875,0.35103656400000005,-0.443646996,0.0058838555,0.390265135,-0.088961973
08:24:18,0.48825024,0.35433267999999996,0.009669879999999999,0.05868572,0.39052512,-0.0469806,-1.42572432,-1.5315436400000002,-14.745342,3.1254746000000004,0.26460584400000003,0.3421049896,-0.4445234144,0.007066005199999999,0.386283932,-0.0899906592
08:24:18,0.48839463,0.34537403499999997,0.008742435,0.060198515,0.38653006500000003,-0.04629345,-1.41064984,-1.5411046800000001,-14.757295125,3.0694695750000003,0.26361229925,0.3331734152,-0.4453998328,0.008248154899999999,0.38230272899999995,-0.0910193454
08:24:18,0.48853902,0.33641539,0.007814989999999997,0.061711310000000005,0.38253501,-0.0456063,-1.39557536,-1.55066572,-14.76924825,3.01346455,0.2626187545,0.3242418408,-0.44627625120000003,0.009430304599999998,0.37832152599999996,-0.0920480316
08:24:18,0.48868341,0.327456745,0.006887544999999998,0.063224105,0.37853995500000004,-0.04491915,-1.38050088,-1.5602267600000002,-14.781201375,2.957459525,0.26162520975000003,0.31531026640000004,-0.4471526696,0.010612454300000001,0.374340323,-0.0930767178
08:24:18,0.4888278,0.3184981,0.005960099999999999,0.0647369,0.3745449,-0.044232,-1.3654264,-1.5697878,-14.7931545,2.9014545000000003,0.260631665,0.306378692,-0.448029088,0.011794604,0.37035912,-0.094105404
08:24:18,0.48897219,0.309539455,0.005032654999999997,0.066249695,0.370549845,-0.043544849999999996,-1.35035192,-1.5793488400000002,-14.805107625000002,2.845449475,0.25963812025,0.29744711760000003,-0.4489055064,0.0129767537,0.366377917,-0.0951340902
08:24:18,0.48911657999999997,0.30058081,0.004105209999999998,0.06776249000000001,0.36655479,-0.0428577,-1.33527744,-1.58890988,-14.817060750000001,2.7894444500000004,0.25864457550000003,0.28851554320000006,-0.4497819248,0.014158903399999999,0.36239671399999995,-0.0961627764
08:24:18,0.48926096999999996,0.291622165,0.003177764999999999,0.06927528499999999,0.36255973500000005,-0.04217055,-1.32020296,-1.59847092,-14.829013875000001,2.7334394250000003,0.25765103075,0.2795839688,-0.4506583432,0.015341053099999998,0.35841551099999996,-0.0971914626
08:24:18,0.48940536,0.28266352,0.0022503199999999966,0.07078808,0.35856468,-0.041483400000000004,-1.30512848,-1.6080319600000001,-14.840967000000001,2.6774344,0.256657486,0.2706523944,-0.4515347616,0.016523202799999998,0.354434308,-0.09822014879999999
08:24:18,0.48954975,0.27370487499999996,0.0013228749999999977,0.072300875,0.354569625,-0.04079625,-1.290054,-1.617593,-14.852920125,2.621429375,0.25566394125,0.26172082,-0.45241118,0.0177053525,0.350453105,-0.099248835
08:24:18,0.48969414,0.26474622999999997,0.0003954299999999987,0.07381367,0.35057457000000003,-0.040109099999999995,-1.27497952,-1.6271540400000002,-14.86487325,2.5654243500000002,0.2546703965,0.25278924560000005,-0.4532875984,0.0188875022,0.346471902,-0.1002775212
08:24:18,0.48983853,0.255787585,-0.0005320150000000003,0.07532646500000001,0.346579515,-0.03942195,-1.25990504,-1.63671508,-14.876826375,2.5094193250000005,0.25367685175,0.24385767120000001,-0.4541640168,0.0200696519,0.34249069899999995,-0.1013062074
08:24:18,0.48998292,0.24682894,-0.0014594600000000027,0.07683925999999999,0.34258446000000004,-0.0387348,-1.24483056,-1.64627612,-14.8887795,2.4534143000000004,0.252683307,0.23492609680000004,-0.4550404352,0.021251801600000002,0.33850949599999997,-0.1023348936
08:24:18,0.49012731,0.237870295,-0.0023869050000000017,0.078352055,0.338589405,-0.03804765,-1.22975608,-1.6558371600000001,-14.900732625,2.3974092750000002,0.25168976225,0.2259945224,-0.4559168536,0.022433951299999998,0.334528293,-0.1033635798
08:24:18,0.4902717,0.22891164999999997,-0.0033143500000000006,0.07986485,0.33459435000000004,-0.0373605,-1.2146816,-1.6653982,-14.912685750000001,2.34140425,0.25069621750000004,0.21706294800000003,-0.45679327200000003,0.023616101,0.33054709,-0.104392266
08:24:18,0.49041608999999997,0.21995300499999998,-0.004241795000000003,0.081377645,0.330599295,-0.03667335,-1.19960712,-1.6749592400000002,-14.924638875000001,2.285399225,0.24970267275000002,0.2081313736,-0.4576696904,0.024798250699999996,0.326565887,-0.1054209522
08:24:18,0.49056047999999997,0.21099436,-0.005169240000000002,0.08289044000000001,0.32660424,-0.035986199999999996,-1.18453264,-1.68452028,-14.936592000000001,2.2293942,0.248709128,0.19919979920000003,-0.4585461088,0.0259804004,0.32258468399999995,-0.10644963839999999
08:24:18,0.49070486999999996,0.202035715,-0.006096685000000001,0.084403235,0.322609185,-0.03529905,-1.16945816,-1.69408132,-14.948545125,2.1733891750000005,0.24771558325,0.19026822480000005,-0.4594225272,0.027162550100000002,0.318603481,-0.1074783246
08:24:18,0.49084926,0.19307707000000002,-0.00702413,0.08591603,0.31861413000000005,-0.0346119,-1.15438368,-1.7036423600000001,-14.96049825,2.1173841500000004,0.24672203850000002,0.18133665040000002,-0.4602989456,0.028344699799999998,0.314622278,-0.1085070108
08:24:18,0.49099365,0.18411842499999997,-0.007951574999999999,0.087428825,0.314619075,-0.033924750000000004,-1.1393092,-1.7132034,-14.972451375,2.061379125,0.24572849375,0.17240507600000005,-0.46117536400000003,0.0295268495,0.310641075,-0.10953569699999999
08:24:18,0.49113804,0.17515978,-0.008879020000000005,0.08894162,0.31062402,-0.0332376,-1.12423472,-1.7227644400000002,-14.9844045,2.0053741,0.244734949,0.16347350160000002,-0.4620517824,0.030708999199999996,0.306659872,-0.1105643832
08:24:18,0.49128243,0.166201135,-0.009806465000000004,0.09045441500000001,0.30662896500000003,-0.032550449999999995,-1.10916024,-1.73232548,-14.996357625,1.9493690750000003,0.24374140425000002,0.15454192720000004,-0.4629282008,0.0318911489,0.30267866899999996,-0.1115930694
08:24:18,0.49142682,0.15724249,-0.010733910000000003,0.09196721,0.30263391,-0.0318633,-1.09408576,-1.74188652,-15.008310750000001,1.8933640500000002,0.24274785950000002,0.1456103528,-0.4638046192,0.0330732986,0.298697466,-0.1126217556
08:24:18,0.49157121,0.14828384499999997,-0.011661355000000002,0.093480005,0.298638855,-0.03117615,-1.07901128,-1.7514475600000001,-15.020263875000001,1.837359025,0.24175431475000003,0.13667877840000003,-0.4646810376,0.0342554483,0.294716263,-0.1136504418
08:24:18,0.4917156,0.13932519999999998,-0.0125888,0.0949928,0.2946438,-0.030489,-1.0639368,-1.7610086,-15.032217000000001,1.7813540000000003,0.24076077,0.127747204,-0.465557456,0.035437598,0.29073506,-0.11467912799999999
08:24:18,0.49185998999999997,0.130366555,-0.013516245,0.096505595,0.29064874500000004,-0.02980185,-1.04886232,-1.7705696400000002,-15.044170125,1.7253489750000002,0.23976722525000002,0.11881562960000003,-0.4664338744,0.0366197477,0.286753857,-0.1157078142
08:24:18,0.49200437999999996,0.12140791000000001,-0.014443690000000006,0.09801839000000001,0.28665369,-0.0291147,-1.03378784,-1.78013068,-15.05612325,1.66934395,0.23877368050000003,0.10988405520000005,-0.4673102928,0.0378018974,0.28277265399999996,-0.1167365004
08:24:18,0.49214877,0.11244926500000002,-0.015371135000000005,0.09953118500000001,0.282658635,-0.02842755,-1.01871336,-1.78969172,-15.068076375,1.6133389250000003,0.23778013575,0.10095248080000002,-0.4681867112,0.0389840471,0.278791451,-0.11776518659999999
08:24:18,0.49229316,0.10349061999999998,-0.016298580000000003,0.10104398,0.27866358,-0.0277404,-1.00363888,-1.7992527600000001,-15.0800295,1.5573339000000002,0.23678659100000002,0.09202090640000005,-0.4690631296,0.0401661968,0.274810248,-0.1187938728
08:24:18,0.49243755,0.09453197499999999,-0.017226025000000002,0.102556775,0.27466852500000005,-0.02705325,-0.9885644,-1.8088138,-15.091982625,1.501328875,0.23579304625000003,0.08308933200000002,-0.469939548,0.0413483465,0.270829045,-0.119822559
08:24:18,0.49258194,0.08557333,-0.01815347,0.10406957,0.27067347,-0.026366099999999996,-0.97348992,-1.8183748400000002,-15.103935750000002,1.4453238500000003,0.2347995015,0.07415775760000004,-0.4708159664,0.0425304962,0.266847842,-0.1208512452
08:24:18,0.49272633,0.07661468500000002,-0.019080915,0.10558236500000001,0.266678415,-0.02567895,-0.95841544,-1.82793588,-15.115888875000001,1.3893188250000001,0.23380595675000002,0.06522618320000001,-0.4716923848,0.0437126459,0.26286663899999996,-0.1218799314
08:24:18,0.49287072,0.06765604000000003,-0.020008360000000006,0.10709516000000001,0.26268336000000003,-0.0249918,-0.94334096,-1.83749692,-15.127842000000001,1.3333138,0.23281241200000002,0.056294608800000034,-0.4725688032,0.044894795599999995,0.25888543599999997,-0.12290861759999999
08:24:18,0.49301511,0.058697394999999986,-0.020935805000000005,0.108607955,0.258688305,-0.024304649999999997,-0.92826648,-1.84705796,-15.139795125000001,1.2773087750000003,0.23181886725,0.04736303440000006,-0.4734452216,0.0460769453,0.254904233,-0.1239373038
08:24:18,0.4931595,0.04973875,-0.021863250000000004,0.11012075,0.25469325,-0.0236175,-0.913192,-1.856619,-15.15174825,1.2213037500000001,0.2308253225,0.03843146000000003,-0.47432164,0.047259095,0.25092303,-0.12496599
08:24:18,0.49330388999999997,0.04078010500000001,-0.022790695000000003,0.111633545,0.250698195,-0.022930350000000002,-0.89811752,-1.8661800400000002,-15.163701375,1.1652987250000004,0.22983177775000002,0.029499885600000053,-0.4751980584,0.0484412447,0.24694182699999997,-0.1259946762
08:24:18,0.49344827999999996,0.031821460000000024,-0.023718140000000002,0.11314634000000001,0.24670314000000002,-0.022243199999999998,-0.88304304,-1.87574108,-15.1756545,1.1092937000000003,0.228838233,0.020568311200000022,-0.47607447680000003,0.0496233944,0.242960624,-0.1270233624
08:24:18,0.49359267,0.02286281499999998,-0.024645585,0.11465913500000001,0.24270808500000002,-0.02155605,-0.86796856,-1.88530212,-15.187607625,1.0532886750000001,0.22784468825,0.011636736800000047,-0.4769508952,0.0508055441,0.23897942099999997,-0.1280520486
08:24:18,0.49373706,0.013904169999999993,-0.02557303,0.11617193,0.23871303000000002,-0.020868900000000003,-0.85289408,-1.89486316,-15.19956075,0.9972836500000004,0.22685114350000002,0.0027051624000000163,-0.4778273136,0.0519876938,0.23499821799999998,-0.12908073479999999
08:24:18,0.49388145,0.004945525000000006,-0.026500475000000006,0.117684725,0.23471797500000002,-0.02018175,-0.8378196,-1.9044242000000002,-15.211513875000001,0.9412786250000003,0.22585759875000003,-0.006226411999999959,-0.478703732,0.053169843499999994,0.231017015,-0.130109421
08:24:18,0.49402584,-0.004013119999999981,-0.027427920000000005,0.11919752,0.23072292000000003,-0.0194946,-0.82274512,-1.9139852400000001,-15.223467000000001,0.8852736000000001,0.22486405400000004,-0.015157986399999934,-0.4795801504,0.054351993200000004,0.22703581199999998,-0.1311381072
08:24:18,0.49417023,-0.012971764999999968,-0.028355365000000004,0.12071031500000001,0.22672786500000003,-0.018807450000000003,-0.80767064,-1.92354628,-15.235420125000001,0.8292685750000004,0.22387050925000002,-0.024089560799999965,-0.4804565688,0.0555341429,0.223054609,-0.13216679339999998
08:24:18,0.49431462,-0.021930409999999956,-0.029282810000000003,0.12222311000000001,0.22273281000000003,-0.0181203,-0.79259616,-1.93310732,-15.24737325,0.7732635500000002,0.22287696450000002,-0.033021135199999996,-0.4813329872,0.056716292599999996,0.21907340599999997,-0.1331954796
08:24:18,0.49445901,-0.030889054999999943,-0.030210255000000002,0.12373590500000001,0.218737755,-0.01743315,-0.77752168,-1.94266836,-15.259326375,0.7172585250000001,0.22188341975000003,-0.041952709599999916,-0.48220940560000003,0.057898442300000005,0.21509220299999998,-0.1342241658
08:24:18,0.49460339999999997,-0.03984770000000004,-0.0311377,0.1252487,0.2147427,-0.016745999999999997,-0.7624472,-1.9522294000000002,-15.2712795,0.6612535000000004,0.220889875,-0.050884283999999946,-0.483085824,0.059080592,0.211111,-0.13525285199999998
08:24:18,0.49474778999999997,-0.04880634500000003,-0.032065145,0.126761495,0.210747645,-0.01605885,-0.74737272,-1.9617904400000001,-15.283232625,0.6052484750000002,0.21989633025000002,-0.05981585839999998,-0.4839622424,0.0602627417,0.20712979699999998,-0.1362815382
08:24:18,0.49489218,-0.057764990000000016,-0.03299259,0.12827429,0.20675259,-0.015371700000000002,-0.73229824,-1.97135148,-15.29518575,0.5492434500000001,0.21890278550000003,-0.06874743280000001,-0.4848386608,0.06144489139999999,0.203148594,-0.1373102244
08:24:18,0.49503657,-0.066723635,-0.033920035,0.12978708500000002,0.20275753500000004,-0.014684549999999998,-0.71722376,-1.98091252,-15.307138875000001,0.49323842500000037,0.21790924075,-0.07767900719999993,-0.4857150792,0.0626270411,0.19916739099999997,-0.13833891059999998
08:24:18,0.49518096,-0.07568227999999999,-0.03484748,0.13129988,0.19876248000000002,-0.0139974,-0.70214928,-1.99047356,-15.319092000000001,0.4372334000000002,0.21691569600000002,-0.08661058159999996,-0.4865914976,0.0638091908,0.19518618799999998,-0.1393675968
08:24:18,0.49532535,-0.08464092499999998,-0.035774925,0.132812675,0.194767425,-0.013310250000000003,-0.6870748,-2.0000346,-15.331045125000001,0.38122837500000006,0.21592215125000003,-0.09554215599999999,-0.487467916,0.0649913405,0.191204985,-0.140396283
08:24:18,0.49546974,-0.09359956999999997,-0.03670237,0.13432547,0.19077237000000002,-0.012623099999999998,-0.67200032,-2.00959564,-15.34299825,0.32522335000000036,0.2149286065,-0.10447373039999991,-0.4883443344,0.0661734902,0.187223782,-0.14142496919999997
08:24:18,0.49561413,-0.10255821499999995,-0.037629815,0.135838265,0.186777315,-0.01193595,-0.65692584,-2.01915668,-15.354951375,0.2692183250000002,0.21393506175000002,-0.11340530479999994,-0.4892207528,0.0673556399,0.18324257899999996,-0.1424536554
08:24:18,0.49575852,-0.11151685999999994,-0.038557259999999996,0.13735106000000002,0.18278226000000003,-0.011248800000000003,-0.64185136,-2.02871772,-15.3669045,0.21321330000000005,0.21294151700000002,-0.12233687919999997,-0.4900971712,0.0685377896,0.17926137599999997,-0.1434823416
08:24:18,0.49590291,-0.12047550500000004,-0.039484704999999995,0.138863855,0.178787205,-0.010561649999999999,-0.62677688,-2.03827876,-15.378857625,0.15720827500000034,0.21194797225,-0.1312684536,-0.4909735896,0.06971993929999999,0.17528017299999998,-0.1445110278
08:24:18,0.49604729999999997,-0.12943415000000003,-0.040412149999999994,0.14037665,0.17479215000000003,-0.009874500000000001,-0.6117024,-2.0478398,-15.39081075,0.10120325000000019,0.2109544275,-0.14020002799999992,-0.491850008,0.070902089,0.17129897,-0.145539714
08:24:18,0.49619168999999996,-0.138392795,-0.04133959500000001,0.141889445,0.170797095,-0.009187349999999997,-0.59662792,-2.05740084,-15.402763875000002,0.045198225000000036,0.20996088275000002,-0.14913160239999995,-0.49272642640000003,0.0720842387,0.167317767,-0.1465684002
08:24:18,0.49633608,-0.14735144,-0.042267040000000006,0.14340224000000001,0.16680204000000004,-0.0085002,-0.58155344,-2.06696188,-15.414717000000001,-0.010806800000000116,0.208967338,-0.15806317679999998,-0.4936028448,0.0732663884,0.16333656399999996,-0.1475970864
08:24:18,0.49648047,-0.156310085,-0.043194485000000005,0.14491503500000003,0.16280698500000002,-0.007813050000000002,-0.56647896,-2.07652292,-15.426670125000001,-0.06681182499999938,0.20797379325000004,-0.1669947511999999,-0.4944792632,0.0744485381,0.15935536099999997,-0.14862577259999998
08:24:18,0.49662486,-0.16526872999999997,-0.044121930000000004,0.14642783,0.15881193000000005,-0.0071258999999999975,-0.55140448,-2.08608396,-15.438623250000001,-0.12281684999999953,0.20698024850000002,-0.17592632559999993,-0.4953556816,0.0756306878,0.15537415799999998,-0.1496544588
08:24:18,0.49676925,-0.17422737499999996,-0.045049375,0.147940625,0.15481687500000002,-0.00643875,-0.53633,-2.095645,-15.450576375,-0.17882187499999969,0.20598670375,-0.18485789999999996,-0.4962321,0.0768128375,0.151392955,-0.150683145
08:24:18,0.49691364,-0.18318601999999995,-0.04597682,0.14945342,0.15082182,-0.0057516000000000025,-0.52125552,-2.10520604,-15.4625295,-0.23482689999999984,0.20499315900000004,-0.1937894744,-0.49710851840000003,0.0779949872,0.147411752,-0.15171183119999998
08:24:18,0.49705803,-0.19214466499999994,-0.046904265,0.15096621500000001,0.14682676500000003,-0.005064449999999998,-0.50618104,-2.11476708,-15.474482625,-0.290831925,0.20399961425000002,-0.20272104879999991,-0.4979849368,0.0791771369,0.14343054899999996,-0.1527405174
08:24:18,0.49720242,-0.20110331000000004,-0.04783171,0.15247901000000003,0.14283171,-0.004377300000000001,-0.49110655999999997,-2.12432812,-15.48643575,-0.34683695000000014,0.20300606950000002,-0.21165262319999995,-0.4988613552,0.0803592866,0.13944934599999997,-0.1537692036
08:24:18,0.49734681,-0.21006195500000002,-0.048759155,0.153991805,0.13883665500000003,-0.003690150000000003,-0.47603207999999997,-2.13388916,-15.498388875,-0.4028419749999994,0.20201252475000003,-0.22058419759999998,-0.4997377736,0.08154143629999999,0.13546814299999999,-0.15479788979999998
08:24:18,0.49749119999999997,-0.2190206,-0.0496866,0.1555046,0.1348416,-0.0030029999999999987,-0.46095759999999997,-2.1434502,-15.510342000000001,-0.45884699999999956,0.20101898,-0.229515772,-0.500614192,0.082723586,0.13148694,-0.155826576
08:24:18,0.49763559,-0.227979245,-0.050614044999999996,0.157017395,0.13084654500000004,-0.0023158500000000012,-0.44588311999999997,-2.15301124,-15.522295125000001,-0.5148520249999997,0.20002543525000002,-0.23844734639999993,-0.5014906104,0.0839057357,0.127505737,-0.15685526219999998
08:24:18,0.49777998,-0.23693788999999998,-0.051541489999999995,0.15853019000000002,0.12685149,-0.0016287000000000038,-0.43080863999999996,-2.16257228,-15.534248250000001,-0.5708570499999999,0.19903189050000003,-0.24737892079999996,-0.5023670288,0.0850878854,0.12352453399999996,-0.15788394839999997
08:24:18,0.49792437,-0.24589653499999997,-0.052468934999999994,0.16004298500000003,0.12285643500000004,-0.0009415499999999993,-0.41573415999999996,-2.17213332,-15.546201375,-0.626862075,0.19803834575,-0.2563104952,-0.5032434472,0.0862700351,0.11954333099999997,-0.1589126346
08:24:18,0.49806876,-0.25485517999999996,-0.05339638000000001,0.16155578000000004,0.11886138000000002,-0.00025440000000000185,-0.40065967999999996,-2.18169436,-15.5581545,-0.6828671000000002,0.19704480100000002,-0.2652420695999999,-0.5041198656,0.0874521848,0.11556212799999999,-0.1599413208
08:24:18,0.49821315,-0.26381382499999995,-0.054323825000000006,0.163068575,0.11486632500000005,0.0004327500000000026,-0.38558519999999996,-2.1912554,-15.570107625,-0.7388721249999994,0.19605125625000003,-0.27417364399999994,-0.504996284,0.0886343345,0.111580925,-0.16097000699999997
08:24:18,0.49835754,-0.27277246999999993,-0.055251270000000005,0.16458137,0.11087127000000002,0.0011199,-0.37051071999999996,-2.20081644,-15.58206075,-0.7948771499999996,0.1950577115,-0.28310521839999997,-0.5058727024,0.0898164842,0.10759972200000001,-0.1619986932
08:24:18,0.49850193,-0.28173111500000003,-0.056178715000000004,0.16609416500000002,0.106876215,0.0018070499999999975,-0.35543623999999996,-2.21037748,-15.594013875000002,-0.8508821749999997,0.19406416675000002,-0.2920367928,-0.5067491208,0.0909986339,0.10361851899999996,-0.1630273794
08:24:18,0.49864632,-0.29068976,-0.05710616,0.16760696000000003,0.10288116000000003,0.002494200000000002,-0.34036175999999996,-2.2199385200000004,-15.605967000000001,-0.9068871999999999,0.19307062200000003,-0.3009683671999999,-0.5076255392,0.0921807836,0.09963731599999998,-0.1640560656
08:24:18,0.49879070999999997,-0.299648405,-0.058033605,0.16911975500000004,0.098886105,0.0031813499999999995,-0.32528727999999996,-2.22949956,-15.617920125000001,-0.962892225,0.19207707725,-0.30989994159999995,-0.5085019576,0.09336293329999999,0.09565611299999999,-0.16508475179999998
08:24:18,0.49893509999999996,-0.30860705,-0.05896105,0.17063255,0.09489105000000003,0.003868499999999997,-0.31021279999999996,-2.2390606,-15.629873250000001,-1.0188972500000002,0.19108353250000004,-0.318831516,-0.509378376,0.094545083,0.09167491,-0.166113438
08:24:18,0.49907949,-0.317565695,-0.059888495,0.172145345,0.09089599500000001,0.004555649999999994,-0.29513831999999995,-2.24862164,-15.641826375,-1.0749022749999995,0.19008998775000002,-0.3277630903999999,-0.5102547944,0.0957272327,0.08769370700000001,-0.1671421242
08:24:18,0.49922388,-0.32652433999999997,-0.06081594,0.17365814000000002,0.08690094000000004,0.005242800000000006,-0.28006383999999995,-2.25818268,-15.6537795,-1.1309072999999996,0.189096443,-0.33669466479999993,-0.5111312128000001,0.0969093824,0.08371250399999997,-0.16817081039999998
08:24:18,0.49936827,-0.33548298499999996,-0.061743385,0.17517093500000003,0.08290588500000001,0.005929950000000003,-0.26498935999999995,-2.2677437200000004,-15.665732625,-1.1869123249999998,0.18810289825000004,-0.34562623919999996,-0.5120076312,0.0980915321,0.07973130099999998,-0.1691994966
08:24:18,0.49951266,-0.34444162999999994,-0.06267083,0.17668373000000004,0.07891083000000004,0.006617100000000001,-0.24991487999999995,-2.27730476,-15.67768575,-1.24291735,0.18710935350000002,-0.3545578136,-0.5128840496,0.0992736818,0.07575009799999999,-0.1702281828
08:24:18,0.49965705,-0.35340027499999993,-0.063598275,0.178196525,0.07491577500000002,0.007304249999999998,-0.23484039999999995,-2.2868658,-15.689638875,-1.298922375,0.18611580875000003,-0.3634893879999999,-0.513760468,0.1004558315,0.071768895,-0.17125686899999998
08:24:18,0.49980144,-0.3623589199999999,-0.06452572000000001,0.17970932,0.07092072000000005,0.007991399999999996,-0.21976591999999995,-2.29642684,-15.701592000000002,-1.3549274000000002,0.18512226400000004,-0.37242096239999994,-0.5146368864,0.10163798119999999,0.06778769199999995,-0.1722855552
08:24:18,0.49994583,-0.371317565,-0.06545316500000001,0.18122211500000002,0.06692566500000002,0.008678549999999993,-0.20469143999999995,-2.30598788,-15.713545125000001,-1.4109324249999995,0.18412871925000002,-0.3813525368,-0.5155133048,0.1028201309,0.06380648899999997,-0.17331424139999999
08:24:18,0.50009022,-0.38027621,-0.06638061,0.18273491000000003,0.06293061,0.009365700000000005,-0.18961695999999995,-2.3155489200000003,-15.725498250000001,-1.4669374499999996,0.18313517450000003,-0.3902841111999999,-0.5163897232,0.1040022806,0.05982528599999998,-0.17434292759999998
08:24:18,0.50023461,-0.389234855,-0.067308055,0.18424770500000004,0.05893555500000003,0.010052850000000002,-0.17454247999999994,-2.32510996,-15.737451375000001,-1.5229424749999998,0.18214162975000003,-0.3992156855999999,-0.5172661416,0.10518443029999999,0.05584408299999999,-0.1753716138
08:24:18,0.500379,-0.3981935,-0.0682355,0.1857605,0.0549405,0.01074,-0.15946799999999994,-2.334671,-15.7494045,-1.5789475,0.18114808500000001,-0.40814725999999996,-0.51814256,0.10636658,0.05186288,-0.17640029999999998
08:24:18,0.50052339,-0.40715214499999997,-0.069162945,0.187273295,0.050945445000000034,0.011427149999999997,-0.14439351999999994,-2.34423204,-15.761357625,-1.634952525,0.18015454025000002,-0.4170788344,-0.5190189784,0.1075487297,0.047881676999999956,-0.17742898619999997
08:24:18,0.50066778,-0.41611078999999995,-0.07009039,0.18878609000000002,0.04695039000000001,0.012114299999999995,-0.12931903999999994,-2.35379308,-15.77331075,-1.6909575499999994,0.17916099550000003,-0.4260104087999999,-0.5198953968,0.1087308794,0.04390047399999997,-0.1784576724
08:24:18,0.50081217,-0.42506943499999994,-0.071017835,0.19029888500000003,0.04295533500000004,0.012801450000000006,-0.11424455999999994,-2.3633541200000003,-15.785263875,-1.7469625749999995,0.17816745075,-0.43494198319999994,-0.5207718152,0.1099130291,0.03991927099999998,-0.1794863586
08:24:18,0.50095656,-0.4340280799999999,-0.07194528,0.19181168000000004,0.038960280000000014,0.013488600000000003,-0.09917007999999994,-2.37291516,-15.797217,-1.8029675999999997,0.17717390600000002,-0.44387355759999997,-0.5216482336,0.1110951788,0.03593806799999999,-0.18051504479999997
08:24:18,0.50110095,-0.4429867249999999,-0.072872725,0.193324475,0.034965225000000044,0.01417575,-0.08409559999999994,-2.3824762,-15.809170125000001,-1.8589726249999998,0.17618036125000003,-0.4528051319999999,-0.522524652,0.1122773285,0.031956865,-0.18154373099999999
08:24:18,0.50124534,-0.45194537,-0.07380017,0.19483727,0.03097017000000002,0.014862899999999998,-0.06902111999999994,-2.39203724,-15.821123250000001,-1.91497765,0.1751868165,-0.4617367063999999,-0.5234010704000001,0.1134594782,0.027975661999999957,-0.1825724172
08:24:18,0.50138973,-0.460904015,-0.074727615,0.19635006500000002,0.026975114999999994,0.015550049999999996,-0.053946639999999935,-2.40159828,-15.833076375000001,-1.9709826750000001,0.17419327175000002,-0.47066828079999995,-0.5242774888,0.1146416279,0.023994458999999968,-0.1836011034
08:24:18,0.50153412,-0.46986266,-0.07565506,0.19786286000000003,0.022980060000000024,0.016237199999999993,-0.03887215999999993,-2.4111593200000003,-15.8450295,-2.0269876999999994,0.17319972700000003,-0.4795998552,-0.5251539072,0.1158237776,0.02001325599999998,-0.18462978959999998
08:24:18,0.50167851,-0.478821305,-0.07658250500000001,0.19937565500000004,0.018985005,0.016924350000000005,-0.023797679999999932,-2.42072036,-15.856982625,-2.0829927249999995,0.17220618225,-0.4885314295999999,-0.5260303256,0.11700592729999999,0.01603205299999999,-0.1856584758
08:24:18,0.5018229,-0.48777994999999996,-0.07750995000000001,0.20088845,0.01498995000000003,0.017611500000000002,-0.008723199999999931,-2.4302814,-15.86893575,-2.1389977499999997,0.17121263750000004,-0.49746300399999993,-0.526906744,0.11818807699999999,0.012050850000000002,-0.186687162
08:24:18,0.50196729,-0.49673859499999995,-0.07843739500000001,0.202401245,0.010994895000000005,0.01829865,0.00635128000000007,-2.43984244,-15.880888875,-2.195002775,0.17021909275000002,-0.5063945783999999,-0.5277831624,0.11937022669999998,0.008069646999999958,-0.18771584819999998
08:24:18,0.50211168,-0.5056972399999999,-0.07936484,0.20391404000000002,0.006999840000000035,0.018985799999999997,0.02142576000000007,-2.44940348,-15.892842000000002,-2.2510078,0.16922554800000003,-0.5153261527999999,-0.5286595808,0.12055237640000001,0.004088443999999969,-0.1887445344
08:24:18,0.5022560699999999,-0.514655885,-0.080292285,0.20542683500000003,0.00300478500000001,0.019672949999999995,0.03650024000000007,-2.4589645200000003,-15.904795125000001,-2.307012825,0.16823200325000004,-0.5242577272,-0.5295359992,0.1217345261,0.00010724099999998016,-0.1897732206
08:24:18,0.5024004599999999,-0.5236145299999999,-0.08121973,0.20693963000000004,-0.0009902699999999598,0.020360099999999992,0.051574720000000074,-2.46852556,-15.916748250000001,-2.3630178499999994,0.16723845850000002,-0.5331893016,-0.5304124176,0.1229166758,-0.0038739620000000086,-0.19080190679999998
08:24:18,0.50254485,-0.532573175,-0.082147175,0.208452425,-0.004985324999999985,0.021047250000000003,0.06664920000000008,-2.4780866,-15.928701375000001,-2.4190228749999996,0.16624491375000003,-0.542120876,-0.531288836,0.1240988255,-0.007855164999999997,-0.191830593
08:24:18,0.50268924,-0.5415318199999999,-0.08307462,0.20996522,-0.008980379999999955,0.0217344,0.08172368000000008,-2.48764764,-15.9406545,-2.4750278999999997,0.16525136900000004,-0.5510524504000001,-0.5321652544,0.12528097519999998,-0.011836368000000042,-0.19285927919999998
08:24:18,0.50283363,-0.550490465,-0.084002065,0.21147801500000002,-0.01297543499999998,0.02242155,0.09679816000000008,-2.49720868,-15.952607625,-2.531032925,0.16425782425000002,-0.5599840248000001,-0.5330416728,0.1264631249,-0.01581757100000003,-0.19388796539999997
08:24:18,0.50297802,-0.5594491099999999,-0.08492951,0.21299081000000003,-0.016970490000000005,0.023108699999999996,0.11187264000000008,-2.5067697200000003,-15.96456075,-2.58703795,0.16326427950000003,-0.5689155991999999,-0.5339180912,0.12764527460000002,-0.01979877400000002,-0.1949166516
08:24:18,0.50312241,-0.568407755,-0.085856955,0.21450360500000004,-0.020965544999999974,0.023795849999999993,0.12694712000000008,-2.5163307599999998,-15.976513875,-2.643042975,0.16227073475000003,-0.5778471735999999,-0.5347945096,0.1288274243,-0.023779977000000008,-0.19594533779999998
08:24:18,0.5032668,-0.5773664000000001,-0.0867844,0.2160164,-0.0249606,0.024483000000000005,0.14202160000000008,-2.5258918,-15.988467,-2.6990479999999994,0.16127719000000001,-0.586778748,-0.535670928,0.13000957400000002,-0.027761179999999996,-0.19697402399999997
08:24:18,0.50341119,-0.5863250449999999,-0.087711845,0.217529195,-0.02895565499999997,0.025170150000000002,0.15709608000000008,-2.53545284,-16.000420125,-2.7550530249999996,0.16028364525000002,-0.5957103224,-0.5365473464,0.13119172369999998,-0.03174238300000004,-0.1980027102
08:24:18,0.50355558,-0.59528369,-0.08863929000000001,0.21904199000000002,-0.032950709999999994,0.0258573,0.17217056000000008,-2.54501388,-16.01237325,-2.8110580499999998,0.15929010050000003,-0.6046418968,-0.5374237648,0.1323738734,-0.03572358600000003,-0.1990313964
08:24:18,0.50369997,-0.6042423349999999,-0.08956673500000001,0.22055478500000003,-0.036945764999999964,0.026544449999999997,0.18724504000000008,-2.5545749200000003,-16.024326375,-2.867063075,0.15829655575,-0.6135734712,-0.5383001832000001,0.13355602309999998,-0.03970478900000002,-0.20006008259999997
08:24:18,0.50384436,-0.61320098,-0.09049418000000001,0.22206758000000004,-0.04094081999999999,0.027231599999999995,0.20231952000000009,-2.5641359599999998,-16.0362795,-2.9230681,0.15730301100000002,-0.6225050456000001,-0.5391766016,0.1347381728,-0.04368599200000001,-0.20108876879999998
08:24:18,0.50398875,-0.6221596249999999,-0.091421625,0.223580375,-0.04493587499999996,0.027918749999999992,0.2173940000000001,-2.573697,-16.048232625,-2.979073125,0.15630946625000003,-0.6314366199999999,-0.54005302,0.13592032250000002,-0.047667194999999996,-0.202117455
08:24:18,0.50413314,-0.63111827,-0.09234907,0.22509317,-0.04893092999999993,0.028605900000000004,0.2324684800000001,-2.58325804,-16.060185750000002,-3.0350781499999995,0.15531592150000004,-0.6403681943999999,-0.5409294384,0.1371024722,-0.05164839800000004,-0.20314614119999996
08:24:18,0.50427753,-0.6400769149999999,-0.093276515,0.22660596500000002,-0.05292598500000001,0.02929305,0.2475429600000001,-2.59281908,-16.072138875,-3.0910831749999996,0.15432237675000002,-0.6492997688,-0.5418058568,0.13828462190000002,-0.05562960099999997,-0.20417482739999998
08:24:18,0.50442192,-0.64903556,-0.09420396,0.22811876000000003,-0.05692103999999998,0.0299802,0.2626174400000001,-2.6023801200000003,-16.084092000000002,-3.1470882,0.15332883200000003,-0.6582313432,-0.5426822752,0.13946677159999998,-0.05961080400000002,-0.2052035136
08:24:18,0.50456631,-0.657994205,-0.095131405,0.22963155500000004,-0.06091609499999995,0.030667349999999996,0.2776919200000001,-2.6119411599999998,-16.096045125,-3.203093225,0.15233528725000003,-0.6671629176,-0.5435586936,0.1406489213,-0.06359200700000006,-0.20623219979999996
08:24:18,0.5047107,-0.6669528499999999,-0.09605885,0.23114435,-0.06491115000000003,0.031354499999999993,0.2927664000000001,-2.6215022,-16.10799825,-3.25909825,0.15134174250000001,-0.676094492,-0.544435112,0.14183107099999998,-0.06757321,-0.20726088599999998
08:24:18,0.50485509,-0.675911495,-0.096986295,0.232657145,-0.068906205,0.032041650000000005,0.3078408800000001,-2.63106324,-16.119951375,-3.3151032749999993,0.15034819775000002,-0.6850260664000001,-0.5453115304,0.1430132207,-0.07155441300000004,-0.2082895722
08:24:18,0.50499948,-0.6848701399999999,-0.09791374,0.23416994000000002,-0.07290125999999997,0.0327288,0.3229153600000001,-2.64062428,-16.1319045,-3.3711082999999995,0.14935465300000003,-0.6939576407999999,-0.5461879488,0.14419537040000002,-0.07553561599999997,-0.20931825839999996
08:24:18,0.5051438699999999,-0.693828785,-0.098841185,0.23568273500000003,-0.07689631499999994,0.03341595,0.3379898400000001,-2.6501853200000003,-16.143857625000003,-3.4271133249999997,0.14836110825000004,-0.7028892151999999,-0.5470643672,0.1453775201,-0.07951681900000002,-0.21034694459999997
08:24:18,0.50528826,-0.7027874299999999,-0.09976863,0.23719553000000004,-0.08089137000000002,0.0341031,0.3530643200000001,-2.6597463599999998,-16.15581075,-3.48311835,0.14736756350000002,-0.7118207896,-0.5479407856,0.14655966980000001,-0.08349802200000006,-0.2113756308
08:24:18,0.50543265,-0.711746075,-0.100696075,0.238708325,-0.08488642499999999,0.034790249999999995,0.3681388000000001,-2.6693074,-16.167763875000002,-3.539123375,0.14637401875000003,-0.720752364,-0.548817204,0.14774181949999998,-0.087479225,-0.212404317
08:24:18,0.50557704,-0.7207047199999999,-0.10162352,0.24022112,-0.08888147999999996,0.03547739999999999,0.3832132800000001,-2.67886844,-16.179717,-3.5951284,0.14538047400000004,-0.7296839384,-0.5496936224,0.1489239692,-0.09146042800000004,-0.21343300319999997
08:24:18,0.50572143,-0.729663365,-0.102550965,0.24173391500000002,-0.09287653499999993,0.036164550000000004,0.3982877600000001,-2.68842948,-16.191670125,-3.6511334249999994,0.14438692925000002,-0.7386155128,-0.5505700408,0.15010611889999997,-0.09544163099999997,-0.2144616894
08:24:18,0.50586582,-0.73862201,-0.10347840999999999,0.24324671000000003,-0.09687159000000001,0.0368517,0.4133622400000001,-2.6979905200000003,-16.20362325,-3.7071384499999995,0.14339338450000003,-0.7475470872000001,-0.5514464592,0.1512882686,-0.09942283400000002,-0.2154903756
08:24:18,0.50601021,-0.7475806549999999,-0.10440585499999999,0.24475950500000004,-0.10086664499999998,0.03753885,0.4284367200000001,-2.7075515599999997,-16.215576375,-3.7631434749999997,0.14239983975000003,-0.7564786615999999,-0.5523228776,0.15247041830000002,-0.10340403700000006,-0.21651906179999997
08:24:18,0.5061546,-0.7565393,-0.10533329999999999,0.2462723,-0.10486169999999995,0.038225999999999996,0.4435112000000001,-2.7171126,-16.2275295,-3.8191485,0.14140629500000002,-0.7654102359999999,-0.5531992960000001,0.153652568,-0.10738523999999999,-0.21754774799999999
08:24:18,0.50629899,-0.7654979449999999,-0.10626074500000002,0.247785095,-0.10885675500000003,0.038913149999999994,0.4585856800000001,-2.72667364,-16.239482625,-3.875153525,0.14041275025000002,-0.7743418103999999,-0.5540757144,0.1548347177,-0.11136644300000004,-0.2185764342
08:24:18,0.50644338,-0.77445659,-0.10718819000000002,0.24929789000000002,-0.11285181,0.039600300000000005,0.4736601600000001,-2.73623468,-16.25143575,-3.93115855,0.13941920550000003,-0.7832733848,-0.5549521328,0.15601686739999998,-0.11534764599999997,-0.21960512039999996
08:24:18,0.50658777,-0.7834152349999999,-0.10811563500000002,0.25081068500000003,-0.11684686499999997,0.04028745,0.4887346400000001,-2.7457957200000003,-16.263388875,-3.9871635749999994,0.13842566075000004,-0.7922049592,-0.5558285512000001,0.1571990171,-0.11932884900000001,-0.22063380659999998
08:24:18,0.50673216,-0.79237388,-0.10904308000000001,0.25232348000000004,-0.12084191999999994,0.0409746,0.5038091200000001,-2.7553567599999997,-16.275342000000002,-4.0431686000000004,0.13743211600000002,-0.8011365336,-0.5567049696,0.15838116679999997,-0.12331005200000006,-0.2216624928
08:24:18,0.50687655,-0.8013325249999999,-0.10997052500000001,0.253836275,-0.12483697500000002,0.04166175,0.5188836000000001,-2.7649178,-16.287295125,-4.099173625,0.13643857125000003,-0.8100681080000001,-0.557581388,0.1595633165,-0.127291255,-0.22269117899999996
08:24:18,0.50702094,-0.81029117,-0.11089797000000001,0.25534907,-0.12883203,0.042348899999999995,0.5339580800000001,-2.77447884,-16.29924825,-4.155178649999999,0.13544502650000004,-0.8189996823999999,-0.5584578064,0.16074546620000002,-0.13127245800000004,-0.22371986519999998
08:24:18,0.50716533,-0.819249815,-0.11182541500000001,0.256861865,-0.13282708499999996,0.04303604999999999,0.5490325600000001,-2.78403988,-16.311201375,-4.211183675,0.13445148175000002,-0.8279312567999999,-0.5593342248,0.1619276159,-0.13525366099999997,-0.2247485514
08:24:18,0.50730972,-0.8282084599999999,-0.11275286000000001,0.25837466000000003,-0.13682213999999993,0.043723200000000004,0.5641070400000001,-2.7936009200000003,-16.3231545,-4.267188699999999,0.13345793700000003,-0.8368628311999999,-0.5602106432,0.1631097656,-0.139234864,-0.22577723759999996
08:24:18,0.50745411,-0.837167105,-0.11368030500000001,0.25988745500000004,-0.140817195,0.04441035,0.5791815200000001,-2.80316196,-16.335107625,-4.323193725,0.13246439225000003,-0.8457944056,-0.5610870616,0.16429191529999998,-0.14321606700000006,-0.22680592379999998
08:24:18,0.5075985,-0.8461257499999999,-0.11460775000000001,0.26140025,-0.14481224999999998,0.0450975,0.5942560000000001,-2.812723,-16.34706075,-4.37919875,0.13147084750000002,-0.85472598,-0.56196348,0.165474065,-0.14719727,-0.22783461
08:24:18,0.50774289,-0.855084395,-0.11553519500000001,0.262913045,-0.14880730499999995,0.045784649999999996,0.6093304800000001,-2.82228404,-16.359013875000002,-4.435203775000001,0.13047730275000002,-0.8636575544,-0.5628398984,0.16665621469999997,-0.15117847300000004,-0.22886329619999995
08:24:18,0.5078872799999999,-0.8640430399999999,-0.11646264,0.26442584,-0.15280236000000003,0.046471799999999994,0.6244049600000001,-2.83184508,-16.370967,-4.4912088,0.12948375800000003,-0.8725891288000001,-0.5637163168,0.1678383644,-0.15515967599999997,-0.22989198239999997
08:24:18,0.50803167,-0.873001685,-0.117390085,0.26593863500000003,-0.156797415,0.04715894999999999,0.6394794400000001,-2.8414061200000003,-16.382920125000002,-4.547213824999999,0.12849021325000004,-0.8815207031999999,-0.5645927352,0.16902051410000002,-0.159140879,-0.2309206686
08:24:18,0.50817606,-0.8819603299999998,-0.11831753,0.26745143000000005,-0.16079246999999997,0.0478461,0.6545539200000001,-2.85096716,-16.39487325,-4.60321885,0.12749666850000002,-0.8904522775999999,-0.5654691536,0.1702026638,-0.16312208200000006,-0.2319493548
08:24:18,0.50832045,-0.890918975,-0.119244975,0.268964225,-0.16478752499999993,0.04853325,0.6696284000000001,-2.8605282,-16.406826375,-4.6592238749999995,0.12650312375000003,-0.8993838519999999,-0.566345572,0.1713848135,-0.167103285,-0.23297804099999997
08:24:18,0.50846484,-0.89987762,-0.12017242,0.27047702,-0.16878258000000002,0.0492204,0.6847028800000001,-2.87008924,-16.4187795,-4.7152289000000005,0.12550957900000004,-0.9083154264,-0.5672219904,0.17256696319999998,-0.17108448800000003,-0.2340067272
08:24:18,0.50860923,-0.9088362649999999,-0.121099865,0.271989815,-0.17277763499999998,0.049907549999999995,0.6997773600000001,-2.87965028,-16.430732625,-4.771233925,0.12451603425000002,-0.9172470008,-0.5680984088000001,0.1737491129,-0.17506569099999997,-0.2350354134
08:24:18,0.50875362,-0.91779491,-0.12202731,0.27350261000000003,-0.17677268999999995,0.05059469999999999,0.7148518400000001,-2.8892113200000002,-16.442685750000003,-4.827238949999999,0.12352248950000003,-0.9261785752,-0.5689748272,0.17493126259999997,-0.179046894,-0.23606409959999997
08:24:18,0.50889801,-0.9267535549999999,-0.122954755,0.27501540500000005,-0.18076774499999992,0.051281850000000004,0.7299263200000001,-2.89877236,-16.454638875,-4.883243975,0.12252894475000004,-0.9351101496,-0.5698512456,0.1761134123,-0.18302809700000006,-0.23709278579999998
08:24:18,0.5090424,-0.9357122,-0.1238822,0.2765282,-0.1847628,0.051969,0.7450008000000001,-2.9083334,-16.466592000000002,-4.939248999999999,0.12153540000000002,-0.9440417240000001,-0.5707276640000001,0.17729556200000002,-0.1870093,-0.238121472
08:24:18,0.50918679,-0.9446708449999999,-0.124809645,0.278040995,-0.18875785499999997,0.05265615,0.7600752800000001,-2.91789444,-16.478545125,-4.995254025,0.12054185525000002,-0.9529732983999999,-0.5716040824,0.17847771169999999,-0.19099050300000003,-0.23915015819999996
08:24:18,0.50933118,-0.95362949,-0.12573709,0.27955379,-0.19275290999999994,0.053343299999999996,0.7751497600000001,-2.92745548,-16.49049825,-5.05125905,0.11954831050000003,-0.9619048727999999,-0.5724805008,0.1796598614,-0.19497170599999997,-0.24017884439999998
08:24:18,0.50947557,-0.9625881349999998,-0.126664535,0.28106658500000004,-0.19674796500000002,0.054030449999999994,0.7902242400000001,-2.9370165200000002,-16.502451375,-5.107264074999999,0.11855476575000004,-0.9708364472,-0.5733569192,0.18084201109999998,-0.198952909,-0.2412075306
08:24:18,0.50961996,-0.9715467799999999,-0.12759198,0.28257938000000005,-0.20074302,0.05471759999999999,0.8052987200000001,-2.94657756,-16.5144045,-5.1632691,0.11756122100000002,-0.9797680216,-0.5742333376,0.1820241608,-0.20293411200000006,-0.24223621679999996
08:24:18,0.50976435,-0.980505425,-0.128519425,0.284092175,-0.20473807499999996,0.05540475,0.8203732000000001,-2.9561386,-16.526357625,-5.219274124999999,0.11656767625000003,-0.988699596,-0.575109756,0.18320631049999997,-0.206915315,-0.24326490299999998
08:24:18,0.50990874,-0.9894640699999999,-0.12944687,0.28560497,-0.20873312999999993,0.0560919,0.8354476800000001,-2.96569964,-16.53831075,-5.27527915,0.11557413150000004,-0.9976311704,-0.5759861744,0.1843884602,-0.21089651800000003,-0.2442935892
08:24:18,0.51005313,-0.998422715,-0.13037431500000002,0.287117765,-0.21272818500000001,0.05677905,0.8505221600000001,-2.97526068,-16.550263875,-5.3312841749999995,0.11458058675000002,-1.0065627448,-0.5768625928,0.18557060990000002,-0.21487772099999997,-0.24532227539999996
08:24:18,0.51019752,-1.00738136,-0.13130176000000002,0.28863056000000004,-0.21672323999999998,0.057466199999999995,0.8655966400000001,-2.9848217200000002,-16.562217,-5.3872892000000006,0.11358704200000003,-1.0154943191999999,-0.5777390112,0.18675275959999998,-0.218858924,-0.24635096159999997
08:24:18,0.51034191,-1.016340005,-0.13222920500000002,0.290143355,-0.22071829499999995,0.05815334999999999,0.8806711200000001,-2.99438276,-16.574170125000002,-5.443294225,0.11259349725000004,-1.0244258936,-0.5786154296,0.1879349093,-0.22284012700000005,-0.2473796478
08:24:18,0.5104863,-1.0252986499999999,-0.13315665000000002,0.29165615,-0.22471334999999992,0.058840500000000004,0.8957456000000001,-3.0039438,-16.58612325,-5.499299249999999,0.11159995250000004,-1.033357468,-0.579491848,0.18911705899999998,-0.22682133,-0.24840833399999995
08:24:18,0.5106306899999999,-1.034257295,-0.13408409500000001,0.293168945,-0.228708405,0.05952765,0.9108200800000001,-3.01350484,-16.598076375,-5.555304275,0.11060640775000002,-1.0422890424,-0.5803682664,0.1902992087,-0.23080253300000003,-0.24943702019999997
08:24:18,0.51077508,-1.0432159399999998,-0.13501154,0.29468174,-0.23270345999999997,0.0602148,0.9258945600000001,-3.02306588,-16.6100295,-5.611309299999999,0.10961286300000003,-1.0512206168,-0.5812446848,0.19148135840000002,-0.23478373599999997,-0.2504657064
08:24:18,0.51091947,-1.052174585,-0.135938985,0.29619453500000004,-0.23669851499999994,0.060901949999999996,0.9409690400000001,-3.0326269200000002,-16.621982625,-5.667314325,0.10861931825000004,-1.0601521912,-0.5821211032,0.1926635081,-0.238764939,-0.2514943926
08:24:18,0.51106386,-1.06113323,-0.13686643,0.29770733,-0.24069357000000002,0.061589099999999994,0.9560435200000001,-3.04218796,-16.63393575,-5.72331935,0.10762577350000002,-1.0690837656,-0.5829975216000001,0.19384565780000002,-0.24274614200000005,-0.25252307879999997
08:24:18,0.51120825,-1.070091875,-0.137793875,0.299220125,-0.244688625,0.06227624999999999,0.9711180000000001,-3.051749,-16.645888875,-5.779324374999999,0.10663222875000003,-1.0780153399999999,-0.58387394,0.19502780749999998,-0.246727345,-0.253551765
08:24:18,0.51135264,-1.07905052,-0.13872132,0.30073292,-0.24868367999999996,0.0629634,0.9861924800000001,-3.0613100400000004,-16.657842000000002,-5.8353294,0.10563868400000004,-1.0869469144,-0.5847503584,0.1962099572,-0.25070854800000003,-0.2545804512
08:24:18,0.51149703,-1.088009165,-0.139648765,0.302245715,-0.25267873499999993,0.06365055,1.0012669600000002,-3.07087108,-16.669795125,-5.891334424999999,0.10464513925000002,-1.0958784888,-0.5856267768,0.19739210689999998,-0.25468975099999996,-0.25560913739999996
08:24:18,0.51164142,-1.09696781,-0.14057621,0.30375851000000004,-0.25667379,0.0643377,1.0163414400000002,-3.08043212,-16.681748250000002,-5.94733945,0.10365159450000003,-1.1048100632,-0.5865031952,0.1985742566,-0.258670954,-0.2566378236
08:24:18,0.51178581,-1.1059264549999999,-0.141503655,0.305271305,-0.260668845,0.06502485,1.0314159200000002,-3.08999316,-16.693701375,-6.003344475,0.10265804975000004,-1.1137416376,-0.5873796136,0.19975640630000002,-0.26265215700000005,-0.2576665098
08:24:18,0.5119302,-1.1148851,-0.1424311,0.3067841,-0.26466389999999995,0.06571199999999999,1.0464904000000002,-3.0995542,-16.7056545,-6.059349500000001,0.10166450500000004,-1.122673212,-0.588256032,0.200938556,-0.26663336,-0.25869519599999996
08:24:18,0.51207459,-1.1238437449999998,-0.143358545,0.308296895,-0.2686589549999999,0.06639915,1.0615648800000002,-3.1091152400000004,-16.717607625,-6.115354525,0.10067096025000002,-1.1316047864,-0.5891324504,0.20212070570000001,-0.27061456300000003,-0.2597238822
08:24:18,0.51221898,-1.13280239,-0.14428599,0.30980969,-0.27265401,0.06708629999999999,1.0766393600000002,-3.11867628,-16.72956075,-6.171359549999999,0.09967741550000003,-1.1405363607999999,-0.5900088688,0.20330285539999998,-0.27459576599999996,-0.2607525684
08:24:18,0.51236337,-1.141761035,-0.145213435,0.31132248500000004,-0.27664906499999997,0.06777344999999999,1.0917138400000002,-3.12823732,-16.741513875000003,-6.227364575,0.09868387075000004,-1.1494679352,-0.5908852872,0.2044850051,-0.278576969,-0.26178125459999996
08:24:18,0.51250776,-1.15071968,-0.14614088,0.31283528,-0.28064411999999994,0.06846060000000001,1.1067883200000002,-3.13779836,-16.753467,-6.2833695999999994,0.09769032600000002,-1.1583995096,-0.5917617056,0.20566715479999997,-0.28255817200000005,-0.2628099408
08:24:18,0.51265215,-1.159678325,-0.147068325,0.314348075,-0.284639175,0.06914775000000001,1.1218628000000002,-3.1473594,-16.765420125000002,-6.3393746250000005,0.09669678125000003,-1.167331084,-0.592638124,0.2068493045,-0.286539375,-0.263838627
08:24:18,0.51279654,-1.1686369699999999,-0.14799577,0.31586087,-0.28863423,0.0698349,1.1369372800000002,-3.1569204400000004,-16.77737325,-6.39537965,0.09570323650000004,-1.1762626584,-0.5935145424,0.20803145420000002,-0.29052057800000003,-0.26486731319999995
08:24:18,0.51294093,-1.177595615,-0.148923215,0.317373665,-0.29262928499999996,0.07052205,1.1520117600000002,-3.16648148,-16.789326375,-6.451384674999999,0.09470969175000002,-1.1851942328,-0.5943909608,0.2092136039,-0.29450178099999996,-0.26589599939999997
08:24:18,0.51308532,-1.1865542599999999,-0.14985066,0.31888646000000004,-0.29662433999999993,0.0712092,1.1670862400000002,-3.17604252,-16.8012795,-6.5073897,0.09371614700000003,-1.1941258072,-0.5952673792000001,0.2103957536,-0.298482984,-0.2669246856
08:24:18,0.51322971,-1.195512905,-0.150778105,0.320399255,-0.300619395,0.07189635,1.1821607200000002,-3.18560356,-16.813232625,-6.563394724999999,0.09272260225000004,-1.2030573815999999,-0.5961437976,0.21157790329999998,-0.30246418700000005,-0.26795337179999995
08:24:18,0.5133740999999999,-1.2044715499999998,-0.15170555,0.32191205,-0.30461445,0.0725835,1.1972352000000002,-3.1951646,-16.82518575,-6.61939975,0.09172905750000004,-1.211988956,-0.597020216,0.212760053,-0.30644539,-0.26898205799999997
08:24:18,0.51351849,-1.213430195,-0.152632995,0.323424845,-0.30860950499999995,0.07327064999999999,1.2123096800000002,-3.2047256400000004,-16.837138875,-6.675404775,0.09073551275000002,-1.2209205304,-0.5978966344000001,0.21394220269999997,-0.31042659300000003,-0.2700107442
08:24:18,0.51366288,-1.2223888399999998,-0.15356044000000002,0.32493764,-0.3126045599999999,0.07395779999999999,1.2273841600000002,-3.21428668,-16.849092,-6.731409800000001,0.08974196800000003,-1.2298521048,-0.5987730528,0.2151243524,-0.3144077960000001,-0.27103943039999995
08:24:18,0.51380727,-1.231347485,-0.15448788500000002,0.32645043500000004,-0.316599615,0.07464494999999999,1.2424586400000002,-3.22384772,-16.861045125,-6.787414825,0.08874842325000004,-1.2387836792,-0.5996494712,0.21630650210000002,-0.318388999,-0.27206811659999997
08:24:18,0.51395166,-1.24030613,-0.15541533000000002,0.32796323,-0.32059466999999997,0.07533209999999999,1.2575331200000002,-3.23340876,-16.872998250000002,-6.843419849999999,0.08775487850000002,-1.2477152536,-0.6005258896,0.2174886518,-0.32237020200000005,-0.2730968028
08:24:18,0.51409605,-1.2492647749999999,-0.15634277500000002,0.329476025,-0.32458972499999994,0.07601925000000001,1.2726076000000002,-3.2429698,-16.884951375,-6.899424875,0.08676133375000003,-1.256646828,-0.601402308,0.2186708015,-0.326351405,-0.274125489
08:24:18,0.51424044,-1.25822342,-0.15727022000000002,0.33098882,-0.32858478,0.07670640000000001,1.2876820800000002,-3.2525308400000004,-16.8969045,-6.9554298999999995,0.08576778900000004,-1.2655784023999999,-0.6022787264,0.21985295119999998,-0.330332608,-0.27515417519999996
08:24:18,0.51438483,-1.2671820649999999,-0.15819766500000002,0.33250161500000003,-0.332579835,0.07739355,1.3027565600000002,-3.26209188,-16.908857625,-7.0114349250000005,0.08477424425000005,-1.2745099767999999,-0.6031551448,0.2210351009,-0.33431381100000007,-0.2761828614
08:24:18,0.51452922,-1.27614071,-0.15912511000000001,0.33401441000000004,-0.33657488999999996,0.0780807,1.3178310400000002,-3.27165292,-16.92081075,-7.06743995,0.08378069950000003,-1.2834415512,-0.6040315632,0.22221725059999997,-0.338295014,-0.2772115476
08:24:18,0.51467361,-1.2850993549999998,-0.160052555,0.335527205,-0.34056994499999993,0.07876785,1.3329055200000002,-3.28121396,-16.932763875,-7.123444974999999,0.08278715475000004,-1.2923731256,-0.6049079816,0.2233994003,-0.34227621700000005,-0.27824023379999996
08:24:19,0.514818,-1.294058,-0.16098,0.33704,-0.344565,0.079455,1.34798,-3.290775,-16.944717,-7.17945,0.08179361,-1.3013047,-0.6057844,0.22458155,-0.34625742,-0.27926892
08:24:19,0.50501141,-1.2935734799999998,-0.151011575,0.334951915,-0.34229048500000003,0.07870392999999999,1.35025076,-3.31452462,-16.954531760000002,-7.03671379,0.08528669295,-1.3039512325,-0.590481561,0.22281637964999998,-0.343988922125,-0.2778780695885
08:24:19,0.49520482,-1.29308896,-0.14104315,0.33286383,-0.34001597,0.07795286,1.35252152,-3.33827424,-16.96434652,-6.8939775800000005,0.0887797759,-1.306597765,-0.575178722,0.2210512093,-0.34172042425,-0.276487219177
08:24:19,0.48539823,-1.2926044399999999,-0.131074725,0.330775745,-0.337741455,0.07720178999999999,1.3547922799999998,-3.36202386,-16.97416128,-6.75124137,0.09227285885,-1.3092442975,-0.559875883,0.21928603894999998,-0.339451926375,-0.2750963687655
08:24:19,0.47559164,-1.29211992,-0.1211063,0.32868766,-0.33546694,0.07645072,1.3570630399999999,-3.38577348,-16.98397604,-6.60850516,0.0957659418,-1.31189083,-0.544573044,0.2175208686,-0.3371834285,-0.273705518354
08:24:19,0.46578505000000003,-1.2916353999999999,-0.111137875,0.32659957500000003,-0.333192425,0.07569965,1.3593338,-3.4095231,-16.9937908,-6.46576895,0.09925902475000001,-1.3145373625,-0.529270205,0.21575569825,-0.334914930625,-0.2723146679425
08:24:19,0.45597846,-1.29115088,-0.10116945000000001,0.32451149,-0.33091791000000004,0.07494858,1.36160456,-3.43327272,-17.00360556,-6.32303274,0.10275210770000001,-1.3171838949999999,-0.5139673659999999,0.2139905279,-0.33264643275,-0.270923817531
08:24:19,0.44617187,-1.29066636,-0.091201025,0.322423405,-0.328643395,0.07419751,1.36387532,-3.45702234,-17.01342032,-6.18029653,0.10624519065,-1.3198304275,-0.49866452699999997,0.21222535755,-0.330377934875,-0.2695329671195
08:24:19,0.43636528,-1.29018184,-0.0812326,0.32033532,-0.32636888000000003,0.07344644,1.36614608,-3.48077196,-17.02323508,-6.03756032,0.1097382736,-1.32247696,-0.483361688,0.21046018719999998,-0.328109437,-0.268142116708
08:24:19,0.42655869,-1.28969732,-0.071264175,0.318247235,-0.324094365,0.07269537,1.3684168399999999,-3.50452158,-17.03304984,-5.89482411,0.11323135655000001,-1.3251234925,-0.46805884899999994,0.20869501685,-0.325840939125,-0.2667512662965
08:24:19,0.4167521,-1.2892128,-0.061295749999999996,0.31615915,-0.32181985,0.0719443,1.3706876,-3.5282712,-17.0428646,-5.7520879,0.1167244395,-1.327770025,-0.45275601,0.2069298465,-0.32357244124999995,-0.265360415885
08:24:19,0.40694551,-1.28872828,-0.05132732499999999,0.314071065,-0.319545335,0.07119323,1.37295836,-3.55202082,-17.05267936,-5.6093516900000004,0.12021752245,-1.3304165575,-0.437453171,0.20516467615,-0.321303943375,-0.2639695654735
08:24:19,0.39713892,-1.2882437599999998,-0.041358900000000004,0.31198298,-0.31727082,0.07044216,1.37522912,-3.57577044,-17.06249412,-5.46661548,0.1237106054,-1.33306309,-0.42215033199999996,0.2033995058,-0.31903544549999996,-0.262578715062
08:24:19,0.38733233,-1.28775924,-0.031390475,0.309894895,-0.31499630500000003,0.06969109,1.37749988,-3.59952006,-17.07230888,-5.32387927,0.12720368835,-1.3357096225,-0.406847493,0.20163433544999998,-0.31676694762499996,-0.2611878646505
08:24:19,0.37752574000000005,-1.2872747199999999,-0.021422049999999998,0.30780681,-0.31272179,0.06894001999999999,1.37977064,-3.62326968,-17.08212364,-5.18114306,0.13069677130000001,-1.338356155,-0.39154465399999994,0.1998691651,-0.31449844974999996,-0.259797014239
08:24:19,0.36771915,-1.2867902,-0.011453624999999995,0.305718725,-0.310447275,0.06818895,1.3820413999999999,-3.6470193,-17.0919384,-5.038406849999999,0.13418985425000002,-1.3410026875,-0.376241815,0.19810399474999998,-0.31222995187499997,-0.2584061638275
08:24:19,0.35791256000000005,-1.28630568,-0.001485199999999992,0.30363064,-0.30817276,0.06743787999999999,1.38431216,-3.67076892,-17.10175316,-4.8956706400000005,0.13768293720000002,-1.34364922,-0.36093897599999997,0.1963388244,-0.30996145399999997,-0.257015313416
08:24:19,0.34810597,-1.28582116,0.008483225000000011,0.301542555,-0.305898245,0.06668681,1.38658292,-3.69451854,-17.11156792,-4.75293443,0.14117602015000003,-1.3462957524999999,-0.34563613699999995,0.19457365405,-0.307692956125,-0.2556244630045
08:24:19,0.33829938000000004,-1.28533664,0.018451650000000014,0.29945447000000003,-0.30362373,0.06593573999999999,1.38885368,-3.71826816,-17.12138268,-4.61019822,0.14466910310000003,-1.348942285,-0.33033329799999994,0.19280848369999998,-0.30542445825,-0.254233612593
08:24:19,0.32849279000000003,-1.28485212,0.028420075000000017,0.297366385,-0.301349215,0.06518467,1.39112444,-3.74201778,-17.13119744,-4.46746201,0.14816218605,-1.3515888175,-0.315030459,0.19104331335,-0.303155960375,-0.2528427621815
08:24:19,0.31868620000000003,-1.2843676,0.03838850000000002,0.2952783,-0.2990747,0.0644336,1.3933952,-3.7657674,-17.1410122,-4.3247257999999995,0.151655269,-1.35423535,-0.29972762,0.189278143,-0.3008874625,-0.25145191177
08:24:19,0.30887961,-1.2838830799999998,0.04835692500000002,0.293190215,-0.296800185,0.06368253,1.3956659599999999,-3.78951702,-17.15082696,-4.181989590000001,0.15514835195,-1.3568818825,-0.28442478099999996,0.18751297265,-0.298618964625,-0.2500610613585
08:24:19,0.29907302,-1.28339856,0.058325350000000026,0.29110213,-0.29452567,0.06293146,1.39793672,-3.81326664,-17.16064172,-4.03925338,0.1586414349,-1.359528415,-0.26912194199999995,0.1857478023,-0.29635046675,-0.24867021094699998
08:24:19,0.28926643,-1.2829140399999999,0.06829377500000003,0.289014045,-0.292251155,0.062180389999999995,1.40020748,-3.83701626,-17.170456480000002,-3.89651717,0.16213451785,-1.3621749475,-0.25381910299999993,0.18398263195,-0.294081968875,-0.24727936053549998
08:24:19,0.27945984,-1.28242952,0.0782622,0.28692596000000004,-0.28997664,0.061429319999999996,1.40247824,-3.8607658799999998,-17.18027124,-3.7537809600000003,0.1656276008,-1.36482148,-0.23851626399999992,0.1822174616,-0.291813471,-0.24588851012399998
08:24:19,0.26965325000000007,-1.281945,0.08823062500000001,0.284837875,-0.28770212500000003,0.060678249999999996,1.404749,-3.8845155,-17.190086,-3.61104475,0.16912068375,-1.3674680125,-0.22321342499999997,0.18045229125,-0.289544973125,-0.24449765971249998
08:24:19,0.25984666,-1.28146048,0.09819905000000001,0.28274979,-0.28542761,0.05992718,1.40701976,-3.9082651200000003,-17.199900760000002,-3.46830854,0.1726137667,-1.370114545,-0.20791058599999995,0.1786871209,-0.28727647525,-0.24310680930099998
08:24:19,0.25004007000000006,-1.28097596,0.10816747500000001,0.280661705,-0.283153095,0.05917611,1.4092905199999999,-3.93201474,-17.20971552,-3.32557233,0.17610684965,-1.3727610775,-0.19260774699999994,0.17692195054999998,-0.285007977375,-0.24171595888949998
08:24:19,0.24023348000000005,-1.28049144,0.11813590000000002,0.27857362,-0.28087858,0.05842504,1.41156128,-3.95576436,-17.21953028,-3.18283612,0.1795999326,-1.37540761,-0.17730490799999993,0.1751567802,-0.2827394795,-0.24032510847799998
08:24:19,0.23042689000000005,-1.28000692,0.12810432500000002,0.276485535,-0.278604065,0.05767396999999999,1.41383204,-3.97951398,-17.229345040000002,-3.0400999100000003,0.18309301555000002,-1.3780541425,-0.16200206899999992,0.17339160985,-0.280470981625,-0.23893425806649998
08:24:19,0.22062030000000005,-1.2795223999999998,0.13807275000000002,0.27439745000000004,-0.27632955000000003,0.0569229,1.4161028,-4.0032636,-17.2391598,-2.8973636999999997,0.18658609850000002,-1.380700675,-0.14669922999999996,0.1716264395,-0.27820248375,-0.23754340765499998
08:24:19,0.21081371000000004,-1.27903788,0.14804117500000002,0.272309365,-0.274055035,0.05617182999999999,1.41837356,-4.02701322,-17.24897456,-2.75462749,0.19007918145000002,-1.3833472075,-0.13139639099999995,0.16986126915,-0.27593398587499995,-0.23615255724349998
08:24:19,0.20100712000000004,-1.2785533599999999,0.15800960000000003,0.27022128,-0.27178052,0.05542076,1.42064432,-4.05076284,-17.25878932,-2.61189128,0.19357226440000003,-1.38599374,-0.11609355199999993,0.16809609879999998,-0.273665488,-0.23476170683199998
08:24:19,0.19120053000000004,-1.27806884,0.16797802500000003,0.268133195,-0.269506005,0.05466968999999999,1.4229150799999999,-4.07451246,-17.26860408,-2.4691550700000002,0.19706534735000003,-1.3886402725,-0.10079071299999998,0.16633092845,-0.27139699012499996,-0.23337085642049998
08:24:19,0.18139394000000003,-1.2775843199999999,0.17794645000000003,0.26604511,-0.26723149,0.05391862,1.42518584,-4.09826208,-17.27841884,-2.3264188600000004,0.20055843030000003,-1.391286805,-0.08548787399999991,0.1645657581,-0.26912849225,-0.23198000600899998
08:24:19,0.17158735000000003,-1.2770998,0.18791487500000004,0.263957025,-0.26495697500000004,0.053167549999999994,1.4274566,-4.1220117,-17.2882336,-2.1836826499999997,0.20405151325,-1.3939333375,-0.07018503499999995,0.16280058775,-0.26685999437499996,-0.23058915559749998
08:24:19,0.16178076000000002,-1.27661528,0.19788330000000004,0.26186894,-0.26268246,0.052416479999999994,1.42972736,-4.14576132,-17.29804836,-2.04094644,0.20754459620000004,-1.39657987,-0.05488219599999988,0.1610354174,-0.26459149649999997,-0.22919830518599998
08:24:19,0.15197417000000002,-1.27613076,0.20785172500000004,0.25978085500000003,-0.26040794500000003,0.051665409999999995,1.43199812,-4.16951094,-17.30786312,-1.89821023,0.21103767915,-1.3992264025,-0.039579356999999926,0.15927024704999998,-0.26232299862499997,-0.22780745477449998
08:24:19,0.14216758000000007,-1.27564624,0.21782015000000005,0.25769277,-0.25813343,0.050914339999999995,1.43426888,-4.19326056,-17.31767788,-1.7554740200000003,0.2145307621,-1.401872935,-0.02427651799999997,0.1575050767,-0.26005450075,-0.22641660436299998
08:24:19,0.13236099000000007,-1.27516172,0.22778857500000005,0.255604685,-0.255858915,0.050163269999999996,1.43653964,-4.21701018,-17.32749264,-1.6127378099999996,0.21802384505,-1.4045194675000001,-0.008973678999999901,0.15573990635,-0.257786002875,-0.22502575395149998
08:24:19,0.12255440000000006,-1.2746772,0.23775700000000005,0.2535166,-0.25358440000000004,0.049412199999999996,1.4388104,-4.2407598,-17.3373074,-1.4700015999999998,0.221516928,-1.407166,0.006329160000000056,0.153974736,-0.255517505,-0.22363490353999999
08:24:19,0.11274781000000006,-1.2741926799999999,0.24772542500000005,0.251428515,-0.251309885,0.04866113,1.44108116,-4.2645094199999996,-17.34712216,-1.32726539,0.22501001095,-1.4098125325,0.021631999000000124,0.15220956565,-0.253249007125,-0.22224405312849999
08:24:19,0.10294122000000006,-1.27370816,0.25769385000000006,0.24934043,-0.24903537,0.04791006,1.44335192,-4.28825904,-17.35693692,-1.1845291800000002,0.2285030939,-1.412459065,0.03693483800000008,0.15044439529999998,-0.25098050925,-0.22085320271699999
08:24:19,0.09313463000000005,-1.2732236399999999,0.26766227500000006,0.247252345,-0.246760855,0.04715899,1.44562268,-4.31200866,-17.36675168,-1.0417929700000004,0.23199617685,-1.4151055975,0.05223767700000004,0.14867922495,-0.248712011375,-0.21946235230549999
08:24:19,0.08332804000000005,-1.27273912,0.27763070000000006,0.24516426000000002,-0.24448634000000002,0.04640792,1.44789344,-4.33575828,-17.37656644,-0.8990567599999997,0.23548925980000002,-1.41775213,0.0675405160000001,0.1469140546,-0.2464435135,-0.21807150189399999
08:24:19,0.07352145000000004,-1.2722546,0.28759912500000007,0.243076175,-0.242211825,0.04565684999999999,1.4501642,-4.3595079,-17.3863812,-0.7563205499999999,0.23898234275000002,-1.4203986625,0.08284335500000006,0.14514888425,-0.244175015625,-0.2166806514825
08:24:19,0.06371486000000004,-1.27177008,0.29756755000000007,0.24098809000000002,-0.23993731000000001,0.04490577999999999,1.45243496,-4.38325752,-17.39619596,-0.6135843400000001,0.24247542570000002,-1.423045195,0.09814619400000013,0.1433837139,-0.24190651775,-0.215289801071
08:24:19,0.053908270000000036,-1.27128556,0.3075359750000001,0.23890000500000003,-0.237662795,0.04415470999999999,1.45470572,-4.40700714,-17.40601072,-0.47084813000000025,0.24596850865000003,-1.4256917275,0.11344903300000009,0.14161854355,-0.239638019875,-0.2138989506595
08:24:19,0.04410168000000003,-1.27080104,0.3175044,0.23681192,-0.23538828,0.04340363999999999,1.45697648,-4.4307567599999995,-17.41582548,-0.32811192000000045,0.24946159160000003,-1.42833826,0.12875187200000016,0.1398533732,-0.237369522,-0.212508100248
08:24:19,0.034295090000000084,-1.27031652,0.327472825,0.234723835,-0.23311376500000003,0.042652569999999994,1.45924724,-4.45450638,-17.42564024,-0.18537570999999975,0.25295467455000004,-1.4309847925,0.1440547110000001,0.13808820285,-0.235101024125,-0.2111172498365
08:24:19,0.02448850000000008,-1.269832,0.33744125,0.23263575,-0.23083925,0.041901499999999994,1.4615179999999999,-4.478256,-17.435455,-0.04263949999999994,0.25644775750000004,-1.433631325,0.15935755000000007,0.1363230325,-0.23283252625,-0.209726399425
08:24:19,0.014681910000000076,-1.26934748,0.3474096750000001,0.230547665,-0.22856473500000002,0.041150429999999995,1.46378876,-4.50200562,-17.44526976,0.10009670999999987,0.25994084045000004,-1.4362778575,0.17466038900000014,0.13455786214999998,-0.23056402837499998,-0.2083355490135
08:24:19,0.004875320000000016,-1.2688629599999999,0.35737810000000003,0.22845958,-0.22629022000000001,0.040399359999999995,1.46605952,-4.5257552400000005,-17.45508452,0.24283291999999967,0.26343392340000005,-1.43892439,0.1899632280000001,0.1327926918,-0.22829553049999998,-0.206944698602
08:24:19,-0.004931269999999932,-1.26837844,0.3673465250000001,0.226371495,-0.224015705,0.039648289999999996,1.46833028,-4.54950486,-17.46489928,0.38556913000000037,0.26692700635,-1.4415709225,0.20526606700000016,0.13102752145000002,-0.22602703262499999,-0.2055538481905
08:24:19,-0.01473785999999988,-1.26789392,0.37731495000000004,0.22428341000000002,-0.22174119000000003,0.038897219999999996,1.47060104,-4.57325448,-17.47471404,0.5283053400000002,0.2704200893,-1.444217455,0.22056890600000012,0.1292623511,-0.22375853475,-0.204162997779
08:24:19,-0.02454444999999994,-1.2674094,0.3872833750000001,0.222195325,-0.219466675,0.03814615,1.4728718,-4.5970040999999995,-17.4845288,0.67104155,0.27391317225,-1.4468639875,0.23587174500000008,0.12749718075,-0.221490036875,-0.2027721473675
08:24:19,-0.03435103999999989,-1.26692488,0.39725180000000004,0.22010724,-0.21719216000000002,0.03739508,1.47514256,-4.62075372,-17.49434356,0.8137777599999998,0.2774062552,-1.44951052,0.25117458400000015,0.12573201039999998,-0.219221539,-0.201381296956
08:24:19,-0.04415762999999995,-1.26644036,0.4072202250000001,0.21801915500000002,-0.21491764500000002,0.03664401,1.47741332,-4.64450334,-17.50415832,0.9565139700000005,0.28089933815,-1.4521570525,0.2664774230000001,0.12396684005,-0.216953041125,-0.1999904465445
08:24:19,-0.053964219999999896,-1.26595584,0.41718865000000005,0.21593107,-0.21264313,0.03589293999999999,1.47968408,-4.66825296,-17.51397308,1.0992501799999994,0.2843924211,-1.454803585,0.28178026200000017,0.1222016697,-0.21468454325,-0.198599596133
08:24:19,-0.06377080999999996,-1.26547132,0.4271570750000001,0.213842985,-0.210368615,0.03514186999999999,1.48195484,-4.6920025800000005,-17.52378784,1.24198639,0.28788550405,-1.4574501175,0.2970831010000001,0.12043649935,-0.21241604537499997,-0.1972087457215
08:24:19,-0.0735773999999999,-1.2649868,0.43712550000000006,0.21175490000000002,-0.2080941,0.03439079999999999,1.4842256,-4.7157522,-17.533602600000002,1.3847226000000008,0.291378587,-1.46009665,0.3123859400000001,0.118671329,-0.21014754749999998,-0.19581789531
08:24:19,-0.08338398999999996,-1.2645022799999999,0.4470939250000001,0.209666815,-0.205819585,0.03363972999999999,1.48649636,-4.73950182,-17.54341736,1.5274588099999997,0.29487166995,-1.4627431825000001,0.32768877900000015,0.11690615865,-0.20787904962499998,-0.1944270448985
08:24:19,-0.09319057999999991,-1.26401776,0.45706235000000006,0.20757873000000002,-0.20354507000000002,0.03288865999999999,1.4887671199999999,-4.7632514399999994,-17.55323212,1.6701950200000004,0.29836475290000003,-1.465389715,0.3429916180000001,0.1151409883,-0.20561055174999998,-0.193036194487
08:24:19,-0.10299716999999997,-1.26353324,0.4670307750000001,0.205490645,-0.20127055500000002,0.032137589999999994,1.49103788,-4.78700106,-17.56304688,1.8129312299999993,0.30185783585000003,-1.4680362475,0.3582944570000002,0.11337581795,-0.20334205387499998,-0.1916453440755
08:24:19,-0.11280375999999992,-1.26304872,0.47699920000000007,0.20340256,-0.19899604,0.031386519999999994,1.49330864,-4.81075068,-17.57286164,1.95566744,0.30535091880000004,-1.47068278,0.37359729600000013,0.1116106476,-0.201073556,-0.190254493664
08:24:19,-0.12261034999999987,-1.2625642,0.486967625,0.20131447500000002,-0.196721525,0.030635449999999995,1.4955794,-4.8345003,-17.5826764,2.0984036500000007,0.30884400175000004,-1.4733293125,0.3889001350000001,0.10984547725,-0.198805058125,-0.1888636432525
08:24:19,-0.13241693999999993,-1.26207968,0.4969360500000001,0.19922639,-0.19444701,0.029884379999999995,1.49785016,-4.85824992,-17.59249116,2.2411398599999997,0.31233708470000004,-1.475975845,0.40420297400000005,0.1080803069,-0.19653656025,-0.187472792841
08:24:19,-0.14222352999999988,-1.26159516,0.506904475,0.197138305,-0.19217249500000003,0.029133309999999996,1.50012092,-4.88199954,-17.60230592,2.3838760700000003,0.31583016765000005,-1.4786223775,0.4195058130000001,0.10631513655000001,-0.194268062375,-0.1860819424295
08:24:19,-0.15203011999999994,-1.26111064,0.5168729000000001,0.19505022,-0.18989798000000002,0.028382239999999996,1.5023916800000001,-4.90574916,-17.61212068,2.5266122799999993,0.31932325060000005,-1.48126891,0.4348086520000002,0.1045499662,-0.1919995645,-0.184691092018
08:24:19,-0.16183670999999988,-1.26062612,0.526841325,0.192962135,-0.18762346500000002,0.027631169999999997,1.50466244,-4.929498779999999,-17.62193544,2.66934849,0.32281633355,-1.4839154425,0.45011149100000025,0.10278479585,-0.189731066625,-0.1833002416065
08:24:19,-0.17164329999999994,-1.2601415999999999,0.5368097500000001,0.19087405000000002,-0.18534895,0.026880099999999997,1.5069332,-4.9532484,-17.6317502,2.8120847000000007,0.3263094165,-1.486561975,0.4654143300000001,0.1010196255,-0.18746256874999997,-0.181909391195
08:24:19,-0.1814498899999999,-1.25965708,0.546778175,0.188785965,-0.183074435,0.02612902999999999,1.50920396,-4.97699802,-17.64156496,2.9548209099999996,0.32980249945,-1.4892085075000001,0.48071716900000017,0.09925445515,-0.18519407087499998,-0.1805185407835
08:24:19,-0.19125647999999995,-1.2591725599999999,0.5567466000000001,0.18669788,-0.18079992,0.02537795999999999,1.51147472,-5.00074764,-17.65137972,3.0975571200000003,0.33329558240000007,-1.49185504,0.49602000800000023,0.09748928479999999,-0.18292557299999998,-0.179127690372
08:24:19,-0.2010630699999999,-1.25868804,0.566715025,0.18460979500000002,-0.17852540500000003,0.02462688999999999,1.51374548,-5.02449726,-17.66119448,3.240293329999999,0.33678866535,-1.4945015725,0.5113228470000001,0.09572411445000001,-0.18065707512499998,-0.1777368399605
08:24:19,-0.21086965999999996,-1.25820352,0.5766834500000001,0.18252171,-0.17625089000000002,0.023875819999999992,1.51601624,-5.04824688,-17.67100924,3.38302954,0.3402817483,-1.497148105,0.5266256860000001,0.0939589441,-0.17838857724999999,-0.176345989549
08:24:19,-0.2206762499999999,-1.257719,0.586651875,0.18043362500000001,-0.17397637500000002,0.023124749999999993,1.518287,-5.0719965,-17.680824,3.5257657500000006,0.34377483125,-1.4997946375,0.5419285250000002,0.09219377375000001,-0.176120079375,-0.1749551391375
08:24:19,-0.23048283999999986,-1.25723448,0.5966203000000001,0.17834554000000002,-0.17170186,0.022373679999999993,1.52055776,-5.095746119999999,-17.69063876,3.6685019599999995,0.3472679142,-1.50244117,0.5572313640000001,0.0904286034,-0.1738515815,-0.173564288726
08:24:19,-0.24028942999999992,-1.25674996,0.606588725,0.176257455,-0.169427345,0.021622609999999994,1.52282852,-5.11949574,-17.70045352,3.81123817,0.35076099715000003,-1.5050877025,0.5725342030000001,0.08866343304999999,-0.171583083625,-0.1721734383145
08:24:19,-0.25009601999999986,-1.25626544,0.6165571500000001,0.17416937000000002,-0.16715283,0.020871539999999994,1.52509928,-5.14324536,-17.71026828,3.953974380000001,0.35425408010000004,-1.507734235,0.5878370420000002,0.0868982627,-0.16931458575,-0.170782587903
08:24:19,-0.2599026099999999,-1.25578092,0.6265255750000001,0.172081285,-0.16487831500000003,0.020120469999999994,1.52737004,-5.16699498,-17.72008304,4.09671059,0.35774716305000004,-1.5103807675,0.6031398810000003,0.08513309235,-0.167046087875,-0.1693917374915
08:24:19,-0.26970919999999987,-1.2552964,0.6364940000000001,0.1699932,-0.16260380000000002,0.019369399999999995,1.5296408,-5.1907446,-17.7298978,4.2394468000000005,0.36124024600000004,-1.5130273,0.6184427200000001,0.08336792200000001,-0.16477758999999997,-0.16800088708
08:24:19,-0.27951578999999993,-1.2548118799999999,0.6464624250000001,0.16790511500000002,-0.16032928500000002,0.018618329999999995,1.53191156,-5.21449422,-17.73971256,4.382183009999999,0.36473332895000005,-1.5156738325,0.6337455590000002,0.08160275165,-0.16250909212499998,-0.1666100366685
08:24:19,-0.2893223799999999,-1.25432736,0.6564308500000001,0.16581703,-0.15805477,0.017867259999999996,1.53418232,-5.23824384,-17.74952732,4.52491922,0.36822641190000005,-1.5183203650000001,0.6490483980000002,0.07983758130000002,-0.16024059424999998,-0.165219186257
08:24:19,-0.29912896999999994,-1.25384284,0.6663992750000001,0.16372894500000001,-0.155780255,0.017116189999999996,1.53645308,-5.26199346,-17.75934208,4.667655430000001,0.37171949485000005,-1.5209668975000001,0.6643512370000001,0.07807241095,-0.15797209637499998,-0.1638283358455
08:24:19,-0.3089355599999999,-1.25335832,0.6763677000000001,0.16164086,-0.15350574,0.016365119999999997,1.53872384,-5.28574308,-17.76915684,4.81039164,0.37521257780000006,-1.5236134300000002,0.6796540760000002,0.07630724059999999,-0.15570359849999998,-0.162437485434
08:24:19,-0.31874214999999995,-1.2528738,0.6863361250000001,0.159552775,-0.15123122500000002,0.01561404999999999,1.5409945999999999,-5.3094927,-17.7789716,4.95312785,0.37870566075000006,-1.5262599625,0.6949569150000002,0.07454207025000001,-0.153435100625,-0.1610466350225
08:24:19,-0.3285487399999999,-1.25238928,0.6963045500000001,0.15746469000000002,-0.14895671000000002,0.014862979999999998,1.54326536,-5.33324232,-17.78878636,5.095864059999999,0.38219874370000007,-1.528906495,0.7102597540000001,0.0727768999,-0.15116660275,-0.159655784611
08:24:19,-0.33835532999999984,-1.25190476,0.7062729750000001,0.155376605,-0.14668219500000002,0.014111909999999991,1.54553612,-5.35699194,-17.79860112,5.23860027,0.38569182665000007,-1.5315530275,0.7255625930000001,0.07101172955000001,-0.148898104875,-0.1582649341995
08:24:19,-0.3481619199999999,-1.25142024,0.7162414000000001,0.15328852,-0.14440768,0.013360839999999999,1.54780688,-5.38074156,-17.80841588,5.381336480000001,0.3891849096,-1.53419956,0.7408654320000002,0.0692465592,-0.146629607,-0.156874083788
08:24:19,-0.35796850999999985,-1.25093572,0.7262098250000001,0.15120043500000002,-0.142133165,0.012609769999999992,1.55007764,-5.40449118,-17.81823064,5.52407269,0.39267799255,-1.5368460925,0.7561682710000003,0.06748138885000002,-0.144361109125,-0.1554832333765
08:24:19,-0.3677750999999999,-1.2504512,0.7361782500000001,0.14911235,-0.13985865,0.011858699999999986,1.5523484,-5.428240799999999,-17.8280454,5.6668089,0.3961710755,-1.539492625,0.7714711100000001,0.0657162185,-0.14209261125,-0.154092382965
08:24:19,-0.37758168999999986,-1.24996668,0.7461466750000001,0.14702426500000002,-0.13758413500000002,0.011107629999999993,1.55461916,-5.45199042,-17.837860159999998,5.809545109999999,0.39966415845000003,-1.5421391575,0.7867739490000002,0.06395104815,-0.13982411337499998,-0.1527015325535
08:24:19,-0.3873882799999999,-1.24948216,0.7561151000000002,0.14493618000000003,-0.13530962000000002,0.010356559999999987,1.55688992,-5.47574004,-17.84767492,5.95228132,0.40315724140000003,-1.54478569,0.8020767880000003,0.06218587780000001,-0.13755561549999998,-0.151310682142
08:24:19,-0.39719486999999987,-1.24899764,0.7660835250000001,0.142848095,-0.13303510500000001,0.009605489999999994,1.55916068,-5.49948966,-17.85748968,6.095017530000001,0.40665032435000004,-1.5474322225000001,0.8173796270000001,0.06042070745,-0.13528711762499998,-0.1499198317305
08:24:19,-0.4070014599999999,-1.24851312,0.7760519500000002,0.14076001000000002,-0.13076059,0.008854419999999988,1.56143144,-5.52323928,-17.867304439999998,6.23775374,0.41014340730000004,-1.550078755,0.8326824660000002,0.058655537100000016,-0.13301861974999998,-0.148528981319
08:24:19,-0.4168080499999999,-1.2480286,0.7860203750000001,0.138671925,-0.128486075,0.008103349999999995,1.5637022,-5.5469889000000006,-17.8771192,6.38048995,0.41363649025000004,-1.5527252875,0.8479853050000002,0.056890366750000004,-0.13075012187499999,-0.1471381309075
08:24:19,-0.42661463999999993,-1.24754408,0.7959888,0.13658384,-0.12621156,0.007352279999999989,1.56597296,-5.57073852,-17.88693396,6.523226159999999,0.41712957320000005,-1.55537182,0.8632881440000003,0.05512519639999999,-0.128481624,-0.145747280496
08:24:19,-0.4364212299999999,-1.24705956,0.8059572250000001,0.13449575500000002,-0.12393704500000002,0.006601209999999996,1.56824372,-5.594488139999999,-17.896748719999998,6.66596237,0.42062265615000005,-1.5580183525,0.8785909830000002,0.05336002605000001,-0.126213126125,-0.1443564300845
08:24:19,-0.44622781999999983,-1.24657504,0.8159256500000001,0.13240767,-0.12166253000000002,0.00585013999999999,1.57051448,-5.6182377599999995,-17.90656348,6.808698580000001,0.42411573910000006,-1.560664885,0.8938938220000002,0.0515948557,-0.12394462825,-0.142965579673
08:24:19,-0.4560344099999999,-1.24609052,0.8258940750000001,0.13031958500000002,-0.11938801500000001,0.005099069999999997,1.57278524,-5.64198738,-17.91637824,6.9514347899999995,0.42760882205000006,-1.5633114175,0.9091966610000003,0.049829685350000014,-0.121676130375,-0.1415747292615
08:24:19,-0.46584099999999984,-1.245606,0.8358625000000001,0.1282315,-0.11711350000000001,0.004347999999999991,1.575056,-5.665737,-17.926192999999998,7.094171,0.43110190500000006,-1.56595795,0.9244995000000001,0.048064515,-0.1194076325,-0.14018387885
08:24:19,-0.4756475899999999,-1.24512148,0.8458309250000001,0.126143415,-0.114838985,0.003596929999999998,1.57732676,-5.68948662,-17.93600776,7.236907210000001,0.43459498795000007,-1.5686044825,0.9398023390000002,0.04629934465000002,-0.117139134625,-0.1387930284385
08:24:19,-0.48545417999999985,-1.24463696,0.8557993500000002,0.12405533000000002,-0.11256447000000003,0.0028458599999999917,1.57959752,-5.7132362400000005,-17.94582252,7.37964342,0.43808807090000007,-1.571251015,0.9551051780000003,0.04453417430000001,-0.11487063674999998,-0.137402178027
08:24:19,-0.4952607699999998,-1.24415244,0.865767775,0.121967245,-0.11028995500000002,0.0020947899999999853,1.5818682800000001,-5.73698586,-17.955637279999998,7.5223796300000005,0.4415811538500001,-1.5738975475,0.9704080170000001,0.042769003949999995,-0.11260213887499998,-0.1360113276155
08:24:19,-0.50506736,-1.24366792,0.8757362000000001,0.11987916000000001,-0.10801544000000002,0.0013437199999999927,1.58413904,-5.76073548,-17.96545204,7.6651158399999995,0.4450742368000001,-1.5765440800000001,0.9857108560000002,0.04100383360000001,-0.11033364099999998,-0.134620477204
08:24:19,-0.5148739499999999,-1.2431834,0.8857046250000001,0.11779107500000002,-0.10574092500000001,0.0005926499999999862,1.5864098,-5.7844850999999995,-17.9752668,7.80785205,0.44856731975,-1.5791906125000001,1.0010136950000001,0.03923866325,-0.10806514312499998,-0.1332296267925
08:24:19,-0.5246805399999999,-1.24269888,0.8956730500000002,0.11570299,-0.10346641000000001,-0.00015842000000000633,1.58868056,-5.80823472,-17.985081559999998,7.950588260000001,0.45206040270000003,-1.5818371450000002,1.0163165340000004,0.037473492900000016,-0.10579664524999999,-0.131838776381
08:24:19,-0.5344871299999998,-1.24221436,0.905641475,0.11361490500000002,-0.101191895,-0.0009094900000000128,1.59095132,-5.83198434,-17.99489632,8.093324469999999,0.45555348565000003,-1.5844836775000002,1.0316193730000003,0.035708322550000005,-0.10352814737499999,-0.1304479259695
08:24:19,-0.5442937199999998,-1.24172984,0.9156099000000001,0.11152682000000003,-0.09891738000000003,-0.0016605600000000054,1.59322208,-5.85573396,-18.00471108,8.236060680000001,0.45904656860000004,-1.58713021,1.0469222120000001,0.03394315220000002,-0.10125964949999999,-0.129057075558
08:24:19,-0.5541003099999999,-1.24124532,0.9255783250000001,0.10943873500000001,-0.09664286500000002,-0.002411630000000012,1.59549284,-5.8794835800000005,-18.01452584,8.37879689,0.46253965155000004,-1.5897767425,1.0622250510000004,0.03217798185000001,-0.098991151625,-0.1276662251465
08:24:19,-0.5639068999999999,-1.2407607999999999,0.9355467500000002,0.10735065000000002,-0.09436834999999999,-0.0031627000000000044,1.5977636,-5.9032332,-18.0243406,8.5215331,0.46603273450000005,-1.592423275,1.0775278900000003,0.030412811499999998,-0.09672265375,-0.126275374735
08:24:19,-0.5737134899999998,-1.24027628,0.945515175,0.105262565,-0.09209383500000001,-0.003913770000000011,1.60003436,-5.92698282,-18.03415536,8.664269310000002,0.46952581745000005,-1.5950698075,1.0928307290000001,0.028647641150000014,-0.094454155875,-0.1248845243235
08:24:19,-0.5835200799999998,-1.23979176,0.9554836000000001,0.10317448000000001,-0.08981932000000004,-0.004664840000000003,1.60230512,-5.9507324399999995,-18.04397012,8.80700552,0.47301890040000005,-1.59771634,1.1081335680000004,0.026882470800000002,-0.092185658,-0.123493673912
08:24:19,-0.59332667,-1.23930724,0.9654520250000002,0.10108639500000002,-0.087544805,-0.00541591000000001,1.60457588,-5.97448206,-18.05378488,8.94974173,0.47651198335000006,-1.6003628725,1.1234364070000002,0.02511730045000002,-0.089917160125,-0.1221028235005
08:24:19,-0.6031332599999999,-1.23882272,0.9754204500000002,0.09899831,-0.08527029000000003,-0.0061669800000000025,1.60684664,-5.99823168,-18.06359964,9.092477940000002,0.48000506630000006,-1.603009405,1.138739246,0.023352130100000007,-0.08764866225000001,-0.120711973089
08:24:19,-0.6129398499999998,-1.2383382,0.985388875,0.09691022500000002,-0.082995775,-0.006918050000000009,1.6091174000000001,-6.0219813,-18.0734144,9.235214150000001,0.48349814925000006,-1.6056559375000001,1.1540420850000004,0.021586959750000023,-0.08538016437500001,-0.1193211226775
08:24:19,-0.6227464399999998,-1.23785368,0.9953573000000001,0.09482214,-0.08072126000000002,-0.007669120000000015,1.61138816,-6.0457309200000005,-18.08322916,9.37795036,0.48699123220000007,-1.60830247,1.1693449240000002,0.01982178940000001,-0.08311166650000001,-0.117930272266
08:24:19,-0.63255303,-1.23736916,1.005325725,0.09273405500000001,-0.07844674500000004,-0.008420190000000008,1.61365892,-6.06948054,-18.09304392,9.520686570000002,0.49048431515000007,-1.6109490025,1.184647763,0.01805661905,-0.08084316862500002,-0.1165394218545
08:24:19,-0.6423596199999999,-1.23688464,1.0152941500000003,0.09064597000000002,-0.07617223000000001,-0.009171260000000014,1.61592968,-6.09323016,-18.10285868,9.663422780000001,0.4939773981000001,-1.613595535,1.1999506020000004,0.016291448700000016,-0.07857467074999996,-0.115148571443
08:24:19,-0.6521662099999999,-1.23640012,1.0252625750000002,0.088557885,-0.07389771500000003,-0.009922330000000007,1.61820044,-6.116979779999999,-18.11267344,9.80615899,0.4974704810500001,-1.6162420675,1.2152534410000002,0.014526278350000005,-0.07630617287499997,-0.1137577210315
08:24:19,-0.6619727999999998,-1.2359156,1.035231,0.08646980000000004,-0.0716232,-0.010673400000000013,1.6204712,-6.1407294,-18.1224882,9.948895200000003,0.500963564,-1.6188886,1.23055628,0.012761108000000021,-0.07403767499999997,-0.11236687062
08:24:19,-0.6717793899999998,-1.23543108,1.0451994250000003,0.08438171500000002,-0.06934868500000002,-0.011424470000000006,1.62274196,-6.16447902,-18.13230296,10.091631410000002,0.50445664695,-1.6215351325,1.2458591190000003,0.01099593765000001,-0.07176917712499997,-0.1109760202085
08:24:19,-0.6815859799999999,-1.23494656,1.0551678500000001,0.08229363,-0.06707416999999999,-0.012175540000000012,1.62501272,-6.18822864,-18.142117719999998,10.23436762,0.5079497299,-1.624181665,1.2611619580000002,0.009230767299999998,-0.06950067924999997,-0.109585169797
08:24:19,-0.6913925699999999,-1.23446204,1.065136275,0.08020554499999999,-0.06479965500000001,-0.012926610000000005,1.62728348,-6.21197826,-18.15193248,10.37710383,0.51144281285,-1.6268281975,1.276464797,0.007465596950000014,-0.06723218137499998,-0.1081943193855
08:24:19,-0.7011991599999998,-1.23397752,1.0751047000000002,0.07811746000000003,-0.06252514000000003,-0.013677680000000011,1.62955424,-6.23572788,-18.16174724,10.519840040000002,0.5149358958,-1.62947473,1.2917676360000003,0.0057004266000000026,-0.06496368349999998,-0.106803468974
08:24:19,-0.7110057499999998,-1.233493,1.085073125,0.07602937500000001,-0.060250625,-0.014428750000000004,1.631825,-6.2594775,-18.171561999999998,10.66257625,0.51842897875,-1.6321212625000001,1.3070704750000002,0.003935256250000019,-0.06269518562499998,-0.1054126185625
08:24:19,-0.7208123399999999,-1.23300848,1.0950415500000004,0.07394128999999999,-0.057976110000000025,-0.01517982000000001,1.6340957600000001,-6.283227119999999,-18.18137676,10.80531246,0.5219220617,-1.6347677950000001,1.3223733140000005,0.0021700859000000072,-0.060426687749999985,-0.104021768151
08:24:19,-0.7306189299999999,-1.23252396,1.1050099750000002,0.07185320500000003,-0.05570159499999999,-0.015930890000000003,1.6363665200000002,-6.30697674,-18.19119152,10.948048670000002,0.52541514465,-1.6374143275000002,1.3376761530000003,0.00040491555000002344,-0.05815818987499999,-0.1026309177395
08:24:19,-0.7404255199999998,-1.23203944,1.1149784,0.06976512000000001,-0.053427080000000016,-0.01668196000000001,1.63863728,-6.33072636,-18.201006279999998,11.090784880000001,0.5289082276,-1.6400608600000002,1.3529789920000002,-0.001360254799999988,-0.05588969199999999,-0.101240067328
08:24:19,-0.7502321099999998,-1.23155492,1.1249468250000003,0.067677035,-0.05115256500000004,-0.017433030000000016,1.64090804,-6.35447598,-18.21082104,11.23352109,0.5324013105500001,-1.6427073925000002,1.3682818310000004,-0.0031254251499999997,-0.053621194124999993,-0.0998492169165
08:24:19,-0.7600386999999997,-1.2310704000000001,1.1349152500000002,0.06558895000000003,-0.048878050000000006,-0.01818410000000001,1.6431788,-6.3782256,-18.2206358,11.376257300000002,0.5358943935,-1.645353925,1.3835846700000003,-0.0048905954999999834,-0.051352696249999996,-0.098458366505
08:24:19,-0.7698452899999999,-1.23058588,1.144883675,0.06350086500000002,-0.04660353500000003,-0.018935170000000015,1.64544956,-6.40197522,-18.230450559999998,11.518993510000001,0.5393874764500001,-1.6480004575,1.3988875090000001,-0.006655765849999995,-0.049084198375,-0.0970675160935
08:24:19,-0.7796518799999999,-1.23010136,1.1548521000000003,0.06141278,-0.04432902,-0.019686240000000008,1.64772032,-6.42572484,-18.24026532,11.66172972,0.5428805594,-1.65064699,1.414190348,-0.008420936199999979,-0.0468157005,-0.095676665682
08:24:19,-0.7894584699999998,-1.22961684,1.164820525,0.05932469500000004,-0.04205450500000002,-0.020437310000000014,1.64999108,-6.449474459999999,-18.25008008,11.804465930000003,0.5463736423500001,-1.6532935225,1.4294931870000003,-0.01018610654999999,-0.044547202625000004,-0.0942858152705
08:24:19,-0.7992650599999997,-1.22913232,1.17478895,0.05723661000000002,-0.03977999000000004,-0.021188380000000007,1.65226184,-6.47322408,-18.259894839999998,11.947202140000002,0.5498667253,-1.655940055,1.4447960260000001,-0.011951276899999974,-0.04227870475000001,-0.092894964859
08:24:19,-0.8090716499999999,-1.2286478,1.1847573750000002,0.055148525000000004,-0.03750547500000001,-0.021939450000000013,1.6545326,-6.4969737,-18.2697096,12.08993835,0.5533598082500001,-1.6585865875,1.460098865,-0.013716447249999986,-0.04001020687500001,-0.0915041144475
08:24:19,-0.8188782399999999,-1.22816328,1.1947258,0.053060439999999987,-0.03523096000000003,-0.022690520000000006,1.65680336,-6.52072332,-18.27952436,12.23267456,0.5568528912,-1.6612331200000001,1.4754017040000003,-0.015481617599999997,-0.03774170900000001,-0.09011326403600001
08:24:19,-0.8286848299999998,-1.22767876,1.2046942250000003,0.050972355000000025,-0.032956445,-0.023441590000000012,1.65907412,-6.54447294,-18.289339119999998,12.375410770000002,0.56034597415,-1.6638796525000001,1.490704543,-0.01724678794999998,-0.035473211125000015,-0.08872241362450001
08:24:19,-0.8384914199999998,-1.22719424,1.2146626500000002,0.04888427000000001,-0.030681930000000024,-0.024192660000000005,1.6613448800000001,-6.56822256,-18.29915388,12.518146980000001,0.5638390571,-1.666526185,1.5060073820000004,-0.019011958299999993,-0.03320471325000002,-0.08733156321300001
08:24:19,-0.8482980099999997,-1.2267097200000001,1.224631075,0.04679618499999999,-0.02840741499999999,-0.02494373000000001,1.6636156400000002,-6.59197218,-18.30896864,12.66088319,0.56733214005,-1.6691727175,1.5213102210000002,-0.020777128649999976,-0.030936215374999965,-0.08594071280150001
08:24:19,-0.8581045999999999,-1.2262252,1.2345995000000003,0.04470810000000003,-0.026132900000000014,-0.025694800000000004,1.6658864,-6.615721799999999,-18.3187834,12.803619400000002,0.570825223,-1.67181925,1.53661306,-0.022542298999999988,-0.028667717499999967,-0.08454986239000001
08:24:19,-0.8679111899999998,-1.22574068,1.2445679250000001,0.04262001500000001,-0.023858385000000037,-0.02644587000000001,1.66815716,-6.63947142,-18.32859816,12.946355610000001,0.57431830595,-1.6744657825,1.5519158990000004,-0.02430746935,-0.02639921962499997,-0.08315901197850001
08:24:19,-0.8777177799999998,-1.22525616,1.25453635,0.040531929999999994,-0.021583870000000005,-0.027196940000000017,1.67042792,-6.66322104,-18.33841292,13.08909182,0.5778113889000001,-1.677112315,1.5672187380000002,-0.026072639699999983,-0.024130721749999973,-0.08176816156700001
08:24:19,-0.8875243699999997,-1.22477164,1.2645047750000002,0.03844384500000003,-0.019309355000000028,-0.02794801000000001,1.67269868,-6.68697066,-18.34822768,13.231828030000003,0.58130447185,-1.6797588475,1.582521577,-0.027837810049999995,-0.021862223874999975,-0.08037731115550001
08:24:19,-0.8973309599999999,-1.22428712,1.2744732,0.036355760000000015,-0.017034839999999996,-0.028699080000000016,1.67496944,-6.71072028,-18.35804244,13.374564240000002,0.5847975548000001,-1.68240538,1.5978244160000004,-0.029602980400000006,-0.019593725999999978,-0.07898646074400001
08:24:19,-0.9071375499999998,-1.2238026,1.2844416250000004,0.034267675,-0.014760325000000019,-0.02945015000000001,1.6772402,-6.7344699,-18.3678572,13.51730045,0.58829063775,-1.6850519125,1.6131272550000002,-0.03136815074999996,-0.01732522812499998,-0.07759561033250001
08:24:19,-0.9169441399999998,-1.22331808,1.2944100500000002,0.032179590000000036,-0.012485810000000042,-0.030201220000000015,1.67951096,-6.75821952,-18.37767196,13.66003666,0.5917837207,-1.687698445,1.628430094,-0.033133321099999974,-0.015056730249999983,-0.07620475992100001
08:24:19,-0.9267507299999997,-1.22283356,1.304378475,0.03009150500000002,-0.010211295000000009,-0.030952290000000007,1.68178172,-6.781969139999999,-18.38748672,13.802772870000002,0.59527680365,-1.6903449775000001,1.6437329330000003,-0.034898491449999985,-0.012788232374999986,-0.07481390950950001
08:24:19,-0.9365573199999999,-1.22234904,1.3143469000000003,0.02800342,-0.007936780000000032,-0.031703360000000014,1.68405248,-6.8057187599999995,-18.39730148,13.94550908,0.5987698866,-1.6929915100000001,1.6590357720000002,-0.0366636618,-0.010519734499999989,-0.07342305909800001
08:24:19,-0.9463639099999999,-1.22186452,1.3243153250000002,0.02591533500000004,-0.005662265,-0.032454430000000006,1.6863232400000001,-6.82946838,-18.40711624,14.08824529,0.60226296955,-1.6956380425000002,1.674338611,-0.03842883215000001,-0.008251236624999991,-0.07203220868650001
08:24:19,-0.9561704999999998,-1.22138,1.33428375,0.023827250000000022,-0.0033877500000000227,-0.03320550000000001,1.6885940000000002,-6.853218,-18.416930999999998,14.230981500000002,0.6057560525,-1.6982845750000002,1.6896414500000003,-0.040194002499999965,-0.005982738749999994,-0.07064135827500001
08:24:19,-0.9659770899999998,-1.22089548,1.3442521750000003,0.021739165000000005,-0.0011132349999999902,-0.033956570000000005,1.69086476,-6.87696762,-18.42674576,14.373717710000001,0.60924913545,-1.7009311075000002,1.7049442890000002,-0.041959172849999976,-0.0037142408749999967,-0.06925050786350001
08:24:19,-0.9757836799999997,-1.22041096,1.3542206,0.019651080000000043,0.0011612799999999868,-0.03470764000000001,1.69313552,-6.90071724,-18.43656052,14.51645392,0.6127422184,-1.70357764,1.720247128,-0.04372434319999999,-0.0014457429999999993,-0.06785965745200001
08:24:19,-0.9855902699999999,-1.21992644,1.3641890250000004,0.017562995000000026,0.0034357949999999637,-0.035458710000000004,1.69540628,-6.92446686,-18.446375279999998,14.659190130000002,0.61623530135,-1.7062241725,1.7355499670000003,-0.04548951355,0.000822754874999998,-0.06646880704050001
08:24:19,-0.9953968599999998,-1.21944192,1.3741574500000002,0.015474910000000008,0.005710309999999996,-0.03620978000000001,1.69767704,-6.948216479999999,-18.45619004,14.801926340000001,0.6197283843,-1.708870705,1.7508528060000002,-0.04725468390000001,0.0030912527499999953,-0.06507795662900001
08:24:19,-1.0052034499999998,-1.2189574,1.384125875,0.013386824999999991,0.007984824999999973,-0.03696085000000002,1.6999478000000001,-6.9719660999999995,-18.4660048,14.94466255,0.62322146725,-1.7115172375,1.766155645,-0.04901985424999997,0.005359750624999993,-0.06368710621750001
08:24:19,-1.0150100399999997,-1.21847288,1.3940943000000003,0.01129874000000003,0.010259340000000006,-0.03771192000000001,1.70221856,-6.99571572,-18.475819559999998,15.087398760000003,0.6267145502,-1.71416377,1.7814584840000003,-0.05078502459999998,0.00762824849999999,-0.06229625580600001
08:24:19,-1.02481663,-1.21798836,1.4040627250000002,0.009210655000000012,0.012533854999999983,-0.038462990000000016,1.70448932,-7.01946534,-18.48563432,15.230134970000002,0.6302076331500001,-1.7168103025,1.7967613230000001,-0.05255019494999999,0.009896746374999987,-0.06090540539450001
08:24:19,-1.0346232199999998,-1.21750384,1.41403115,0.007122569999999995,0.01480836999999996,-0.03921406000000001,1.70676008,-7.04321496,-18.49544908,15.37287118,0.6337007161,-1.7194568350000001,1.8120641620000004,-0.0543153653,0.012165244249999985,-0.05951455498300001
08:24:19,-1.0444298099999998,-1.2170193200000001,1.4239995750000003,0.005034485000000033,0.017082884999999992,-0.039965130000000015,1.70903084,-7.0669645800000005,-18.505263839999998,15.51560739,0.6371937990500001,-1.7221033675000001,1.8273670010000003,-0.05608053564999996,0.014433742124999982,-0.05812370457150001
08:24:19,-1.0542363999999997,-1.2165348,1.4339680000000001,0.0029464000000000157,0.01935739999999997,-0.04071620000000001,1.7113016,-7.0907142,-18.5150786,15.658343600000002,0.640686882,-1.7247499,1.8426698400000001,-0.05784570599999997,0.016702240000000035,-0.05673285416000001
08:24:19,-1.0640429899999997,-1.21605028,1.443936425,0.0008583149999999984,0.021631915,-0.041467270000000014,1.7135723600000001,-7.114463819999999,-18.52489336,15.801079810000001,0.64417996495,-1.7273964325,1.8579726790000004,-0.05961087634999998,0.018970737875000032,-0.05534200374850001
08:24:19,-1.0738495799999999,-1.21556576,1.4539048500000002,-0.0012297699999999634,0.02390642999999998,-0.04221834000000001,1.7158431200000002,-7.1382134399999995,-18.534708119999998,15.94381602,0.6476730479,-1.730042965,1.8732755180000003,-0.06137604669999999,0.02123923575000003,-0.05395115333700001
08:24:19,-1.0836561699999998,-1.21508124,1.463873275,-0.0033178549999999807,0.026180944999999956,-0.04296941000000001,1.71811388,-7.16196306,-18.54452288,16.086552230000002,0.65116613085,-1.7326894975,1.888578357,-0.06314121705,0.023507733625000027,-0.05256030292550001
08:24:19,-1.0934627599999998,-1.21459672,1.4738417000000004,-0.005405939999999998,0.028455459999999988,-0.043720480000000006,1.72038464,-7.18571268,-18.55433764,16.22928844,0.6546592138,-1.73533603,1.9038811960000004,-0.06490638739999996,0.025776231500000024,-0.05116945251400001
08:24:19,-1.1032693499999997,-1.2141122,1.4838101250000002,-0.00749402499999996,0.030729974999999965,-0.04447155000000001,1.7226554,-7.2094623,-18.564152399999998,16.37202465,0.65815229675,-1.7379825625,1.9191840350000002,-0.06667155774999997,0.02804472937500002,-0.049778602102500014
08:24:19,-1.1130759399999999,-1.21362768,1.49377855,-0.009582109999999977,0.03300449,-0.045222620000000005,1.72492616,-7.2332119200000005,-18.57396716,16.514760860000003,0.6616453797,-1.740629095,1.934486874,-0.06843672809999998,0.03031322725000002,-0.048387751691000014
08:24:19,-1.1228825299999998,-1.21314316,1.5037469750000003,-0.011670194999999994,0.035279004999999974,-0.04597369000000001,1.72719692,-7.25696154,-18.58378192,16.65749707,0.66513846265,-1.7432756275,1.9497897130000004,-0.07020189845,0.032581725125000016,-0.046996901279500014
08:24:19,-1.1326891199999998,-1.2126586400000001,1.5137154000000002,-0.013758280000000012,0.03755352000000001,-0.046724760000000004,1.72946768,-7.28071116,-18.593596679999997,16.80023328,0.6686315456,-1.7459221600000001,1.9650925520000002,-0.0719670688,0.034850223000000013,-0.045606050868000014
08:24:19,-1.1424957099999997,-1.21217412,1.523683825,-0.015846364999999973,0.039828034999999984,-0.047475830000000024,1.73173844,-7.304460779999999,-18.60341144,16.94296949,0.67212462855,-1.7485686925000001,1.980395391,-0.07373223914999996,0.03711872087500001,-0.044215200456500015
08:24:19,-1.1523023,-1.2116896000000001,1.5336522500000003,-0.01793444999999999,0.04210254999999996,-0.04822690000000002,1.7340092,-7.3282104,-18.6132262,17.085705700000002,0.6756177115,-1.7512152250000002,1.9956982300000004,-0.07549740949999997,0.03938721875000001,-0.042824350045000015
08:24:19,-1.1621088899999998,-1.21120508,1.543620675,-0.020022535000000008,0.04437706499999999,-0.04897797000000001,1.73627996,-7.35196002,-18.623040959999997,17.22844191,0.67911079445,-1.7538617575000002,2.011001069,-0.07726257984999998,0.041655716625000005,-0.041433499633500015
08:24:19,-1.1719154799999998,-1.21072056,1.5535891000000004,-0.02211061999999997,0.04665157999999997,-0.04972904,1.73855072,-7.37570964,-18.63285572,17.37117812,0.6826038774000001,-1.7565082900000002,2.026303908,-0.0790277502,0.0439242145,-0.040042649222000015
08:24:19,-1.1817220699999997,-1.21023604,1.5635575250000002,-0.024198704999999987,0.048926095,-0.05048011000000002,1.7408214800000001,-7.3994592599999995,-18.64267048,17.513914330000002,0.68609696035,-1.7591548225000002,2.0416067470000003,-0.08079292055000001,0.046192712375,-0.038651798810500015
08:24:19,-1.1915286599999997,-1.20975152,1.57352595,-0.026286790000000004,0.05120060999999998,-0.051231180000000015,1.7430922400000002,-7.42320888,-18.652485239999997,17.65665054,0.6895900433000001,-1.761801355,2.056909586,-0.08255809089999996,0.04846121025,-0.037260948399000016
08:24:19,-1.2013352499999999,-1.209267,1.5834943750000003,-0.028374874999999966,0.05347512499999996,-0.05198225000000001,1.745363,-7.4469585,-18.6623,17.79938675,0.69308312625,-1.7644478875,2.0722124250000005,-0.08432326124999998,0.050729708124999995,-0.035870097987500016
08:24:19,-1.2111418399999998,-1.20878248,1.5934628000000002,-0.030462959999999983,0.05574963999999999,-0.05273332,1.74763376,-7.470708119999999,-18.67211476,17.942122960000003,0.6965762092,-1.76709442,2.0875152640000003,-0.08608843159999999,0.05299820599999999,-0.034479247576000016
08:24:19,-1.2209484299999998,-1.2082979600000001,1.603431225,-0.032551045,0.058024154999999966,-0.05348439000000002,1.74990452,-7.49445774,-18.681929519999997,18.08485917,0.70006929215,-1.7697409525,2.102818103,-0.08785360195,0.05526670387499999,-0.033088397164500016
08:24:19,-1.2307550199999997,-1.20781344,1.6133996500000003,-0.03463912999999996,0.06029867,-0.05423546000000001,1.7521752800000001,-7.51820736,-18.691744279999998,18.22759538,0.7035623751,-1.772387485,2.1181209420000005,-0.08961877229999995,0.05753520174999999,-0.03169754675300002
08:24:19,-1.2405616099999999,-1.2073289200000001,1.6233680750000001,-0.03672721499999998,0.06257318499999998,-0.054986530000000006,1.75444604,-7.54195698,-18.70155904,18.370331590000003,0.70705545805,-1.7750340175000001,2.1334237810000003,-0.09138394264999997,0.059803699624999984,-0.030306696341500017
08:24:19,-1.2503681999999998,-1.2068444,1.6333365000000004,-0.0388153,0.06484770000000001,-0.055737600000000026,1.7567168,-7.5657065999999995,-18.711373799999997,18.5130678,0.710548541,-1.7776805500000001,2.14872662,-0.09314911299999998,0.06207219749999998,-0.028915845930000017
08:24:19,-1.2601747899999998,-1.20635988,1.6433049250000002,-0.04090338499999996,0.06712221499999999,-0.05648867000000002,1.75898756,-7.58945622,-18.721188559999998,18.65580401,0.71404162395,-1.7803270825000002,2.1640294590000004,-0.09491428334999999,0.06434069537499998,-0.027524995518500017
08:24:19,-1.2699813799999997,-1.20587536,1.65327335,-0.042991469999999976,0.06939672999999996,-0.05723974000000001,1.76125832,-7.61320584,-18.73100332,18.79854022,0.7175347069,-1.7829736150000002,2.1793322980000003,-0.0966794537,0.06660919325000003,-0.026134145107000017
08:24:19,-1.2797879699999997,-1.20539084,1.6632417750000004,-0.04507955499999999,0.071671245,-0.057990810000000004,1.76352908,-7.63695546,-18.740818079999997,18.941276430000002,0.72102778985,-1.7856201475,2.194635137,-0.09844462404999996,0.06887769112500003,-0.024743294695500018
08:24:19,-1.2895945599999998,-1.20490632,1.6732102000000002,-0.047167639999999955,0.07394575999999997,-0.058741880000000024,1.7657998400000001,-7.66070508,-18.750632839999998,19.08401264,0.7245208728,-1.78826668,2.2099379760000004,-0.10020979439999997,0.07114618900000003,-0.023352444284000018
08:24:19,-1.2994011499999998,-1.2044218,1.683178625,-0.04925572499999997,0.076220275,-0.05949295000000002,1.7680706000000002,-7.6844547,-18.7604476,19.22674885,0.72801395575,-1.7909132125,2.2252408150000003,-0.10197496474999998,0.07341468687500002,-0.021961593872500018
08:24:19,-1.3092077399999997,-1.20393728,1.6931470500000003,-0.05134380999999999,0.07849478999999998,-0.06024402000000001,1.7703413600000002,-7.70820432,-18.770262359999997,19.369485060000002,0.7315070387,-1.793559745,2.240543654,-0.10374013509999999,0.07568318475000002,-0.02057074346100002
08:24:19,-1.3190143299999997,-1.20345276,1.7031154750000002,-0.05343189500000001,0.08076930499999996,-0.06099509,1.77261212,-7.7319539399999995,-18.780077119999998,19.51222127,0.7350001216500001,-1.7962062775,2.2558464930000004,-0.10550530545,0.07795168262500002,-0.01917989304950002
08:24:19,-1.3288209199999998,-1.2029682400000001,1.7130839000000004,-0.05551997999999997,0.08304381999999999,-0.06174616000000002,1.77488288,-7.75570356,-18.78989188,19.65495748,0.7384932046,-1.79885281,2.2711493320000002,-0.10727047579999996,0.08022018050000002,-0.01778904263800002
08:24:19,-1.3386275099999998,-1.20248372,1.7230523250000003,-0.057608064999999986,0.08531833499999997,-0.062497230000000015,1.77715364,-7.77945318,-18.79970664,19.797693690000003,0.7419862875500001,-1.8014993425,2.286452171,-0.10903564614999997,0.08248867837500001,-0.01639819222650002
08:24:19,-1.3484340999999997,-1.2019992,1.73302075,-0.05969615,0.08759285,-0.06324830000000001,1.7794244000000001,-7.8032028,-18.809521399999998,19.9404299,0.7454793705,-1.8041458750000001,2.3017550100000004,-0.11080081649999998,0.08475717625000001,-0.01500734181500002
08:24:19,-1.3582406899999997,-1.20151468,1.7429891750000004,-0.061784234999999965,0.08986736499999998,-0.06399937,1.78169516,-7.82695242,-18.81933616,20.08316611,0.7489724534500001,-1.8067924075000001,2.3170578490000002,-0.11256598685,0.08702567412500001,-0.01361649140350002
08:24:19,-1.3680472799999999,-1.20103016,1.7529576000000002,-0.06387231999999998,0.09214188000000001,-0.06475044000000002,1.78396592,-7.85070204,-18.82915092,20.22590232,0.7524655364,-1.8094389400000002,2.3323606880000005,-0.1143311572,0.089294172,-0.01222564099200002
08:24:19,-1.3778538699999998,-1.20054564,1.762926025,-0.065960405,0.09441639499999999,-0.06550151000000001,1.78623668,-7.87445166,-18.838965679999998,20.368638530000002,0.75595861935,-1.8120854725000002,2.3476635270000004,-0.11609632754999996,0.091562669875,-0.01083479058050002
08:24:19,-1.3876604599999998,-1.20006112,1.7728944500000003,-0.06804848999999996,0.09669090999999996,-0.06625258,1.78850744,-7.898201279999999,-18.84878044,20.51137474,0.7594517023,-1.8147320050000002,2.362966366,-0.11786149789999997,0.09383116775,-0.00944394016900002
08:24:19,-1.3974670499999997,-1.1995766,1.7828628750000002,-0.07013657499999998,0.098965425,-0.06700365000000003,1.7907782,-7.9219509,-18.8585952,20.65411095,0.76294478525,-1.8173785375000002,2.3782692050000005,-0.11962666824999998,0.096099665625,-0.00805308975750002
08:24:19,-1.4072736399999997,-1.19909208,1.7928313,-0.07222466,0.10123993999999997,-0.06775472000000002,1.7930489600000001,-7.94570052,-18.868409959999997,20.796847160000002,0.7664378682,-1.8200250700000002,2.3935720440000003,-0.1213918386,0.0983681635,-0.006662239346000021
08:24:19,-1.4170802299999998,-1.1986075600000001,1.8027997250000003,-0.07431274499999996,0.103514455,-0.06850579000000001,1.7953197200000002,-7.96945014,-18.87822472,20.93958337,0.76993095115,-1.8226716025000003,2.408874883,-0.12315700894999995,0.10063666137499999,-0.005271388934500021
08:24:19,-1.4268868199999998,-1.19812304,1.8127681500000001,-0.07640082999999998,0.10578896999999998,-0.06925686,1.79759048,-7.9931997599999995,-18.88803948,21.08231958,0.7734240341,-1.825318135,2.4241777220000005,-0.12492217929999996,0.10290515924999999,-0.003880538523000021
08:24:19,-1.4366934099999997,-1.1976385200000002,1.8227365750000004,-0.07848891499999999,0.10806348499999996,-0.07000793000000002,1.79986124,-8.01694938,-18.897854239999997,21.225055790000003,0.77691711705,-1.8279646675,2.4394805610000003,-0.12668734964999998,0.10517365712499999,-0.0024896881115000213
08:24:20,-1.4465,-1.197154,1.832705,-0.080577,0.110338,-0.070759,1.802132,-8.040699,-18.907669,21.367792,0.7804102,-1.8306112,2.4547834,-0.12845252,0.107442155,-0.0010988377
08:24:20,-1.4370598499999998,-1.1984926900000001,1.8283632,-0.079932465,0.10998111,-0.07130233,1.797380295,-8.058478275,-18.909235085,21.2967939,0.7824685895000001,-1.8290777175000001,2.4435180648,-0.12847254049999998,0.107199900125,-0.0017677311615000003
08:24:20,-1.4276197,-1.19983138,1.8240214000000001,-0.07928792999999999,0.10962422000000001,-0.07184566,1.79262859,-8.07625755,-18.91080117,21.2257958,0.784526979,-1.8275442350000002,2.4322527296,-0.12849256099999998,0.10695764525,-0.002436624623
08:24:20,-1.4181795499999998,-1.20117007,1.8196796,-0.07864339499999999,0.10926733000000001,-0.07238899,1.787876885,-8.094036825,-18.912367255,21.154797700000003,0.7865853685,-1.8260107525,2.4209873944,-0.1285125815,0.106715390375,-0.0031055180845000006
08:24:20,-1.4087394,-1.20250876,1.8153378,-0.07799885999999999,0.10891044000000001,-0.07293232000000001,1.78312518,-8.1118161,-18.91393334,21.083799600000003,0.7886437580000001,-1.82447727,2.4097220592000004,-0.128532602,0.1064731355,-0.0037744115460000005
08:24:20,-1.3992992499999999,-1.20384745,1.810996,-0.077354325,0.10855355,-0.07347565,1.778373475,-8.129595375,-18.915499425,21.012801500000002,0.7907021475,-1.8229437875,2.3984567240000003,-0.1285526225,0.106230880625,-0.0044433050075000004
08:24:20,-1.3898590999999998,-1.2051861400000001,1.8066542,-0.07670979,0.10819666,-0.07401898,1.77362177,-8.14737465,-18.917065509999997,20.9418034,0.792760537,-1.8214103050000001,2.3871913888000003,-0.128572643,0.10598862575,-0.005112198469
08:24:20,-1.38041895,-1.20652483,1.8023124,-0.076065255,0.10783977,-0.07456231,1.768870065,-8.165153925,-18.918631594999997,20.8708053,0.7948189265000001,-1.8198768225000002,2.3759260536,-0.12859266349999998,0.105746370875,-0.0057810919305
08:24:20,-1.3709787999999998,-1.20786352,1.7979706,-0.07542072,0.10748288,-0.07510564,1.76411836,-8.1829332,-18.920197679999998,20.7998072,0.796877316,-1.8183433400000002,2.3646607184,-0.12861268399999998,0.105504116,-0.006449985392
08:24:20,-1.36153865,-1.20920221,1.7936288,-0.074776185,0.10712599,-0.07564897,1.759366655,-8.200712475,-18.921763764999998,20.728809100000003,0.7989357055,-1.8168098575,2.3533953832,-0.1286327045,0.105261861125,-0.0071188788535
08:24:20,-1.3520984999999999,-1.2105409,1.789287,-0.07413165,0.1067691,-0.0761923,1.7546149500000001,-8.21849175,-18.92332985,20.657811000000002,0.8009940950000001,-1.815276375,2.342130048,-0.128652725,0.10501960625,-0.007787772315
08:24:20,-1.34265835,-1.2118795900000001,1.7849452000000001,-0.07348711499999999,0.10641221000000001,-0.07673563,1.749863245,-8.236271025,-18.924895935,20.5868129,0.8030524845000001,-1.8137428925,2.3308647128,-0.1286727455,0.104777351375,-0.0084566657765
08:24:20,-1.3332182,-1.21321828,1.7806034,-0.07284257999999999,0.10605532000000001,-0.07727896000000001,1.7451115400000001,-8.2540503,-18.92646202,20.5158148,0.805110874,-1.8122094100000001,2.3195993776000003,-0.128692766,0.1045350965,-0.009125559238000002
08:24:20,-1.3237780499999998,-1.21455697,1.7762616,-0.07219804499999999,0.10569843000000001,-0.07782229,1.740359835,-8.271829575,-18.928028105,20.4448167,0.8071692635000001,-1.8106759275000002,2.3083340424000003,-0.12871278649999998,0.104292841625,-0.009794452699500002
08:24:20,-1.3143379,-1.2158956600000002,1.7719198,-0.07155351,0.10534154000000001,-0.07836562,1.7356081300000001,-8.28960885,-18.92959419,20.3738186,0.8092276530000001,-1.809142445,2.2970687072000002,-0.12873280699999998,0.10405058675,-0.010463346161000002
08:24:20,-1.3048977499999999,-1.21723435,1.767578,-0.070908975,0.10498465000000001,-0.07890895,1.730856425,-8.307388125,-18.931160275,20.302820500000003,0.8112860425,-1.8076089625,2.285803372,-0.1287528275,0.10380833187499999,-0.011132239622500002
08:24:20,-1.2954576,-1.21857304,1.7632362000000001,-0.07026444,0.10462776,-0.07945228,1.7261047200000001,-8.3251674,-18.93272636,20.231822400000002,0.8133444320000001,-1.80607548,2.2745380368,-0.128772848,0.10356607699999999,-0.011801133084000002
08:24:20,-1.28601745,-1.21991173,1.7588944,-0.069619905,0.10427087,-0.07999561,1.721353015,-8.342946675,-18.934292444999997,20.1608243,0.8154028215000001,-1.8045419975,2.2632727016,-0.1287928685,0.10332382212499999,-0.012470026545500001
08:24:20,-1.2765773,-1.22125042,1.7545526,-0.06897537,0.10391398,-0.08053894,1.7166013100000002,-8.360725949999999,-18.935858529999997,20.0898262,0.817461211,-1.8030085150000001,2.2520073664,-0.12881288899999999,0.10308156724999999,-0.013138920007000001
08:24:20,-1.26713715,-1.2225891100000001,1.7502108,-0.06833083499999999,0.10355709,-0.08108227,1.711849605,-8.378505225,-18.937424614999998,20.0188281,0.8195196005000001,-1.8014750325000002,2.2407420312,-0.12883290949999998,0.10283931237499999,-0.013807813468500001
08:24:20,-1.2576969999999998,-1.2239278,1.7458690000000001,-0.06768629999999999,0.1032002,-0.0816256,1.7070979,-8.3962845,-18.938990699999998,19.94783,0.8215779900000001,-1.79994155,2.2294766960000003,-0.12885292999999998,0.1025970575,-0.014476706930000001
08:24:20,-1.24825685,-1.22526649,1.7415272,-0.067041765,0.10284331000000001,-0.08216893,1.702346195,-8.414063775,-18.940556785,19.876831900000003,0.8236363795,-1.7984080675,2.2182113608000003,-0.1288729505,0.10235480262499999,-0.015145600391500001
08:24:20,-1.2388166999999999,-1.22660518,1.7371854,-0.06639723,0.10248642000000001,-0.08271226,1.6975944900000002,-8.43184305,-18.94212287,19.805833800000002,0.825694769,-1.796874585,2.2069460256,-0.128892971,0.10211254775,-0.015814493853
08:24:20,-1.22937655,-1.22794387,1.7328436,-0.065752695,0.10212953000000001,-0.08325559,1.692842785,-8.449622325,-18.943688955,19.7348357,0.8277531585000001,-1.7953411025000001,2.1956806904,-0.1289129915,0.101870292875,-0.0164833873145
08:24:20,-1.2199364,-1.2292825600000001,1.7285018,-0.06510816,0.10177264,-0.08379892,1.68809108,-8.4674016,-18.94525504,19.6638376,0.829811548,-1.7938076200000002,2.1844153552,-0.12893301199999999,0.101628038,-0.017152280776000003
08:24:20,-1.2104962499999998,-1.23062125,1.72416,-0.064463625,0.10141575,-0.08434225000000001,1.683339375,-8.485180875,-18.946821125,19.5928395,0.8318699375,-1.7922741375000002,2.17315002,-0.12895303249999998,0.101385783125,-0.0178211742375
08:24:20,-1.2010561,-1.23195994,1.7198182,-0.06381909,0.10105886,-0.08488558,1.67858767,-8.50296015,-18.94838721,19.5218414,0.8339283270000001,-1.790740655,2.1618846848,-0.12897305299999998,0.10114352825,-0.018490067699000003
08:24:20,-1.1916159499999999,-1.23329863,1.7154764,-0.063174555,0.10070197,-0.08542891,1.673835965,-8.520739425,-18.949953295,19.450843300000003,0.8359867165,-1.7892071725,2.1506193496000003,-0.1289930735,0.100901273375,-0.0191589611605
08:24:20,-1.1821758,-1.23463732,1.7111346,-0.06253001999999999,0.10034508,-0.08597224,1.66908426,-8.5385187,-18.951519379999997,19.379845200000002,0.838045106,-1.78767369,2.1393540144000003,-0.129013094,0.1006590185,-0.019827854622000003
08:24:20,-1.17273565,-1.2359760100000001,1.7067928,-0.061885485,0.09998819,-0.08651557,1.664332555,-8.556297975,-18.953085464999997,19.3088471,0.8401034955000001,-1.7861402075000001,2.1280886792,-0.1290331145,0.100416763625,-0.0204967480835
08:24:20,-1.1632954999999998,-1.2373147,1.702451,-0.061240949999999995,0.0996313,-0.0870589,1.65958085,-8.57407725,-18.954651549999998,19.237849,0.8421618850000001,-1.7846067250000002,2.116823344,-0.12905313499999999,0.10017450875,-0.021165641545000002
08:24:20,-1.15385535,-1.23865339,1.6981092,-0.060596415,0.09927441000000001,-0.08760223,1.6548291450000001,-8.591856525,-18.956217634999998,19.1668509,0.8442202745,-1.7830732425,2.1055580088,-0.12907315549999998,0.099932253875,-0.0218345350065
08:24:20,-1.1444151999999999,-1.2399920800000002,1.6937674,-0.05995188,0.09891752000000001,-0.08814556,1.65007744,-8.6096358,-18.95778372,19.095852800000003,0.8462786640000001,-1.78153976,2.0942926736,-0.12909317599999998,0.099689999,-0.022503428468000002
08:24:20,-1.13497505,-1.24133077,1.6894256,-0.059307345,0.09856063000000001,-0.08868889,1.6453257350000001,-8.627415075,-18.959349805,19.024854700000002,0.8483370535000001,-1.7800062775,2.0830273384,-0.1291131965,0.099447744125,-0.023172321929500004
08:24:20,-1.1255349,-1.2426694600000001,1.6850838000000001,-0.058662809999999996,0.09820374000000001,-0.08923222,1.64057403,-8.64519435,-18.96091589,18.9538566,0.850395443,-1.778472795,2.0717620032,-0.129133217,0.09920548925,-0.023841215391000002
08:24:20,-1.1160947499999998,-1.24400815,1.680742,-0.058018274999999994,0.09784685000000001,-0.08977555000000001,1.6358223250000001,-8.662973625,-18.962481975,18.8828585,0.8524538325000001,-1.7769393125000001,2.060496668,-0.1291532375,0.098963234375,-0.024510108852500004
08:24:20,-1.1066546,-1.24534684,1.6764002,-0.05737373999999999,0.09748996,-0.09031888,1.63107062,-8.6807529,-18.96404806,18.8118604,0.8545122220000001,-1.7754058300000002,2.0492313328000002,-0.12917325799999999,0.0987209795,-0.025179002314000002
08:24:20,-1.0972144499999998,-1.2466855300000002,1.6720584,-0.05672920499999999,0.09713307,-0.09086221,1.6263189150000001,-8.698532175,-18.965614145,18.7408623,0.8565706115,-1.7738723475,2.0379659976,-0.12919327849999998,0.098478724625,-0.025847895775500004
08:24:20,-1.0877743,-1.24802422,1.6677166,-0.056084669999999996,0.09677618,-0.09140554000000001,1.62156721,-8.71631145,-18.96718023,18.6698642,0.8586290010000001,-1.772338865,2.0267006624,-0.12921329899999998,0.09823646975,-0.026516789237000002
08:24:20,-1.0783341499999999,-1.24936291,1.6633748000000002,-0.055440134999999995,0.09641929,-0.09194887,1.6168155050000002,-8.734090725,-18.968746314999997,18.598866100000002,0.8606873905000001,-1.7708053825,2.0154353272,-0.1292333195,0.097994214875,-0.027185682698500004
08:24:20,-1.0688939999999998,-1.2507016,1.659033,-0.0547956,0.0960624,-0.0924922,1.6120638,-8.75187,-18.970312399999997,18.527868,0.86274578,-1.7692719000000001,2.004169992,-0.12925334,0.09775196,-0.027854576160000002
08:24:20,-1.05945385,-1.25204029,1.6546912,-0.054151065,0.09570551000000001,-0.09303553,1.6073120950000002,-8.769649274999999,-18.971878484999998,18.4568699,0.8648041695,-1.7677384175000002,1.9929046568,-0.1292733605,0.097509705125,-0.028523469621500003
08:24:20,-1.0500137,-1.2533789800000001,1.6503494,-0.05350653,0.09534862000000001,-0.09357886,1.60256039,-8.78742855,-18.973444569999998,18.3858718,0.8668625590000001,-1.766204935,1.9816393216000001,-0.12929338099999999,0.09726745025,-0.029192363083
08:24:20,-1.04057355,-1.25471767,1.6460076000000001,-0.052861994999999995,0.09499173000000001,-0.09412219,1.597808685,-8.805207825,-18.975010655,18.3148737,0.8689209485,-1.7646714525,1.9703739864,-0.12931340149999998,0.097025195375,-0.029861256544500003
08:24:20,-1.0311333999999999,-1.25605636,1.6416658,-0.05221745999999999,0.09463484,-0.09466552,1.59305698,-8.8229871,-18.97657674,18.243875600000003,0.870979338,-1.76313797,1.9591086512,-0.12933342199999998,0.0967829405,-0.030530150006
08:24:20,-1.02169325,-1.25739505,1.637324,-0.05157292499999999,0.09427795,-0.09520885,1.5883052750000002,-8.840766375,-18.978142825,18.172877500000002,0.8730377275000001,-1.7616044875,1.9478433160000002,-0.1293534425,0.096540685625,-0.031199043467500003
08:24:20,-1.0122531,-1.25873374,1.6329822,-0.05092839,0.09392106,-0.09575217999999999,1.58355357,-8.85854565,-18.97970891,18.1018794,0.875096117,-1.7600710050000001,1.9365779808,-0.129373463,0.09629843075,-0.031867936929
08:24:20,-1.00281295,-1.2600724300000001,1.6286404,-0.050283854999999995,0.09356417,-0.09629551,1.578801865,-8.876324925,-18.981274995,18.0308813,0.8771545065,-1.7585375225000002,1.9253126456,-0.1293934835,0.096056175875,-0.0325368303905
08:24:20,-0.9933728,-1.26141112,1.6242986,-0.049639319999999994,0.09320728,-0.09683884000000001,1.57405016,-8.8941042,-18.98284108,17.9598832,0.8792128960000001,-1.75700404,1.9140473104,-0.12941350399999998,0.095813921,-0.033205723852000005
08:24:20,-0.9839326499999999,-1.26274981,1.6199568,-0.04899478499999999,0.09285039,-0.09738217,1.569298455,-8.911883475,-18.984407165,17.8888851,0.8812712855,-1.7554705575,1.9027819752,-0.12943352449999998,0.095571666125,-0.033874617313500006
08:24:20,-0.9744925,-1.2640885000000002,1.615615,-0.04835025,0.0924935,-0.0979255,1.56454675,-8.92966275,-18.98597325,17.817887000000002,0.883329675,-1.753937075,1.89151664,-0.129453545,0.09532941125,-0.034543510775
08:24:20,-0.9650523499999999,-1.26542719,1.6112732,-0.047705714999999996,0.09213661000000001,-0.09846883000000001,1.559795045,-8.947442024999999,-18.987539334999997,17.746888900000002,0.8853880645000001,-1.7524035925,1.8802513048,-0.1294735655,0.095087156375,-0.0352124042365
