Timestamp,linacce_x,linacce_y,linacce_z,gyro_x,gyro_y,gyro_z,X-magnetometer,Y-magnetometer,Z-magnetometer,Yaw, worldXAccel,worldYAccel,worldZAccel,worldXgyro,worldYgyro,worldZgyro
09:59:54,1.034751,-0.388492,-1.427885,-0.617203,-0.061218,0.038123,-28.345707,-4.723644,-10.697289,70.024216,-0.44881952,-0.74020714,-0.8657012,-0.3826728,0.028234068,0.51466674
09:59:54,1.0280725,-0.380849355,-1.416096905,-0.6174693349999999,-0.06049889,0.036056225,-28.34345511,-4.71921279,-10.698895519999999,70.09204287,-0.44483667140000005,-0.7311297953,-0.8641543977499999,-0.38451636325,0.02841702386,0.5138982634
09:59:54,1.021394,-0.37320671,-1.40430881,-0.61773567,-0.059779780000000005,0.03398945,-28.34120322,-4.71478158,-10.70050204,70.15986973999999,-0.4408538228,-0.7220524506,-0.8626075955,-0.3863599265,0.02859997972,0.5131297868
09:59:54,1.0147154999999999,-0.365564065,-1.392520715,-0.6180020049999999,-0.05906067,0.031922675,-28.33895133,-4.7103503700000005,-10.70210856,70.22769661,-0.43687097420000004,-0.7129751059,-0.86106079325,-0.38820348974999996,0.028782935580000002,0.5123613102
09:59:54,1.008037,-0.35792142,-1.38073262,-0.61826834,-0.05834156,0.029855899999999998,-28.33669944,-4.7059191600000005,-10.70371508,70.29552348,-0.4328881256,-0.7038977612,-0.8595139909999999,-0.390047053,0.028965891440000002,0.5115928336
09:59:54,1.0013585,-0.350278775,-1.368944525,-0.6185346749999999,-0.05762245,0.027789124999999998,-28.33444755,-4.70148795,-10.7053216,70.36335034999999,-0.42890527700000003,-0.6948204165,-0.85796718875,-0.39189061625,0.029148847300000003,0.5108243570000001
09:59:54,0.99468,-0.34263613,-1.35715643,-0.61880101,-0.056903340000000004,0.025722349999999995,-28.33219566,-4.69705674,-10.706928119999999,70.43117722,-0.42492242840000005,-0.6857430717999999,-0.8564203865,-0.3937341795,0.029331803160000003,0.5100558804
09:59:54,0.9880015,-0.33499348500000004,-1.345368335,-0.6190673449999999,-0.05618423,0.023655574999999995,-28.32994377,-4.69262553,-10.70853464,70.49900409,-0.4209395798,-0.6766657271,-0.8548735842499999,-0.39557774274999996,0.02951475902,0.5092874038
09:59:54,0.981323,-0.32735084000000003,-1.33358024,-0.61933368,-0.05546512,0.021588799999999995,-28.32769188,-4.68819432,-10.71014116,70.56683095999999,-0.41695673120000004,-0.6675883824,-0.853326782,-0.397421306,0.02969771488,0.5085189272
09:59:54,0.9746444999999999,-0.31970819500000003,-1.321792145,-0.619600015,-0.05474601,0.019522024999999995,-28.32543999,-4.68376311,-10.71174768,70.63465783,-0.4129738826,-0.6585110377,-0.85177997975,-0.39926486925,0.02988067074,0.5077504506
09:59:54,0.967966,-0.31206555,-1.31000405,-0.6198663499999999,-0.0540269,0.017455249999999995,-28.3231881,-4.6793319,-10.7133542,70.7024847,-0.40899103400000003,-0.649433693,-0.8502331774999999,-0.4011084325,0.0300636266,0.506981974
09:59:54,0.9612875,-0.304422905,-1.298215955,-0.620132685,-0.05330779,0.015388474999999995,-28.32093621,-4.67490069,-10.714960719999999,70.77031156999999,-0.40500818540000005,-0.6403563483,-0.8486863752499999,-0.40295199574999996,0.03024658246,0.5062134974
09:59:54,0.9546089999999999,-0.29678026,-1.28642786,-0.6203990199999999,-0.05258868,0.013321699999999992,-28.31868432,-4.67046948,-10.71656724,70.83813844,-0.4010253368,-0.6312790036,-0.847139573,-0.40479555899999997,0.03042953832,0.5054450208
09:59:54,0.9479305,-0.289137615,-1.274639765,-0.620665355,-0.051869570000000004,0.011254924999999992,-28.316432430000003,-4.6660382700000005,-10.718173759999999,70.90596531,-0.39704248820000004,-0.6222016589,-0.84559277075,-0.40663912225,0.03061249418,0.5046765442
09:59:54,0.941252,-0.28149497,-1.26285167,-0.6209316899999999,-0.05115046,0.009188149999999992,-28.314180540000002,-4.661607060000001,-10.71978028,70.97379217999999,-0.3930596396,-0.6131243142,-0.8440459684999999,-0.4084826855,0.030795450040000002,0.5039080676000001
09:59:54,0.9345735,-0.273852325,-1.251063575,-0.621198025,-0.05043135,0.007121374999999992,-28.311928650000002,-4.65717585,-10.7213868,71.04161905,-0.38907679100000003,-0.6040469694999999,-0.84249916625,-0.41032624875,0.030978405900000002,0.503139591
09:59:54,0.9278949999999999,-0.26620968,-1.23927548,-0.6214643599999999,-0.049712240000000005,0.005054599999999992,-28.309676760000002,-4.65274464,-10.722993319999999,71.10944592,-0.38509394240000006,-0.5949696248,-0.840952364,-0.41216981199999997,0.031161361760000002,0.5023711144
09:59:54,0.9212165,-0.258567035,-1.227487385,-0.621730695,-0.04899313,0.0029878249999999926,-28.307424870000002,-4.64831343,-10.72459984,71.17727278999999,-0.3811110938,-0.5858922800999999,-0.8394055617499999,-0.41401337525,0.03134431762,0.5016026378
09:59:54,0.914538,-0.25092439,-1.21569929,-0.62199703,-0.04827402,0.0009210499999999927,-28.305172980000002,-4.64388222,-10.726206359999999,71.24509966,-0.37712824520000005,-0.5768149354,-0.8378587595,-0.4158569385,0.03152727348,0.5008341612
09:59:54,0.9078594999999999,-0.243281745,-1.203911195,-0.6222633649999999,-0.04755491,-0.0011457250000000072,-28.30292109,-4.63945101,-10.72781288,71.31292653,-0.3731453966,-0.5677375907,-0.83631195725,-0.41770050174999995,0.03171022934,0.5000656846
09:59:54,0.901181,-0.2356391,-1.1921231,-0.6225297,-0.0468358,-0.003212500000000007,-28.3006692,-4.6350198,-10.7294194,71.3807534,-0.36916254800000003,-0.558660246,-0.8347651549999999,-0.41954406499999997,0.0318931852,0.499297208
09:59:54,0.8945025,-0.22799645500000001,-1.180335005,-0.6227960349999999,-0.04611669,-0.005279275000000007,-28.29841731,-4.63058859,-10.73102592,71.44858027,-0.36517969940000006,-0.5495829013,-0.83321835275,-0.42138762825,0.03207614106,0.4985287314
09:59:54,0.887824,-0.22035381,-1.16854691,-0.62306237,-0.04539758,-0.007346050000000007,-28.29616542,-4.62615738,-10.73263244,71.51640714,-0.3611968508,-0.5405055566,-0.8316715505,-0.4232311915,0.03225909692,0.4977602548
09:59:54,0.8811454999999999,-0.212711165,-1.156758815,-0.6233287049999999,-0.04467847,-0.009412825000000007,-28.29391353,-4.6217261700000005,-10.734238959999999,71.58423401,-0.35721400220000005,-0.5314282119,-0.8301247482499999,-0.42507475475,0.03244205278,0.4969917782
09:59:54,0.874467,-0.20506852,-1.14497072,-0.62359504,-0.04395936,-0.011479600000000013,-28.29166164,-4.61729496,-10.73584548,71.65206088,-0.3532311536,-0.5223508672,-0.828577946,-0.42691831799999996,0.03262500864,0.4962233016
09:59:54,0.8677885,-0.197425875,-1.133182625,-0.6238613749999999,-0.04324025,-0.013546375000000013,-28.28940975,-4.61286375,-10.737452,71.71988775,-0.34924830500000004,-0.5132735225,-0.82703114375,-0.42876188125,0.0328079645,0.495454825
09:59:54,0.8611099999999999,-0.18978323,-1.1213945300000001,-0.62412771,-0.04252114,-0.015613150000000013,-28.28715786,-4.60843254,-10.73905852,71.78771462,-0.34526545640000006,-0.5041961777999999,-0.8254843414999999,-0.4306054445,0.03299092036,0.49468634840000003
09:59:54,0.8544315,-0.182140585,-1.1096064350000001,-0.624394045,-0.041802030000000004,-0.017679925000000013,-28.28490597,-4.60400133,-10.74066504,71.85554149,-0.3412826078,-0.4951188331,-0.8239375392499999,-0.43244900775,0.03317387622,0.4939178718
09:59:54,0.847753,-0.17449794000000002,-1.0978183400000001,-0.6246603799999999,-0.04108292,-0.019746700000000013,-28.28265408,-4.59957012,-10.742271559999999,71.92336836,-0.3372997592,-0.4860414884,-0.822390737,-0.43429257099999996,0.03335683208,0.4931493952
09:59:54,0.8410745,-0.16685529500000001,-1.0860302450000001,-0.624926715,-0.04036381,-0.021813475000000013,-28.28040219,-4.59513891,-10.74387808,71.99119523,-0.3333169106,-0.4769641437,-0.82084393475,-0.43613613425,0.03353978794,0.4923809186
09:59:54,0.8343959999999999,-0.15921265,-1.0742421500000001,-0.6251930499999999,-0.039644700000000005,-0.023880250000000013,-28.2781503,-4.5907077,-10.7454846,72.05902209999999,-0.32933406200000004,-0.46788679899999996,-0.8192971324999999,-0.4379796975,0.0337227438,0.491612442
09:59:54,0.8277175,-0.151570005,-1.0624540550000001,-0.625459385,-0.038925589999999996,-0.025947025000000006,-28.27589841,-4.58627649,-10.74709112,72.12684897,-0.32535121340000006,-0.4588094543,-0.81775033025,-0.43982326075,0.033905699660000004,0.4908439654
09:59:54,0.821039,-0.14392736,-1.0506659600000001,-0.6257257199999999,-0.03820648,-0.028013800000000012,-28.27364652,-4.5818452800000005,-10.74869764,72.19467584,-0.32136836480000003,-0.4497321096,-0.816203528,-0.441666824,0.034088655520000004,0.4900754888
09:59:54,0.8143604999999999,-0.136284715,-1.0388778650000001,-0.625992055,-0.037487370000000006,-0.03008057500000002,-28.27139463,-4.577414070000001,-10.750304159999999,72.26250270999999,-0.3173855162,-0.4406547649,-0.8146567257499999,-0.44351038724999997,0.034271611380000004,0.4893070122
09:59:54,0.807682,-0.12864207,-1.0270897700000001,-0.6262583899999999,-0.03676826,-0.03214735000000001,-28.26914274,-4.57298286,-10.75191068,72.33032958,-0.3134026676,-0.4315774202,-0.8131099235,-0.4453539505,0.034454567240000004,0.4885385356
09:59:54,0.8010035,-0.120999425,-1.0153016750000001,-0.626524725,-0.03604915,-0.03421412500000002,-28.26689085,-4.56855165,-10.7535172,72.39815645,-0.30941981900000004,-0.42250007549999996,-0.81156312125,-0.44719751375,0.034637523100000005,0.48777005900000003
09:59:54,0.794325,-0.11335677999999999,-1.0035135800000001,-0.62679106,-0.03533004,-0.03628090000000001,-28.26463896,-4.56412044,-10.75512372,72.46598331999999,-0.30543697040000006,-0.41342273079999997,-0.8100163189999999,-0.44904107699999996,0.034820478960000005,0.4870015824
09:59:54,0.7876464999999999,-0.10571413499999999,-0.9917254850000001,-0.6270573949999999,-0.03461093,-0.03834767500000002,-28.26238707,-4.55968923,-10.75673024,72.53381019,-0.30145412180000003,-0.4043453861,-0.80846951675,-0.45088464024999997,0.03500343482,0.4862331058
09:59:54,0.7809679999999999,-0.09807148999999998,-0.9799373900000001,-0.62732373,-0.03389182,-0.04041445000000001,-28.260135180000002,-4.55525802,-10.758336759999999,72.60163706,-0.2974712732,-0.3952680414,-0.8069227145,-0.4527282035,0.03518639068,0.4854646292
09:59:54,0.7742895,-0.09042884499999998,-0.9681492950000001,-0.6275900649999999,-0.03317271,-0.04248122500000002,-28.257883290000002,-4.55082681,-10.75994328,72.66946392999999,-0.2934884246,-0.3861906967,-0.8053759122499999,-0.45457176675,0.03536934654,0.4846961526
09:59:54,0.7676109999999999,-0.08278619999999998,-0.9563612000000001,-0.6278564,-0.0324536,-0.04454800000000001,-28.255631400000002,-4.5463956,-10.7615498,72.7372908,-0.28950557600000004,-0.37711335199999996,-0.80382911,-0.45641533,0.0355523024,0.48392767600000003
09:59:54,0.7609325,-0.07514355500000003,-0.9445731050000001,-0.6281227349999999,-0.031734490000000004,-0.04661477500000002,-28.253379510000002,-4.54196439,-10.76315632,72.80511767,-0.28552272740000006,-0.36803600729999997,-0.80228230775,-0.45825889325,0.03573525826,0.4831591994
09:59:54,0.754254,-0.06750091000000003,-0.9327850100000001,-0.62838907,-0.031015380000000002,-0.04868155000000001,-28.251127620000002,-4.5375331800000005,-10.76476284,72.87294453999999,-0.28153987880000003,-0.3589586626,-0.8007355054999999,-0.4601024565,0.03591821412,0.4823907228
09:59:54,0.7475755,-0.05985826500000002,-0.920996915,-0.628655405,-0.03029627,-0.05074832500000002,-28.24887573,-4.53310197,-10.766369359999999,72.94077141,-0.2775570302,-0.3498813179,-0.79918870325,-0.46194601975,0.03610116998,0.4816222462
09:59:54,0.7408969999999999,-0.05221562000000002,-0.90920882,-0.62892174,-0.029577159999999998,-0.05281510000000001,-28.24662384,-4.52867076,-10.76797588,73.00859828,-0.2735741816,-0.3408039732,-0.797641901,-0.463789583,0.03628412584,0.48085376960000004
09:59:54,0.7342184999999999,-0.044572975000000015,-0.897420725,-0.629188075,-0.028858050000000003,-0.05488187500000002,-28.24437195,-4.52423955,-10.769582399999999,73.07642514999999,-0.26959133300000004,-0.3317266285,-0.79609509875,-0.46563314624999996,0.0364670817,0.480085293
09:59:54,0.72754,-0.03693033000000001,-0.88563263,-0.6294544099999999,-0.02813894,-0.05694865000000001,-28.24212006,-4.51980834,-10.77118892,73.14425202,-0.26560848440000007,-0.32264928379999996,-0.7945482964999999,-0.4674767095,0.03665003756,0.4793168164
09:59:54,0.7208614999999999,-0.029287685000000008,-0.873844535,-0.629720745,-0.02741983,-0.05901542500000002,-28.23986817,-4.51537713,-10.77279544,73.21207889,-0.26162563580000003,-0.3135719391,-0.79300149425,-0.46932027275,0.03683299342,0.4785483398
09:59:54,0.714183,-0.021645040000000004,-0.86205644,-0.6299870799999999,-0.026700720000000004,-0.061082200000000024,-28.23761628,-4.51094592,-10.774401959999999,73.27990575999999,-0.2576427872,-0.3044945944,-0.791454692,-0.471163836,0.03701594928,0.4777798632
09:59:54,0.7075045,-0.014002395,-0.850268345,-0.630253415,-0.025981610000000002,-0.06314897500000002,-28.23536439,-4.50651471,-10.77600848,73.34773263,-0.2536599386,-0.2954172497,-0.7899078897499999,-0.47300739925,0.03719890514,0.4770113866
09:59:54,0.700826,-0.006359749999999997,-0.83848025,-0.6305197499999999,-0.0252625,-0.06521575000000002,-28.2331125,-4.5020835,-10.777614999999999,73.4155595,-0.24967709000000002,-0.286339905,-0.7883610875,-0.4748509625,0.037381861,0.47624291
09:59:54,0.6941474999999999,0.0012828950000000061,-0.826692155,-0.630786085,-0.024543389999999998,-0.06728252500000001,-28.23086061,-4.49765229,-10.77922152,73.48338636999999,-0.24569424140000004,-0.27726256029999996,-0.78681428525,-0.47669452575,0.03756481686,0.4754744334
09:59:54,0.6874689999999999,0.00892554000000001,-0.81490406,-0.63105242,-0.023824280000000003,-0.06934930000000003,-28.22860872,-4.49322108,-10.78082804,73.55121324,-0.24171139280000004,-0.26818521559999997,-0.7852674829999999,-0.478538089,0.03774777272,0.4747059568
09:59:54,0.6807905,0.016568185000000013,-0.803115965,-0.631318755,-0.02310517,-0.07141607500000002,-28.22635683,-4.48878987,-10.782434559999999,73.61904011,-0.23772854420000003,-0.2591078709,-0.78372068075,-0.48038165224999996,0.03793072858,0.4739374802
09:59:54,0.6741119999999999,0.024210830000000017,-0.79132787,-0.63158509,-0.02238606,-0.07348285000000002,-28.22410494,-4.48435866,-10.78404108,73.68686697999999,-0.23374569560000003,-0.2500305262,-0.7821738785,-0.48222521549999997,0.038113684440000004,0.4731690036
09:59:54,0.6674335,0.03185347500000002,-0.779539775,-0.6318514249999999,-0.021666949999999997,-0.07554962500000001,-28.22185305,-4.47992745,-10.785647599999999,73.75469385,-0.22976284700000002,-0.2409531815,-0.7806270762499999,-0.48406877875,0.038296640300000004,0.472400527
09:59:54,0.660755,0.03949611999999997,-0.76775168,-0.63211776,-0.020947840000000002,-0.07761640000000003,-28.21960116,-4.47549624,-10.78725412,73.82252072,-0.22577999840000001,-0.2318758368,-0.779080274,-0.485912342,0.038479596160000004,0.4716320504
09:59:54,0.6540765,0.04713876499999997,-0.755963585,-0.6323840949999999,-0.02022873,-0.07968317500000002,-28.21734927,-4.47106503,-10.78886064,73.89034758999999,-0.22179714980000004,-0.22279849210000002,-0.77753347175,-0.48775590525,0.038662552020000004,0.4708635738
09:59:54,0.6473979999999999,0.054781409999999975,-0.74417549,-0.63265043,-0.01950962,-0.08174995000000002,-28.21509738,-4.46663382,-10.790467159999999,73.95817446,-0.21781430120000003,-0.21372114740000003,-0.7759866695,-0.4895994685,0.038845507880000005,0.4700950972
09:59:54,0.6407194999999999,0.06242405499999998,-0.732387395,-0.6329167649999999,-0.018790510000000003,-0.08381672500000001,-28.21284549,-4.46220261,-10.79207368,74.02600133,-0.21383145260000003,-0.20464380269999993,-0.7744398672499999,-0.49144303175,0.039028463740000005,0.4693266206
09:59:54,0.634041,0.07006669999999998,-0.7205993,-0.6331831,-0.0180714,-0.08588350000000003,-28.2105936,-4.4577714,-10.793680199999999,74.09382819999999,-0.20984860400000002,-0.19556645799999994,-0.772893065,-0.493286595,0.039211419600000005,0.468558144
09:59:54,0.6273624999999999,0.07770934499999999,-0.708811205,-0.633449435,-0.01735229,-0.08795027500000002,-28.20834171,-4.4533401900000005,-10.79528672,74.16165507,-0.20586575540000002,-0.18648911329999995,-0.77134626275,-0.49513015825,0.039394375460000006,0.4677896674
09:59:54,0.620684,0.08535198999999999,-0.6970231100000001,-0.63371577,-0.016633179999999997,-0.09001705000000002,-28.20608982,-4.44890898,-10.79689324,74.22948194,-0.20188290680000004,-0.17741176859999996,-0.7697994605,-0.49697372149999997,0.039577331320000006,0.4670211908
09:59:54,0.6140055,0.09299463499999999,-0.6852350150000001,-0.633982105,-0.015914070000000002,-0.09208382500000004,-28.203837930000002,-4.44447777,-10.79849976,74.29730881,-0.1979000582,-0.16833442389999997,-0.76825265825,-0.49881728475,0.039760287180000006,0.46625271420000003
09:59:54,0.607327,0.10063728,-0.6734469200000001,-0.6342484399999999,-0.01519496,-0.09415060000000003,-28.201586040000002,-4.44004656,-10.80010628,74.36513568,-0.19391720960000003,-0.15925707919999998,-0.766705856,-0.500660848,0.03994324304000001,0.4654842376
09:59:54,0.6006484999999999,0.108279925,-0.6616588250000001,-0.634514775,-0.014475849999999998,-0.09621737500000002,-28.199334150000002,-4.43561535,-10.801712799999999,74.43296255,-0.18993436100000005,-0.1501797345,-0.7651590537499999,-0.50250441125,0.04012619890000001,0.464715761
09:59:54,0.5939699999999999,0.11592257,-0.6498707300000001,-0.6347811099999999,-0.013756740000000003,-0.09828415000000004,-28.197082260000002,-4.43118414,-10.80331932,74.50078942,-0.18595151240000002,-0.1411023898,-0.7636122515,-0.5043479745,0.04030915476000001,0.4639472844
09:59:54,0.5872915,0.123565215,-0.6380826350000001,-0.635047445,-0.013037630000000001,-0.10035092500000004,-28.194830370000002,-4.42675293,-10.80492584,74.56861629,-0.18196866380000004,-0.13202504510000002,-0.76206544925,-0.50619153775,0.04049211062000001,0.4631788078
09:59:54,0.5806129999999999,0.13120786,-0.6262945400000001,-0.6353137799999999,-0.01231852,-0.10241770000000003,-28.19257848,-4.42232172,-10.80653236,74.63644316,-0.1779858152,-0.12294770040000003,-0.7605186469999999,-0.5080351009999999,0.04067506648,0.4624103312
09:59:54,0.5739345,0.138850505,-0.6145064450000001,-0.635580115,-0.011599409999999998,-0.10448447500000002,-28.19032659,-4.41789051,-10.80813888,74.70427003,-0.17400296660000003,-0.11387035570000004,-0.75897184475,-0.50987866425,0.04085802234,0.4616418546
09:59:54,0.567256,0.14649315000000002,-0.6027183500000001,-0.63584645,-0.010880300000000002,-0.10655125000000004,-28.1880747,-4.4134593,-10.809745399999999,74.7720969,-0.17002011800000005,-0.10479301099999994,-0.7574250425,-0.5117222275,0.0410409782,0.460873378
09:59:54,0.5605775,0.15413579500000002,-0.5909302550000001,-0.636112785,-0.01016119,-0.10861802500000003,-28.18582281,-4.40902809,-10.81135192,74.83992377,-0.16603726940000002,-0.09571566629999995,-0.7558782402499999,-0.51356579075,0.04122393406,0.4601049014
09:59:54,0.5538989999999999,0.16177844000000002,-0.5791421600000001,-0.63637912,-0.009442079999999999,-0.11068480000000003,-28.18357092,-4.40459688,-10.81295844,74.90775064,-0.16205442080000004,-0.08663832159999996,-0.754331438,-0.515409354,0.04140688992,0.45933642480000003
09:59:54,0.5472204999999999,0.16942108500000003,-0.5673540650000001,-0.6366454549999999,-0.008722970000000003,-0.11275157500000002,-28.18131903,-4.40016567,-10.81456496,74.97557751,-0.1580715722,-0.07756097689999997,-0.75278463575,-0.51725291725,0.04158984578,0.4585679482
09:59:54,0.540542,0.17706373000000003,-0.5555659700000001,-0.63691179,-0.008003860000000002,-0.11481835000000004,-28.17906714,-4.39573446,-10.81617148,75.04340438,-0.15408872360000003,-0.06848363219999998,-0.7512378335,-0.5190964805,0.04177280164,0.4577994716
09:59:54,0.5338634999999999,0.18470637500000003,-0.5437778750000001,-0.6371781249999999,-0.0072847499999999996,-0.11688512500000003,-28.17681525,-4.39130325,-10.817777999999999,75.11123125,-0.15010587500000006,-0.05940628749999999,-0.74969103125,-0.52094004375,0.0419557575,0.457030995
09:59:54,0.5271849999999999,0.19234902000000004,-0.5319897800000001,-0.63744446,-0.006565639999999998,-0.11895190000000003,-28.17456336,-4.38687204,-10.81938452,75.17905812,-0.14612302640000002,-0.0503289428,-0.748144229,-0.522783607,0.04213871336,0.4562625184
09:59:54,0.5205065,0.19999166500000004,-0.5202016850000001,-0.6377107949999999,-0.0058465300000000026,-0.12101867500000002,-28.17231147,-4.38244083,-10.82099104,75.24688499,-0.14214017780000004,-0.04125159810000001,-0.74659742675,-0.52462717025,0.042321669220000004,0.45549404179999997
09:59:54,0.513828,0.20763431000000004,-0.5084135900000001,-0.63797713,-0.005127420000000001,-0.12308545000000004,-28.17005958,-4.37800962,-10.82259756,75.31471186,-0.1381573292,-0.03217425340000002,-0.7450506244999999,-0.5264707335,0.042504625080000004,0.4547255652
09:59:54,0.5071494999999999,0.21527695500000005,-0.4966254950000001,-0.638243465,-0.004408309999999999,-0.12515222500000003,-28.16780769,-4.37357841,-10.82420408,75.38253873,-0.13417448060000003,-0.02309690870000003,-0.74350382225,-0.52831429675,0.042687580940000004,0.4539570886
09:59:54,0.5004709999999999,0.22291960000000005,-0.4848374000000001,-0.6385098,-0.0036891999999999966,-0.12721900000000003,-28.1655558,-4.3691472000000005,-10.825810599999999,75.4503656,-0.13019163200000006,-0.014019563999999929,-0.74195702,-0.53015786,0.042870536800000004,0.453188612
09:59:54,0.49379249999999997,0.23056224499999994,-0.4730493050000001,-0.638776135,-0.0029700900000000016,-0.12928577500000005,-28.16330391,-4.36471599,-10.82741712,75.51819247,-0.12620878340000002,-0.004942219299999939,-0.74041021775,-0.53200142325,0.043053492660000005,0.4524201354
09:59:54,0.48711399999999994,0.23820488999999995,-0.4612612100000001,-0.6390424699999999,-0.0022509799999999996,-0.13135255000000004,-28.16105202,-4.36028478,-10.829023639999999,75.58601933999999,-0.12222593480000005,0.00413512540000005,-0.7388634155,-0.5338449865,0.043236448520000005,0.4516516588
09:59:54,0.4804354999999999,0.24584753499999995,-0.4494731150000001,-0.639308805,-0.0015318699999999977,-0.13341932500000003,-28.15880013,-4.35585357,-10.83063016,75.65384621,-0.11824308620000001,0.01321247010000004,-0.73731661325,-0.53568854975,0.043419404380000005,0.4508831822
09:59:54,0.473757,0.25349017999999995,-0.4376850200000001,-0.6395751399999999,-0.0008127600000000026,-0.13548610000000003,-28.15654824,-4.35142236,-10.83223668,75.72167308,-0.11426023760000004,0.02228981480000003,-0.7357698109999999,-0.537532113,0.043602360240000006,0.4501147056
09:59:54,0.46707849999999995,0.26113282499999996,-0.425896925,-0.639841475,-9.365000000000068e-05,-0.13755287500000005,-28.15429635,-4.34699115,-10.833843199999999,75.78949994999999,-0.110277389,0.03136715950000002,-0.73422300875,-0.5393756762499999,0.043785316100000006,0.449346229
09:59:54,0.4603999999999999,0.26877546999999996,-0.41410883,-0.6401078099999999,0.0006254600000000013,-0.13961965000000004,-28.15204446,-4.34255994,-10.83544972,75.85732682,-0.10629454040000003,0.04044450420000001,-0.7326762065,-0.5412192395,0.04396827196,0.4485777524
09:59:54,0.4537214999999999,0.27641811499999996,-0.402320735,-0.640374145,0.0013445699999999963,-0.14168642500000003,-28.14979257,-4.33812873,-10.837056239999999,75.92515369,-0.10231169180000005,0.0495218489,-0.73112940425,-0.54306280275,0.04415122782,0.4478092758
09:59:54,0.44704299999999997,0.28406075999999997,-0.39053264,-0.64064048,0.0020636800000000052,-0.14375320000000003,-28.147540680000002,-4.33369752,-10.83866276,75.99298055999999,-0.09832884320000002,0.05859919359999999,-0.729582602,-0.544906366,0.04433418368,0.4470407992
09:59:54,0.44036449999999994,0.29170340499999997,-0.378744545,-0.640906815,0.0027827900000000003,-0.14581997500000005,-28.145288790000002,-4.32926631,-10.84026928,76.06080743,-0.09434599460000004,0.06767653829999998,-0.72803579975,-0.54674992925,0.04451713954,0.4462723226
09:59:54,0.4336859999999999,0.29934605,-0.36695645,-0.64117315,0.0035018999999999953,-0.14788675000000004,-28.143036900000002,-4.3248351,-10.841875799999999,76.1286343,-0.090363146,0.07675388299999997,-0.7264889975,-0.5485934925,0.0447000954,0.445503846
09:59:54,0.4270075,0.306988695,-0.355168355,-0.6414394849999999,0.004221010000000004,-0.14995352500000003,-28.140785010000002,-4.32040389,-10.84348232,76.19646116999999,-0.08638029740000003,0.08583122770000007,-0.7249421952499999,-0.55043705575,0.04488305126,0.4447353694
09:59:54,0.42032899999999995,0.31463134,-0.34338026,-0.64170582,0.004940119999999999,-0.15202030000000002,-28.13853312,-4.31597268,-10.845088839999999,76.26428804,-0.08239744880000005,0.09490857240000006,-0.723395393,-0.552280619,0.04506600712,0.4439668928
09:59:54,0.4136504999999999,0.322273985,-0.331592165,-0.6419721549999999,0.005659229999999994,-0.15408707500000005,-28.13628123,-4.31154147,-10.84669536,76.33211491,-0.07841460020000002,0.10398591710000005,-0.72184859075,-0.55412418225,0.04524896298,0.4431984162
09:59:54,0.4069719999999999,0.32991663,-0.31980407,-0.64223849,0.006378340000000003,-0.15615385000000004,-28.13402934,-4.30711026,-10.84830188,76.39994177999999,-0.07443175160000004,0.11306326180000004,-0.7203017885,-0.5559677455,0.04543191884,0.4424299396
09:59:54,0.40029349999999997,0.337559275,-0.308015975,-0.642504825,0.007097449999999998,-0.15822062500000003,-28.13177745,-4.30267905,-10.849908399999999,76.46776865,-0.07044890300000001,0.12214060650000003,-0.71875498625,-0.55781130875,0.0456148747,0.441661463
09:59:54,0.39361499999999994,0.34520192,-0.29622788,-0.64277116,0.007816559999999993,-0.16028740000000005,-28.12952556,-4.29824784,-10.85151492,76.53559552,-0.06646605440000003,0.13121795120000002,-0.717208184,-0.559654872,0.04579783056,0.44089298639999996
09:59:54,0.3869364999999999,0.352844565,-0.284439785,-0.643037495,0.008535670000000002,-0.16235417500000004,-28.12727367,-4.29381663,-10.853121439999999,76.60342238999999,-0.06248320580000005,0.1402952959,-0.7156613817499999,-0.56149843525,0.04598078642,0.4401245098
09:59:54,0.380258,0.36048721,-0.27265169,-0.64330383,0.009254779999999997,-0.16442095000000004,-28.12502178,-4.28938542,-10.85472796,76.67124926,-0.05850035720000002,0.1493726406,-0.7141145795,-0.5633419985,0.04616374228,0.4393560332
09:59:54,0.37357949999999995,0.368129855,-0.260863595,-0.643570165,0.009973890000000006,-0.16648772500000003,-28.12276989,-4.28495421,-10.85633448,76.73907613,-0.05451750860000004,0.15844998529999998,-0.71256777725,-0.56518556175,0.04634669814,0.4385875566
09:59:54,0.3669009999999999,0.3757725,-0.2490755,-0.6438364999999999,0.010693000000000001,-0.16855450000000005,-28.120518,-4.280523,-10.857941,76.806903,-0.05053466000000001,0.16752732999999997,-0.711020975,-0.567029125,0.046529654000000004,0.43781908
09:59:54,0.3602224999999999,0.383415145,-0.237287405,-0.644102835,0.011412109999999996,-0.17062127500000004,-28.11826611,-4.27609179,-10.85954752,76.87472987,-0.04655181140000003,0.17660467469999996,-0.70947417275,-0.56887268825,0.046712609860000004,0.4370506034
09:59:54,0.35354399999999997,0.39105779,-0.22549931,-0.6443691699999999,0.012131220000000005,-0.17268805000000004,-28.11601422,-4.27166058,-10.861154039999999,76.94255674,-0.042568962800000054,0.18568201940000006,-0.7079273705,-0.5707162514999999,0.046895565720000004,0.4362821268
09:59:54,0.34686549999999994,0.398700435,-0.213711215,-0.644635505,0.01285033,-0.17475482500000003,-28.11376233,-4.26722937,-10.86276056,77.01038360999999,-0.03858611420000002,0.19475936410000005,-0.70638056825,-0.57255981475,0.047078521580000005,0.4355136502
09:59:54,0.3401869999999999,0.40634308,-0.20192312,-0.64490184,0.013569439999999995,-0.17682160000000005,-28.11151044,-4.26279816,-10.86436708,77.07821048,-0.034603265600000044,0.20383670880000004,-0.704833766,-0.574403378,0.047261477440000005,0.4347451736
09:59:54,0.3335085,0.413985725,-0.190135025,-0.645168175,0.014288550000000004,-0.17888837500000004,-28.10925855,-4.25836695,-10.8659736,77.14603735,-0.03062041700000001,0.21291405350000003,-0.70328696375,-0.57624694125,0.047444433300000005,0.43397669699999997
09:59:54,0.32682999999999995,0.42162837000000003,-0.17834693000000001,-0.64543451,0.015007659999999999,-0.18095515000000004,-28.10700666,-4.25393574,-10.86758012,77.21386422,-0.026637568400000033,0.22199139820000002,-0.7017401615,-0.5780905045,0.047627389160000005,0.4332082204
09:59:54,0.3201514999999999,0.42927101500000003,-0.16655883500000002,-0.645700845,0.015726769999999994,-0.18302192500000003,-28.10475477,-4.24950453,-10.869186639999999,77.28169109,-0.022654719800000056,0.2310687429,-0.70019335925,-0.57993406775,0.047810345020000006,0.4324397438
09:59:54,0.3134729999999999,0.43691366000000004,-0.15477074000000002,-0.64596718,0.016445880000000003,-0.18508870000000005,-28.10250288,-4.24507332,-10.87079316,77.34951796,-0.018671871200000023,0.2401460876,-0.698646557,-0.581777631,0.047993300880000006,0.4316712672
09:59:54,0.30679449999999997,0.44455630500000004,-0.14298264500000002,-0.646233515,0.017164989999999998,-0.18715547500000004,-28.10025099,-4.24064211,-10.87239968,77.41734483,-0.014689022600000046,0.2492234323,-0.69709975475,-0.58362119425,0.048176256740000006,0.43090279060000003
09:59:54,0.30011599999999994,0.45219895000000004,-0.13119455000000002,-0.64649985,0.017884100000000007,-0.18922225000000004,-28.0979991,-4.2362109,-10.8740062,77.4851717,-0.010706174000000013,0.258300777,-0.6955529524999999,-0.5854647575,0.04835921260000001,0.430134314
09:59:54,0.2934374999999999,0.45984159500000005,-0.11940645500000002,-0.6467661849999999,0.018603210000000002,-0.19128902500000003,-28.09574721,-4.23177969,-10.87561272,77.55299857,-0.006723325400000035,0.2673781217000001,-0.69400615025,-0.5873083207500001,0.04854216846000001,0.4293658374
09:59:54,0.286759,0.46748423999999994,-0.10761836000000002,-0.64703252,0.019322319999999997,-0.19335580000000005,-28.09349532,-4.22734848,-10.877219239999999,77.62082544,-0.0027404768000000024,0.27645546639999996,-0.692459348,-0.5891518840000001,0.04872512432000001,0.4285973608
09:59:54,0.28008049999999995,0.47512688499999994,-0.09583026500000003,-0.647298855,0.020041430000000006,-0.19542257500000004,-28.091243430000002,-4.22291727,-10.87882576,77.68865231,0.001242371799999975,0.28553281110000006,-0.69091254575,-0.59099544725,0.04890808018000001,0.4278288842
09:59:54,0.2734019999999999,0.48276952999999995,-0.08404217000000003,-0.64756519,0.02076054,-0.19748935000000004,-28.088991540000002,-4.21848606,-10.880432279999999,77.75647918,0.0052252203999999525,0.29461015579999994,-0.6893657435,-0.5928390105,0.04909103604000001,0.42706040759999997
09:59:54,0.2667234999999999,0.49041217499999995,-0.07225407500000003,-0.647831525,0.021479649999999996,-0.19955612500000006,-28.086739650000002,-4.21405485,-10.8820388,77.82430605,0.009208068999999985,0.30368750050000004,-0.68781894125,-0.59468257375,0.04927399190000001,0.426291931
09:59:54,0.26004499999999997,0.49805481999999995,-0.06046598000000003,-0.64809786,0.022198760000000005,-0.20162290000000005,-28.084487760000002,-4.20962364,-10.88364532,77.89213292,0.013190917599999963,0.3127648451999999,-0.686272139,-0.596526137,0.04945694776000001,0.4255234544
09:59:54,0.25336649999999994,0.5056974649999999,-0.04867788500000003,-0.648364195,0.02291787,-0.20368967500000004,-28.08223587,-4.20519243,-10.885251839999999,77.95995979,0.017173766199999996,0.3218421899,-0.68472533675,-0.59836970025,0.04963990362000001,0.4247549778
09:59:54,0.2466879999999999,0.5133401099999999,-0.03688979000000003,-0.6486305299999999,0.023636979999999995,-0.20575645000000004,-28.07998398,-4.20076122,-10.88685836,78.02778666,0.021156614799999973,0.3309195346000001,-0.6831785345,-0.6002132635,0.04982285948000001,0.4239865012
09:59:54,0.24000949999999988,0.5209827549999999,-0.025101695000000035,-0.648896865,0.024356090000000004,-0.20782322500000006,-28.07773209,-4.1963300100000005,-10.888464879999999,78.09561353,0.02513946339999995,0.3399968793,-0.6816317322500001,-0.6020568267499999,0.05000581534000001,0.4232180246
09:59:54,0.23333099999999996,0.5286253999999999,-0.013313600000000037,-0.6491631999999999,0.0250752,-0.20989000000000005,-28.0754802,-4.1918988,-10.8900714,78.1634404,0.029122311999999984,0.3490742240000001,-0.68008493,-0.60390039,0.05018877120000001,0.422449548
09:59:54,0.22665249999999992,0.5362680449999999,-0.001525505000000038,-0.649429535,0.025794309999999994,-0.21195677500000007,-28.07322831,-4.18746759,-10.89167792,78.23126727,0.03310516059999996,0.3581515687,-0.67853812775,-0.60574395325,0.05037172706000001,0.4216810714
09:59:54,0.2199739999999999,0.5439106899999999,0.01026258999999996,-0.64969587,0.026513420000000003,-0.21402355000000003,-28.07097642,-4.18303638,-10.893284439999999,78.29909414,0.037088009199999994,0.3672289134000001,-0.6769913255,-0.6075875165,0.05055468292,0.4209125948
09:59:54,0.21329549999999997,0.5515533349999999,0.02205068499999996,-0.649962205,0.027232529999999998,-0.21609032500000006,-28.06872453,-4.17860517,-10.89489096,78.36692101,0.04107085779999997,0.37630625809999996,-0.67544452325,-0.60943107975,0.050737638780000004,0.42014411819999997
09:59:54,0.20661699999999994,0.5591959799999999,0.03383877999999996,-0.65022854,0.027951640000000007,-0.21815710000000002,-28.06647264,-4.17417396,-10.896497479999999,78.43474788,0.04505370639999995,0.38538360280000006,-0.673897721,-0.611274643,0.050920594640000004,0.4193756416
09:59:54,0.1999384999999999,0.5668386249999999,0.045626874999999956,-0.650494875,0.028670750000000002,-0.22022387500000004,-28.06422075,-4.16974275,-10.898104,78.50257475,0.04903655499999998,0.39446094749999994,-0.67235091875,-0.61311820625,0.051103550500000004,0.418607165
09:59:54,0.19325999999999988,0.5744812699999999,0.057414969999999954,-0.65076121,0.029389859999999997,-0.22229065000000006,-28.06196886,-4.16531154,-10.89971052,78.57040162,0.053019403600000015,0.40353829220000004,-0.6708041165,-0.6149617695,0.051286506360000005,0.4178386884
09:59:54,0.18658149999999996,0.5821239149999999,0.06920306499999995,-0.651027545,0.030108970000000006,-0.22435742500000003,-28.05971697,-4.16088033,-10.901317039999999,78.63822849,0.05700225219999999,0.4126156368999999,-0.66925731425,-0.61680533275,0.051469462220000005,0.4170702118
09:59:54,0.17990299999999992,0.5897665599999999,0.08099115999999995,-0.65129388,0.03082808,-0.22642420000000005,-28.05746508,-4.1564491199999996,-10.90292356,78.70605536,0.06098510079999997,0.4216929816,-0.667710512,-0.6186488960000001,0.051652418080000005,0.4163017352
09:59:54,0.1732244999999999,0.5974092049999999,0.09277925499999995,-0.6515602149999999,0.031547189999999996,-0.22849097500000007,-28.05521319,-4.15201791,-10.904530079999999,78.77388223,0.06496794939999995,0.4307703263000001,-0.6661637097499999,-0.6204924592500001,0.051835373940000005,0.4155332586
09:59:54,0.16654599999999997,0.60505185,0.10456734999999995,-0.65182655,0.032266300000000005,-0.23055775000000003,-28.0529613,-4.1475867,-10.9061366,78.8417091,0.06895079799999992,0.439847671,-0.6646169075,-0.6223360225,0.052018329800000006,0.414764782
09:59:54,0.15986749999999994,0.612694495,0.11635544499999995,-0.652092885,0.03298541,-0.23262452500000005,-28.05070941,-4.14315549,-10.90774312,78.90953597,0.07293364660000001,0.4489250157000001,-0.66307010525,-0.62417958575,0.052201285660000006,0.4139963054
09:59:54,0.1531889999999999,0.62033714,0.12814353999999994,-0.65235922,0.033704519999999995,-0.23469130000000007,-28.04845752,-4.13872428,-10.909349639999999,78.97736284,0.07691649519999999,0.4580023604,-0.6615233030000001,-0.626023149,0.052384241520000006,0.4132278288
09:59:54,0.14651049999999988,0.627979785,0.13993163499999994,-0.652625555,0.034423630000000004,-0.23675807500000004,-28.04620563,-4.13429307,-10.91095616,79.04518971,0.08089934379999997,0.4670797051000001,-0.65997650075,-0.62786671225,0.05256719738000001,0.41245935219999996
09:59:54,0.13983199999999996,0.63562243,0.15171972999999994,-0.65289189,0.03514274,-0.23882485000000006,-28.04395374,-4.12986186,-10.912562679999999,79.11301658,0.08488219239999995,0.47615704979999995,-0.6584296985,-0.6297102755,0.05275015324000001,0.4116908756
09:59:54,0.13315349999999992,0.643265075,0.16350782499999994,-0.653158225,0.03586185000000001,-0.24089162500000003,-28.04170185,-4.12543065,-10.9141692,79.18084345,0.08886504099999992,0.48523439450000005,-0.65688289625,-0.63155383875,0.0529331091,0.410922399
09:59:54,0.1264749999999999,0.65090772,0.17529591999999994,-0.6534245599999999,0.03658096,-0.24295840000000005,-28.03944996,-4.12099944,-10.91577572,79.24867032,0.09284788960000001,0.49431173919999993,-0.655336094,-0.6333974019999999,0.05311606496,0.4101539224
09:59:54,0.11979649999999997,0.658550365,0.18708401499999994,-0.653690895,0.03730007,-0.24502517500000007,-28.03719807,-4.11656823,-10.917382239999998,79.31649719,0.09683073819999999,0.5033890839,-0.65378929175,-0.63524096525,0.05329902082,0.4093854458
09:59:54,0.11311799999999994,0.66619301,0.19887210999999994,-0.65395723,0.03801918000000001,-0.24709195000000003,-28.034946180000002,-4.1121370200000005,-10.91898876,79.38432406,0.10081358679999997,0.5124664285999999,-0.6522424895000001,-0.6370845285,0.05348197668,0.4086169692
09:59:54,0.10643949999999991,0.673835655,0.21066020499999993,-0.654223565,0.03873829,-0.24915872500000005,-28.032694290000002,-4.10770581,-10.920595279999999,79.45215093,0.10479643539999994,0.5215437733,-0.65069568725,-0.63892809175,0.05366493254,0.4078484926
09:59:54,0.09976099999999988,0.6814783,0.22244829999999993,-0.6544899,0.0394574,-0.25122550000000005,-28.030442400000002,-4.1032746,-10.9222018,79.51997779999999,0.10877928399999992,0.5306211180000001,-0.649148885,-0.640771655,0.0538478884,0.407080016
09:59:54,0.09308249999999996,0.689120945,0.23423639499999993,-0.654756235,0.040176510000000006,-0.253292275,-28.02819051,-4.09884339,-10.92380832,79.58780467,0.11276213260000001,0.5396984627,-0.64760208275,-0.64261521825,0.05403084426,0.4063115394
09:59:54,0.08640399999999993,0.69676359,0.24602448999999993,-0.65502257,0.04089562,-0.25535905000000003,-28.02593862,-4.09441218,-10.92541484,79.65563154,0.11674498119999999,0.5487758074000001,-0.6460552805,-0.6444587815,0.05421380012,0.40554306279999996
09:59:54,0.0797254999999999,0.704406235,0.2578125849999999,-0.655288905,0.041614729999999996,-0.257425825,-28.02368673,-4.08998097,-10.92702136,79.72345841,0.12072782979999996,0.5578531521,-0.64450847825,-0.64630234475,0.05439675598,0.4047745862
09:59:54,0.07304699999999986,0.71204888,0.2696006799999999,-0.65555524,0.042333840000000005,-0.2594926,-28.02143484,-4.08554976,-10.928627879999999,79.79128528,0.12471067839999994,0.5669304968000001,-0.642961676,-0.648145908,0.05457971184,0.4040061096
09:59:54,0.06636849999999994,0.719691525,0.2813887749999999,-0.655821575,0.04305295,-0.26155937500000004,-28.01918295,-4.08111855,-10.9302344,79.85911215,0.12869352699999992,0.5760078415,-0.6414148737500001,-0.6499894712500001,0.0547626677,0.403237633
09:59:54,0.05968999999999991,0.72733417,0.2931768699999999,-0.65608791,0.043772059999999995,-0.26362615,-28.01693106,-4.07668734,-10.931840919999999,79.92693901999999,0.1326763756,0.5850851862,-0.6398680715,-0.6518330345000001,0.054945623560000004,0.40246915639999997
09:59:54,0.05301149999999988,0.734976815,0.3049649649999999,-0.656354245,0.044491170000000003,-0.265692925,-28.01467917,-4.0722561299999995,-10.93344744,79.99476589,0.13665922419999998,0.5941625308999999,-0.63832126925,-0.6536765977500001,0.055128579420000004,0.4017006798
09:59:54,0.04633299999999996,0.74261946,0.3167530599999999,-0.65662058,0.04521028,-0.26775970000000004,-28.01242728,-4.06782492,-10.93505396,80.06259276,0.14064207279999996,0.6032398756,-0.636774467,-0.655520161,0.055311535280000004,0.4009322032
09:59:54,0.039654499999999926,0.750262105,0.3285411549999999,-0.656886915,0.04592939000000001,-0.269826475,-28.01017539,-4.06339371,-10.936660479999999,80.13041963,0.14462492139999994,0.6123172202999999,-0.63522766475,-0.65736372425,0.055494491140000005,0.4001637266
09:59:54,0.032975999999999894,0.75790475,0.3403292499999999,-0.65715325,0.0466485,-0.27189325000000003,-28.0079235,-4.0589625,-10.938267,80.1982465,0.14860776999999992,0.621394565,-0.6336808625,-0.6592072875,0.055677447000000005,0.39939525
09:59:54,0.026297499999999863,0.765547395,0.3521173449999999,-0.657419585,0.04736761,-0.27396002500000005,-28.00567161,-4.05453129,-10.939873519999999,80.26607337,0.1525906186,0.6304719097000001,-0.6321340602500001,-0.66105085075,0.055860402860000005,0.39862677339999997
09:59:54,0.01961899999999983,0.77319004,0.3639054399999999,-0.65768592,0.048086720000000006,-0.2760268,-28.00341972,-4.05010008,-10.94148004,80.33390024,0.15657346719999998,0.6395492544,-0.630587258,-0.6628944139999999,0.056043358720000006,0.3978582968
09:59:54,0.012940500000000021,0.780832685,0.3756935349999999,-0.657952255,0.04880583,-0.27809357500000004,-28.00116783,-4.04566887,-10.94308656,80.40172711,0.16055631579999996,0.6486265991000001,-0.62904045575,-0.66473797725,0.056226314580000006,0.3970898202
09:59:54,0.00626199999999999,0.78847533,0.3874816299999999,-0.6582185899999999,0.049524939999999996,-0.28016035,-27.99891594,-4.04123766,-10.944693079999999,80.46955398,0.16453916439999994,0.6577039438,-0.6274936535,-0.6665815405,0.056409270440000006,0.3963213436
09:59:54,-0.00041650000000004184,0.796117975,0.3992697249999999,-0.658484925,0.050244050000000005,-0.282227125,-27.99666405,-4.03680645,-10.9462996,80.53738085,0.16852201299999992,0.6667812885000001,-0.62594685125,-0.66842510375,0.056592226300000006,0.395552867
09:59:54,-0.0070950000000000735,0.80376062,0.4110578199999999,-0.65875126,0.05096316,-0.28429390000000004,-27.99441216,-4.03237524,-10.947906119999999,80.60520772,0.1725048616,0.6758586332,-0.624400049,-0.670268667,0.05677518216000001,0.3947843904
09:59:54,-0.013773500000000105,0.811403265,0.4228459149999999,-0.659017595,0.051682269999999995,-0.286360675,-27.99216027,-4.0279440300000005,-10.94951264,80.67303459,0.17648771019999998,0.6849359779,-0.62285324675,-0.67211223025,0.05695813802000001,0.3940159138
09:59:54,-0.020452000000000137,0.81904591,0.4346340099999999,-0.65928393,0.052401380000000004,-0.28842745000000003,-27.98990838,-4.02351282,-10.95111916,80.74086146,0.18047055879999996,0.6940133225999999,-0.6213064445,-0.6739557935,0.05714109388000001,0.3932474372
09:59:54,-0.02713050000000017,0.826688555,0.4464221049999999,-0.659550265,0.05312049,-0.29049422500000005,-27.98765649,-4.01908161,-10.952725679999999,80.80868833,0.18445340739999994,0.7030906673,-0.61975964225,-0.67579935675,0.05732404974000001,0.3924789606
09:59:54,-0.0338090000000002,0.8343312,0.4582101999999999,-0.6598166,0.05383960000000001,-0.292561,-27.9854046,-4.0146504,-10.9543322,80.8765152,0.1884362559999999,0.7121680120000001,-0.61821284,-0.67764292,0.05750700560000001,0.39171048399999997
09:59:54,-0.04048750000000001,0.8419738449999998,0.4699982949999999,-0.660082935,0.05455871,-0.29462777500000004,-27.98315271,-4.01021919,-10.955938719999999,80.94434207,0.1924191046,0.7212453567,-0.6166660377500001,-0.67948648325,0.05768996146000001,0.39094200739999996
09:59:54,-0.04716600000000004,0.8496164899999998,0.4817863899999999,-0.66034927,0.05527782,-0.29669455000000006,-27.98090082,-4.00578798,-10.95754524,81.01216894,0.19640195319999998,0.7303227014000001,-0.6151192355,-0.6813300465000001,0.05787291732000001,0.3901735308
09:59:54,-0.05384450000000007,0.8572591349999998,0.4935744849999999,-0.660615605,0.05599693000000001,-0.298761325,-27.978648930000002,-4.00135677,-10.95915176,81.07999581,0.20038480179999996,0.7394000461,-0.6135724332500001,-0.6831736097500001,0.05805587318000001,0.3894050542
09:59:54,-0.060523000000000104,0.8649017799999998,0.5053625799999999,-0.66088194,0.05671604,-0.30082810000000004,-27.976397040000002,-3.99692556,-10.960758279999999,81.14782268,0.20436765039999993,0.7484773908000001,-0.6120256310000001,-0.6850171730000001,0.05823882904000001,0.3886365776
09:59:54,-0.06720150000000014,0.8725444249999998,0.5171506749999999,-0.661148275,0.05743515,-0.302894875,-27.974145150000002,-3.99249435,-10.9623648,81.21564955,0.20835049900000002,0.7575547355,-0.61047882875,-0.68686073625,0.05842178490000001,0.387868101
09:59:54,-0.07388000000000017,0.8801870699999998,0.5289387699999999,-0.66141461,0.058154260000000006,-0.30496165000000003,-27.97189326,-3.98806314,-10.963971319999999,81.28347642,0.2123333476,0.7666320802000001,-0.6089320265,-0.6887042995,0.05860474076000001,0.3870996244
09:59:54,-0.0805585000000002,0.8878297149999999,0.5407268649999999,-0.661680945,0.05887337,-0.30702842500000005,-27.96964137,-3.98363193,-10.96557784,81.35130329,0.21631619619999998,0.7757094248999999,-0.60738522425,-0.69054786275,0.05878769662000001,0.3863311478
09:59:54,-0.08723700000000001,0.8954723599999999,0.5525149599999999,-0.66194728,0.059592479999999996,-0.3090952,-27.96738948,-3.9792007199999997,-10.96718436,81.41913016,0.22029904479999995,0.7847867696,-0.605838422,-0.692391426,0.05897065248000001,0.3855626712
09:59:54,-0.09391550000000004,0.9031150049999999,0.5643030549999999,-0.662213615,0.060311590000000005,-0.31116197500000004,-27.96513759,-3.97476951,-10.968790879999998,81.48695703,0.22428189339999993,0.7938641142999999,-0.60429161975,-0.6942349892499999,0.05915360834000001,0.3847941946
09:59:54,-0.10059400000000007,0.9107576499999999,0.5760911500000001,-0.66247995,0.0610307,-0.31322875000000006,-27.9628857,-3.9703383,-10.9703974,81.5547839,0.22826474200000002,0.802941459,-0.6027448175000001,-0.6960785525,0.05933656420000001,0.38402571799999996
09:59:54,-0.1072725000000001,0.9184002949999999,0.5878792450000001,-0.662746285,0.061749809999999995,-0.315295525,-27.96063381,-3.96590709,-10.972003919999999,81.62261077,0.2322475906,0.8120188037000001,-0.60119801525,-0.69792211575,0.059519520060000004,0.38325724139999995
09:59:54,-0.11395100000000014,0.9260429399999999,0.5996673400000001,-0.6630126199999999,0.062468920000000004,-0.31736230000000004,-27.95838192,-3.96147588,-10.97361044,81.69043764,0.23623043919999998,0.8210961484,-0.599651213,-0.699765679,0.059702475920000005,0.3824887648
09:59:54,-0.12062950000000017,0.9336855849999999,0.6114554350000001,-0.663278955,0.06318803,-0.319429075,-27.95613003,-3.95704467,-10.97521696,81.75826451,0.24021328779999995,0.8301734931000001,-0.59810441075,-0.70160924225,0.059885431780000005,0.3817202882
09:59:54,-0.1273080000000002,0.9413282299999999,0.6232435300000001,-0.66354529,0.06390714,-0.32149585,-27.95387814,-3.95261346,-10.976823479999998,81.82609138,0.24419613639999993,0.8392508378,-0.5965576085,-0.7034528055,0.060068387640000005,0.3809518116
09:59:54,-0.1339865,0.9489708749999999,0.6350316250000001,-0.663811625,0.06462625,-0.32356262500000005,-27.95162625,-3.94818225,-10.97843,81.89391825,0.24817898500000002,0.8483281825000001,-0.59501080625,-0.70529636875,0.060251343500000006,0.380183335
09:59:54,-0.14066500000000004,0.9566135199999999,0.6468197200000001,-0.66407796,0.06534536000000002,-0.3256294,-27.94937436,-3.94375104,-10.980036519999999,81.96174512,0.2521618336,0.8574055272,-0.5934640040000001,-0.707139932,0.060434299360000006,0.3794148584
09:59:54,-0.14734350000000007,0.9642561649999999,0.6586078150000001,-0.664344295,0.06606447000000001,-0.32769617500000003,-27.94712247,-3.93931983,-10.98164304,82.02957199,0.2561446822,0.8664828719000001,-0.5919172017500001,-0.70898349525,0.060617255220000006,0.3786463818
09:59:54,-0.1540220000000001,0.9718988099999999,0.6703959100000001,-0.66461063,0.06678358000000001,-0.32976295000000005,-27.94487058,-3.9348886199999997,-10.983249559999999,82.09739886,0.26012753079999995,0.8755602165999999,-0.5903703995,-0.7108270585,0.060800211080000006,0.3778779052
09:59:54,-0.16070050000000013,0.9795414549999999,0.6821840050000001,-0.664876965,0.06750269,-0.331829725,-27.94261869,-3.93045741,-10.98485608,82.16522573,0.26411037939999993,0.8846375613,-0.58882359725,-0.7126706217500001,0.06098316694000001,0.37710942859999996
09:59:54,-0.16737900000000017,0.9871840999999999,0.6939721000000001,-0.6651433,0.0682218,-0.33389650000000004,-27.9403668,-3.9260262,-10.9864626,82.23305260000001,0.268093228,0.8937149059999999,-0.587276795,-0.7145141850000001,0.06116612280000001,0.37634095199999995
09:59:54,-0.1740575000000002,0.9948267449999999,0.7057601950000001,-0.665409635,0.06894091000000002,-0.33596327500000006,-27.93811491,-3.92159499,-10.988069119999999,82.30087947,0.2720760766,0.9027922507,-0.58572999275,-0.7163577482500001,0.06134907866000001,0.3755724754
09:59:54,-0.180736,1.00246939,0.7175482900000001,-0.66567597,0.06966002000000002,-0.33803005,-27.93586302,-3.91716378,-10.98967564,82.36870634,0.27605892519999997,0.9118695954000001,-0.5841831905,-0.7182013115,0.06153203452000001,0.3748039988
09:59:54,-0.18741450000000004,1.010112035,0.7293363850000001,-0.665942305,0.07037913000000001,-0.34009682500000005,-27.93361113,-3.91273257,-10.991282159999999,82.43653321,0.28004177379999995,0.9209469401,-0.5826363882500001,-0.72004487475,0.06171499038000001,0.3740355222
09:59:54,-0.19409300000000007,1.01775468,0.7411244800000001,-0.66620864,0.07109824000000001,-0.3421636,-27.93135924,-3.90830136,-10.99288868,82.50436008,0.2840246223999999,0.9300242848000001,-0.581089586,-0.721888438,0.06189794624000001,0.3732670456
09:59:54,-0.2007715000000001,1.025397325,0.7529125750000001,-0.666474975,0.07181735,-0.34423037500000003,-27.92910735,-3.90387015,-10.9944952,82.57218695,0.288007471,0.9391016295,-0.57954278375,-0.72373200125,0.06208090210000001,0.372498569
09:59:54,-0.20745000000000013,1.03303997,0.7647006700000001,-0.66674131,0.07253646,-0.34629715000000005,-27.92685546,-3.89943894,-10.996101719999999,82.64001382000001,0.2919903196,0.9481789742000001,-0.5779959815,-0.7255755644999999,0.06226385796000001,0.3717300924
09:59:54,-0.21412850000000017,1.040682615,0.7764887650000001,-0.667007645,0.07325557000000002,-0.348363925,-27.92460357,-3.8950077299999997,-10.99770824,82.70784069,0.29597316819999997,0.9572563189,-0.57644917925,-0.72741912775,0.06244681382000001,0.3709616158
09:59:54,-0.2208070000000002,1.04832526,0.7882768600000001,-0.66727398,0.07397468000000001,-0.35043070000000004,-27.922351680000002,-3.8905765199999998,-10.999314759999999,82.77566756,0.29995601679999995,0.9663336636000001,-0.574902377,-0.729262691,0.06262976968,0.37019313919999997
09:59:54,-0.2274855,1.055967905,0.8000649550000001,-0.667540315,0.07469379000000001,-0.35249747500000006,-27.920099790000002,-3.88614531,-11.00092128,82.84349442999999,0.3039388653999999,0.9754110082999999,-0.5733555747500001,-0.73110625425,0.06281272554,0.36942466259999995
09:59:54,-0.23416400000000004,1.06361055,0.8118530500000001,-0.66780665,0.0754129,-0.35456425,-27.9178479,-3.8817141,-11.0025278,82.9113213,0.307921714,0.984488353,-0.5718087725000001,-0.7329498175,0.0629956814,0.368656186
09:59:54,-0.24084250000000007,1.071253195,0.8236411450000001,-0.668072985,0.07613201,-0.35663102500000005,-27.91559601,-3.87728289,-11.004134319999999,82.97914817,0.3119045626,0.9935656976999999,-0.57026197025,-0.73479338075,0.06317863726,0.3678877094
09:59:54,-0.2475210000000001,1.07889584,0.8354292400000001,-0.66833932,0.07685112,-0.35869780000000007,-27.91334412,-3.87285168,-11.00574084,83.04697504,0.31588741119999997,1.0026430424,-0.568715168,-0.736636944,0.06336159312,0.3671192328
09:59:54,-0.25419950000000013,1.086538485,0.8472173350000001,-0.668605655,0.07757023000000002,-0.36076457500000003,-27.91109223,-3.8684204699999998,-11.007347359999999,83.11480191,0.31987025979999995,1.0117203871,-0.56716836575,-0.73848050725,0.06354454898,0.3663507562
09:59:54,-0.26087800000000017,1.09418113,0.8590054300000001,-0.66887199,0.07828934000000001,-0.36283135000000005,-27.90884034,-3.86398926,-11.00895388,83.18262878,0.3238531083999999,1.0207977318,-0.5656215635,-0.7403240705,0.06372750484,0.3655822796
09:59:54,-0.2675565000000002,1.101823775,0.8707935250000001,-0.669138325,0.07900845000000001,-0.364898125,-27.90658845,-3.85955805,-11.0105604,83.25045565,0.327835957,1.0298750765000002,-0.5640747612500001,-0.74216763375,0.0639104607,0.364813803
09:59:54,-0.274235,1.10946642,0.8825816200000001,-0.66940466,0.07972756,-0.36696490000000004,-27.90433656,-3.85512684,-11.012166919999999,83.31828252,0.3318188056,1.0389524211999999,-0.5625279590000001,-0.7440111970000001,0.06409341656,0.3640453264
09:59:54,-0.28091350000000004,1.117109065,0.8943697150000001,-0.669670995,0.08044667,-0.36903167500000006,-27.90208467,-3.8506956299999997,-11.01377344,83.38610939,0.33580165419999997,1.0480297659,-0.56098115675,-0.7458547602500001,0.06427637242,0.36327684979999997
09:59:54,-0.28759200000000007,1.12475171,0.9061578100000001,-0.66993733,0.08116578000000002,-0.37109845,-27.89983278,-3.84626442,-11.015379959999999,83.45393626,0.33978450279999994,1.0571071106,-0.5594343545,-0.7476983235000001,0.06445932828,0.36250837319999996
09:59:54,-0.2942705000000001,1.132394355,0.9179459050000001,-0.6702036650000001,0.08188489000000002,-0.37316522500000004,-27.89758089,-3.84183321,-11.01698648,83.52176313,0.3437673513999999,1.0661844553000002,-0.55788755225,-0.74954188675,0.06464228414,0.3617398966
09:59:55,-0.300949,1.140037,0.929734,-0.67047,0.082604,-0.375232,-27.895329,-3.837402,-11.018593,83.58959,0.3477502,1.0752618,-0.55634075,-0.75138545,0.06482524,0.36097142
09:59:55,-0.296557275,1.14041204,0.9243124349999999,-0.66739647,0.08374925,-0.37303205500000003,-27.870818845,-3.86050911,-11.02085992,83.56113317,0.3471263284,1.0759177885,-0.55942511925,-0.747500040225,0.0660669068,0.3585595296
09:59:55,-0.29216555,1.14078708,0.9188908699999999,-0.66432294,0.0848945,-0.37083211,-27.84630869,-3.88361622,-11.02312684,83.53267634,0.3465024568,1.0765737770000001,-0.5625094885,-0.74361463045,0.0673085736,0.3561476392
09:59:55,-0.28777382500000004,1.14116212,0.9134693049999999,-0.66124941,0.08603975,-0.368632165,-27.821798535,-3.90672333,-11.02539376,83.50421951,0.34587858520000003,1.0772297655,-0.56559385775,-0.739729220675,0.0685502404,0.35373574879999997
09:59:55,-0.2833821,1.14153716,0.90804774,-0.65817588,0.087185,-0.36643222000000003,-27.79728838,-3.92983044,-11.027660679999999,83.47576268,0.3452547136,1.077885754,-0.568678227,-0.7358438109000001,0.0697919072,0.35132385839999997
09:59:55,-0.278990375,1.1419122,0.902626175,-0.65510235,0.08833025,-0.364232275,-27.772778225,-3.95293755,-11.029927599999999,83.44730585,0.344630842,1.0785417425000001,-0.57176259625,-0.731958401125,0.071033574,0.34891196799999996
09:59:55,-0.27459865,1.14228724,0.89720461,-0.6520288200000001,0.0894755,-0.36203233,-27.74826807,-3.97604466,-11.03219452,83.41884902,0.3440069704,1.079197731,-0.5748469655,-0.72807299135,0.0722752408,0.3465000776
09:59:55,-0.27020692500000004,1.14266228,0.8917830449999999,-0.64895529,0.09062075,-0.35983238500000003,-27.723757915,-3.99915177,-11.03446144,83.39039219,0.3433830988,1.0798537195,-0.57793133475,-0.724187581575,0.07351690760000001,0.3440881872
09:59:55,-0.26581520000000003,1.14303732,0.8863614799999999,-0.64588176,0.091766,-0.35763244,-27.69924776,-4.02225888,-11.03672836,83.36193536,0.3427592272,1.0805097080000001,-0.581015704,-0.7203021718,0.0747585744,0.3416762968
09:59:55,-0.261423475,1.14341236,0.8809399149999999,-0.64280823,0.09291125,-0.355432495,-27.674737605,-4.04536599,-11.03899528,83.33347853000001,0.3421353556,1.0811656965,-0.58410007325,-0.716416762025,0.07600024120000001,0.3392644064
09:59:55,-0.25703175,1.1437874,0.87551835,-0.6397347,0.09405649999999999,-0.35323255000000003,-27.65022745,-4.0684731,-11.041262199999998,83.3050217,0.34151148400000003,1.081821685,-0.5871844425,-0.71253135225,0.07724190800000001,0.336852516
09:59:55,-0.25264002500000005,1.14416244,0.870096785,-0.63666117,0.09520175,-0.351032605,-27.625717295,-4.09158021,-11.043529119999999,83.27656487,0.3408876124,1.0824776735000001,-0.59026881175,-0.708645942475,0.07848357480000001,0.3344406256
09:59:55,-0.24824830000000003,1.1445374799999999,0.86467522,-0.63358764,0.09634699999999999,-0.34883266,-27.60120714,-4.11468732,-11.045796039999999,83.24810804,0.3402637408,1.083133662,-0.593353181,-0.7047605327,0.07972524160000001,0.3320287352
09:59:55,-0.24385657500000002,1.1449125199999999,0.859253655,-0.63051411,0.09749224999999999,-0.34663271500000004,-27.576696985,-4.13779443,-11.04806296,83.21965121,0.3396398692,1.0837896505,-0.59643755025,-0.700875122925,0.08096690840000001,0.3296168448
09:59:55,-0.23946485,1.1452875599999999,0.8538320899999999,-0.62744058,0.09863749999999999,-0.34443277,-27.55218683,-4.16090154,-11.05032988,83.19119438,0.3390159976,1.0844456390000001,-0.5995219195000001,-0.69698971315,0.08220857520000001,0.32720495439999997
09:59:55,-0.23507312500000002,1.1456625999999999,0.8484105249999999,-0.62436705,0.09978274999999999,-0.342232825,-27.527676675,-4.18400865,-11.0525968,83.16273755,0.338392126,1.0851016275,-0.6026062887500001,-0.6931043033750001,0.08345024200000001,0.32479306399999996
09:59:55,-0.23068140000000004,1.1460376399999999,0.84298896,-0.62129352,0.10092799999999999,-0.34003288,-27.50316652,-4.20711576,-11.05486372,83.13428072,0.3377682544,1.085757616,-0.6056906580000001,-0.6892188936,0.08469190880000001,0.32238117359999996
09:59:55,-0.22628967500000002,1.14641268,0.837567395,-0.61821999,0.10207324999999999,-0.337832935,-27.478656365,-4.23022287,-11.057130639999999,83.10582389,0.33714438280000003,1.0864136045000001,-0.6087750272500001,-0.685333483825,0.0859335756,0.3199692832
09:59:55,-0.22189795,1.14678772,0.83214583,-0.6151464600000001,0.10321849999999999,-0.33563299,-27.45414621,-4.25332998,-11.059397559999999,83.07736706,0.3365205112,1.087069593,-0.6118593965000001,-0.68144807405,0.0871752424,0.3175573928
09:59:55,-0.21750622500000003,1.14716276,0.826724265,-0.6120729300000001,0.10436374999999999,-0.33343304500000004,-27.429636055,-4.27643709,-11.06166448,83.04891023,0.3358966396,1.0877255815,-0.6149437657500001,-0.677562664275,0.0884169092,0.3151455024
09:59:55,-0.21311450000000004,1.1475378,0.8213026999999999,-0.6089994,0.10550899999999999,-0.3312331,-27.4051259,-4.2995442,-11.0639314,83.02045340000001,0.335272768,1.0883815700000001,-0.6180281350000001,-0.6736772545,0.089658576,0.312733612
09:59:55,-0.20872277500000003,1.14791284,0.8158811349999999,-0.60592587,0.10665424999999999,-0.329033155,-27.380615745,-4.32265131,-11.06619832,82.99199657,0.3346488964,1.0890375585,-0.6211125042500001,-0.669791844725,0.0909002428,0.3103217216
09:59:55,-0.20433105000000001,1.14828788,0.8104595699999999,-0.60285234,0.10779949999999999,-0.32683321,-27.35610559,-4.34575842,-11.06846524,82.96353974,0.3340250248,1.089693547,-0.6241968735000001,-0.66590643495,0.09214190960000002,0.3079098312
09:59:55,-0.19993932500000003,1.14866292,0.805038005,-0.59977881,0.10894474999999999,-0.324633265,-27.331595435,-4.36886553,-11.070732159999999,82.93508291,0.3334011532,1.0903495355000001,-0.6272812427500001,-0.662021025175,0.0933835764,0.3054979408
09:59:55,-0.19554760000000002,1.14903796,0.79961644,-0.59670528,0.11009,-0.32243332,-27.30708528,-4.39197264,-11.072999079999999,82.90662608,0.33277728160000003,1.091005524,-0.6303656120000001,-0.6581356154,0.09462524320000001,0.3030860504
09:59:55,-0.19115587500000003,1.149413,0.794194875,-0.59363175,0.11123525,-0.320233375,-27.282575125,-4.41507975,-11.075266,82.87816925,0.33215341,1.0916615125,-0.6334499812500001,-0.654250205625,0.09586691,0.30067415999999997
09:59:55,-0.18676415000000002,1.14978804,0.78877331,-0.59055822,0.1123805,-0.31803343,-27.25806497,-4.43818686,-11.07753292,82.84971242,0.3315295384,1.0923175010000001,-0.6365343505000001,-0.6503647958500001,0.09710857680000001,0.2982622696
09:59:55,-0.182372425,1.15016308,0.7833517449999999,-0.58748469,0.11352575,-0.315833485,-27.233554815,-4.46129397,-11.07979984,82.82125559,0.3309056668,1.0929734895,-0.6396187197500001,-0.646479386075,0.0983502436,0.2958503792
09:59:55,-0.17798070000000002,1.15053812,0.77793018,-0.58441116,0.114671,-0.31363354,-27.20904466,-4.48440108,-11.08206676,82.79279876,0.3302817952,1.093629478,-0.6427030890000001,-0.6425939763,0.09959191040000001,0.2934384888
09:59:55,-0.17358897500000003,1.15091316,0.772508615,-0.58133763,0.11581624999999998,-0.311433595,-27.184534505,-4.50750819,-11.08433368,82.76434193,0.3296579236,1.0942854665000001,-0.6457874582500001,-0.6387085665250001,0.10083357720000001,0.2910265984
09:59:55,-0.16919725000000002,1.1512882,0.76708705,-0.5782641000000001,0.1169615,-0.30923365,-27.16002435,-4.5306153,-11.086600599999999,82.7358851,0.329034052,1.094941455,-0.6488718275,-0.63482315675,0.10207524400000001,0.288614708
09:59:55,-0.16480552500000004,1.15166324,0.761665485,-0.5751905700000001,0.11810674999999998,-0.307033705,-27.135514195,-4.55372241,-11.088867519999999,82.70742827,0.32841018040000003,1.0955974435,-0.65195619675,-0.630937746975,0.10331691080000001,0.2862028176
09:59:55,-0.16041380000000002,1.15203828,0.75624392,-0.57211704,0.119252,-0.30483376,-27.11100404,-4.57682952,-11.09113444,82.67897144,0.3277863088,1.0962534320000001,-0.655040566,-0.6270523372,0.10455857760000001,0.2837909272
09:59:55,-0.156022075,1.15241332,0.7508223549999999,-0.56904351,0.12039724999999998,-0.30263381500000003,-27.086493885,-4.59993663,-11.09340136,82.65051461,0.3271624372,1.0969094205,-0.65812493525,-0.623166927425,0.10580024440000001,0.2813790368
09:59:55,-0.15163035000000002,1.15278836,0.7454007899999999,-0.56596998,0.1215425,-0.30043387,-27.06198373,-4.62304374,-11.09566828,82.62205778,0.3265385656,1.097565409,-0.6612093045,-0.6192815176500001,0.1070419112,0.2789671464
09:59:55,-0.147238625,1.1531634,0.7399792249999999,-0.56289645,0.12268774999999998,-0.298233925,-27.037473575,-4.64615085,-11.0979352,82.59360095,0.325914694,1.0982213975000001,-0.66429367375,-0.615396107875,0.108283578,0.27655525599999997
09:59:55,-0.14284690000000003,1.15353844,0.7345576599999999,-0.55982292,0.123833,-0.29603398000000003,-27.01296342,-4.6692579599999995,-11.100202119999999,82.56514412,0.3252908224,1.098877386,-0.667378043,-0.6115106981,0.1095252448,0.27414336559999997
09:59:55,-0.138455175,1.15391348,0.729136095,-0.55674939,0.12497824999999999,-0.293834035,-26.988453265,-4.69236507,-11.102469039999999,82.53668729,0.3246669508,1.0995333745,-0.67046241225,-0.607625288325,0.11076691160000002,0.27173147519999996
09:59:55,-0.13406345000000003,1.15428852,0.72371453,-0.55367586,0.1261235,-0.29163409,-26.96394311,-4.71547218,-11.10473596,82.50823046000001,0.32404307920000003,1.1001893630000001,-0.6735467815,-0.60373987855,0.1120085784,0.26931958479999996
09:59:55,-0.12967172500000002,1.15466356,0.718292965,-0.55060233,0.12726874999999999,-0.289434145,-26.939432955,-4.73857929,-11.10700288,82.47977363,0.3234192076,1.1008453515,-0.67663115075,-0.599854468775,0.11325024520000002,0.2669076944
09:59:55,-0.12528000000000003,1.1550386,0.7128713999999999,-0.5475288,0.12841399999999997,-0.2872342,-26.9149228,-4.7616864,-11.1092698,82.4513168,0.322795336,1.10150134,-0.67971552,-0.595969059,0.114491912,0.264495804
09:59:55,-0.12088827500000002,1.15541364,0.707449835,-0.54445527,0.12955925,-0.285034255,-26.890412645,-4.78479351,-11.11153672,82.42285997,0.3221714644,1.1021573285000001,-0.68279988925,-0.592083649225,0.11573357880000001,0.2620839136
09:59:55,-0.11649655000000003,1.15578868,0.70202827,-0.5413817400000001,0.1307045,-0.28283431000000003,-26.86590249,-4.80790062,-11.113803639999999,82.39440314,0.3215475928,1.102813317,-0.6858842585,-0.58819823945,0.1169752456,0.2596720232
09:59:55,-0.11210482500000002,1.15616372,0.696606705,-0.5383082100000001,0.13184975,-0.280634365,-26.841392335000002,-4.83100773,-11.116070559999999,82.36594631,0.3209237212,1.1034693055,-0.68896862775,-0.584312829675,0.11821691240000001,0.2572601328
09:59:55,-0.10771310000000003,1.1565387599999999,0.69118514,-0.5352346800000001,0.13299499999999997,-0.27843442,-26.81688218,-4.85411484,-11.11833748,82.33748948,0.3202998496,1.1041252940000001,-0.692052997,-0.5804274199,0.11945857920000001,0.2548482424
09:59:55,-0.10332137500000002,1.1569137999999999,0.685763575,-0.5321611500000001,0.13414025,-0.276234475,-26.792372025,-4.87722195,-11.1206044,82.30903265,0.319675978,1.1047812825,-0.69513736625,-0.5765420101250001,0.12070024600000001,0.252436352
09:59:55,-0.09892965000000004,1.1572888399999999,0.6803420099999999,-0.5290876200000001,0.1352855,-0.27403453,-26.76786187,-4.90032906,-11.12287132,82.28057582,0.3190521064,1.105437271,-0.6982217355,-0.57265660035,0.12194191280000001,0.25002446159999997
09:59:55,-0.09453792500000002,1.1576638799999999,0.6749204449999999,-0.52601409,0.13643075,-0.271834585,-26.743351715,-4.9234361700000004,-11.12513824,82.25211899,0.3184282348,1.1060932595000001,-0.7013061047500001,-0.568771190575,0.12318357960000001,0.2476125712
09:59:55,-0.09014620000000001,1.1580389199999999,0.6694988799999999,-0.52294056,0.13757599999999998,-0.26963464000000004,-26.71884156,-4.94654328,-11.12740516,82.22366216,0.3178043632,1.106749248,-0.7043904740000001,-0.5648857808000001,0.12442524640000001,0.2452006808
09:59:55,-0.08575447500000002,1.1584139599999999,0.6640773149999999,-0.51986703,0.13872125,-0.267434695,-26.694331405,-4.96965039,-11.129672079999999,82.19520533000001,0.3171804916,1.1074052365,-0.7074748432500001,-0.561000371025,0.1256669132,0.24278879039999998
09:59:55,-0.08136275000000001,1.158789,0.65865575,-0.5167935,0.13986649999999998,-0.26523475,-26.66982125,-4.9927575,-11.131939,82.1667485,0.31655662,1.1080612250000001,-0.7105592125000001,-0.55711496125,0.12690858,0.2403769
09:59:55,-0.07697102500000003,1.15916404,0.653234185,-0.51371997,0.14101175,-0.263034805,-26.645311095,-5.0158646099999995,-11.13420592,82.13829167,0.3159327484,1.1087172135,-0.7136435817500001,-0.5532295514750001,0.1281502468,0.2379650096
09:59:55,-0.07257930000000001,1.15953908,0.64781262,-0.51064644,0.14215699999999998,-0.26083486,-26.62080094,-5.03897172,-11.13647284,82.10983484,0.3153088768,1.109373202,-0.7167279510000001,-0.5493441417,0.12939191360000002,0.2355531192
09:59:55,-0.06818757500000003,1.15991412,0.642391055,-0.50757291,0.14330225,-0.258634915,-26.596290785,-5.06207883,-11.13873976,82.08137801,0.3146850052,1.1100291905000002,-0.7198123202500001,-0.545458731925,0.1306335804,0.2331412288
09:59:55,-0.06379585000000002,1.16028916,0.63696949,-0.50449938,0.14444749999999998,-0.25643497000000004,-26.57178063,-5.08518594,-11.14100668,82.05292118,0.3140611336,1.110685179,-0.7228966895000001,-0.5415733221500001,0.1318752472,0.23072933839999998
09:59:55,-0.05940412500000003,1.1606642,0.631547925,-0.5014258500000001,0.14559275,-0.254235025,-26.547270475,-5.10829305,-11.143273599999999,82.02446435,0.313437262,1.1113411675,-0.7259810587500001,-0.537687912375,0.133116914,0.22831744799999998
09:59:55,-0.05501240000000002,1.16103924,0.62612636,-0.49835232,0.14673799999999998,-0.25203508,-26.52276032,-5.13140016,-11.145540519999999,81.99600752,0.3128133904,1.1119971560000002,-0.7290654280000001,-0.5338025026000001,0.13435858080000002,0.22590555759999997
09:59:55,-0.050620675000000004,1.16141428,0.620704795,-0.49527879,0.14788324999999997,-0.249835135,-26.498250165,-5.15450727,-11.14780744,81.96755069,0.3121895188,1.1126531445,-0.7321497972500001,-0.529917092825,0.1356002476,0.2234936672
09:59:55,-0.046228950000000046,1.16178932,0.61528323,-0.49220526000000003,0.14902849999999998,-0.24763519,-26.47374001,-5.17761438,-11.15007436,81.93909386,0.3115656472,1.113309133,-0.7352341665000001,-0.52603168305,0.13684191440000001,0.2210817768
09:59:55,-0.04183722500000003,1.16216436,0.6098616649999999,-0.48913173000000004,0.15017375,-0.245435245,-26.449229855,-5.20072149,-11.15234128,81.91063703,0.3109417756,1.1139651215,-0.7383185357500001,-0.522146273275,0.13808358120000003,0.21866988639999999
09:59:55,-0.03744550000000002,1.1625394,0.6044400999999999,-0.4860582,0.15131899999999998,-0.24323530000000002,-26.4247197,-5.2238286,-11.1546082,81.8821802,0.31031790400000003,1.11462111,-0.7414029050000001,-0.5182608635,0.139325248,0.21625799599999998
09:59:55,-0.03305377500000001,1.16291444,0.5990185349999999,-0.48298467,0.15246424999999997,-0.241035355,-26.400209545,-5.24693571,-11.15687512,81.85372337,0.3096940324,1.1152770985,-0.74448727425,-0.514375453725,0.1405669148,0.21384610559999997
09:59:55,-0.02866205000000005,1.16328948,0.5935969699999999,-0.47991114,0.15360949999999998,-0.23883541,-26.37569939,-5.2700428200000005,-11.159142039999999,81.82526654,0.3090701608,1.115933087,-0.7475716435,-0.51049004395,0.1418085816,0.2114342152
09:59:55,-0.024270325000000037,1.16366452,0.588175405,-0.47683761,0.15475475,-0.23663546500000002,-26.351189235,-5.29314993,-11.16140896,81.79680971,0.3084462892,1.1165890755,-0.75065601275,-0.506604634175,0.14305024840000002,0.2090223248
09:59:55,-0.019878600000000024,1.16403956,0.58275384,-0.47376408000000003,0.15589999999999998,-0.23443552,-26.326679079999998,-5.31625704,-11.16367588,81.76835288,0.3078224176,1.117245064,-0.753740382,-0.5027192244,0.1442919152,0.2066104344
09:59:55,-0.015486875000000011,1.1644146,0.577332275,-0.47069055000000004,0.15704524999999997,-0.232235575,-26.302168925,-5.33936415,-11.1659428,81.73989605,0.307198546,1.1179010525,-0.75682475125,-0.49883381462500004,0.145533582,0.20419854399999998
09:59:55,-0.011095149999999998,1.16478964,0.57191071,-0.46761702000000005,0.15819049999999998,-0.23003563000000002,-26.27765877,-5.3624712599999995,-11.16820972,81.71143922,0.3065746744,1.118557041,-0.7599091205,-0.49494840485,0.1467752488,0.20178665359999998
09:59:55,-0.006703425000000041,1.16516468,0.566489145,-0.46454349000000006,0.15933575,-0.227835685,-26.253148615,-5.38557837,-11.17047664,81.68298239,0.3059508028,1.1192130295,-0.76299348975,-0.491062995075,0.14801691560000002,0.1993747632
09:59:55,-0.0023117000000000276,1.16553972,0.56106758,-0.46146996000000007,0.16048099999999998,-0.22563574,-26.22863846,-5.40868548,-11.172743559999999,81.65452556,0.3053269312,1.119869018,-0.7660778590000001,-0.48717758530000005,0.1492585824,0.1969628728
09:59:55,0.0020800249999999854,1.16591476,0.555646015,-0.45839643,0.16162624999999997,-0.22343579500000002,-26.204128305,-5.43179259,-11.17501048,81.62606873,0.3047030596,1.1205250065,-0.7691622282500001,-0.48329217552500003,0.1505002492,0.1945509824
09:59:55,0.006471749999999998,1.1662898,0.55022445,-0.45532290000000003,0.16277149999999999,-0.22123585,-26.17961815,-5.4548997,-11.1772774,81.5976119,0.304079188,1.121180995,-0.7722465975000001,-0.47940676575,0.151741916,0.19213909199999998
09:59:55,0.010863474999999956,1.16666484,0.544802885,-0.45224937000000004,0.16391675,-0.219035905,-26.155107995,-5.47800681,-11.17954432,81.56915507,0.3034553164,1.1218369835,-0.7753309667500001,-0.475521355975,0.15298358280000002,0.18972720159999998
09:59:55,0.015255199999999969,1.16703988,0.5393813199999999,-0.44917584000000005,0.165062,-0.21683596,-26.13059784,-5.50111392,-11.18181124,81.54069824,0.3028314448,1.122492972,-0.7784153360000001,-0.47163594620000004,0.1542252496,0.1873153112
09:59:55,0.019646924999999982,1.16741492,0.5339597549999999,-0.44610231,0.16620724999999997,-0.214636015,-26.106087685,-5.52422103,-11.18407816,81.51224141,0.3022075732,1.1231489605,-0.7814997052500001,-0.46775053642500003,0.15546691640000002,0.1849034208
09:59:55,0.024038649999999995,1.16778996,0.5285381899999999,-0.44302878,0.1673525,-0.21243607,-26.08157753,-5.54732814,-11.18634508,81.48378458,0.30158370160000003,1.123804949,-0.7845840745000001,-0.46386512665,0.15670858320000003,0.1824915304
09:59:55,0.028430374999999952,1.168165,0.5231166249999999,-0.43995525,0.16849774999999997,-0.210236125,-26.057067375,-5.57043525,-11.188612,81.45532775,0.30095983,1.1244609375,-0.7876684437500001,-0.45997971687500006,0.15795025000000001,0.18007963999999999
09:59:55,0.032822099999999965,1.16854004,0.51769506,-0.43688172000000003,0.169643,-0.20803618000000001,-26.03255722,-5.59354236,-11.19087892,81.42687092,0.3003359584,1.125116926,-0.7907528130000001,-0.45609430710000004,0.1591919168,0.17766774959999998
09:59:55,0.03721382499999998,1.1689150799999999,0.512273495,-0.43380819000000004,0.17078824999999997,-0.205836235,-26.008047065,-5.6166494700000005,-11.19314584,81.39841409,0.2997120868,1.1257729145,-0.7938371822500001,-0.452208897325,0.1604335836,0.17525585919999997
09:59:55,0.04160554999999999,1.1692901199999999,0.50685193,-0.43073466000000005,0.17193349999999996,-0.20363629,-25.983536909999998,-5.63975658,-11.19541276,81.36995726,0.2990882152,1.126428903,-0.7969215515000001,-0.44832348755,0.16167525040000003,0.1728439688
09:59:55,0.04599727499999995,1.1696651599999999,0.501430365,-0.42766113000000006,0.17307874999999998,-0.20143634500000002,-25.959026755,-5.66286369,-11.19767968,81.34150043,0.2984643436,1.1270848915,-0.8000059207500001,-0.44443807777500005,0.1629169172,0.1704320784
09:59:55,0.05038899999999996,1.1700401999999999,0.49600879999999997,-0.42458760000000006,0.174224,-0.1992364,-25.9345166,-5.6859708,-11.1999466,81.3130436,0.297840472,1.12774088,-0.8030902900000001,-0.44055266800000004,0.164158584,0.168020188
09:59:55,0.054780724999999975,1.1704152399999999,0.49058723499999995,-0.4215140700000001,0.17536924999999998,-0.197036455,-25.910006445,-5.7090779099999995,-11.202213519999999,81.28458677,0.2972166004,1.1283968685,-0.8061746592500001,-0.436667258225,0.1654002508,0.16560829759999998
09:59:55,0.05917244999999999,1.1707902799999998,0.48516567,-0.41844054,0.17651449999999996,-0.19483651000000002,-25.88549629,-5.73218502,-11.20448044,81.25612994,0.2965927288,1.129052857,-0.8092590285000001,-0.43278184845,0.16664191760000002,0.16319640719999998
09:59:55,0.063564175,1.17116532,0.479744105,-0.41536701000000004,0.17765974999999998,-0.192636565,-25.860986135,-5.75529213,-11.20674736,81.22767311,0.2959688572,1.1297088455,-0.8123433977500001,-0.42889643867500005,0.1678835844,0.1607845168
09:59:55,0.06795589999999996,1.17154036,0.47432253999999996,-0.41229348000000005,0.178805,-0.19043662,-25.83647598,-5.77839924,-11.20901428,81.19921628,0.2953449856,1.130364834,-0.8154277670000001,-0.42501102890000003,0.1691252512,0.1583726264
09:59:55,0.07234762499999997,1.1719154,0.468900975,-0.40921995000000005,0.17995024999999998,-0.18823667500000002,-25.811965825,-5.80150635,-11.2112812,81.17075945,0.294721114,1.1310208225,-0.8185121362500001,-0.421125619125,0.170366918,0.155960736
09:59:55,0.07673934999999998,1.17229044,0.46347941,-0.40614642000000006,0.18109549999999996,-0.18603673,-25.78745567,-5.82461346,-11.21354812,81.14230262,0.2940972424,1.131676811,-0.8215965055000001,-0.41724020935000006,0.17160858480000002,0.15354884559999998
09:59:55,0.081131075,1.17266548,0.45805784499999996,-0.40307289,0.18224074999999998,-0.183836785,-25.762945515,-5.84772057,-11.21581504,81.11384579,0.2934733708,1.1323327995,-0.8246808747500001,-0.41335479957500004,0.1728502516,0.15113695519999998
09:59:55,0.08552279999999995,1.17304052,0.45263628,-0.39999936,0.183386,-0.18163684000000002,-25.73843536,-5.87082768,-11.21808196,81.08538896,0.29284949920000003,1.132988788,-0.8277652440000001,-0.4094693898,0.17409191840000002,0.14872506479999997
09:59:55,0.08991452499999997,1.17341556,0.447214715,-0.39692583000000004,0.18453124999999998,-0.179436895,-25.713925205,-5.893934789999999,-11.22034888,81.05693213,0.2922256276,1.1336447765,-0.8308496132500001,-0.405583980025,0.17533358520000003,0.1463131744
09:59:55,0.09430624999999998,1.1737906,0.44179314999999997,-0.39385230000000004,0.18567649999999997,-0.17723695,-25.68941505,-5.9170419,-11.2226158,81.0284753,0.291601756,1.134300765,-0.8339339825000001,-0.40169857025000005,0.17657525200000002,0.143901284
09:59:55,0.098697975,1.17416564,0.43637158499999995,-0.39077877000000005,0.18682174999999998,-0.175037005,-25.664904895,-5.94014901,-11.22488272,81.00001847,0.2909778844,1.1349567535,-0.8370183517500001,-0.39781316047500004,0.1778169188,0.14148939359999999
09:59:55,0.10308969999999995,1.17454068,0.43095002,-0.38770524000000006,0.187967,-0.17283706000000001,-25.640394739999998,-5.9632561200000005,-11.22714964,80.97156164,0.2903540128,1.135612742,-0.840102721,-0.3939277507,0.17905858560000001,0.13907750319999998
09:59:55,0.10748142499999996,1.17491572,0.425528455,-0.38463171,0.18911224999999998,-0.170637115,-25.615884585,-5.98636323,-11.22941656,80.94310481,0.2897301412,1.1362687305,-0.84318709025,-0.390042340925,0.18030025240000003,0.13666561279999997
09:59:55,0.11187314999999998,1.17529076,0.42010689,-0.38155818,0.19025749999999997,-0.16843717,-25.59137443,-6.00947034,-11.23168348,80.91464798,0.2891062696,1.136924719,-0.8462714595,-0.38615693115000005,0.1815419192,0.1342537224
09:59:55,0.11626487499999999,1.1756658,0.414685325,-0.37848465000000003,0.19140274999999998,-0.16623722500000002,-25.566864275,-6.03257745,-11.2339504,80.88619115,0.288482398,1.1375807075,-0.84935582875,-0.38227152137500003,0.182783586,0.131841832
09:59:55,0.1206566,1.17604084,0.40926376,-0.37541112000000004,0.192548,-0.16403728,-25.54235412,-6.0556845599999995,-11.23621732,80.85773432,0.2878585264,1.138236696,-0.852440198,-0.3783861116,0.1840252528,0.1294299416
09:59:55,0.12504832499999996,1.17641588,0.40384219499999996,-0.37233759000000005,0.19369324999999998,-0.161837335,-25.517843965,-6.07879167,-11.23848424,80.82927749,0.2872346548,1.1388926845,-0.85552456725,-0.37450070182500006,0.18526691960000002,0.12701805119999998
09:59:55,0.12944004999999997,1.17679092,0.39842062999999994,-0.36926406000000006,0.19483849999999997,-0.15963739000000002,-25.49333381,-6.10189878,-11.24075116,80.80082066,0.2866107832,1.139548673,-0.8586089365,-0.37061529205000004,0.1865085864,0.12460616079999998
09:59:55,0.133831775,1.17716596,0.3929990649999999,-0.36619053000000007,0.19598374999999996,-0.157437445,-25.468823655,-6.125005890000001,-11.24301808,80.77236383,0.2859869116,1.1402046615,-0.86169330575,-0.36672988227500003,0.1877502532,0.1221942704
09:59:55,0.1382235,1.177541,0.3875775,-0.363117,0.19712899999999997,-0.1552375,-25.4443135,-6.148113,-11.245284999999999,80.74390700000001,0.28536304,1.14086065,-0.864777675,-0.3628444725,0.18899192,0.11978238
09:59:55,0.14261522499999996,1.17791604,0.382155935,-0.36004347000000003,0.19827424999999999,-0.15303755500000002,-25.419803345,-6.17122011,-11.24755192,80.71545017,0.2847391684,1.1415166385,-0.86786204425,-0.35895906272500006,0.19023358680000002,0.11737048959999999
09:59:55,0.14700694999999997,1.17829108,0.37673437,-0.35696994000000004,0.19941949999999997,-0.15083761,-25.39529319,-6.19432722,-11.24981884,80.68699334,0.28411529680000003,1.142172627,-0.8709464135,-0.35507365295000004,0.1914752536,0.11495859919999998
09:59:55,0.15139867499999998,1.17866612,0.37131280499999997,-0.35389641000000005,0.20056474999999996,-0.148637665,-25.370783035,-6.21743433,-11.25208576,80.65853651,0.2834914252,1.1428286155,-0.87403078275,-0.351188243175,0.19271692040000002,0.11254670879999998
09:59:55,0.1557904,1.17904116,0.36589123999999995,-0.35082288000000006,0.20170999999999997,-0.14643772,-25.34627288,-6.240541439999999,-11.25435268,80.63007968,0.2828675536,1.143484604,-0.877115152,-0.3473028334,0.1939585872,0.1101348184
09:59:55,0.16018212499999995,1.1794162,0.36046967499999993,-0.34774935000000007,0.20285525,-0.144237775,-25.321762725,-6.26364855,-11.2566196,80.60162285,0.282243682,1.1441405925,-0.88019952125,-0.34341742362500005,0.19520025400000002,0.107722928
09:59:55,0.16457384999999997,1.17979124,0.35504811000000003,-0.34467582,0.20400049999999997,-0.14203783,-25.297252569999998,-6.28675566,-11.25888652,80.57316602,0.2816198104,1.144796581,-0.8832838905,-0.33953201385000004,0.1964419208,0.10531103759999999
09:59:55,0.16896557499999998,1.18016628,0.349626545,-0.34160229000000003,0.20514574999999996,-0.139837885,-25.272742415,-6.3098627700000005,-11.26115344,80.54470919,0.2809959388,1.1454525695,-0.8863682597500001,-0.335646604075,0.19768358760000002,0.10289914719999999
09:59:55,0.1733573,1.18054132,0.34420498,-0.33852876000000004,0.20629099999999997,-0.13763794000000001,-25.248232259999998,-6.33296988,-11.26342036,80.51625236,0.28037206719999996,1.146108558,-0.8894526290000001,-0.33176119430000006,0.1989252544,0.10048725679999998
09:59:55,0.17774902499999995,1.1809163599999999,0.338783415,-0.33545523000000005,0.20743625,-0.135437995,-25.223722105,-6.35607699,-11.26568728,80.48779553,0.27974819559999997,1.1467645465,-0.8925369982500001,-0.32787578452500005,0.20016692120000001,0.09807536639999997
09:59:55,0.18214074999999996,1.1812913999999999,0.33336184999999996,-0.33238170000000006,0.20858149999999998,-0.13323805,-25.19921195,-6.3791841,-11.2679542,80.4593387,0.279124324,1.147420535,-0.8956213675000001,-0.32399037475000003,0.201408588,0.09566347599999997
09:59:55,0.18653247499999998,1.1816664399999999,0.32794028499999994,-0.32930817000000007,0.20972674999999996,-0.13103810500000002,-25.174701795,-6.40229121,-11.27022112,80.43088187000001,0.2785004524,1.1480765235000001,-0.8987057367500001,-0.320104964975,0.2026502548,0.09325158559999996
09:59:55,0.1909242,1.1820414799999999,0.32251872000000004,-0.32623464,0.21087199999999995,-0.12883816,-25.15019164,-6.42539832,-11.27248804,80.40242504,0.2778765808,1.148732512,-0.9017901060000001,-0.31621955520000006,0.20389192160000003,0.09083969519999996
09:59:55,0.195315925,1.1824165199999999,0.317097155,-0.32316111000000003,0.21201725,-0.126638215,-25.125681485,-6.44850543,-11.27475496,80.37396821,0.2772527092,1.1493885005,-0.9048744752500001,-0.31233414542500004,0.2051335884,0.08842780480000001
09:59:55,0.19970765000000001,1.1827915599999999,0.31167559,-0.32008758000000004,0.21316249999999998,-0.12443827000000002,-25.10117133,-6.471612540000001,-11.27702188,80.34551138,0.2766288376,1.1500444890000001,-0.9079588445000001,-0.30844873565,0.20637525520000002,0.0860159144
09:59:55,0.20409937499999997,1.1831665999999998,0.306254025,-0.31701405000000005,0.21430774999999996,-0.12223832499999998,-25.076661174999998,-6.49471965,-11.2792888,80.31705455,0.276004966,1.1507004775,-0.9110432137500001,-0.304563325875,0.207616922,0.083604024
09:59:55,0.20849109999999993,1.1835416399999998,0.30083245999999997,-0.31394052000000006,0.21545299999999995,-0.12003838,-25.05215102,-6.51782676,-11.28155572,80.28859772,0.2753810944,1.151356466,-0.9141275830000001,-0.30067791610000005,0.20885858880000002,0.0811921336
09:59:55,0.212882825,1.1839166799999998,0.29541089499999995,-0.31086699000000007,0.21659825,-0.11783843500000002,-25.027640865,-6.54093387,-11.28382264,80.26014089,0.2747572228,1.1520124545000001,-0.9172119522500001,-0.29679250632500004,0.2101002556,0.07878024319999999
09:59:55,0.21727454999999996,1.18429172,0.28998932999999993,-0.3077934600000001,0.21774349999999998,-0.11563848999999998,-25.00313071,-6.56404098,-11.28608956,80.23168406,0.2741333512,1.152668443,-0.9202963215000001,-0.29290709655,0.21134192240000002,0.07636835279999998
09:59:55,0.22166627500000002,1.18466676,0.28456776500000003,-0.30471993,0.21888874999999997,-0.113438545,-24.978620555,-6.5871480899999995,-11.288356480000001,80.20322723,0.2735094796,1.1533244315,-0.9233806907500001,-0.28902168677500006,0.2125835892,0.07395646239999998
09:59:55,0.22605799999999998,1.1850418,0.2791462,-0.30164640000000004,0.22003399999999995,-0.11123860000000002,-24.954110399999998,-6.6102552,-11.2906234,80.1747704,0.272885608,1.1539804200000001,-0.9264650600000001,-0.28513627700000005,0.21382525600000002,0.07154457199999997
09:59:55,0.23044972499999994,1.18541684,0.273724635,-0.29857287000000005,0.22117925,-0.10903865499999998,-24.929600245,-6.63336231,-11.29289032,80.14631357,0.2722617364,1.1546364085,-0.9295494292500002,-0.28125086722500003,0.2150669228,0.06913268159999997
09:59:55,0.23484145,1.18579188,0.26830307,-0.29549934000000005,0.22232449999999998,-0.10683871,-24.905090089999998,-6.6564694200000005,-11.29515724,80.11785674,0.27163786479999996,1.155292397,-0.9326337985000002,-0.27736545745,0.21630858960000002,0.06672079119999996
09:59:55,0.23923317499999996,1.18616692,0.26288150499999996,-0.29242581000000006,0.22346974999999997,-0.10463876500000002,-24.880579935,-6.67957653,-11.29742416,80.08939991,0.27101399319999997,1.1559483855000001,-0.9357181677500002,-0.27348004767500006,0.2175502564,0.06430890080000001
09:59:55,0.24362489999999992,1.18654196,0.25745993999999994,-0.2893522800000001,0.22461499999999995,-0.10243881999999999,-24.85606978,-6.70268364,-11.29969108,80.06094308,0.2703901216,1.156604374,-0.9388025370000002,-0.26959463790000004,0.21879192320000002,0.06189701040000001
09:59:55,0.248016625,1.186917,0.25203837500000004,-0.28627875,0.22576025,-0.100238875,-24.831559625,-6.72579075,-11.301958,80.03248625,0.26976625,1.1572603625,-0.9418869062500002,-0.26570922812500003,0.22003359,0.05948512
09:59:55,0.25240834999999995,1.18729204,0.24661681000000002,-0.28320522000000004,0.22690549999999998,-0.09803893000000002,-24.80704947,-6.74889786,-11.30422492,80.00402942,0.2691423784,1.1579163510000001,-0.9449712755000002,-0.26182381835,0.22127525680000001,0.0570732296
09:59:55,0.256800075,1.18766708,0.241195245,-0.28013169000000004,0.22805074999999997,-0.09583898499999999,-24.782539315,-6.772004969999999,-11.30649184,79.97557259,0.2685185068,1.1585723395,-0.9480556447500001,-0.25793840857500006,0.2225169236,0.05466133919999999
09:59:55,0.2611918,1.18804212,0.23577367999999999,-0.27705816000000005,0.22919599999999996,-0.09363904,-24.75802916,-6.79511208,-11.30875876,79.94711576,0.2678946352,1.159228328,-0.9511400140000001,-0.25405299880000004,0.2237585904,0.05224944879999999
09:59:55,0.26558352499999993,1.18841716,0.23035211499999997,-0.27398463000000006,0.23034124999999994,-0.09143909500000003,-24.733519004999998,-6.818219190000001,-11.31102568,79.91865893,0.2672707636,1.1598843165000001,-0.9542243832500001,-0.250167589025,0.22500025720000003,0.04983755839999998
09:59:55,0.26997525,1.1887922,0.22493054999999995,-0.27091110000000007,0.23148649999999998,-0.08923914999999999,-24.70900885,-6.8413263,-11.3132926,79.8902021,0.266646892,1.160540305,-0.9573087525000001,-0.24628217925000007,0.226241924,0.047425667999999976
09:59:55,0.27436697499999996,1.18916724,0.21950898499999993,-0.2678375700000001,0.23263174999999997,-0.08703920500000001,-24.684498695,-6.86443341,-11.31555952,79.86174527,0.2660230204,1.1611962935,-0.9603931217500001,-0.242396769475,0.22748359080000002,0.04501377759999997
09:59:55,0.2787587,1.18954228,0.21408742000000003,-0.26476404000000003,0.23377699999999996,-0.08483926000000003,-24.65998854,-6.88754052,-11.317826440000001,79.83328844,0.2653991488,1.1618522820000001,-0.9634774910000001,-0.23851135970000004,0.2287252576,0.042601887199999966
09:59:55,0.283150425,1.18991732,0.208665855,-0.26169051000000004,0.23492224999999994,-0.08263931499999999,-24.635478385,-6.91064763,-11.32009336,79.80483161,0.2647752772,1.1625082705,-0.9665618602500001,-0.23462594992500008,0.22996692440000002,0.04018999679999996
09:59:55,0.28754214999999994,1.19029236,0.20324429,-0.25861698000000005,0.23606749999999999,-0.08043937000000001,-24.61096823,-6.9337547399999995,-11.32236028,79.77637478,0.2641514056,1.163164259,-0.9696462295000001,-0.23074054015,0.2312085912,0.03777810640000001
09:59:55,0.291933875,1.1906674,0.19782272499999998,-0.25554345000000006,0.23721274999999997,-0.07823942500000003,-24.586458075,-6.95686185,-11.3246272,79.74791795,0.263527534,1.1638202475000001,-0.9727305987500001,-0.22685513037500005,0.23245025800000002,0.035366216000000006
09:59:55,0.29632559999999997,1.19104244,0.19240115999999996,-0.25246992000000007,0.23835799999999996,-0.07603947999999999,-24.56194792,-6.97996896,-11.32689412,79.71946112,0.26290366239999996,1.164476236,-0.9758149680000001,-0.2229697206000001,0.2336919248,0.0329543256
09:59:55,0.3007173249999999,1.19141748,0.18697959499999994,-0.24939639000000008,0.23950324999999995,-0.07383953500000001,-24.537437765,-7.0030760700000005,-11.32916104,79.69100429,0.26227979079999997,1.1651322245,-0.9788993372500001,-0.21908431082500002,0.23493359160000002,0.030542435199999995
09:59:55,0.30510905,1.19179252,0.18155803000000004,-0.24632286000000003,0.2406485,-0.07163959000000003,-24.51292761,-7.02618318,-11.331427960000001,79.66254746,0.2616559192,1.1657882130000001,-0.9819837065000001,-0.21519890105000006,0.2361752584,0.02813054479999999
09:59:55,0.30950077499999995,1.19216756,0.17613646500000002,-0.24324933000000004,0.24179374999999997,-0.069439645,-24.488417455,-7.04929029,-11.33369488,79.63409063,0.2610320476,1.1664442015,-0.9850680757500001,-0.2113134912750001,0.23741692520000002,0.025718654399999985
09:59:55,0.3138925,1.1925426,0.1707149,-0.24017580000000005,0.24293899999999996,-0.06723970000000001,-24.4639073,-7.0723974,-11.3359618,79.60563379999999,0.260408176,1.16710019,-0.9881524450000001,-0.20742808150000003,0.238658592,0.02330676399999998
09:59:55,0.318284225,1.19291764,0.16529333499999999,-0.23710227000000006,0.24408424999999995,-0.06503975500000003,-24.439397145,-7.09550451,-11.33822872,79.57717697,0.2597843044,1.1677561785000001,-0.9912368142500001,-0.20354267172500007,0.23990025880000002,0.020894873599999975
09:59:55,0.32267594999999993,1.1932926799999999,0.15987176999999997,-0.23402874000000007,0.2452295,-0.06283981,-24.41488699,-7.118611619999999,-11.34049564,79.54872014,0.2591604328,1.168412167,-0.9943211835000001,-0.19965726195,0.2411419256,0.01848298319999997
09:59:55,0.327067675,1.1936677199999999,0.15445020499999995,-0.23095521000000008,0.24637474999999998,-0.060639865000000015,-24.390376834999998,-7.14171873,-11.34276256,79.52026331,0.2585365612,1.1690681555,-0.9974055527500001,-0.19577185217500004,0.24238359240000001,0.016071092799999964
09:59:55,0.33145939999999996,1.1940427599999999,0.14902863999999993,-0.2278816800000001,0.24751999999999996,-0.05843991999999998,-24.36586668,-7.16482584,-11.34502948,79.49180648,0.2579126896,1.169724144,-1.000489922,-0.19188644240000008,0.2436252592,0.013659202400000015
09:59:55,0.33585112500000003,1.1944177999999999,0.14360707500000003,-0.22480815000000004,0.24866524999999995,-0.056239975,-24.341356525,-7.18793295,-11.347296400000001,79.46334965,0.257288818,1.1703801325,-1.00357429125,-0.188001032625,0.244866926,0.01124731200000001
09:59:55,0.34024285,1.1947928399999999,0.13818551,-0.22173462000000005,0.2498105,-0.05404003000000002,-24.31684637,-7.21104006,-11.34956332,79.43489282,0.2566649464,1.171036121,-1.0066586605,-0.18411562285000005,0.24610859280000003,0.008835421600000004
09:59:55,0.34463457499999994,1.1951678799999998,0.132763945,-0.21866109000000006,0.25095575,-0.05184008499999998,-24.292336215,-7.23414717,-11.35183024,79.40643599,0.2560410748,1.1716921095,-1.00974302975,-0.1802302130750001,0.2473502596,0.006423531199999999
09:59:55,0.3490263,1.1955429199999998,0.12734237999999998,-0.21558756000000007,0.25210099999999996,-0.04964014,-24.26782606,-7.25725428,-11.35409716,79.37797916,0.2554172032,1.172348098,-1.012827399,-0.17634480330000002,0.24859192640000002,0.004011640799999994
09:59:55,0.35341802499999997,1.1959179599999998,0.12192081499999996,-0.21251403000000008,0.25324624999999995,-0.04744019500000002,-24.243315905,-7.2803613899999995,-11.35636408,79.34952233,0.2547933316,1.1730040865,-1.01591176825,-0.17245939352500006,0.2498335932,0.0015997503999999885
09:59:55,0.3578097499999999,1.1962929999999998,0.11649924999999994,-0.20944050000000008,0.25439149999999994,-0.04524024999999998,-24.21880575,-7.3034685,-11.358631,79.3210655,0.25416945999999996,1.173660075,-1.0189961375,-0.1685739837500001,0.25107526,-0.0008121400000000167
09:59:55,0.362201475,1.19666804,0.11107768500000004,-0.20636697000000004,0.25553675,-0.043040305,-24.194295595,-7.32657561,-11.360897920000001,79.29260866999999,0.25354558839999997,1.1743160635,-1.02208050675,-0.16468857397500003,0.2523169268,-0.003224030400000022
09:59:55,0.36659319999999995,1.19704308,0.10565612000000002,-0.20329344000000005,0.25668199999999997,-0.04084036000000002,-24.16978544,-7.349682720000001,-11.36316484,79.26415184,0.2529217168,1.174972052,-1.025164876,-0.16080316420000007,0.2535585936,-0.005635920800000027
09:59:55,0.370984925,1.19741812,0.100234555,-0.20021991000000006,0.25782724999999995,-0.038640414999999984,-24.145275285,-7.37278983,-11.36543176,79.23569501,0.2522978452,1.1756280405,-1.02824924525,-0.156917754425,0.25480026040000003,-0.008047811200000032
09:59:55,0.37537665,1.19779316,0.09481298999999999,-0.19714638000000007,0.25897249999999994,-0.03644047,-24.12076513,-7.39589694,-11.36769868,79.20723818,0.2516739736,1.176284029,-1.0313336145,-0.15303234465000004,0.2560419272,-0.010459701600000038
09:59:55,0.37976837499999994,1.1981682,0.08939142499999997,-0.19407285000000007,0.26011775,-0.03424052500000002,-24.096254975,-7.41900405,-11.3699656,79.17878135,0.251050102,1.1769400175,-1.03441798375,-0.14914693487500008,0.257283594,-0.012871591999999987
09:59:55,0.3841601,1.19854324,0.08396985999999995,-0.19099932000000008,0.26126299999999997,-0.032040579999999985,-24.07174482,-7.44211116,-11.37223252,79.15032452,0.2504262304,1.177596006,-1.037502353,-0.1452615251,0.25852526080000005,-0.015283482399999992
09:59:55,0.38855182499999996,1.19891828,0.07854829500000005,-0.18792579000000004,0.26240824999999995,-0.029840635000000004,-24.047234664999998,-7.465218269999999,-11.374499440000001,79.12186769,0.24980235879999999,1.1782519945,-1.04058672225,-0.14137611532500005,0.2597669276,-0.017695372799999998
09:59:55,0.3929435499999999,1.19929332,0.07312673000000003,-0.18485226000000005,0.26355349999999994,-0.027640690000000023,-24.02272451,-7.48832538,-11.376766360000001,79.09341086,0.2491784872,1.178907983,-1.0436710915,-0.1374907055500001,0.2610085944,-0.020107263200000003
09:59:55,0.397335275,1.19966836,0.06770516500000001,-0.18177873000000005,0.26469875,-0.025440744999999987,-23.998214354999998,-7.51143249,-11.37903328,79.06495403,0.24855461559999997,1.1795639715,-1.04675546075,-0.13360529577500002,0.2622502612,-0.022519153600000008
09:59:55,0.40172699999999995,1.2000434,0.062283599999999995,-0.17870520000000006,0.26584399999999997,-0.023240800000000006,-23.9737042,-7.5345396000000004,-11.3813002,79.0364972,0.24793074399999998,1.18021996,-1.04983983,-0.12971988600000006,0.263491928,-0.024931044000000013
09:59:55,0.406118725,1.20041844,0.05686203499999998,-0.17563167000000007,0.26698924999999996,-0.021040855000000025,-23.949194045,-7.55764671,-11.38356712,79.00804037,0.2473068724,1.1808759485,-1.05292419925,-0.1258344762250001,0.2647335948,-0.02734293440000002
09:59:55,0.41051044999999997,1.20079348,0.05144046999999996,-0.17255814000000008,0.26813449999999994,-0.01884090999999999,-23.92468389,-7.58075382,-11.38583404,78.97958354,0.2466830008,1.181531937,-1.0560085685,-0.12194906645000003,0.2659752616,-0.029754824800000024
09:59:55,0.41490217499999993,1.20116852,0.04601890499999994,-0.16948461000000004,0.26927975,-0.016640965000000008,-23.900173735,-7.60386093,-11.388100960000001,78.95112671,0.2460591292,1.1821879255,-1.05909293775,-0.11806365667500007,0.2672169284,-0.03216671520000003
09:59:55,0.4192939,1.20154356,0.04059734000000004,-0.16641108000000004,0.27042499999999997,-0.014441020000000027,-23.87566358,-7.6269680399999995,-11.390367880000001,78.92266988,0.24543525759999998,1.182843914,-1.0621773070000002,-0.1141782469,0.26845859520000004,-0.034578605600000034
09:59:55,0.42368562499999995,1.2019186,0.03517577500000002,-0.16333755000000005,0.27157024999999996,-0.01224107499999999,-23.851153425,-7.65007515,-11.3926348,78.89421305,0.244811386,1.1834999025,-1.06526167625,-0.11029283712500004,0.269700262,-0.03699049600000004
09:59:55,0.42807735,1.20229364,0.029754210000000003,-0.16026402000000006,0.27271549999999994,-0.01004113000000001,-23.826643269999998,-7.67318226,-11.39490172,78.86575622,0.24418751439999997,1.184155891,-1.0683460455000002,-0.10640742735000008,0.2709419288,-0.03940238639999999
09:59:55,0.432469075,1.20266868,0.024332644999999986,-0.15719049000000007,0.27386075,-0.007841185000000028,-23.802133115,-7.696289370000001,-11.39716864,78.83729939,0.24356364279999998,1.1848118795,-1.07143041475,-0.10252201757500001,0.27218359560000005,-0.041814276799999994
09:59:55,0.43686079999999994,1.20304372,0.01891107999999997,-0.15411696000000008,0.275006,-0.005641239999999992,-23.77762296,-7.71939648,-11.39943556,78.80884256,0.2429397712,1.185467868,-1.0745147840000002,-0.09863660780000005,0.2734252624,-0.0442261672
09:59:55,0.441252525,1.20341876,0.013489514999999952,-0.1510434300000001,0.27615124999999996,-0.003441295000000011,-23.753112805,-7.74250359,-11.40170248,78.78038573,0.2423158996,1.1861238565,-1.07759915325,-0.0947511980250001,0.2746669292,-0.046638057600000005
09:59:55,0.44564424999999996,1.2037938,0.008067950000000046,-0.1479699000000001,0.27729649999999995,-0.00124135000000003,-23.72860265,-7.7656107,-11.403969400000001,78.7519289,0.241692028,1.186779845,-1.0806835225000002,-0.09086578825000002,0.275908596,-0.04904994800000001
09:59:55,0.4500359749999999,1.20416884,0.002646385000000029,-0.1448963700000001,0.27844174999999993,0.0009585950000000065,-23.704092494999998,-7.78871781,-11.406236320000001,78.72347207,0.24106815639999998,1.1874358335,-1.08376789175,-0.08698037847500006,0.2771502628,-0.051461838400000015
09:59:55,0.4544277,1.20454388,-0.002775179999999988,-0.14182284000000012,0.279587,0.0031585399999999875,-23.67958234,-7.811824919999999,-11.40850324,78.69501524,0.2404442848,1.188091822,-1.0868522610000002,-0.0830949687000001,0.27839192960000003,-0.05387372880000002
09:59:55,0.45881942499999995,1.20491892,-0.008196745000000005,-0.13874931000000001,0.28073224999999996,0.005358484999999968,-23.655072184999998,-7.83493203,-11.41077016,78.66655841,0.23982041319999997,1.1887478105,-1.08993663025,-0.07920955892500003,0.2796335964,-0.056285619200000025
09:59:55,0.46321115,1.2052939599999999,-0.013618310000000022,-0.13567578000000002,0.28187749999999995,0.007558430000000005,-23.63056203,-7.85803914,-11.41303708,78.63810158,0.23919654159999998,1.189403799,-1.0930209995000002,-0.07532414915000007,0.2808752632,-0.05869750960000003
09:59:55,0.467602875,1.2056689999999999,-0.01903987500000004,-0.13260225000000003,0.28302274999999993,0.009758374999999986,-23.606051875,-7.88114625,-11.415304,78.60964475,0.23857267,1.1900597875,-1.09610536875,-0.071438739375,0.28211693000000004,-0.061109400000000036
09:59:55,0.47199459999999993,1.2060440399999999,-0.024461439999999945,-0.12952872000000004,0.284168,0.011958319999999967,-23.581541719999997,-7.90425336,-11.417570920000001,78.58118792,0.2379487984,1.190715776,-1.0991897380000002,-0.06755332960000004,0.28335859680000003,-0.06352129040000004
09:59:55,0.476386325,1.2064190799999999,-0.029883004999999963,-0.12645519000000005,0.28531324999999996,0.014158265000000003,-23.557031565,-7.92736047,-11.419837840000001,78.55273109,0.2373249268,1.1913717645,-1.10227410725,-0.06366791982500009,0.2846002636,-0.06593318079999999
09:59:55,0.48077804999999996,1.2067941199999999,-0.03530456999999998,-0.12338166000000006,0.28645849999999995,0.016358209999999984,-23.53252141,-7.95046758,-11.42210476,78.52427426,0.23670105519999998,1.192027753,-1.1053584765000002,-0.059782510050000015,0.28584193040000005,-0.0683450712
09:59:55,0.485169775,1.2071691599999999,-0.040726135,-0.12030813000000007,0.28760374999999994,0.01855815500000002,-23.508011255,-7.97357469,-11.42437168,78.49581743,0.2360771836,1.1926837415,-1.10844284575,-0.055897100275000056,0.2870835972,-0.0707569616
09:59:55,0.4895615,1.2075441999999998,-0.046147700000000014,-0.11723460000000008,0.288749,0.0207581,-23.483501099999998,-7.9966818,-11.4266386,78.4673606,0.23545331199999997,1.19333973,-1.1115272150000002,-0.052011690500000096,0.288325264,-0.073168852
09:59:55,0.49395322499999994,1.2079192399999998,-0.05156926500000003,-0.11416107000000009,0.28989424999999996,0.022958044999999982,-23.458990945,-8.019788909999999,-11.42890552,78.43890377,0.23482944039999998,1.1939957185,-1.11461158425,-0.048126280725000026,0.2895669308,-0.07558074240000001
09:59:55,0.49834495,1.2082942799999998,-0.05699083000000005,-0.1110875400000001,0.29103949999999995,0.02515799000000002,-23.43448079,-8.04289602,-11.431172440000001,78.41044694,0.23420556879999999,1.194651707,-1.1176959535000002,-0.044240870950000066,0.2908085976,-0.07799263280000002
09:59:55,0.502736675,1.2086693199999998,-0.062412394999999954,-0.1080140100000001,0.29218474999999994,0.027357935,-23.409970635,-8.06600313,-11.433439360000001,78.38199011,0.2335816972,1.1953076955,-1.12078032275,-0.04035546117500011,0.29205026440000004,-0.08040452320000002
09:59:55,0.5071283999999999,1.20904436,-0.06783395999999997,-0.10494048000000011,0.29333,0.02955787999999998,-23.38546048,-8.08911024,-11.43570628,78.35353328,0.2329578256,1.195963684,-1.1238646920000002,-0.036470051400000036,0.2932919312,-0.08281641360000003
09:59:55,0.511520125,1.2094194,-0.0732555250000001,-0.10186695000000012,0.29447524999999997,0.03175782500000002,-23.360950324999997,-8.11221735,-11.4379732,78.32507645,0.23233395399999998,1.1966196725,-1.1269490612500002,-0.03258464162500008,0.294533598,-0.08522830400000003
09:59:55,0.51591185,1.20979444,-0.0786770899999999,-0.09879342000000002,0.29562049999999995,0.03395777,-23.33644017,-8.13532446,-11.44024012,78.29661962,0.2317100824,1.197275661,-1.1300334305000002,-0.028699231850000007,0.29577526480000005,-0.08764019440000004
09:59:55,0.520303575,1.21016948,-0.08409865499999991,-0.09571989000000003,0.29676574999999994,0.03615771499999998,-23.311930014999998,-8.158431570000001,-11.44250704,78.26816279,0.23108621079999997,1.1979316495,-1.1331177997500002,-0.024813822075000047,0.2970169316,-0.09005208479999999
09:59:55,0.5246953,1.21054452,-0.08952021999999993,-0.09264636000000004,0.297911,0.038357660000000016,-23.28741986,-8.18153868,-11.444773960000001,78.23970596,0.23046233919999998,1.198587638,-1.1362021690000002,-0.020928412300000088,0.2982585984,-0.09246397519999999
09:59:55,0.5290870249999999,1.21091956,-0.09494178499999995,-0.08957283000000005,0.29905624999999997,0.040557605,-23.262909705,-8.20464579,-11.447040880000001,78.21124913,0.22983846759999998,1.1992436265,-1.1392865382500001,-0.017043002525000017,0.2995002652,-0.0948758656
09:59:55,0.53347875,1.2112946,-0.10036334999999996,-0.08649930000000006,0.30020149999999995,0.04275754999999998,-23.23839955,-8.227752899999999,-11.449307800000001,78.1827923,0.229214596,1.199899615,-1.1423709075000001,-0.013157592750000058,0.300741932,-0.097287756
09:59:55,0.537870475,1.21166964,-0.10578491499999998,-0.08342577000000007,0.30134674999999994,0.044957495000000014,-23.213889395,-8.25086001,-11.45157472,78.15433547,0.2285907244,1.2005556035,-1.1454552767500001,-0.009272182975000098,0.30198359880000003,-0.09969964640000001
09:59:55,0.5422622,1.21204468,-0.11120648,-0.08035224000000007,0.302492,0.047157439999999995,-23.18937924,-8.27396712,-11.45384164,78.12587864,0.22796685279999998,1.201211592,-1.1485396460000001,-0.005386773200000028,0.3032252656,-0.10211153680000001
09:59:55,0.546653925,1.21241972,-0.11662804500000001,-0.07727871000000008,0.30363724999999997,0.049357384999999976,-23.164869085,-8.29707423,-11.45610856,78.09742181,0.2273429812,1.2018675805,-1.1516240152500001,-0.0015013634250000685,0.3044669324,-0.10452342720000002
09:59:55,0.5510456499999999,1.21279476,-0.12204961000000003,-0.07420518000000009,0.30478249999999996,0.05155733000000001,-23.140358929999998,-8.320181340000001,-11.45837548,78.06896498,0.22671910959999997,1.202523569,-1.1547083845000001,0.002384046349999891,0.30570859920000004,-0.10693531760000002
09:59:55,0.555437375,1.2131698,-0.12747117500000005,-0.0711316500000001,0.30592774999999994,0.05375727499999999,-23.115848775,-8.34328845,-11.460642400000001,78.04050815,0.22609523799999998,1.2031795575,-1.1577927537500001,0.006269456124999961,0.306950266,-0.10934720800000003
09:59:55,0.5598291,1.21354484,-0.13289274000000006,-0.06805812000000011,0.30707299999999993,0.055957219999999974,-23.09133862,-8.36639556,-11.462909320000001,78.01205132,0.22547136639999998,1.203835546,-1.1608771230000001,0.01015486589999992,0.3081919328,-0.11175909840000003
09:59:55,0.5642208249999999,1.21391988,-0.13831430500000008,-0.06498459000000012,0.30821824999999997,0.05815716500000001,-23.066828465,-8.389502669999999,-11.46517624,77.98359449,0.2248474948,1.2044915345,-1.1639614922500001,0.014040275674999991,0.30943359960000005,-0.11417098880000004
09:59:55,0.56861255,1.21429492,-0.1437358700000001,-0.06191106000000013,0.30936349999999996,0.06035710999999999,-23.04231831,-8.41260978,-11.46744316,77.95513766,0.2242236232,1.205147523,-1.1670458615000001,0.01792568544999995,0.3106752664,-0.11658287919999999
09:59:55,0.573004275,1.21466996,-0.1491574349999999,-0.05883753000000003,0.31050874999999994,0.06255705499999997,-23.017808154999997,-8.43571689,-11.46971008,77.92668083,0.2235997516,1.2058035115,-1.17013023075,0.02181109522499991,0.3119169332,-0.1189947696
09:59:56,0.577396,1.215045,-0.154579,-0.055764,0.311654,0.064757,-22.993298,-8.458824,-11.471977,77.898224,0.22297588,1.2064595,-1.1732146,0.025696505,0.3131586,-0.12140666
09:59:56,0.577095365,1.209366765,-0.156622035,-0.05704242,0.31020513,0.06448533499999999,-22.97065649,-8.462453245,-11.459457545000001,77.92216288,0.2211820067,1.20064953144,-1.169867675,0.024677618275,0.3117468607,-0.1196163251
09:59:56,0.57679473,1.20368853,-0.15866507,-0.05832084,0.30875626,0.06421367,-22.94801498,-8.46608249,-11.446938090000002,77.94610176,0.2193881334,1.19483956288,-1.16652075,0.023658731550000003,0.3103351214,-0.1178259902
09:59:56,0.576494095,1.198010295,-0.160708105,-0.05959926,0.30730739,0.063942005,-22.92537347,-8.469711735,-11.434418635,77.97004064,0.2175942601,1.18902959432,-1.163173825,0.022639844825,0.30892338210000003,-0.1160356553
09:59:56,0.57619346,1.19233206,-0.16275114,-0.06087768,0.30585851999999997,0.06367033999999999,-22.90273196,-8.47334098,-11.42189918,77.99397952,0.2158003868,1.18321962576,-1.1598269,0.0216209581,0.3075116428,-0.1142453204
09:59:56,0.575892825,1.1866538249999998,-0.164794175,-0.062156100000000006,0.30440965,0.063398675,-22.88009045,-8.476970225,-11.409379725,78.0179184,0.2140065135,1.1774096572000001,-1.156479975,0.020602071375000003,0.3060999035,-0.1124549855
09:59:56,0.5755921900000001,1.1809755899999999,-0.16683720999999999,-0.06343452000000001,0.30296078,0.06312701,-22.857448939999998,-8.48059947,-11.396860270000001,78.04185728,0.2122126402,1.17159968864,-1.15313305,0.019583184650000002,0.3046881642,-0.1106646506
09:59:56,0.5752915550000001,1.1752973549999999,-0.16888024499999998,-0.06471294,0.30151191,0.06285534499999999,-22.834807429999998,-8.484228715,-11.384340815000002,78.06579616,0.2104187669,1.16578972008,-1.149786125,0.018564297925,0.3032764249,-0.1088743157
09:59:56,0.5749909200000001,1.16961912,-0.17092327999999998,-0.06599136,0.30006304,0.06258367999999999,-22.812165919999998,-8.48785796,-11.37182136,78.08973504,0.20862489359999997,1.15997975152,-1.1464392,0.0175454112,0.3018646856,-0.1070839808
09:59:56,0.574690285,1.163940885,-0.17296631499999998,-0.06726978,0.29861417,0.062312015,-22.78952441,-8.491487205,-11.359301905,78.11367392,0.2068310203,1.15416978296,-1.143092275,0.016526524475000002,0.3004529463,-0.1052936459
09:59:56,0.57438965,1.15826265,-0.17500935,-0.0685482,0.29716529999999997,0.062040349999999994,-22.7668829,-8.49511645,-11.346782450000001,78.1376128,0.20503714699999998,1.1483598144,-1.13974535,0.01550763775,0.29904120700000003,-0.103503311
09:59:56,0.574089015,1.152584415,-0.17705238499999998,-0.06982662,0.29571643,0.061768685,-22.74424139,-8.498745695,-11.334262995000001,78.16155168,0.20324327369999998,1.14254984584,-1.136398425,0.014488751025000001,0.2976294677,-0.10171297609999999
09:59:56,0.57378838,1.14690618,-0.17909542,-0.07110504000000001,0.29426756,0.06149701999999999,-22.72159988,-8.50237494,-11.32174354,78.18549056,0.20144940039999998,1.13673987728,-1.1330515,0.013469864300000002,0.2962177284,-0.0999226412
09:59:56,0.573487745,1.141227945,-0.181138455,-0.07238346000000001,0.29281869,0.061225354999999995,-22.69895837,-8.506004185,-11.309224085,78.20942944,0.19965552709999998,1.13092990872,-1.129704575,0.012450977575000001,0.2948059891,-0.0981323063
09:59:56,0.57318711,1.1355497099999998,-0.18318149,-0.07366188,0.29136982,0.06095369,-22.67631686,-8.50963343,-11.29670463,78.23336832,0.19786165379999998,1.12511994016,-1.12635765,0.011432090850000002,0.2933942498,-0.0963419714
09:59:56,0.572886475,1.1298714749999998,-0.185224525,-0.0749403,0.28992095,0.060682024999999994,-22.65367535,-8.513262675,-11.284185175000001,78.2573072,0.19606778049999998,1.1193099716,-1.123010725,0.010413204125,0.2919825105,-0.0945516365
09:59:56,0.57258584,1.1241932399999999,-0.18726756,-0.07621872,0.28847207999999996,0.060410359999999996,-22.63103384,-8.516891919999999,-11.271665720000001,78.28124608,0.19427390719999998,1.11350000304,-1.1196638,0.009394317400000001,0.2905707712,-0.0927613016
09:59:56,0.572285205,1.118515005,-0.189310595,-0.07749714,0.28702321,0.06013869499999999,-22.60839233,-8.520521165,-11.259146265,78.30518496,0.19248003389999999,1.10769003448,-1.116316875,0.008375430675,0.28915903190000003,-0.0909709667
09:59:56,0.57198457,1.11283677,-0.19135363,-0.07877556000000001,0.28557434,0.059867029999999995,-22.585750819999998,-8.52415041,-11.24662681,78.32912384,0.1906861606,1.10188006592,-1.11296995,0.007356543950000002,0.2877472926,-0.0891806318
09:59:56,0.571683935,1.107158535,-0.193396665,-0.08005398,0.28412547,0.059595365,-22.563109309999998,-8.527779655,-11.234107355,78.35306272,0.1888922873,1.09607009736,-1.109623025,0.006337657225000001,0.2863355533,-0.0873902969
09:59:56,0.5713833,1.1014803,-0.1954397,-0.0813324,0.2826766,0.05932369999999999,-22.5404678,-8.5314089,-11.221587900000001,78.3770016,0.187098414,1.0902601288,-1.1062761,0.0053187705,0.284923814,-0.085599962
09:59:56,0.571082665,1.095802065,-0.197482735,-0.08261082,0.28122773,0.059052034999999996,-22.51782629,-8.535038145,-11.209068445,78.40094048,0.1853045407,1.08445016024,-1.102929175,0.0042998837750000025,0.2835120747,-0.0838096271
09:59:56,0.57078203,1.09012383,-0.19952577,-0.08388924,0.27977885999999996,0.05878037,-22.49518478,-8.53866739,-11.19654899,78.42487936,0.1835106674,1.07864019168,-1.09958225,0.0032809970500000014,0.2821003354,-0.0820192922
09:59:56,0.5704813950000001,1.084445595,-0.201568805,-0.08516766,0.27832998999999997,0.058508704999999994,-22.47254327,-8.542296635,-11.184029535,78.44881824,0.18171679409999997,1.07283022312,-1.096235325,0.0022621103250000003,0.2806885961,-0.0802289573
09:59:56,0.5701807600000001,1.07876736,-0.20361184,-0.08644608000000001,0.27688112,0.05823704,-22.44990176,-8.54592588,-11.171510080000001,78.47275712,0.1799229208,1.06702025456,-1.0928884,0.0012432236000000027,0.27927685680000003,-0.07843862239999999
09:59:56,0.5698801250000001,1.0730891249999999,-0.205654875,-0.08772450000000001,0.27543225,0.05796537499999999,-22.42726025,-8.549555125,-11.158990625000001,78.496696,0.17812904749999997,1.0612102860000001,-1.089541475,0.0002243368750000016,0.2778651175,-0.0766482875
09:59:56,0.56957949,1.06741089,-0.20769790999999999,-0.08900292000000001,0.27398338,0.057693709999999995,-22.40461874,-8.55318437,-11.14647117,78.52063488,0.1763351742,1.05540031744,-1.08619455,-0.0007945498499999995,0.2764533782,-0.0748579526
09:59:56,0.569278855,1.061732655,-0.20974094499999998,-0.09028134000000002,0.27253451,0.057422045,-22.38197723,-8.556813615,-11.133951715,78.54457376,0.17454130089999997,1.04959034888,-1.082847625,-0.0018134365750000006,0.2750416389,-0.0730676177
09:59:56,0.56897822,1.05605442,-0.21178397999999998,-0.09155976,0.27108564,0.057150379999999994,-22.35933572,-8.56044286,-11.12143226,78.56851264,0.17274742759999998,1.04378038032,-1.0795007,-0.0028323232999999982,0.2736298996,-0.0712772828
09:59:56,0.568677585,1.050376185,-0.21382701499999998,-0.09283818,0.26963676999999997,0.056878714999999996,-22.33669421,-8.564072105,-11.108912805000001,78.59245152,0.17095355429999998,1.03797041176,-1.076153775,-0.0038512100249999993,0.2722181603,-0.0694869479
09:59:56,0.56837695,1.04469795,-0.21587004999999998,-0.09411660000000001,0.2681879,0.05660704999999999,-22.314052699999998,-8.56770135,-11.096393350000001,78.6163904,0.16915968099999998,1.0321604432,-1.07280685,-0.0048700967500000004,0.270806421,-0.06769661299999999
09:59:56,0.568076315,1.039019715,-0.217913085,-0.09539502,0.26673903,0.056335384999999995,-22.291411189999998,-8.571330595,-11.083873895,78.64032928,0.16736580769999998,1.02635047464,-1.069459925,-0.005888983474999998,0.2693946817,-0.0659062781
09:59:56,0.56777568,1.03334148,-0.21995611999999998,-0.09667344,0.26529016,0.05606372,-22.26876968,-8.57495984,-11.07135444,78.66426816,0.16557193439999998,1.02054050608,-1.066113,-0.006907870199999999,0.2679829424,-0.0641159432
09:59:56,0.567475045,1.0276632449999998,-0.221999155,-0.09795186,0.26384129,0.05579205499999999,-22.24612817,-8.578589084999999,-11.058834985,78.68820704,0.16377806109999998,1.01473053752,-1.062766075,-0.007926756925,0.2665712031,-0.062325608299999995
09:59:56,0.56717441,1.0219850099999999,-0.22404218999999997,-0.09923028,0.26239241999999996,0.055520389999999996,-22.22348666,-8.58221833,-11.046315530000001,78.71214592,0.16198418779999998,1.00892056896,-1.05941915,-0.008945643650000001,0.2651594638,-0.0605352734
09:59:56,0.566873775,1.0163067749999999,-0.226085225,-0.1005087,0.26094354999999997,0.055248725,-22.20084515,-8.585847575,-11.033796075,78.7360848,0.1601903145,1.0031106003999999,-1.056072225,-0.009964530375000002,0.2637477245,-0.058744938499999996
09:59:56,0.56657314,1.01062854,-0.22812825999999997,-0.10178712000000001,0.25949468,0.054977059999999994,-22.17820364,-8.58947682,-11.02127662,78.76002368,0.1583964412,0.99730063184,-1.0527253,-0.010983417099999997,0.2623359852,-0.0569546036
09:59:56,0.566272505,1.004950305,-0.230171295,-0.10306554000000001,0.25804581,0.054705395,-22.15556213,-8.593106065,-11.008757165,78.78396256,0.1566025679,0.99149066328,-1.049378375,-0.012002303824999998,0.2609242459,-0.05516426869999999
09:59:56,0.56597187,0.99927207,-0.23221433,-0.10434396000000001,0.25659694,0.05443373,-22.13292062,-8.59673531,-10.99623771,78.80790144,0.15480869459999996,0.98568069472,-1.04603145,-0.013021190549999999,0.2595125066,-0.053373933799999995
09:59:56,0.565671235,0.993593835,-0.234257365,-0.10562238000000002,0.25514807,0.054162064999999995,-22.11027911,-8.600364555,-10.983718255000001,78.83184032,0.1530148213,0.9798707261599999,-1.042684525,-0.014040077275,0.2581007673,-0.0515835989
09:59:56,0.5653706000000001,0.9879156,-0.2363004,-0.10690080000000002,0.2536992,0.0538904,-22.0876376,-8.6039938,-10.9711988,78.8557792,0.15122094799999997,0.9740607576,-1.0393376,-0.015058964000000001,0.256689028,-0.049793264000000004
09:59:56,0.5650699650000001,0.9822373649999999,-0.238343435,-0.10817922,0.25225032999999997,0.053618734999999994,-22.06499609,-8.607623045,-10.958679345,78.87971808,0.1494270747,0.96825078904,-1.035990675,-0.016077850725000002,0.2552772887,-0.048002929099999994
09:59:56,0.56476933,0.9765591299999999,-0.24038647,-0.10945764000000001,0.25080146,0.053347069999999996,-22.042354579999998,-8.61125229,-10.94615989,78.90365696,0.14763320139999997,0.96244082048,-1.03264375,-0.017096737449999996,0.2538655494,-0.0462125942
09:59:56,0.564468695,0.970880895,-0.242429505,-0.11073606000000001,0.24935258999999999,0.05307540499999999,-22.019713069999998,-8.614881535,-10.933640435000001,78.92759584,0.1458393281,0.95663085192,-1.029296825,-0.018115624174999997,0.2524538101,-0.0444222593
09:59:56,0.56416806,0.96520266,-0.24447254,-0.11201448,0.24790372,0.052803739999999995,-21.99707156,-8.61851078,-10.921120980000001,78.95153472,0.14404545479999997,0.95082088336,-1.0259499,-0.0191345109,0.2510420708,-0.04263192439999999
09:59:56,0.563867425,0.9595244249999999,-0.246515575,-0.1132929,0.24645485,0.052532075,-21.97443005,-8.622140025,-10.908601525,78.9754736,0.14225158149999997,0.9450109148,-1.022602975,-0.020153397625,0.24963033150000002,-0.0408415895
09:59:56,0.56356679,0.9538461899999999,-0.24855860999999999,-0.11457132,0.24500598,0.05226040999999999,-21.95178854,-8.62576927,-10.89608207,78.99941248,0.14045770819999998,0.93920094624,-1.01925605,-0.02117228435,0.2482185922,-0.0390512546
09:59:56,0.563266155,0.948167955,-0.250601645,-0.11584974,0.24355711,0.051988744999999996,-21.92914703,-8.629398515,-10.883562615,79.02335136,0.13866383489999998,0.93339097768,-1.015909125,-0.022191171075000002,0.2468068529,-0.03726091969999999
09:59:56,0.56296552,0.94248972,-0.25264467999999995,-0.11712816000000001,0.24210823999999997,0.05171708,-21.90650552,-8.63302776,-10.871043160000001,79.04729024,0.13686996159999998,0.92758100912,-1.0125622,-0.023210057799999996,0.2453951136,-0.035470584799999996
09:59:56,0.562664885,0.936811485,-0.254687715,-0.11840658000000001,0.24065936999999998,0.051445414999999994,-21.88386401,-8.636657005,-10.858523705,79.07122912,0.13507608829999998,0.9217710405599999,-1.009215275,-0.024228944524999997,0.2439833743,-0.0336802499
09:59:56,0.56236425,0.93113325,-0.25673075,-0.11968500000000001,0.2392105,0.05117375,-21.8612225,-8.640286249999999,-10.84600425,79.095168,0.13328221499999998,0.915961072,-1.00586835,-0.025247831249999998,0.242571635,-0.03188991499999999
09:59:56,0.562063615,0.9254550149999999,-0.258773785,-0.12096342000000002,0.23776163,0.050902085,-21.83858099,-8.643915495,-10.833484795,79.11910688,0.13148834169999998,0.91015110344,-1.002521425,-0.026266717975,0.24115989570000002,-0.030099580099999995
09:59:56,0.56176298,0.91977678,-0.26081682,-0.12224184000000002,0.23631276,0.050630419999999995,-21.81593948,-8.64754474,-10.82096534,79.14304576,0.12969446839999998,0.9043411348799999,-0.9991745000000001,-0.0272856047,0.23974815640000002,-0.0283092452
09:59:56,0.561462345,0.914098545,-0.262859855,-0.12352026000000002,0.23486389,0.050358755,-21.793297969999998,-8.651173985,-10.808445885000001,79.16698464,0.12790059509999996,0.89853116632,-0.9958275750000001,-0.028304491425,0.2383364171,-0.02651891029999999
09:59:56,0.56116171,0.9084203099999999,-0.26490289,-0.12479868000000002,0.23341501999999997,0.050087089999999994,-21.770656459999998,-8.65480323,-10.79592643,79.19092352,0.1261067218,0.89272119776,-0.9924806500000001,-0.029323378150000003,0.2369246778,-0.024728575399999994
09:59:56,0.560861075,0.9027420749999999,-0.266945925,-0.1260771,0.23196614999999998,0.049815424999999997,-21.748014949999998,-8.658432475,-10.783406975,79.2148624,0.12431284849999998,0.8869112292,-0.9891337250000001,-0.030342264874999997,0.2355129385,-0.0229382405
09:59:56,0.56056044,0.89706384,-0.26898896,-0.12735552,0.23051728,0.04954375999999999,-21.72537344,-8.66206172,-10.77088752,79.23880128,0.12251897519999998,0.8811012606399999,-0.9857868000000001,-0.0313611516,0.2341011992,-0.02114790559999999
09:59:56,0.560259805,0.891385605,-0.27103199499999997,-0.12863394,0.22906841,0.049272094999999995,-21.70273193,-8.665690965,-10.758368065,79.26274016,0.12072510189999998,0.87529129208,-0.9824398750000001,-0.032380038325,0.2326894599,-0.019357570699999993
09:59:56,0.5599591700000001,0.88570737,-0.27307503,-0.12991236,0.22761954,0.04900043,-21.68009042,-8.66932021,-10.745848610000001,79.28667904,0.11893122859999998,0.86948132352,-0.9790929500000001,-0.03339892505,0.23127772060000001,-0.017567235799999997
09:59:56,0.559658535,0.880029135,-0.275118065,-0.13119078,0.22617067,0.04872876499999999,-21.65744891,-8.672949455,-10.733329155,79.31061792,0.11713735529999998,0.8636713549599999,-0.9757460250000001,-0.034417811775,0.22986598130000002,-0.0157769009
09:59:56,0.5593579,0.8743509,-0.2771611,-0.1324692,0.2247218,0.048457099999999996,-21.6348074,-8.6765787,-10.7208097,79.3345568,0.11534348199999997,0.8578613864,-0.9723991000000001,-0.0354366985,0.228454242,-0.013986565999999992
09:59:56,0.559057265,0.868672665,-0.27920413499999996,-0.13374762,0.22327292999999998,0.048185435,-21.61216589,-8.680207945,-10.708290245,79.35849568,0.11354960869999997,0.85205141784,-0.9690521750000001,-0.036455585224999996,0.2270425027,-0.012196231099999996
09:59:56,0.55875663,0.86299443,-0.28124717,-0.13502604,0.22182406,0.047913769999999994,-21.58952438,-8.68383719,-10.695770790000001,79.38243456000001,0.11175573539999997,0.8462414492799999,-0.9657052500000001,-0.03747447195,0.2256307634,-0.0104058962
09:59:56,0.558455995,0.8573161949999999,-0.283290205,-0.13630446000000002,0.22037519,0.047642105,-21.56688287,-8.687466435,-10.683251335,79.40637344,0.10996186209999997,0.84043148072,-0.9623583250000001,-0.038493358675,0.2242190241,-0.008615561299999991
