Timestamp,linacce_x,linacce_y,linacce_z,gyro_x,gyro_y,gyro_z,X-magnetometer,Y-magnetometer,Z-magnetometer,Yaw, worldXAccel,worldYAccel,worldZAccel,worldXgyro,worldYgyro,worldZgyro
03:27:29,-0.009269,-0.108284,-0.237473,-0.011354,-0.127712,-0.419073,-6.683628,30.25753,-32.512413,6.6067424,-0.16824691,-0.11529097,-0.1605434,-0.291187,-0.14032367,-0.29208502
03:27:29,-0.01329997,-0.09680784,-0.23040603499999998,-0.010821325,-0.12790909,-0.414944775,-6.700035795,30.251569135,-32.511517385000005,6.6501328079999995,-0.16649153005,-0.10419024115,-0.1548750897,-0.28791323375,-0.14051895415000001,-0.2894408643
03:27:29,-0.01733094,-0.08533168000000001,-0.22333907,-0.01028865,-0.12810618,-0.41081654999999995,-6.71644359,30.245608269999998,-32.51062177,6.693523216,-0.1647361501,-0.09308951230000001,-0.1492067794,-0.28463946749999997,-0.14071423830000002,-0.28679670859999995
03:27:29,-0.021361909999999998,-0.07385552000000001,-0.216272105,-0.009755975,-0.12830327,-0.40668832499999996,-6.732851385,30.239647405,-32.509726155,6.736913624,-0.16298077015,-0.08198878345,-0.1435384691,-0.28136570125,-0.14090952245000002,-0.28415255289999997
03:27:29,-0.02539288,-0.06237936000000001,-0.20920513999999998,-0.0092233,-0.12850035999999998,-0.4025601,-6.749259179999999,30.23368654,-32.508830540000005,6.780304032,-0.1612253902,-0.0708880546,-0.1378701588,-0.27809193499999996,-0.14110480660000002,-0.2815083972
03:27:29,-0.02942385,-0.05090320000000001,-0.20213817499999998,-0.008690625,-0.12869745,-0.398431875,-6.765666974999999,30.227725675,-32.507934925,6.82369444,-0.15947001025,-0.059787325749999995,-0.1322018485,-0.27481816875,-0.14130009075000002,-0.2788642415
03:27:29,-0.033454819999999996,-0.03942704000000001,-0.19507121,-0.008157949999999999,-0.12889454,-0.39430364999999995,-6.7820747699999995,30.22176481,-32.50703931,6.867084848,-0.1577146303,-0.048686596900000004,-0.12653353820000002,-0.2715444025,-0.1414953749,-0.27622008579999996
03:27:29,-0.03748579,-0.02795088000000001,-0.188004245,-0.007625274999999999,-0.12909162999999999,-0.39017542499999996,-6.798482565,30.215803944999998,-32.506143695,6.910475256,-0.15595925035,-0.03758586805,-0.12086522790000001,-0.26827063624999997,-0.14169065905,-0.2735759301
03:27:29,-0.04151676,-0.016474720000000012,-0.18093727999999998,-0.007092599999999999,-0.12928872,-0.3860472,-6.81489036,30.20984308,-32.50524808,6.953865664,-0.1542038704,-0.026485139199999994,-0.1151969176,-0.26499687,-0.1418859432,-0.2709317744
03:27:29,-0.04554773,-0.004998560000000013,-0.173870315,-0.0065599249999999994,-0.12948580999999998,-0.381918975,-6.831298155,30.203882215,-32.504352465000004,6.997256072,-0.15244849045,-0.015384410349999988,-0.1095286073,-0.26172310374999996,-0.14208122735,-0.26828761869999995
03:27:29,-0.0495787,0.006477599999999986,-0.16680335,-0.00602725,-0.1296829,-0.37779074999999995,-6.84770595,30.197921349999998,-32.50345685,7.0406464799999995,-0.1506931105,-0.004283681499999983,-0.103860297,-0.2584493375,-0.1422765115,-0.26564346299999997
03:27:29,-0.05360967,0.01795375999999997,-0.15973638499999998,-0.005494574999999999,-0.12987999,-0.37366252499999997,-6.864113745,30.191960485,-32.502561235,7.084036888,-0.14893773055,0.006817047350000008,-0.09819198670000001,-0.25517557124999996,-0.14247179565,-0.2629993073
03:27:29,-0.05764064,0.029429919999999984,-0.15266942,-0.004961899999999999,-0.13007707999999998,-0.3695343,-6.88052154,30.18599962,-32.501665620000004,7.1274272960000005,-0.1471823506,0.0179177762,-0.0925236764,-0.251901805,-0.1426670798,-0.2603551516
03:27:29,-0.06167161,0.04090608,-0.14560245499999996,-0.004429224999999999,-0.13027417,-0.365406075,-6.896929334999999,30.180038754999998,-32.500770005,7.170817704,-0.14542697065,0.029018505050000018,-0.0868553661,-0.24862803874999997,-0.14286236395000002,-0.25771099589999996
03:27:29,-0.06570258,0.05238223999999998,-0.13853548999999998,-0.0038965499999999986,-0.13047126,-0.36127784999999996,-6.9133371299999995,30.17407789,-32.49987439,7.214208112,-0.1436715907,0.04011923390000001,-0.0811870558,-0.24535427249999997,-0.14305764810000002,-0.2550668402
03:27:29,-0.06973355,0.06385839999999997,-0.13146852499999997,-0.003363874999999999,-0.13066835,-0.35714962499999997,-6.929744925,30.168117025,-32.498978775000005,7.25759852,-0.14191621075,0.05121996275000003,-0.07551874550000001,-0.24208050624999997,-0.14325293225000002,-0.2524226845
03:27:29,-0.07376452,0.07533455999999998,-0.12440155999999998,-0.002831199999999999,-0.13086544,-0.3530214,-6.94615272,30.16215616,-32.49808316,7.300988928,-0.1401608308,0.06232069160000002,-0.0698504352,-0.23880673999999996,-0.14344821640000002,-0.24977852879999998
03:27:29,-0.07779549,0.08681072,-0.11733459499999999,-0.002298524999999999,-0.13106252999999998,-0.34889317499999994,-6.962560515,30.156195295,-32.497187545,7.344379336,-0.13840545085,0.07342142045000001,-0.0641821249,-0.23553297374999999,-0.14364350055,-0.24713437309999997
03:27:29,-0.08182646,0.09828687999999998,-0.11026762999999998,-0.0017658499999999994,-0.13125962,-0.34476494999999996,-6.97896831,30.150234429999998,-32.496291930000005,7.387769744,-0.1366500709,0.08452214930000003,-0.058513814600000005,-0.23225920749999998,-0.1438387847,-0.2444902174
03:27:29,-0.08585743,0.10976303999999996,-0.10320066499999997,-0.0012331749999999995,-0.13145671,-0.340636725,-6.995376105,30.144273565,-32.495396315,7.431160152,-0.13489469095,0.09562287815000002,-0.05284550430000001,-0.22898544124999998,-0.14403406885,-0.24184606169999998
03:27:29,-0.08988840000000001,0.12123919999999998,-0.09613369999999999,-0.0007004999999999997,-0.1316538,-0.3365085,-7.011783899999999,30.1383127,-32.4945007,7.47455056,-0.133139311,0.10672360700000004,-0.047177194000000006,-0.22571167499999997,-0.144229353,-0.23920190599999996
03:27:29,-0.09391937,0.13271536,-0.08906673499999998,-0.00016782499999999818,-0.13185089,-0.332380275,-7.028191694999999,30.132351834999998,-32.493605085,7.517940968,-0.13138393105,0.11782433585000003,-0.0415088837,-0.22243790874999997,-0.14442463715,-0.23655775029999998
03:27:29,-0.09795034,0.14419151999999996,-0.08199976999999997,0.00036485000000000163,-0.13204797999999998,-0.32825204999999996,-7.0445994899999995,30.12639097,-32.49270947,7.561331376,-0.1296285511,0.12892506470000004,-0.035840573400000006,-0.2191641425,-0.1446199213,-0.23391359459999997
03:27:29,-0.10198131,0.15566767999999997,-0.07493280499999996,0.0008975250000000014,-0.13224507,-0.324123825,-7.061007285,30.120430105,-32.491813855000004,7.604721784,-0.12787317115,0.14002579355000006,-0.030172263100000013,-0.21589037624999996,-0.14481520545,-0.23126943889999999
03:27:29,-0.10601228,0.16714384,-0.06786583999999998,0.0014302000000000013,-0.13244216,-0.31999559999999994,-7.07741508,30.11446924,-32.49091824,7.648112192,-0.1261177912,0.15112652240000002,-0.024503952800000006,-0.21261660999999998,-0.14501048960000001,-0.22862528319999997
03:27:29,-0.11004325,0.17862,-0.060798874999999974,0.001962875000000001,-0.13263925,-0.31586737499999995,-7.093822875,30.108508375,-32.490022625,7.6915026,-0.12436241125,0.16222725125000004,-0.0188356425,-0.20934284374999998,-0.14520577375000002,-0.2259811275
03:27:29,-0.11407422,0.19009616000000001,-0.053731909999999966,0.002495550000000001,-0.13283634,-0.31173914999999996,-7.11023067,30.10254751,-32.489127010000004,7.734893008,-0.1226070313,0.17332798010000006,-0.013167332199999993,-0.20606907749999998,-0.14540105790000002,-0.22333697179999998
03:27:29,-0.11810519,0.20157231999999997,-0.046664944999999985,0.0030282250000000007,-0.13303342999999998,-0.307610925,-7.126638465,30.096586645,-32.488231395,7.778283416,-0.12085165135,0.18442870895000008,-0.0074990219000000136,-0.20279531124999997,-0.14559634205000002,-0.22069281609999997
03:27:29,-0.12213616,0.21304847999999998,-0.03959797999999998,0.0035609000000000023,-0.13323052,-0.3034827,-7.14304626,30.09062578,-32.48733578,7.821673824,-0.11909627140000001,0.19552943780000004,-0.0018307116000000068,-0.19952154499999997,-0.14579162620000002,-0.21804866039999998
03:27:29,-0.12616713000000002,0.22452464,-0.03253101499999997,0.004093575000000002,-0.13342761,-0.29935447499999995,-7.159454054999999,30.084664914999998,-32.486440165000005,7.865064232,-0.11734089145,0.20663016665000006,0.0038375987,-0.19624777875,-0.14598691035,-0.21540450469999997
03:27:29,-0.13019809999999998,0.23600079999999996,-0.02546404999999996,0.004626250000000002,-0.13362469999999999,-0.29522624999999997,-7.1758618499999995,30.07870405,-32.48554455,7.90845464,-0.1155855115,0.21773089550000008,0.009505908999999979,-0.19297401249999996,-0.1461821945,-0.21276034899999996
03:27:29,-0.13422907,0.24747695999999997,-0.01839708499999998,0.005158925000000002,-0.13382179,-0.291098025,-7.192269645,30.072743185,-32.484648935,7.951845048,-0.11383013154999999,0.22883162435000004,0.015174219299999986,-0.18970024624999998,-0.14637747865,-0.21011619329999998
03:27:29,-0.13826004,0.25895312,-0.011330119999999971,0.0056916000000000015,-0.13401888,-0.28696979999999994,-7.20867744,30.066782319999998,-32.48375332,7.995235456,-0.1120747516,0.23993235320000006,0.020842529599999993,-0.18642647999999998,-0.1465727628,-0.2074720376
03:27:29,-0.14229101,0.27042928,-0.004263154999999963,0.006224275000000001,-0.13421597,-0.28284157499999996,-7.225085235,30.060821455,-32.482857705,8.038625864,-0.11031937165,0.2510330820500001,0.0265108399,-0.18315271374999997,-0.14676804695,-0.20482788189999998
03:27:29,-0.14632198,0.28190544,0.0028038100000000177,0.006756950000000001,-0.13441306,-0.27871334999999997,-7.24149303,30.05486059,-32.48196209,8.082016272,-0.1085639917,0.26213381090000004,0.032179150200000006,-0.1798789475,-0.1469633311,-0.20218372619999997
03:27:29,-0.15035295,0.29338159999999996,0.009870775000000026,0.007289625000000001,-0.13461014999999998,-0.274585125,-7.257900825,30.048899725,-32.481066475,8.12540668,-0.10680861175,0.27323453975000006,0.037847460499999985,-0.17660518124999997,-0.14715861525,-0.19953957049999999
03:27:29,-0.15438392,0.30485776,0.016937740000000034,0.0078223,-0.13480724,-0.2704569,-7.274308619999999,30.04293886,-32.48017086,8.168797088,-0.10505323180000001,0.2843352686000001,0.04351577079999999,-0.173331415,-0.14735389940000002,-0.19689541479999997
03:27:29,-0.15841489,0.31633392,0.024004705000000015,0.008354975,-0.13500433,-0.26632867499999996,-7.2907164149999995,30.036977994999997,-32.479275245000004,8.212187496,-0.10329785185,0.29543599745000004,0.0491840811,-0.17005764874999998,-0.14754918355000002,-0.19425125909999996
03:27:29,-0.16244586,0.32781007999999995,0.03107167000000005,0.00888765,-0.13520142,-0.26220045,-7.30712421,30.03101713,-32.47837963,8.255577904,-0.1015424719,0.30653672630000006,0.05485239139999998,-0.16678388249999998,-0.14774446770000002,-0.19160710339999998
03:27:29,-0.16647683,0.33928623999999996,0.03813863500000003,0.009420325,-0.13539851,-0.25807222499999993,-7.323532005,30.025056265,-32.477484015,8.298968312,-0.09978709195,0.3176374551500001,0.060520701699999985,-0.16351011624999998,-0.14793975185000002,-0.1889629477
03:27:29,-0.17050780000000001,0.3507624,0.04520560000000001,0.009953,-0.13559559999999998,-0.25394399999999995,-7.3399398,30.019095399999998,-32.476588400000004,8.34235872,-0.09803171200000001,0.3287381840000001,0.06618901199999999,-0.16023634999999997,-0.148135036,-0.18631879199999998
03:27:29,-0.17453877,0.36223856,0.05227256500000005,0.010485675000000003,-0.13579269,-0.24981577499999996,-7.356347595,30.013134535,-32.475692785,8.385749128,-0.09627633205,0.33983891285000006,0.0718573223,-0.15696258374999997,-0.14833032015,-0.18367463629999997
03:27:29,-0.17856974,0.37371472,0.05933953000000003,0.011018350000000003,-0.13598978,-0.24568754999999998,-7.37275539,30.00717367,-32.47479717,8.429139536000001,-0.0945209521,0.3509396417000001,0.0775256326,-0.1536888175,-0.1485256043,-0.1810304806
03:27:29,-0.18260071,0.38519087999999996,0.06640649500000001,0.011551025000000003,-0.13618687,-0.24155932499999996,-7.389163185,30.001212804999998,-32.473901555000005,8.472529944,-0.09276557215,0.3620403705500001,0.08319394289999998,-0.15041505125,-0.14872088845,-0.17838632489999998
03:27:29,-0.18663168,0.3966670399999999,0.07347346000000005,0.012083700000000003,-0.13638396,-0.23743109999999998,-7.40557098,29.99525194,-32.47300594,8.515920352,-0.0910101922,0.37314109940000006,0.08886225319999999,-0.14714128499999998,-0.1489161726,-0.17574216919999996
03:27:29,-0.19066265,0.4081432,0.08054042500000003,0.012616375000000003,-0.13658104999999998,-0.23330287499999997,-7.4219787749999995,29.989291075,-32.472110325,8.55931076,-0.08925481225,0.3842418282500001,0.0945305635,-0.14386751874999998,-0.14911145675,-0.17309801349999998
03:27:29,-0.19469362,0.41961935999999994,0.08760739000000006,0.013149050000000002,-0.13677814,-0.22917464999999998,-7.43838657,29.98333021,-32.47121471,8.602701168,-0.0874994323,0.3953425571000001,0.10019887379999998,-0.14059375249999997,-0.1493067409,-0.1704538578
03:27:29,-0.19872459,0.43109552,0.09467435500000004,0.013681725000000002,-0.13697523,-0.22504642499999997,-7.454794365,29.977369345,-32.470319095,8.646091576,-0.08574405235,0.4064432859500001,0.10586718410000001,-0.13731998624999997,-0.14950202505000001,-0.16780970209999999
03:27:29,-0.20275556,0.44257167999999997,0.10174132000000002,0.014214400000000002,-0.13717232,-0.22091819999999995,-7.47120216,29.971408479999997,-32.46942348,8.689481984,-0.0839886724,0.41754401480000003,0.11153549439999999,-0.13404622,-0.14969730920000002,-0.16516554639999997
03:27:29,-0.20678653,0.4540478399999999,0.10880828500000006,0.014747075000000002,-0.13736941,-0.21678997499999997,-7.487609955,29.965447615,-32.468527865,8.732872392,-0.08223329245000001,0.42864474365000005,0.11720380469999997,-0.13077245375,-0.14989259335000002,-0.1625213907
03:27:29,-0.2108175,0.465524,0.11587525000000004,0.015279750000000002,-0.13756649999999998,-0.21266174999999995,-7.50401775,29.95948675,-32.46763225,8.7762628,-0.0804779125,0.43974547250000007,0.122872115,-0.12749868749999999,-0.15008787750000002,-0.15987723499999998
03:27:29,-0.21484847,0.47700015999999995,0.12294221500000002,0.015812425,-0.13776359,-0.20853352499999997,-7.520425545,29.953525884999998,-32.466736635000004,8.819653208,-0.07872253255,0.4508462013500001,0.12854042529999998,-0.12422492124999998,-0.15028316165,-0.1572330793
03:27:29,-0.21887944,0.48847632,0.13000918000000006,0.0163451,-0.13796068,-0.20440529999999996,-7.536833339999999,29.94756502,-32.46584102,8.863043616,-0.0769671526,0.4619469302000001,0.13420873560000002,-0.12095115499999998,-0.1504784458,-0.15458892359999998
03:27:29,-0.22291041,0.49995248,0.13707614500000004,0.016877775,-0.13815776999999999,-0.20027707499999997,-7.5532411349999995,29.941604155,-32.464945405,8.906434024,-0.07521177265000001,0.4730476590500001,0.1398770459,-0.11767738874999997,-0.15067372995,-0.15194476789999997
03:27:29,-0.22694138,0.5114286399999999,0.14414311000000002,0.01741045,-0.13835486,-0.19614884999999996,-7.56964893,29.935643289999998,-32.464049790000004,8.949824432,-0.0734563927,0.48414838790000014,0.14554535619999998,-0.11440362249999997,-0.1508690141,-0.1493006122
03:27:29,-0.23097235,0.5229048,0.15121007500000005,0.017943125,-0.13855195,-0.19202062499999997,-7.586056725,29.929682425,-32.463154175,8.99321484,-0.07170101275,0.49524911675000005,0.1512136665,-0.11112985624999999,-0.15106429825,-0.14665645649999998
03:27:29,-0.23500332,0.5343809599999999,0.15827704000000004,0.018475800000000004,-0.13874904,-0.18789239999999996,-7.60246452,29.92372156,-32.46225856,9.036605248,-0.0699456328,0.5063498456000001,0.1568819768,-0.10785608999999999,-0.1512595824,-0.1440123008
03:27:29,-0.23903429,0.5458571199999999,0.16534400500000002,0.019008475000000004,-0.13894613,-0.18376417499999997,-7.618872315,29.917760695,-32.461362945,9.079995656000001,-0.06819025285000001,0.5174505744500001,0.16255028709999997,-0.10458232374999998,-0.15145486655,-0.14136814509999998
03:27:29,-0.24306526,0.5573332799999999,0.17241097000000005,0.019541150000000004,-0.13914321999999998,-0.17963594999999996,-7.63528011,29.91179983,-32.46046733,9.123386064,-0.0664348729,0.5285513033000001,0.1682185974,-0.10130855749999998,-0.1516501507,-0.13872398939999997
03:27:29,-0.24709623,0.5688094399999999,0.17947793500000003,0.020073825,-0.13934031,-0.17550772499999998,-7.651687905,29.905838964999997,-32.459571715,9.166776472,-0.06467949295,0.5396520321500001,0.17388690769999998,-0.09803479124999998,-0.15184543485000002,-0.13607983369999999
03:27:29,-0.2511272,0.5802855999999998,0.18654490000000007,0.020606500000000003,-0.1395374,-0.17137949999999996,-7.6680957,29.8998781,-32.4586761,9.21016688,-0.062924113,0.5507527610000001,0.17955521799999996,-0.09476102499999997,-0.15204071900000002,-0.13343567799999997
03:27:29,-0.25515816999999996,0.5917617599999999,0.19361186500000005,0.021139175,-0.13973449,-0.16725127499999998,-7.6845034949999995,29.893917235,-32.457780485,9.253557288,-0.06116873305000001,0.56185348985,0.1852235283,-0.09148725875,-0.15223600315000002,-0.1307915223
03:27:29,-0.25918914000000004,0.6032379199999999,0.20067883000000003,0.021671850000000003,-0.13993158,-0.16312305,-7.70091129,29.887956369999998,-32.45688487,9.296947696,-0.059413353099999996,0.5729542187000001,0.19089183859999997,-0.08821349249999999,-0.1524312873,-0.12814736659999998
03:27:29,-0.26322011,0.6147140799999999,0.20774579500000007,0.022204525,-0.14012866999999998,-0.15899482499999995,-7.717319085,29.881995505,-32.455989255,9.340338104,-0.05765797315,0.5840549475500001,0.1965601489,-0.08493972624999999,-0.15262657145,-0.1255032109
03:27:29,-0.26725108,0.6261902399999999,0.21481276000000005,0.022737200000000003,-0.14032576,-0.15486659999999997,-7.73372688,29.87603464,-32.45509364,9.383728512000001,-0.0559025932,0.5951556764000001,0.2022284592,-0.08166595999999998,-0.1528218556,-0.12285905519999998
03:27:29,-0.27128205000000005,0.6376663999999999,0.22187972500000003,0.023269875000000006,-0.14052285,-0.15073837499999998,-7.750134675,29.870073774999998,-32.454198025000004,9.42711892,-0.054147213250000006,0.6062564052500001,0.20789676949999997,-0.07839219374999998,-0.15301713975,-0.12021489949999997
03:27:29,-0.27531302,0.6491425599999999,0.22894669000000006,0.023802550000000002,-0.14071994,-0.14661014999999994,-7.76654247,29.86411291,-32.45330241,9.470509328,-0.05239183330000001,0.6173571341000001,0.2135650798,-0.07511842749999997,-0.1532124239,-0.11757074379999999
03:27:29,-0.27934399,0.6606187199999999,0.23601365500000004,0.024335225000000005,-0.14091703,-0.14248192499999995,-7.782950265,29.858152045,-32.452406795,9.513899736,-0.05063645335,0.6284578629500002,0.21923339009999998,-0.07184466124999997,-0.15340770805,-0.11492658809999998
03:27:29,-0.28337495999999995,0.67209488,0.24308062000000003,0.024867900000000002,-0.14111412,-0.13835369999999997,-7.799358059999999,29.85219118,-32.451511180000004,9.557290144,-0.0488810734,0.6395585918000001,0.22490170040000002,-0.06857089499999999,-0.1536029922,-0.11228243239999999
03:27:29,-0.28740593000000003,0.6835710399999999,0.25014758500000006,0.025400575000000005,-0.14131121,-0.13422547499999998,-7.815765855,29.846230315,-32.450615565,9.600680552,-0.047125693450000006,0.6506593206500001,0.2305700107,-0.06529712874999999,-0.15379827635,-0.10963827669999998
03:27:29,-0.2914369,0.6950471999999999,0.25721455000000004,0.02593325,-0.1415083,-0.13009724999999994,-7.83217365,29.840269449999997,-32.44971995,9.64407096,-0.04537031350000001,0.6617600495000001,0.23623832099999997,-0.062023362499999984,-0.15399356050000002,-0.106994121
03:27:29,-0.29546786999999997,0.7065233599999999,0.264281515,0.026465925000000005,-0.14170539,-0.12596902499999996,-7.848581445,29.834308585,-32.448824335,9.687461368000001,-0.04361493355,0.6728607783500001,0.2419066313,-0.05874959624999998,-0.15418884465000002,-0.10434996529999999
03:27:29,-0.29949884000000004,0.7179995199999999,0.27134848000000006,0.0269986,-0.14190248,-0.12184079999999997,-7.86498924,29.82834772,-32.44792872,9.730851776,-0.041859553600000016,0.6839615072000002,0.2475749416,-0.055475829999999976,-0.15438412880000002,-0.10170580959999997
03:27:29,-0.30352981,0.7294756799999998,0.2784154450000001,0.027531275000000004,-0.14209957,-0.11771257499999999,-7.881397035,29.822386854999998,-32.447033105,9.774242184,-0.04010417364999999,0.6950622360500002,0.25324325189999997,-0.05220206374999997,-0.15457941295,-0.09906165389999999
03:27:29,-0.30756078,0.7409518399999999,0.28548241,0.02806395,-0.14229666,-0.11358434999999995,-7.89780483,29.81642599,-32.44613749,9.817632592,-0.038348793699999995,0.7061629649000001,0.2589115622,-0.048928297499999995,-0.1547746971,-0.09641749819999998
03:27:29,-0.31159175000000006,0.7524279999999999,0.29254937500000006,0.028596625000000004,-0.14249375,-0.10945612499999996,-7.914212624999999,29.810465125,-32.445241875,9.861023,-0.03659341375,0.7172636937500001,0.2645798725,-0.04565453124999999,-0.15496998125,-0.0937733425
03:27:29,-0.31562272,0.7639041599999998,0.2996163400000001,0.0291293,-0.14269083999999999,-0.10532789999999997,-7.93062042,29.804504259999998,-32.44434626,9.904413408,-0.0348380338,0.7283644226000001,0.27024818279999996,-0.04238076499999999,-0.1551652654,-0.09112918679999998
03:27:29,-0.31965369,0.7753803199999999,0.306683305,0.029661975000000004,-0.14288793,-0.10119967499999999,-7.947028215,29.798543395,-32.443450645,9.947803816,-0.033082653850000004,0.7394651514500001,0.2759164931,-0.03910699875000001,-0.15536054955,-0.08848503109999997
03:27:29,-0.32368465999999996,0.7868564799999999,0.31375027000000005,0.03019465,-0.14308502,-0.09707144999999995,-7.96343601,29.79258253,-32.44255503,9.991194224000001,-0.03132727390000001,0.7505658803000002,0.28158480339999997,-0.03583323249999998,-0.1555558337,-0.08584087539999999
03:27:29,-0.32771563000000004,0.7983326399999999,0.3208172350000001,0.030727325000000003,-0.14328211,-0.09294322499999996,-7.979843805,29.786621665,-32.441659415000004,10.034584632000001,-0.02957189395000001,0.7616666091500002,0.2872531137,-0.03255946625,-0.15575111785,-0.08319671969999998
03:27:29,-0.3317466,0.8098087999999999,0.3278842,0.031259999999999996,-0.1434792,-0.08881499999999998,-7.9962516,29.7806608,-32.4407638,10.07797504,-0.027816514000000014,0.7727673380000002,0.292921424,-0.02928569999999997,-0.155946402,-0.080552564
03:27:29,-0.33577756999999997,0.8212849599999998,0.33495116500000005,0.031792675000000006,-0.14367628999999998,-0.08468677499999994,-8.012659395,29.774699934999997,-32.439868185,10.121365448,-0.026061134050000018,0.7838680668500001,0.29858973429999996,-0.026011933749999994,-0.15614168615000001,-0.07790840829999998
03:27:29,-0.33980854000000005,0.8327611199999999,0.3420181300000001,0.03232535,-0.14387338,-0.08055854999999995,-8.02906719,29.76873907,-32.43897257,10.164755856,-0.024305754099999993,0.7949687957000001,0.3042580446,-0.02273816749999996,-0.15633697030000002,-0.0752642526
03:27:29,-0.34383951,0.8442372799999999,0.349085095,0.032858025,-0.14407047,-0.07643032499999997,-8.045474985,29.762778205,-32.438076955,10.208146264,-0.022550374149999997,0.8060695245500001,0.3099263549,-0.019464401249999985,-0.15653225445000002,-0.07262009689999999
03:27:29,-0.34787048,0.8557134399999999,0.35615206000000005,0.03339070000000001,-0.14426756,-0.07230209999999998,-8.06188278,29.756817339999998,-32.43718134,10.251536672,-0.0207949942,0.8171702534000002,0.3155946652,-0.01619063500000001,-0.1567275386,-0.06997594119999997
03:27:29,-0.35190144999999995,0.8671895999999999,0.3632190250000001,0.033923375000000006,-0.14446465,-0.06817387499999994,-8.078290575,29.750856475,-32.436285725,10.29492708,-0.019039614250000003,0.8282709822500002,0.3212629755,-0.012916868749999977,-0.15692282275,-0.06733178549999999
03:27:29,-0.35593242,0.8786657599999999,0.37028599,0.03445605,-0.14466173999999998,-0.06404564999999995,-8.09469837,29.74489561,-32.43539011,10.338317488000001,-0.017284234300000006,0.8393717111000002,0.32693128579999997,-0.0096431025,-0.1571181069,-0.06468762979999998
03:27:29,-0.35996339,0.8901419199999999,0.37735295500000005,0.034988725,-0.14485883,-0.05991742499999997,-8.111106164999999,29.738934744999998,-32.434494495,10.381707896,-0.01552885435000001,0.8504724399500001,0.3325995961,-0.006369336249999968,-0.15731339105,-0.062043474099999996
03:27:29,-0.36399435999999996,0.9016180799999998,0.3844199200000001,0.03552140000000001,-0.14505592,-0.05578919999999998,-8.12751396,29.73297388,-32.43359888,10.425098304,-0.013773474400000013,0.8615731688000001,0.3382679064,-0.003095569999999992,-0.1575086752,-0.059399318399999984
03:27:29,-0.36802533000000004,0.91309424,0.391486885,0.036054075000000005,-0.14525301,-0.05166097499999994,-8.143921755000001,29.727013015,-32.432703265,10.468488712000001,-0.012018094450000016,0.8726738976500001,0.34393621669999996,0.00017819625000004002,-0.15770395935,-0.0567551627
03:27:29,-0.3720563,0.9245703999999999,0.39855385000000004,0.03658675,-0.1454501,-0.04753274999999996,-8.16032955,29.72105215,-32.43180765,10.51187912,-0.010262714499999992,0.8837746265000002,0.349604527,0.0034519625000000165,-0.1578992435,-0.05411100699999999
03:27:29,-0.37608727,0.9360465599999999,0.4056208150000001,0.037119425,-0.14564718999999998,-0.04340452499999997,-8.176737345,29.715091285,-32.430912035,10.555269528,-0.008507334549999995,0.8948753553500002,0.35527283730000003,0.006725728749999993,-0.15809452765,-0.05146685129999998
03:27:29,-0.38011824000000005,0.9475227199999998,0.4126877800000001,0.03765210000000001,-0.14584428,-0.039276299999999986,-8.19314514,29.709130419999997,-32.43001642,10.598659936,-0.006751954599999999,0.9059760842000002,0.36094114759999996,0.009999495000000025,-0.1582898118,-0.04882269559999999
03:27:29,-0.38414921,0.9589988799999998,0.41975474500000004,0.038184775000000004,-0.14604137,-0.035148074999999945,-8.209552935,29.703169555,-32.429120805000004,10.642050344000001,-0.004996574650000002,0.9170768130500002,0.3666094579,0.013273261250000001,-0.15848509595000002,-0.04617853989999998
03:27:29,-0.38818018,0.97047504,0.4268217100000001,0.03871745,-0.14623846,-0.03101984999999996,-8.22596073,29.69720869,-32.42822519,10.685440752000002,-0.003241194700000005,0.9281775419000002,0.3722777682,0.016547027500000033,-0.15868038010000002,-0.0435343842
03:27:29,-0.39221114999999995,0.9819511999999999,0.4338886750000001,0.039250125,-0.14643555,-0.026891624999999975,-8.242368525,29.691247824999998,-32.427329575,10.72883116,-0.0014858147500000085,0.9392782707500003,0.37794607849999995,0.01982079375000001,-0.15887566425,-0.040890228500000014
03:27:29,-0.39624212000000003,0.9934273599999999,0.44095564000000004,0.03978280000000001,-0.14663264,-0.022763399999999934,-8.258776319999999,29.68528696,-32.42643396,10.772221568,0.0002695651999999882,0.9503789996,0.3836143888,0.023094559999999986,-0.1590709484,-0.038246072799999975
03:27:29,-0.40027309,1.0049035199999998,0.4480226050000001,0.040315475,-0.14682973,-0.01863517499999995,-8.275184115,29.679326095,-32.425538345,10.815611976,0.002024945149999985,0.9614797284500001,0.3892826991,0.026368326250000018,-0.15926623255,-0.03560191709999999
03:27:29,-0.40430405999999997,1.0163796799999998,0.4550895700000001,0.04084815,-0.14702682,-0.014506949999999963,-8.29159191,29.673365229999998,-32.42464273,10.859002384,0.0037803250999999816,0.9725804573000001,0.39495100939999994,0.029642092499999995,-0.1594615167,-0.03295776140000001
03:27:29,-0.40833503000000004,1.02785584,0.46215653500000003,0.04138082500000001,-0.14722390999999999,-0.010378724999999978,-8.307999705,29.667404365,-32.423747115,10.902392792,0.005535705050000006,0.9836811861500001,0.4006193197,0.03291585875000003,-0.15965680085,-0.030313605699999968
03:27:29,-0.412366,1.039332,0.46922350000000007,0.041913500000000006,-0.147421,-0.006250499999999937,-8.3244075,29.661443499999997,-32.4228515,10.945783200000001,0.007291085000000003,0.9947819150000001,0.40628763,0.036189625,-0.159852085,-0.027669449999999984
03:27:29,-0.41639697,1.0508081599999999,0.4762904650000001,0.042446175,-0.14761809,-0.0021222749999999513,-8.340815295,29.655482635,-32.421955885,10.989173608000002,0.00904646495,1.0058826438500001,0.41195594029999993,0.039463391250000035,-0.16004736915,-0.0250252943
03:27:29,-0.42042794000000006,1.0622843199999998,0.48335743000000003,0.04297885,-0.14781518,0.002005950000000034,-8.35722309,29.64952177,-32.42106027,11.032564016,0.010801844899999996,1.0169833727000002,0.41762425059999997,0.04273715750000001,-0.1602426533,-0.022381138600000017
03:27:29,-0.42445891,1.0737604799999998,0.49042439500000007,0.04351152500000001,-0.14801227,0.0061341750000000195,-8.373630885,29.643560904999998,-32.420164655,11.075954424,0.012557224849999993,1.0280841015500002,0.4232925609,0.04601092374999999,-0.16043793745,-0.019736982899999977
03:27:29,-0.42848988,1.08523664,0.4974913600000001,0.044044200000000006,-0.14820936,0.01026240000000006,-8.39003868,29.63760004,-32.41926904,11.119344832,0.01431260479999999,1.0391848304000002,0.42896087120000004,0.04928469000000002,-0.16063322160000001,-0.017092827199999994
03:27:29,-0.43252084999999996,1.0967128,0.5045583250000001,0.044576875,-0.14840645,0.014390625000000046,-8.406446475,29.631639175,-32.418373425,11.16273524,0.016067984749999986,1.0502855592500002,0.43462918149999996,0.052558456249999996,-0.16082850575000002,-0.01444867150000001
03:27:29,-0.43655182000000003,1.10818896,0.51162529,0.04510955,-0.14860354,0.01851885000000003,-8.42285427,29.625678309999998,-32.41747781,11.206125648,0.017823364699999983,1.0613862881000002,0.4402974918,0.05583222250000003,-0.1610237899,-0.01180451579999997
03:27:29,-0.44058279,1.1196651199999998,0.5186922550000002,0.04564222500000001,-0.14880063,0.022647075000000016,-8.439262065,29.619717445,-32.416582195,11.249516056000001,0.019578744650000007,1.0724870169500003,0.44596580210000003,0.059105988750000005,-0.16121907405,-0.009160360099999987
03:27:29,-0.44461375999999997,1.1311412799999998,0.5257592200000001,0.046174900000000005,-0.14899772,0.026775300000000057,-8.45566986,29.61375658,-32.41568658,11.292906464000001,0.021334124600000004,1.0835877458000003,0.45163411239999995,0.06237975500000004,-0.1614143582,-0.006516204400000003
03:27:29,-0.44864473000000005,1.1426174399999998,0.532826185,0.046707575,-0.14919481,0.030903525000000043,-8.472077655,29.607795714999998,-32.414790965,11.336296872,0.02308950455,1.09468847465,0.4573024227,0.06565352125000001,-0.16160964235,-0.0038720486999999637
03:27:29,-0.4526757,1.1540936,0.5398931500000002,0.04724025,-0.1493919,0.03503175000000003,-8.48848545,29.60183485,-32.41389535,11.37968728,0.024844884499999997,1.1057892035,0.462970733,0.06892728749999999,-0.1618049265,-0.00122789299999998
03:27:29,-0.45670667,1.16556976,0.5469601150000001,0.04777292500000001,-0.14958899,0.039159975000000014,-8.504893245,29.595873984999997,-32.412999735,11.423077688,0.026600264449999994,1.1168899323500001,0.46863904329999995,0.07220105375000002,-0.16200021065,0.0014162627000000039
03:27:29,-0.46073763999999995,1.1770459199999999,0.55402708,0.048305600000000004,-0.14978608,0.043288200000000054,-8.52130104,29.58991312,-32.41210412,11.466468096,0.02835564439999999,1.1279906612000001,0.4743073536,0.07547482,-0.1621954948,0.004060418399999988
03:27:29,-0.46476861,1.1885220799999998,0.5610940450000002,0.048838275,-0.14998317,0.04741642500000004,-8.537708835,29.583952255,-32.411208505,11.509858504,0.030111024349999987,1.1390913900500002,0.4799756639,0.07874858625000003,-0.16239077895,0.006704574100000027
03:27:29,-0.46879958,1.1999982399999998,0.5681610100000001,0.04937095000000001,-0.15018026,0.051544650000000025,-8.55411663,29.577991389999998,-32.41031289,11.553248912,0.031866404299999984,1.1501921189000002,0.48564397419999994,0.0820223525,-0.1625860631,0.00934872980000001
03:27:29,-0.47283054999999996,1.2114744,0.575227975,0.04990362500000001,-0.15037735,0.055672875000000066,-8.570524425,29.572030525,-32.409417275,11.596639320000001,0.03362178424999998,1.1612928477500002,0.4913122845,0.08529611875000004,-0.16278134725,0.011992885499999995
03:27:29,-0.47686152000000004,1.22295056,0.5822949400000001,0.0504363,-0.15057444,0.05980110000000005,-8.58693222,29.56606966,-32.40852166,11.640029728000002,0.035377164200000005,1.1723935766000002,0.4969805948,0.08856988500000001,-0.16297663140000002,0.014637041200000034
03:27:29,-0.48089249,1.2344267199999999,0.5893619050000001,0.050968975,-0.15077153,0.06392932500000004,-8.603340015,29.560108794999998,-32.407626045,11.683420136,0.03713254415,1.1834943054500002,0.5026489050999999,0.09184365124999999,-0.16317191555,0.017281196900000018
03:27:29,-0.48492346,1.2459028799999998,0.59642887,0.051501649999999996,-0.15096862,0.06805755000000002,-8.61974781,29.55414793,-32.40673043,11.726810544,0.0388879241,1.1945950343000002,0.5083172154,0.09511741750000002,-0.1633671997,0.0199253526
03:27:29,-0.48895443000000005,1.2573790399999998,0.6034958350000001,0.052034325000000006,-0.15116571,0.07218577500000006,-8.636155604999999,29.548187065,-32.405834815,11.770200952,0.040643304049999995,1.2056957631500003,0.5139855257,0.09839118375,-0.16356248385,0.022569508299999985
03:27:29,-0.4929854,1.2688551999999997,0.6105628000000001,0.052567,-0.1513628,0.07631400000000005,-8.6525634,29.542226199999998,-32.4049392,11.81359136,0.04239868399999999,1.2167964920000003,0.5196538359999999,0.10166495000000003,-0.163757768,0.025213664000000025
03:27:29,-0.49701637,1.28033136,0.617629765,0.053099675,-0.15155989,0.08044222500000003,-8.668971195000001,29.536265335,-32.404043585,11.856981768,0.04415406394999999,1.2278972208500003,0.5253221463,0.10493871625000001,-0.16395305215,0.02785781970000001
03:27:29,-0.50104734,1.2918075199999999,0.6246967300000001,0.053632349999999995,-0.15175697999999999,0.08457045000000002,-8.68537899,29.530304469999997,-32.40314797,11.900372176000001,0.045909443899999985,1.2389979497,0.5309904566,0.10821248249999998,-0.1641483363,0.030501975399999992
03:27:29,-0.50507831,1.3032836799999998,0.6317636950000001,0.054165025000000006,-0.15195407,0.088698675,-8.701786785,29.524343605,-32.402252355,11.943762584000002,0.04766482384999998,1.2500986785500001,0.5366587669,0.11148624875000002,-0.16434362045,0.03314613110000003
03:27:29,-0.50910928,1.3147598399999998,0.63883066,0.0546977,-0.15215116,0.09282689999999999,-8.71819458,29.51838274,-32.40135674,11.987152992,0.04942020380000001,1.2611994074000001,0.5423270772,0.11476001499999999,-0.1645389046,0.035790286800000015
03:27:29,-0.51314025,1.3262359999999997,0.6458976250000001,0.055230375,-0.15234825,0.09695512500000009,-8.734602375,29.512421874999998,-32.400461125,12.0305434,0.05117558375,1.2723001362500002,0.5479953875,0.11803378125000002,-0.16473418875,0.0384344425
03:27:29,-0.5171712199999999,1.33771216,0.6529645900000001,0.055763049999999995,-0.15254534,0.10108335000000007,-8.75101017,29.50646101,-32.39956551,12.073933808,0.0529309637,1.2834008651000002,0.5536636978,0.1213075475,-0.1649294729,0.04107859819999998
03:27:29,-0.52120219,1.3491883199999999,0.660031555,0.056295725000000005,-0.15274242999999998,0.10521157500000006,-8.767417965,29.500500145,-32.398669895,12.117324216,0.05468634365,1.2945015939500002,0.5593320080999999,0.12458131375000003,-0.16512475705000002,0.04372275390000002
03:27:29,-0.52523316,1.3606644799999998,0.6670985200000001,0.0568284,-0.15293952,0.10933980000000004,-8.78382576,29.494539279999998,-32.39777428,12.160714624,0.05644172359999999,1.3056023228000002,0.5650003184,0.12785508,-0.1653200412,0.046366909600000006
03:27:29,-0.5292641299999999,1.3721406399999998,0.6741654850000001,0.057361075,-0.15313661,0.11346802500000003,-8.800233555,29.488578415,-32.396878665,12.204105032000001,0.05819710354999999,1.3167030516500002,0.5706686287,0.13112884625,-0.16551532535,0.04901106529999999
03:27:29,-0.5332951,1.3836167999999998,0.68123245,0.05789375000000001,-0.1533337,0.11759625000000001,-8.816641350000001,29.48261755,-32.39598305,12.247495440000002,0.05995248349999999,1.3278037805000003,0.5763369389999999,0.13440261250000002,-0.1657106095,0.05165522100000003
03:27:29,-0.53732607,1.39509296,0.6882994150000001,0.058426425000000004,-0.15353079,0.121724475,-8.833049145,29.476656685,-32.395087435,12.290885848,0.06170786344999998,1.3389045093500003,0.5820052493,0.13767637875,-0.16590589365,0.05429937670000001
03:27:29,-0.54135704,1.40656912,0.6953663800000001,0.0589591,-0.15372788,0.1258527000000001,-8.84945694,29.47069582,-32.394191819999996,12.334276256,0.06346324339999998,1.3500052382000003,0.5876735596,0.14095014500000003,-0.1661011778,0.056943532399999996
03:27:29,-0.5453880099999999,1.4180452799999999,0.702433345,0.059491775,-0.15392497,0.12998092500000008,-8.865864735,29.464734954999997,-32.393296205,12.377666664,0.06521862335,1.3611059670500003,0.5933418698999999,0.14422391125,-0.16629646195,0.05958768809999998
03:27:29,-0.54941898,1.4295214399999998,0.7095003100000001,0.06002445000000001,-0.15412206,0.13410915000000007,-8.88227253,29.45877409,-32.39240059,12.421057072,0.0669740033,1.3722066959000003,0.5990101802,0.14749767750000004,-0.1664917461,0.06223184380000002
03:27:29,-0.55344995,1.4409975999999998,0.7165672750000001,0.060557125,-0.15431915,0.13823737500000005,-8.898680325,29.452813225,-32.391504975,12.46444748,0.06872938325,1.3833074247500001,0.6046784905,0.15077144375,-0.16668703025,0.0648759995
03:27:29,-0.5574809199999999,1.45247376,0.72363424,0.0610898,-0.15451624,0.14236560000000004,-8.91508812,29.446852359999998,-32.39060936,12.507837888000001,0.0704847632,1.3944081536000001,0.6103468008,0.15404521,-0.1668823144,0.06752015519999999
03:27:29,-0.56151189,1.46394992,0.7307012050000001,0.061622474999999996,-0.15471333,0.14649382500000002,-8.931495915,29.440891495,-32.389713745,12.551228296000001,0.07224014314999999,1.4055088824500002,0.6160151111,0.15731897625000002,-0.16707759855,0.07016431090000003
03:27:29,-0.56554286,1.4754260799999999,0.7377681700000001,0.062155150000000006,-0.15491042,0.15062205,-8.94790371,29.43493063,-32.38881813,12.594618704000002,0.07399552309999999,1.4166096113000002,0.6216834214,0.1605927425,-0.16727288270000001,0.07280846660000001
03:27:29,-0.56957383,1.4869022399999998,0.744835135,0.062687825,-0.15510751,0.154750275,-8.964311505,29.428969764999998,-32.387922515,12.638009112,0.07575090304999998,1.4277103401500002,0.6273517317,0.16386650875000003,-0.16746816685,0.0754526223
03:27:29,-0.5736048,1.4983783999999998,0.7519021000000001,0.0632205,-0.15530460000000001,0.1588785000000001,-8.9807193,29.4230089,-32.3870269,12.68139952,0.07750628299999998,1.4388110690000002,0.633020042,0.167140275,-0.167663451,0.07809677799999998
03:27:29,-0.57763577,1.5098545599999997,0.758969065,0.063753175,-0.15550169,0.16300672500000007,-8.997127095,29.417048035,-32.386131285,12.724789928,0.07926166295,1.4499117978500002,0.6386883523,0.17041404124999998,-0.16785873515,0.08074093370000002
03:27:29,-0.58166674,1.52133072,0.76603603,0.06428585,-0.15569878,0.16713495000000006,-9.013534889999999,29.41108717,-32.38523567,12.768180336,0.0810170429,1.4610125267000003,0.6443566626,0.1736878075,-0.1680540193,0.0833850894
03:27:29,-0.5856977099999999,1.5328068799999999,0.7731029950000001,0.064818525,-0.15589587,0.17126317500000005,-9.029942685,29.405126305,-32.384340055,12.811570744,0.08277242285,1.4721132555500003,0.6500249728999999,0.17696157375,-0.16824930345,0.08602924509999998
03:27:29,-0.58972868,1.5442830399999998,0.78016996,0.0653512,-0.15609296,0.17539140000000003,-9.046350480000001,29.399165439999997,-32.38344444,12.854961152000001,0.08452780279999997,1.4832139844000003,0.6556932832,0.18023534000000002,-0.1684445876,0.08867340080000002
03:27:29,-0.59375965,1.5557591999999998,0.787236925,0.06588387500000001,-0.15629005,0.17951962500000002,-9.062758275,29.393204575,-32.382548825,12.898351560000002,0.08628318274999999,1.4943147132500003,0.6613615935,0.18350910625,-0.16863987175,0.09131755650000001
03:27:29,-0.5977906199999999,1.5672353599999997,0.7943038900000001,0.06641655,-0.15648714,0.18364785,-9.07916607,29.38724371,-32.381653209999996,12.941741968,0.08803856270000002,1.5054154421000003,0.6670299037999999,0.18678287250000003,-0.1688351559,0.09396171219999999
03:27:29,-0.60182159,1.57871152,0.801370855,0.066949225,-0.15668423,0.1877760750000001,-9.095573865,29.381282844999998,-32.380757595,12.985132376000001,0.08979394264999999,1.5165161709500004,0.6726982141,0.19005663875,-0.16903044005,0.09660586789999998
03:27:29,-0.60585256,1.5901876799999999,0.80843782,0.0674819,-0.15688132,0.19190430000000008,-9.11198166,29.37532198,-32.37986198,13.028522784,0.09154932260000001,1.5276168998000001,0.6783665244,0.19333040499999998,-0.1692257242,0.09925002360000001
03:27:29,-0.60988353,1.6016638399999998,0.8155047850000001,0.06801457500000001,-0.15707841,0.19603252500000007,-9.128389455,29.369361115,-32.378966365,13.071913192,0.09330470254999998,1.5387176286500002,0.6840348346999999,0.19660417125000001,-0.16942100835,0.1018941793
03:27:29,-0.6139145,1.6131399999999998,0.82257175,0.06854725,-0.1572755,0.20016075000000005,-9.14479725,29.363400249999998,-32.37807075,13.1153036,0.0950600825,1.5498183575000002,0.689703145,0.1998779375,-0.1696162925,0.10453833499999998
03:27:29,-0.61794547,1.6246161599999998,0.829638715,0.069079925,-0.15747259,0.20428897500000004,-9.161205044999999,29.357439385,-32.377175135,13.158694008000001,0.09681546244999997,1.5609190863500002,0.6953714553,0.20315170375000002,-0.16981157665,0.10718249070000002
03:27:29,-0.62197644,1.6360923199999997,0.8367056800000001,0.0696126,-0.15766968,0.20841720000000002,-9.17761284,29.35147852,-32.37627952,13.202084416000002,0.0985708424,1.5720198152000002,0.7010397655999999,0.20642547,-0.1700068608,0.1098266464
03:27:29,-0.6260074099999999,1.64756848,0.843772645,0.070145275,-0.15786677,0.212545425,-9.194020635000001,29.345517655,-32.375383905,13.245474824,0.10032622234999997,1.5831205440500002,0.7067080759,0.20969923624999998,-0.17020214495,0.11247080209999999
03:27:29,-0.63003838,1.6590446399999998,0.85083961,0.07067795,-0.15806386,0.21667365,-9.21042843,29.33955679,-32.37448829,13.288865232000001,0.10208160229999999,1.5942212729000003,0.7123763862,0.21297300249999995,-0.1703974291,0.11511495780000003
03:27:29,-0.63406935,1.6705207999999998,0.8579065750000001,0.071210625,-0.15826095,0.2208018750000001,-9.226836225,29.333595924999997,-32.373592675,13.33225564,0.10383698225000002,1.6053220017500003,0.7180446965,0.21624676875000004,-0.17059271325,0.11775911350000001
03:27:29,-0.6381003199999999,1.6819969599999998,0.86497354,0.0717433,-0.15845804,0.22493010000000008,-9.24324402,29.32763506,-32.37269706,13.375646048,0.10559236219999998,1.6164227306000003,0.7237130068,0.21952053500000002,-0.1707879974,0.1204032692
03:27:29,-0.64213129,1.6934731199999997,0.872040505,0.072275975,-0.15865513,0.22905832500000006,-9.259651815,29.321674195,-32.371801444999996,13.419036456,0.10734774215000001,1.6275234594500003,0.7293813171,0.22279430125,-0.17098328155,0.12304742489999998
03:27:29,-0.64616226,1.70494928,0.8791074700000001,0.07280865,-0.15885222,0.23318655000000005,-9.27605961,29.315713329999998,-32.37090583,13.462426864000001,0.10910312209999998,1.6386241883000003,0.7350496274,0.22606806749999997,-0.1711785657,0.12569158060000002
03:27:29,-0.65019323,1.7164254399999999,0.886174435,0.073341325,-0.15904931,0.23731477500000003,-9.292467405,29.309752465,-32.370010215,13.505817272000002,0.11085850205,1.6497249171500004,0.7407179376999999,0.22934183375000006,-0.17137384985,0.1283357363
03:27:29,-0.6542242,1.7279015999999998,0.8932414,0.073874,-0.1592464,0.24144300000000002,-9.3088752,29.3037916,-32.369114599999996,13.54920768,0.11261388199999997,1.6608256460000004,0.746386248,0.23261560000000003,-0.171569134,0.130979892
03:27:29,-0.65825517,1.7393777599999998,0.9003083650000001,0.074406675,-0.15944349,0.245571225,-9.325282995,29.297830734999998,-32.368218985,13.592598088,0.11436926195,1.6719263748500002,0.7520545583,0.23588936625,-0.17176441815,0.13362404770000003
03:27:29,-0.66228614,1.7508539199999997,0.90737533,0.07493935,-0.15964058,0.2496994500000001,-9.341690790000001,29.29186987,-32.36732337,13.635988496,0.11612464189999996,1.6830271037000002,0.7577228685999999,0.2391631325,-0.17195970230000002,0.1362682034
03:27:29,-0.6663171099999999,1.76233008,0.914442295,0.075472025,-0.15983767,0.2538276750000001,-9.358098585,29.285909005,-32.366427755,13.679378904,0.11788002184999999,1.6941278325500002,0.7633911789,0.24243689874999996,-0.17215498645,0.1389123591
03:27:29,-0.67034808,1.7738062399999999,0.9215092600000001,0.07600470000000001,-0.16003476,0.25795590000000007,-9.37450638,29.27994814,-32.36553214,13.722769312,0.11963540180000001,1.7052285614000002,0.7690594892,0.24571066500000005,-0.1723502706,0.14155651479999998
03:27:29,-0.67437905,1.7852823999999998,0.928576225,0.076537375,-0.16023185,0.26208412500000006,-9.390914175,29.273987275,-32.364636525,13.766159720000001,0.12139078174999998,1.7163292902500003,0.7747277994999999,0.24898443125000003,-0.17254555475,0.14420067050000002
03:27:29,-0.67841002,1.7967585599999998,0.93564319,0.07707005,-0.16042894,0.26621235000000004,-9.40732197,29.268026409999997,-32.36374091,13.809550128000001,0.1231461617,1.7274300191000003,0.7803961098,0.2522581975,-0.1727408389,0.1468448262
03:27:29,-0.68244099,1.8082347199999997,0.9427101550000001,0.077602725,-0.16062603,0.270340575,-9.423729765000001,29.262065545,-32.362845295,13.852940536000002,0.12490154164999998,1.7385307479500003,0.7860644201,0.25553196375,-0.17293612305,0.14948898189999998
03:27:29,-0.68647196,1.81971088,0.94977712,0.07813540000000001,-0.16082311999999999,0.2744688,-9.44013756,29.25610468,-32.36194968,13.896330944,0.1266569216,1.7496314768000003,0.7917327304,0.25880572999999996,-0.1731314072,0.15213313760000002
03:27:29,-0.69050293,1.8311870399999999,0.956844085,0.078668075,-0.16102021,0.278597025,-9.456545355,29.250143814999998,-32.361054065,13.939721352000001,0.12841230154999997,1.7607322056500003,0.7974010407,0.26207949625000004,-0.17332669135,0.1547772933
03:27:29,-0.6945338999999999,1.8426631999999998,0.9639110500000001,0.07920075,-0.1612173,0.2827252500000001,-9.47295315,29.24418295,-32.36015845,13.98311176,0.1301676815,1.7718329345000003,0.803069351,0.2653532625,-0.1735219755,0.157421449
03:27:29,-0.69856487,1.8541393599999998,0.970978015,0.079733425,-0.16141439,0.2868534750000001,-9.489360945,29.238222085,-32.359262834999996,14.026502168,0.13192306145000002,1.7829336633500004,0.8087376613,0.26862702875,-0.17371725965,0.16006560469999997
03:27:29,-0.70259584,1.8656155199999997,0.97804498,0.0802661,-0.16161148,0.29098170000000007,-9.50576874,29.232261219999998,-32.35836722,14.069892576,0.1336784414,1.7940343922000004,0.8144059716,0.271900795,-0.17391254379999999,0.16270976040000001
03:27:29,-0.7066268099999999,1.8770916799999997,0.9851119450000001,0.080798775,-0.16180856999999998,0.29510992500000005,-9.522176535,29.226300355,-32.357471605,14.113282984000001,0.13543382135,1.8051351210500002,0.8200742819,0.27517456124999995,-0.17410782795000002,0.1653539161
03:27:29,-0.71065778,1.8885678399999999,0.99217891,0.08133145,-0.16200566,0.29923815000000004,-9.538584329999999,29.22033949,-32.356575989999996,14.156673392000002,0.13718920129999998,1.8162358499000002,0.8257425922,0.27844832750000004,-0.1743031121,0.16799807179999998
03:27:29,-0.71468875,1.9000439999999996,0.999245875,0.081864125,-0.16220275,0.303366375,-9.554992125,29.214378625,-32.355680375,14.2000638,0.13894458125,1.8273365787500002,0.8314109024999999,0.28172209375,-0.17449839625,0.17064222750000002
03:27:29,-0.71871972,1.9115201599999996,1.00631284,0.0823968,-0.16239984000000002,0.3074946,-9.571399920000001,29.20841776,-32.35478476,14.243454208000001,0.14069996119999997,1.8384373076000002,0.8370792128,0.28499586,-0.1746936804,0.1732863832
03:27:29,-0.72275069,1.92299632,1.013379805,0.082929475,-0.16259693,0.3116228250000001,-9.587807715,29.202456894999997,-32.353889145,14.286844616,0.14245534115,1.8495380364500003,0.8427475231,0.28826962624999997,-0.17488896455,0.1759305389
03:27:29,-0.72678166,1.93447248,1.02044677,0.08346215,-0.16279402,0.3157510500000001,-9.60421551,29.19649603,-32.35299353,14.330235024,0.14421072109999997,1.8606387653000003,0.8484158333999999,0.29154339250000005,-0.1750842487,0.17857469459999997
03:27:29,-0.73081263,1.94594864,1.027513735,0.08399482500000001,-0.16299111,0.3198792750000001,-9.620623305,29.190535165,-32.352097915,14.373625432,0.14596610105,1.8717394941500003,0.8540841437000001,0.29481715875000003,-0.17527953285,0.1812188503
03:27:29,-0.7348435999999999,1.9574247999999999,1.0345807,0.0845275,-0.1631882,0.32400750000000006,-9.6370311,29.184574299999998,-32.3512023,14.417015840000001,0.14772148100000002,1.8828402230000003,0.859752454,0.298090925,-0.175474817,0.183863006
03:27:29,-0.73887457,1.9689009599999998,1.0416476650000002,0.085060175,-0.16338529000000002,0.32813572500000004,-9.653438895,29.178613435,-32.350306685,14.460406248000002,0.14947686094999998,1.89394095185,0.8654207642999999,0.30136469125,-0.17567010115,0.18650716169999998
03:27:29,-0.74290554,1.9803771199999998,1.04871463,0.08559285,-0.16358238,0.33226395000000003,-9.66984669,29.17265257,-32.349411069999995,14.503796656,0.1512322409,1.9050416807000004,0.8710890746000001,0.30463845749999996,-0.1758653853,0.18915131740000002
03:27:29,-0.7469365099999999,1.9918532799999997,1.055781595,0.08612552500000001,-0.16377947,0.336392175,-9.686254485,29.166691704999998,-32.348515455,14.547187064000001,0.15298762084999998,1.9161424095500001,0.8767573849,0.30791222375000005,-0.17606066944999998,0.1917954731
03:27:29,-0.75096748,2.00332944,1.0628485600000002,0.0866582,-0.16397656,0.3405204,-9.70266228,29.16073084,-32.34761984,14.590577472,0.1547430008,1.9272431384000004,0.8824256951999999,0.31118599,-0.17625595360000001,0.1944396288
03:27:29,-0.75499845,2.0148056,1.069915525,0.087190875,-0.16417365,0.3446486250000001,-9.719070075000001,29.154769975,-32.346724224999996,14.63396788,0.15649838074999997,1.9383438672500002,0.8880940055000001,0.31445975625,-0.17645123775,0.19708378449999997
03:27:29,-0.75902942,2.02628176,1.07698249,0.08772355,-0.16437074000000002,0.3487768500000001,-9.73547787,29.14880911,-32.34582861,14.677358288,0.1582537607,1.9494445961000004,0.8937623158,0.3177335225,-0.1766465219,0.1997279402
03:27:29,-0.76306039,2.0377579200000002,1.0840494550000002,0.08825622500000001,-0.16456783,0.35290507500000007,-9.751885665,29.142848245,-32.344932995,14.720748696000001,0.16000914064999996,1.9605453249500002,0.8994306260999999,0.32100728874999995,-0.17684180605,0.2023720959
03:27:29,-0.76709136,2.04923408,1.09111642,0.0887889,-0.16476492,0.35703330000000005,-9.76829346,29.136887379999997,-32.344037379999996,14.764139104000002,0.1617645206,1.9716460538000005,0.9050989364,0.32428105500000004,-0.1770370902,0.20501625159999998
03:27:29,-0.77112233,2.06071024,1.098183385,0.089321575,-0.16496201,0.36116152500000004,-9.784701255,29.130926515,-32.343141765,14.807529512,0.16351990055,1.9827467826500003,0.9107672467,0.32755482125,-0.17723237435,0.20766040730000002
03:27:29,-0.7751532999999999,2.0721864,1.1052503500000002,0.08985425,-0.1651591,0.36528975,-9.80110905,29.12496565,-32.34224615,14.85091992,0.16527528049999998,1.9938475115000005,0.9164355569999999,0.3308285875,-0.1774276585,0.21030456299999994
03:27:29,-0.77918427,2.08366256,1.112317315,0.090386925,-0.16535619000000001,0.369417975,-9.817516845,29.119004784999998,-32.341350535,14.894310328000001,0.16703066045,2.00494824035,0.9221038673,0.33410235374999997,-0.17762294265,0.21294871870000004
03:27:29,-0.78321524,2.09513872,1.11938428,0.0909196,-0.16555328,0.3735462000000001,-9.83392464,29.11304392,-32.34045492,14.937700736000002,0.16878604039999998,2.0160489692,0.9277721776,0.33737611999999995,-0.1778182268,0.21559287440000002
03:27:29,-0.78724621,2.10661488,1.1264512450000002,0.091452275,-0.16575037,0.3776744250000001,-9.850332435,29.107083055,-32.339559305,14.981091144,0.17054142035,2.02714969805,0.9334404878999999,0.34064988625000003,-0.17801351095,0.2182370301
03:27:29,-0.79127718,2.11809104,1.13351821,0.09198495000000001,-0.16594746,0.3818026500000001,-9.866740230000001,29.101122189999998,-32.33866369,15.024481552000001,0.17229680029999997,2.0382504269,0.9391087982,0.3439236525,-0.17820879509999998,0.2208811858
03:27:29,-0.79530815,2.1295672,1.140585175,0.092517625,-0.16614455,0.38593087500000006,-9.883148025,29.095161325,-32.337768075,15.067871960000002,0.17405218025,2.04935115575,0.9447771085,0.34719741875,-0.17840407925000001,0.22352534149999997
03:27:29,-0.79933912,2.14104336,1.1476521400000002,0.0930503,-0.16634164,0.39005910000000005,-9.89955582,29.089200459999997,-32.336872459999995,15.111262368,0.17580756019999996,2.0604518846,0.9504454187999999,0.35047118499999996,-0.1785993634,0.22616949719999996
03:27:29,-0.8033700899999999,2.15251952,1.154719105,0.093582975,-0.16653873,0.39418732500000003,-9.915963615,29.083239595,-32.335976845,15.154652776,0.17756294015,2.07155261345,0.9561137291,0.35374495125000005,-0.17879464755,0.22881365289999994
03:27:29,-0.80740106,2.16399568,1.16178607,0.09411565000000001,-0.16673582,0.39831555,-9.93237141,29.07727873,-32.33508123,15.198043184000001,0.1793183201,2.0826533423,0.9617820394,0.3570187175,-0.1789899317,0.23145780860000004
03:27:29,-0.81143203,2.17547184,1.1688530350000002,0.094648325,-0.16693291,0.402443775,-9.948779205000001,29.071317864999997,-32.334185614999996,15.241433592000002,0.18107370004999998,2.0937540711500002,0.9674503496999999,0.36029248375,-0.17918521585,0.23410196430000002
03:27:30,-0.815463,2.186948,1.17592,0.095181,-0.16713,0.406572,-9.965187,29.065357,-32.33329,15.284824,0.18282908,2.1048548,0.97311866,0.36356625,-0.1793805,0.23674612
03:27:30,-0.8099512050000001,2.176496995,1.17586846,0.094184895,-0.16546273,0.40434542,-9.980224115,29.051137524999998,-32.342559255,15.292828495,0.1867561431,2.094829281125,0.97150265145,0.36122815254999996,-0.177650426,0.235568666663
03:27:30,-0.8044394100000001,2.16604599,1.1758169200000002,0.09318879000000001,-0.16379546,0.40211884,-9.99526123,29.036918049999997,-32.35182851,15.30083299,0.1906832062,2.08480376225,0.9698866429,0.3588900551,-0.175920352,0.234391213326
03:27:30,-0.7989276150000001,2.155594985,1.17576538,0.092192685,-0.16212819,0.39989226,-10.010298345,29.022698575,-32.361097765,15.308837485,0.1946102693,2.074778243375,0.96827063435,0.35655195765,-0.174190278,0.233213759989
03:27:30,-0.79341582,2.1451439800000003,1.17571384,0.09119658,-0.16046092,0.39766567999999997,-10.02533546,29.0084791,-32.370367019999996,15.31684198,0.19853733240000002,2.0647527245,0.9666546258000001,0.3542138602,-0.172460204,0.232036306652
03:27:30,-0.787904025,2.134692975,1.1756623000000002,0.090200475,-0.15879365,0.3954391,-10.040372575000001,28.994259624999998,-32.379636274999996,15.324846475000001,0.2024643955,2.054727205625,0.9650386172500001,0.35187576275,-0.17073013,0.230858853315
03:27:30,-0.78239223,2.12424197,1.17561076,0.08920437,-0.15712638,0.39321252,-10.05540969,28.980040149999997,-32.388905529999995,15.33285097,0.20639145860000002,2.04470168675,0.9634226087000001,0.34953766529999997,-0.169000056,0.229681399978
03:27:30,-0.776880435,2.113790965,1.17555922,0.08820826500000001,-0.15545911,0.39098594,-10.070446805,28.965820675,-32.398174784999995,15.340855465,0.2103185217,2.034676167875,0.9618066001500001,0.34719956785,-0.16726998199999998,0.22850394664100002
03:27:30,-0.77136864,2.10333996,1.1755076800000002,0.08721216,-0.15379184,0.38875936,-10.08548392,28.9516012,-32.40744404,15.34885996,0.2142455848,2.024650649,0.9601905916,0.3448614704,-0.16553990799999999,0.227326493304
03:27:30,-0.7658568450000001,2.0928889550000003,1.17545614,0.086216055,-0.15212457,0.38653277999999996,-10.100521035,28.937381724999998,-32.416713295,15.356864455,0.21817264790000002,2.014625130125,0.95857458305,0.34252337294999996,-0.163809834,0.226149039967
03:27:30,-0.7603450500000001,2.08243795,1.1754046,0.08521995,-0.1504573,0.3843062,-10.11555815,28.923162249999997,-32.42598255,15.36486895,0.222099711,2.00459961125,0.9569585745,0.3401852755,-0.16207976,0.22497158663
03:27:30,-0.7548332550000001,2.071986945,1.1753530600000002,0.084223845,-0.14879003,0.38207962,-10.130595265,28.908942775,-32.435251805,15.372873445,0.2260267741,1.994574092375,0.95534256595,0.33784717805,-0.160349686,0.22379413329300002
03:27:30,-0.74932146,2.06153594,1.17530152,0.08322774,-0.14712276,0.37985304,-10.14563238,28.8947233,-32.44452106,15.38087794,0.2299538372,1.9845485735,0.9537265574,0.33550908059999995,-0.158619612,0.222616679956
03:27:30,-0.743809665,2.051084935,1.17524998,0.082231635,-0.14545549,0.37762646,-10.160669495,28.880503824999998,-32.453790315,15.388882435000001,0.2338809003,1.974523054625,0.95211054885,0.33317098315,-0.156889538,0.221439226619
03:27:30,-0.73829787,2.0406339300000003,1.1751984400000002,0.08123553,-0.14378822,0.37539987999999996,-10.17570661,28.866284349999997,-32.46305957,15.39688693,0.23780796340000002,1.96449753575,0.9504945403,0.33083288569999997,-0.155159464,0.220261773282
03:27:30,-0.732786075,2.030182925,1.1751469,0.080239425,-0.14212095,0.3731733,-10.190743725,28.852064875,-32.472328825,15.404891425,0.2417350265,1.954472016875,0.94887853175,0.32849478825,-0.15342939,0.219084319945
03:27:30,-0.72727428,2.01973192,1.17509536,0.07924332,-0.14045368,0.37094672,-10.205780840000001,28.8378454,-32.48159808,15.41289592,0.24566208960000002,1.944446498,0.9472625232,0.3261566908,-0.151699316,0.21790686660800002
03:27:30,-0.7217624850000001,2.009280915,1.1750438200000002,0.07824721500000001,-0.13878641,0.36872014,-10.220817955,28.823625924999998,-32.490867335,15.420900415,0.2495891527,1.934420979125,0.94564651465,0.32381859334999996,-0.149969242,0.216729413271
03:27:30,-0.7162506900000001,1.9988299100000002,1.1749922800000001,0.07725111,-0.13711914,0.36649356,-10.23585507,28.809406449999997,-32.50013659,15.42890491,0.2535162158,1.92439546025,0.9440305061,0.3214804959,-0.148239168,0.215551959934
03:27:30,-0.710738895,1.9883789050000003,1.17494074,0.076255005,-0.13545187,0.36426697999999996,-10.250892185,28.795186975,-32.509405844999996,15.436909405,0.2574432789,1.914369941375,0.9424144975500001,0.31914239845,-0.146509094,0.214374506597
03:27:30,-0.7052271,1.9779279,1.1748892,0.0752589,-0.1337846,0.3620404,-10.2659293,28.7809675,-32.518675099999996,15.4449139,0.261370342,1.9043444225,0.9407984890000001,0.316804301,-0.14477901999999998,0.21319705326
03:27:30,-0.699715305,1.9674768950000001,1.1748376600000001,0.074262795,-0.13211733,0.35981382,-10.280966415,28.766748025,-32.527944354999995,15.452918395000001,0.2652974051,1.8943189036249999,0.93918248045,0.31446620355,-0.143048946,0.212019599923
03:27:30,-0.69420351,1.9570258900000002,1.17478612,0.07326669,-0.13045005999999998,0.35758724,-10.29600353,28.752528549999997,-32.537213609999995,15.46092289,0.2692244682,1.88429338475,0.9375664719,0.31212810609999997,-0.14131887199999998,0.210842146586
03:27:30,-0.688691715,1.9465748850000002,1.17473458,0.072270585,-0.12878278999999998,0.35536066,-10.311040645,28.738309075,-32.546482864999994,15.468927385,0.27315153130000003,1.874267865875,0.93595046335,0.30979000865,-0.13958879800000001,0.209664693249
03:27:30,-0.68317992,1.9361238800000002,1.1746830400000001,0.07127448,-0.12711551999999998,0.35313408,-10.32607776,28.7240896,-32.55575212,15.47693188,0.27707859440000004,1.864242347,0.9343344548,0.3074519112,-0.137858724,0.20848723991200002
03:27:30,-0.6776681250000001,1.925672875,1.1746315,0.070278375,-0.12544824999999998,0.3509075,-10.341114875,28.709870125,-32.565021375,15.484936375,0.2810056575,1.854216828125,0.93271844625,0.30511381374999996,-0.13612865,0.20730978657500002
03:27:30,-0.67215633,1.91522187,1.17457996,0.06928227,-0.12378098,0.34868092,-10.35615199,28.695650649999997,-32.57429063,15.49294087,0.2849327206,1.84419130925,0.9311024377,0.3027757163,-0.134398576,0.206132333238
03:27:30,-0.6666445350000001,1.9047708650000001,1.1745284200000001,0.06828616500000001,-0.12211370999999999,0.34645433999999997,-10.371189105000001,28.681431175,-32.583559885,15.500945365,0.2888597837,1.834165790375,0.92948642915,0.30043761885,-0.132668502,0.204954879901
03:27:30,-0.66113274,1.8943198600000002,1.17447688,0.06729006,-0.12044643999999999,0.34422776,-10.386226220000001,28.6672117,-32.59282914,15.50894986,0.2927868468,1.8241402715,0.9278704206,0.29809952139999996,-0.130938428,0.203777426564
03:27:30,-0.655620945,1.8838688550000002,1.17442534,0.066293955,-0.11877916999999999,0.34200118,-10.401263335,28.652992225,-32.602098395,15.516954355,0.2967139099,1.814114752625,0.92625441205,0.29576142395,-0.129208354,0.20259997322700002
03:27:30,-0.65010915,1.87341785,1.1743738000000001,0.06529785,-0.11711189999999999,0.3397746,-10.41630045,28.638772749999998,-32.61136765,15.52495885,0.30064097300000003,1.80408923375,0.9246384035,0.29342332649999997,-0.12747828,0.20142251989
03:27:30,-0.644597355,1.862966845,1.17432226,0.06430174500000001,-0.11544462999999999,0.33754802,-10.431337565,28.624553275,-32.620636905,15.532963345,0.3045680361,1.794063714875,0.92302239495,0.29108522905,-0.125748206,0.200245066553
03:27:30,-0.63908556,1.8525158400000001,1.17427072,0.06330564,-0.11377736,0.33532143999999997,-10.44637468,28.6103338,-32.62990616,15.54096784,0.3084950992,1.784038196,0.9214063864,0.2887471316,-0.124018132,0.199067613216
03:27:30,-0.633573765,1.8420648350000002,1.1742191800000001,0.062309535000000006,-0.11211009,0.33309486,-10.461411795,28.596114325,-32.639175415,15.548972335,0.3124221623,1.774012677125,0.9197903778500001,0.28640903414999996,-0.122288058,0.197890159879
03:27:30,-0.6280619700000001,1.8316138300000002,1.17416764,0.06131343,-0.11044282,0.33086828,-10.47644891,28.581894849999998,-32.648444669999996,15.55697683,0.3163492254,1.76398715825,0.9181743693000001,0.2840709367,-0.12055798399999999,0.19671270654200002
03:27:30,-0.622550175,1.821162825,1.1741161,0.060317325000000005,-0.10877555,0.3286417,-10.491486025,28.567675375,-32.657713924999996,15.564981325,0.3202762885,1.753961639375,0.9165583607500001,0.28173283925,-0.11882791,0.195535253205
03:27:30,-0.61703838,1.81071182,1.1740645600000001,0.05932122,-0.10710828,0.32641512,-10.50652314,28.5534559,-32.666983179999995,15.57298582,0.3242033516,1.7439361205,0.9149423522,0.2793947418,-0.117097836,0.194357799868
03:27:30,-0.611526585,1.8002608150000001,1.17401302,0.058325115000000004,-0.10544101,0.32418853999999997,-10.521560255,28.539236425,-32.676252434999995,15.580990315,0.32813041470000004,1.7339106016249999,0.91332634365,0.27705664435,-0.115367762,0.19318034653100002
03:27:30,-0.60601479,1.7898098100000002,1.17396148,0.05732901000000001,-0.10377373999999999,0.32196196,-10.53659737,28.525016949999998,-32.685521689999995,15.58899481,0.3320574778,1.7238850827499999,0.9117103351,0.27471854689999997,-0.113637688,0.192002893194
03:27:30,-0.600502995,1.7793588050000002,1.1739099400000002,0.056332905,-0.10210646999999999,0.31973538,-10.551634485000001,28.510797475,-32.694790945,15.596999305,0.3359845409,1.7138595638749998,0.91009432655,0.27238044944999995,-0.111907614,0.190825439857
03:27:30,-0.5949912,1.7689078,1.1738584,0.055336800000000005,-0.10043919999999999,0.3175088,-10.5666716,28.496578,-32.7040602,15.6050038,0.339911604,1.703834045,0.908478318,0.270042352,-0.11017753999999999,0.18964798652
03:27:30,-0.5894794050000001,1.758456795,1.17380686,0.054340695,-0.09877193,0.31528222,-10.581708715,28.482358525,-32.713329455,15.613008295,0.3438386671,1.693808526125,0.90686230945,0.26770425455,-0.10844746599999999,0.188470533183
03:27:30,-0.58396761,1.7480057900000001,1.1737553200000002,0.053344590000000004,-0.09710466,0.31305563999999997,-10.59674583,28.468139049999998,-32.72259871,15.62101279,0.3477657302,1.68378300725,0.9052463009,0.2653661571,-0.106717392,0.18729307984600002
03:27:30,-0.578455815,1.7375547850000002,1.17370378,0.05234848500000001,-0.09543739,0.31082906,-10.611782945,28.453919575,-32.731867965,15.629017285,0.35169279330000003,1.673757488375,0.90363029235,0.26302805965,-0.104987318,0.18611562650900002
03:27:30,-0.57294402,1.7271037800000002,1.17365224,0.05135238,-0.09377011999999998,0.30860248,-10.62682006,28.4397001,-32.74113722,15.63702178,0.35561985640000005,1.6637319695,0.9020142838,0.26068996219999996,-0.103257244,0.184938173172
03:27:30,-0.567432225,1.716652775,1.1736007000000002,0.050356275000000006,-0.09210284999999999,0.3063759,-10.641857175,28.425480625,-32.750406475,15.645026275,0.3595469195,1.6537064506249999,0.90039827525,0.25835186475,-0.10152717,0.183760719835
03:27:30,-0.56192043,1.7062017700000003,1.17354916,0.04936017,-0.09043557999999999,0.30414932,-10.65689429,28.411261149999998,-32.75967573,15.65303077,0.3634739826,1.64368093175,0.8987822667,0.2560137673,-0.099797096,0.182583266498
03:27:30,-0.556408635,1.695750765,1.17349762,0.048364065000000005,-0.08876830999999999,0.30192273999999997,-10.671931405,28.397041675,-32.768944985,15.661035265,0.3674010457,1.633655412875,0.8971662581500001,0.25367566985,-0.09806702199999999,0.18140581316100002
03:27:30,-0.55089684,1.6852997600000001,1.1734460800000002,0.04736796,-0.08710103999999999,0.29969616,-10.68696852,28.3828222,-32.77821424,15.66903976,0.3713281088,1.623629894,0.8955502496000001,0.2513375724,-0.09633694799999999,0.180228359824
03:27:30,-0.545385045,1.6748487550000002,1.17339454,0.046371855000000003,-0.08543376999999999,0.29746958,-10.702005635,28.368602725,-32.787483495,15.677044255,0.3752551719,1.613604375125,0.89393424105,0.24899947495,-0.094606874,0.179050906487
03:27:30,-0.5398732500000001,1.66439775,1.173343,0.045375750000000006,-0.0837665,0.295243,-10.717042750000001,28.354383249999998,-32.796752749999996,15.68504875,0.37918223500000003,1.60357885625,0.8923182325000001,0.2466613775,-0.0928768,0.17787345315
03:27:30,-0.534361455,1.6539467450000003,1.1732914600000002,0.044379645,-0.08209923,0.29301642,-10.732079865,28.340163775,-32.806022004999996,15.693053245,0.38310929810000005,1.593553337375,0.89070222395,0.24432328004999998,-0.091146726,0.176695999813
03:27:30,-0.52884966,1.64349574,1.17323992,0.043383540000000005,-0.08043196,0.29078983999999997,-10.74711698,28.3259443,-32.815291259999995,15.70105774,0.3870363612,1.5835278185,0.8890862154,0.2419851826,-0.089416652,0.17551854647600001
03:27:30,-0.523337865,1.6330447350000001,1.17318838,0.042387435,-0.07876468999999998,0.28856326,-10.762154095,28.311724825,-32.824560514999995,15.709062235,0.39096342430000003,1.5735022996249999,0.88747020685,0.23964708515,-0.087686578,0.174341093139
03:27:30,-0.51782607,1.6225937300000002,1.1731368400000002,0.041391330000000004,-0.07709741999999999,0.28633668,-10.77719121,28.297505349999998,-32.833829769999994,15.717066729999999,0.3948904874,1.5634767807499999,0.8858541983,0.23730898769999997,-0.08595650399999999,0.173163639802
03:27:30,-0.512314275,1.612142725,1.1730853,0.04039522500000001,-0.07543014999999999,0.2841101,-10.792228325,28.283285874999997,-32.843099025,15.725071225,0.3988175505,1.5534512618749998,0.88423818975,0.23497089024999998,-0.08422642999999999,0.17198618646500002
03:27:30,-0.5068024799999999,1.6016917200000003,1.17303376,0.03939912,-0.07376287999999999,0.28188352,-10.80726544,28.2690664,-32.85236828,15.73307572,0.4027446136,1.5434257429999998,0.8826221812,0.2326327928,-0.08249635599999999,0.170808733128
03:27:30,-0.5012906850000001,1.591240715,1.1729822200000002,0.038403015000000006,-0.07209560999999999,0.27965693999999996,-10.822302555,28.254846925,-32.861637535,15.741080215,0.40667167670000004,1.5334002241249998,0.88100617265,0.23029469535,-0.080766282,0.169631279791
03:27:30,-0.49577889,1.5807897100000001,1.1729306800000001,0.03740691,-0.07042833999999999,0.27743036,-10.83733967,28.240627449999998,-32.87090679,15.74908471,0.41059873980000006,1.52337470525,0.8793901641,0.2279565979,-0.079036208,0.168453826454
03:27:30,-0.490267095,1.5703387050000002,1.17287914,0.036410805000000004,-0.06876107,0.27520378,-10.852376785,28.226407974999997,-32.880176045,15.757089205,0.4145258029,1.513349186375,0.87777415555,0.22561850044999998,-0.077306134,0.167276373117
03:27:30,-0.4847553,1.5598877000000002,1.1728276000000002,0.03541470000000001,-0.06709379999999998,0.2729772,-10.8674139,28.2121885,-32.8894453,15.7650937,0.418452866,1.5033236675,0.876158147,0.223280403,-0.07557606,0.16609891978000002
03:27:30,-0.479243505,1.5494366950000003,1.1727760600000001,0.034418595,-0.06542652999999998,0.27075061999999994,-10.882451015000001,28.197969025,-32.898714555,15.773098195,0.4223799291,1.4932981486249999,0.8745421384500001,0.22094230555,-0.07384598599999999,0.16492146644300001
03:27:30,-0.47373171000000003,1.53898569,1.17272452,0.033422490000000006,-0.06375925999999998,0.26852403999999996,-10.89748813,28.183749549999998,-32.90798381,15.781102689999999,0.4263069922,1.48327262975,0.8729261299000001,0.21860420809999997,-0.07211591199999999,0.163744013106
03:27:30,-0.468219915,1.5285346850000001,1.17267298,0.032426385,-0.062091989999999986,0.26629746,-10.912525245,28.169530074999997,-32.917253065,15.789107185,0.43023405530000003,1.473247110875,0.8713101213500001,0.21626611064999998,-0.07038583799999999,0.16256655976900003
03:27:30,-0.46270812,1.5180836800000002,1.1726214400000001,0.031430280000000005,-0.06042471999999999,0.26407088,-10.92756236,28.1553106,-32.92652232,15.79711168,0.43416111840000005,1.463221592,0.8696941128,0.2139280132,-0.068655764,0.161389106432
03:27:30,-0.457196325,1.5076326750000002,1.1725699,0.030434175000000008,-0.05875744999999999,0.2618443,-10.942599475,28.141091125,-32.935791574999996,15.805116175,0.43808818150000006,1.453196073125,0.86807810425,0.21158991575,-0.06692569,0.16021165309500002
03:27:30,-0.45168453,1.4971816700000002,1.17251836,0.02943807000000001,-0.05709017999999999,0.25961771999999994,-10.95763659,28.12687165,-32.945060829999996,15.81312067,0.44201524459999997,1.44317055425,0.8664620957,0.2092518183,-0.065195616,0.159034199758
03:27:30,-0.446172735,1.486730665,1.1724668200000001,0.028441965,-0.05542290999999999,0.25739113999999996,-10.972673705,28.112652174999997,-32.954330084999995,15.821125165,0.4459423077,1.433145035375,0.86484608715,0.20691372084999998,-0.063465542,0.157856746421
03:27:30,-0.44066094,1.47627966,1.17241528,0.027445860000000002,-0.05375563999999999,0.25516456,-10.98771082,28.0984327,-32.963599339999995,15.82912966,0.4498693708,1.4231195165,0.8632300786,0.2045756234,-0.06173546799999999,0.15667929308400003
03:27:30,-0.435149145,1.4658286550000001,1.17236374,0.026449755000000005,-0.05208836999999998,0.25293798,-11.002747935,28.084213225,-32.972868594999994,15.837134155,0.4537964339,1.4130939976249999,0.86161407005,0.20223752595,-0.06000539399999999,0.155501839747
03:27:30,-0.42963735,1.4553776500000002,1.1723122000000001,0.025453650000000008,-0.05042109999999998,0.2507114,-11.01778505,28.06999375,-32.98213785,15.845138649999999,0.45772349700000003,1.4030684787499998,0.8599980615,0.19989942849999998,-0.05827531999999999,0.15432438641000001
03:27:30,-0.424125555,1.4449266450000002,1.17226066,0.02445754500000001,-0.048753829999999984,0.24848481999999997,-11.032822165,28.055774274999997,-32.991407105,15.853143145,0.46165056010000005,1.3930429598749998,0.85838205295,0.19756133104999998,-0.05654524599999999,0.153146933073
03:27:30,-0.41861376,1.43447564,1.17220912,0.02346144,-0.047086559999999986,0.24625824,-11.04785928,28.0415548,-33.00067636,15.86114764,0.46557762320000007,1.3830174409999998,0.8567660444,0.1952232336,-0.054815171999999995,0.151969479736
03:27:30,-0.413101965,1.4240246350000003,1.1721575800000001,0.022465335000000003,-0.04541928999999999,0.24403165999999998,-11.062896395,28.027335325,-33.009945615,15.869152135,0.4695046863,1.3729919221249998,0.85515003585,0.19288513615,-0.053085098,0.15079202639900002
03:27:30,-0.40759017,1.4135736300000001,1.17210604,0.021469230000000006,-0.04375201999999999,0.24180507999999998,-11.07793351,28.01311585,-33.01921487,15.87715663,0.4734317494,1.3629664032499997,0.8535340273,0.1905470387,-0.051355024,0.14961457306200002
03:27:30,-0.402078375,1.4031226250000002,1.1720545,0.02047312500000001,-0.042084749999999976,0.23957849999999997,-11.092970625,27.998896374999998,-33.028484125,15.885161125,0.4773588125,1.352940884375,0.8519180187500001,0.18820894124999998,-0.04962495,0.148437119725
03:27:30,-0.39656658,1.3926716200000002,1.1720029600000001,0.01947702000000001,-0.04041747999999998,0.23735191999999997,-11.10800774,27.9846769,-33.03775338,15.89316562,0.4812858756,1.3429153655,0.8503020102000001,0.1858708438,-0.047894876,0.147259666388
03:27:30,-0.391054785,1.382220615,1.17195142,0.018480915,-0.03875020999999998,0.23512534,-11.123044855,27.970457425,-33.047022635,15.901170115,0.48521293870000004,1.3328898466249999,0.8486860016500001,0.18353274635,-0.046164802000000005,0.146082213051
03:27:30,-0.38554299,1.3717696100000003,1.17189988,0.017484810000000003,-0.03708293999999998,0.23289875999999998,-11.13808197,27.95623795,-33.05629189,15.909174609999999,0.48914000180000006,1.3228643277499998,0.8470699931000001,0.18119464889999998,-0.04443472800000001,0.14490475971400002
03:27:30,-0.380031195,1.3613186050000001,1.1718483400000002,0.016488705000000006,-0.03541566999999998,0.23067217999999998,-11.153119085,27.942018474999998,-33.065561145,15.917179104999999,0.4930670649000001,1.312838808875,0.84545398455,0.17885655144999998,-0.04270465399999998,0.143727306377
03:27:30,-0.3745194,1.3508676000000002,1.1717968,0.01549260000000001,-0.033748399999999984,0.22844559999999997,-11.1681562,27.927799,-33.074830399999996,15.9251836,0.496994128,1.30281329,0.8438379760000001,0.176518454,-0.04097457999999998,0.14254985304
03:27:30,-0.36900760499999996,1.3404165950000002,1.17174526,0.014496495000000012,-0.032081129999999985,0.22621901999999997,-11.183193315,27.913579525,-33.084099654999996,15.933188095,0.5009211911,1.292787771125,0.84222196745,0.17418035655,-0.039244505999999985,0.14137239970300003
03:27:30,-0.36349581,1.32996559,1.1716937200000002,0.013500390000000001,-0.030413859999999987,0.22399244,-11.19823043,27.89936005,-33.093368909999995,15.94119259,0.5048482542,1.28276225225,0.8406059589,0.1718422591,-0.037514431999999986,0.140194946366
03:27:30,-0.357984015,1.3195145850000003,1.17164218,0.012504285000000004,-0.02874658999999999,0.22176585999999998,-11.213267545,27.885140574999998,-33.102638164999995,15.949197085,0.5087753173,1.272736733375,0.83898995035,0.16950416164999998,-0.03578435799999999,0.13901749302900002
03:27:30,-0.35247222,1.3090635800000001,1.17159064,0.011508180000000007,-0.02707931999999999,0.21953927999999998,-11.22830466,27.8709211,-33.111907419999994,15.95720158,0.5127023804,1.2627112145,0.8373739418,0.1671660642,-0.03405428399999999,0.137840039692
03:27:30,-0.34696042499999996,1.2986125750000002,1.1715391000000002,0.01051207500000001,-0.02541204999999999,0.21731269999999997,-11.243341775,27.856701625,-33.121176675,15.965206075,0.5166294435000001,1.2526856956249999,0.83575793325,0.16482796675,-0.03232420999999999,0.136662586355
03:27:30,-0.34144863,1.2881615700000002,1.17148756,0.009515970000000012,-0.023744779999999993,0.21508611999999996,-11.25837889,27.84248215,-33.13044593,15.973210569999999,0.5205565066,1.2426601767499998,0.8341419247,0.16248986929999998,-0.030594135999999994,0.13548513301800003
03:27:30,-0.335936835,1.277710565,1.17143602,0.008519865000000001,-0.022077509999999995,0.21285953999999999,-11.273416005,27.828262674999998,-33.139715185,15.981215064999999,0.5244835697,1.2326346578749998,0.83252591615,0.16015177184999999,-0.028864061999999996,0.134307679681
03:27:30,-0.33042504,1.2672595600000003,1.1713844800000002,0.007523760000000004,-0.02041023999999997,0.21063295999999998,-11.28845312,27.8140432,-33.14898444,15.98921956,0.5284106328,1.2226091389999998,0.8309099076,0.1578136744,-0.027133987999999998,0.133130226344
03:27:30,-0.32491324499999996,1.256808555,1.17133294,0.006527655000000007,-0.01874296999999997,0.20840637999999997,-11.303490235,27.799823725,-33.158253695,15.997224055,0.5323376959,1.2125836201249998,0.8292938990500001,0.15547557695,-0.025403914,0.131952773007
03:27:30,-0.31940145,1.2463575500000001,1.1712814,0.00553155000000001,-0.01707569999999997,0.20617979999999997,-11.31852735,27.78560425,-33.16752295,16.005228549999998,0.536264759,1.2025581012499997,0.8276778905000001,0.1531374795,-0.02367384,0.13077531967
03:27:30,-0.313889655,1.2359065450000002,1.1712298600000002,0.004535445000000013,-0.015408429999999973,0.20395321999999996,-11.333564465,27.771384774999998,-33.176792205,16.013233045,0.5401918221,1.1925325823749997,0.8260618819500001,0.15079938204999999,-0.021943766000000003,0.12959786633300002
03:27:30,-0.30837786,1.2254555400000002,1.17117832,0.003539340000000002,-0.013741159999999975,0.20172663999999998,-11.34860158,27.7571653,-33.18606146,16.02123754,0.5441188852000001,1.1825070635,0.8244458734,0.1484612846,-0.020213692000000005,0.12842041299600002
03:27:30,-0.302866065,1.2150045350000003,1.17112678,0.002543235000000005,-0.012073889999999976,0.19950005999999998,-11.363638695,27.742945825,-33.195330715,16.029242035,0.5480459483,1.1724815446249999,0.8228298648500001,0.14612318715,-0.01848361799999998,0.127242959659
03:27:30,-0.29735427000000003,1.20455353,1.1710752400000002,0.0015471300000000077,-0.010406619999999978,0.19727347999999997,-11.37867581,27.72872635,-33.20459997,16.03724653,0.5519730114,1.1624560257499998,0.8212138563,0.14378508969999998,-0.01675354399999998,0.12606550632200003
03:27:30,-0.29184247499999993,1.1941025250000001,1.1710237000000001,0.0005510250000000105,-0.008739349999999979,0.19504689999999997,-11.393712924999999,27.714506874999998,-33.213869224999996,16.045251025,0.5559000745,1.1524305068749998,0.81959784775,0.14144699225,-0.015023469999999983,0.12488805298500001
03:27:30,-0.28633067999999995,1.1836515200000002,1.17097216,-0.0004450800000000005,-0.007072079999999981,0.19282032,-11.40875004,27.7002874,-33.223138479999996,16.05325552,0.5598271376,1.1424049879999998,0.8179818392,0.1391088948,-0.013293395999999985,0.12371059964800002
03:27:30,-0.28081888499999996,1.1732005150000002,1.1709206200000002,-0.0014411849999999976,-0.005404809999999982,0.19059373999999998,-11.423787155,27.686067925,-33.232407734999995,16.061260015,0.5637542007,1.132379469125,0.81636583065,0.13677079735,-0.011563321999999987,0.12253314631100001
03:27:30,-0.27530709,1.1627495100000003,1.1708690800000001,-0.0024372899999999947,-0.0037375399999999837,0.18836715999999998,-11.43882427,27.67184845,-33.241676989999995,16.06926451,0.5676812638000001,1.12235395025,0.8147498221,0.1344326999,-0.009833247999999989,0.121355692974
03:27:30,-0.269795295,1.152298505,1.17081754,-0.003433394999999992,-0.002070269999999985,0.18614057999999997,-11.453861385,27.657628974999998,-33.250946244999994,16.077269004999998,0.5716083269000001,1.112328431375,0.81313381355,0.13209460245,-0.00810317399999999,0.12017823963700001
03:27:30,-0.2642835,1.1418475000000001,1.170766,-0.004429499999999989,-0.0004029999999999867,0.18391399999999997,-11.4688985,27.643409499999997,-33.2602155,16.0852735,0.57553539,1.1023029125,0.811517805,0.129756505,-0.006373099999999993,0.11900078630000001
03:27:30,-0.258771705,1.1313964950000002,1.1707144600000001,-0.005425605,0.0012642700000000118,0.18168742,-11.483935615,27.629190025,-33.269484755,16.093277995,0.5794624531,1.0922773936249999,0.80990179645,0.12741840755,-0.0046430259999999945,0.11782333296300002
03:27:30,-0.2532599099999999,1.1209454900000002,1.17066292,-0.006421709999999997,0.0029315400000000102,0.17946083999999998,-11.49897273,27.61497055,-33.27875401,16.10128249,0.5833895162,1.0822518747499998,0.8082857879,0.12508031009999998,-0.0029129519999999964,0.11664587962600001
03:27:30,-0.24774811499999994,1.1104944850000003,1.17061138,-0.007417814999999994,0.004598810000000009,0.17723425999999998,-11.514009845,27.600751074999998,-33.288023265,16.109286985,0.5873165793,1.0722263558749998,0.8066697793500001,0.12274221264999999,-0.0011828779999999983,0.11546842628900002
03:27:30,-0.24223631999999995,1.10004348,1.1705598400000001,-0.008413919999999991,0.006266080000000007,0.17500767999999997,-11.52904696,27.5865316,-33.29729252,16.11729148,0.5912436424,1.0622008369999998,0.8050537708000001,0.1204041152,0.0005471959999999998,0.11429097295200001
03:27:30,-0.23672452499999996,1.0895924750000001,1.1705083,-0.009410024999999989,0.007933350000000033,0.17278109999999997,-11.544084075,27.572312125,-33.306561775,16.125295975,0.5951707055000001,1.0521753181249998,0.80343776225,0.11806601775,0.002277269999999998,0.11311351961500002
03:27:30,-0.23121272999999998,1.0791414700000002,1.17045676,-0.01040613,0.009600620000000032,0.17055452,-11.559121189999999,27.55809265,-33.31583103,16.13330047,0.5990977686000001,1.0421497992499997,0.8018217537000001,0.11572792030000001,0.004007343999999996,0.11193606627800001
03:27:30,-0.225700935,1.0686904650000002,1.1704052200000001,-0.011402234999999997,0.01126789000000003,0.16832793999999998,-11.574158305,27.543873174999998,-33.325100285,16.141304965,0.6030248317,1.032124280375,0.80020574515,0.11338982284999999,0.005737418000000022,0.110758612941
03:27:30,-0.22018914,1.0582394600000002,1.17035368,-0.012398339999999994,0.012935160000000029,0.16610135999999998,-11.58919542,27.529653699999997,-33.33436954,16.149309459999998,0.6069518948,1.0220987615,0.7985897366000001,0.11105172539999997,0.00746749200000002,0.109581159604
03:27:30,-0.21467734500000002,1.0477884550000003,1.17030214,-0.013394444999999991,0.014602430000000027,0.16387477999999997,-11.604232535,27.515434225,-33.343638795,16.157313955,0.6108789579,1.0120732426249999,0.79697372805,0.10871362795,0.009197566000000018,0.10840370626700002
03:27:30,-0.20916554999999992,1.03733745,1.1702506000000001,-0.014390549999999988,0.016269700000000026,0.16164819999999996,-11.61926965,27.50121475,-33.352908049999996,16.16531845,0.614806021,1.0020477237499998,0.7953577195,0.10637553049999998,0.010927640000000016,0.10722625293000002
03:27:30,-0.20365375499999994,1.0268864450000001,1.17019906,-0.015386654999999999,0.017936970000000024,0.15942161999999999,-11.634306765,27.486995274999998,-33.362177304999996,16.173322945,0.6187330841,0.9920222048749998,0.79374171095,0.10403743305000002,0.012657714000000014,0.10604879959300001
03:27:30,-0.19814195999999995,1.0164354400000002,1.17014752,-0.016382759999999996,0.019604240000000023,0.15719503999999998,-11.64934388,27.472775799999997,-33.371446559999995,16.18132744,0.6226601472000001,0.9819966859999998,0.7921257024,0.1016993356,0.014387788000000012,0.104871346256
03:27:30,-0.19263016499999996,1.0059844350000002,1.1700959800000001,-0.017378864999999993,0.02127151000000002,0.15496845999999997,-11.664380995,27.458556325,-33.380715814999995,16.189331935,0.6265872103,0.9719711671249998,0.79050969385,0.09936123814999998,0.01611786200000001,0.10369389291900002
03:27:30,-0.18711836999999998,0.9955334300000003,1.17004444,-0.01837496999999999,0.02293878000000002,0.15274188,-11.67941811,27.44433685,-33.389985069999994,16.19733643,0.6305142734,0.9619456482499997,0.7888936853,0.09702314070000001,0.01784793600000001,0.10251643958200002
03:27:30,-0.181606575,0.9850824250000001,1.1699929,-0.019371074999999988,0.024606050000000018,0.15051529999999996,-11.694455225,27.430117375,-33.399254324999994,16.205340924999998,0.6344413365,0.9519201293749997,0.78727767675,0.09468504324999999,0.019578010000000007,0.10133898624500001
03:27:30,-0.17609478,0.9746314200000001,1.1699413600000002,-0.02036718,0.026273320000000017,0.14828871999999998,-11.70949234,27.415897899999997,-33.40852358,16.21334542,0.6383683996,0.9418946104999999,0.7856616682,0.09234694580000002,0.021308084000000005,0.100161532908
03:27:30,-0.1705829849999999,0.9641804150000002,1.16988982,-0.021363284999999996,0.027940590000000015,0.14606213999999995,-11.724529454999999,27.401678425,-33.417792835,16.221349915,0.6422954627,0.9318690916249999,0.7840456596500001,0.09000884835,0.023038158000000003,0.09898407957100003
03:27:30,-0.16507118999999992,0.9537294100000002,1.16983828,-0.022359389999999993,0.029607860000000014,0.14383555999999997,-11.73956657,27.38745895,-33.42706209,16.22935441,0.6462225258000001,0.9218435727499998,0.7824296511000001,0.08767075089999998,0.024768232,0.09780662623400002
03:27:30,-0.15955939499999994,0.9432784050000003,1.1697867400000002,-0.02335549499999999,0.03127513000000001,0.14160898,-11.754603685,27.373239475,-33.436331345,16.237358905,0.6501495889000001,0.9118180538749998,0.7808136425500001,0.08533265345000002,0.026498306,0.09662917289700002
03:27:30,-0.15404759999999995,0.9328274000000003,1.1697352,-0.024351599999999987,0.03294240000000004,0.13938239999999996,-11.7696408,27.359019999999997,-33.4456006,16.2453634,0.654076652,0.9017925349999998,0.779197634,0.082994556,0.028228379999999997,0.09545171956000001
03:27:30,-0.14853580499999997,0.9223763950000001,1.16968366,-0.025347704999999998,0.03460967000000004,0.13715581999999998,-11.784677915,27.344800525,-33.454869855,16.253367895,0.6580037151,0.8917670161249998,0.7775816254500001,0.08065645854999998,0.029958454000000023,0.094274266223
03:27:30,-0.14302400999999998,0.9119253900000002,1.1696321200000002,-0.026343809999999995,0.036276940000000035,0.13492923999999995,-11.79971503,27.33058105,-33.46413911,16.26137239,0.6619307782,0.8817414972499997,0.7759656169,0.07831836110000001,0.03168852800000002,0.09309681288600002
03:27:30,-0.137512215,0.9014743850000002,1.16958058,-0.027339914999999992,0.037944210000000034,0.13270265999999997,-11.814752145,27.316361575,-33.473408365,16.269376885,0.6658578413,0.8717159783749997,0.77434960835,0.07598026364999999,0.03341860200000002,0.09191935954900002
03:27:30,-0.13200042,0.8910233800000003,1.16952904,-0.02833601999999999,0.03961148000000003,0.13047608,-11.82978926,27.302142099999998,-33.48267762,16.277381379999998,0.6697849044,0.8616904594999999,0.7727335998,0.07364216619999997,0.03514867600000002,0.09074190621200001
03:27:30,-0.1264886249999999,0.8805723750000003,1.1694775000000002,-0.029332124999999987,0.04127875000000003,0.12824949999999996,-11.844826375,27.287922625,-33.491946875,16.285385875,0.6737119675000001,0.8516649406249999,0.77111759125,0.07130406875,0.036878750000000016,0.089564452875
03:27:30,-0.12097682999999992,0.8701213700000001,1.16942596,-0.030328229999999998,0.04294602000000003,0.12602291999999998,-11.85986349,27.27370315,-33.501216129999996,16.29339037,0.6776390306000001,0.8416394217499998,0.7695015827,0.06896597129999998,0.038608824000000014,0.08838699953800003
03:27:30,-0.11546503499999994,0.8596703650000002,1.16937442,-0.031324334999999995,0.04461329000000003,0.12379633999999995,-11.874900605,27.259483675,-33.510485384999996,16.301394865,0.6815660937,0.8316139028749998,0.76788557415,0.06662787385000002,0.04033889800000001,0.08720954620100002
03:27:30,-0.10995323999999995,0.8492193600000002,1.1693228800000002,-0.03232043999999999,0.046280560000000026,0.12156975999999997,-11.889937719999999,27.245264199999998,-33.519754639999995,16.30939936,0.6854931568,0.8215883839999998,0.7662695656,0.0642897764,0.04206897200000001,0.08603209286400001
03:27:30,-0.10444144499999997,0.8387683550000002,1.16927134,-0.03331654499999999,0.047947830000000025,0.11934318,-11.904974834999999,27.231044725,-33.529023894999995,16.317403855,0.6894202199,0.8115628651249998,0.76465355705,0.06195167894999998,0.04379904600000001,0.08485463952700001
03:27:30,-0.09892964999999998,0.8283173500000003,1.1692198,-0.034312649999999986,0.04961510000000002,0.11711659999999996,-11.92001195,27.21682525,-33.538293149999994,16.32540835,0.693347283,0.8015373462499997,0.7630375485,0.05961358150000001,0.045529120000000006,0.08367718619
03:27:30,-0.093417855,0.8178663450000001,1.1691682600000002,-0.03530875499999998,0.05128237000000002,0.11489001999999998,-11.935049065,27.202605775,-33.547562404999994,16.333412844999998,0.6972743461,0.7915118273749997,0.7614215399500001,0.05727548404999999,0.047259194000000004,0.08249973285300002
03:27:30,-0.0879060599999999,0.8074153400000001,1.16911672,-0.03630485999999998,0.05294964000000002,0.11266343999999995,-11.95008618,27.188386299999998,-33.55683166,16.34141734,0.7012014092,0.7814863084999997,0.7598055314000001,0.05493738660000003,0.048989268,0.08132227951600002
03:27:30,-0.08239426499999991,0.7969643350000002,1.16906518,-0.037300965000000005,0.05461691000000002,0.11043685999999997,-11.965123295,27.174166825,-33.566100915,16.349421835,0.7051284723,0.7714607896249999,0.7581895228500001,0.052599289150000006,0.050719342,0.08014482617900001
03:27:30,-0.07688246999999993,0.7865133300000002,1.1690136400000002,-0.03829707,0.05628418000000002,0.10821027999999999,-11.98016041,27.15994735,-33.57537017,16.35742633,0.7090555354,0.7614352707499998,0.7565735143000001,0.050261191699999985,0.052449416,0.078967372842
03:27:30,-0.07137067499999994,0.7760623250000003,1.1689621000000001,-0.039293175,0.057951450000000015,0.10598369999999996,-11.995197525,27.145727875,-33.584639425,16.365430825,0.7129825985,0.7514097518749998,0.75495750575,0.04792309425000002,0.05417949,0.07778991950500003
03:27:30,-0.06585887999999995,0.7656113200000001,1.16891056,-0.04028928,0.059618720000000014,0.10375711999999998,-12.01023464,27.131508399999998,-33.59390868,16.37343532,0.7169096616,0.7413842329999998,0.7533414972000001,0.0455849968,0.05590956400000002,0.07661246616800002
03:27:30,-0.06034708499999997,0.7551603150000001,1.1688590200000002,-0.041285384999999994,0.06128599000000004,0.10153053999999995,-12.025271755,27.117288925,-33.603177935,16.381439815,0.7208367247,0.7313587141249998,0.75172548865,0.04324689934999998,0.05763963800000002,0.07543501283100001
03:27:30,-0.05483528999999998,0.7447093100000002,1.1688074800000001,-0.04228148999999999,0.06295326000000004,0.09930395999999997,-12.04030887,27.10306945,-33.61244719,16.38944431,0.7247637878000001,0.7213331952499997,0.7501094801,0.040908801900000014,0.05936971200000002,0.07425755949400001
03:27:30,-0.049323494999999995,0.7342583050000002,1.16875594,-0.04327759499999999,0.06462053000000004,0.09707737999999999,-12.055345984999999,27.088849975,-33.621716445,16.397448805,0.7286908509,0.7113076763749997,0.74849347155,0.03857070444999999,0.06109978600000002,0.073080106157
03:27:30,-0.0438116999999999,0.7238073000000003,1.1687044000000002,-0.044273699999999985,0.06628780000000004,0.09485079999999996,-12.0703831,27.074630499999998,-33.6309857,16.405453299999998,0.732617914,0.7012821574999997,0.746877463,0.03623260699999997,0.06282986000000002,0.07190265282000002
03:27:30,-0.03829990499999991,0.7133562950000003,1.1686528600000001,-0.04526980499999998,0.06795507000000003,0.09262421999999998,-12.085420215,27.060411025,-33.640254954999996,16.413457795,0.7365449771,0.6912566386249999,0.74526145445,0.03389450955000001,0.06455993400000001,0.07072519948300002
03:27:30,-0.032788109999999926,0.7029052900000001,1.16860132,-0.04626590999999998,0.06962234000000003,0.09039763999999995,-12.10045733,27.04619155,-33.649524209999996,16.42146229,0.7404720402,0.6812311197499998,0.7436454459,0.031556412099999986,0.06629000800000001,0.06954774614600001
03:27:30,-0.02727631499999994,0.6924542850000002,1.16854978,-0.047262015000000004,0.07128961000000003,0.08817105999999997,-12.115494445,27.031972075,-33.658793464999995,16.429466785,0.7443991033,0.6712056008749998,0.74202943735,0.02921831465000002,0.06802008200000001,0.068370292809
03:27:30,-0.021764519999999954,0.6820032800000002,1.1684982400000001,-0.04825812,0.07295688000000003,0.08594447999999999,-12.13053156,27.017752599999998,-33.668062719999995,16.43747128,0.7483261664,0.6611800819999998,0.7404134288,0.0268802172,0.06975015600000001,0.06719283947200003
03:27:30,-0.016252724999999968,0.6715522750000003,1.1684467,-0.049254225,0.07462415000000003,0.08371789999999996,-12.145568675,27.003533124999997,-33.677331974999994,16.445475775,0.7522532295,0.6511545631249998,0.7387974202500001,0.02454211974999998,0.07148023000000003,0.06601538613500002
03:27:30,-0.010740929999999982,0.6611012700000003,1.16839516,-0.050250329999999996,0.07629142000000003,0.08149131999999998,-12.16060579,26.98931365,-33.686601229999994,16.45348027,0.7561802926,0.6411290442499997,0.7371814117000001,0.022204022300000015,0.073210304,0.06483793279800001
03:27:30,-0.005229134999999885,0.6506502650000001,1.1683436200000001,-0.05124643499999999,0.07795869000000002,0.07926473999999994,-12.175642905,26.975094175,-33.695870485,16.461484764999998,0.7601073557,0.6311035253749997,0.7355654031500001,0.019865924849999994,0.07494037800000003,0.06366047946100001
03:27:30,0.00028266000000010116,0.6401992600000002,1.16829208,-0.05224253999999999,0.07962596000000002,0.07703815999999997,-12.19068002,26.960874699999998,-33.70513974,16.46948926,0.7640344188,0.6210780064999997,0.7339493946,0.01752782740000003,0.076670452,0.06248302612400003
03:27:30,0.005794455000000087,0.6297482550000002,1.16824054,-0.05323864499999999,0.08129323000000002,0.07481157999999999,-12.205717135,26.946655225,-33.714408995,16.477493754999998,0.7679614819,0.6110524876249996,0.7323333860500001,0.015189729950000008,0.07840052600000003,0.06130557278700002
03:27:30,0.011306250000000073,0.6192972500000002,1.1681890000000001,-0.054234749999999984,0.08296050000000005,0.07258499999999996,-12.220754249999999,26.93243575,-33.72367825,16.48549825,0.771888545,0.6010269687499998,0.7307173775,0.012851632499999988,0.0801306,0.06012811945000002
03:27:30,0.01681804500000006,0.6088462450000003,1.16813746,-0.05523085499999998,0.08462777000000005,0.07035841999999998,-12.235791365,26.918216275,-33.732947505,16.493502745,0.7758156081,0.5910014498749998,0.7291013689500001,0.010513535050000022,0.08186067400000002,0.05895066611300001
03:27:30,0.022329840000000045,0.5983952400000003,1.16808592,-0.05622695999999998,0.08629504000000005,0.06813183999999994,-12.25082848,26.903996799999998,-33.74221676,16.50150724,0.7797426712,0.5809759309999998,0.7274853604,0.008175437600000002,0.08359074799999999,0.057773212776000005
03:27:30,0.02784163500000003,0.5879442350000001,1.1680343800000001,-0.057223065000000004,0.08796231000000004,0.06590525999999997,-12.265865595,26.889777324999997,-33.751486015,16.509511735,0.7836697343,0.5709504121249998,0.72586935185,0.005837340149999981,0.08532082200000002,0.056595759439000026
03:27:30,0.03335343000000002,0.5774932300000002,1.16798284,-0.05821917,0.08962958000000004,0.06367867999999999,-12.28090271,26.87555785,-33.76075527,16.51751623,0.7875967974,0.5609248932499997,0.7242533433,0.003499242700000016,0.08705089599999999,0.05541830610200002
03:27:30,0.038865225000000114,0.5670422250000002,1.1679313,-0.059215275,0.09129685000000004,0.061452099999999954,-12.295939825,26.861338375,-33.770024525,16.525520725,0.7915238605,0.5508993743749997,0.72263733475,0.0011611452499999952,0.08878097000000001,0.054240852765000014
03:27:30,0.0443770200000001,0.5565912200000003,1.1678797600000002,-0.060211379999999995,0.09296412000000004,0.059225519999999976,-12.31097694,26.847118899999998,-33.779293779999996,16.533525219999998,0.7954509236,0.5408738554999997,0.7210213262,-0.0011769522000000254,0.09051104399999998,0.05306339942800001
03:27:30,0.049888815000000086,0.5461402150000003,1.16782822,-0.06120748499999999,0.09463139000000004,0.05699893999999994,-12.326014055,26.832899425,-33.788563034999996,16.541529715,0.7993779867,0.5308483366249996,0.71940531765,-0.0035150496499999906,0.09224111800000001,0.05188594609100003
03:27:30,0.05540061000000007,0.5356892100000001,1.16777668,-0.06220358999999999,0.09629866000000004,0.054772359999999964,-12.34105117,26.81867995,-33.797832289999995,16.549534209999997,0.8033050498000001,0.5208228177499998,0.7177893091,-0.005853147100000011,0.09397119200000004,0.05070849275400002
03:27:30,0.06091240500000006,0.5252382050000002,1.1677251400000002,-0.06319969499999999,0.09796593000000003,0.052545779999999986,-12.356088285,26.804460475,-33.807101544999995,16.557538705,0.8072321129,0.5107972988749998,0.7161733005500001,-0.008191244549999976,0.09570126600000001,0.04953103941700002
03:27:30,0.06642420000000004,0.5147872000000002,1.1676736,-0.06419579999999998,0.09963320000000003,0.05031919999999995,-12.3711254,26.790240999999998,-33.816370799999994,16.5655432,0.811159176,0.5007717799999998,0.7145572920000001,-0.010529341999999997,0.09743134000000003,0.04835358608000001
03:27:30,0.07193599500000003,0.5043361950000003,1.16762206,-0.06519190499999998,0.10130047000000003,0.048092619999999975,-12.386162514999999,26.776021524999997,-33.825640054999994,16.573547695,0.8150862391,0.49074626112499975,0.71294128345,-0.012867439450000018,0.099161414,0.047176132743000004
03:27:30,0.07744779000000013,0.4938851900000003,1.1675705200000002,-0.06618800999999998,0.10296774000000003,0.04586603999999994,-12.40119963,26.76180205,-33.83490931,16.58155219,0.8190133022,0.4807207422499997,0.7113252749000001,-0.015205536899999983,0.10089148800000003,0.045998679406000026
03:27:30,0.08295958500000011,0.4834341850000001,1.16751898,-0.067184115,0.10463501000000003,0.04363945999999996,-12.416236744999999,26.747582575,-33.844178565,16.589556684999998,0.8229403653,0.4706952233749997,0.70970926635,-0.017543634350000004,0.102621562,0.04482122606900002
03:27:30,0.0884713800000001,0.47298318000000017,1.16746744,-0.06818022,0.10630228000000003,0.041412879999999985,-12.43127386,26.7333631,-33.85344782,16.59756118,0.8268674284,0.46066970449999967,0.7080932578000001,-0.01988173179999997,0.10435163600000003,0.043643772732000014
03:27:30,0.09398317500000009,0.4625321750000002,1.1674159000000002,-0.069176325,0.10796955000000003,0.03918629999999995,-12.446310975,26.719143625,-33.862717075,16.605565674999998,0.8307944915000001,0.45064418562499964,0.70647724925,-0.02221982924999999,0.10608171,0.04246631939500001
03:27:30,0.09949497000000007,0.45208117000000025,1.16736436,-0.07017243,0.10963682000000002,0.036959719999999974,-12.46134809,26.70492415,-33.87198633,16.61357017,0.8347215546,0.4406186667499996,0.7048612407000001,-0.02455792670000001,0.10781178400000002,0.04128886605800003
03:27:30,0.10500676500000006,0.4416301650000003,1.16731282,-0.07116853499999999,0.11130409000000002,0.03473313999999994,-12.476385205,26.690704675,-33.881255585,16.621574664999997,0.8386486177,0.4305931478749998,0.70324523215,-0.026896024149999975,0.10954185799999999,0.04011141272100002
03:27:30,0.11051856000000004,0.4311791600000001,1.1672612800000002,-0.07216463999999999,0.11297136000000002,0.03250655999999996,-12.49142232,26.6764852,-33.89052484,16.62957916,0.8425756808,0.4205676289999998,0.7016292236,-0.029234121599999996,0.11127193200000002,0.038933959384000016
03:27:30,0.11603035500000003,0.42072815500000016,1.16720974,-0.07316074499999999,0.11463863000000002,0.030279979999999984,-12.506459435,26.662265724999997,-33.899794095,16.637583655,0.8465027439,0.41054211012499975,0.70001321505,-0.03157221905000002,0.11300200599999999,0.03775650604700001
03:27:30,0.12154215000000013,0.4102771500000002,1.1671582,-0.07415684999999998,0.11630590000000002,0.02805339999999995,-12.52149655,26.64804625,-33.90906335,16.64558815,0.850429807,0.4005165912499997,0.6983972065,-0.03391031649999998,0.11473208000000001,0.03657905271000003
03:27:30,0.1270539450000001,0.39982614500000024,1.1671066600000002,-0.07515295499999998,0.11797317000000002,0.025826819999999973,-12.536533665,26.633826775,-33.918332604999996,16.653592645,0.8543568701,0.3904910723749997,0.69678119795,-0.03624841395,0.11646215400000004,0.035401599373000026
03:27:30,0.1325657400000001,0.3893751400000003,1.1670551200000001,-0.07614905999999998,0.11964044000000001,0.02360023999999994,-12.551570779999999,26.6196073,-33.927601859999996,16.661597139999998,0.8582839332,0.38046555349999966,0.6951651894,-0.03858651140000002,0.11819222800000001,0.03422414603600002
03:27:30,0.13807753500000008,0.37892413500000033,1.16700358,-0.077145165,0.12130771000000001,0.02137365999999996,-12.566607895,26.605387824999998,-33.936871114999995,16.669601635,0.8622109963,0.37044003462499964,0.6935491808500001,-0.04092460884999999,0.11992230200000004,0.03304669269900001
03:27:30,0.14358933000000007,0.36847313000000015,1.1669520400000002,-0.07814127,0.12297498000000001,0.019147079999999983,-12.581645009999999,26.59116835,-33.946140369999995,16.677606129999997,0.8661380594,0.3604145157499996,0.6919331723000001,-0.04326270630000001,0.121652376,0.03186923936200001
03:27:30,0.14910112500000006,0.3580221250000002,1.1669005000000001,-0.079137375,0.12464225000000001,0.01692049999999995,-12.596682125,26.576948875,-33.955409624999994,16.685610625,0.8700651225,0.3503889968749998,0.6903171637500001,-0.045600803749999974,0.12338245000000003,0.03069178602500003
03:27:30,0.15461292000000004,0.34757112000000023,1.16684896,-0.08013347999999999,0.12630952000000006,0.014693919999999971,-12.61171924,26.5627294,-33.964678879999994,16.69361512,0.8739921856,0.3403634779999998,0.6887011552,-0.047938901199999995,0.125112524,0.029514332688000022
03:27:30,0.16012471500000014,0.3371201150000003,1.1667974200000002,-0.08112958499999999,0.12797679000000006,0.012467339999999938,-12.626756355,26.548509924999998,-33.973948135,16.701619615,0.8779192487,0.33033795912499975,0.6870851466500001,-0.050276998650000015,0.12684259800000003,0.028336879351000016
03:27:30,0.16563651000000013,0.3266691100000003,1.1667458800000001,-0.08212568999999999,0.12964406000000006,0.01024075999999996,-12.64179347,26.53429045,-33.98321739,16.70962411,0.8818463118000001,0.3203124402499997,0.6854691381,-0.05261509609999998,0.128572672,0.02715942601400001
03:27:30,0.1711483050000001,0.31621810500000014,1.16669434,-0.08312179499999998,0.13131133000000006,0.008014179999999982,-12.656830585,26.520070975,-33.992486645,16.717628604999998,0.8857733749,0.3102869213749997,0.6838531295500001,-0.05495319355,0.13030274600000002,0.02598197267700003
03:27:30,0.1766601000000001,0.3057671000000002,1.1666428,-0.08411789999999998,0.13297860000000006,0.005787599999999948,-12.6718677,26.5058515,-34.0017559,16.7256331,0.889700438,0.30026140249999966,0.682237121,-0.057291290999999966,0.13203282,0.024804519340000025
03:27:30,0.18217189500000008,0.2953160950000002,1.1665912600000001,-0.08511400499999998,0.13464587000000006,0.0035610199999999703,-12.686904815,26.491632024999998,-34.011025155,16.733637594999998,0.8936275011,0.29023588362499964,0.6806211124500001,-0.05962938844999999,0.13376289400000002,0.02362706600300002
03:27:30,0.18768369000000007,0.28486509000000027,1.16653972,-0.08611010999999998,0.13631314000000005,0.0013344399999999368,-12.70194193,26.47741255,-34.02029441,16.74164209,0.8975545642,0.2802103647499996,0.6790051039,-0.06196748590000001,0.135492968,0.022449612666000013
03:27:30,0.19319548500000017,0.2744140850000003,1.16648818,-0.087106215,0.13798041000000005,-0.0008921400000000412,-12.716979044999999,26.463193075,-34.029563665,16.749646585,0.9014816273,0.2701848458749996,0.67738909535,-0.06430558334999997,0.13722304200000002,0.021272159329000007
03:27:30,0.19870728000000004,0.26396308000000035,1.1664366400000001,-0.08810232,0.13964768000000005,-0.0031187200000000193,-12.73201616,26.4489736,-34.03883292,16.75765108,0.9054086904,0.2601593269999998,0.6757730868,-0.0666436808,0.138953116,0.020094705992000028
03:27:30,0.20421907500000014,0.25351207500000017,1.1663851,-0.089098425,0.14131495000000005,-0.005345300000000053,-12.747053274999999,26.434754124999998,-34.048102175,16.765655575,0.9093357535000001,0.25013380812499975,0.67415707825,-0.06898177825000001,0.14068319,0.018917252655000022
03:27:30,0.20973087,0.2430610700000002,1.16633356,-0.09009452999999999,0.14298222000000005,-0.007571880000000031,-12.76209039,26.42053465,-34.057371429999996,16.77366007,0.9132628166,0.24010828924999972,0.6725410697,-0.07131987569999998,0.14241326400000004,0.017739799318000016
03:27:30,0.2152426650000001,0.23261006500000025,1.1662820200000001,-0.09109063499999999,0.14464949000000005,-0.009798460000000064,-12.777127505,26.406315175,-34.066640684999996,16.781664565,0.9171898797,0.2300827703749997,0.6709250611500001,-0.07365797315,0.144143338,0.01656234598100001
03:27:30,0.22075445999999999,0.2221590600000003,1.16623048,-0.09208673999999999,0.14631676000000005,-0.012025040000000042,-12.79216462,26.3920957,-34.075909939999995,16.789669059999998,0.9211169428,0.22005725149999966,0.6693090526000001,-0.07599607060000002,0.14587341200000004,0.015384892644000031
03:27:30,0.22626625500000008,0.21170805500000034,1.16617894,-0.09308284499999998,0.14798403000000004,-0.01425162000000002,-12.807201735,26.377876224999998,-34.085179194999995,16.797673555,0.9250440059,0.21003173262499963,0.66769304405,-0.07833416804999999,0.147603486,0.014207439307000025
03:27:30,0.23177805000000018,0.20125705000000016,1.1661274000000001,-0.09407894999999998,0.14965130000000004,-0.016478200000000054,-12.82223885,26.36365675,-34.094448449999994,16.805678049999997,0.928971069,0.2000062137499996,0.6660770355000001,-0.0806722655,0.14933356000000003,0.013029985970000019
03:27:30,0.23728984500000005,0.1908060450000002,1.16607586,-0.09507505499999998,0.15131857000000004,-0.018704780000000032,-12.837275965,26.349437275,-34.103717704999994,16.813682545,0.9328981321,0.18998069487499958,0.66446102695,-0.08301036294999997,0.151063634,0.011852532633000012
03:27:30,0.24280164000000015,0.18035504000000024,1.16602432,-0.09607116,0.15298584000000004,-0.02093136000000001,-12.85231308,26.3352178,-34.11298695999999,16.82168704,0.9368251952000001,0.17995517599999955,0.6628450184000001,-0.08534846039999999,0.15279370800000003,0.010675079296000034
03:27:30,0.24831343500000003,0.16990403500000006,1.1659727800000002,-0.097067265,0.15465311000000004,-0.023157940000000043,-12.867350195,26.320998324999998,-34.122256215,16.829691535,0.9407522583,0.16992965712499974,0.66122900985,-0.08768655785000001,0.154523782,0.009497625959000028
03:27:30,0.2538252300000001,0.15945303000000033,1.16592124,-0.09806337,0.15632038000000004,-0.02538452000000002,-12.882387309999999,26.30677885,-34.13152547,16.83769603,0.9446793214,0.15990413824999972,0.6596130013000001,-0.09002465529999998,0.15625385600000002,0.008320172622000022
03:27:30,0.259337025,0.14900202500000015,1.1658697,-0.099059475,0.15798765000000003,-0.027611100000000055,-12.897424425,26.292559375,-34.140794725,16.845700524999998,0.9486063845,0.1498786193749997,0.65799699275,-0.09236275275,0.15798393,0.007142719285000015
03:27:30,0.2648488200000001,0.1385510200000004,1.1658181600000002,-0.10005557999999999,0.15965492000000003,-0.029837680000000033,-12.912461539999999,26.2783399,-34.15006398,16.85370502,0.9525334476,0.13985310049999966,0.6563809842,-0.09470085019999996,0.15971400400000002,0.005965265948000009
03:27:30,0.2703606150000002,0.12810001500000023,1.16576662,-0.10105168499999999,0.16132219000000003,-0.03206426000000001,-12.927498654999999,26.264120424999998,-34.159333235,16.861709514999998,0.9564605107,0.12982758162499963,0.65476497565,-0.09703894764999998,0.161444078,0.004787812611000031
03:27:30,0.27587241000000007,0.11764901000000005,1.16571508,-0.10204778999999999,0.16298946000000003,-0.034290840000000045,-12.94253577,26.249900949999997,-34.16860249,16.86971401,0.9603875738000001,0.1198020627499996,0.6531489671,-0.0993770451,0.16317415200000002,0.0036103592740000245
03:27:30,0.28138420500000016,0.10719800500000032,1.1656635400000002,-0.10304389499999998,0.16465673000000003,-0.03651742000000002,-12.957572885,26.235681475,-34.177871745,16.877718504999997,0.9643146369,0.10977654387499958,0.65153295855,-0.10171514254999997,0.164904226,0.0024329059370000183
03:27:31,0.286896,0.096747,1.165612,-0.10404,0.166324,-0.038744,-12.97261,26.221462,-34.187141,16.885723,0.9682417,0.099751025,0.64991695,-0.10405324,0.1666343,0.0012554526
03:27:31,0.28491508,0.09691177,1.17362165,-0.10369376,0.166526415,-0.03800358,-12.969198669999999,26.21805002,-34.195592389999995,16.899037085,0.971094842,0.099324532905,0.6573338177500001,-0.1033916394,0.16680195865000003,0.001488470457
03:27:31,0.28293416,0.09707654,1.1816313,-0.10334752,0.16672883,-0.037263160000000004,-12.96578734,26.21463804,-34.20404378,16.912351169999997,0.9739479839999999,0.09889804080999999,0.6647506855,-0.1027300388,0.1669696173,0.001721488314
03:27:31,0.28095324,0.09724131,1.18964095,-0.10300127999999999,0.166931245,-0.03652274,-12.96237601,26.211226059999998,-34.21249517,16.925665255,0.976801126,0.098471548715,0.67216755325,-0.1020684382,0.16713727595000002,0.001954506171
03:27:31,0.27897232,0.09740608,1.1976506,-0.10265503999999999,0.16713366,-0.03578232,-12.95896468,26.20781408,-34.220946559999994,16.93897934,0.979654268,0.09804505661999999,0.679584421,-0.10140683760000001,0.1673049346,0.002187524028
03:27:31,0.2769914,0.09757085,1.20566025,-0.10230879999999999,0.167336075,-0.0350419,-12.955553349999999,26.2044021,-34.22939795,16.952293424999997,0.98250741,0.09761856452499999,0.6870012887500001,-0.100745237,0.16747259325000002,0.002420541885
03:27:31,0.27501048,0.09773562,1.2136699000000002,-0.10196256,0.16753849,-0.03430148,-12.95214202,26.20099012,-34.23784934,16.965607509999998,0.985360552,0.09719207243,0.6944181565,-0.10008363640000001,0.1676402519,0.0026535597420000003
03:27:31,0.27302956,0.09790039,1.2216795500000002,-0.10161632,0.167740905,-0.033561060000000004,-12.94873069,26.197578139999997,-34.246300729999994,16.978921595,0.988213694,0.09676558033499999,0.70183502425,-0.0994220358,0.16780791055000002,0.002886577599
03:27:31,0.27104864,0.09806516,1.2296892000000001,-0.10127008,0.16794332,-0.03282064,-12.94531936,26.194166159999998,-34.25475212,16.99223568,0.991066836,0.09633908824,0.709251892,-0.09876043520000001,0.1679755692,0.003119595456
03:27:31,0.26906772,0.09822993000000001,1.2376988500000001,-0.10092383999999999,0.168145735,-0.03208022,-12.941908029999999,26.19075418,-34.26320351,17.005549764999998,0.993919978,0.095912596145,0.7166687597500001,-0.0980988346,0.16814322785000002,0.003352613313
03:27:31,0.26708679999999996,0.0983947,1.2457085,-0.10057759999999999,0.16834815,-0.0313398,-12.9384967,26.1873422,-34.271654899999994,17.01886385,0.99677312,0.09548610404999999,0.7240856275,-0.09743723400000001,0.1683108865,0.00358563117
03:27:31,0.26510588,0.09855947,1.25371815,-0.10023135999999999,0.16855056499999999,-0.030599380000000002,-12.93508537,26.18393022,-34.28010629,17.032177935,0.999626262,0.095059611955,0.73150249525,-0.0967756334,0.16847854515000002,0.0038186490270000002
03:27:31,0.26312495999999996,0.09872424,1.2617278,-0.09988512,0.16875298,-0.02985896,-12.931674039999999,26.180518239999998,-34.28855768,17.045492019999998,1.002479404,0.09463311985999999,0.738919363,-0.0961140328,0.1686462038,0.004051666884000001
03:27:31,0.26114403999999997,0.09888901,1.26973745,-0.09953888,0.168955395,-0.02911854,-12.92826271,26.17710626,-34.297009069999994,17.058806105,1.005332546,0.094206627765,0.7463362307500001,-0.0954524322,0.16881386245000002,0.004284684741
03:27:31,0.25916311999999997,0.09905378,1.2777471,-0.09919264,0.16915781,-0.02837812,-12.92485138,26.17369428,-34.30546046,17.07212019,1.008185688,0.09378013566999999,0.7537530985,-0.0947908316,0.1689815211,0.004517702598
03:27:31,0.25718219999999997,0.09921855,1.28575675,-0.09884639999999999,0.169360225,-0.0276377,-12.92144005,26.1702823,-34.31391185,17.085434274999997,1.01103883,0.09335364357499999,0.76116996625,-0.09412923100000001,0.16914917975000002,0.004750720455
03:27:31,0.25520128,0.09938332,1.2937664,-0.09850015999999999,0.16956264,-0.026897280000000003,-12.918028719999999,26.166870319999997,-34.322363239999994,17.09874836,1.013891972,0.09292715148,0.768586834,-0.0934676304,0.1693168384,0.004983738312
03:27:31,0.25322036,0.09954809,1.3017760500000002,-0.09815391999999999,0.169765055,-0.02615686,-12.91461739,26.16345834,-34.33081463,17.112062445,1.016745114,0.09250065938499999,0.7760037017500001,-0.09280602980000001,0.16948449705000002,0.005216756169
03:27:31,0.25123944,0.09971286,1.3097857000000002,-0.09780768,0.16996747,-0.02541644,-12.91120606,26.16004636,-34.33926602,17.12537653,1.019598256,0.09207416729,0.7834205695,-0.0921444292,0.1696521557,0.005449774026
03:27:31,0.24925851999999998,0.09987763,1.3177953500000001,-0.09746144,0.170169885,-0.02467602,-12.907794729999999,26.15663438,-34.347717409999994,17.138690614999998,1.022451398,0.091647675195,0.79083743725,-0.09148282860000001,0.16981981435000001,0.005682791883
03:27:31,0.2472776,0.1000424,1.3258050000000001,-0.0971152,0.1703723,-0.0239356,-12.9043834,26.153222399999997,-34.3561688,17.1520047,1.02530454,0.09122118309999999,0.798254305,-0.090821228,0.169987473,0.00591580974
03:27:31,0.24529668,0.10020717,1.33381465,-0.09676895999999999,0.170574715,-0.023195180000000003,-12.90097207,26.149810419999998,-34.36462019,17.165318785,1.028157682,0.090794691005,0.8056711727500001,-0.0901596274,0.17015513165,0.006148827597000001
03:27:31,0.24331576,0.10037194,1.3418243,-0.09642271999999999,0.17077713,-0.02245476,-12.89756074,26.14639844,-34.373071579999994,17.178632869999998,1.031010824,0.09036819890999999,0.8130880405,-0.0894980268,0.1703227903,0.0063818454540000005
03:27:31,0.24133484,0.10053671,1.34983395,-0.09607647999999999,0.170979545,-0.021714340000000002,-12.894149409999999,26.14298646,-34.38152297,17.191946955,1.033863966,0.089941706815,0.82050490825,-0.0888364262,0.17049044895,0.006614863311
03:27:31,0.23935392,0.10070148,1.3578436,-0.09573024,0.17118196,-0.02097392,-12.89073808,26.13957448,-34.38997436,17.20526104,1.036717108,0.08951521472,0.827921776,-0.0881748256,0.1706581076,0.006847881168
03:27:31,0.237373,0.10086625,1.36585325,-0.095384,0.171384375,-0.0202335,-12.88732675,26.136162499999998,-34.39842575,17.218575124999997,1.03957025,0.08908872262499999,0.8353386437500001,-0.087513225,0.17082576625,0.007080899025
03:27:31,0.23539208,0.10103102,1.3738629000000002,-0.09503776,0.17158679,-0.01949308,-12.88391542,26.13275052,-34.40687714,17.23188921,1.042423392,0.08866223053,0.8427555115,-0.08685162440000001,0.17099342490000002,0.007313916882
03:27:31,0.23341116,0.10119579000000001,1.3818725500000002,-0.09469151999999999,0.171789205,-0.01875266,-12.880504089999999,26.12933854,-34.41532853,17.245203295,1.045276534,0.08823573843499999,0.85017237925,-0.0861900238,0.17116108355,0.007546934739
03:27:31,0.23143024,0.10136056,1.3898822000000002,-0.09434527999999999,0.17199162,-0.018012240000000002,-12.87709276,26.12592656,-34.42377992,17.258517379999997,1.048129676,0.08780924634,0.857589247,-0.08552842320000001,0.17132874220000002,0.007779952596000001
03:27:31,0.22944931999999998,0.10152533,1.3978918500000002,-0.09399903999999999,0.172194035,-0.01727182,-12.87368143,26.122514579999997,-34.43223131,17.271831464999998,1.050982818,0.087382754245,0.8650061147500001,-0.0848668226,0.17149640085,0.008012970453
03:27:31,0.2274684,0.1016901,1.4059015000000001,-0.0936528,0.17239645,-0.0165314,-12.870270099999999,26.119102599999998,-34.440682699999996,17.28514555,1.05383596,0.08695626214999999,0.8724229825,-0.084205222,0.17166405950000002,0.00824598831
03:27:31,0.22548748,0.10185487,1.4139111500000001,-0.09330656,0.172598865,-0.01579098,-12.86685877,26.11569062,-34.44913409,17.298459635,1.056689102,0.086529770055,0.87983985025,-0.0835436214,0.17183171815,0.008479006167000001
03:27:31,0.22350656,0.10201964,1.4219208,-0.09296031999999999,0.17280128,-0.015050560000000001,-12.86344744,26.11227864,-34.45758548,17.311773719999998,1.059542244,0.08610327796,0.887256718,-0.08288202080000001,0.17199937680000002,0.008712024024
03:27:31,0.22152564,0.10218441,1.42993045,-0.09261407999999999,0.17300369499999999,-0.014310140000000002,-12.86003611,26.10886666,-34.466036869999996,17.325087805,1.062395386,0.085676785865,0.8946735857500001,-0.0822204202,0.17216703545,0.008945041881
03:27:31,0.21954472,0.10234918,1.4379401,-0.09226783999999999,0.17320611,-0.01356972,-12.856624779999999,26.105454679999998,-34.47448826,17.33840189,1.065248528,0.08525029377,0.9020904535000001,-0.0815588196,0.17233469410000002,0.009178059738
03:27:31,0.21756379999999997,0.10251395,1.44594975,-0.09192159999999999,0.173408525,-0.012829300000000002,-12.85321345,26.1020427,-34.48293965,17.351715974999998,1.06810167,0.08482380167499999,0.90950732125,-0.080897219,0.17250235275,0.009411077595000001
03:27:31,0.21558287999999998,0.10267872,1.4539594,-0.09157536,0.17361094,-0.01208888,-12.84980212,26.09863072,-34.491391039999996,17.36503006,1.070954812,0.08439730958,0.9169241890000001,-0.0802356184,0.17267001140000002,0.009644095452
03:27:31,0.21360195999999998,0.10284349,1.46196905,-0.09122912,0.173813355,-0.011348460000000001,-12.84639079,26.09521874,-34.49984243,17.378344145,1.073807954,0.08397081748499999,0.9243410567500001,-0.07957401780000001,0.17283767005,0.009877113309
03:27:31,0.21162103999999998,0.10300826,1.4699787,-0.09088288,0.17401577,-0.010608040000000003,-12.842979459999999,26.091806759999997,-34.50829382,17.391658229999997,1.076661096,0.08354432539,0.9317579245000001,-0.0789124172,0.17300532870000002,0.010110131166
03:27:31,0.20964011999999999,0.10317303,1.4779883500000002,-0.09053663999999999,0.174218185,-0.00986762,-12.83956813,26.088394779999998,-34.516745209999996,17.404972315,1.079514238,0.083117833295,0.93917479225,-0.07825081660000001,0.17317298735,0.010343149023
03:27:31,0.2076592,0.10333780000000001,1.4859980000000002,-0.09019039999999999,0.1744206,-0.009127200000000002,-12.8361568,26.0849828,-34.5251966,17.4182864,1.08236738,0.08269134119999999,0.9465916600000001,-0.077589216,0.17334064600000001,0.01057616688
03:27:31,0.20567828,0.10350257,1.4940076500000001,-0.08984415999999999,0.174623015,-0.00838678,-12.832745469999999,26.08157082,-34.53364799,17.431600484999997,1.085220522,0.082264849105,0.9540085277500001,-0.07692761540000001,0.17350830465,0.010809184737
03:27:31,0.20369736,0.10366734,1.5020173,-0.08949792,0.17482543,-0.007646360000000001,-12.82933414,26.07815884,-34.542099379999996,17.444914569999998,1.088073664,0.08183835701,0.9614253955000001,-0.0762660148,0.1736759633,0.011042202594000001
03:27:31,0.20171644,0.10383211,1.51002695,-0.08915168,0.175027845,-0.006905939999999999,-12.82592281,26.074746859999998,-34.55055077,17.458228655,1.090926806,0.08141186491499999,0.96884226325,-0.0756044142,0.17384362195,0.011275220451
03:27:31,0.19973552,0.10399688,1.5180366,-0.08880543999999999,0.17523026,-0.006165520000000001,-12.82251148,26.07133488,-34.55900216,17.47154274,1.093779948,0.08098537282,0.9762591310000001,-0.0749428136,0.1740112806,0.011508238308000001
03:27:31,0.1977546,0.10416165000000001,1.52604625,-0.08845919999999999,0.175432675,-0.005425100000000002,-12.819100149999999,26.0679229,-34.567453549999996,17.484856824999998,1.09663309,0.080558880725,0.9836759987500001,-0.07428121300000001,0.17417893925,0.011741256165
03:27:31,0.19577368,0.10432642,1.5340559,-0.08811295999999999,0.17563509,-0.0046846800000000036,-12.81568882,26.06451092,-34.57590494,17.49817091,1.099486232,0.08013238863,0.9910928665000001,-0.0736196124,0.1743465979,0.011974274022
03:27:31,0.19379276,0.10449119,1.5420655500000002,-0.08776671999999999,0.175837505,-0.003944259999999998,-12.81227749,26.061098939999997,-34.58435633,17.511484995,1.102339374,0.079705896535,0.99850973425,-0.0729580118,0.17451425655,0.012207291879
03:27:31,0.19181184,0.10465596,1.5500752000000002,-0.08742048,0.17603992,-0.0032038399999999995,-12.80886616,26.057686959999998,-34.592807719999996,17.524799079999998,1.105192516,0.07927940443999999,1.0059266020000002,-0.07229641120000001,0.1746819152,0.012440309736
03:27:31,0.18983092000000001,0.10482073,1.5580848500000002,-0.08707424,0.176242335,-0.002463420000000001,-12.805454829999999,26.05427498,-34.60125911,17.538113165,1.108045658,0.078852912345,1.0133434697500001,-0.0716348106,0.17484957385,0.012673327593000001
03:27:31,0.18785000000000002,0.10498550000000001,1.5660945000000002,-0.086728,0.17644474999999998,-0.0017230000000000023,-12.8020435,26.050863,-34.6097105,17.55142725,1.1108988,0.07842642024999999,1.0207603375,-0.07097321000000001,0.1750172325,0.01290634545
03:27:31,0.18586908,0.10515027,1.5741041500000001,-0.08638175999999999,0.176647165,-0.0009825800000000037,-12.79863217,26.04745102,-34.618161889999996,17.564741334999997,1.113751942,0.077999928155,1.02817720525,-0.0703116094,0.17518489115000002,0.013139363307000001
