Timestamp,linacce_x,linacce_y,linacce_z,gyro_x,gyro_y,gyro_z,X-magnetometer,Y-magnetometer,Z-magnetometer,Yaw, worldXAccel,worldYAccel,worldZAccel,worldXgyro,worldYgyro,worldZgyro
03:29:26,0.960213,0.933789,-2.596157,0.03126,0.33678,-0.261401,-5.286148,-30.232368,-10.73185,168.18056,-0.8812343,0.42394108,1.0871735,-0.10434413,0.29020002,0.1168824
03:29:26,0.956513315,0.928674095,-2.583963785,0.031787345,0.33534710500000003,-0.261475575,-5.2810912199999995,-30.23392352,-10.649306015,168.18967025,-0.876713203145,0.42137720075,1.08145216082,-0.10443129012999999,0.28900205755,0.11663138775
03:29:26,0.95281363,0.92355919,-2.57177057,0.03231469,0.33391421000000004,-0.26155015,-5.27603444,-30.23547904,-10.56676203,168.19878050000003,-0.87219210629,0.4188133215,1.0757308216400001,-0.10451845025999999,0.2878040951,0.1163803755
03:29:26,0.949113945,0.918444285,-2.5595773549999996,0.032842035000000006,0.332481315,-0.261624725,-5.27097766,-30.23703456,-10.484218045,168.20789075000002,-0.867671009435,0.41624944225000005,1.07000948246,-0.10460561038999999,0.28660613265,0.11612936324999999
03:29:26,0.94541426,0.91332938,-2.5473841399999997,0.033369380000000004,0.33104842,-0.26169929999999997,-5.2659208799999995,-30.23859008,-10.40167406,168.217001,-0.8631499125800001,0.41368556300000003,1.06428814328,-0.10469277051999999,0.2854081702,0.11587835099999999
03:29:26,0.941714575,0.908214475,-2.5351909249999998,0.033896725,0.329615525,-0.261773875,-5.2608641,-30.2401456,-10.319130075,168.22611125,-0.858628815725,0.41112168375,1.0585668041,-0.10477993064999999,0.28421020775,0.11562733875
03:29:26,0.9380148899999999,0.90309957,-2.52299771,0.03442407,0.32818263000000003,-0.26184845,-5.25580732,-30.241701120000002,-10.23658609,168.23522150000002,-0.85410771887,0.4085578045,1.05284546492,-0.10486709077999999,0.2830122453,0.1153763265
03:29:26,0.934315205,0.897984665,-2.510804495,0.034951415,0.32674973500000004,-0.261923025,-5.250750539999999,-30.243256640000002,-10.154042105,168.24433175000001,-0.849586622015,0.40599392525,1.04712412574,-0.10495425090999999,0.28181428285,0.11512531425
03:29:26,0.93061552,0.89286976,-2.49861128,0.035478760000000005,0.32531684,-0.2619976,-5.24569376,-30.244812160000002,-10.07149812,168.253442,-0.84506552516,0.40343004600000004,1.04140278656,-0.10504141103999999,0.2806163204,0.114874302
03:29:26,0.926915835,0.887754855,-2.4864180649999996,0.036006105000000004,0.323883945,-0.262072175,-5.24063698,-30.246367680000002,-9.988954135,168.26255225000003,-0.840544428305,0.40086616675000003,1.03568144738,-0.10512857116999999,0.27941835795000003,0.11462328975
03:29:26,0.92321615,0.88263995,-2.4742248499999997,0.03653345,0.32245105,-0.26214675,-5.2355802,-30.247923200000002,-9.90641015,168.27166250000002,-0.8360233314500001,0.3983022875,1.0299601082,-0.10521573129999999,0.2782203955,0.1143722775
03:29:26,0.919516465,0.877525045,-2.4620316349999998,0.037060795,0.321018155,-0.262221325,-5.23052342,-30.249478720000003,-9.823866165,168.28077275,-0.8315022345950001,0.39573840825,1.02423876902,-0.10530289142999999,0.27702243305,0.11412126524999999
03:29:26,0.91581678,0.87241014,-2.44983842,0.037588140000000006,0.31958526000000004,-0.26229589999999997,-5.22546664,-30.251034240000003,-9.74132218,168.289883,-0.82698113774,0.39317452900000005,1.01851742984,-0.10539005155999999,0.2758244706,0.113870253
03:29:26,0.9121170949999999,0.8672952349999999,-2.437645205,0.038115485000000005,0.318152365,-0.262370475,-5.22040986,-30.25258976,-9.658778195,168.29899325000002,-0.822460040885,0.39061064975000004,1.01279609066,-0.10547721168999999,0.27462650815,0.11361924075
03:29:26,0.90841741,0.8621803299999999,-2.42545199,0.03864283,0.31671947,-0.26244505,-5.21535308,-30.25414528,-9.576234209999999,168.30810350000002,-0.81793894403,0.3880467705,1.00707475148,-0.10556437181999999,0.2734285457,0.1133682285
03:29:26,0.904717725,0.857065425,-2.4132587749999996,0.039170175,0.315286575,-0.262519625,-5.2102962999999995,-30.2557008,-9.493690225,168.31721375,-0.813417847175,0.38548289125,1.0013534123,-0.10565153194999999,0.27223058325,0.11311721625
03:29:26,0.90101804,0.8519505199999999,-2.4010655599999997,0.03969752,0.31385368,-0.2625942,-5.20523952,-30.25725632,-9.411146239999999,168.326324,-0.80889675032,0.382919012,0.99563207312,-0.10573869207999999,0.2710326208,0.112866204
03:29:26,0.897318355,0.846835615,-2.388872345,0.040224865,0.31242078500000003,-0.262668775,-5.20018274,-30.25881184,-9.328602255,168.33543425000002,-0.8043756534650001,0.38035513275000005,0.98991073394,-0.10582585220999999,0.26983465835,0.11261519175
03:29:26,0.89361867,0.8417207099999999,-2.37667913,0.040752210000000004,0.31098789000000004,-0.26274335,-5.1951259599999995,-30.26036736,-9.246058269999999,168.3445445,-0.79985455661,0.37779125350000003,0.98418939476,-0.10591301233999999,0.2686366959,0.1123641795
03:29:26,0.889918985,0.836605805,-2.364485915,0.041279555,0.309554995,-0.262817925,-5.19006918,-30.26192288,-9.163514285,168.35365475,-0.795333459755,0.37522737425,0.97846805558,-0.10600017246999999,0.26743873345,0.11211316724999999
03:29:26,0.8862193,0.8314909,-2.3522927,0.0418069,0.3081221,-0.2628925,-5.1850124,-30.2634784,-9.0809703,168.36276500000002,-0.7908123629,0.372663495,0.9727467164,-0.1060873326,0.266240771,0.11186215499999999
03:29:26,0.882519615,0.826375995,-2.3400994849999996,0.042334245,0.306689205,-0.262967075,-5.179955619999999,-30.26503392,-8.998426315,168.37187525000002,-0.786291266045,0.37009961575,0.96702537722,-0.10617449273,0.26504280855,0.11161114275
03:29:26,0.87881993,0.82126109,-2.3279062699999997,0.042861590000000005,0.30525631000000003,-0.26304165,-5.17489884,-30.26658944,-8.915882329999999,168.3809855,-0.7817701691900001,0.36753573650000004,0.96130403804,-0.10626165286,0.26384484610000003,0.1113601305
03:29:26,0.875120245,0.816146185,-2.315713055,0.043388935000000003,0.30382341500000004,-0.263116225,-5.16984206,-30.26814496,-8.833338345,168.39009575,-0.7772490723350001,0.36497185725000003,0.95558269886,-0.10634881299,0.26264688365,0.11110911825
03:29:26,0.87142056,0.81103128,-2.30351984,0.04391628,0.30239052,-0.2631908,-5.16478528,-30.26970048,-8.75079436,168.39920600000002,-0.77272797548,0.362407978,0.9498613596800001,-0.10643597312,0.2614489212,0.110858106
03:29:26,0.867720875,0.805916375,-2.291326625,0.044443625,0.300957625,-0.263265375,-5.1597285,-30.271256,-8.668250375,168.40831625,-0.768206878625,0.35984409875,0.9441400205,-0.10652313325,0.26025095875,0.11060709375
03:29:26,0.86402119,0.80080147,-2.27913341,0.04497097,0.29952473,-0.26333995,-5.15467172,-30.27281152,-8.585706389999999,168.4174265,-0.76368578177,0.3572802195,0.93841868132,-0.10661029338,0.2590529963,0.1103560815
03:29:26,0.8603215049999999,0.795686565,-2.2669401949999997,0.045498315,0.298091835,-0.263414525,-5.14961494,-30.27436704,-8.503162405,168.42653675000003,-0.759164684915,0.35471634025000004,0.93269734214,-0.10669745351,0.25785503384999997,0.11010506924999999
03:29:26,0.85662182,0.79057166,-2.2547469799999997,0.04602566,0.29665894000000004,-0.2634891,-5.14455816,-30.27592256,-8.42061842,168.43564700000002,-0.75464358806,0.352152461,0.92697600296,-0.10678461364,0.2566570714,0.109854057
03:29:26,0.852922135,0.785456755,-2.242553765,0.046553005,0.29522604500000005,-0.263563675,-5.13950138,-30.27747808,-8.338074435,168.44475725,-0.750122491205,0.34958858175,0.92125466378,-0.10687177377,0.25545910895,0.10960304475
03:29:26,0.84922245,0.78034185,-2.23036055,0.04708035,0.29379315,-0.26363825,-5.1344446,-30.2790336,-8.25553045,168.4538675,-0.7456013943500001,0.3470247025,0.9155333246,-0.1069589339,0.2542611465,0.1093520325
03:29:26,0.845522765,0.775226945,-2.218167335,0.047607695000000005,0.292360255,-0.263712825,-5.12938782,-30.280589120000002,-8.172986465,168.46297775000002,-0.741080297495,0.34446082325000005,0.90981198542,-0.10704609403,0.25306318405,0.10910102025
03:29:26,0.84182308,0.77011204,-2.2059741199999996,0.048135040000000004,0.29092736,-0.2637874,-5.1243310399999995,-30.282144640000002,-8.09044248,168.472088,-0.73655920064,0.34189694400000004,0.90409064624,-0.10713325416,0.2518652216,0.108850008
03:29:26,0.838123395,0.764997135,-2.1937809049999997,0.048662385,0.28949446500000003,-0.26386197499999997,-5.11927426,-30.283700160000002,-8.007898495,168.48119825,-0.732038103785,0.33933306475,0.8983693070600001,-0.10722041429,0.25066725915,0.10859899575
03:29:26,0.83442371,0.75988223,-2.1815876899999997,0.04918973,0.28806157,-0.26393655,-5.11421748,-30.285255680000002,-7.92535451,168.49030850000003,-0.72751700693,0.3367691855,0.89264796788,-0.10730757442,0.2494692967,0.1083479835
03:29:26,0.830724025,0.754767325,-2.169394475,0.049717075,0.286628675,-0.264011125,-5.1091606999999994,-30.286811200000002,-7.842810524999999,168.49941875000002,-0.7229959100750001,0.33420530625,0.8869266287,-0.10739473455,0.24827133425,0.10809697124999999
03:29:26,0.82702434,0.74965242,-2.15720126,0.05024442,0.28519578,-0.2640857,-5.10410392,-30.288366720000003,-7.76026654,168.508529,-0.7184748132200001,0.331641427,0.88120528952,-0.10748189468,0.2470733718,0.10784595899999999
03:29:26,0.823324655,0.744537515,-2.145008045,0.050771764999999996,0.283762885,-0.264160275,-5.09904714,-30.289922240000003,-7.677722554999999,168.51763925,-0.713953716365,0.32907754775000003,0.87548395034,-0.10756905481,0.24587540935000002,0.10759494675
03:29:26,0.81962497,0.73942261,-2.13281483,0.051299109999999995,0.28232999000000003,-0.26423485,-5.093990359999999,-30.29147776,-7.59517857,168.52674950000002,-0.70943261951,0.3265136685,0.8697626111600001,-0.10765621494,0.24467744689999998,0.1073439345
03:29:26,0.8159252850000001,0.734307705,-2.1206216149999997,0.051826455,0.28089709500000004,-0.264309425,-5.08893358,-30.29303328,-7.512634585,168.53585975000001,-0.704911522655,0.32394978925,0.86404127198,-0.10774337507,0.24347948445,0.10709292225
03:29:26,0.8122256,0.7291928,-2.1084283999999998,0.0523538,0.2794642,-0.264384,-5.0838768,-30.2945888,-7.4300906,168.54497,-0.7003904258,0.32138591000000005,0.8583199328,-0.1078305352,0.242281522,0.10684191
03:29:26,0.8085259149999999,0.724077895,-2.096235185,0.052881145000000004,0.278031305,-0.264458575,-5.07882002,-30.29614432,-7.347546615,168.55408025,-0.695869328945,0.31882203075000004,0.85259859362,-0.10791769533,0.24108355955,0.10659089775
03:29:26,0.80482623,0.71896299,-2.08404197,0.05340849,0.27659841,-0.26453315,-5.07376324,-30.29769984,-7.26500263,168.56319050000002,-0.69134823209,0.31625815150000003,0.8468772544400001,-0.10800485546,0.23988559710000001,0.1063398855
03:29:26,0.801126545,0.713848085,-2.0718487549999995,0.053935835,0.275165515,-0.264607725,-5.06870646,-30.29925536,-7.182458645,168.57230075,-0.686827135235,0.31369427225,0.84115591526,-0.10809201558999999,0.23868763465,0.10608887325
03:29:26,0.79742686,0.7087331800000001,-2.0596555399999996,0.05446318,0.27373262,-0.2646823,-5.06364968,-30.30081088,-7.09991466,168.581411,-0.68230603838,0.311130393,0.83543457608,-0.10817917571999999,0.2374896722,0.105837861
03:29:26,0.793727175,0.703618275,-2.0474623249999997,0.054990525,0.272299725,-0.264756875,-5.0585929,-30.3023664,-7.017370675,168.59052125000002,-0.677784941525,0.30856651375,0.8297132369,-0.10826633584999999,0.23629170975,0.10558684875
03:29:26,0.7900274899999999,0.6985033700000001,-2.0352691099999998,0.05551787,0.27086683,-0.26483145,-5.0535361199999995,-30.30392192,-6.9348266899999995,168.59963150000002,-0.67326384467,0.30600263450000004,0.82399189772,-0.10835349597999999,0.2350937473,0.1053358365
03:29:26,0.786327805,0.693388465,-2.023075895,0.056045214999999995,0.269433935,-0.264906025,-5.04847934,-30.30547744,-6.8522827049999995,168.60874175,-0.668742747815,0.30343875525,0.8182705585400001,-0.10844065610999999,0.23389578485,0.10508482425
03:29:26,0.78262812,0.6882735600000001,-2.01088268,0.05657256,0.26800104,-0.2649806,-5.04342256,-30.30703296,-6.769738719999999,168.617852,-0.6642216509600001,0.300874876,0.81254921936,-0.10852781623999999,0.2326978224,0.104833812
03:29:26,0.778928435,0.683158655,-1.9986894649999998,0.057099905,0.26656814500000003,-0.265055175,-5.0383657799999995,-30.30858848,-6.687194734999999,168.62696225000002,-0.6597005541050001,0.29831099675000006,0.80682788018,-0.10861497636999999,0.23149985995,0.10458279975
03:29:26,0.77522875,0.6780437500000001,-1.9864962499999999,0.05762725,0.26513525000000004,-0.26512975,-5.033309,-30.310144,-6.604650749999999,168.6360725,-0.65517945725,0.29574711750000005,0.801106541,-0.10870213649999999,0.2303018975,0.1043317875
03:29:26,0.771529065,0.6729288449999999,-1.9743030349999997,0.058154595,0.263702355,-0.265204325,-5.02825222,-30.31169952,-6.522106764999999,168.64518275,-0.650658360395,0.29318323825000003,0.79538520182,-0.10878929662999999,0.22910393504999998,0.10408077525
03:29:26,0.76782938,0.66781394,-1.9621098199999998,0.05868194,0.26226946,-0.2652789,-5.02319544,-30.31325504,-6.439562779999999,168.65429300000002,-0.64613726354,0.290619359,0.78966386264,-0.10887645675999999,0.2279059726,0.10382976299999999
03:29:26,0.764129695,0.6626990349999999,-1.9499166049999999,0.059209285,0.260836565,-0.265353475,-5.01813866,-30.31481056,-6.357018794999999,168.66340325000002,-0.641616166685,0.28805547975,0.78394252346,-0.10896361688999999,0.22670801015,0.10357875075
03:29:26,0.76043001,0.65758413,-1.93772339,0.05973663,0.25940367000000003,-0.26542804999999997,-5.01308188,-30.31636608,-6.27447481,168.6725135,-0.63709506983,0.2854916005,0.77822118428,-0.10905077701999999,0.2255100477,0.1033277385
03:29:26,0.7567303249999999,0.6524692249999999,-1.9255301749999998,0.060263975,0.257970775,-0.265502625,-5.0080251,-30.317921600000002,-6.191930825,168.68162375,-0.632573972975,0.28292772125,0.7724998451,-0.10913793714999999,0.22431208525000002,0.10307672625
03:29:26,0.75303064,0.64735432,-1.9133369599999999,0.060791319999999996,0.25653788,-0.2655772,-5.00296832,-30.319477120000002,-6.10938684,168.69073400000002,-0.62805287612,0.28036384200000003,0.7667785059200001,-0.10922509727999999,0.22311412279999998,0.102825714
03:29:26,0.749330955,0.642239415,-1.9011437449999997,0.061318664999999994,0.255104985,-0.265651775,-4.99791154,-30.321032640000002,-6.026842855,168.69984425,-0.623531779265,0.27779996275,0.76105716674,-0.10931225740999999,0.22191616035,0.10257470175
03:29:26,0.74563127,0.63712451,-1.8889505299999998,0.06184601,0.25367209,-0.26572635,-4.99285476,-30.322588160000002,-5.94429887,168.7089545,-0.61901068241,0.2752360835,0.75533582756,-0.10939941753999999,0.2207181979,0.1023236895
03:29:26,0.741931585,0.632009605,-1.8767573149999999,0.062373355,0.252239195,-0.265800925,-4.98779798,-30.324143680000002,-5.861754885,168.71806475000002,-0.614489585555,0.27267220425000005,0.74961448838,-0.10948657767,0.21952023545,0.10207267725
03:29:26,0.7382318999999999,0.6268947,-1.8645641,0.0629007,0.25080630000000004,-0.2658755,-4.9827411999999995,-30.325699200000003,-5.7792109,168.72717500000002,-0.6099684887000001,0.27010832500000004,0.7438931492,-0.10957373779999999,0.218322273,0.101821665
03:29:26,0.734532215,0.621779795,-1.8523708849999998,0.06342804499999999,0.249373405,-0.265950075,-4.97768442,-30.327254720000003,-5.696666915,168.73628525,-0.6054473918450001,0.26754444575,0.7381718100200001,-0.10966089793,0.21712431055,0.10157065275
03:29:26,0.73083253,0.61666489,-1.8401776699999997,0.06395539,0.24794051,-0.26602465,-4.97262764,-30.328810240000003,-5.61412293,168.7453955,-0.60092629499,0.2649805665,0.73245047084,-0.10974805806,0.2159263481,0.1013196405
03:29:26,0.727132845,0.611549985,-1.8279844549999997,0.064482735,0.246507615,-0.266099225,-4.9675708599999995,-30.33036576,-5.531578945,168.75450575000002,-0.596405198135,0.26241668725,0.72672913166,-0.10983521819,0.21472838565000002,0.10106862825
03:29:26,0.72343316,0.60643508,-1.8157912399999998,0.06501008,0.24507472000000002,-0.2661738,-4.96251408,-30.33192128,-5.44903496,168.763616,-0.59188410128,0.259852808,0.72100779248,-0.10992237832,0.21353042319999999,0.100817616
03:29:26,0.719733475,0.601320175,-1.8035980249999999,0.065537425,0.243641825,-0.266248375,-4.9574573,-30.3334768,-5.366490975,168.77272625,-0.587363004425,0.25728892875,0.7152864533000001,-0.11000953845,0.21233246075,0.10056660375
03:29:26,0.71603379,0.59620527,-1.79140481,0.06606477,0.24220893,-0.26632295,-4.952400519999999,-30.33503232,-5.28394699,168.7818365,-0.58284190757,0.2547250495,0.70956511412,-0.11009669858,0.2111344983,0.1003155915
03:29:26,0.712334105,0.591090365,-1.7792115949999998,0.06659211500000001,0.240776035,-0.266397525,-4.94734374,-30.33658784,-5.2014030049999995,168.79094675000002,-0.578320810715,0.25216117025,0.7038437749399999,-0.11018385871,0.20993653585,0.10006457925000001
03:29:26,0.70863442,0.58597546,-1.7670183799999997,0.06711945999999999,0.23934314,-0.2664721,-4.94228696,-30.33814336,-5.1188590199999995,168.800057,-0.57379971386,0.24959729100000003,0.69812243576,-0.11027101884,0.20873857340000002,0.09981356699999999
03:29:26,0.7049347349999999,0.580860555,-1.7548251649999997,0.067646805,0.23791024500000002,-0.266546675,-4.93723018,-30.33969888,-5.036315034999999,168.80916725,-0.569278617005,0.24703341175000001,0.69240109658,-0.11035817897,0.20754061094999998,0.09956255475
03:29:26,0.70123505,0.57574565,-1.7426319499999998,0.06817414999999999,0.23647735,-0.26662125,-4.9321734,-30.3412544,-4.953771049999999,168.81827750000002,-0.56475752015,0.24446953250000003,0.6866797574000001,-0.1104453391,0.2063426485,0.0993115425
03:29:26,0.697535365,0.570630745,-1.730438735,0.068701495,0.235044455,-0.266695825,-4.92711662,-30.34280992,-4.871227064999999,168.82738775,-0.560236423295,0.24190565325000002,0.68095841822,-0.11053249923,0.20514468605,0.09906053025
03:29:26,0.6938356800000001,0.56551584,-1.7182455199999997,0.06922884,0.23361156,-0.2667704,-4.92205984,-30.34436544,-4.788683079999999,168.836498,-0.55571532644,0.239341774,0.67523707904,-0.11061965936,0.2039467236,0.098809518
03:29:26,0.690135995,0.5604009350000001,-1.7060523049999998,0.069756185,0.232178665,-0.266844975,-4.91700306,-30.34592096,-4.706139094999999,168.84560825,-0.5511942295850001,0.23677789475000002,0.66951573986,-0.11070681949,0.20274876115,0.09855850575
03:29:26,0.6864363099999999,0.55528603,-1.6938590899999997,0.07028353,0.23074577000000002,-0.26691955,-4.9119462799999996,-30.34747648,-4.623595109999999,168.85471850000002,-0.5466731327300001,0.2342140155,0.6637944006800001,-0.11079397962,0.2015507987,0.0983074935
03:29:26,0.682736625,0.5501711250000001,-1.6816658749999998,0.070810875,0.22931287500000003,-0.266994125,-4.9068895,-30.349032,-4.541051125,168.86382875,-0.542152035875,0.23165013625000003,0.6580730615,-0.11088113975,0.20035283625,0.09805648125
03:29:26,0.67903694,0.54505622,-1.6694726599999998,0.07133822,0.22787998,-0.2670687,-4.90183272,-30.35058752,-4.45850714,168.872939,-0.53763093902,0.22908625700000002,0.65235172232,-0.11096829988,0.1991548738,0.097805469
03:29:26,0.675337255,0.5399413150000001,-1.657279445,0.07186556499999999,0.226447085,-0.267143275,-4.8967759399999995,-30.35214304,-4.375963155,168.88204925000002,-0.533109842165,0.22652237775,0.64663038314,-0.11105546001,0.19795691135,0.09755445674999999
03:29:26,0.67163757,0.53482641,-1.6450862299999998,0.07239291,0.22501419,-0.26721785,-4.89171916,-30.35369856,-4.29341917,168.89115950000001,-0.52858874531,0.22395849850000002,0.64090904396,-0.11114262014,0.1967589489,0.0973034445
03:29:26,0.667937885,0.5297115050000001,-1.6328930149999998,0.07292025499999999,0.223581295,-0.267292425,-4.88666238,-30.35525408,-4.210875185,168.90026975,-0.524067648455,0.22139461925,0.6351877047800001,-0.11122978027,0.19556098645,0.09705243225
03:29:26,0.6642382,0.5245966,-1.6206997999999997,0.0734476,0.22214840000000002,-0.267367,-4.881605599999999,-30.356809600000002,-4.1283312,168.90938,-0.5195465516,0.21883074000000002,0.6294663656,-0.1113169404,0.194363024,0.09680142
03:29:26,0.660538515,0.5194816950000001,-1.6085065849999998,0.07397494499999999,0.220715505,-0.267441575,-4.87654882,-30.358365120000002,-4.045787215,168.91849025000002,-0.5150254547449999,0.21626686075,0.62374502642,-0.11140410053,0.19316506155000002,0.09655040775
03:29:26,0.65683883,0.51436679,-1.5963133699999998,0.07450229,0.21928261,-0.26751615,-4.87149204,-30.359920640000002,-3.96324323,168.9276005,-0.51050435789,0.21370298150000003,0.61802368724,-0.11149126066,0.19196709909999998,0.0962993955
03:29:26,0.6531391449999999,0.5092518850000001,-1.5841201549999997,0.075029635,0.217849715,-0.267590725,-4.866435259999999,-30.361476160000002,-3.8806992449999997,168.93671075,-0.505983261035,0.21113910225000002,0.6123023480600001,-0.11157842079,0.19076913665,0.09604838325000001
03:29:26,0.64943946,0.50413698,-1.5719269399999998,0.07555698,0.21641682,-0.2676653,-4.86137848,-30.363031680000002,-3.7981552599999997,168.94582100000002,-0.50146216418,0.208575223,0.60658100888,-0.11166558092,0.1895711742,0.09579737099999999
03:29:26,0.645739775,0.499022075,-1.5597337249999998,0.076084325,0.21498392500000002,-0.267739875,-4.8563217,-30.364587200000003,-3.7156112749999997,168.95493125000002,-0.49694106732500004,0.20601134375000002,0.6008596697,-0.11175274104999999,0.18837321175,0.09554635875
03:29:26,0.6420400900000001,0.49390717,-1.5475405099999997,0.07661166999999999,0.21355103,-0.26781445,-4.85126492,-30.366142720000003,-3.6330672899999996,168.9640415,-0.49241997047,0.2034474645,0.59513833052,-0.11183990117999999,0.1871752493,0.0952953465
03:29:26,0.638340405,0.488792265,-1.5353472949999998,0.077139015,0.21211813499999999,-0.267889025,-4.84620814,-30.367698240000003,-3.5505233049999996,168.97315175,-0.487898873615,0.20088358525000002,0.58941699134,-0.11192706130999999,0.18597728684999998,0.09504433425
03:29:26,0.6346407199999999,0.48367736000000006,-1.5231540799999999,0.07766635999999999,0.21068524,-0.2679636,-4.84115136,-30.36925376,-3.4679793199999995,168.98226200000002,-0.48337777676000004,0.198319706,0.5836956521600001,-0.11201422143999999,0.1847793244,0.094793322
03:29:26,0.630941035,0.47856245500000005,-1.5109608649999997,0.078193705,0.209252345,-0.268038175,-4.83609458,-30.37080928,-3.3854353349999995,168.99137225,-0.478856679905,0.19575582675000003,0.57797431298,-0.11210138156999999,0.18358136195,0.09454230975
03:29:26,0.62724135,0.47344755000000005,-1.4987676499999998,0.07872104999999999,0.20781945000000002,-0.26811275,-4.8310378,-30.3723648,-3.3028913499999994,169.0004825,-0.47433558305,0.19319194750000002,0.5722529738000001,-0.11218854169999999,0.1823833995,0.0942912975
03:29:26,0.6235416650000001,0.46833264500000005,-1.4865744349999999,0.079248395,0.206386555,-0.268187325,-4.8259810199999995,-30.37392032,-3.2203473649999994,169.00959275,-0.469814486195,0.19062806825,0.56653163462,-0.11227570182999999,0.18118543705,0.09404028525
03:29:26,0.61984198,0.46321774000000004,-1.4743812199999997,0.07977574,0.20495366,-0.2682619,-4.82092424,-30.37547584,-3.1378033799999994,169.01870300000002,-0.46529338934000003,0.18806418900000002,0.56081029544,-0.11236286195999999,0.1799874746,0.093789273
03:29:26,0.616142295,0.45810283500000004,-1.4621880049999998,0.080303085,0.203520765,-0.268336475,-4.81586746,-30.37703136,-3.0552593949999993,169.02781325,-0.460772292485,0.18550030975,0.55508895626,-0.11245002208999999,0.17878951215,0.09353826074999999
03:29:26,0.61244261,0.45298793000000004,-1.4499947899999999,0.08083043,0.20208787,-0.26841105,-4.8108106799999995,-30.37858688,-2.9727154099999993,169.0369235,-0.45625119563,0.18293643050000002,0.54936761708,-0.11253718221999999,0.17759154970000002,0.0932872485
03:29:26,0.608742925,0.44787302500000004,-1.4378015749999997,0.081357775,0.200654975,-0.268485625,-4.8057539,-30.3801424,-2.8901714249999992,169.04603375000002,-0.45173009877500003,0.18037255125,0.5436462779,-0.11262434234999999,0.17639358724999998,0.09303623625
03:29:26,0.60504324,0.44275812000000003,-1.4256083599999998,0.08188512,0.19922208,-0.2685602,-4.80069712,-30.38169792,-2.807627439999999,169.055144,-0.44720900192,0.177808672,0.53792493872,-0.11271150248,0.1751956248,0.092785224
03:29:26,0.6013435549999999,0.43764321500000003,-1.4134151449999999,0.08241246499999999,0.197789185,-0.268634775,-4.79564034,-30.38325344,-2.725083455,169.06425425,-0.442687905065,0.17524479275000002,0.5322035995400001,-0.11279866260999999,0.17399766235,0.09253421175
03:29:26,0.59764387,0.43252831,-1.4012219299999997,0.08293981,0.19635629,-0.26870935,-4.79058356,-30.38480896,-2.642539469999999,169.0733645,-0.43816680821000004,0.17268091350000003,0.52648226036,-0.11288582274,0.1727996999,0.0922831995
03:29:26,0.593944185,0.427413405,-1.3890287149999998,0.08346715499999999,0.194923395,-0.268783925,-4.78552678,-30.38636448,-2.559995485,169.08247475000002,-0.433645711355,0.17011703425000002,0.5207609211800001,-0.11297298286999999,0.17160173745,0.09203218725000001
03:29:26,0.5902445000000001,0.4222985,-1.3768354999999999,0.0839945,0.1934905,-0.2688585,-4.780469999999999,-30.38792,-2.477451499999999,169.091585,-0.4291246145,0.167553155,0.515039582,-0.113060143,0.17040377499999998,0.09178117499999999
03:29:26,0.586544815,0.417183595,-1.3646422849999997,0.084521845,0.192057605,-0.268933075,-4.77541322,-30.38947552,-2.394907515,169.10069525,-0.42460351764500004,0.16498927575,0.50931824282,-0.11314730313,0.16920581255,0.09153016275
03:29:26,0.5828451299999999,0.41206869,-1.3524490699999998,0.08504919,0.19062471,-0.26900765,-4.77035644,-30.39103104,-2.312363529999999,169.10980550000002,-0.42008242079,0.16242539650000004,0.50359690364,-0.11323446326,0.1680078501,0.0912791505
03:29:26,0.579145445,0.406953785,-1.3402558549999999,0.085576535,0.189191815,-0.269082225,-4.76529966,-30.39258656,-2.229819545,169.11891575,-0.415561323935,0.15986151725000003,0.49787556446000003,-0.11332162339,0.16680988765,0.09102813825
03:29:26,0.57544576,0.40183888,-1.3280626399999997,0.08610388,0.18775892,-0.2691568,-4.76024288,-30.39414208,-2.147275559999999,169.128026,-0.41104022708,0.15729763800000002,0.49215422527999997,-0.11340878352,0.1656119252,0.090777126
03:29:26,0.5717460750000001,0.396723975,-1.3158694249999998,0.08663122499999999,0.186326025,-0.269231375,-4.7551860999999995,-30.395697600000002,-2.0647315749999997,169.13713625,-0.406519130225,0.15473375875,0.4864328861,-0.11349594365,0.16441396275,0.09052611375
03:29:26,0.56804639,0.39160907,-1.30367621,0.08715856999999999,0.18489313,-0.26930595,-4.75012932,-30.397253120000002,-1.9821875899999988,169.14624650000002,-0.40199803337,0.1521698795,0.48071154692000007,-0.11358310378,0.1632160003,0.0902751015
03:29:26,0.564346705,0.386494165,-1.2914829949999997,0.087685915,0.183460235,-0.269380525,-4.74507254,-30.398808640000002,-1.8996436049999996,169.15535675,-0.397476936515,0.14960600025000004,0.47499020774,-0.11367026391,0.16201803785,0.09002408925
03:29:26,0.56064702,0.38137926,-1.2792897799999998,0.08821325999999999,0.18202734,-0.2694551,-4.7400157599999995,-30.400364160000002,-1.8170996200000005,169.164467,-0.39295583966000003,0.14704212100000003,0.46926886856000005,-0.11375742404,0.16082007539999998,0.089773077
03:29:26,0.556947335,0.376264355,-1.267096565,0.088740605,0.180594445,-0.269529675,-4.73495898,-30.401919680000002,-1.7345556349999995,169.17357725000002,-0.388434742805,0.14447824175,0.46354752938,-0.11384458417,0.15962211295,0.08952206474999999
03:29:26,0.55324765,0.37114945,-1.2549033499999998,0.08926794999999998,0.17916155,-0.26960425,-4.7299022,-30.403475200000003,-1.6520116500000004,169.18268750000001,-0.38391364595,0.1419143625,0.45782619020000004,-0.1139317443,0.1584241505,0.0892710525
03:29:26,0.5495479649999999,0.366034545,-1.2427101349999998,0.089795295,0.177728655,-0.269678825,-4.724845419999999,-30.405030720000003,-1.5694676649999995,169.19179775,-0.379392549095,0.13935048325,0.45210485102,-0.11401890443,0.15722618805,0.08902004025
03:29:26,0.54584828,0.3609196400000001,-1.23051692,0.09032264,0.17629576,-0.2697534,-4.71978864,-30.406586240000003,-1.4869236800000003,169.200908,-0.37487145224000007,0.13678660400000003,0.44638351184,-0.11410606456,0.1560282256,0.088769028
03:29:26,0.542148595,0.3558047350000001,-1.2183237049999998,0.090849985,0.174862865,-0.269827975,-4.71473186,-30.40814176,-1.4043796949999994,169.21001825000002,-0.37035035538500005,0.13422272475000002,0.4406621726600001,-0.11419322469,0.15483026315,0.08851801575
03:29:26,0.5384489100000001,0.3506898300000001,-1.2061304899999998,0.09137732999999999,0.17342997,-0.26990255,-4.70967508,-30.40969728,-1.3218357100000002,169.2191285,-0.36582925853000003,0.1316588455,0.43494083348,-0.11428038482,0.1536323007,0.0882670035
03:29:26,0.534749225,0.3455749250000001,-1.1939372749999997,0.09190467499999999,0.171997075,-0.269977125,-4.7046183,-30.4112528,-1.2392917249999993,169.22823875,-0.361308161675,0.12909496625,0.42921949430000006,-0.11436754495,0.15243433825,0.08801599125000001
03:29:26,0.5310495399999999,0.3404600200000001,-1.1817440599999998,0.09243202,0.17056418,-0.2700517,-4.69956152,-30.41280832,-1.1567477400000001,169.237349,-0.35678706482,0.126531087,0.42349815512,-0.11445470508,0.1512363758,0.08776497899999999
03:29:26,0.527349855,0.3353451150000001,-1.1695508449999998,0.09295936499999999,0.169131285,-0.270126275,-4.69450474,-30.41436384,-1.0742037549999992,169.24645925000002,-0.352265967965,0.12396720775000003,0.41777681594000005,-0.11454186521,0.15003841335,0.08751396675
03:29:26,0.52365017,0.3302302100000001,-1.1573576299999997,0.09348671,0.16769839,-0.27020085,-4.68944796,-30.41591936,-0.99165977,169.2555695,-0.34774487110999996,0.12140332850000002,0.41205547676,-0.11462902534,0.1488404509,0.0872629545
03:29:26,0.5199504850000001,0.3251153050000001,-1.1451644149999998,0.09401405499999999,0.16626549499999999,-0.270275425,-4.6843911799999995,-30.41747488,-0.9091157849999991,169.26467975,-0.34322377425500006,0.11883944925,0.40633413758000003,-0.11471618547,0.14764248845,0.08701194225
03:29:26,0.5162508,0.3200004000000001,-1.1329711999999998,0.0945414,0.1648326,-0.27035,-4.6793344,-30.4190304,-0.8265718,169.27379000000002,-0.33870267740000004,0.11627557,0.4006127984000001,-0.1148033456,0.146444526,0.08676093
03:29:26,0.512551115,0.31488549500000007,-1.1207779849999997,0.09506874499999998,0.163399705,-0.270424575,-4.67427762,-30.42058592,-0.744027814999999,169.28290025,-0.334181580545,0.11371169075000004,0.39489145922,-0.11489050573,0.14524656354999999,0.08650991775
03:29:26,0.50885143,0.30977059000000007,-1.1085847699999998,0.09559609,0.16196681,-0.27049915,-4.6692208399999995,-30.42214144,-0.6614838299999999,169.2920105,-0.32966048369,0.11114781150000003,0.38917012004000007,-0.11497766586,0.1440486011,0.0862589055
03:29:26,0.505151745,0.30465568500000006,-1.0963915549999999,0.09612343499999998,0.160533915,-0.270573725,-4.66416406,-30.42369696,-0.578939844999999,169.30112075,-0.325139386835,0.10858393225000001,0.38344878086,-0.11506482599,0.14285063865,0.08600789325
03:29:26,0.50145206,0.29954078000000006,-1.0841983399999997,0.09665077999999999,0.15910102,-0.2706483,-4.65910728,-30.42525248,-0.4963958599999998,169.31023100000002,-0.32061828997999997,0.106020053,0.37772744168000005,-0.11515198612,0.1416526762,0.08575688100000001
03:29:26,0.497752375,0.29442587500000006,-1.0720051249999998,0.097178125,0.157668125,-0.27072287500000003,-4.654050499999999,-30.426808,-0.41385187499999887,169.31934125,-0.31609719312500006,0.10345617374999999,0.3720061025,-0.11523914625,0.14045471375,0.08550586874999999
03:29:26,0.49405269,0.28931097000000006,-1.0598119099999999,0.09770546999999999,0.15623523,-0.27079745,-4.64899372,-30.42836352,-0.3313078899999997,169.3284515,-0.31157609627000005,0.10089229450000003,0.36628476332000004,-0.11532630638,0.1392567513,0.0852548565
03:29:26,0.490353005,0.28419606500000005,-1.0476186949999997,0.098232815,0.15480233499999999,-0.270872025,-4.64393694,-30.42991904,-0.2487639049999988,169.33756175000002,-0.30705499941500003,0.09832841525000002,0.36056342414,-0.11541346650999999,0.13805878885,0.08500384425
03:29:26,0.48665332,0.27908116000000005,-1.0354254799999998,0.09876015999999999,0.15336944,-0.2709466,-4.638880159999999,-30.43147456,-0.16621991999999963,169.346672,-0.30253390256,0.09576453600000001,0.35484208496,-0.11550062663999999,0.1368608264,0.084752832
03:29:26,0.482953635,0.27396625500000005,-1.0232322649999999,0.099287505,0.151936545,-0.271021175,-4.63382338,-30.43303008,-0.08367593500000048,169.35578225,-0.298012805705,0.09320065675,0.3491207457800001,-0.11558778676999999,0.13566286395,0.08450181975
03:29:26,0.47925395,0.26885135000000004,-1.0110390499999997,0.09981484999999998,0.15050365,-0.27109575,-4.6287666,-30.434585600000002,-0.0011319499999995486,169.3648925,-0.29349170885,0.09063677749999999,0.3433994066,-0.11567494689999999,0.13446490149999998,0.0842508075
03:29:26,0.475554265,0.26373644500000004,-0.9988458349999998,0.100342195,0.149070755,-0.271170325,-4.62370982,-30.436141120000002,0.0814120349999996,169.37400275000002,-0.28897061199499996,0.08807289825000003,0.33767806742000006,-0.11576210702999999,0.13326693905,0.08399979525000001
03:29:26,0.47185458,0.25862154000000004,-0.9866526199999999,0.10086953999999998,0.14763785999999998,-0.2712449,-4.61865304,-30.437696640000002,0.16395602000000054,169.383113,-0.28444951514000005,0.08550901900000002,0.33195672824,-0.11584926715999999,0.1320689766,0.083748783
03:29:26,0.468154895,0.25350663500000004,-0.9744594049999997,0.10139688499999999,0.146204965,-0.271319475,-4.61359626,-30.439252160000002,0.2465000049999997,169.39222325,-0.27992841828500004,0.08294513975000001,0.32623538906000005,-0.11593642728999999,0.13087101415,0.08349777075
03:29:26,0.46445521,0.24839173000000003,-0.9622661899999998,0.10192423,0.14477207,-0.27139405,-4.60853948,-30.440807680000002,0.3290439900000006,169.40133350000002,-0.27540732143,0.0803812605,0.32051404988,-0.11602358741999999,0.12967305169999999,0.0832467585
03:29:26,0.460755525,0.24327682500000003,-0.9500729749999999,0.10245157499999999,0.14333917499999999,-0.271468625,-4.6034827,-30.442363200000003,0.4115879749999998,169.41044375,-0.270886224575,0.07781738124999998,0.31479271070000003,-0.11611074754999999,0.12847508925,0.08299574625
03:29:26,0.45705584,0.23816192000000003,-0.9378797599999997,0.10297892,0.14190628,-0.2715432,-4.5984259199999995,-30.443918720000003,0.4941319600000007,169.419554,-0.26636512772,0.07525350200000003,0.30907137151999997,-0.11619790767999999,0.1272771268,0.082744734
03:29:26,0.45335615500000004,0.23304701500000002,-0.9256865449999998,0.10350626499999999,0.140473385,-0.271617775,-4.59336914,-30.445474240000003,0.5766759449999999,169.42866425,-0.26184403086499997,0.07268962275000002,0.30335003234,-0.11628506781,0.12607916435,0.08249372175
03:29:26,0.44965647,0.22793211000000002,-0.9134933299999999,0.10403361,0.13904049,-0.27169235,-4.58831236,-30.44702976,0.6592199300000008,169.43777450000002,-0.25732293401000006,0.0701257435,0.29762869316000007,-0.11637222793999999,0.12488120189999999,0.0822427095
03:29:26,0.445956785,0.22281720500000002,-0.9013001149999997,0.10456095499999998,0.137607595,-0.271766925,-4.583255579999999,-30.44858528,0.7417639149999999,169.44688475,-0.25280183715500004,0.06756186424999999,0.29190735398,-0.11645938807,0.12368323944999998,0.08199169725
03:29:26,0.44225709999999996,0.21770230000000002,-0.8891068999999998,0.1050883,0.13617469999999998,-0.2718415,-4.5781988,-30.4501408,0.8243079000000009,169.455995,-0.24828074030000002,0.06499798500000004,0.28618601480000005,-0.11654654819999999,0.122485277,0.08174068500000001
03:29:26,0.438557415,0.212587395,-0.8769136849999999,0.10561564499999998,0.134741805,-0.271916075,-4.57314202,-30.45169632,0.906851885,169.46510525,-0.243759643445,0.062434105750000024,0.28046467562,-0.11663370833,0.12128731455,0.08148967274999999
03:29:26,0.43485773000000005,0.20747249,-0.8647204699999997,0.10614298999999999,0.13330891,-0.27199065,-4.56808524,-30.45325184,0.989395870000001,169.4742155,-0.23923854659,0.05987022650000001,0.27474333644000004,-0.11672086846,0.12008935209999999,0.0812386605
03:29:26,0.431158045,0.202357585,-0.8525272549999998,0.106670335,0.13187601499999999,-0.272065225,-4.56302846,-30.45480736,1.071939855,169.48332575,-0.23471744973499997,0.05730634725,0.26902199726,-0.11680802859,0.11889138964999998,0.08098764825
03:29:26,0.42745836000000004,0.19724268,-0.8403340399999997,0.10719767999999999,0.13044312,-0.2721398,-4.55797168,-30.45636288,1.154483840000001,169.492436,-0.23019635287999995,0.05474246799999999,0.26330065808,-0.11689518872,0.1176934272,0.080736636
03:29:26,0.423758675,0.1921277750000001,-0.8281408249999997,0.107725025,0.12901022499999998,-0.272214375,-4.552914899999999,-30.4579184,1.2370278250000002,169.50154625000002,-0.22567525602500005,0.05217858875000003,0.2575793189000001,-0.11698234885,0.11649546475,0.08048562375
03:29:26,0.42005899,0.1870128700000001,-0.8159476099999998,0.10825236999999999,0.12757733,-0.27228895000000003,-4.54785812,-30.45947392,1.3195718100000011,169.5106565,-0.22115415917000003,0.04961470950000002,0.25185797972,-0.11706950898,0.1152975023,0.0802346115
03:29:26,0.41635930499999996,0.1818979650000001,-0.8037543949999997,0.108779715,0.126144435,-0.272363525,-4.54280134,-30.46102944,1.4021157950000003,169.51976675,-0.216633062315,0.04705083025000001,0.24613664054000006,-0.11715666911,0.11409953984999999,0.07998359925000001
03:29:26,0.41265962,0.1767830600000001,-0.7915611799999998,0.10930705999999998,0.12471153999999998,-0.2724381,-4.53774456,-30.46258496,1.4846597800000012,169.528877,-0.21211196546,0.044486951,0.24041530136,-0.11724382924,0.11290157740000001,0.079732587
03:29:26,0.40895993500000005,0.1716681550000001,-0.7793679649999998,0.109834405,0.12327864499999999,-0.272512675,-4.53268778,-30.46414048,1.5672037650000004,169.53798725000001,-0.20759086860499998,0.041923071749999985,0.23469396218000005,-0.11733098937,0.11170361495,0.07948157475
03:29:26,0.40526025,0.1665532500000001,-0.7671747499999997,0.11036174999999998,0.12184575,-0.27258725,-4.5276309999999995,-30.465696,1.6497477499999995,169.5470975,-0.20306977174999996,0.03935919250000003,0.228972623,-0.1174181495,0.1105056525,0.0792305625
03:29:26,0.40156056500000004,0.1614383450000001,-0.7549815349999998,0.110889095,0.12041285499999999,-0.272661825,-4.52257422,-30.46725152,1.7322917350000004,169.55620775,-0.19854867489500005,0.03679531325000002,0.22325128382000003,-0.11750530963,0.10930769004999999,0.07897955025
03:29:26,0.39786088,0.1563234400000001,-0.7427883199999998,0.11141643999999998,0.11897996,-0.2727364,-4.51751744,-30.46880704,1.8148357199999996,169.56531800000002,-0.19402757804000004,0.034231434000000005,0.21752994464000008,-0.11759246976,0.10810972759999998,0.078728538
03:29:26,0.394161195,0.1512085350000001,-0.7305951049999997,0.11194378499999999,0.11754706499999998,-0.272810975,-4.5124606599999995,-30.47036256,1.8973797050000005,169.57442825,-0.18950648118500002,0.03166755474999999,0.21180860546000002,-0.11767962989,0.10691176515,0.07847752575
03:29:26,0.39046150999999996,0.14609363000000009,-0.7184018899999998,0.11247113,0.11611416999999999,-0.27288555000000003,-4.50740388,-30.471918080000002,1.9799236899999997,169.5835385,-0.18498538433,0.02910367549999998,0.20608726628000007,-0.11776679002,0.1057138027,0.0782265135
03:29:26,0.386761825,0.14097872500000008,-0.7062086749999998,0.11299847499999999,0.114681275,-0.272960125,-4.5023471,-30.473473600000002,2.0624676750000006,169.59264875,-0.18046428747499998,0.026539796250000025,0.2003659271,-0.11785395015,0.10451584024999999,0.07797550125
03:29:26,0.38306214000000005,0.13586382000000008,-0.6940154599999997,0.11352582,0.11324837999999998,-0.2730347,-4.497290319999999,-30.475029120000002,2.1450116599999998,169.60175900000002,-0.17594319061999997,0.023975917000000013,0.19464458792000006,-0.11794111028,0.10331787779999999,0.07772448900000001
03:29:26,0.379362455,0.13074891500000008,-0.6818222449999998,0.11405316499999998,0.11181548499999999,-0.273109275,-4.49223354,-30.476584640000002,2.2275556450000007,169.61086925,-0.17142209376500006,0.02141203775,0.18892324874,-0.11802827041,0.10211991535,0.07747347674999999
03:29:26,0.37566277000000003,0.12563401000000007,-0.6696290299999998,0.11458051,0.11038259,-0.27318385,-4.48717676,-30.478140160000002,2.31009963,169.6199795,-0.16690099691000004,0.01884815849999999,0.18320190956000004,-0.11811543054,0.1009219529,0.0772224645
03:29:26,0.37196308499999997,0.12051910500000007,-0.6574358149999997,0.11510785499999998,0.10894969499999999,-0.273258425,-4.48211998,-30.479695680000003,2.392643615000001,169.62908975000002,-0.16237990005500003,0.016284279250000033,0.17748057037999998,-0.11820259067,0.09972399045,0.07697145225
03:29:26,0.3682634,0.11540420000000007,-0.6452425999999998,0.1156352,0.1075168,-0.273333,-4.4770632,-30.481251200000003,2.4751876,169.6382,-0.1578588032,0.013720400000000021,0.17175923120000003,-0.1182897508,0.09852602799999999,0.07672044
03:29:26,0.36456371499999995,0.11028929500000006,-0.6330493849999999,0.11616254499999998,0.10608390499999998,-0.273407575,-4.47200642,-30.482806720000003,2.557731585000001,169.64731025,-0.153337706345,0.01115652075000001,0.16603789202000008,-0.11837691093,0.09732806554999998,0.07646942775
03:29:26,0.36086403,0.10517439000000006,-0.6208561699999997,0.11668988999999999,0.10465100999999999,-0.27348215,-4.46694964,-30.484362240000003,2.64027557,169.6564205,-0.14881660948999997,0.008592641499999998,0.16031655284000002,-0.11846407106,0.0961301031,0.0762184155
03:29:26,0.35716434500000005,0.10005948500000006,-0.6086629549999998,0.117217235,0.103218115,-0.273556725,-4.46189286,-30.48591776,2.722819555000001,169.66553075000002,-0.14429551263499996,0.006028762249999986,0.15459521366000006,-0.11855123119,0.09493214065,0.07596740325000001
03:29:26,0.35346466,0.09494458000000006,-0.5964697399999999,0.11774457999999999,0.10178521999999998,-0.2736313,-4.4568360799999995,-30.48747328,2.80536354,169.674641,-0.13977441578000005,0.0034648830000000297,0.14887387448,-0.11863839132,0.09373417819999999,0.075716391
03:29:26,0.34976497500000003,0.08982967500000005,-0.5842765249999999,0.118271925,0.10035232499999999,-0.273705875,-4.4517793,-30.4890288,2.887907525000001,169.68375125,-0.13525331892500003,0.0009010037500000179,0.14315253530000005,-0.11872555145,0.09253621574999998,0.07546537875
03:29:26,0.34606528999999997,0.08471477000000005,-0.5720833099999996,0.11879926999999998,0.09891942999999997,-0.27378045,-4.44672252,-30.49058432,2.97045151,169.6928615,-0.13073222207000001,-0.001662875499999994,0.13743119612,-0.11881271158,0.0913382533,0.0752143665
03:29:26,0.342365605,0.07959986500000005,-0.5598900949999996,0.119326615,0.09748653499999999,-0.27385502500000003,-4.4416657399999995,-30.49213984,3.052995495000001,169.70197175,-0.126211125215,-0.004226754750000006,0.13170985694000004,-0.11889987171,0.09014029085,0.07496335425
03:29:26,0.33866591999999995,0.07448496000000004,-0.5476968799999997,0.11985395999999998,0.09605364,-0.2739296,-4.43660896,-30.49369536,3.1355394800000003,169.711082,-0.12169002835999998,-0.006790634000000018,0.12598851775999997,-0.11898703184,0.08894232839999999,0.074712342
03:29:26,0.334966235,0.06937005500000004,-0.5355036649999998,0.120381305,0.09462074499999998,-0.274004175,-4.43155218,-30.49525088,3.218083465000001,169.72019225,-0.11716893150499996,-0.009354513249999974,0.12026717858000002,-0.11907419196999999,0.08774436594999999,0.07446132975
03:29:26,0.33126655000000005,0.06425515000000004,-0.5233104499999999,0.12090864999999998,0.09318784999999999,-0.27407875,-4.426495399999999,-30.4968064,3.3006274500000004,169.72930250000002,-0.11264783465000006,-0.011918392499999986,0.11454583940000007,-0.11916135209999999,0.08654640350000001,0.0742103175
03:29:26,0.327566865,0.059140245000000036,-0.511117235,0.12143599499999999,0.091754955,-0.274153325,-4.42143862,-30.49836192,3.3831714349999995,169.73841275,-0.10812673779500004,-0.014482271749999998,0.10882450022000001,-0.11924851222999999,0.08534844105,0.07395930525
03:29:26,0.32386718000000003,0.05402534000000003,-0.4989240199999996,0.12196333999999998,0.09032205999999998,-0.2742279,-4.41638184,-30.49991744,3.4657154200000004,169.747523,-0.10360564094000002,-0.01704615100000001,0.10310316104000006,-0.11933567235999999,0.0841504786,0.07370829300000001
03:29:26,0.32016749499999997,0.04891043500000003,-0.48673080499999966,0.12249068499999999,0.08888916499999999,-0.274302475,-4.411325059999999,-30.50147296,3.5482594049999996,169.75663325,-0.099084544085,-0.01961003025000002,0.09738182186,-0.11942283248999999,0.08295251614999999,0.07345728074999999
03:29:26,0.31646781,0.04379553000000003,-0.47453758999999973,0.12301803,0.08745626999999997,-0.27437705,-4.40626828,-30.50302848,3.6308033900000005,169.7657435,-0.09456344722999999,-0.022173909499999978,0.09166048268000004,-0.11950999261999999,0.08175455369999998,0.0732062685
03:29:26,0.31276812499999995,0.038680625000000024,-0.4623443749999998,0.12354537499999999,0.08602337500000001,-0.27445162500000003,-4.4012115,-30.504584,3.7133473749999997,169.77485375,-0.09004235037499997,-0.02473778874999999,0.08593914350000009,-0.11959715274999999,0.08055659125,0.07295525625
03:29:26,0.30906844,0.03356572000000013,-0.4501511599999999,0.12407272,0.08459047999999997,-0.2745262,-4.39615472,-30.50613952,3.7958913600000006,169.783964,-0.08552125352000006,-0.027301668,0.08021780432000014,-0.11968431288,0.0793586288,0.072704244
03:29:26,0.30536875500000005,0.02845081500000013,-0.43795794499999996,0.12460006499999998,0.08315758499999998,-0.274600775,-4.39109794,-30.50769504,3.8784353449999998,169.79307425000002,-0.08100015666500004,-0.029865547250000013,0.07449646513999997,-0.11977147300999999,0.07816066634999999,0.07245323175
03:29:26,0.30166907,0.023335910000000126,-0.4257647299999996,0.12512741,0.08172468999999999,-0.27467535,-4.3860411599999996,-30.50925056,3.9609793300000007,169.8021845,-0.07647905981000003,-0.03242942649999997,0.06877512596000002,-0.11985863314,0.07696270389999998,0.0722022195
03:29:26,0.29796938500000003,0.018221005000000123,-0.41357151499999967,0.12565475499999998,0.080291795,-0.274749925,-4.38098438,-30.510806080000002,4.043523315,169.81129475,-0.07195796295500001,-0.03499330574999998,0.06305378678000007,-0.11994579326999999,0.07576474145,0.07195120725000001
03:29:26,0.29426969999999997,0.01310610000000012,-0.40137829999999974,0.1261821,0.07885890000000001,-0.2748245,-4.3759276,-30.512361600000002,4.126067300000001,169.820405,-0.06743686609999999,-0.03755718499999999,0.057332447600000114,-0.1200329534,0.074566779,0.071700195
03:29:26,0.290570015,0.007991195000000118,-0.3891850849999998,0.12670944499999998,0.07742600499999996,-0.274899075,-4.3708708199999995,-30.513917120000002,4.208611285,169.82951525000001,-0.06291576924499998,-0.040121064250000005,0.05161110841999994,-0.12012011352999999,0.07336881655,0.07144918275
03:29:26,0.28687033000000006,0.0028762900000001146,-0.3769918699999999,0.12723679,0.07599310999999997,-0.27497365,-4.36581404,-30.515472640000002,4.291155270000001,169.8386255,-0.05839467238999996,-0.04268494350000002,0.04588976923999999,-0.12020727366,0.07217085409999999,0.0711981705
03:29:26,0.283170645,-0.0022386149999998883,-0.36479865499999997,0.127764135,0.07456021499999999,-0.275048225,-4.36075726,-30.517028160000002,4.373699255,169.84773575,-0.05387357553500005,-0.04524882274999997,0.04016843006000004,-0.12029443379,0.07097289164999998,0.07094715825
03:29:26,0.27947096000000005,-0.007353519999999891,-0.3526054399999996,0.12829147999999999,0.07312732,-0.2751228,-4.355700479999999,-30.518583680000003,4.456243240000001,169.85684600000002,-0.049352478680000034,-0.047812701999999985,0.034447090880000086,-0.12038159392,0.0697749292,0.070696146
03:29:26,0.275771275,-0.012468424999999894,-0.3404122249999997,0.128818825,0.071694425,-0.275197375,-4.3506437,-30.520139200000003,4.538787225,169.86595625,-0.044831381825000016,-0.05037658125,0.028725751700000135,-0.12046875405,0.06857696675,0.07044513375
03:29:26,0.27207159000000003,-0.017583329999999897,-0.32821900999999976,0.12934616999999998,0.07026152999999996,-0.27527195,-4.34558692,-30.521694720000003,4.621331210000001,169.8750665,-0.04031028497,-0.05294046050000001,0.02300441251999996,-0.12055591418,0.06737900429999999,0.0701941215
03:29:26,0.26837190499999997,-0.0226982349999999,-0.31602579499999983,0.129873515,0.06882863499999997,-0.275346525,-4.34053014,-30.523250240000003,4.703875195,169.88417675,-0.03578918811499998,-0.05550433975000002,0.01728307334000001,-0.12064307431,0.06618104184999998,0.06994310925
03:29:26,0.26467222,-0.027813139999999903,-0.3038325799999999,0.13040085999999998,0.06739573999999998,-0.27542110000000003,-4.33547336,-30.52480576,4.786419180000001,169.89328700000002,-0.031268091259999964,-0.058068218999999976,0.011561734160000059,-0.12073023444,0.0649830794,0.06969209700000001
03:29:26,0.26097253500000006,-0.032928044999999906,-0.291639365,0.130928205,0.06596284499999999,-0.275495675,-4.33041658,-30.52636128,4.868963165,169.90239725,-0.026746994405000057,-0.06063209824999999,0.005840394980000108,-0.12081739457,0.06378511695,0.06944108474999999
03:29:26,0.25727285,-0.03804294999999991,-0.2794461499999996,0.13145554999999998,0.06452995,-0.27557025,-4.325359799999999,-30.5279168,4.951507150000001,169.9115075,-0.02222589755000004,-0.0631959775,0.00011905579999993421,-0.1209045547,0.06258715449999999,0.0691900725
03:29:26,0.25357316500000004,-0.04315785499999991,-0.2672529349999997,0.131982895,0.06309705499999996,-0.275644825,-4.32030302,-30.52947232,5.034051135,169.92061775,-0.017704800695000023,-0.06575985675000001,-0.005602283380000017,-0.12099171483,0.061389192049999985,0.06893906025
03:29:26,0.24987347999999998,-0.048272759999999915,-0.25505971999999977,0.13251024,0.06166415999999997,-0.2757194,-4.31524624,-30.53102784,5.116595120000001,169.929728,-0.013183703840000005,-0.06832373600000002,-0.011323622559999968,-0.12107887496,0.06019122960000001,0.068688048
03:29:26,0.24617379500000003,-0.05338766499999992,-0.24286650499999984,0.13303758499999999,0.06023126499999998,-0.275793975,-4.31018946,-30.53258336,5.199139105,169.93883825,-0.008662606984999988,-0.07088761524999998,-0.01704496173999992,-0.12116603509,0.05899326715,0.06843703575
03:29:26,0.24247410999999996,-0.05850256999999992,-0.23067328999999992,0.13356493,0.05879836999999999,-0.27586855,-4.30513268,-30.53413888,5.28168309,169.9479485,-0.00414151012999997,-0.07345149449999999,-0.02276630091999987,-0.12125319522,0.057795304699999994,0.0681860235
03:29:26,0.238774425,-0.06361747499999992,-0.21848007499999955,0.13409227499999998,0.057365475,-0.275943125,-4.3000758999999995,-30.5356944,5.3642270750000005,169.95705875000002,0.0003795867250000473,-0.07601537375,-0.028487640100000045,-0.12134035535,0.05659734224999999,0.06793501125000001
03:29:26,0.23507474000000006,-0.06873237999999993,-0.20628685999999963,0.13461962,0.055932579999999954,-0.27601770000000003,-4.29501912,-30.53724992,5.446771060000001,169.966169,0.004900683579999954,-0.07857925299999996,-0.034208979279999996,-0.12142751548,0.05539937979999998,0.067683999
03:29:26,0.231375055,-0.07384728499999982,-0.1940936449999997,0.13514696499999998,0.054499684999999964,-0.276092275,-4.28996234,-30.53880544,5.529315044999999,169.97527925,0.009421780434999971,-0.08114313224999997,-0.03993031845999995,-0.12151467561,0.05420141735,0.06743298675
03:29:26,0.22767537000000004,-0.07896218999999993,-0.18190042999999978,0.13567431,0.053066789999999975,-0.27616685,-4.28490556,-30.54036096,5.61185903,169.9843895,0.013942877289999989,-0.08370701149999998,-0.0456516576399999,-0.12160183574,0.0530034549,0.0671819745
03:29:26,0.22397568499999998,-0.08407709499999982,-0.16970721499999986,0.13620165499999998,0.051633894999999985,-0.276241425,-4.27984878,-30.54191648,5.694403015000001,169.99349975,0.018463974145000006,-0.08627089075,-0.05137299682000007,-0.12168899587,0.05180549244999999,0.06693096225
03:29:27,0.220276,-0.089192,-0.157514,0.136729,0.050201,-0.276316,-4.274792,-30.543472,5.776947,170.00261,0.022985071,-0.08883477,-0.057094336,-0.121776156,0.05060753,0.06667995
03:29:27,0.21247414,-0.086779545,-0.147696955,0.13444383,0.0497429,-0.27604434,-4.2384305499999995,-30.538024575,5.78700098,168.3164434,0.023282914945,-0.09084104814999999,-0.058209186620000006,-0.12297695941999999,0.050014465325,0.06820345375
03:29:27,0.20467228,-0.08436708999999999,-0.13787991,0.13215865999999998,0.049284800000000004,-0.27577268,-4.2020691,-30.53257715,5.79705496,166.6302768,0.02358075889,-0.09284732629999999,-0.05932403724,-0.12417776284,0.049421400649999996,0.0697269575
03:29:27,0.19687042,-0.081954635,-0.128062865,0.12987348999999998,0.0488267,-0.27550102,-4.16570765,-30.527129725,5.80710894,164.9441102,0.023878602835,-0.09485360444999999,-0.060438887860000005,-0.12537856626,0.048828335975,0.07125046125000001
03:29:27,0.18906856,-0.07954217999999999,-0.11824581999999999,0.12758831999999998,0.048368600000000005,-0.27522936,-4.1293462,-30.521682300000002,5.8171629199999995,163.2579436,0.02417644678,-0.09685988259999999,-0.06155373848,-0.12657936968,0.0482352713,0.072773965
03:29:27,0.1812667,-0.077129725,-0.10842877499999999,0.12530315,0.0479105,-0.2749577,-4.092984749999999,-30.516234875000002,5.8272169,161.571777,0.024474290725,-0.09886616074999999,-0.0626685891,-0.1277801731,0.047642206624999996,0.07429746875
03:29:27,0.17346484,-0.07471726999999999,-0.09861172999999998,0.12301797999999999,0.047452400000000006,-0.27468604,-4.0566233,-30.510787450000002,5.83727088,159.88561040000002,0.02477213467,-0.1008724389,-0.06378343972,-0.12898097651999998,0.04704914195,0.0758209725
03:29:27,0.16566298000000002,-0.072304815,-0.08879468499999998,0.12073281,0.0469943,-0.27441438,-4.02026185,-30.505340025000002,5.84732486,158.1994438,0.025069978615,-0.10287871705,-0.06489829034,-0.13018177994,0.046456077275,0.07734447625
03:29:27,0.15786112000000002,-0.06989235999999999,-0.07897763999999999,0.11844763999999999,0.0465362,-0.27414272,-3.9839003999999996,-30.499892600000003,5.85737884,156.5132772,0.02536782256,-0.1048849952,-0.06601314096000001,-0.13138258336,0.045863012599999996,0.07886798
03:29:27,0.15005926000000003,-0.06747990499999999,-0.06916059499999999,0.11616246999999999,0.046078100000000004,-0.27387106,-3.9475389499999998,-30.494445175000003,5.867432819999999,154.8271106,0.025665666505,-0.10689127335,-0.06712799158,-0.13258338678,0.045269947925,0.08039148375
03:29:27,0.1422574,-0.06506745,-0.059343549999999995,0.11387729999999999,0.04562,-0.2735994,-3.9111775,-30.488997750000003,5.8774868,153.140944,0.02596351045,-0.1088975515,-0.0682428422,-0.13378419019999999,0.044676883249999993,0.08191498750000001
03:29:27,0.13445554,-0.06265499499999999,-0.049526504999999985,0.11159212999999998,0.045161900000000005,-0.27332774,-3.8748160499999997,-30.483550325000003,5.88754078,151.4547774,0.026261354395,-0.11090382965,-0.06935769282,-0.13498499362,0.044083818574999996,0.08343849125
03:29:27,0.12665368000000002,-0.06024254,-0.03970945999999999,0.10930695999999998,0.0447038,-0.27305608,-3.8384545999999995,-30.4781029,5.89759476,149.7686108,0.02655919834,-0.11291010779999999,-0.07047254344000001,-0.13618579704,0.0434907539,0.084961995
03:29:27,0.11885182000000001,-0.057830084999999996,-0.029892414999999978,0.10702178999999999,0.0442457,-0.27278442,-3.8020931499999997,-30.472655475,5.90764874,148.0824442,0.026857042285,-0.11491638594999999,-0.07158739406,-0.13738660046,0.042897689224999994,0.08648549875
03:29:27,0.11104996000000002,-0.055417629999999996,-0.02007536999999998,0.10473661999999999,0.0437876,-0.27251276,-3.7657317,-30.46720805,5.917702719999999,146.39627760000002,0.02715488623,-0.11692266409999999,-0.07270224468,-0.13858740388,0.042304624549999996,0.0880090025
03:29:27,0.10324810000000001,-0.053005174999999995,-0.010258324999999985,0.10245145,0.0433295,-0.2722411,-3.7293702499999997,-30.461760625,5.9277567,144.710111,0.027452730175000002,-0.11892894225,-0.0738170953,-0.1397882073,0.041711559875,0.08953250625
03:29:27,0.09544624000000002,-0.050592719999999994,-0.00044127999999998835,0.10016628,0.042871400000000004,-0.27196944,-3.6930088,-30.4563132,5.93781068,143.0239444,0.02775057412,-0.12093522039999999,-0.07493194592,-0.14098901072,0.041118495199999994,0.09105601
03:29:27,0.08764438000000002,-0.04818026499999999,0.009375765000000008,0.09788111,0.0424133,-0.27169778,-3.6566473499999996,-30.450865775,5.94786466,141.3377778,0.028048418065,-0.12294149855,-0.07604679654,-0.14218981413999998,0.040525430524999996,0.09257951375000001
03:29:27,0.07984252000000003,-0.04576780999999999,0.019192810000000005,0.09559593999999999,0.0419552,-0.27142612,-3.6202859,-30.44541835,5.95791864,139.6516112,0.02834626201,-0.12494777669999999,-0.07716164716,-0.14339061756,0.03993236585,0.0941030175
03:29:27,0.07204066,-0.04335535499999999,0.029009855,0.09331076999999999,0.0414971,-0.27115446,-3.5839244499999996,-30.439970925,5.967972619999999,137.9654446,0.028644105955,-0.12695405485,-0.07827649778000001,-0.14459142098,0.039339301174999994,0.09562652125
03:29:27,0.06423880000000001,-0.04094289999999999,0.0388269,0.09102559999999998,0.041039000000000006,-0.2708828,-3.547563,-30.4345235,5.9780266,136.279278,0.0289419499,-0.12896033299999998,-0.0793913484,-0.1457922244,0.038746236499999996,0.097150025
03:29:27,0.05643694000000002,-0.038530444999999997,0.04864394500000002,0.08874042999999998,0.0405809,-0.27061114000000003,-3.51120155,-30.429076075,5.98808058,134.5931114,0.029239793845,-0.13096661115,-0.08050619902,-0.14699302781999998,0.038153171825,0.09867352875
03:29:27,0.048635080000000025,-0.036117989999999996,0.05846099000000002,0.08645525999999999,0.0401228,-0.27033948,-3.4748400999999998,-30.42362865,5.99813456,132.90694480000002,0.02953763779,-0.1329728893,-0.08162104964,-0.14819383124,0.037560107149999994,0.1001970325
03:29:27,0.04083322000000003,-0.033705534999999995,0.06827803500000001,0.08417008999999999,0.039664700000000004,-0.27006782,-3.4384786499999995,-30.418181225,6.00818854,131.2207782,0.029835481735000002,-0.13497916745,-0.08273590026,-0.14939463466,0.036967042474999996,0.10172053625000001
03:29:27,0.03303136000000004,-0.031293079999999994,0.07809508000000001,0.08188491999999999,0.0392066,-0.26979616,-3.4021171999999997,-30.4127338,6.01824252,129.5346116,0.030133325680000003,-0.13698544559999998,-0.08385075088,-0.15059543808,0.0363739778,0.10324404000000001
03:29:27,0.025229500000000016,-0.028880624999999993,0.08791212500000001,0.07959975,0.038748500000000005,-0.2695245,-3.36575575,-30.407286375,6.0282965,127.848445,0.030431169625,-0.13899172375,-0.0849656015,-0.15179624149999998,0.035780913124999994,0.10476754375
03:29:27,0.017427640000000022,-0.02646817,0.09772917000000003,0.07731458,0.0382904,-0.26925284,-3.3293942999999997,-30.401838950000002,6.03835048,126.1622784,0.03072901357,-0.1409980019,-0.08608045212000001,-0.15299704492,0.035187848449999996,0.10629104750000001
03:29:27,0.009625780000000028,-0.02405571499999999,0.107546215,0.07502940999999999,0.0378323,-0.26898118,-3.29303285,-30.396391525000002,6.0484044599999995,124.47611180000001,0.031026857515,-0.14300428005,-0.08719530274000001,-0.15419784834,0.034594783775,0.10781455125
03:29:27,0.0018239200000000344,-0.021643259999999998,0.11736326000000002,0.07274423999999999,0.0373742,-0.26870952,-3.2566714,-30.390944100000002,6.05845844,122.7899452,0.03132470146,-0.1450105582,-0.08831015336,-0.15539865176,0.034001719099999994,0.109338055
03:29:27,-0.005977939999999959,-0.01923080499999999,0.127180305,0.07045906999999998,0.0369161,-0.26843786000000003,-3.22030995,-30.385496675000002,6.06851242,121.1037786,0.031622545405,-0.14701683634999999,-0.08942500398,-0.15659945517999999,0.033408654424999996,0.11086155875
03:29:27,-0.013779799999999981,-0.016818349999999996,0.13699735000000002,0.0681739,0.036458000000000004,-0.2681662,-3.1839484999999996,-30.380049250000003,6.0785664,119.417612,0.03192038935,-0.1490231145,-0.0905398546,-0.1578002586,0.03281558975,0.11238506250000001
03:29:27,-0.021581659999999975,-0.014405894999999988,0.146814395,0.06588872999999999,0.0359999,-0.26789454,-3.14758705,-30.374601825000003,6.08862038,117.73144540000001,0.032218233295,-0.15102939264999998,-0.09165470522,-0.15900106202,0.032222525074999994,0.11390856625000001
03:29:27,-0.02938351999999997,-0.011993439999999994,0.15663144,0.06360355999999999,0.0355418,-0.26762288,-3.1112256,-30.369154400000003,6.0986743599999995,116.0452788,0.03251607724,-0.1530356708,-0.09276955584,-0.16020186543999998,0.0316294604,0.11543207
03:29:27,-0.03718537999999996,-0.009580985,0.16644848500000003,0.061318389999999987,0.0350837,-0.26735122,-3.07486415,-30.363706975000003,6.10872834,114.3591122,0.032813921185000004,-0.15504194895,-0.09388440646000001,-0.16140266886,0.031036395724999995,0.11695557375000001
03:29:27,-0.044987239999999956,-0.007168529999999992,0.17626553,0.059033219999999983,0.0346256,-0.26707956,-3.0385026999999996,-30.35825955,6.11878232,112.6729456,0.03311176513,-0.1570482271,-0.09499925708000001,-0.16260347228,0.030443331049999998,0.1184790775
03:29:27,-0.05278909999999995,-0.0047560749999999985,0.18608257500000003,0.056748049999999994,0.0341675,-0.2668079,-3.0021412499999998,-30.352812125,6.1288363,110.98677900000001,0.033409609075,-0.15905450524999998,-0.0961141077,-0.1638042757,0.029850266374999997,0.12000258125
03:29:27,-0.060590959999999944,-0.0023436199999999907,0.19589962,0.05446287999999999,0.0337094,-0.26653624,-2.9657798,-30.3473647,6.13889028,109.3006124,0.03370745302,-0.1610607834,-0.09722895832,-0.16500507912,0.029257201699999996,0.121526085
03:29:27,-0.06839281999999994,6.88350000000032e-05,0.20571666500000002,0.05217770999999999,0.0332513,-0.26626458000000003,-2.9294183499999997,-30.341917275,6.1489442599999995,107.6144458,0.034005296965,-0.16306706155,-0.09834380894,-0.16620588254,0.028664137024999998,0.12304958875000001
03:29:27,-0.07619467999999999,0.002481290000000011,0.21553371,0.049892539999999985,0.0327932,-0.26599292,-2.8930569,-30.33646985,6.15899824,105.9282792,0.03430314091,-0.1650733397,-0.09945865956,-0.16740668596,0.028071072349999997,0.12457309250000001
03:29:27,-0.08399653999999998,0.004893745000000005,0.225350755,0.047607369999999996,0.032335100000000006,-0.26572126,-2.85669545,-30.331022425,6.16905222,104.24211260000001,0.034600984855,-0.16707961785,-0.10057351018,-0.16860748938,0.027478007674999996,0.12609659625
03:29:27,-0.09179839999999997,0.007306200000000013,0.23516779999999998,0.04532219999999999,0.031877,-0.2654496,-2.820334,-30.325575,6.1791062,102.555946,0.034898828800000004,-0.169085896,-0.1016883608,-0.16980829279999998,0.026884942999999994,0.12762010000000001
03:29:27,-0.09960025999999997,0.009718655000000007,0.244984845,0.04303702999999999,0.0314189,-0.26517794,-2.7839725499999997,-30.320127575,6.18916018,100.8697794,0.035196672745000004,-0.17109217415,-0.10280321142000001,-0.17100909622,0.026291878324999997,0.12914360375
03:29:27,-0.10740211999999996,0.01213111,0.25480189000000003,0.04075185999999999,0.0309608,-0.26490628,-2.7476111,-30.31468015,6.1992141599999995,99.1836128,0.035494516690000005,-0.17309845229999998,-0.10391806204000001,-0.17220989964,0.025698813649999996,0.1306671075
03:29:27,-0.11520397999999996,0.014543565000000008,0.264618935,0.038466689999999984,0.0305027,-0.26463462,-2.71124965,-30.309232725,6.20926814,97.49744620000001,0.035792360635000006,-0.17510473045,-0.10503291266,-0.17341070306,0.025105748974999995,0.13219061125
03:29:27,-0.12300583999999995,0.016956020000000002,0.27443598,0.036181519999999995,0.0300446,-0.26436296,-2.6748882,-30.3037853,6.21932212,95.8112796,0.03609020458,-0.1771110086,-0.10614776328,-0.17461150647999998,0.024512684299999997,0.13371411500000002
03:29:27,-0.13080769999999994,0.01936847500000001,0.284253025,0.03389634999999999,0.0295865,-0.26409130000000003,-2.6385267499999996,-30.298337875,6.2293761,94.125113,0.036388048525,-0.17911728675,-0.1072626139,-0.1758123099,0.023919619624999996,0.13523761875
03:29:27,-0.13860955999999994,0.021780930000000004,0.29407007,0.03161117999999999,0.029128400000000002,-0.26381964,-2.6021653,-30.29289045,6.23943008,92.4389464,0.03668589247,-0.18112356489999998,-0.10837746452,-0.17701311332,0.023326554949999995,0.1367611225
03:29:27,-0.14641141999999993,0.02419338500000001,0.303887115,0.029326009999999986,0.028670300000000003,-0.26354798,-2.56580385,-30.287443025,6.2494840599999995,90.75277980000001,0.036983736415,-0.18312984305,-0.10949231514,-0.17821391673999998,0.022733490274999997,0.13828462625
03:29:27,-0.15421327999999992,0.026605840000000006,0.31370416,0.027040839999999983,0.0282122,-0.26327632,-2.5294423999999998,-30.281995600000002,6.25953804,89.0666132,0.037281580360000004,-0.1851361212,-0.11060716576000001,-0.17941472015999999,0.022140425599999996,0.13980813
03:29:27,-0.16201513999999997,0.029018295,0.32352120500000003,0.024755669999999994,0.0277541,-0.26300466,-2.49308095,-30.276548175000002,6.26959202,87.3804466,0.037579424305000005,-0.18714239935,-0.11172201638000001,-0.18061552358,0.021547360924999995,0.14133163375000002
03:29:27,-0.16981699999999997,0.03143075000000001,0.33333825,0.02247049999999999,0.027296,-0.262733,-2.4567195,-30.271100750000002,6.279646,85.69428,0.037877268250000005,-0.1891486775,-0.11283686700000001,-0.181816327,0.020954296249999997,0.1428551375
03:29:27,-0.17761885999999996,0.033843205,0.343155295,0.020185329999999987,0.0268379,-0.26246134,-2.42035805,-30.265653325000002,6.28969998,84.00811340000001,0.038175112195,-0.19115495565,-0.11395171762,-0.18301713042,0.020361231574999996,0.14437864125
03:29:27,-0.18542071999999996,0.036255659999999995,0.35297234000000005,0.017900159999999984,0.026379800000000002,-0.26218968,-2.3839965999999997,-30.260205900000003,6.29975396,82.3219468,0.03847295614,-0.1931612338,-0.11506656824,-0.18421793384,0.019768166899999995,0.145902145
03:29:27,-0.19322257999999995,0.038668115,0.36278938499999996,0.015614989999999995,0.025921700000000002,-0.26191802,-2.34763515,-30.254758475000003,6.30980794,80.6357802,0.038770800085,-0.19516751194999998,-0.11618141886,-0.18541873726,0.019175102224999997,0.14742564875000003
03:29:27,-0.20102443999999994,0.04108057000000001,0.37260643,0.013329819999999992,0.025463600000000003,-0.26164636,-2.3112737,-30.249311050000003,6.31986192,78.9496136,0.03906864403,-0.1971737901,-0.11729626948,-0.18661954067999997,0.018582037549999993,0.14894915250000001
03:29:27,-0.20882629999999994,0.04349302500000002,0.382423475,0.01104464999999999,0.0250055,-0.2613747,-2.27491225,-30.243863625000003,6.3299159,77.26344700000001,0.039366487975,-0.19918006825,-0.1184111201,-0.18782034409999998,0.017988972874999995,0.15047265625
03:29:27,-0.21662815999999993,0.04590548,0.39224052000000004,0.008759479999999986,0.0245474,-0.26110304,-2.2385508,-30.2384162,6.33996988,75.5772804,0.039664331920000004,-0.2011863464,-0.11952597072000001,-0.18902114752,0.017395908199999997,0.15199616
03:29:27,-0.22443001999999992,0.048317935000000006,0.40205756500000006,0.006474309999999983,0.0240893,-0.26083138,-2.20218935,-30.232968775,6.35002386,73.8911138,0.039962175865000005,-0.20319262454999998,-0.12064082134000001,-0.19022195094,0.016802843524999993,0.15351966375
03:29:27,-0.23223187999999992,0.050730390000000014,0.41187461,0.00418913999999998,0.0236312,-0.26055972,-2.1658279,-30.22752135,6.36007784,72.2049472,0.040260019810000006,-0.2051989027,-0.12175567196,-0.19142275436,0.016209778849999995,0.15504316750000002
03:29:27,-0.24003373999999997,0.053142844999999994,0.421691655,0.001903969999999977,0.023173100000000002,-0.26028806,-2.12946645,-30.222073925,6.37013182,70.51878060000001,0.040557863755000007,-0.20720518085,-0.12287052258,-0.19262355778,0.015616714174999997,0.15656667125
03:29:27,-0.24783559999999996,0.0555553,0.4315087,-0.0003811999999999982,0.022715000000000003,-0.2600164,-2.093105,-30.2166265,6.3801858,68.832614,0.04085570770000001,-0.209211459,-0.1239853732,-0.1938243612,0.015023649499999993,0.158090175
03:29:27,-0.25563746,0.05796775500000001,0.44132574500000005,-0.0026663700000000012,0.0222569,-0.25974474,-2.0567435499999998,-30.211179075,6.39023978,67.1464474,0.04115355164500001,-0.21121773715,-0.12510022382,-0.19502516462,0.014430584824999995,0.15961367875
03:29:27,-0.2634393199999999,0.06038021000000002,0.45114278999999996,-0.004951540000000004,0.0217988,-0.25947308,-2.0203821,-30.20573165,6.40029376,65.4602808,0.04145139559,-0.2132240153,-0.12621507444,-0.19622596803999998,0.013837520149999998,0.1611371825
03:29:27,-0.27124117999999997,0.062792665,0.460959835,-0.007236710000000007,0.0213407,-0.25920142,-1.9840206499999997,-30.200284225,6.41034774,63.774114200000014,0.041749239535,-0.21523029345,-0.12732992506000002,-0.19742677145999998,0.013244455474999993,0.16266068625000002
03:29:27,-0.2790430399999999,0.06520512,0.47077688,-0.00952188000000001,0.0208826,-0.25892976,-1.9476592,-30.1948368,6.42040172,62.08794760000001,0.042047083480000004,-0.21723657159999998,-0.12844477568,-0.19862757488,0.012651390799999995,0.16418419
03:29:27,-0.28684489999999996,0.06761757500000001,0.48059392500000003,-0.011807050000000013,0.0204245,-0.2586581,-1.9112977500000001,-30.189389375,6.4304556999999996,60.401781,0.042344927425000005,-0.21924284975000002,-0.1295596263,-0.1998283783,0.012058326124999998,0.16570769375
03:29:27,-0.2946467599999999,0.07003003,0.49041097000000006,-0.014092220000000016,0.019966400000000002,-0.25838644,-1.8749363,-30.18394195,6.44050968,58.71561440000001,0.042642771370000006,-0.2212491279,-0.13067447692,-0.20102918172,0.011465261449999993,0.1672311975
03:29:27,-0.30244861999999995,0.072442485,0.500228015,-0.01637739000000002,0.019508300000000003,-0.25811478,-1.83857485,-30.178494525,6.45056366,57.029447800000014,0.042940615315,-0.22325540605,-0.13178932754,-0.20222998513999998,0.010872196774999995,0.16875470125000003
03:29:27,-0.3102504799999999,0.07485494000000001,0.5100450599999999,-0.018662560000000022,0.0190502,-0.25784312,-1.8022133999999999,-30.1730471,6.46061764,55.34328120000001,0.04323845926,-0.22526168419999998,-0.13290417816,-0.20343078856,0.010279132099999998,0.17027820500000002
03:29:27,-0.31805233999999993,0.07726739500000002,0.5198621050000001,-0.020947729999999998,0.0185921,-0.25757146,-1.76585195,-30.167599675,6.47067162,53.6571146,0.043536303205,-0.22726796235000002,-0.13401902878,-0.20463159197999997,0.009686067424999993,0.17180170875
03:29:27,-0.32585419999999987,0.07967985,0.52967915,-0.0232329,0.018134000000000004,-0.2572998,-1.7294904999999998,-30.162152250000002,6.4807255999999995,51.97094800000001,0.04383414715,-0.2292742405,-0.13513387940000002,-0.20583239539999998,0.009093002749999995,0.1733252125
03:29:27,-0.3336560599999999,0.082092305,0.5394961949999999,-0.025518070000000004,0.0176759,-0.25702814,-1.69312905,-30.156704825000002,6.49077958,50.284781400000014,0.044131991095,-0.23128051865,-0.13624873002000001,-0.20703319882,0.008499938074999998,0.17484871625
03:29:27,-0.34145791999999986,0.08450476000000001,0.54931324,-0.027803240000000007,0.0172178,-0.25675648,-1.6567675999999998,-30.151257400000002,6.50083356,48.59861480000001,0.044429835040000004,-0.23328679679999997,-0.13736358064,-0.20823400224,0.007906873399999993,0.17637222000000002
03:29:27,-0.3492597799999999,0.08691721499999999,0.559130285,-0.03008841000000001,0.016759700000000002,-0.25648482,-1.62040615,-30.145809975000002,6.51088754,46.9124482,0.044727678985000005,-0.23529307495000001,-0.13847843126,-0.20943480566,0.007313808724999996,0.17789572375
03:29:27,-0.35706163999999985,0.08932967,0.5689473300000001,-0.03237358000000001,0.0163016,-0.25621316,-1.5840446999999998,-30.140362550000003,6.52094152,45.22628160000001,0.045025522930000006,-0.2372993531,-0.13959328188,-0.21063560908,0.006720744049999998,0.1794192275
03:29:27,-0.3648634999999999,0.09174212500000001,0.578764375,-0.034658750000000016,0.015843500000000003,-0.2559415,-1.54768325,-30.134915125000003,6.5309954999999995,43.540115000000014,0.04532336687500001,-0.23930563124999998,-0.1407081325,-0.2118364125,0.006127679374999993,0.18094273125
03:29:27,-0.37266535999999995,0.09415458000000002,0.5885814199999999,-0.03694392000000002,0.0153854,-0.25566984,-1.5113218000000002,-30.129467700000003,6.54104948,41.85394840000001,0.04562121082000001,-0.24131190940000002,-0.14182298312,-0.21303721592,0.005534614699999996,0.182466235
03:29:27,-0.3804672199999999,0.096567035,0.598398465,-0.03922909000000002,0.014927299999999998,-0.25539818,-1.47496035,-30.124020275000003,6.55110346,40.1677818,0.04591905476500001,-0.24331818755,-0.14293783374,-0.21423801933999997,0.004941550024999998,0.18398973875000002
03:29:27,-0.38826907999999993,0.09897949,0.60821551,-0.04151426,0.014469200000000002,-0.25512652,-1.4385989000000001,-30.11857285,6.56115744,38.48161520000002,0.04621689871000001,-0.2453244657,-0.14405268436000002,-0.21543882275999998,0.004348485349999993,0.1855132425
03:29:27,-0.39607093999999987,0.10139194500000001,0.6180325550000001,-0.04379943,0.014011099999999999,-0.25485486,-1.4022374499999999,-30.113125425,6.57121142,36.795448600000014,0.046514742655,-0.24733074384999998,-0.14516753498,-0.21663962618,0.0037554206749999958,0.18703674625
03:29:27,-0.4038727999999999,0.10380440000000002,0.6278496,-0.0460846,0.013553000000000003,-0.2545832,-1.365876,-30.107678,6.5812653999999995,35.10928200000001,0.046812586600000004,-0.24933702200000002,-0.1462823856,-0.2178404296,0.003162355999999991,0.18856025
03:29:27,-0.41167465999999986,0.106216855,0.6376666449999999,-0.048369770000000006,0.0130949,-0.25431154,-1.3295145499999999,-30.102230575,6.59131938,33.4231154,0.047110430545000005,-0.25134330015,-0.14739723622,-0.21904123302,0.0025692913249999935,0.19008375375000003
03:29:27,-0.4194765199999999,0.10862931,0.6474836900000001,-0.05065494000000001,0.012636800000000004,-0.25403988,-1.2931531,-30.09678315,6.60137336,31.736948799999993,0.047408274490000006,-0.2533495783,-0.14851208684,-0.22024203643999998,0.001976226649999996,0.19160725750000002
03:29:27,-0.42727837999999985,0.11104176500000001,0.657300735,-0.05294011000000001,0.0121787,-0.25376822,-1.2567916499999998,-30.091335725,6.61142734,30.050782200000015,0.04770611843500001,-0.25535585645,-0.14962693746,-0.22144283986,0.0013831619749999913,0.19313076125
03:29:27,-0.4350802399999999,0.11345422,0.6671177800000001,-0.055225280000000015,0.011720599999999998,-0.25349656,-1.2204302,-30.0858883,6.62148132,28.364615600000008,0.04800396238,-0.2573621346,-0.15074178808,-0.22264364327999997,0.0007900972999999936,0.194654265
03:29:27,-0.44288209999999983,0.115866675,0.676934825,-0.05751045000000002,0.011262500000000002,-0.2532249,-1.1840687499999998,-30.080440875,6.6315352999999995,26.678449,0.048301806325,-0.25936841275,-0.15185663870000002,-0.22384444669999998,0.00019703262499999596,0.19617776875000004
03:29:27,-0.4506839599999999,0.11827913000000001,0.6867518699999999,-0.05979562000000002,0.010804399999999999,-0.25295323999999997,-1.1477073,-30.07499345,6.64158928,24.992282400000022,0.04859965027,-0.2613746909,-0.15297148932000001,-0.22504525011999998,-0.00039603205000000863,0.19770127250000002
03:29:27,-0.45848581999999993,0.12069158500000002,0.6965689150000001,-0.06208079,0.010346300000000003,-0.25268158,-1.1113458500000002,-30.069546025,6.65164326,23.306115800000015,0.048897494215000004,-0.26338096905,-0.15408633994,-0.22624605354,-0.0009890967250000063,0.19922477625
03:29:27,-0.46628767999999987,0.12310404,0.70638596,-0.06436596,0.0098882,-0.25240992,-1.0749844,-30.0640986,6.66169724,21.619949200000008,0.049195338160000004,-0.2653872472,-0.15520119056,-0.22744685696,-0.001582161400000004,0.20074828
03:29:27,-0.4740895399999999,0.125516495,0.7162030050000001,-0.06665113,0.009430100000000004,-0.25213826,-1.0386229500000002,-30.058651175,6.67175122,19.9337826,0.049493182105000005,-0.26739352535,-0.15631604118,-0.22864766038,-0.0021752260750000085,0.20227178375
03:29:27,-0.48189139999999986,0.12792895,0.72602005,-0.0689363,0.008972,-0.2518666,-1.0022615,-30.05320375,6.6818051999999994,18.247615999999994,0.049791026050000006,-0.2693998035,-0.1574308918,-0.22984846379999999,-0.002768290750000006,0.20379528750000003
03:29:27,-0.4896932599999999,0.130341405,0.7358370949999999,-0.07122147000000001,0.008513899999999998,-0.25159494,-0.9659000500000001,-30.047756325,6.69185918,16.561449400000015,0.05008886999500001,-0.27140608165,-0.15854574242,-0.23104926722,-0.003361355425000004,0.20531879125000002
03:29:27,-0.49749511999999985,0.13275386,0.7456541400000001,-0.07350664000000001,0.008055800000000002,-0.25132328,-0.9295385999999999,-30.042308900000002,6.70191316,14.875282800000008,0.05038671394000001,-0.2734123598,-0.15966059304,-0.23225007063999997,-0.003954420100000008,0.206842295
03:29:27,-0.5052969799999999,0.135166315,0.755471185,-0.07579181000000002,0.007597699999999999,-0.25105162,-0.8931771500000001,-30.036861475000002,6.71196714,13.1891162,0.05068455788500001,-0.27541863795,-0.16077544366000002,-0.23345087405999998,-0.004547484775000006,0.20836579875
03:29:27,-0.5130988399999998,0.13757877000000002,0.7652882299999999,-0.07807698000000002,0.007139600000000003,-0.25077996,-0.8568156999999998,-30.031414050000002,6.72202112,11.502949600000022,0.05098240183000001,-0.2774249161,-0.16189029428,-0.23465167748,-0.005140549450000004,0.20988930249999999
03:29:27,-0.5209006999999999,0.139991225,0.775105275,-0.08036215000000002,0.0066815,-0.2505083,-0.82045425,-30.025966625000002,6.732075099999999,9.816783000000015,0.05128024577500001,-0.27943119425,-0.1630051449,-0.2358524809,-0.005733614125000008,0.21141280625000003
03:29:27,-0.5287025599999998,0.14240368,0.78492232,-0.08264732000000002,0.006223399999999997,-0.25023664,-0.7840927999999998,-30.020519200000003,6.74212908,8.130616400000008,0.05157808972000001,-0.2814374724,-0.16411999552,-0.23705328432,-0.006326678800000006,0.21293631000000002
03:29:27,-0.5365044199999999,0.144816135,0.7947393650000001,-0.08493249,0.005765300000000001,-0.24996498,-0.74773135,-30.015071775000003,6.75218306,6.444449800000001,0.051875933665000006,-0.28344375055,-0.16523484614,-0.23825408773999998,-0.006919743475000004,0.21445981375
03:29:27,-0.5443062799999999,0.14722859,0.80455641,-0.08721766,0.005307199999999998,-0.24969332,-0.7113699000000002,-30.009624350000003,6.76223704,4.758283199999994,0.052173777610000006,-0.2854500287,-0.16634969676,-0.23945489116,-0.007512808150000008,0.2159833175
03:29:27,-0.5521081399999999,0.149641045,0.8143734549999999,-0.08950283,0.004849100000000002,-0.24942166,-0.67500845,-30.004176925000003,6.77229102,3.0721166000000153,0.05247162155500001,-0.28745630685,-0.16746454738,-0.24065569457999997,-0.008105872825000006,0.21750682125000004
03:29:27,-0.5599099999999999,0.1520535,0.8241905,-0.09178800000000001,0.004390999999999999,-0.24914999999999998,-0.6386470000000002,-29.998729500000003,6.782344999999999,1.3859500000000082,0.05276946550000001,-0.289462585,-0.16857939800000002,-0.24185649799999998,-0.008698937500000004,0.21903032500000003
03:29:27,-0.5677118599999998,0.15446595500000002,0.834007545,-0.09407317000000001,0.003932900000000003,-0.24887834,-0.60228555,-29.993282075,6.79239898,-0.30021659999999883,0.053067309445,-0.29146886315,-0.16969424862000002,-0.24305730141999998,-0.009292002175000008,0.22055382875
03:29:27,-0.5755137199999999,0.15687841,0.8438245900000001,-0.09635834000000001,0.0034748,-0.24860668,-0.5659241000000002,-29.98783465,6.80245296,-1.9863831999999775,0.05336515339,-0.2934751413,-0.17080909924,-0.24425810484,-0.009885066850000006,0.2220773325
03:29:27,-0.5833155799999998,0.159290865,0.853641635,-0.09864351000000002,0.003016699999999997,-0.24833502,-0.5295626499999999,-29.982387225,6.81250694,-3.6725497999999845,0.053662997335000004,-0.29548141945,-0.17192394986,-0.24545890826,-0.010478131525000003,0.22360083625
03:29:27,-0.5911174399999999,0.16170331999999998,0.8634586800000001,-0.10092868000000002,0.002558600000000001,-0.24806335999999998,-0.4932012000000001,-29.9769398,6.82256092,-5.358716399999992,0.053960841280000005,-0.2974876976,-0.17303880048,-0.24665971168,-0.011071196200000008,0.22512434000000003
03:29:27,-0.5989192999999998,0.16411577500000002,0.8732757250000001,-0.10321385000000002,0.002100499999999998,-0.2477917,-0.4568397499999999,-29.971492375,6.832614899999999,-7.044882999999999,0.054258685225000006,-0.29949397575,-0.1741536511,-0.24786051509999998,-0.011664260875000006,0.22664784375000002
03:29:27,-0.6067211599999999,0.16652823,0.88309277,-0.10549902,0.0016424000000000022,-0.24752004,-0.4204783000000001,-29.96604495,6.84266888,-8.731049600000006,0.05455652917000001,-0.3015002539,-0.17526850172,-0.24906131852,-0.012257325550000003,0.2281713475
03:29:27,-0.6145230199999999,0.16894068499999998,0.8929098150000001,-0.10778419,0.0011842999999999992,-0.24724838,-0.3841168500000003,-29.960597525,6.85272286,-10.417216199999984,0.05485437311500001,-0.30350653205,-0.17638335234,-0.25026212193999997,-0.012850390225000008,0.22969485125
03:29:27,-0.6223248799999999,0.17135314000000001,0.90272686,-0.11006936,0.0007262000000000032,-0.24697671999999998,-0.34775540000000005,-29.9551501,6.86277684,-12.103382799999991,0.05515221706000001,-0.3055128102,-0.17749820296000002,-0.25146292536,-0.013443454900000013,0.231218355
03:29:27,-0.6301267399999999,0.173765595,0.9125439050000002,-0.11235453000000001,0.0002681000000000003,-0.24670506,-0.31139395000000025,-29.949702675,6.87283082,-13.789549399999999,0.05545006100500001,-0.30751908835,-0.17861305358000001,-0.25266372878,-0.014036519575000003,0.23274185875000003
03:29:27,-0.6379285999999998,0.17617805000000003,0.9223609500000001,-0.11463970000000001,-0.00019000000000000267,-0.2464334,-0.2750325,-29.94425525,6.882884799999999,-15.475715999999977,0.05574790495000001,-0.3095253665,-0.1797279042,-0.2538645322,-0.014629584250000008,0.23426536250000002
03:29:27,-0.6457304599999999,0.178590505,0.932177995,-0.11692487000000001,-0.0006480999999999987,-0.24616174,-0.23867104999999977,-29.938807825,6.89293878,-17.161882599999984,0.05604574889500001,-0.31153164465,-0.18084275482,-0.25506533562,-0.015222648925000012,0.23578886625
03:29:27,-0.6535323199999998,0.18100296,0.9419950400000001,-0.11921004000000002,-0.0011062000000000016,-0.24589007999999998,-0.20230960000000042,-29.9333604,6.90299276,-18.84804919999999,0.05634359284000001,-0.3135379228,-0.18195760544,-0.25626613903999995,-0.015815713600000003,0.23731237
03:29:27,-0.6613341799999999,0.18341541500000003,0.951812085,-0.12149521000000002,-0.0015642999999999976,-0.24561842,-0.16594815000000018,-29.927912975,6.91304674,-20.5342158,0.05664143678500001,-0.31554420095,-0.18307245606,-0.25746694246,-0.016408778275000008,0.23883587375000004
03:29:27,-0.6691360399999998,0.18582787,0.9616291300000002,-0.12378038000000002,-0.0020224000000000006,-0.24534676,-0.12958669999999994,-29.922465550000002,6.92310072,-22.220382400000005,0.056939280730000014,-0.3175504791,-0.18418730668,-0.25866774587999997,-0.017001842950000012,0.24035937750000003
03:29:27,-0.6769378999999999,0.188240325,0.9714461750000001,-0.12606555000000003,-0.0024804999999999966,-0.2450751,-0.0932252499999997,-29.917018125000002,6.9331547,-23.906548999999984,0.057237124675000015,-0.31955675725,-0.1853021573,-0.2598685493,-0.017594907625000003,0.24188288125000001
03:29:27,-0.6847397599999998,0.19065278000000002,0.98126322,-0.12835072000000003,-0.0029385999999999995,-0.24480343999999998,-0.05686380000000035,-29.911570700000002,6.94320868,-25.59271559999999,0.05753496862,-0.3215630354,-0.18641700792,-0.26106935272,-0.018187972300000008,0.243406385
03:29:27,-0.6925416199999999,0.193065235,0.9910802650000001,-0.13063589000000003,-0.0033967000000000025,-0.24453177999999998,-0.020502350000000114,-29.906123275000002,6.95326266,-27.278882199999998,0.057832812565,-0.32356931355,-0.18753185854,-0.26227015614,-0.018781036975000012,0.24492988875
03:29:27,-0.7003434799999999,0.19547768999999998,1.00089731,-0.13292106000000004,-0.0038547999999999985,-0.24426012,0.015859100000000126,-29.900675850000002,6.96331664,-28.965048799999977,0.05813065651,-0.3255755917,-0.18864670916,-0.26347095956,-0.019374101650000003,0.24645339250000003
03:29:27,-0.7081453399999998,0.19789014500000002,1.010714355,-0.13520622999999998,-0.0043129000000000015,-0.24398846,0.05222054999999948,-29.895228425000003,6.97337062,-30.651215399999984,0.058428500455000004,-0.32758186985,-0.18976155978,-0.26467176297999995,-0.019967166325000008,0.24797689625000002
03:29:27,-0.7159471999999999,0.2003026,1.0205314,-0.13749139999999999,-0.0047709999999999975,-0.24371679999999998,0.08858199999999972,-29.889781000000003,6.9834246,-32.33738199999999,0.058726344400000005,-0.329588148,-0.1908764104,-0.2658725664,-0.020560231000000012,0.2495004
03:29:27,-0.7237490599999998,0.20271505499999998,1.030348445,-0.13977657,-0.0052291,-0.24344514,0.12494344999999996,-29.884333575000003,6.99347858,-34.0235486,0.059024188345000006,-0.33159442615,-0.19199126102,-0.26707336981999996,-0.021153295675000003,0.25102390375
03:29:27,-0.7315509199999999,0.20512751,1.0401654900000001,-0.14206174,-0.005687200000000003,-0.24317348,0.1613049000000002,-29.878886150000003,7.00353256,-35.709715200000005,0.05932203229000001,-0.3336007043,-0.19310611164,-0.26827417324,-0.021746360350000007,0.2525474075
03:29:27,-0.7393527799999998,0.207539965,1.049982535,-0.14434691,-0.006145299999999999,-0.24290182,0.19766634999999955,-29.873438725,7.01358654,-37.395881799999984,0.05961987623500001,-0.33560698245,-0.19422096226,-0.26947497666,-0.022339425025000012,0.25407091125000003
03:29:27,-0.7471546399999999,0.20995242000000003,1.05979958,-0.14663208,-0.006603400000000002,-0.24263015999999998,0.23402779999999979,-29.8679913,7.02364052,-39.08204839999999,0.05991772018000001,-0.3376132606,-0.19533581288,-0.27067578008,-0.022932489700000003,0.255594415
03:29:27,-0.7549564999999998,0.212364875,1.069616625,-0.14891725,-0.007061499999999998,-0.24235849999999998,0.27038925,-29.862543875,7.0336945,-40.768215,0.06021556412500001,-0.33961953875,-0.1964506635,-0.2718765835,-0.023525554375000007,0.25711791875
03:29:27,-0.7627583599999999,0.21477733,1.07943367,-0.15120242,-0.007519600000000001,-0.24208684,0.30675070000000026,-29.85709645,7.04374848,-42.45438159999998,0.06051340807000001,-0.3416258169,-0.19756551412,-0.27307738692,-0.024118619050000012,0.2586414225
03:29:27,-0.7705602199999998,0.21718978500000002,1.0892507150000001,-0.15348759,-0.007977699999999997,-0.24181518,0.3431121499999996,-29.851649025,7.05380246,-44.140548199999984,0.06081125201500001,-0.34363209505000003,-0.19868036474,-0.27427819034,-0.024711683725000003,0.26016492625000004
03:29:27,-0.7783620799999998,0.21960224,1.09906776,-0.15577276,-0.0084358,-0.24154351999999998,0.37947359999999986,-29.8462016,7.06385644,-45.82671479999999,0.06110909596000001,-0.3456383732,-0.19979521536,-0.27547899375999996,-0.025304748400000007,0.26168843
03:29:27,-0.7861639399999999,0.22201469499999998,1.108884805,-0.15805793,-0.008893900000000003,-0.24127186,0.4158350500000001,-29.840754175,7.07391042,-47.5128814,0.06140693990500001,-0.34764465135,-0.20091006598,-0.27667979718,-0.025897813075000012,0.26321193375
03:29:27,-0.7939657999999999,0.22442715000000002,1.11870185,-0.16034310000000002,-0.009352,-0.2410002,0.45219649999999945,-29.83530675,7.0839644,-49.199048000000005,0.061704783850000014,-0.34965092950000004,-0.2020249166,-0.27788060059999997,-0.026490877750000003,0.2647354375
03:29:27,-0.8017676599999998,0.226839605,1.128518895,-0.16262827000000002,-0.009810100000000002,-0.24072854,0.4885579499999997,-29.829859325,7.09401838,-50.88521459999998,0.062002627795000015,-0.35165720765,-0.20313976722,-0.27908140402,-0.027083942425000007,0.26625894125
03:29:27,-0.8095695199999998,0.22925205999999998,1.1383359400000002,-0.16491344000000002,-0.010268199999999998,-0.24045687999999998,0.5249193999999999,-29.8244119,7.10407236,-52.57138119999999,0.062300471740000016,-0.3536634858,-0.20425461784,-0.28028220744,-0.027677007100000012,0.26778244500000004
03:29:27,-0.8173713799999999,0.23166451500000002,1.148152985,-0.16719861000000003,-0.010726300000000001,-0.24018521999999998,0.5612808500000002,-29.818964475,7.11412634,-54.2575478,0.062598315685,-0.35566976395,-0.20536946846,-0.28148301086,-0.028270071775000002,0.26930594875
03:29:27,-0.8251732399999999,0.23407697,1.15797003,-0.16948378000000003,-0.011184399999999997,-0.23991356,0.5976422999999995,-29.81351705,7.12418032,-55.943714399999976,0.06289615963,-0.35767604210000004,-0.20648431908,-0.28268381428,-0.028863136450000007,0.2708294525
03:29:27,-0.8329750999999997,0.23648942500000003,1.1677870750000001,-0.17176895000000003,-0.0116425,-0.2396419,0.6340037499999998,-29.808069625,7.1342343,-57.62988099999998,0.063194003575,-0.35968232025,-0.2075991697,-0.28388461769999995,-0.02945620112500001,0.27235295625
03:29:27,-0.8407769599999998,0.23890188,1.17760412,-0.17405412000000003,-0.012100600000000003,-0.23937023999999998,0.6703652,-29.802622200000002,7.14428828,-59.31604759999999,0.06349184752,-0.3616885984,-0.20871402032,-0.28508542112,-0.030049265800000002,0.27387646
03:29:27,-0.8485788199999998,0.241314335,1.1874211650000002,-0.17633929000000004,-0.012558699999999999,-0.23909858,0.7067266500000002,-29.797174775000002,7.15434226,-61.0022142,0.063789691465,-0.36369487655,-0.20982887094,-0.28628622453999997,-0.030642330475000007,0.27539996375000003
03:29:27,-0.8563806799999999,0.24372679000000003,1.19723821,-0.17862445999999998,-0.013016800000000002,-0.23882692,0.7430880999999996,-29.791727350000002,7.16439624,-62.688380800000004,0.06408753541000001,-0.36570115470000003,-0.21094372156,-0.28748702796,-0.03123539515000001,0.2769234675
03:29:27,-0.8641825399999999,0.246139245,1.207055255,-0.18090963,-0.013474900000000005,-0.23855526,0.7794495499999998,-29.786279925000002,7.17445022,-64.37454739999998,0.06438537935500001,-0.36770743285,-0.21205857218,-0.28868783138,-0.031828459825,0.27844697125
03:29:27,-0.8719843999999998,0.2485517,1.2168723000000001,-0.1831948,-0.013932999999999994,-0.23828359999999998,0.8158110000000001,-29.780832500000002,7.1845042,-66.06071399999999,0.06468322330000001,-0.369713711,-0.2131734228,-0.2898886348,-0.03242152450000001,0.279970475
03:29:27,-0.8797862599999998,0.250964155,1.226689345,-0.18547997,-0.014391099999999997,-0.23801193999999998,0.8521724499999994,-29.775385075000003,7.19455818,-67.7468806,0.06498106724500001,-0.37171998915000004,-0.21428827342,-0.29108943822,-0.03301458917500001,0.28149397875000004
03:29:27,-0.8875881199999999,0.25337661,1.23650639,-0.18776514,-0.0148492,-0.23774028,0.8885338999999997,-29.769937650000003,7.20461216,-69.43304719999998,0.06527891119000001,-0.3737262673,-0.21540312404,-0.29229024163999995,-0.03360765385,0.28301748250000003
03:29:27,-0.8953899799999999,0.255789065,1.246323435,-0.19005031,-0.015307300000000003,-0.23746862,0.9248953499999999,-29.764490225000003,7.21466614,-71.11921379999998,0.06557675513500001,-0.37573254545,-0.21651797466,-0.29349104506,-0.03420071852500001,0.28454098625
03:29:27,-0.9031918399999997,0.25820152,1.25614048,-0.19233548,-0.015765400000000006,-0.23719695999999998,0.9612568000000001,-29.759042800000003,7.22472012,-72.80538039999999,0.06587459908000001,-0.3777388236,-0.21763282528,-0.29469184847999996,-0.03479378320000001,0.28606449
03:29:27,-0.9109936999999998,0.260613975,1.2659575250000001,-0.19462065,-0.016223499999999995,-0.2369253,0.9976182499999995,-29.753595375000003,7.2347741,-74.491547,0.06617244302500001,-0.37974510175000004,-0.2187476759,-0.29589265189999997,-0.035386847875,0.28758799375
03:29:27,-0.9187955599999998,0.26302643,1.27577457,-0.19690582,-0.016681599999999998,-0.23665364,1.0339796999999997,-29.74814795,7.24482808,-76.1777136,0.06647028697000001,-0.3817513799,-0.21986252652,-0.29709345532,-0.03597991255000001,0.28911149750000004
03:29:27,-0.9265974199999999,0.265438885,1.285591615,-0.19919099,-0.0171397,-0.23638198,1.07034115,-29.742700525,7.25488206,-77.86388019999998,0.06676813091500002,-0.38375765805,-0.22097737714000001,-0.29829425874,-0.03657297722500001,0.29063500125
03:29:27,-0.9343992799999997,0.26785134,1.29540866,-0.20147616000000002,-0.017597800000000004,-0.23611031999999998,1.1067026000000002,-29.7372531,7.26493604,-79.55004679999999,0.06706597486000002,-0.3857639362,-0.22209222776,-0.29949506216,-0.0371660419,0.292158505
03:29:27,-0.9422011399999998,0.27026379500000003,1.305225705,-0.20376133000000002,-0.018055900000000007,-0.23583865999999998,1.1430640499999996,-29.731805675,7.27499002,-81.2362134,0.06736381880500002,-0.38777021435000003,-0.22320707838,-0.30069586557999994,-0.03775910657500001,0.29368200875
03:29:27,-0.9500029999999998,0.27267625,1.3150427500000001,-0.20604650000000002,-0.018513999999999996,-0.23556699999999997,1.1794254999999998,-29.72635825,7.285044,-82.92237999999998,0.06766166275,-0.3897764925,-0.224321929,-0.301896669,-0.03835217125000001,0.2952055125
03:29:27,-0.9578048599999999,0.275088705,1.324859795,-0.20833167000000002,-0.0189721,-0.23529534,1.21578695,-29.720910825,7.2950979799999995,-84.60854659999998,0.067959506695,-0.39178277065,-0.22543677962,-0.30309747241999996,-0.038945235925,0.29672901625000003
03:29:27,-0.9656067199999999,0.27750116,1.33467684,-0.21061684000000003,-0.0194302,-0.23502367999999998,1.2521483999999994,-29.7154634,7.30515196,-86.29471319999999,0.06825735064,-0.39378904880000004,-0.22655163024,-0.30429827584,-0.039538300600000006,0.29825252
03:29:27,-0.9734085799999997,0.279913615,1.344493885,-0.21290201000000003,-0.019888300000000005,-0.23475201999999998,1.2885098499999996,-29.710015975,7.31520594,-87.98087979999997,0.068555194585,-0.39579532695,-0.22766648086,-0.30549907926,-0.04013136527500001,0.29977602375
03:29:27,-0.9812104399999998,0.28232607,1.35431093,-0.21518718000000003,-0.020346400000000008,-0.23448036,1.3248712999999999,-29.70456855,7.32525992,-89.6670464,0.06885303853000001,-0.3978016051,-0.22878133148,-0.30669988268,-0.04072442995,0.3012995275
03:29:27,-0.9890122999999998,0.284738525,1.3641279750000002,-0.21747235000000004,-0.020804499999999997,-0.2342087,1.36123275,-29.699121125,7.3353139,-91.35321299999998,0.06915088247500001,-0.39980788325,-0.2298961821,-0.3079006861,-0.041317494625000006,0.30282303125000004
03:29:27,-0.9968141599999999,0.28715098,1.37394502,-0.21975751999999998,-0.0212626,-0.23393703999999998,1.3975941999999995,-29.6936737,7.3453678799999995,-93.03937959999996,0.06944872642000001,-0.40181416140000004,-0.23101103272,-0.30910148952,-0.04191055930000001,0.30434653500000003
03:29:27,-1.0046160199999998,0.289563435,1.383762065,-0.22204269,-0.021720700000000003,-0.23366537999999998,1.4339556499999997,-29.688226275,7.35542186,-94.7255462,0.06974657036500001,-0.40382043955,-0.23212588334,-0.31030229294,-0.042503623975,0.30587003875
03:29:27,-1.0124178799999999,0.29197589,1.3935791100000001,-0.22432786,-0.022178800000000005,-0.23339371999999997,1.4703171,-29.682778850000002,7.36547584,-96.41171279999998,0.07004441431000001,-0.4058267177,-0.23324073396,-0.31150309635999995,-0.043096688650000006,0.3073935425
03:29:27,-1.02021974,0.294388345,1.403396155,-0.22661303,-0.022636899999999995,-0.23312206,1.5066785500000002,-29.677331425000002,7.37552982,-98.09787940000001,0.07034225825500001,-0.40783299585,-0.23435558458,-0.31270389978,-0.04368975332500001,0.30891704625
03:29:27,-1.0280216,0.29680080000000003,1.4132132,-0.2288982,-0.023094999999999997,-0.23285039999999999,1.5430399999999995,-29.671884000000002,7.3855838,-99.78404599999999,0.07064010220000001,-0.40983927400000003,-0.2354704352,-0.31390470319999997,-0.044282818000000015,0.31044055000000004
03:29:27,-1.03582346,0.299213255,1.423030245,-0.23118337,-0.0235531,-0.23257873999999998,1.5794014499999998,-29.666436575000002,7.3956377799999995,-101.47021259999997,0.07093794614500001,-0.41184555215,-0.23658528582,-0.31510550662,-0.044875882675000006,0.31196405375
03:29:27,-1.0436253199999999,0.30162571,1.43284729,-0.23346854,-0.024011200000000003,-0.23230708,1.6157629,-29.660989150000002,7.40569176,-103.1563792,0.07123579009000001,-0.4138518303,-0.23770013644000001,-0.31630631004,-0.04546894735000001,0.3134875575
03:29:27,-1.05142718,0.304038165,1.4426643350000001,-0.23575371,-0.024469300000000006,-0.23203542,1.6521243499999994,-29.655541725000003,7.41574574,-104.84254579999998,0.07153363403500002,-0.41585810845000004,-0.23881498706,-0.31750711346,-0.046062012025000015,0.31501106125
03:29:27,-1.05922904,0.30645062,1.45248138,-0.23803888,-0.024927399999999995,-0.23176375999999999,1.6884857999999996,-29.650094300000003,7.42579972,-106.52871240000002,0.07183147798000002,-0.4178643866,-0.23992983768,-0.31870791688,-0.046655076700000006,0.316534565
03:29:27,-1.0670309,0.308863075,1.462298425,-0.24032405,-0.0253855,-0.23149209999999998,1.7248472499999998,-29.644646875000003,7.4358537,-108.214879,0.07212932192500002,-0.41987066475,-0.2410446883,-0.31990872029999995,-0.04724814137500001,0.31805806875
03:29:27,-1.0748327599999998,0.31127553,1.47211547,-0.24260922000000001,-0.0258436,-0.23122043999999997,1.7612087,-29.639199450000003,7.4459076799999995,-109.90104559999997,0.07242716587000002,-0.4218769429,-0.24215953892,-0.32110952372,-0.047841206050000015,0.3195815725
03:29:27,-1.0826346199999999,0.313687985,1.481932515,-0.24489439000000002,-0.026301700000000004,-0.23094878,1.7975701499999994,-29.633752025,7.45596166,-111.58721220000001,0.072725009815,-0.42388322105000004,-0.24327438954,-0.32231032713999996,-0.048434270725000006,0.32110507625
03:29:27,-1.09043648,0.31610044,1.4917495600000001,-0.24717956000000002,-0.026759800000000007,-0.23067711999999999,1.8339315999999997,-29.6283046,7.46601564,-113.27337879999999,0.07302285376,-0.4258894992,-0.24438924016,-0.32351113055999997,-0.04902733540000001,0.32262858
03:29:27,-1.09823834,0.318512895,1.501566605,-0.24946473000000002,-0.027217899999999996,-0.23040545999999998,1.87029305,-29.622857175,7.47606962,-114.95954539999997,0.073320697705,-0.42789577735,-0.24550409078,-0.32471193398,-0.049620400075000015,0.32415208375
03:29:27,-1.1060401999999998,0.32092535,1.51138365,-0.2517499,-0.027676,-0.2301338,1.9066545000000001,-29.61740975,7.4861236,-116.645712,0.07361854165000001,-0.4299020555,-0.2466189414,-0.3259127374,-0.050213464750000006,0.32567558750000003
03:29:27,-1.1138420599999999,0.323337805,1.521200695,-0.25403507000000003,-0.028134100000000002,-0.22986214,1.9430159499999995,-29.611962325,7.4961775799999995,-118.33187859999998,0.07391638559500001,-0.43190833365000003,-0.24773379202,-0.32711354082,-0.05080652942500001,0.32719909125
03:29:27,-1.12164392,0.32575026,1.53101774,-0.25632024000000003,-0.028592200000000005,-0.22959047999999999,1.9793773999999997,-29.6065149,7.50623156,-120.01804519999996,0.07421422954000001,-0.4339146118,-0.24884864264,-0.32831434423999994,-0.051399594100000015,0.328722595
03:29:27,-1.12944578,0.328162715,1.5408347850000002,-0.25860541000000004,-0.029050300000000008,-0.22931881999999998,2.01573885,-29.601067475,7.51628554,-121.7042118,0.07451207348500001,-0.43592088995,-0.24996349326,-0.32951514766,-0.051992658775000006,0.33024609875
03:29:27,-1.13724764,0.33057517000000003,1.55065183,-0.26089058,-0.029508399999999997,-0.22904715999999997,2.0521002999999993,-29.59562005,7.52633952,-123.39037839999997,0.07480991743000001,-0.43792716810000004,-0.25107834388,-0.33071595107999996,-0.05258572345000001,0.3317696025
03:29:27,-1.1450494999999998,0.332987625,1.560468875,-0.26317575,-0.0299665,-0.2287755,2.0884617499999996,-29.590172625,7.5363935,-125.07654500000001,0.07510776137500001,-0.43993344625,-0.2521931945,-0.3319167545,-0.053178788125000015,0.33329310625
03:29:27,-1.1528513599999999,0.33540008,1.5702859200000001,-0.26546092,-0.030424600000000003,-0.22850383999999999,2.1248232,-29.5847252,7.546447479999999,-126.76271159999999,0.07540560532000001,-0.4419397244,-0.25330804512,-0.33311755792,-0.053771852800000006,0.33481661
03:29:27,-1.16065322,0.337812535,1.580102965,-0.26774609,-0.030882700000000006,-0.22823217999999998,2.16118465,-29.579277775,7.55650146,-128.44887819999997,0.07570344926500001,-0.44394600255,-0.25442289574000004,-0.33431836134,-0.05436491747500001,0.33634011375
03:29:27,-1.16845508,0.34022499,1.5899200100000002,-0.27003126,-0.031340799999999995,-0.22796052,2.1975460999999994,-29.57383035,7.56655544,-130.1350448,0.07600129321000001,-0.44595228070000004,-0.25553774636000004,-0.33551916476,-0.054957982150000015,0.3378636175
03:29:27,-1.1762569399999998,0.342637445,1.599737055,-0.27231643,-0.0317989,-0.22768886,2.2339075499999996,-29.568382925,7.5766094200000005,-131.82121139999998,0.07629913715500002,-0.44795855885,-0.25665259698000004,-0.33671996817999994,-0.055551046825000006,0.33938712125
03:29:27,-1.1840587999999999,0.3450499,1.6095541,-0.2746016,-0.032257,-0.22741719999999999,2.270269,-29.562935500000002,7.5866634,-133.50737800000002,0.07659698110000002,-0.449964837,-0.25776744760000003,-0.3379207716,-0.05614411150000001,0.340910625
03:29:27,-1.19186066,0.347462355,1.6193711450000001,-0.27688677,-0.032715100000000004,-0.22714553999999998,2.30663045,-29.557488075000002,7.596717379999999,-135.1935446,0.07689482504500002,-0.45197111515,-0.25888229822000003,-0.33912157501999995,-0.056737176175000015,0.34243412875
03:29:27,-1.19966252,0.34987481,1.62918819,-0.27917194,-0.03317320000000001,-0.22687387999999997,2.3429918999999995,-29.552040650000002,7.60677136,-136.87971119999997,0.07719266899000002,-0.45397739330000003,-0.25999714884,-0.34032237844,-0.057330240850000005,0.3439576325
03:29:27,-1.20746438,0.352287265,1.639005235,-0.28145711,-0.033631299999999996,-0.22660222,2.3793533499999997,-29.546593225000002,7.61682534,-138.5658778,0.07749051293500002,-0.45598367145,-0.26111199946,-0.34152318185999997,-0.05792330552500001,0.34548113625
03:29:27,-1.2152662399999998,0.35469972,1.64882228,-0.28374228,-0.0340894,-0.22633056,2.4157148,-29.541145800000002,7.6268793200000005,-140.2520444,0.07778835688,-0.4579899496,-0.26222685008,-0.34272398528,-0.058516370200000015,0.34700464000000003
03:29:27,-1.2230680999999999,0.357112175,1.658639325,-0.28602745,-0.0345475,-0.22605889999999998,2.4520762499999993,-29.535698375000003,7.6369333,-141.93821099999997,0.07808620082500001,-0.45999622775000004,-0.2633417007,-0.3439247887,-0.059109434875000005,0.34852814375
03:29:27,-1.23086996,0.35952463,1.6684563700000001,-0.28831262,-0.035005600000000005,-0.22578724,2.4884376999999995,-29.530250950000003,7.646987279999999,-143.6243776,0.07838404477000001,-0.4620025059,-0.26445655132,-0.34512559212,-0.05970249955000001,0.3500516475
03:29:27,-1.23867182,0.361937085,1.678273415,-0.29059779,-0.03546370000000001,-0.22551558,2.5247991499999998,-29.524803525000003,7.65704126,-145.31054419999998,0.07868188871500001,-0.46400878405,-0.26557140194,-0.34632639554,-0.060295564225000015,0.35157515125
03:29:27,-1.2464736799999998,0.36434954,1.68809046,-0.29288296,-0.0359218,-0.22524392,2.5611606,-29.519356100000003,7.66709524,-146.99671079999996,0.07897973266000001,-0.4660150622,-0.26668625256,-0.34752719895999995,-0.060888628900000005,0.353098655
03:29:27,-1.2542755399999999,0.366761995,1.697907505,-0.29516813000000003,-0.0363799,-0.22497225999999998,2.5975220499999994,-29.513908675000003,7.67714922,-148.6828774,0.07927757660500001,-0.46802134035000004,-0.26780110318,-0.34872800238,-0.06148169357500001,0.35462215875
03:29:27,-1.2620774,0.36917445,1.70772455,-0.29745330000000003,-0.036838,-0.22470059999999997,2.6338834999999996,-29.50846125,7.6872032,-150.36904399999997,0.07957542055000001,-0.4700276185,-0.2689159538,-0.34992880579999996,-0.062074758250000014,0.3561456625
03:29:27,-1.26987926,0.371586905,1.7175415950000001,-0.29973847000000003,-0.037296100000000006,-0.22442894,2.67024495,-29.503013825,7.69725718,-152.0552106,0.07987326449500001,-0.47203389665,-0.27003080442,-0.35112960921999997,-0.062667822925,0.35766916625
03:29:27,-1.2776811199999998,0.37399936,1.72735864,-0.30202364000000004,-0.03775420000000001,-0.22415728,2.7066064,-29.4975664,7.70731116,-153.7413772,0.08017110844000001,-0.4740401748,-0.27114565504000004,-0.35233041264,-0.06326088760000001,0.35919267
03:29:27,-1.2854829799999998,0.376411815,1.737175685,-0.30430881,-0.0382123,-0.22388561999999998,2.7429678499999994,-29.492118975,7.71736514,-155.42754379999997,0.08046895238500001,-0.47604645295000003,-0.27226050566000004,-0.35353121606,-0.06385395227500001,0.36071617375
03:29:27,-1.2932848399999999,0.37882427,1.74699273,-0.30659398,-0.0386704,-0.22361395999999997,2.7793292999999997,-29.48667155,7.72741912,-157.1137104,0.08076679633000002,-0.4780527311,-0.27337535628000004,-0.35473201948,-0.06444701695,0.3622396775
03:29:27,-1.3010867,0.381236725,1.756809775,-0.30887915,-0.039128500000000004,-0.2233423,2.81569075,-29.481224125,7.7374731,-158.79987699999998,0.08106464027500002,-0.48005900925,-0.27449020690000003,-0.35593282289999995,-0.06504008162500001,0.36376318125
03:29:27,-1.30888856,0.38364918,1.7666268200000002,-0.31116432,-0.039586600000000007,-0.22307064,2.8520521999999993,-29.4757767,7.74752708,-160.48604360000002,0.08136248422000002,-0.48206528740000004,-0.27560505752000003,-0.35713362632,-0.06563314630000001,0.365286685
03:29:27,-1.3166904199999998,0.386061635,1.776443865,-0.31344949,-0.040044699999999996,-0.22279897999999998,2.8884136499999995,-29.470329275,7.75758106,-162.1722102,0.08166032816500002,-0.48407156555,-0.27671990814,-0.35833442973999996,-0.066226210975,0.36681018875
03:29:27,-1.3244922799999999,0.38847409,1.78626091,-0.31573466,-0.0405028,-0.22252731999999997,2.9247750999999997,-29.46488185,7.76763504,-163.85837679999997,0.08195817211000002,-0.4860778437,-0.27783475876,-0.35953523315999997,-0.06681927565000001,0.36833369250000003
03:29:27,-1.33229414,0.39088654500000003,1.7960779550000001,-0.31801983,-0.0409609,-0.22225565999999997,2.96113655,-29.459434425,7.77768902,-165.5445434,0.08225601605500002,-0.48808412185,-0.27894960938,-0.36073603658,-0.06741234032500001,0.36985719625
03:29:28,-1.340096,0.393299,1.805895,-0.320305,-0.041419,-0.221984,2.997498,-29.453987,7.787743,-167.23071,0.08255386,-0.4900904,-0.28006446,-0.36193684,-0.068005405,0.3713807
03:29:28,-1.33090815,0.38736914,1.794068645,-0.31751379,-0.039778364999999996,-0.21912886499999998,2.99390547,-29.45151599,7.7949144,-167.27088454999998,0.08156164430000001,-0.49166185274999996,-0.27897712915,-0.3580090923,-0.06622308797500001,0.36756902075000003
03:29:28,-1.3217203,0.38143928,1.7822422900000001,-0.31472258000000003,-0.038137729999999995,-0.21627373,2.9903129400000004,-29.44904498,7.8020857999999995,-167.3110591,0.0805694286,-0.4932333055,-0.2778897983,-0.35408134459999996,-0.06444077095,0.3637573415
03:29:28,-1.31253245,0.37550942,1.770415935,-0.31193137,-0.03649709499999999,-0.213418595,2.98672041,-29.446573970000003,7.8092572,-167.35123364999998,0.0795772129,-0.49480475825,-0.27680246745000003,-0.3501535969,-0.06265845392500001,0.35994566225
03:29:28,-1.3033446,0.36957956000000003,1.75858958,-0.30914016,-0.03485646,-0.21056345999999998,2.98312788,-29.444102960000002,7.8164286,-167.3914082,0.0785849972,-0.49637621099999996,-0.2757151366,-0.3462258492,-0.0608761369,0.356133983
03:29:28,-1.29415675,0.3636497,1.746763225,-0.30634895,-0.033215825,-0.207708325,2.9795353500000004,-29.44163195,7.8236,-167.43158275,0.07759278150000001,-0.49794766375,-0.27462780575,-0.34229810149999995,-0.05909381987500001,0.35232230375
03:29:28,-1.2849689,0.35771984,1.73493687,-0.30355774,-0.031575189999999996,-0.20485319,2.97594282,-29.43916094,7.8307714,-167.47175729999998,0.0766005658,-0.49951911649999997,-0.2735404749,-0.33837035379999997,-0.05731150285,0.34851062450000003
03:29:28,-1.27578105,0.35178998,1.7231105150000001,-0.30076653,-0.029934554999999995,-0.20199805499999998,2.97235029,-29.43668993,7.8379427999999995,-167.51193185,0.0756083501,-0.50109056925,-0.27245314405000004,-0.3344426061,-0.05552918582500001,0.34469894525
03:29:28,-1.2665932,0.34586012,1.71128416,-0.29797532,-0.028293919999999997,-0.19914292,2.9687577600000004,-29.434218920000003,7.8451142,-167.55210639999999,0.0746161344,-0.502662022,-0.27136581320000003,-0.3305148584,-0.05374686880000001,0.340887266
03:29:28,-1.25740535,0.33993026,1.699457805,-0.29518411,-0.026653285,-0.196287785,2.96516523,-29.431747910000002,7.8522856,-167.59228095,0.07362391870000001,-0.50423347475,-0.27027848235,-0.32658711069999996,-0.051964551775000006,0.33707558675
03:29:28,-1.2482175,0.3340004,1.68763145,-0.2923929,-0.025012649999999997,-0.19343264999999998,2.9615727,-29.4292769,7.859457,-167.6324555,0.072631703,-0.5058049275,-0.2691911515,-0.322659363,-0.050182234750000006,0.3332639075
03:29:28,-1.23902965,0.32807054,1.675805095,-0.28960169,-0.023372014999999996,-0.19057751499999998,2.9579801700000004,-29.42680589,7.8666284,-167.67263004999998,0.0716394873,-0.50737638025,-0.26810382065,-0.3187316153,-0.048399917725000005,0.32945222825000003
03:29:28,-1.2298418,0.32214068,1.6639787400000001,-0.28681048,-0.021731379999999995,-0.18772238,2.95438764,-29.42433488,7.8737998,-167.7128046,0.0706472716,-0.508947833,-0.26701648980000003,-0.3148038676,-0.046617600700000004,0.325640549
03:29:28,-1.22065395,0.31621082,1.652152385,-0.28401927,-0.020090744999999997,-0.18486724499999999,2.95079511,-29.421863870000003,7.8809712,-167.75297915,0.06965505590000001,-0.5105192857499999,-0.26592915895,-0.31087611989999997,-0.044835283675000004,0.32182886975
03:29:28,-1.2114661,0.31028096,1.64032603,-0.28122806,-0.018450109999999995,-0.18201211,2.9472025800000003,-29.419392860000002,7.8881426,-167.79315369999998,0.0686628402,-0.5120907385,-0.2648418281,-0.3069483722,-0.04305296665000001,0.3180171905
03:29:28,-1.20227825,0.3043511,1.628499675,-0.27843685,-0.016809474999999997,-0.179156975,2.94361005,-29.41692185,7.895314,-167.83332825,0.0676706245,-0.51366219125,-0.26375449725,-0.3030206245,-0.041270649625,0.31420551125
03:29:28,-1.1930904,0.29842124000000003,1.61667332,-0.27564564,-0.015168839999999996,-0.17630184,2.94001752,-29.41445084,7.9024854,-167.87350279999998,0.0666784088,-0.5152336439999999,-0.2626671664,-0.29909287679999996,-0.03948833260000001,0.31039383200000004
03:29:28,-1.18390255,0.29249138,1.6048469650000001,-0.27285443,-0.013528204999999995,-0.17344670499999998,2.9364249900000003,-29.41197983,7.9096568,-167.91367735,0.06568619310000001,-0.51680509675,-0.26157983555000003,-0.2951651291,-0.037706015575,0.30658215275
03:29:28,-1.1747147,0.28656152,1.59302061,-0.27006322,-0.011887569999999997,-0.17059156999999997,2.93283246,-29.409508820000003,7.916828199999999,-167.9538519,0.0646939774,-0.5183765495,-0.2604925047,-0.2912373814,-0.03592369855000001,0.3027704735
03:29:28,-1.16552685,0.28063166,1.581194255,-0.26727201,-0.010246934999999995,-0.167736435,2.92923993,-29.407037810000002,7.9239996,-167.99402644999998,0.0637017617,-0.5199480022499999,-0.25940517385,-0.28730963369999996,-0.03414138152500001,0.29895879425000005
03:29:28,-1.156339,0.2747018,1.5693679,-0.2644808,-0.008606299999999997,-0.16488129999999998,2.9256474000000003,-29.4045668,7.931171,-168.034201,0.062709546,-0.521519455,-0.258317843,-0.28338188599999997,-0.03235906450000001,0.295147115
03:29:28,-1.14715115,0.26877194,1.557541545,-0.26168959,-0.006965664999999996,-0.162026165,2.92205487,-29.40209579,7.9383424,-168.07437554999998,0.061717330300000005,-0.52309090775,-0.25723051215000003,-0.2794541383,-0.030576747475000006,0.29133543575000004
03:29:28,-1.1379633,0.26284208,1.5457151900000001,-0.25889838,-0.0053250299999999945,-0.15917103,2.91846234,-29.39962478,7.9455138,-168.1145501,0.060725114600000005,-0.5246623605,-0.2561431813,-0.27552639059999995,-0.028794430450000005,0.2875237565
03:29:28,-1.12877545,0.25691222,1.533888835,-0.25610717,-0.003684394999999993,-0.15631589499999998,2.9148698100000003,-29.397153770000003,7.9526851999999995,-168.15472465,0.059732898900000005,-0.52623381325,-0.25505585045,-0.27159864289999996,-0.027012113425000005,0.28371207725
03:29:28,-1.1195876,0.25098236,1.52206248,-0.25331596,-0.0020437599999999917,-0.15346075999999997,2.91127728,-29.394682760000002,7.9598566,-168.19489919999998,0.058740683200000005,-0.527805266,-0.2539685196,-0.2676708952,-0.025229796400000004,0.279900398
03:29:28,-1.11039975,0.2450525,1.510236125,-0.25052475,-0.00040312499999999724,-0.150605625,2.90768475,-29.39221175,7.967028,-168.23507375,0.057748467500000004,-0.52937671875,-0.25288118875,-0.26374314749999994,-0.023447479375000004,0.27608871875
03:29:28,-1.1012119,0.23912264,1.49840977,-0.24773354,0.0012375100000000042,-0.14775048999999998,2.9040922200000003,-29.38974074,7.9741994,-168.2752483,0.056756251800000004,-0.5309481715,-0.25179385790000003,-0.25981539979999996,-0.021665162350000003,0.27227703950000004
03:29:28,-1.09202405,0.23319278,1.4865834150000001,-0.24494232999999999,0.0028781450000000056,-0.144895355,2.90049969,-29.38726973,7.9813708,-168.31542285,0.055764036100000004,-0.53251962425,-0.25070652705,-0.2558876521,-0.01988284532500001,0.26846536025
03:29:28,-1.0828362,0.22726292,1.47475706,-0.24215112,0.004518780000000007,-0.14204022,2.89690716,-29.384798720000003,7.9885421999999995,-168.3555974,0.054771820400000004,-0.534091077,-0.2496191962,-0.2519599044,-0.01810052830000001,0.26465368100000003
03:29:28,-1.07364835,0.22133306,1.462930705,-0.23935991,0.006159415000000008,-0.139185085,2.8933146300000003,-29.382327710000002,7.9957136,-168.39577194999998,0.053779604700000004,-0.53566252975,-0.24853186535000002,-0.24803215669999998,-0.016318211275000008,0.26084200175000005
03:29:28,-1.0644605,0.2154032,1.45110435,-0.23656870000000002,0.007800050000000003,-0.13632994999999998,2.8897221,-29.3798567,8.002885,-168.4359465,0.052787389000000004,-0.5372339825,-0.2474445345,-0.24410440899999997,-0.014535894250000007,0.2570303225
03:29:28,-1.05527265,0.20947334,1.439277995,-0.23377749,0.009440685000000004,-0.13347481499999997,2.88612957,-29.37738569,8.0100564,-168.47612105,0.051795173300000004,-0.53880543525,-0.24635720365000002,-0.24017666129999998,-0.012753577225000007,0.25321864325000004
03:29:28,-1.0460848,0.20354348,1.4274516400000001,-0.23098628,0.011081320000000006,-0.13061968,2.8825370400000003,-29.37491468,8.0172278,-168.51629559999998,0.050802957600000004,-0.5403768879999999,-0.2452698728,-0.23624891359999997,-0.010971260200000006,0.249406964
03:29:28,-1.03689695,0.19761362,1.415625285,-0.22819507,0.012721955000000007,-0.127764545,2.87894451,-29.372443670000003,8.0243992,-168.55647015,0.049810741900000004,-0.54194834075,-0.24418254195,-0.23232116589999996,-0.009188943175000006,0.24559528475000003
03:29:28,-1.0277091,0.19168376,1.40379893,-0.22540386,0.014362590000000008,-0.12490940999999998,2.87535198,-29.369972660000002,8.0315706,-168.59664469999998,0.048818526200000004,-0.5435197935,-0.2430952111,-0.22839341819999998,-0.007406626150000005,0.24178360550000003
03:29:28,-1.01852125,0.1857539,1.391972575,-0.22261265,0.016003225000000003,-0.12205427499999999,2.8717594500000003,-29.36750165,8.038742,-168.63681925,0.047826310500000004,-0.5450912462499999,-0.24200788025,-0.22446567049999996,-0.005624309125000004,0.23797192625000002
03:29:28,-1.0093334,0.17982404,1.38014622,-0.21982144,0.017643860000000004,-0.11919913999999998,2.86816692,-29.36503064,8.0459134,-168.6769938,0.0468340948,-0.546662699,-0.24092054940000002,-0.22053792279999998,-0.0038419921000000107,0.23416024700000002
03:29:28,-1.00014555,0.17389418,1.3683198650000001,-0.21703023,0.019284495000000006,-0.11634400499999999,2.86457439,-29.36255963,8.0530848,-168.71716834999998,0.0458418791,-0.54823415175,-0.23983321855,-0.21661017509999997,-0.002059675075000003,0.23034856775000004
03:29:28,-0.9909577,0.16796432,1.35649351,-0.21423902,0.020925130000000007,-0.11348886999999999,2.8609818600000003,-29.360088620000003,8.0602562,-168.7573429,0.0448496634,-0.5498056044999999,-0.2387458877,-0.21268242739999996,-0.00027735805000000946,0.22653688850000003
03:29:28,-0.98176985,0.16203446,1.344667155,-0.21144781,0.022565765,-0.11063373499999998,2.85738933,-29.357617610000002,8.0674276,-168.79751745,0.0438574477,-0.55137705725,-0.23765855685,-0.20875467969999997,0.001504958974999998,0.22272520925000003
03:29:28,-0.9725820000000001,0.15610459999999998,1.3328408,-0.2086566,0.024206400000000003,-0.10777859999999999,2.8537968,-29.3551466,8.074599,-168.837692,0.042865232,-0.55294851,-0.23657122600000002,-0.20482693199999996,0.0032872759999999918,0.21891353000000002
03:29:28,-0.9633941500000001,0.15017474,1.321014445,-0.20586538999999998,0.025847035000000004,-0.104923465,2.8502042700000003,-29.35267559,8.0817704,-168.87786655,0.0418730163,-0.5545199627499999,-0.23548389515,-0.20089918429999998,0.005069593024999999,0.21510185075000002
03:29:28,-0.9542063000000001,0.14424488,1.3091880900000001,-0.20307418,0.027487670000000006,-0.10206832999999998,2.84661174,-29.35020458,8.0889418,-168.91804109999998,0.0408808006,-0.5560914155,-0.2343965643,-0.19697143659999997,0.006851910049999993,0.21129017150000004
03:29:28,-0.9450184500000001,0.13831502,1.297361735,-0.20028297,0.029128305000000007,-0.09921319499999999,2.84301921,-29.347733570000003,8.0961132,-168.95821565,0.0398885849,-0.55766286825,-0.23330923345000001,-0.19304368889999995,0.008634227074999987,0.20747849225000004
03:29:28,-0.9358306000000001,0.13238516,1.28553538,-0.19749176000000002,0.03076894000000001,-0.09635806,2.8394266800000003,-29.345262560000002,8.1032846,-168.9983902,0.0388963692,-0.5592343209999999,-0.2322219026,-0.18911594119999997,0.010416544099999994,0.20366681300000003
03:29:28,-0.9266427500000001,0.1264553,1.273709025,-0.19470055,0.03240957500000001,-0.09350292499999999,2.83583415,-29.34279155,8.110456,-169.03856475,0.0379041535,-0.56080577375,-0.23113457175000002,-0.18518819349999996,0.012198861124999988,0.19985513375000002
03:29:28,-0.9174549000000001,0.12052543999999998,1.2618826699999999,-0.19190934,0.03405021000000001,-0.09064778999999998,2.83224162,-29.34032054,8.1176274,-169.0787393,0.0369119378,-0.5623772265,-0.2300472409,-0.18126044579999998,0.013981178149999995,0.19604345450000002
03:29:28,-0.9082670500000001,0.11459557999999997,1.2500563150000001,-0.18911813,0.03569084500000001,-0.087792655,2.8286490900000003,-29.33784953,8.1247988,-169.11891384999998,0.0359197221,-0.5639486792499999,-0.22895991005,-0.17733269809999996,0.01576349517499999,0.19223177525000004
03:29:28,-0.8990792,0.10866572000000002,1.23822996,-0.18632692,0.037331480000000014,-0.08493751999999999,2.82505656,-29.335378520000003,8.1319702,-169.1590884,0.0349275064,-0.565520132,-0.2278725792,-0.17340495039999998,0.017545812199999997,0.18842009600000004
03:29:28,-0.88989135,0.10273586000000001,1.226403605,-0.18353571,0.038972115,-0.08208238499999998,2.82146403,-29.332907510000002,8.1391416,-169.19926295,0.0339352907,-0.56709158475,-0.22678524835000002,-0.16947720269999997,0.01932812922499999,0.18460841675000003
03:29:28,-0.8807035,0.096806,1.21457725,-0.1807445,0.04061275,-0.07922725,2.8178715000000003,-29.3304365,8.146313,-169.2394375,0.032943075,-0.5686630375,-0.2256979175,-0.16554945499999996,0.021110446249999998,0.18079673750000003
03:29:28,-0.87151565,0.09087614,1.2027508949999999,-0.17795329,0.042253385000000004,-0.07637211499999999,2.81427897,-29.32796549,8.1534844,-169.27961205,0.0319508593,-0.57023449025,-0.22461058665,-0.16162170729999997,0.02289276327499999,0.17698505825000002
03:29:28,-0.8623278,0.08494627999999999,1.1909245400000001,-0.17516208,0.043894020000000006,-0.07351697999999998,2.81068644,-29.32549448,8.1606558,-169.3197866,0.030958643600000002,-0.571805943,-0.22352325580000001,-0.15769395959999996,0.0246750803,0.17317337900000004
03:29:28,-0.85313995,0.07901641999999998,1.179098185,-0.17237087,0.04553465500000001,-0.070661845,2.8070939100000003,-29.323023470000003,8.1678272,-169.35996115,0.029966427900000002,-0.57337739575,-0.22243592495,-0.15376621189999998,0.026457397324999993,0.16936169975000004
03:29:28,-0.8439521,0.07308655999999997,1.16727183,-0.16957966,0.04717529000000001,-0.06780670999999999,2.80350138,-29.320552460000002,8.1749986,-169.4001357,0.028974212200000002,-0.5749488484999999,-0.22134859410000002,-0.14983846419999997,0.028239714349999986,0.16555002050000003
03:29:28,-0.83476425,0.06715670000000001,1.155445475,-0.16678845,0.04881592500000001,-0.06495157499999998,2.79990885,-29.31808145,8.18217,-169.44031024999998,0.027981996500000002,-0.57652030125,-0.22026126325,-0.14591071649999995,0.030022031374999994,0.16173834125000003
