Timestamp,linacce_x,linacce_y,linacce_z,gyro_x,gyro_y,gyro_z,X-magnetometer,Y-magnetometer,Z-magnetometer,Yaw, worldXAccel,worldYAccel,worldZAccel,worldXgyro,worldYgyro,worldZgyro
03:30:30,-0.167271,-0.020845,-0.521085,0.332753,-0.076575,-0.51602,-0.298206,-30.0625,-1.449326,178.99141,-0.48354167,-0.010325073,0.4891492,-0.12162869,-0.05091952,0.13582128
03:30:30,-0.17591011,-0.014419365,-0.51781899,0.332007255,-0.07727813,-0.513788095,-0.28533388000000004,-30.064369085,-1.4484060449999998,177.22217635,-0.48865814965,-0.0062330928350000005,0.4933120605,-0.12038873805,-0.051454407,0.13467270342499998
03:30:30,-0.18454922,-0.00799373,-0.51455298,0.33126151000000004,-0.07798126000000001,-0.5115561900000001,-0.27246176,-30.06623817,-1.44748609,175.4529427,-0.4937746293,-0.0021411126700000005,0.497474921,-0.1191487861,-0.051989294000000005,0.13352412684999998
03:30:30,-0.19318833000000002,-0.0015680949999999985,-0.51128697,0.330515765,-0.07868439,-0.509324285,-0.25958964,-30.068107255,-1.4465661349999999,173.68370905,-0.49889110895,0.0019508674949999995,0.5016377815,-0.11790883415,-0.052524181,0.13237555027499998
03:30:30,-0.20182744,0.0048575400000000005,-0.50802096,0.32977002,-0.07938752,-0.50709238,-0.24671752000000002,-30.06997634,-1.44564618,171.91447540000001,-0.5040075886,0.00604284766,0.505800642,-0.11666888219999999,-0.053059068,0.1312269737
03:30:30,-0.21046655,0.011283175000000003,-0.50475495,0.32902427500000003,-0.08009065,-0.5048604750000001,-0.23384540000000004,-30.071845425,-1.444726225,170.14524175,-0.50912406825,0.010134827825000001,0.5099635025,-0.11542893024999999,-0.053593955000000006,0.130078397125
03:30:30,-0.21910566,0.017708810000000002,-0.50148894,0.32827853,-0.08079378000000001,-0.50262857,-0.22097328000000002,-30.07371451,-1.4438062699999998,168.3760081,-0.5142405479,0.01422680799,0.514126363,-0.1141889783,-0.054128842,0.12892982055
03:30:30,-0.22774477,0.024134445,-0.49822293,0.327532785,-0.08149691,-0.500396665,-0.20810116,-30.075583595,-1.442886315,166.60677445,-0.51935702755,0.018318788154999998,0.5182892235000001,-0.11294902635,-0.054663729,0.127781243975
03:30:30,-0.23638388,0.03056008,-0.49495692,0.32678704000000003,-0.08220004,-0.49816476000000004,-0.19522904000000002,-30.07745268,-1.44196636,164.8375408,-0.5244735072,0.02241076832,0.522452084,-0.1117090744,-0.055198616000000006,0.12663266739999998
03:30:30,-0.24502299,0.036985715,-0.49169091000000004,0.326041295,-0.08290317,-0.49593285500000006,-0.18235692000000003,-30.079321765,-1.4410464049999998,163.06830715,-0.52958998685,0.026502748485,0.5266149445,-0.11046912245,-0.055733503000000004,0.12548409082499998
03:30:30,-0.2536621,0.04341135,-0.4884249,0.32529555000000004,-0.08360630000000001,-0.49370095,-0.16948480000000002,-30.08119085,-1.44012645,161.2990735,-0.5347064665,0.030594728650000003,0.530777805,-0.1092291705,-0.05626839,0.12433551424999999
03:30:30,-0.26230121,0.049836985,-0.48515889,0.324549805,-0.08430943,-0.49146904500000005,-0.15661268,-30.083059935,-1.4392064949999999,159.52983985,-0.53982294615,0.034686708814999995,0.5349406655,-0.10798921855,-0.056803277,0.123186937675
03:30:30,-0.27094032,0.05626262,-0.48189288,0.32380406,-0.08501256,-0.48923714,-0.14374056000000002,-30.08492902,-1.43828654,157.7606062,-0.5449394258,0.03877868898,0.539103526,-0.1067492666,-0.057338164000000004,0.12203836109999999
03:30:30,-0.27957943,0.062688255,-0.47862687000000004,0.32305831500000004,-0.08571569000000001,-0.48700523500000004,-0.13086844000000003,-30.086798105,-1.437366585,155.99137255,-0.55005590545,0.042870669145,0.5432663865,-0.10550931464999999,-0.057873051,0.12088978452499999
03:30:30,-0.28821854,0.06911389,-0.47536086,0.32231257,-0.08641882000000001,-0.48477333,-0.11799632000000002,-30.08866719,-1.4364466299999998,154.2221389,-0.5551723851,0.04696264930999999,0.5474292470000001,-0.10426936269999999,-0.058407938,0.11974120794999998
03:30:30,-0.29685765,0.075539525,-0.47209485,0.321566825,-0.08712195,-0.482541425,-0.1051242,-30.090536275,-1.435526675,152.45290525000001,-0.56028886475,0.051054629475,0.5515921075,-0.10302941075,-0.058942825000000004,0.118592631375
03:30:30,-0.30549676000000003,0.08196516,-0.46882884,0.32082108000000004,-0.08782508,-0.48030952000000005,-0.09225208000000001,-30.09240536,-1.43460672,150.6836716,-0.5654053444,0.05514660964,0.555754968,-0.1017894588,-0.059477712,0.11744405479999999
03:30:30,-0.31413587,0.088390795,-0.46556283000000004,0.320075335,-0.08852821000000001,-0.478077615,-0.07937996000000003,-30.094274445,-1.4336867649999998,148.91443795,-0.57052182405,0.05923858980499999,0.5599178285,-0.10054950685,-0.060012599,0.11629547822499998
03:30:30,-0.32277498000000004,0.09481643,-0.46229682,0.31932959,-0.08923134,-0.47584571000000003,-0.06650784000000001,-30.09614353,-1.43276681,147.1452043,-0.5756383037,0.06333056997,0.5640806890000001,-0.0993095549,-0.060547486,0.11514690165
03:30:30,-0.33141409,0.10124206499999999,-0.45903081,0.31858384500000003,-0.08993447,-0.47361380500000005,-0.05363572,-30.098012615,-1.4318468549999999,145.37597065,-0.58075478335,0.067422550135,0.5682435495,-0.09806960295,-0.061082373,0.11399832507499999
03:30:30,-0.3400532,0.1076677,-0.4557648,0.3178381,-0.09063760000000001,-0.4713819,-0.04076360000000001,-30.0998817,-1.4309269,143.606737,-0.585871263,0.0715145303,0.57240641,-0.09682965099999999,-0.06161726,0.11284974849999999
03:30:30,-0.34869231,0.11409333499999999,-0.45249879000000004,0.317092355,-0.09134073000000001,-0.46914999500000004,-0.027891480000000024,-30.101750785,-1.430006945,141.83750335000002,-0.59098774265,0.075606510465,0.5765692705000001,-0.09558969905,-0.062152147000000005,0.11170117192499998
03:30:30,-0.35733142,0.12051897,-0.44923278,0.31634661000000003,-0.09204386,-0.46691809,-0.015019359999999982,-30.10361987,-1.4290869899999998,140.0682697,-0.5961042223,0.07969849063,0.580732131,-0.09434974709999999,-0.062687034,0.11055259534999999
03:30:30,-0.36597053,0.126944605,-0.44596677,0.315600865,-0.09274699,-0.46468618500000003,-0.0021472399999999947,-30.105488955,-1.428167035,138.29903605,-0.60122070195,0.083790470795,0.5848949915,-0.09310979515,-0.063221921,0.10940401877499999
03:30:30,-0.37460964,0.13337024,-0.44270076,0.31485512000000004,-0.09345012,-0.46245428000000005,0.010724879999999992,-30.10735804,-1.42724708,136.5298024,-0.6063371816,0.08788245096,0.589057852,-0.0918698432,-0.063756808,0.1082554422
03:30:30,-0.38324875,0.13979587499999999,-0.43943475,0.314109375,-0.09415325000000001,-0.460222375,0.02359699999999998,-30.109227125,-1.4263271249999998,134.76056875,-0.61145366125,0.09197443112499999,0.5932207125,-0.09062989125,-0.064291695,0.10710686562499999
03:30:30,-0.39188786,0.14622151,-0.43616874,0.31336363,-0.09485638,-0.45799047000000004,0.036469119999999966,-30.11109621,-1.42540717,132.99133510000001,-0.6165701409,0.09606641129,0.597383573,-0.0893899393,-0.064826582,0.10595828904999999
03:30:30,-0.40052697000000004,0.15264714499999998,-0.43290273,0.31261788500000004,-0.09555951000000001,-0.455758565,0.04934124000000001,-30.112965295,-1.4244872149999999,131.22210145,-0.62168662055,0.100158391455,0.6015464335,-0.08814998734999999,-0.065361469,0.10480971247499998
03:30:30,-0.40916608,0.15907278,-0.42963672,0.31187214,-0.09626264000000001,-0.45352666,0.062213359999999995,-30.11483438,-1.42356726,129.4528678,-0.6268031002000001,0.10425037161999999,0.6057092940000001,-0.0869100354,-0.065896356,0.10366113589999999
03:30:30,-0.41780519,0.16549841499999998,-0.42637071000000004,0.311126395,-0.09696577,-0.45129475500000005,0.07508547999999998,-30.116703465,-1.422647305,127.68363415,-0.63191957985,0.108342351785,0.6098721545,-0.08567008344999999,-0.066431243,0.10251255932499999
03:30:30,-0.4264443,0.17192405,-0.4231047,0.31038065000000004,-0.0976689,-0.44906285,0.08795760000000002,-30.11857255,-1.4217273499999998,125.9144005,-0.6370360595,0.11243433195,0.614035015,-0.08443013149999999,-0.06696613,0.10136398275
03:30:30,-0.43508341,0.17834968499999998,-0.41983869,0.309634905,-0.09837203,-0.44683094500000003,0.10082972000000001,-30.120441635,-1.420807395,124.14516685000001,-0.64215253915,0.11652631211499999,0.6181978755,-0.08319017954999999,-0.067501017,0.100215406175
03:30:30,-0.44372252,0.18477532,-0.41657268000000003,0.30888916,-0.09907516000000001,-0.44459904000000006,0.11370184,-30.12231072,-1.41988744,122.3759332,-0.6472690188,0.12061829228,0.6223607360000001,-0.0819502276,-0.06803590400000001,0.09906682959999999
03:30:30,-0.45236163,0.191200955,-0.41330667,0.30814341500000003,-0.09977829,-0.442367135,0.12657395999999999,-30.124179805,-1.418967485,120.60669955,-0.65238549845,0.124710272445,0.6265235965,-0.08071027565,-0.068570791,0.09791825302499998
03:30:30,-0.46100074,0.19762659,-0.41004066,0.30739767,-0.10048142,-0.44013523000000004,0.13944607999999997,-30.12604889,-1.41804753,118.83746590000001,-0.6575019781,0.12880225261,0.630686457,-0.0794703237,-0.069105678,0.09676967644999998
03:30:30,-0.46963985,0.204052225,-0.40677465,0.306651925,-0.10118455000000001,-0.437903325,0.15231820000000001,-30.127917975,-1.4171275749999999,117.06823225000001,-0.6626184577500001,0.132894232775,0.6348493175000001,-0.07823037175,-0.069640565,0.09562109987499999
03:30:30,-0.47827896000000003,0.21047786,-0.40350864000000003,0.30590618,-0.10188768000000001,-0.43567142000000003,0.16519032,-30.129787059999998,-1.41620762,115.2989986,-0.6677349374,0.13698621294000002,0.639012178,-0.07699041979999999,-0.070175452,0.09447252329999999
03:30:30,-0.48691807000000004,0.216903495,-0.40024263000000004,0.305160435,-0.10259081,-0.433439515,0.17806244,-30.131656145,-1.415287665,113.52976495,-0.67285141705,0.141078193105,0.6431750385,-0.07575046785,-0.070710339,0.093323946725
03:30:30,-0.49555718,0.22332913,-0.39697662,0.30441469,-0.10329394,-0.43120761,0.19093456000000003,-30.13352523,-1.4143677099999998,111.76053130000001,-0.6779678967,0.14517017327,0.647337899,-0.07451051589999999,-0.071245226,0.09217537014999999
03:30:30,-0.50419629,0.22975476499999997,-0.39371061,0.303668945,-0.10399707000000001,-0.42897570500000004,0.20380667999999996,-30.135394315,-1.413447755,109.99129765,-0.6830843763500001,0.14926215343500002,0.6515007595,-0.07327056394999999,-0.071780113,0.09102679357499999
03:30:30,-0.5128353999999999,0.2361804,-0.39044460000000003,0.3029232,-0.10470020000000001,-0.4267438,0.2166788,-30.1372634,-1.4125278,108.222064,-0.688200856,0.15335413360000003,0.65566362,-0.072030612,-0.072315,0.08987821699999998
03:30:30,-0.52147451,0.242606035,-0.38717859,0.30217745500000004,-0.10540333,-0.42451189500000003,0.22955092000000005,-30.139132485,-1.411607845,106.45283035000001,-0.69331733565,0.157446113765,0.6598264805,-0.07079066005,-0.072849887,0.08872964042499999
03:30:30,-0.5301136200000001,0.24903166999999998,-0.38391258,0.30143171,-0.10610646000000001,-0.42227999000000005,0.24242303999999998,-30.14100157,-1.41068789,104.68359670000001,-0.6984338153,0.16153809393000002,0.6639893410000001,-0.0695507081,-0.073384774,0.08758106384999999
03:30:30,-0.53875273,0.25545730499999997,-0.38064657,0.300685965,-0.10680959000000001,-0.420048085,0.25529516,-30.142870655,-1.4097679349999999,102.91436305,-0.70355029495,0.16563007409500002,0.6681522015000001,-0.06831075614999998,-0.073919661,0.086432487275
03:30:30,-0.54739184,0.26188294,-0.37738056,0.29994022000000004,-0.10751272,-0.41781618000000004,0.26816728000000006,-30.14473974,-1.40884798,101.1451294,-0.7086667746,0.16972205426,0.672315062,-0.0670708042,-0.07445454800000001,0.08528391069999999
03:30:30,-0.55603095,0.268308575,-0.37411455000000005,0.299194475,-0.10821585,-0.41558427500000006,0.2810394,-30.146608825,-1.407928025,99.37589575000001,-0.71378325425,0.173814034425,0.6764779225,-0.06583085224999999,-0.074989435,0.08413533412499999
03:30:30,-0.5646700600000001,0.27473421,-0.37084854,0.29844873,-0.10891898,-0.41335237,0.29391152000000004,-30.14847791,-1.4070080699999998,97.60666210000001,-0.7188997339000001,0.17790601459000002,0.6806407830000001,-0.06459090029999999,-0.075524322,0.08298675754999998
03:30:30,-0.57330917,0.28115984499999996,-0.36758253,0.29770298500000003,-0.10962211000000001,-0.41112046500000005,0.30678363999999997,-30.150346995,-1.406088115,95.83742845,-0.72401621355,0.181997994755,0.6848036435,-0.06335094834999999,-0.076059209,0.08183818097499998
03:30:30,-0.58194828,0.28758548,-0.36431652000000003,0.29695724,-0.11032524,-0.40888856,0.31965576,-30.15221608,-1.4051681599999999,94.06819480000001,-0.7291326932,0.18608997492,0.688966504,-0.06211099639999999,-0.076594096,0.08068960439999999
03:30:30,-0.59058739,0.294011115,-0.36105051,0.296211495,-0.11102837000000002,-0.40665665500000003,0.33252788000000005,-30.154085165,-1.404248205,92.29896115000001,-0.73424917285,0.19018195508500002,0.6931293645000001,-0.060871044449999995,-0.077128983,0.079541027825
03:30:30,-0.5992265,0.30043675,-0.3577845,0.29546575,-0.11173150000000001,-0.40442475,0.3454,-30.15595425,-1.40332825,90.5297275,-0.7393656525000001,0.19427393525,0.697292225,-0.059631092499999996,-0.07766387,0.07839245125
03:30:30,-0.60786561,0.306862385,-0.35451849,0.294720005,-0.11243463000000001,-0.402192845,0.35827212,-30.157823335,-1.4024082949999999,88.76049385,-0.74448213215,0.198365915415,0.7014550855,-0.05839114055,-0.07819875700000001,0.07724387467499999
03:30:30,-0.61650472,0.31328802,-0.35125248,0.29397426000000004,-0.11313776,-0.39996094000000004,0.37114423999999996,-30.15969242,-1.40148834,86.99126020000001,-0.7495986118,0.20245789558000002,0.705617946,-0.0571511886,-0.07873364399999999,0.07609529809999999
03:30:30,-0.6251438300000001,0.319713655,-0.34798647000000005,0.293228515,-0.11384089,-0.397729035,0.38401636,-30.161561504999998,-1.400568385,85.22202655000001,-0.75471509145,0.206549875745,0.7097808065,-0.05591123664999999,-0.079268531,0.07494672152499998
03:30:30,-0.63378294,0.32613928999999997,-0.34472046,0.29248277,-0.11454402000000001,-0.39549713000000003,0.39688848000000004,-30.16343059,-1.39964843,83.4527929,-0.7598315711000001,0.21064185591,0.713943667,-0.05467128469999999,-0.079803418,0.07379814494999999
03:30:30,-0.64242205,0.332564925,-0.34145445,0.291737025,-0.11524715,-0.39326522500000005,0.4097606,-30.165299675,-1.398728475,81.68355925,-0.76494805075,0.21473383607500002,0.7181065275,-0.05343133274999999,-0.080338305,0.07264956837499999
03:30:30,-0.65106116,0.33899056,-0.33818844000000003,0.29099128,-0.11595028000000002,-0.39103332,0.42263272,-30.16716876,-1.3978085199999999,79.91432560000001,-0.7700645304,0.21882581624,0.7222693880000001,-0.05219138079999999,-0.080873192,0.0715009918
03:30:30,-0.6597002700000001,0.345416195,-0.33492243,0.290245535,-0.11665341000000001,-0.388801415,0.43550484000000006,-30.169037845,-1.396888565,78.14509195000001,-0.7751810100500001,0.222917796405,0.7264322485000001,-0.050951428849999994,-0.081408079,0.07035241522499999
03:30:30,-0.6683393799999999,0.35184182999999997,-0.33165642,0.28949979000000003,-0.11735654000000001,-0.38656951000000006,0.44837696,-30.17090693,-1.39596861,76.3758583,-0.7802974897,0.22700977657000002,0.730595109,-0.049711476899999996,-0.081942966,0.06920383864999999
03:30:30,-0.67697849,0.358267465,-0.32839041,0.288754045,-0.11805967,-0.384337605,0.46124908000000003,-30.172776015,-1.3950486549999999,74.60662465000001,-0.78541396935,0.23110175673500002,0.7347579695,-0.04847152495,-0.08247785299999999,0.06805526207499998
03:30:30,-0.6856176,0.3646931,-0.3251244,0.2880083,-0.1187628,-0.3821057,0.4741212000000001,-30.1746451,-1.3941287,72.83739100000001,-0.790530449,0.2351937369,0.7389208300000001,-0.047231572999999985,-0.08301274,0.0669066855
03:30:30,-0.6942567100000001,0.371118735,-0.32185839000000005,0.28726255500000003,-0.11946593,-0.379873795,0.48699332,-30.176514185,-1.393208745,71.06815735,-0.7956469286500001,0.23928571706500001,0.7430836905,-0.04599162104999999,-0.083547627,0.06575810892499999
03:30:30,-0.70289582,0.37754436999999996,-0.31859238,0.28651681,-0.12016906000000001,-0.37764189000000004,0.49986544000000005,-30.17838327,-1.39228879,69.2989237,-0.8007634083,0.24337769723,0.747246551,-0.04475166909999999,-0.084082514,0.06460953234999998
03:30:30,-0.71153493,0.383970005,-0.31532637,0.285771065,-0.12087219,-0.375409985,0.5127375599999999,-30.180252355,-1.391368835,67.52969005000001,-0.80587988795,0.247469677395,0.7514094115000001,-0.04351171714999999,-0.08461740100000001,0.063460955775
03:30:30,-0.7201740400000001,0.39039564,-0.31206036000000004,0.28502532,-0.12157532000000001,-0.37317808,0.5256096800000001,-30.18212144,-1.3904488799999999,65.76045640000001,-0.8109963676,0.25156165756,0.755572272,-0.04227176519999999,-0.08515228799999999,0.06231237919999999
03:30:30,-0.7288131499999999,0.396821275,-0.30879435,0.284279575,-0.12227845000000001,-0.37094617500000004,0.5384818,-30.183990525,-1.389528925,63.991222750000006,-0.8161128472500001,0.255653637725,0.7597351325,-0.04103181324999999,-0.085687175,0.061163802624999986
03:30:30,-0.73745226,0.40324691,-0.30552834,0.28353383,-0.12298158000000001,-0.36871427,0.5513539199999999,-30.18585961,-1.38860897,62.221989100000016,-0.8212293269000001,0.25974561789,0.763897993,-0.039791861299999995,-0.086222062,0.060015226049999995
03:30:30,-0.74609137,0.409672545,-0.30226233,0.282788085,-0.12368471,-0.36648236500000003,0.5642260400000001,-30.187728695,-1.3876890149999999,60.45275545000001,-0.82634580655,0.263837598055,0.7680608535,-0.038551909349999997,-0.086756949,0.05886664947499999
03:30:30,-0.7547304800000001,0.41609818,-0.29899632,0.28204234,-0.12438784,-0.36425046000000005,0.57709816,-30.18959778,-1.38676906,58.68352180000001,-0.8314622862000001,0.26792957821999996,0.7722237140000001,-0.0373119574,-0.087291836,0.057718072899999986
03:30:30,-0.7633695899999999,0.42252381499999997,-0.29573031,0.28129659500000004,-0.12509097000000002,-0.362018555,0.58997028,-30.191466865,-1.385849105,56.914288150000004,-0.8365787658500001,0.272021558385,0.7763865745,-0.036072005449999986,-0.087826723,0.056569496324999996
03:30:30,-0.7720087,0.42894945,-0.2924643,0.28055085,-0.12579410000000002,-0.35978665,0.6028424000000001,-30.193335949999998,-1.38492915,55.145054500000015,-0.8416952455000001,0.27611353855,0.7805494350000001,-0.03483205349999999,-0.08836161000000001,0.05542091974999999
03:30:30,-0.78064781,0.435375085,-0.28919828999999997,0.279805105,-0.12649723000000002,-0.35755474500000006,0.61571452,-30.195205035,-1.384009195,53.37582085000001,-0.84681172515,0.280205518715,0.7847122955000001,-0.03359210154999999,-0.08889649699999999,0.05427234317499999
03:30:30,-0.7892869200000001,0.44180072,-0.28593228000000004,0.27905936000000003,-0.12720036,-0.35532284000000003,0.62858664,-30.19707412,-1.3830892399999999,51.60658720000001,-0.8519282048000001,0.28429749888,0.788875156,-0.03235214959999999,-0.089431384,0.05312376659999998
03:30:30,-0.79792603,0.44822635499999997,-0.28266627,0.278313615,-0.12790349,-0.353090935,0.6414587600000001,-30.198943205,-1.382169285,49.83735355000002,-0.85704468445,0.288389479045,0.7930380165,-0.031112197649999992,-0.089966271,0.05197519002499999
03:30:30,-0.80656514,0.45465199,-0.27940026,0.27756787,-0.12860662,-0.35085903,0.6543308800000001,-30.20081229,-1.38124933,48.0681199,-0.8621611641,0.29248145920999996,0.7972008770000001,-0.029872245699999994,-0.090501158,0.05082661344999999
03:30:30,-0.8152042500000001,0.461077625,-0.27613425,0.27682212500000003,-0.12930975,-0.34862712500000004,0.667203,-30.202681375,-1.380329375,46.29888625000001,-0.86727764375,0.29657343937499997,0.8013637375,-0.028632293749999996,-0.091036045,0.049678036874999984
03:30:30,-0.8238433599999999,0.46750326,-0.27286824,0.27607638,-0.13001288,-0.34639522,0.6800751200000001,-30.20455046,-1.37940942,44.52965260000002,-0.8723941234000001,0.30066541954,0.805526598,-0.027392341799999984,-0.091570932,0.048529460299999994
03:30:30,-0.83248247,0.47392889499999996,-0.26960223,0.275330635,-0.13071601,-0.344163315,0.6929472400000001,-30.206419545,-1.378489465,42.76041895,-0.8775106030500001,0.304757399705,0.8096894585000001,-0.026152389849999985,-0.092105819,0.04738088372499999
03:30:30,-0.84112158,0.48035452999999995,-0.26633622,0.27458489,-0.13141914000000002,-0.34193141000000005,0.70581936,-30.20828863,-1.37756951,40.99118530000001,-0.8826270827,0.30884937987,0.813852319,-0.024912437899999987,-0.09264070599999999,0.046232307149999985
03:30:30,-0.8497606900000001,0.486780165,-0.26307021,0.273839145,-0.13212227,-0.339699505,0.7186914800000002,-30.210157715,-1.376649555,39.22195165000002,-0.8877435623500001,0.312941360035,0.8180151795000001,-0.02367248594999999,-0.093175593,0.045083730574999994
03:30:30,-0.8583997999999999,0.4932058,-0.2598042,0.27309340000000004,-0.1328254,-0.33746760000000003,0.7315636000000001,-30.2120268,-1.3757295999999999,37.452718000000004,-0.8928600420000001,0.3170333402,0.82217804,-0.02243253399999999,-0.09371048,0.04393515399999999
03:30:30,-0.86703891,0.49963143499999996,-0.25653819,0.272347655,-0.13352853,-0.33523569500000006,0.74443572,-30.213895885,-1.374809645,35.683484350000015,-0.8979765216500001,0.32112532036499997,0.8263409005,-0.02119258204999999,-0.094245367,0.042786577424999986
03:30:30,-0.8756780200000001,0.50605707,-0.25327218,0.27160191,-0.13423166,-0.33300379,0.7573078400000002,-30.21576497,-1.37388969,33.914250700000025,-0.9030930013,0.32521730053,0.8305037610000001,-0.019952630099999993,-0.09478025400000001,0.041638000849999995
03:30:30,-0.8843171300000001,0.512482705,-0.25000617,0.270856165,-0.13493479,-0.330771885,0.7701799600000001,-30.217634054999998,-1.3729697349999999,32.14501705000001,-0.9082094809500001,0.329309280695,0.8346666215,-0.018712678149999995,-0.09531514099999999,0.04048942427499999
03:30:30,-0.89295624,0.51890834,-0.24674016,0.27011042,-0.13563792000000002,-0.32853998,0.78305208,-30.21950314,-1.37204978,30.375783400000017,-0.9133259606,0.33340126086,0.8388294820000001,-0.017472726199999997,-0.095850028,0.03934084769999999
03:30:30,-0.90159535,0.525333975,-0.24347415,0.269364675,-0.13634105000000002,-0.32630807500000003,0.7959242000000002,-30.221372225,-1.371129825,28.60654975,-0.91844244025,0.337493241025,0.8429923425000001,-0.016232774249999984,-0.096384915,0.038192271124999996
03:30:30,-0.9102344600000001,0.5317596099999999,-0.24020814000000001,0.26861893000000003,-0.13704418000000002,-0.32407617,0.8087963200000001,-30.22324131,-1.37020987,26.83731610000001,-0.9235589199,0.34158522119,0.847155203,-0.014992822299999986,-0.096919802,0.03704369454999999
03:30:30,-0.9188735699999999,0.538185245,-0.23694213000000003,0.267873185,-0.13774731,-0.321844265,0.82166844,-30.225110394999998,-1.369289915,25.06808245000002,-0.9286753995500001,0.34567720135499996,0.8513180635,-0.013752870349999988,-0.097454689,0.03589511797499999
03:30:30,-0.92751268,0.54461088,-0.23367612,0.26712744,-0.13845044,-0.31961236000000004,0.8345405600000002,-30.22697948,-1.3683699599999999,23.298848800000002,-0.9337918792000001,0.34976918151999997,0.8554809240000001,-0.01251291839999999,-0.097989576,0.0347465414
03:30:30,-0.93615179,0.551036515,-0.23041011,0.26638169500000003,-0.13915357,-0.317380455,0.8474126800000001,-30.228848565,-1.367450005,21.529615150000012,-0.93890835885,0.353861161685,0.8596437845,-0.011272966449999991,-0.098524463,0.03359796482499999
03:30:30,-0.9447909000000001,0.55746215,-0.22714410000000002,0.26563595,-0.1398567,-0.31514855,0.8602848000000001,-30.23071765,-1.36653005,19.760381500000022,-0.9440248385000001,0.35795314185,0.863806645,-0.010033014499999993,-0.09905934999999999,0.03244938824999999
03:30:30,-0.9534300099999999,0.563887785,-0.22387809000000003,0.264890205,-0.14055983,-0.31291664500000005,0.87315692,-30.232586734999998,-1.365610095,17.991147850000004,-0.9491413181500001,0.362045122015,0.8679695055000001,-0.008793062549999994,-0.099594237,0.031300811674999984
03:30:30,-0.96206912,0.57031342,-0.22061208,0.26414446,-0.14126296,-0.31068474,0.8860290400000002,-30.23445582,-1.36469014,16.221914200000015,-0.9542577978000001,0.36613710218,0.872132366,-0.007553110599999982,-0.100129124,0.030152235099999994
03:30:30,-0.9707082300000001,0.576739055,-0.21734607,0.263398715,-0.14196609,-0.308452835,0.8989011600000001,-30.236324905,-1.363770185,14.452680550000025,-0.95937427745,0.37022908234499996,0.8762952265000001,-0.006313158649999984,-0.100664011,0.02900365852499999
03:30:30,-0.9793473400000001,0.5831646899999999,-0.21408006000000002,0.26265297,-0.14266922,-0.30622093000000006,0.91177328,-30.23819399,-1.36285023,12.683446900000007,-0.9644907571000001,0.37432106250999997,0.8804580870000001,-0.005073206699999985,-0.101198898,0.027855081949999985
03:30:30,-0.98798645,0.589590325,-0.21081405000000003,0.261907225,-0.14337235,-0.303989025,0.9246454000000002,-30.240063075,-1.361930275,10.914213250000017,-0.9696072367500002,0.378413042675,0.8846209475000001,-0.003833254749999987,-0.101733785,0.026706505374999995
03:30:30,-0.99662556,0.59601596,-0.20754804,0.26116148,-0.14407548,-0.30175712,0.9375175200000001,-30.24193216,-1.36101032,9.144979600000028,-0.9747237164,0.38250502284,0.8887838080000001,-0.0025933027999999886,-0.102268672,0.02555792879999999
03:30:30,-1.00526467,0.6024415949999999,-0.20428203,0.26041573500000004,-0.14477861000000003,-0.299525215,0.95038964,-30.243801245,-1.360090365,7.3757459500000095,-0.9798401960500001,0.386597003005,0.8929466685,-0.0013533508499999902,-0.10280355899999999,0.024409352224999986
03:30:30,-1.01390378,0.60886723,-0.20101602000000002,0.25966999,-0.14548174000000003,-0.29729331000000003,0.9632617600000002,-30.24567033,-1.35917041,5.60651230000002,-0.9849566757000001,0.39068898317,0.8971095290000001,-0.00011339889999999186,-0.103338446,0.023260775649999996
03:30:30,-1.02254289,0.615292865,-0.19775000999999998,0.258924245,-0.14618487000000002,-0.295061405,0.9761338800000001,-30.247539415,-1.358250455,3.837278650000002,-0.9900731553500002,0.394780963335,0.9012723895000001,0.0011265530500000065,-0.103873333,0.02211219907499999
03:30:30,-1.031182,0.6217185,-0.194484,0.2581785,-0.14688800000000002,-0.2928295,0.989006,-30.2494085,-1.3573305,2.068045000000012,-0.995189635,0.39887294349999997,0.90543525,0.002366505000000005,-0.10440822,0.020963622499999987
03:30:30,-1.03982111,0.628144135,-0.19121799,0.257432755,-0.14759113000000001,-0.29059759500000004,1.0018781200000002,-30.251277585,-1.356410545,0.29881135000002246,-1.00030611465,0.402964923665,0.9095981105000001,0.003606456950000017,-0.10494310700000001,0.019815045924999997
03:30:30,-1.04846022,0.63456977,-0.18795198000000002,0.25668701,-0.14829426,-0.28836569,1.0147502400000001,-30.25314667,-1.35549059,-1.4704222999999956,-1.0054225943000001,0.40705690383,0.9137609710000001,0.004846408900000002,-0.10547799399999999,0.018666469349999992
03:30:30,-1.05709933,0.640995405,-0.18468596999999998,0.25594126500000003,-0.14899739,-0.28613378500000003,1.02762236,-30.255015755,-1.354570635,-3.2396559499999853,-1.01053907395,0.411148883995,0.9179238315,0.006086360850000014,-0.106012881,0.017517892774999988
03:30:30,-1.06573844,0.64742104,-0.18141996,0.25519552,-0.14970052,-0.28390188000000005,1.04049448,-30.256884839999998,-1.3536506799999999,-5.008889599999975,-1.0156555536,0.41524086416,0.9220866920000002,0.007326312799999998,-0.10654776799999999,0.016369316199999984
03:30:30,-1.0743775500000001,0.6538466749999999,-0.17815395,0.254449775,-0.15040365,-0.281669975,1.0533666000000002,-30.258753925,-1.352730725,-6.778123249999993,-1.02077203325,0.419332844325,0.9262495525000001,0.00856626475000001,-0.107082655,0.015220739624999993
03:30:30,-1.08301666,0.66027231,-0.17488794000000002,0.25370403,-0.15110678,-0.27943807,1.06623872,-30.26062301,-1.35181077,-8.547356899999983,-1.0258885129000002,0.42342482448999996,0.930412413,0.009806216700000023,-0.107617542,0.014072163049999989
03:30:30,-1.09165577,0.666697945,-0.17162192999999998,0.252958285,-0.15180991,-0.277206165,1.07911084,-30.262492095,-1.350890815,-10.316590549999972,-1.03100499255,0.42751680465499997,0.9345752735000001,0.011046168650000007,-0.108152429,0.012923586474999985
03:30:30,-1.10029488,0.6731235799999999,-0.16835592,0.25221254000000004,-0.15251304000000002,-0.27497426,1.0919829600000002,-30.264361179999998,-1.34997086,-12.08582419999999,-1.0361214722,0.43160878482,0.9387381340000001,0.01228612060000002,-0.108687316,0.011775009899999994
03:30:30,-1.10893399,0.679549215,-0.16508991,0.251466795,-0.15321617,-0.272742355,1.10485508,-30.266230265,-1.349050905,-13.85505784999998,-1.0412379518500001,0.435700764985,0.9429009945000001,0.013526072550000004,-0.10922220299999999,0.01062643332499999
03:30:30,-1.1175731,0.68597485,-0.16182390000000002,0.25072105,-0.1539193,-0.27051045,1.1177272,-30.26809935,-1.34813095,-15.624291499999998,-1.0463544315000002,0.43979274515,0.9470638550000001,0.014766024500000016,-0.10975709,0.009477856749999986
03:30:30,-1.12621221,0.692400485,-0.15855788999999998,0.249975305,-0.15462243,-0.26827854500000003,1.1305993200000002,-30.269968435,-1.347210995,-17.393525149999988,-1.05147091115,0.443884725315,0.9512267155,0.01600597645,-0.110291977,0.008329280174999981
03:30:30,-1.13485132,0.69882612,-0.15529188,0.24922956000000002,-0.15532556000000003,-0.26604664,1.1434714400000001,-30.27183752,-1.34629104,-19.162758799999978,-1.0565873908,0.44797670547999996,0.9553895760000001,0.017245928400000013,-0.110826864,0.007180703600000005
03:30:30,-1.14349043,0.705251755,-0.15202587,0.248483815,-0.15602869000000003,-0.263814735,1.15634356,-30.273706605,-1.345371085,-20.931992449999996,-1.0617038704500001,0.45206868564499997,0.9595524365000001,0.018485880350000025,-0.111361751,0.006032127025
03:30:30,-1.15212954,0.71167739,-0.14875986000000002,0.24773807,-0.15673182000000002,-0.26158283,1.1692156800000002,-30.27557569,-1.34445113,-22.701226099999985,-1.0668203501000002,0.45616066581,0.963715297,0.01972583230000001,-0.11189663799999999,0.004883550449999996
03:30:30,-1.16076865,0.718103025,-0.14549384999999998,0.246992325,-0.15743495000000002,-0.259350925,1.1820878000000001,-30.277444775,-1.343531175,-24.470459749999975,-1.07193682975,0.460252645975,0.9678781575000001,0.020965784250000022,-0.112431525,0.0037349738749999917
03:30:30,-1.16940776,0.7245286599999999,-0.14222784,0.24624658,-0.15813808000000001,-0.25711902000000003,1.19495992,-30.27931386,-1.34261122,-26.239693399999993,-1.0770533094,0.46434462614,0.9720410180000001,0.022205736200000006,-0.11296641199999999,0.0025863972999999874
03:30:30,-1.17804687,0.730954295,-0.13896183,0.245500835,-0.15884121,-0.254887115,1.2078320400000002,-30.281182944999998,-1.341691265,-28.008927049999983,-1.0821697890500002,0.468436606305,0.9762038785,0.02344568815000002,-0.113501299,0.001437820724999983
03:30:30,-1.18668598,0.73737993,-0.13569582000000002,0.24475509,-0.15954434,-0.25265521,1.2207041600000001,-30.28305203,-1.34077131,-29.778160699999972,-1.0872862687,0.47252858647,0.9803667390000002,0.024685640100000003,-0.11403618599999998,0.0002892441499999787
03:30:30,-1.1953250899999999,0.743805565,-0.13242980999999998,0.244009345,-0.16024747,-0.25042330500000004,1.23357628,-30.284921115,-1.339851355,-31.54739434999999,-1.09240274835,0.47662056663499996,0.9845295995000001,0.025925592050000015,-0.114571073,-0.0008593324249999978
03:30:30,-1.2039642,0.7502312,-0.1291638,0.24326360000000002,-0.1609506,-0.2481914,1.2464484000000002,-30.2867902,-1.3389314,-33.31662799999998,-1.0975192280000001,0.4807125468,0.98869246,0.027165544000000028,-0.11510596000000001,-0.002007909000000002
03:30:30,-1.21260331,0.756656835,-0.12589779,0.242517855,-0.16165373,-0.24595949500000003,1.2593205200000002,-30.288659284999998,-1.338011445,-35.08586164999997,-1.1026357076500002,0.484804526965,0.9928553205000001,0.028405495950000012,-0.11564084699999999,-0.0031564855750000065
03:30:30,-1.22124242,0.76308247,-0.12263178000000002,0.24177210999999998,-0.16235686,-0.24372759,1.27219264,-30.29052837,-1.33709149,-36.85509529999999,-1.1077521873,0.48889650713,0.9970181810000001,0.029645447900000024,-0.116175734,-0.004305062150000011
03:30:30,-1.22988153,0.769508105,-0.11936576999999998,0.24102636500000002,-0.16305999000000002,-0.24149568500000002,1.28506476,-30.292397455,-1.336171535,-38.62432894999998,-1.11286866695,0.49298848729499994,1.0011810415,0.03088539985000001,-0.11671062099999999,-0.005453638725000015
03:30:30,-1.23852064,0.7759337399999999,-0.11609976,0.24028062,-0.16376312,-0.23926378000000004,1.2979368800000002,-30.29426654,-1.33525158,-40.393562599999996,-1.1179851466000001,0.49708046745999995,1.0053439020000001,0.03212535180000002,-0.117245508,-0.0066022153000000194
03:30:30,-1.24715975,0.782359375,-0.11283375000000001,0.239534875,-0.16446625,-0.237031875,1.3108090000000001,-30.296135624999998,-1.334331625,-42.162796249999985,-1.1231016262500002,0.501172447625,1.0095067625,0.033365303750000005,-0.11778039500000001,-0.007750791874999996
03:30:30,-1.25579886,0.78878501,-0.10956774000000002,0.23878913000000002,-0.16516938,-0.23479997000000002,1.32368112,-30.29800471,-1.33341167,-43.932029899999975,-1.1282181059,0.50526442779,1.0136696230000002,0.03460525570000002,-0.118315282,-0.00889936845
03:30:30,-1.26443797,0.7952106449999999,-0.10630172999999998,0.238043385,-0.16587251000000003,-0.232568065,1.3365532400000002,-30.299873795,-1.332491715,-45.70126354999999,-1.13333458555,0.509356407955,1.0178324835,0.03584520765,-0.118850169,-0.010047945025000005
03:30:30,-1.27307708,0.80163628,-0.10303572,0.23729764,-0.16657564000000002,-0.23033616,1.3494253600000001,-30.30174288,-1.33157176,-47.47049719999998,-1.1384510652000002,0.51344838812,1.021995344,0.037085159600000014,-0.11938505599999999,-0.011196521600000009
03:30:30,-1.28171619,0.808061915,-0.09976971000000001,0.236551895,-0.16727877000000002,-0.22810425500000003,1.36229748,-30.303611964999998,-1.330651805,-49.23973084999997,-1.14356754485,0.517540368285,1.0261582045000002,0.03832511155000003,-0.119919943,-0.012345098175000013
03:30:30,-1.2903552999999999,0.81448755,-0.09650369999999997,0.23580615,-0.16798190000000002,-0.22587235,1.3751696000000002,-30.30548105,-1.32973185,-51.00896449999999,-1.1486840245,0.5216323484500001,1.030321065,0.03956506350000001,-0.12045482999999998,-0.013493674750000018
03:30:30,-1.29899441,0.820913185,-0.09323768999999998,0.235060405,-0.16868503,-0.22364044500000002,1.3880417200000001,-30.307350135,-1.328811895,-52.77819814999998,-1.1538005041500001,0.5257243286150001,1.0344839255,0.04080501545000002,-0.120989717,-0.014642251325000022
03:30:30,-1.30763352,0.82733882,-0.08997168,0.23431466,-0.16938816,-0.22140854,1.40091384,-30.30921922,-1.32789194,-54.54743179999997,-1.1589169838000002,0.5298163087800001,1.0386467860000002,0.04204496740000001,-0.12152460400000001,-0.0157908279
03:30:30,-1.31627263,0.833764455,-0.08670567000000001,0.233568915,-0.17009129,-0.219176635,1.4137859600000002,-30.311088305,-1.3269719850000001,-56.31666544999999,-1.16403346345,0.5339082889450001,1.0428096465,0.04328491935000002,-0.12205949099999999,-0.016939404475000003
03:30:30,-1.32491174,0.84019009,-0.08343965999999997,0.23282317000000002,-0.17079442,-0.21694473000000003,1.4266580800000002,-30.312957389999998,-1.32605203,-58.08589909999998,-1.1691499431,0.5380002691100001,1.046972507,0.044524871300000005,-0.122594378,-0.018087981050000007
03:30:30,-1.33355085,0.8466157249999999,-0.08017364999999999,0.232077425,-0.17149755,-0.214712825,1.4395302,-30.314826475,-1.325132075,-59.855132749999996,-1.1742664227500001,0.542092249275,1.0511353675000001,0.04576482325000002,-0.12312926499999999,-0.01923655762500001
03:30:30,-1.34218996,0.85304136,-0.07690764,0.23133167999999998,-0.17220068,-0.21248092000000002,1.45240232,-30.31669556,-1.32421212,-61.624366399999985,-1.1793829024000002,0.54618422944,1.055298228,0.0470047752,-0.123664152,-0.020385134200000016
03:30:30,-1.35082907,0.859466995,-0.07364163000000001,0.23058593500000002,-0.17290381,-0.21024901499999998,1.4652744400000002,-30.318564645,-1.323292165,-63.393600049999975,-1.18449938205,0.550276209605,1.0594610885,0.048244727150000014,-0.12419903899999998,-0.02153371077500002
03:30:30,-1.35946818,0.8658926299999999,-0.07037561999999997,0.22984019,-0.17360694000000002,-0.20801711,1.47814656,-30.320433729999998,-1.32237221,-65.1628337,-1.1896158617,0.55436818977,1.0636239490000001,0.049484679100000026,-0.124733926,-0.022682287349999997
03:30:30,-1.36810729,0.872318265,-0.06710960999999999,0.229094445,-0.17431007,-0.20578520500000003,1.49101868,-30.322302815,-1.321452255,-66.93206734999998,-1.1947323413500002,0.558460169935,1.0677868095,0.05072463105000001,-0.125268813,-0.023830863925
03:30:30,-1.3767464,0.8787439,-0.0638436,0.22834870000000002,-0.1750132,-0.2035533,1.5038908000000002,-30.3241719,-1.3205323,-68.70130099999997,-1.1998488210000002,0.5625521501,1.0719496700000002,0.05196458300000002,-0.1258037,-0.024979440500000005
03:30:30,-1.3853855099999999,0.885169535,-0.060577590000000014,0.227602955,-0.17571633000000003,-0.20132139500000001,1.5167629200000001,-30.326040985,-1.3196123450000001,-70.47053464999999,-1.20496530065,0.566644130265,1.0761125305,0.05320453495000001,-0.126338587,-0.02612801707500001
03:30:30,-1.39402462,0.89159517,-0.05731157999999997,0.22685721,-0.17641946000000003,-0.19908949000000004,1.52963504,-30.327910069999998,-1.31869239,-72.23976829999998,-1.2100817803000001,0.57073611043,1.080275391,0.05444448690000002,-0.12687347399999999,-0.027276593650000014
03:30:30,-1.40266373,0.8980208049999999,-0.05404556999999999,0.226111465,-0.17712259000000002,-0.196857585,1.5425071600000002,-30.329779155,-1.317772435,-74.00900194999997,-1.2151982599500002,0.5748280905950001,1.0844382515000002,0.055684438850000004,-0.127408361,-0.028425170225000018
03:30:30,-1.41130284,0.90444644,-0.05077956,0.22536572,-0.17782572000000002,-0.19462568000000002,1.5553792800000001,-30.33164824,-1.31685248,-75.77823559999999,-1.2203147396,0.5789200707600001,1.088601112,0.056924390800000016,-0.12794324799999998,-0.029573746800000023
03:30:30,-1.41994195,0.910872075,-0.047513550000000015,0.224619975,-0.17852885000000002,-0.192393775,1.5682514,-30.333517325,-1.315932525,-77.54746924999998,-1.22543121925,0.5830120509250001,1.0927639725,0.05816434275000003,-0.128478135,-0.030722323375
03:30:30,-1.42858106,0.9172977099999999,-0.044247539999999974,0.22387423,-0.17923198,-0.19016187,1.5811235200000002,-30.335386409999998,-1.31501257,-79.31670289999997,-1.2305476989000002,0.5871040310900001,1.0969268330000002,0.05940429470000001,-0.129013022,-0.03187089995
03:30:30,-1.43722017,0.923723345,-0.04098152999999999,0.223128485,-0.17993511,-0.18792996500000003,1.5939956400000002,-30.337255495,-1.314092615,-81.08593654999996,-1.2356641785500002,0.5911960112550001,1.1010896935,0.060644246650000025,-0.129547909,-0.03301947652500001
03:30:30,-1.44585928,0.93014898,-0.03771552,0.22238274,-0.18063824,-0.18569806,1.60686776,-30.33912458,-1.31317266,-82.8551702,-1.2407806582,0.59528799142,1.105252554,0.06188419860000001,-0.130082796,-0.03416805310000001
03:30:30,-1.45449839,0.9365746149999999,-0.034449510000000017,0.221636995,-0.18134137,-0.18346615500000002,1.6197398800000002,-30.340993665,-1.3122527050000001,-84.62440385,-1.2458971378500001,0.599379971585,1.1094154145000001,0.06312415055000002,-0.13061768299999998,-0.035316629675000016
03:30:30,-1.4631375,0.94300025,-0.031183499999999975,0.22089124999999998,-0.1820445,-0.18123424999999999,1.6326120000000002,-30.34286275,-1.31133275,-86.39363749999998,-1.2510136175000002,0.60347195175,1.113578275,0.0643641025,-0.13115257,-0.03646520625000002
03:30:30,-1.47177661,0.949425885,-0.02791748999999999,0.22014550500000002,-0.18274763,-0.179002345,1.64548412,-30.344731834999997,-1.310412795,-88.16287114999997,-1.2561300971500002,0.607563931915,1.1177411355000002,0.06560405445000002,-0.131687457,-0.037613782825
03:30:30,-1.4804157199999999,0.95585152,-0.024651480000000003,0.21939976,-0.18345076000000002,-0.17677044000000003,1.6583562400000003,-30.34660092,-1.30949284,-89.93210479999996,-1.2612465768,0.61165591208,1.1219039960000001,0.06684400640000003,-0.132222344,-0.0387623594
03:30:30,-1.48905483,0.962277155,-0.021385470000000018,0.218654015,-0.18415389000000001,-0.174538535,1.6712283600000002,-30.348470005,-1.308572885,-91.70133844999995,-1.2663630564500001,0.615747892245,1.1260668565,0.06808395835000002,-0.132757231,-0.039910935975000006
03:30:30,-1.49769394,0.9687027899999999,-0.018119459999999976,0.21790827000000002,-0.18485702,-0.17230663000000002,1.6841004800000001,-30.35033909,-1.3076529300000002,-93.4705721,-1.2714795361000002,0.61983987241,1.1302297170000002,0.06932391030000003,-0.133292118,-0.04105951255000001
03:30:30,-1.50633305,0.975128425,-0.014853450000000046,0.217162525,-0.18556015,-0.17007472499999998,1.6969726,-30.352208174999998,-1.306732975,-95.23980574999999,-1.27659601575,0.6239318525750001,1.1343925775,0.07056386225000001,-0.133827005,-0.042208089125000015
03:30:30,-1.51497216,0.9815540599999999,-0.011587440000000004,0.21641678,-0.18626328000000003,-0.16784282,1.70984472,-30.35407726,-1.30581302,-97.00903939999998,-1.2817124954,0.6280238327400001,1.138555438,0.07180381420000002,-0.13436189199999998,-0.04335666570000002
03:30:30,-1.52361127,0.9879796949999999,-0.008321429999999963,0.215671035,-0.18696641000000003,-0.16561091500000003,1.7227168400000004,-30.355946345,-1.3048930650000001,-98.77827304999997,-1.2868289750500002,0.6321158129050001,1.1427182985000002,0.07304376615000001,-0.134896779,-0.044505242274999995
03:30:30,-1.53225038,0.99440533,-0.005055420000000033,0.21492529,-0.18766954000000002,-0.16337901,1.7355889600000003,-30.35781543,-1.30397311,-100.54750669999996,-1.2919454547000002,0.6362077930700001,1.146881159,0.07428371810000002,-0.135431666,-0.04565381885
03:30:30,-1.54088949,1.000830965,-0.0017894099999999913,0.214179545,-0.18837267000000002,-0.161147105,1.7484610800000002,-30.359684514999998,-1.303053155,-102.31674035,-1.29706193435,0.6402997732350001,1.1510440195,0.07552367005,-0.135966553,-0.046802395425000004
03:30:30,-1.5495286,1.0072566,0.00147660000000005,0.2134338,-0.18907580000000002,-0.15891520000000003,1.7613332000000002,-30.3615536,-1.3021332,-104.085974,-1.3021784140000001,0.6443917534000001,1.1552068800000002,0.07676362200000002,-0.13650144,-0.04795097200000001
03:30:30,-1.55816771,1.0136822349999999,0.0047426099999999805,0.212688055,-0.18977893,-0.156683295,1.77420532,-30.363422685,-1.301213245,-105.85520764999998,-1.3072948936500002,0.648483733565,1.1593697405,0.07800357395000003,-0.13703632699999999,-0.04909954857500001
03:30:30,-1.56680682,1.02010787,0.008008620000000022,0.21194231,-0.19048206,-0.15445139000000002,1.78707744,-30.36529177,-1.30029329,-107.62444129999997,-1.3124113733000002,0.65257571373,1.163532601,0.07924352590000001,-0.137571214,-0.05024812515000002
03:30:30,-1.5754459299999999,1.026533505,0.011274630000000063,0.211196565,-0.19118519,-0.152219485,1.79994956,-30.367160854999998,-1.299373335,-109.39367494999996,-1.31752785295,0.656667693895,1.1676954615000001,0.08048347785000003,-0.13810610099999998,-0.05139670172500002
03:30:30,-1.58408504,1.03295914,0.014540639999999994,0.21045081999999998,-0.19188832,-0.14998758,1.8128216800000003,-30.36902994,-1.29845338,-111.16290859999995,-1.3226443326000001,0.66075967406,1.171858322,0.08172342980000001,-0.138640988,-0.0525452783
03:30:30,-1.59272415,1.039384775,0.017806650000000035,0.20970507500000002,-0.19259145,-0.14775567500000003,1.8256938000000003,-30.370899025,-1.2975334250000001,-112.93214225,-1.3277608122500002,0.664851654225,1.1760211825000002,0.08296338175000002,-0.139175875,-0.053693854875
03:30:30,-1.60136326,1.04581041,0.021072659999999965,0.20895933,-0.19329458,-0.14552377,1.8385659200000002,-30.37276811,-1.29661347,-114.70137589999999,-1.3328772919000003,0.66894363439,1.1801840430000001,0.08420333370000001,-0.139710762,-0.054842431450000007
03:30:30,-1.61000237,1.052236045,0.024338670000000007,0.20821358499999998,-0.19399771000000002,-0.14329186500000002,1.8514380400000001,-30.374637195,-1.295693515,-116.47060954999998,-1.33799377155,0.673035614555,1.1843469035,0.08544328565000002,-0.140245649,-0.05599100802500001
03:30:30,-1.61864148,1.05866168,0.027604680000000048,0.20746784,-0.19470084000000001,-0.14105995999999998,1.86431016,-30.376506279999997,-1.29477356,-118.23984319999997,-1.3431102512000002,0.6771275947200001,1.1885097640000002,0.0866832376,-0.14078053599999998,-0.057139584600000015
03:30:30,-1.62728059,1.065087315,0.03087068999999998,0.206722095,-0.19540397,-0.138828055,1.87718228,-30.378375365,-1.293853605,-120.00907684999996,-1.3482267308500002,0.6812195748850001,1.1926726245000001,0.08792318955000002,-0.141315423,-0.05828816117500002
03:30:30,-1.6359197,1.07151295,0.03413670000000002,0.20597635,-0.1961071,-0.13659615000000003,1.8900544000000004,-30.38024445,-1.2929336500000002,-121.7783105,-1.3533432105,0.6853115550500001,1.196835485,0.08916314150000003,-0.14185031,-0.059436737749999996
03:30:30,-1.64455881,1.077938585,0.03740271000000006,0.205230605,-0.19681023000000003,-0.134364245,1.9029265200000003,-30.382113535,-1.292013695,-123.54754415,-1.3584596901500001,0.6894035352150001,1.2009983455000002,0.09040309345000001,-0.142385197,-0.060585314325
03:30:30,-1.65319792,1.0843642199999999,0.04066871999999999,0.20448486,-0.19751336000000003,-0.13213234000000001,1.9157986400000002,-30.383982619999998,-1.29109374,-125.31677779999998,-1.3635761698000002,0.6934955153800001,1.205161206,0.09164304540000003,-0.142920084,-0.061733890900000005
03:30:30,-1.66183703,1.090789855,0.04393473000000003,0.203739115,-0.19821649000000002,-0.12990043499999998,1.9286707600000002,-30.385851705,-1.2901737850000001,-127.08601144999997,-1.3686926494500002,0.697587495545,1.2093240665,0.09288299735000001,-0.143454971,-0.06288246747500001
03:30:30,-1.6704761399999999,1.09721549,0.04720073999999996,0.20299337,-0.19891962000000002,-0.12766853,1.94154288,-30.38772079,-1.28925383,-128.85524509999996,-1.3738091291,0.70167947571,1.2134869270000002,0.09412294930000002,-0.143989858,-0.06403104405000001
03:30:30,-1.67911525,1.103641125,0.050466750000000005,0.202247625,-0.19962275000000002,-0.12543662500000002,1.954415,-30.389589875,-1.2883338750000002,-130.62447874999995,-1.3789256087500001,0.705771455875,1.2176497875,0.09536290125,-0.14452474499999998,-0.06517962062500002
03:30:30,-1.68775436,1.11006676,0.053732760000000046,0.20150188,-0.20032588,-0.12320471999999999,1.9672871200000004,-30.391458959999998,-1.28741392,-132.3937124,-1.3840420884000002,0.70986343604,1.221812648,0.09660285320000002,-0.145059632,-0.0663281972
03:30:30,-1.69639347,1.116492395,0.056998769999999976,0.200756135,-0.20102901,-0.12097281500000001,1.9801592400000003,-30.393328045,-1.286493965,-134.16294605,-1.3891585680500003,0.713955416205,1.2259755085000001,0.09784280515000003,-0.145594519,-0.067476773775
03:30:30,-1.70503258,1.12291803,0.06026478000000002,0.20001039,-0.20173214,-0.11874090999999998,1.9930313600000003,-30.39519713,-1.2855740100000002,-135.93217969999998,-1.3942750477,0.71804739637,1.230138369,0.09908275710000002,-0.146129406,-0.06862535035
03:30:30,-1.71367169,1.129343665,0.06353079000000006,0.199264645,-0.20243527,-0.116509005,2.00590348,-30.397066215,-1.284654055,-137.70141334999997,-1.3993915273500002,0.722139376535,1.2343012295000002,0.10032270905000003,-0.146664293,-0.06977392692500001
03:30:30,-1.7223108,1.1357693,0.06679679999999999,0.1985189,-0.20313840000000002,-0.11427710000000002,2.0187756,-30.398935299999998,-1.2837341,-139.47064699999996,-1.4045080070000002,0.7262313567,1.2384640900000001,0.10156266100000001,-0.14719917999999999,-0.07092250350000001
03:30:30,-1.73094991,1.142194935,0.07006281000000003,0.197773155,-0.20384153000000002,-0.11204519499999999,2.03164772,-30.400804385,-1.2828141450000001,-141.23988065,-1.40962448665,0.7303233368650001,1.2426269505,0.10280261295000002,-0.147734067,-0.07207108007500002
03:30:30,-1.73958902,1.14862057,0.07332881999999996,0.19702741,-0.20454466000000002,-0.10981329000000001,2.04451984,-30.40267347,-1.28189419,-143.0091143,-1.4147409663000001,0.7344153170300001,1.2467898110000002,0.10404256490000001,-0.14826895399999998,-0.07321965665000002
03:30:30,-1.74822813,1.1550462049999999,0.07659483,0.196281665,-0.20524779,-0.10758138500000003,2.0573919600000004,-30.404542555,-1.280974235,-144.77834794999998,-1.4198574459500002,0.7385072971950001,1.2509526715000001,0.10528251685000002,-0.148803841,-0.074368233225
03:30:30,-1.75686724,1.16147184,0.07986084000000004,0.19553592,-0.20595092,-0.10534948,2.0702640800000003,-30.406411639999998,-1.28005428,-146.54758159999997,-1.4249739256000002,0.7425992773600001,1.255115532,0.10652246880000003,-0.149338728,-0.0755168098
03:30:30,-1.76550635,1.167897475,0.08312684999999997,0.194790175,-0.20665405,-0.10311757500000002,2.0831362,-30.408280724999997,-1.279134325,-148.31681524999996,-1.43009040525,0.7466912575250001,1.2592783925000002,0.10776242075000002,-0.149873615,-0.076665386375
03:30:30,-1.77414546,1.17432311,0.08639286000000002,0.19404443,-0.20735718,-0.10088566999999998,2.09600832,-30.41014981,-1.2782143700000002,-150.08604889999995,-1.4352068849000001,0.75078323769,1.263441253,0.10900237270000003,-0.150408502,-0.07781396295000001
03:30:30,-1.78278457,1.180748745,0.08965887000000006,0.193298685,-0.20806031000000003,-0.098653765,2.10888044,-30.412018895,-1.277294415,-151.85528255,-1.4403233645500002,0.754875217855,1.2676041135,0.11024232465000001,-0.15094338899999998,-0.07896253952500001
03:30:30,-1.79142368,1.1871743799999999,0.09292487999999999,0.19255294,-0.20876344000000002,-0.09642186000000003,2.12175256,-30.41388798,-1.27637446,-153.6245162,-1.4454398442000003,0.75896719802,1.2717669740000002,0.11148227660000003,-0.151478276,-0.08011111610000002
03:30:30,-1.80006279,1.193600015,0.09619089000000003,0.19180719499999999,-0.20946657000000002,-0.09418995499999999,2.1346246800000004,-30.415757064999998,-1.2754545050000001,-155.39374984999998,-1.45055632385,0.763059178185,1.2759298345,0.11272222855000001,-0.152013163,-0.081259692675
03:30:30,-1.8087019,1.20002565,0.09945689999999996,0.19106145,-0.21016970000000001,-0.09195805000000001,2.1474968000000003,-30.41762615,-1.27453455,-157.16298349999997,-1.4556728035000002,0.76715115835,1.2800926950000002,0.11396218050000002,-0.15254805,-0.08240826925
03:30:30,-1.81734101,1.206451285,0.10272291,0.190315705,-0.21087283,-0.08972614499999998,2.1603689200000002,-30.419495235,-1.2736145950000002,-158.93221714999996,-1.4607892831500002,0.771243138515,1.2842555555000001,0.11520213245000001,-0.153082937,-0.083556845825
03:30:30,-1.82598012,1.21287692,0.10598892000000004,0.18956995999999998,-0.21157596,-0.08749424,2.17324104,-30.42136432,-1.27269464,-160.70145079999995,-1.4659057628,0.77533511868,1.288418416,0.11644208440000002,-0.153617824,-0.08470542240000001
03:30:30,-1.83461923,1.219302555,0.10925492999999997,0.188824215,-0.21227909,-0.08526233500000002,2.18611316,-30.423233404999998,-1.271774685,-162.47068445,-1.4710222424500001,0.779427098845,1.2925812765000002,0.11768203635000003,-0.154152711,-0.08585399897500001
03:30:30,-1.84325834,1.2257281899999999,0.11252094000000001,0.18807847,-0.21298222000000003,-0.08303042999999999,2.19898528,-30.42510249,-1.2708547300000002,-164.23991809999998,-1.4761387221000002,0.7835190790100001,1.2967441370000001,0.11892198830000002,-0.15468759799999998,-0.08700257555000002
03:30:30,-1.85189745,1.232153825,0.11578695000000006,0.187332725,-0.21368535000000002,-0.08079852500000001,2.2118574,-30.426971575,-1.269934775,-166.00915174999997,-1.4812552017500002,0.7876110591750001,1.3009069975,0.12016194025000003,-0.155222485,-0.08815115212500002
03:30:30,-1.86053656,1.23857946,0.11905295999999999,0.18658697999999999,-0.21438848000000002,-0.07856661999999998,2.2247295200000003,-30.42884066,-1.2690148200000002,-167.77838539999996,-1.4863716814,0.7917030393400001,1.3050698580000002,0.12140189220000001,-0.155757372,-0.0892997287
03:30:30,-1.86917567,1.245005095,0.12231897000000003,0.185841235,-0.21509161000000002,-0.076334715,2.2376016400000003,-30.430709744999998,-1.2680948650000001,-169.54761904999995,-1.4914881610500001,0.7957950195050001,1.3092327185000001,0.12264184415000003,-0.156292259,-0.090448305275
03:30:30,-1.87781478,1.25143073,0.12558498000000007,0.18509549,-0.21579474,-0.07410281000000002,2.25047376,-30.43257883,-1.26717491,-171.3168527,-1.4966046407000002,0.7998869996700001,1.313395579,0.12388179610000001,-0.156827146,-0.09159688185
03:30:30,-1.88645389,1.2578563649999999,0.12885099,0.18434974499999998,-0.21649787,-0.07187090499999998,2.26334588,-30.434447915,-1.2662549550000002,-173.08608635,-1.50172112035,0.803978979835,1.3175584395000002,0.12512174805000004,-0.15736203299999998,-0.09274545842500001
03:30:31,-1.895093,1.264282,0.132117,0.183604,-0.217201,-0.069639,2.276218,-30.436317,-1.265335,-174.85532,-1.5068376,0.80807096,1.3217213,0.1263617,-0.15789692,-0.093894035
03:30:31,-1.887871085,1.26779266,0.12868643500000002,0.182517345,-0.21477200500000002,-0.069889355,2.27006501,-30.43497415,-1.25878532,-174.86491080000002,-1.5043742975,0.8138278247,1.3189262810000002,0.1249517852,-0.15571768815,-0.092879159475
03:30:31,-1.8806491699999999,1.27130332,0.12525587000000002,0.18143068999999998,-0.21234301,-0.07013971000000001,2.2639120200000002,-30.4336313,-1.25223564,-174.8745016,-1.501910995,0.8195846894,1.316131262,0.12354187039999999,-0.1535384563,-0.09186428395
03:30:31,-1.873427255,1.27481398,0.12182530500000001,0.18034403499999999,-0.209914015,-0.070390065,2.25775903,-30.432288449999998,-1.24568596,-174.88409240000001,-1.4994476925000002,0.8253415541,1.3133362430000002,0.1221319556,-0.15135922445,-0.090849408425
03:30:31,-1.8662053399999998,1.27832464,0.11839474000000001,0.17925738,-0.20748502000000002,-0.07064042000000001,2.25160604,-30.430945599999998,-1.23913628,-174.8936832,-1.4969843900000002,0.8310984188,1.310541224,0.1207220408,-0.1491799926,-0.0898345329
03:30:31,-1.858983425,1.2818353,0.114964175,0.178170725,-0.205056025,-0.070890775,2.24545305,-30.429602749999997,-1.2325866,-174.903274,-1.4945210875000001,0.8368552835,1.3077462050000002,0.11931212599999999,-0.14700076075,-0.088819657375
03:30:31,-1.85176151,1.28534596,0.11153361,0.17708406999999998,-0.20262703,-0.07114113000000001,2.23930006,-30.4282599,-1.22603692,-174.9128648,-1.492057785,0.8426121482,1.304951186,0.1179022112,-0.1448215289,-0.08780478185
03:30:31,-1.8445395949999999,1.28885662,0.10810304500000001,0.175997415,-0.200198035,-0.071391485,2.2331470700000002,-30.42691705,-1.21948724,-174.9224556,-1.4895944825,0.8483690129,1.3021561670000001,0.1164922964,-0.14264229705,-0.086789906325
03:30:31,-1.83731768,1.29236728,0.10467248000000001,0.17491076,-0.19776904,-0.07164184000000001,2.22699408,-30.4255742,-1.21293756,-174.93204640000002,-1.48713118,0.8541258776,1.299361148,0.11508238159999999,-0.1404630652,-0.0857750308
03:30:31,-1.8300957649999998,1.29587794,0.10124191500000002,0.17382410499999998,-0.19534004500000002,-0.071892195,2.22084109,-30.42423135,-1.20638788,-174.9416372,-1.4846678775000002,0.8598827423,1.2965661290000001,0.1136724668,-0.13828383335,-0.084760155275
03:30:31,-1.82287385,1.2993886,0.09781135,0.17273745,-0.19291105,-0.07214255,2.2146881,-30.4228885,-1.1998382,-174.95122800000001,-1.4822045750000001,0.865639607,1.29377111,0.11226255199999999,-0.1361046015,-0.08374527975
03:30:31,-1.815651935,1.30289926,0.09438078500000001,0.171650795,-0.190482055,-0.07239290500000001,2.20853511,-30.42154565,-1.19328852,-174.9608188,-1.4797412725,0.8713964717,1.290976091,0.11085263719999999,-0.13392536965,-0.082730404225
03:30:31,-1.8084300199999999,1.30640992,0.09095022,0.17056413999999998,-0.18805306,-0.07264326,2.20238212,-30.4202028,-1.18673884,-174.9704096,-1.47727797,0.8771533364,1.288181072,0.1094427224,-0.1317461378,-0.0817155287
03:30:31,-1.801208105,1.30992058,0.087519655,0.16947748499999998,-0.185624065,-0.07289361500000001,2.19622913,-30.418859949999998,-1.18018916,-174.9800004,-1.4748146675,0.8829102011,1.285386053,0.10803280759999999,-0.12956690595,-0.080700653175
03:30:31,-1.79398619,1.3134312399999999,0.08408909,0.16839083,-0.18319507000000002,-0.07314397,2.19007614,-30.417517099999998,-1.17363948,-174.9895912,-1.4723513650000002,0.8886670658,1.2825910340000002,0.1066228928,-0.1273876741,-0.07968577765
03:30:31,-1.786764275,1.3169419,0.08065852500000001,0.167304175,-0.18076607500000003,-0.07339432500000001,2.18392315,-30.416174249999997,-1.1670898,-174.99918200000002,-1.4698880625000001,0.8944239305,1.279796015,0.10521297799999998,-0.12520844225,-0.078670902125
03:30:31,-1.77954236,1.3204525599999999,0.07722796000000001,0.16621751999999998,-0.17833708,-0.07364468,2.17777016,-30.4148314,-1.16054012,-175.0087728,-1.46742476,0.9001807952,1.2770009960000002,0.10380306319999999,-0.1230292104,-0.0776560266
03:30:31,-1.7723204449999999,1.32396322,0.073797395,0.165130865,-0.175908085,-0.07389503500000001,2.17161717,-30.41348855,-1.15399044,-175.01836360000001,-1.4649614575,0.9059376599,1.274205977,0.1023931484,-0.12084997855,-0.076641151075
03:30:31,-1.76509853,1.3274738799999999,0.07036683,0.16404421,-0.17347909,-0.07414539,2.16546418,-30.4121457,-1.14744076,-175.0279544,-1.462498155,0.9116945246,1.2714109580000001,0.1009832336,-0.1186707467,-0.07562627555
03:30:31,-1.7578766149999998,1.33098454,0.06693626500000001,0.16295755499999998,-0.171050095,-0.074395745,2.15931119,-30.41080285,-1.14089108,-175.0375452,-1.4600348525000002,0.9174513893,1.268615939,0.09957331879999999,-0.11649151485,-0.074611400025
03:30:31,-1.7506547,1.3344951999999999,0.0635057,0.16187089999999998,-0.16862110000000002,-0.0746461,2.1531582,-30.40946,-1.1343414,-175.047136,-1.4575715500000002,0.923208254,1.2658209200000001,0.098163404,-0.114312283,-0.0735965245
03:30:31,-1.743432785,1.33800586,0.060075135,0.160784245,-0.166192105,-0.074896455,2.14700521,-30.40811715,-1.12779172,-175.0567268,-1.4551082475000001,0.9289651187,1.263025901,0.09675348919999999,-0.11213305115,-0.072581648975
03:30:31,-1.7362108699999999,1.3415165199999999,0.056644570000000005,0.15969759,-0.16376311000000002,-0.07514681000000001,2.14085222,-30.4067743,-1.12124204,-175.06631760000002,-1.452644945,0.9347219834,1.260230882,0.09534357439999999,-0.1099538193,-0.07156677345
03:30:31,-1.728988955,1.34502718,0.05321400500000001,0.15861093499999998,-0.161334115,-0.075397165,2.13469923,-30.40543145,-1.11469236,-175.0759084,-1.4501816425,0.9404788480999999,1.257435863,0.0939336596,-0.10777458745,-0.070551897925
03:30:31,-1.72176704,1.3485378399999999,0.04978344,0.15752428,-0.15890512,-0.07564752000000001,2.12854624,-30.404088599999998,-1.10814268,-175.08549920000002,-1.44771834,0.9462357128,1.254640844,0.0925237448,-0.1055953556,-0.06953702240000001
03:30:31,-1.714545125,1.3520485,0.046352875,0.156437625,-0.15647612500000002,-0.075897875,2.12239325,-30.402745749999998,-1.101593,-175.09509,-1.4452550375000002,0.9519925775,1.2518458250000002,0.09111382999999999,-0.10341612375,-0.068522146875
03:30:31,-1.70732321,1.3555591599999999,0.042922310000000005,0.15535096999999998,-0.15404713,-0.07614823000000001,2.11624026,-30.401402899999997,-1.09504332,-175.1046808,-1.4427917350000001,0.9577494422,1.249050806,0.08970391519999998,-0.1012368919,-0.06750727135000001
03:30:31,-1.7001012949999998,1.35906982,0.039491744999999995,0.15426431499999999,-0.15161813500000001,-0.076398585,2.11008727,-30.40006005,-1.08849364,-175.1142716,-1.4403284325,0.9635063069,1.2462557870000002,0.08829400039999999,-0.09905766005,-0.066492395825
03:30:31,-1.69287938,1.3625804799999999,0.03606118,0.15317766,-0.14918914,-0.07664894,2.10393428,-30.3987172,-1.08194396,-175.1238624,-1.43786513,0.9692631716,1.243460768,0.0868840856,-0.0968784282,-0.06547752030000001
03:30:31,-1.6856574649999998,1.36609114,0.032630615,0.152091005,-0.146760145,-0.076899295,2.09778129,-30.39737435,-1.07539428,-175.13345320000002,-1.4354018275,0.9750200363,1.2406657490000002,0.0854741708,-0.09469919635,-0.064462644775
03:30:31,-1.6784355499999999,1.3696017999999999,0.029200050000000005,0.15100434999999998,-0.14433115000000002,-0.07714965,2.0916283,-30.3960315,-1.0688446,-175.143044,-1.4329385250000002,0.980776901,1.23787073,0.08406425599999999,-0.0925199645,-0.06344776925000001
03:30:31,-1.671213635,1.37311246,0.025769484999999995,0.149917695,-0.14190215500000003,-0.07740000500000001,2.08547531,-30.39468865,-1.06229492,-175.15263480000002,-1.4304752225000001,0.9865337657,1.2350757110000001,0.0826543412,-0.09034073265,-0.062432893725
03:30:31,-1.6639917199999998,1.3766231199999999,0.022338919999999998,0.14883104,-0.13947316,-0.07765036,2.07932232,-30.3933458,-1.05574524,-175.1622256,-1.42801192,0.9922906304,1.232280692,0.08124442639999999,-0.0881615008,-0.0614180182
03:30:31,-1.656769805,1.38013378,0.018908355,0.14774438499999998,-0.137044165,-0.07790071500000001,2.0731693300000003,-30.39200295,-1.04919556,-175.1718164,-1.4255486175,0.9980474951,1.2294856730000001,0.07983451159999999,-0.08598226895,-0.060403142675
03:30:31,-1.64954789,1.3836444399999999,0.015477789999999991,0.14665773,-0.13461517,-0.07815107,2.06701634,-30.390660099999998,-1.04264588,-175.1814072,-1.423085315,1.0038043598,1.226690654,0.0784245968,-0.0838030371,-0.05938826715
03:30:31,-1.6423259749999999,1.3871551,0.012047224999999995,0.145571075,-0.13218617500000002,-0.07840142500000001,2.06086335,-30.389317249999998,-1.0360962,-175.190998,-1.4206220125,1.0095612245,1.223895635,0.077014682,-0.08162380525,-0.058373391625
03:30:31,-1.63510406,1.3906657599999999,0.008616659999999998,0.14448442,-0.12975718000000003,-0.07865178,2.05471036,-30.387974399999997,-1.02954652,-175.20058880000002,-1.4181587100000002,1.0153180892,1.2211006160000002,0.07560476719999999,-0.0794445734,-0.0573585161
03:30:31,-1.627882145,1.39417642,0.005186095000000002,0.14339776499999998,-0.127328185,-0.07890213500000001,2.04855737,-30.38663155,-1.02299684,-175.2101796,-1.4156954075000001,1.0210749539,1.218305597,0.07419485239999998,-0.07726534155,-0.056343640575
03:30:31,-1.62066023,1.3976870799999999,0.0017555300000000051,0.14231111,-0.12489919000000002,-0.07915249,2.0424043800000002,-30.3852887,-1.0164471600000002,-175.21977040000002,-1.413232105,1.0268318186,1.2155105780000002,0.07278493759999999,-0.0750861097,-0.05532876505
03:30:31,-1.6134383149999998,1.40119774,-0.0016750349999999914,0.141224455,-0.12247019500000002,-0.079402845,2.03625139,-30.38394585,-1.0098974800000002,-175.2293612,-1.4107688025,1.0325886833,1.212715559,0.0713750228,-0.07290687785,-0.054313889525
03:30:31,-1.6062163999999999,1.4047083999999999,-0.005105600000000016,0.14013779999999998,-0.12004120000000001,-0.07965320000000001,2.0300984,-30.382603,-1.0033478000000002,-175.238952,-1.4083055,1.038345548,1.2099205400000002,0.069965108,-0.070727646,-0.053299014
03:30:31,-1.598994485,1.40821906,-0.008536165000000012,0.139051145,-0.11761220500000001,-0.079903555,2.02394541,-30.38126015,-0.9967981200000001,-175.2485428,-1.4058421975000002,1.0441024127,1.207125521,0.0685551932,-0.06854841415,-0.052284138475
03:30:31,-1.5917725699999998,1.4117297199999999,-0.011966730000000009,0.13796449,-0.11518321000000001,-0.08015391000000001,2.01779242,-30.3799173,-0.9902484400000001,-175.2581336,-1.4033788950000001,1.0498592774,1.2043305020000001,0.0671452784,-0.0663691823,-0.05126926295
03:30:31,-1.584550655,1.41524038,-0.015397295000000005,0.136877835,-0.11275421500000002,-0.080404265,2.0116394300000002,-30.37857445,-0.9836987600000001,-175.26772440000002,-1.4009155925,1.0556161420999999,1.201535483,0.06573536359999999,-0.06418995045,-0.050254387425
03:30:31,-1.57732874,1.4187510399999999,-0.018827860000000002,0.13579117999999998,-0.11032522000000002,-0.08065462000000001,2.00548644,-30.3772316,-0.9771490800000001,-175.2773152,-1.39845229,1.0613730068,1.1987404640000001,0.06432544879999999,-0.0620107186,-0.0492395119
03:30:31,-1.5701068249999999,1.4222617,-0.022258425,0.134704525,-0.10789622500000001,-0.080904975,1.99933345,-30.375888749999998,-0.9705994000000001,-175.28690600000002,-1.3959889875,1.0671298715,1.195945445,0.062915534,-0.059831486749999996,-0.048224636375
03:30:31,-1.56288491,1.4257723599999998,-0.025688989999999995,0.13361787,-0.10546723000000002,-0.08115533,1.99318046,-30.374545899999998,-0.9640497200000001,-175.2964968,-1.3935256850000002,1.0728867362,1.193150426,0.061505619199999986,-0.057652254900000005,-0.04720976085
03:30:31,-1.555662995,1.42928302,-0.02911955500000002,0.13253121499999998,-0.10303823500000002,-0.081405685,1.9870274700000001,-30.373203049999997,-0.9575000400000001,-175.3060876,-1.3910623825000001,1.0786436009,1.1903554070000002,0.06009570439999999,-0.05547302305,-0.046194885325
03:30:31,-1.54844108,1.43279368,-0.032550120000000016,0.13144456,-0.10060924000000002,-0.08165604,1.98087448,-30.3718602,-0.9509503600000001,-175.3156784,-1.38859908,1.0844004656,1.187560388,0.058685789599999996,-0.053293791199999996,-0.045180009800000004
03:30:31,-1.541219165,1.43630434,-0.03598068500000001,0.130357905,-0.09818024500000001,-0.081906395,1.97472149,-30.37051735,-0.9444006800000001,-175.3252692,-1.3861357775,1.0901573302999998,1.1847653690000002,0.05727587479999999,-0.051114559350000005,-0.044165134275000004
03:30:31,-1.5339972499999999,1.4398149999999998,-0.03941125000000001,0.12927125,-0.09575125000000001,-0.08215675,1.9685685,-30.3691745,-0.9378510000000001,-175.33486,-1.383672475,1.095914195,1.18197035,0.05586595999999999,-0.0489353275,-0.04315025875
03:30:31,-1.526775335,1.44332566,-0.042841815000000005,0.12818459499999998,-0.09332225500000002,-0.08240710500000001,1.96241551,-30.36783165,-0.9313013200000001,-175.3444508,-1.3812091725000002,1.1016710597,1.1791753310000002,0.0544560452,-0.04675609565000001,-0.042135383225
03:30:31,-1.5195534199999998,1.44683632,-0.04627238,0.12709794,-0.09089326,-0.08265746,1.9562625200000001,-30.3664888,-0.9247516400000001,-175.35404160000002,-1.3787458700000002,1.1074279244,1.176380312,0.05304613039999999,-0.044576863800000005,-0.0411205077
03:30:31,-1.512331505,1.45034698,-0.049702945,0.126011285,-0.08846426500000001,-0.08290781500000001,1.95010953,-30.36514595,-0.9182019600000001,-175.3636324,-1.3762825675,1.1131847891,1.1735852930000001,0.05163621559999999,-0.04239763195,-0.040105632175
03:30:31,-1.50510959,1.4538576399999998,-0.05313351000000002,0.12492463,-0.08603527000000002,-0.08315817,1.94395654,-30.3638031,-0.9116522800000002,-175.3732232,-1.373819265,1.1189416537999999,1.170790274,0.0502263008,-0.04021840010000001,-0.03909075665
03:30:31,-1.4978876749999999,1.4573683,-0.05656407500000002,0.12383797499999999,-0.08360627500000001,-0.08340852500000001,1.93780355,-30.362460249999998,-0.9051026000000002,-175.382814,-1.3713559625,1.1246985185,1.1679952550000001,0.04881638599999999,-0.038039168250000005,-0.038075881125
03:30:31,-1.49066576,1.46087896,-0.059994640000000016,0.12275132,-0.08117728000000002,-0.08365888,1.93165056,-30.361117399999998,-0.8985529200000002,-175.3924048,-1.36889266,1.1304553832,1.165200236,0.047406471199999994,-0.0358599364,-0.0370610056
03:30:31,-1.483443845,1.46438962,-0.06342520500000001,0.12166466499999999,-0.07874828500000003,-0.083909235,1.92549757,-30.359774549999997,-0.8920032400000002,-175.4019956,-1.3664293575000002,1.1362122479,1.162405217,0.0459965564,-0.03368070455000001,-0.036046130075
03:30:31,-1.47622193,1.46790028,-0.06685577000000001,0.12057800999999999,-0.07631929000000001,-0.08415959,1.91934458,-30.3584317,-0.8854535600000002,-175.4115864,-1.3639660550000001,1.1419691126,1.1596101980000002,0.04458664159999999,-0.031501472700000005,-0.03503125455
03:30:31,-1.469000015,1.47141094,-0.070286335,0.119491355,-0.07389029500000002,-0.084409945,1.91319159,-30.35708885,-0.8789038800000002,-175.42117720000002,-1.3615027525,1.1477259773,1.156815179,0.043176726799999995,-0.029322240850000014,-0.034016379025
03:30:31,-1.4617780999999999,1.4749216,-0.0737169,0.11840469999999999,-0.07146130000000003,-0.08466030000000001,1.9070386,-30.355746,-0.8723542000000002,-175.430768,-1.35903945,1.1534828419999998,1.1540201600000002,0.041766811999999987,-0.027143008999999996,-0.0330015035
03:30:31,-1.454556185,1.47843226,-0.07714746500000003,0.117318045,-0.06903230500000002,-0.084910655,1.90088561,-30.35440315,-0.8658045200000002,-175.4403588,-1.3565761475,1.1592397067,1.151225141,0.04035689719999999,-0.024963777150000005,-0.031986627975
03:30:31,-1.4473342699999998,1.48194292,-0.08057803000000002,0.11623138999999999,-0.06660331000000003,-0.08516101000000001,1.89473262,-30.3530603,-0.8592548400000002,-175.4499496,-1.354112845,1.1649965714,1.1484301220000002,0.038946982399999996,-0.022784545300000014,-0.03097175245
03:30:31,-1.440112355,1.48545358,-0.08400859500000002,0.115144735,-0.06417431500000001,-0.085411365,1.8885796300000002,-30.35171745,-0.8527051600000002,-175.4595404,-1.3516495425000001,1.1707534361,1.145635103,0.03753706759999999,-0.020605313449999996,-0.029956876925
03:30:31,-1.43289044,1.48896424,-0.08743916000000002,0.11405807999999999,-0.06174532000000002,-0.08566172,1.88242664,-30.3503746,-0.8461554800000002,-175.4691312,-1.34918624,1.1765103008,1.1428400840000001,0.03612715279999999,-0.018426081600000005,-0.0289420014
03:30:31,-1.4256685249999999,1.4924749,-0.09086972500000001,0.11297142499999999,-0.05931632500000003,-0.085912075,1.87627365,-30.349031749999998,-0.8396058000000002,-175.478722,-1.3467229375,1.1822671654999999,1.140045065,0.034717238,-0.016246849750000014,-0.027927125875
03:30:31,-1.41844661,1.49598556,-0.09430029000000001,0.11188477,-0.056887330000000014,-0.08616243000000001,1.87012066,-30.347688899999998,-0.8330561200000002,-175.48831280000002,-1.344259635,1.1880240302,1.1372500460000001,0.03330732319999999,-0.014067617899999996,-0.02691225035
03:30:31,-1.411224695,1.49949622,-0.097730855,0.11079811499999999,-0.054458335000000024,-0.086412785,1.86396767,-30.346346049999998,-0.8265064400000002,-175.4979036,-1.3417963325,1.1937808949,1.134455027,0.031897408399999994,-0.011888386050000005,-0.025897374825
03:30:31,-1.40400278,1.50300688,-0.10116142000000003,0.10971146,-0.05202934000000001,-0.08666314,1.8578146800000002,-30.345003199999997,-0.8199567600000002,-175.5074944,-1.3393330300000001,1.1995377596,1.131660008,0.0304874936,-0.009709154200000014,-0.0248824993
03:30:31,-1.396780865,1.50651754,-0.10459198500000003,0.10862480499999999,-0.04960034500000002,-0.08691349500000001,1.85166169,-30.34366035,-0.8134070800000002,-175.5170852,-1.3368697275,1.2052946243,1.1288649890000002,0.02907757879999999,-0.007529922349999996,-0.023867623775
03:30:31,-1.38955895,1.5100282,-0.10802255000000002,0.10753815,-0.04717135000000003,-0.08716385,1.8455087000000001,-30.3423175,-0.8068574000000002,-175.526676,-1.334406425,1.211051489,1.12606997,0.027667663999999995,-0.005350690500000005,-0.02285274825
03:30:31,-1.382337035,1.51353886,-0.11145311500000002,0.106451495,-0.04474235500000001,-0.087414205,1.83935571,-30.34097465,-0.8003077200000002,-175.5362668,-1.3319431225,1.2168083536999998,1.123274951,0.026257749199999986,-0.003171458650000014,-0.021837872725
03:30:31,-1.3751151199999998,1.51704952,-0.11488368000000002,0.10536483999999999,-0.04231336000000002,-0.08766456,1.83320272,-30.3396318,-0.7937580400000002,-175.5458576,-1.32947982,1.2225652184,1.120479932,0.02484783439999999,-0.0009922267999999956,-0.0208229972
03:30:31,-1.367893205,1.52056018,-0.11831424500000001,0.104278185,-0.03988436500000003,-0.08791491500000001,1.8270497300000001,-30.33828895,-0.7872083600000002,-175.55544840000002,-1.3270165175000002,1.2283220831,1.1176849130000002,0.023437919599999996,0.0011870050499999951,-0.019808121675
03:30:31,-1.36067129,1.52407084,-0.12174481000000001,0.10319152999999999,-0.037455370000000016,-0.08816527,1.82089674,-30.3369461,-0.7806586800000002,-175.5650392,-1.3245532150000001,1.2340789478,1.114889894,0.022028004799999987,0.003366236899999986,-0.018793246149999998
03:30:31,-1.3534493749999998,1.5275815,-0.125175375,0.102104875,-0.035026375000000026,-0.088415625,1.81474375,-30.33560325,-0.7741090000000002,-175.57463,-1.3220899125,1.2398358125,1.1120948750000001,0.02061808999999999,0.005545468750000004,-0.017778370624999998
03:30:31,-1.34622746,1.53109216,-0.12860594,0.10101821999999999,-0.03259738000000004,-0.08866598,1.80859076,-30.334260399999998,-0.7675593200000002,-175.5842208,-1.31962661,1.2455926771999999,1.109299856,0.019208175199999997,0.007724700599999995,-0.016763495099999998
03:30:31,-1.339005545,1.53460282,-0.132036505,0.09993156499999999,-0.03016838500000002,-0.088916335,1.80243777,-30.332917549999998,-0.7610096400000002,-175.5938116,-1.3171633075,1.2513495419,1.1065048370000001,0.017798260399999988,0.009903932449999986,-0.015748619574999997
03:30:31,-1.3317836299999999,1.53811348,-0.13546707,0.09884491,-0.02773939000000003,-0.08916669,1.7962847800000001,-30.331574699999997,-0.7544599600000002,-175.6034024,-1.3147000050000002,1.2571064066,1.103709818,0.016388345599999993,0.012083164300000004,-0.014733744049999997
03:30:31,-1.324561715,1.54162414,-0.13889763500000005,0.09775825499999999,-0.025310395000000013,-0.089417045,1.79013179,-30.33023185,-0.7479102800000001,-175.6129932,-1.3122367025000001,1.2628632713,1.100914799,0.014978430799999998,0.014262396149999995,-0.013718868524999997
03:30:31,-1.3173398,1.5451348,-0.14232820000000004,0.0966716,-0.022881400000000024,-0.08966740000000001,1.7839788,-30.328889,-0.7413606000000001,-175.62258400000002,-1.3097734,1.268620136,1.0981197800000002,0.013568515999999989,0.016441627999999986,-0.012703992999999997
03:30:31,-1.310117885,1.54864546,-0.14575876500000004,0.09558494499999999,-0.020452405000000035,-0.089917755,1.77782581,-30.32754615,-0.7348109200000001,-175.6321748,-1.3073100975,1.2743770007,1.095324761,0.012158601199999994,0.018620859850000004,-0.011689117474999997
03:30:31,-1.3028959699999998,1.55215612,-0.14918933000000004,0.09449829,-0.018023410000000017,-0.09016811,1.77167282,-30.3262033,-0.7282612400000001,-175.6417656,-1.304846795,1.2801338653999998,1.092529742,0.010748686399999999,0.020800091699999995,-0.010674241949999996
03:30:31,-1.295674055,1.55566678,-0.15261989500000003,0.09341163499999999,-0.015594415000000028,-0.090418465,1.7655198300000001,-30.32486045,-0.7217115600000001,-175.6513564,-1.3023834925,1.2858907301,1.089734723,0.00933877159999999,0.022979323549999986,-0.009659366424999996
03:30:31,-1.28845214,1.55917744,-0.15605046000000003,0.09232497999999999,-0.013165420000000011,-0.09066882000000001,1.75936684,-30.3235176,-0.7151618800000001,-175.6609472,-1.2999201900000001,1.2916475948,1.0869397040000002,0.007928856799999995,0.025158555400000004,-0.008644490899999996
03:30:31,-1.2812302249999998,1.5626881,-0.15948102500000003,0.091238325,-0.010736425000000022,-0.090919175,1.75321385,-30.32217475,-0.7086122000000001,-175.670538,-1.2974568875,1.2974044595,1.084144685,0.006518941999999986,0.027337787249999995,-0.007629615374999996
03:30:31,-1.27400831,1.56619876,-0.16291159000000002,0.09015166999999999,-0.008307430000000032,-0.09116953,1.74706086,-30.320831899999998,-0.7020625200000001,-175.6801288,-1.294993585,1.3031613242,1.0813496660000002,0.005109027199999991,0.029517019099999986,-0.006614739849999995
03:30:31,-1.266786395,1.56970942,-0.16634215500000002,0.089065015,-0.005878435000000015,-0.091419885,1.74090787,-30.319489049999998,-0.6955128400000001,-175.68971960000002,-1.2925302825,1.3089181889,1.078554647,0.003699112399999996,0.031696250950000004,-0.005599864324999995
03:30:31,-1.2595644799999999,1.57322008,-0.16977272000000002,0.08797835999999999,-0.003449440000000026,-0.09167024,1.73475488,-30.318146199999997,-0.6889631600000001,-175.6993104,-1.29006698,1.3146750535999998,1.0757596280000001,0.002289197599999987,0.033875482799999995,-0.004584988799999995
03:30:31,-1.252342565,1.57673074,-0.173203285,0.086891705,-0.0010204450000000365,-0.09192059500000001,1.72860189,-30.316803349999997,-0.6824134800000001,-175.7089012,-1.2876036775,1.3204319183,1.072964609,0.0008792827999999919,0.036054714649999986,-0.0035701132749999948
03:30:31,-1.24512065,1.5802414,-0.17663385,0.08580505,0.0014085499999999807,-0.09217095,1.7224489,-30.3154605,-0.6758638000000001,-175.718492,-1.2851403750000001,1.326188783,1.0701695900000001,-0.0005306320000000031,0.038233946500000004,-0.0025552377499999945
03:30:31,-1.237898735,1.5837520600000001,-0.180064415,0.08471839499999999,0.00383754499999997,-0.09242130500000001,1.71629591,-30.31411765,-0.6693141200000001,-175.7280828,-1.2826770725,1.3319456477,1.0673745710000002,-0.0019405467999999981,0.040413178349999995,-0.0015403622249999943
03:30:31,-1.2306768199999998,1.58726272,-0.18349498,0.08363174,0.006266539999999959,-0.09267166,1.71014292,-30.3127748,-0.6627644400000001,-175.7376736,-1.28021377,1.3377025124,1.064579552,-0.003350461600000021,0.042592410199999986,-0.0005254866999999941
03:30:31,-1.223454905,1.59077338,-0.18692554500000005,0.08254508499999999,0.008695534999999976,-0.092922015,1.70398993,-30.31143195,-0.6562147600000001,-175.7472644,-1.2777504675,1.3434593770999999,1.061784533,-0.004760376400000016,0.044771642050000005,0.0004893888250000061
03:30:31,-1.21623299,1.59428404,-0.19035611000000005,0.08145843,0.011124529999999966,-0.09317237,1.6978369400000002,-30.3100891,-0.6496650800000001,-175.75685520000002,-1.275287165,1.3492162418,1.058989514,-0.006170291200000011,0.046950873899999995,0.0015042643500000064
03:30:31,-1.2090110749999998,1.5977947000000001,-0.19378667500000005,0.08037177499999999,0.013553524999999983,-0.093422725,1.69168395,-30.30874625,-0.6431154000000001,-175.766446,-1.2728238625000001,1.3549731065,1.0561944950000002,-0.007580206000000006,0.049130105749999986,0.0025191398750000066
03:30:31,-1.20178916,1.60130536,-0.19721724000000004,0.07928511999999999,0.015982519999999972,-0.09367308,1.68553096,-30.3074034,-0.6365657200000001,-175.7760368,-1.27036056,1.3607299712,1.053399476,-0.008990120800000001,0.051309337600000005,0.003534015399999993
03:30:31,-1.194567245,1.60481602,-0.20064780500000004,0.078198465,0.01841151499999996,-0.093923435,1.67937797,-30.306060549999998,-0.6300160400000001,-175.7856276,-1.2678972575,1.3664868359,1.0506044570000002,-0.010400035599999996,0.053488569449999995,0.004548890924999993
03:30:31,-1.1873453299999999,1.60832668,-0.20407837000000004,0.07711180999999999,0.02084050999999998,-0.09417379000000001,1.67322498,-30.304717699999998,-0.6234663600000001,-175.7952184,-1.265433955,1.3722437006,1.047809438,-0.011809950400000019,0.055667801299999986,0.005563766449999993
03:30:31,-1.180123415,1.6118373400000001,-0.20750893500000003,0.076025155,0.023269504999999968,-0.094424145,1.6670719900000002,-30.303374849999997,-0.6169166800000001,-175.8048092,-1.2629706525,1.3780005652999998,1.0450144190000001,-0.013219865200000014,0.05784703314999998,0.006578641974999994
03:30:31,-1.1729015,1.615348,-0.21093950000000003,0.07493849999999999,0.025698499999999985,-0.0946745,1.660919,-30.302031999999997,-0.6103670000000001,-175.8144,-1.2605073500000001,1.38375743,1.0422194,-0.014629780000000009,0.060026264999999995,0.007593517499999994
03:30:31,-1.165679585,1.61885866,-0.21437006500000003,0.073851845,0.028127494999999975,-0.094924855,1.65476601,-30.30068915,-0.6038173200000001,-175.82399080000002,-1.2580440475,1.3895142947,1.0394243810000001,-0.016039694800000004,0.062205496849999986,0.008608393024999994
03:30:31,-1.15845767,1.62236932,-0.21780063000000002,0.07276519,0.030556489999999964,-0.09517521000000001,1.64861302,-30.2993463,-0.5972676400000001,-175.8335816,-1.255580745,1.3952711594,1.0366293620000002,-0.0174496096,0.06438472869999998,0.009623268549999994
03:30:31,-1.151235755,1.6258799800000001,-0.22123119500000002,0.07167853499999999,0.03298548499999995,-0.095425565,1.64246003,-30.29800345,-0.5907179600000001,-175.84317240000001,-1.2531174425,1.4010280241,1.033834343,-0.01885952440000002,0.06656396055,0.010638144074999994
03:30:31,-1.14401384,1.62939064,-0.22466176000000002,0.07059188,0.03541448,-0.09567592,1.6363070400000002,-30.2966606,-0.5841682800000001,-175.8527632,-1.25065414,1.4067848887999999,1.031039324,-0.020269439200000017,0.06874319239999999,0.011653019599999995
03:30:31,-1.1367919249999998,1.6329012999999999,-0.228092325,0.06950522499999999,0.03784347499999999,-0.095926275,1.63015405,-30.29531775,-0.5776186000000001,-175.862354,-1.2481908375000001,1.4125417534999998,1.028244305,-0.021679354000000012,0.07092242424999998,0.012667895124999995
03:30:31,-1.12957001,1.63641196,-0.23152289,0.06841857,0.04027246999999998,-0.09617663,1.6240010599999999,-30.2939749,-0.5710689200000001,-175.8719448,-1.245727535,1.4182986182,1.0254492860000002,-0.023089268800000007,0.0731016561,0.013682770649999995
03:30:31,-1.122348095,1.63992262,-0.23495345500000006,0.06733191499999999,0.042701464999999966,-0.096426985,1.61784807,-30.292632049999998,-0.5645192400000002,-175.8815356,-1.2432642325,1.4240554829,1.022654267,-0.024499183600000002,0.07528088794999999,0.014697646174999995
03:30:31,-1.1151261799999999,1.64343328,-0.23838402000000006,0.06624526,0.045130459999999956,-0.09667734,1.61169508,-30.291289199999998,-0.5579695600000002,-175.89112640000002,-1.24080093,1.4298123476,1.0198592480000002,-0.025909098399999997,0.07746011979999998,0.015712521699999996
03:30:31,-1.107904265,1.6469439399999999,-0.24181458500000005,0.065158605,0.047559454999999945,-0.09692769500000001,1.6055420900000001,-30.289946349999997,-0.5514198800000002,-175.9007172,-1.2383376275,1.4355692123,1.017064229,-0.02731901320000002,0.07963935165,0.016727397224999996
03:30:31,-1.10068235,1.6504546,-0.24524515000000005,0.06407194999999999,0.04998844999999999,-0.09717805,1.5993891,-30.288603499999997,-0.5448702000000002,-175.91030800000001,-1.2358743250000002,1.4413260769999998,1.0142692100000001,-0.028728928000000015,0.08181858349999999,0.017742272749999996
03:30:31,-1.093460435,1.65396526,-0.24867571500000005,0.062985295,0.05241744499999998,-0.097428405,1.5932361099999999,-30.28726065,-0.5383205200000002,-175.9198988,-1.2334110225,1.4470829417,1.011474191,-0.03013884280000001,0.08399781534999998,0.018757148274999996
03:30:31,-1.08623852,1.65747592,-0.25210628,0.06189863999999999,0.05484643999999997,-0.09767876,1.58708312,-30.2859178,-0.5317708400000002,-175.9294896,-1.23094772,1.4528398063999999,1.0086791720000001,-0.031548757600000005,0.0861770472,0.019772023799999996
03:30:31,-1.079016605,1.6609865799999999,-0.25553684500000007,0.060811985,0.05727543499999996,-0.097929115,1.58093013,-30.28457495,-0.5252211600000002,-175.9390804,-1.2284844175,1.4585966711,1.005884153,-0.0329586724,0.08835627904999999,0.020786899324999997
03:30:31,-1.07179469,1.66449724,-0.25896741,0.05972532999999999,0.05970442999999995,-0.09817947,1.5747771400000001,-30.2832321,-0.5186714800000002,-175.9486712,-1.226021115,1.4643535358,1.003089134,-0.034368587199999995,0.09053551089999998,0.021801774849999997
03:30:31,-1.0645727749999998,1.6680079,-0.26239797500000006,0.058638675,0.06213342499999999,-0.098429825,1.56862415,-30.28188925,-0.5121218000000002,-175.95826200000002,-1.2235578125,1.4701104004999999,1.000294115,-0.03577850200000002,0.09271474274999997,0.022816650374999997
03:30:31,-1.05735086,1.67151856,-0.26582854,0.05755201999999998,0.06456241999999998,-0.09868018,1.5624711599999999,-30.2805464,-0.5055721200000002,-175.9678528,-1.22109451,1.4758672651999998,0.9974990960000001,-0.03718841680000001,0.09489397459999999,0.023831525899999997
03:30:31,-1.050128945,1.67502922,-0.26925910500000005,0.05646536499999999,0.06699141499999997,-0.098930535,1.55631817,-30.27920355,-0.4990224400000002,-175.97744360000002,-1.2186312075,1.4816241299,0.9947040770000001,-0.03859833160000001,0.09707320645,0.024846401424999998
03:30:31,-1.0429070299999998,1.67853988,-0.27268967,0.05537871,0.06942040999999996,-0.09918089,1.55016518,-30.277860699999998,-0.4924727600000002,-175.9870344,-1.216167905,1.4873809946,0.9919090580000001,-0.0400082464,0.09925243829999997,0.025861276949999998
03:30:31,-1.035685115,1.68205054,-0.27612023500000005,0.054292055000000006,0.07184940499999995,-0.099431245,1.5440121900000001,-30.276517849999998,-0.4859230800000002,-175.9966252,-1.2137046025,1.4931378593,0.9891140390000001,-0.0414181612,0.10143167014999999,0.026876152474999998
03:30:31,-1.0284632,1.6855612,-0.2795508,0.053205399999999986,0.07427839999999994,-0.09968160000000001,1.5378592,-30.275174999999997,-0.47937340000000017,-176.006216,-1.2112413,1.498894724,0.98631902,-0.04282807600000002,0.103610902,0.027891028
03:30:31,-1.0212412849999999,1.68907186,-0.28298136500000004,0.052118744999999994,0.07670739499999998,-0.099931955,1.5317062099999998,-30.273832149999997,-0.47282372000000017,-176.0158068,-1.2087779975,1.5046515886999998,0.9835240010000001,-0.044237990800000015,0.10579013384999997,0.028905903525
03:30:31,-1.01401937,1.69258252,-0.2864119300000001,0.05103209,0.07913638999999997,-0.10018231,1.52555322,-30.2724893,-0.46627404000000017,-176.02539760000002,-1.206314695,1.5104084534,0.980728982,-0.04564790560000001,0.10796936569999999,0.02992077905
03:30:31,-1.006797455,1.69609318,-0.28984249500000003,0.04994543499999998,0.08156538499999996,-0.100432665,1.51940023,-30.27114645,-0.45972436000000017,-176.0349884,-1.2038513925,1.5161653180999999,0.9779339630000001,-0.047057820400000006,0.11014859755,0.030935654575
03:30:31,-0.9995755399999999,1.69960384,-0.2932730600000001,0.04885877999999999,0.08399437999999995,-0.10068302,1.51324724,-30.2698036,-0.45317468000000016,-176.04457920000002,-1.20138809,1.5219221828,0.975138944,-0.0484677352,0.11232782939999997,0.0319505301
03:30:31,-0.9923536249999999,1.7031145,-0.296703625,0.047772125,0.08642337499999994,-0.10093337499999999,1.50709425,-30.26846075,-0.44662500000000016,-176.05417,-1.1989247875,1.5276790475,0.9723439250000001,-0.049877649999999996,0.11450706124999999,0.03296540562500001
03:30:31,-0.98513171,1.70662516,-0.3001341900000001,0.04668547000000001,0.08885236999999999,-0.10118373,1.50094126,-30.2671179,-0.44007532000000016,-176.0637608,-1.196461485,1.5334359121999999,0.9695489060000001,-0.05128756480000002,0.1166862931,0.03398028115
03:30:31,-0.977909795,1.71013582,-0.303564755,0.04559881499999999,0.09128136499999998,-0.10143408500000001,1.49478827,-30.26577505,-0.43352564000000016,-176.0733516,-1.1939981825000001,1.5391927768999998,0.9667538870000001,-0.05269747960000001,0.11886552494999997,0.034995156675000014
03:30:31,-0.97068788,1.71364648,-0.30699532000000007,0.044512159999999995,0.09371035999999996,-0.10168444,1.48863528,-30.264432199999998,-0.42697596000000015,-176.0829424,-1.19153488,1.5449496416,0.9639588680000001,-0.05410739440000001,0.12104475679999999,0.0360100322
03:30:31,-0.9634659649999999,1.71715714,-0.310425885,0.043425505,0.09613935499999995,-0.101934795,1.48248229,-30.263089349999998,-0.42042628000000015,-176.09253320000002,-1.1890715775,1.5507065063,0.9611638490000001,-0.0555173092,0.12322398865,0.037024907724999986
03:30:31,-0.9562440499999999,1.7206678,-0.31385645000000006,0.04233884999999998,0.09856834999999994,-0.10218515,1.4763293,-30.261746499999997,-0.41387660000000015,-176.102124,-1.186608275,1.556463371,0.9583688300000001,-0.056927224,0.12540322049999997,0.03803978325
03:30:31,-0.949022135,1.72417846,-0.317287015,0.04125219499999999,0.10099734499999999,-0.10243550500000001,1.47017631,-30.260403649999997,-0.40732692000000015,-176.11171480000002,-1.1841449725,1.5622202357,0.955573811,-0.05833713880000002,0.12758245235,0.03905465877499999
03:30:31,-0.94180022,1.72768912,-0.32071758000000006,0.04016554,0.10342633999999998,-0.10268586,1.46402332,-30.2590608,-0.40077724000000015,-176.1213056,-1.1816816700000001,1.5679771003999998,0.9527787920000002,-0.059747053600000016,0.1297616842,0.0400695343
03:30:31,-0.9345783049999999,1.73119978,-0.324148145,0.03907888500000001,0.10585533499999997,-0.102936215,1.45787033,-30.25771795,-0.39422756000000014,-176.1308964,-1.1792183675,1.5737339651,0.949983773,-0.06115696840000001,0.13194091604999997,0.04108440982499999
03:30:31,-0.9273563899999999,1.73471044,-0.32757871000000005,0.03799222999999999,0.10828432999999996,-0.10318657,1.45171734,-30.2563751,-0.38767788000000014,-176.1404872,-1.176755065,1.5794908297999999,0.9471887540000001,-0.0625668832,0.1341201479,0.04209928535
03:30:31,-0.9201344749999999,1.7382211,-0.331009275,0.036905574999999996,0.11071332499999995,-0.103436925,1.4455643500000002,-30.25503225,-0.38112820000000014,-176.150078,-1.1742917625,1.5852476945,0.944393735,-0.063976798,0.13629937975,0.04311416087499999
03:30:31,-0.91291256,1.74173176,-0.33443984000000004,0.035818920000000004,0.11314231999999999,-0.10368727999999999,1.43941136,-30.2536894,-0.37457852000000014,-176.15966880000002,-1.17182846,1.5910045592,0.9415987160000001,-0.0653867128,0.13847861159999997,0.0441290364
03:30:31,-0.905690645,1.74524242,-0.3378704050000001,0.034732264999999984,0.11557131499999998,-0.103937635,1.43325837,-30.25234655,-0.36802884000000013,-176.1692596,-1.1693651575000001,1.5967614238999999,0.9388036970000001,-0.06679662760000002,0.14065784345,0.04514391192499999
03:30:31,-0.8984687299999999,1.74875308,-0.34130097000000004,0.03364560999999999,0.11800030999999997,-0.10418799000000001,1.42710538,-30.2510037,-0.36147916000000013,-176.17885040000002,-1.1669018549999999,1.6025182885999998,0.9360086780000001,-0.06820654240000001,0.1428370753,0.04615878745
03:30:31,-0.8912468149999999,1.75226374,-0.3447315350000001,0.032558955,0.12042930499999996,-0.104438345,1.42095239,-30.249660849999998,-0.35492948000000013,-176.1884412,-1.1644385525,1.6082751533,0.9332136590000001,-0.06961645720000001,0.14501630714999997,0.04717366297499999
03:30:31,-0.8840249,1.7557744,-0.34816210000000003,0.03147230000000001,0.12285829999999995,-0.1046887,1.4147994000000002,-30.248317999999998,-0.34837980000000013,-176.198032,-1.16197525,1.614032018,0.9304186400000001,-0.071026372,0.147195539,0.0481885385
03:30:31,-0.8768029849999999,1.75928506,-0.3515926650000001,0.03038564499999999,0.12528729499999994,-0.104939055,1.40864641,-30.246975149999997,-0.3418301200000001,-176.2076228,-1.1595119475,1.6197888827,0.9276236210000001,-0.0724362868,0.14937477085,0.04920341402499999
03:30:31,-0.86958107,1.7627957200000002,-0.35502323,0.029298989999999997,0.12771628999999998,-0.10518941,1.4024934199999999,-30.245632299999997,-0.3352804400000001,-176.2172136,-1.157048645,1.6255457474,0.924828602,-0.07384620160000002,0.15155400269999997,0.05021828955
03:30:31,-0.862359155,1.76630638,-0.3584537950000001,0.028212335000000005,0.13014528499999997,-0.10543976499999999,1.39634043,-30.24428945,-0.3287307600000001,-176.22680440000002,-1.1545853425,1.6313026120999998,0.9220335830000002,-0.07525611640000002,0.15373323455,0.05123316507499999
03:30:31,-0.8551372399999999,1.76981704,-0.36188436,0.027125679999999985,0.13257427999999996,-0.10569012,1.39018744,-30.2429466,-0.3221810800000001,-176.2363952,-1.15212204,1.6370594768,0.919238564,-0.07666603120000001,0.1559124664,0.052248040600000004
03:30:31,-0.847915325,1.7733277,-0.36531492500000007,0.026039024999999993,0.13500327499999995,-0.105940475,1.3840344500000001,-30.24160375,-0.3156314000000001,-176.24598600000002,-1.1496587375,1.6428163414999999,0.9164435450000001,-0.07807594600000001,0.15809169824999997,0.05326291612499999
03:30:31,-0.8406934099999999,1.7768383600000002,-0.36874549,0.02495237,0.13743226999999994,-0.10619083,1.37788146,-30.2402609,-0.3090817200000001,-176.2555768,-1.147195435,1.6485732062,0.913648526,-0.0794858608,0.1602709301,0.054277791650000004
03:30:31,-0.833471495,1.78034902,-0.37217605500000006,0.02386571500000001,0.13986126499999998,-0.106441185,1.3717284699999999,-30.23891805,-0.3025320400000001,-176.2651676,-1.1447321325,1.6543300709,0.9108535070000001,-0.0808957756,0.16245016195,0.05529266717499999
03:30:31,-0.82624958,1.78385968,-0.37560662,0.02277905999999999,0.14229025999999997,-0.10669154,1.36557548,-30.2375752,-0.2959823600000001,-176.2747584,-1.14226883,1.6600869355999999,0.908058488,-0.08230569040000002,0.16462939379999997,0.056307542700000004
03:30:31,-0.8190276649999999,1.78737034,-0.37903718500000005,0.021692404999999998,0.14471925499999996,-0.10694189500000001,1.35942249,-30.236232349999998,-0.2894326800000001,-176.2843492,-1.1398055275,1.6658438002999998,0.9052634690000001,-0.08371560520000002,0.16680862565,0.05732241822499999
03:30:31,-0.81180575,1.7908810000000002,-0.38246775,0.020605750000000006,0.14714824999999995,-0.10719225,1.3532695000000001,-30.234889499999998,-0.2828830000000002,-176.29394000000002,-1.137342225,1.671600665,0.9024684500000001,-0.08512552000000001,0.1689878575,0.058337293750000005
03:30:31,-0.8045838349999999,1.79439166,-0.38589831500000005,0.019519094999999986,0.14957724499999994,-0.107442605,1.34711651,-30.233546649999997,-0.2763333200000002,-176.3035308,-1.1348789225,1.6773575297,0.8996734310000001,-0.0865354348,0.17116708934999997,0.05935216927499999
03:30:31,-0.79736192,1.79790232,-0.38932888,0.018432439999999994,0.15200623999999993,-0.10769296,1.3409635199999999,-30.232203799999997,-0.2697836400000002,-176.31312160000002,-1.13241562,1.6831143944,0.8968784120000001,-0.0879453496,0.1733463212,0.060367044800000005
03:30:31,-0.790140005,1.80141298,-0.39275944500000004,0.017345785000000002,0.15443523499999998,-0.107943315,1.33481053,-30.23086095,-0.2632339600000002,-176.3227124,-1.1299523175,1.6888712591,0.8940833930000001,-0.0893552644,0.17552555305,0.06138192032499999
03:30:31,-0.7829180899999999,1.8049236400000002,-0.39619001,0.016259129999999983,0.15686422999999997,-0.10819366999999999,1.32865754,-30.2295181,-0.2566842800000002,-176.3323032,-1.127489015,1.6946281237999998,0.891288374,-0.09076517920000002,0.17770478489999997,0.062396795850000006
03:30:31,-0.775696175,1.8084343,-0.39962057500000003,0.01517247499999999,0.15929322499999995,-0.108444025,1.3225045500000001,-30.22817525,-0.2501346000000002,-176.341894,-1.1250257125,1.7003849884999997,0.888493355,-0.09217509400000001,0.17988401675,0.06341167137499999
03:30:31,-0.7684742599999999,1.81194496,-0.40305114,0.014085819999999999,0.16172221999999994,-0.10869438000000001,1.31635156,-30.2268324,-0.2435849200000002,-176.3514848,-1.12256241,1.7061418532,0.8856983360000001,-0.09358500880000001,0.1820632486,0.0644265469
03:30:31,-0.7612523449999999,1.81545562,-0.406481705,0.012999165000000007,0.16415121499999993,-0.108944735,1.3101985699999998,-30.22548955,-0.2370352400000002,-176.3610756,-1.1200991075,1.7118987179,0.882903317,-0.0949949236,0.18424248044999997,0.06544142242499999
03:30:31,-0.75403043,1.8189662800000002,-0.4099122700000001,0.011912509999999987,0.16658020999999998,-0.10919509,1.30404558,-30.2241467,-0.2304855600000002,-176.3706664,-1.117635805,1.7176555826,0.8801082980000001,-0.0964048384,0.1864217123,0.06645629795
03:30:31,-0.7468085149999999,1.82247694,-0.413342835,0.010825854999999995,0.16900920499999997,-0.109445445,1.29789259,-30.22280385,-0.2239358800000002,-176.38025720000002,-1.1151725025,1.7234124472999999,0.877313279,-0.09781475320000002,0.18860094415,0.067471173475
03:30:31,-0.7395866,1.8259876,-0.41677340000000007,0.009739200000000003,0.17143819999999996,-0.1096958,1.2917396,-30.221460999999998,-0.2173862000000002,-176.389848,-1.1127092,1.7291693119999998,0.8745182600000001,-0.09922466800000002,0.19078017599999997,0.06848604900000001
03:30:31,-0.7323646849999998,1.82949826,-0.420203965,0.008652544999999984,0.17386719499999995,-0.10994615499999999,1.28558661,-30.220118149999998,-0.2108365200000002,-176.3994388,-1.1102458975,1.7349261767,0.8717232410000001,-0.10063458280000001,0.19295940785,0.069500924525
03:30:31,-0.7251427699999999,1.8330089200000002,-0.42363453000000006,0.007565889999999992,0.17629618999999994,-0.11019651,1.2794336199999998,-30.218775299999997,-0.2042868400000002,-176.4090296,-1.107782595,1.7406830413999999,0.8689282220000001,-0.1020444976,0.1951386397,0.07051580005000001
03:30:31,-0.717920855,1.83651958,-0.427065095,0.006479235,0.17872518499999998,-0.110446865,1.27328063,-30.217432449999997,-0.1977371600000002,-176.4186204,-1.1053192925,1.7464399061,0.8661332030000001,-0.1034544124,0.19731787154999997,0.071530675575
03:30:31,-0.7106989399999999,1.84003024,-0.43049566000000006,0.005392580000000008,0.18115417999999997,-0.11069722,1.26712764,-30.2160896,-0.1911874800000002,-176.4282112,-1.1028559900000001,1.7521967708,0.8633381840000001,-0.1048643272,0.1994971034,0.07254555110000001
03:30:31,-0.703477025,1.8435409,-0.433926225,0.004305924999999988,0.18358317499999996,-0.11094757499999999,1.26097465,-30.21474675,-0.18463780000000019,-176.437802,-1.1003926874999999,1.7579536354999998,0.860543165,-0.10627424200000002,0.20167633525,0.073560426625
03:30:31,-0.6962551100000001,1.8470515600000001,-0.43735679000000005,0.0032192699999999963,0.18601216999999995,-0.11119793,1.25482166,-30.2134039,-0.17808812000000018,-176.44739280000002,-1.097929385,1.7637105001999998,0.857748146,-0.10768415680000001,0.20385556709999997,0.07457530215000001
03:30:31,-0.6890331949999999,1.85056222,-0.440787355,0.0021326150000000044,0.18844116499999994,-0.11144828500000001,1.24866867,-30.21206105,-0.17153844000000018,-176.4569836,-1.0954660825,1.7694673649,0.8549531270000001,-0.10909407160000001,0.20603479895,0.075590177675
03:30:31,-0.68181128,1.85407288,-0.44421792000000004,0.0010459599999999847,0.19087015999999998,-0.11169864,1.24251568,-30.2107182,-0.16498876000000018,-176.4665744,-1.09300278,1.7752242296,0.852158108,-0.1105039864,0.2082140308,0.07660505320000001
03:30:31,-0.6745893649999999,1.85758354,-0.447648485,-4.069500000000725e-05,0.19329915499999997,-0.111948995,1.23636269,-30.20937535,-0.15843908000000018,-176.4761652,-1.0905394775,1.7809810943,0.8493630890000001,-0.1119139012,0.21039326264999997,0.077619928725
03:30:31,-0.66736745,1.8610942000000001,-0.45107905000000004,-0.0011273499999999992,0.19572814999999996,-0.11219935,1.2302097,-30.208032499999998,-0.15188940000000017,-176.485756,-1.0880761749999999,1.7867379589999999,0.84656807,-0.11332381600000002,0.2125724945,0.07863480425000001
03:30:31,-0.6601455350000001,1.86460486,-0.4545096150000001,-0.002214004999999991,0.19815714499999995,-0.112449705,1.22405671,-30.206689649999998,-0.14533972000000017,-176.4953468,-1.0856128725,1.7924948236999998,0.8437730510000001,-0.11473373080000002,0.21475172635,0.079649679775
03:30:31,-0.6529236199999999,1.86811552,-0.45794018000000003,-0.003300660000000011,0.20058613999999994,-0.11270005999999999,1.21790372,-30.205346799999997,-0.13879004000000017,-176.5049376,-1.08314957,1.7982516884,0.8409780320000001,-0.11614364560000001,0.21693095819999997,0.08066455530000001
03:30:31,-0.645701705,1.87162618,-0.4613707450000001,-0.004387315000000003,0.20301513499999993,-0.112950415,1.2117507299999999,-30.204003949999997,-0.13224036000000017,-176.51452840000002,-1.0806862675,1.8040085530999999,0.8381830130000001,-0.1175535604,0.21911019005,0.081679430825
03:30:31,-0.6384797899999999,1.8751368400000001,-0.46480131,-0.005473969999999995,0.20544412999999997,-0.11320077,1.20559774,-30.2026611,-0.12569068000000017,-176.5241192,-1.078222965,1.8097654178,0.8353879940000001,-0.1189634752,0.2212894219,0.08269430635000001
03:30:31,-0.631257875,1.8786475,-0.4682318750000001,-0.006560625000000014,0.20787312499999996,-0.113451125,1.19944475,-30.20131825,-0.11914100000000016,-176.53371,-1.0757596624999999,1.8155222825,0.8325929750000001,-0.12037339,0.22346865374999997,0.083709181875
03:30:31,-0.6240359600000001,1.88215816,-0.47166244,-0.007647280000000006,0.21030211999999995,-0.11370148,1.19329176,-30.1999754,-0.11259132000000016,-176.5433008,-1.07329636,1.8212791471999998,0.8297979560000001,-0.12178330480000002,0.2256478856,0.08472405740000001
03:30:31,-0.6168140449999999,1.88566882,-0.47509300500000007,-0.008733934999999998,0.21273111499999994,-0.113951835,1.18713877,-30.19863255,-0.10604164000000016,-176.5528916,-1.0708330575,1.8270360119,0.827002937,-0.12319321960000001,0.22782711745,0.085738932925
03:30:31,-0.60959213,1.8891794800000001,-0.47852357,-0.00982058999999999,0.21516010999999993,-0.11420219000000001,1.1809857799999999,-30.1972897,-0.09949196000000016,-176.5624824,-1.068369755,1.8327928766,0.8242079180000002,-0.12460313440000001,0.23000634929999997,0.08675380845000001
03:30:31,-0.6023702149999999,1.89269014,-0.48195413500000006,-0.01090724500000001,0.21758910499999998,-0.11445254499999999,1.17483279,-30.19594685,-0.09294228000000015,-176.5720732,-1.0659064525,1.8385497412999998,0.821412899,-0.12601304920000003,0.23218558115,0.087768683975
03:30:31,-0.5951483,1.8962008000000001,-0.4853847,-0.011993900000000002,0.22001809999999997,-0.1147029,1.1686798,-30.194603999999998,-0.08639260000000015,-176.58166400000002,-1.06344315,1.844306606,0.81861788,-0.127422964,0.234364813,0.08878355950000001
03:30:31,-0.587926385,1.8997114600000002,-0.48881526500000005,-0.013080554999999994,0.22244709499999996,-0.114953255,1.16252681,-30.193261149999998,-0.07984292000000015,-176.5912548,-1.0609798475,1.8500634706999999,0.8158228610000001,-0.12883287880000002,0.23654404484999997,0.089798435025
03:30:31,-0.5807044699999999,1.9032221200000001,-0.49224583,-0.014167210000000013,0.22487608999999995,-0.11520361,1.15637382,-30.191918299999998,-0.07329324000000015,-176.6008456,-1.058516545,1.8558203353999998,0.8130278420000001,-0.1302427936,0.2387232767,0.09081331055000001
03:30:31,-0.573482555,1.90673278,-0.49567639500000005,-0.015253865000000005,0.22730508499999993,-0.11545396499999999,1.15022083,-30.190575449999997,-0.06674356000000015,-176.6104364,-1.0560532425,1.8615772001,0.8102328230000001,-0.1316527084,0.24090250855,0.091828186075
03:30:31,-0.5662606399999999,1.9102434400000001,-0.49910696,-0.016340519999999997,0.22973407999999992,-0.11570432,1.14406784,-30.189232599999997,-0.060193880000000144,-176.6200272,-1.05358994,1.8673340647999999,0.8074378040000001,-0.13306262320000004,0.24308174039999997,0.09284306160000001
03:30:31,-0.559038725,1.9137541000000002,-0.502537525,-0.01742717499999999,0.23216307499999997,-0.11595467500000001,1.13791485,-30.18788975,-0.05364420000000014,-176.629618,-1.0511266375,1.8730909294999998,0.8046427850000001,-0.134472538,0.24526097225,0.093857937125
03:30:31,-0.55181681,1.9172647600000001,-0.5059680900000001,-0.01851383000000001,0.23459206999999996,-0.11620503,1.13176186,-30.1865469,-0.04709452000000014,-176.6392088,-1.048663335,1.8788477942,0.8018477660000001,-0.13588245280000003,0.2474402041,0.09487281265000001
03:30:31,-0.5445948949999999,1.92077542,-0.509398655,-0.019600485,0.23702106499999995,-0.116455385,1.12560887,-30.18520405,-0.04054484000000014,-176.64879960000002,-1.0462000325,1.8846046588999998,0.7990527470000001,-0.1372923676,0.24961943594999997,0.095887688175
03:30:31,-0.53737298,1.9242860800000001,-0.5128292200000001,-0.020687139999999993,0.23945005999999994,-0.11670574,1.11945588,-30.1838612,-0.033995160000000135,-176.6583904,-1.04373673,1.8903615236,0.796257728,-0.13870228240000002,0.2517986678,0.09690256370000001
03:30:31,-0.5301510649999999,1.9277967400000002,-0.516259785,-0.021773795000000012,0.24187905499999993,-0.116956095,1.11330289,-30.18251835,-0.027445480000000133,-176.6679812,-1.0412734275,1.8961183883,0.793462709,-0.14011219719999998,0.25397789965,0.097917439225
03:30:31,-0.52292915,1.9313074000000001,-0.5196903500000001,-0.022860450000000004,0.24430804999999997,-0.11720644999999999,1.1071499,-30.1811755,-0.02089580000000013,-176.677572,-1.038810125,1.9018752529999998,0.79066769,-0.141522112,0.25615713149999997,0.09893231475000001
03:30:31,-0.515707235,1.93481806,-0.523120915,-0.023947104999999996,0.24673704499999996,-0.117456805,1.1009969099999999,-30.179832649999998,-0.014346120000000129,-176.6871628,-1.0363468225,1.9076321177,0.787872671,-0.14293202680000003,0.25833636335,0.099947190275
03:30:31,-0.5084853199999999,1.9383287200000001,-0.5265514800000001,-0.025033760000000016,0.24916603999999995,-0.11770716,1.09484392,-30.178489799999998,-0.007796440000000127,-176.6967536,-1.0338835199999998,1.9133889823999999,0.785077652,-0.1443419416,0.2605155952,0.10096206579999999
03:30:31,-0.501263405,1.9418393800000002,-0.529982045,-0.026120415000000008,0.2515950349999999,-0.117957515,1.08869093,-30.177146949999997,-0.0012467600000001244,-176.7063444,-1.0314202175,1.9191458470999998,0.7822826330000001,-0.14575185640000002,0.26269482704999997,0.101976941325
03:30:31,-0.49404148999999986,1.9453500400000001,-0.5334126100000001,-0.02720707,0.25402402999999996,-0.11820786999999999,1.08253794,-30.175804099999997,0.005302919999999878,-176.71593520000002,-1.028956915,1.9249027118,0.7794876140000001,-0.14716177119999999,0.2648740589,0.10299181684999999
03:30:31,-0.48681957499999995,1.9488607,-0.536843175,-0.028293724999999992,0.256453025,-0.118458225,1.07638495,-30.17446125,0.01185259999999988,-176.725526,-1.0264936125,1.9306595764999999,0.7766925950000001,-0.148571686,0.26705329074999995,0.104006692375
03:30:31,-0.47959766000000004,1.9523713600000001,-0.5402737400000001,-0.02938038000000001,0.25888201999999993,-0.11870858000000001,1.0702319599999999,-30.1731184,0.018402279999999882,-176.73511680000001,-1.0240303099999999,1.9364164411999998,0.7738975760000001,-0.14998160080000003,0.26923252259999997,0.10502156789999999
03:30:31,-0.4723757449999999,1.9558820200000002,-0.543704305,-0.030467035000000003,0.261311015,-0.11895893499999999,1.06407897,-30.17177555,0.024951959999999884,-176.7447076,-1.0215670074999998,1.9421733059,0.7711025570000001,-0.1513915156,0.27141175445,0.106036443425
03:30:31,-0.46515383,1.95939268,-0.54713487,-0.031553689999999995,0.2637400099999999,-0.11920929,1.05792598,-30.1704327,0.031501639999999886,-176.7542984,-1.019103705,1.9479301705999998,0.7683075380000001,-0.15280143040000002,0.27359098629999995,0.10705131894999999
03:30:31,-0.45793191499999986,1.96290334,-0.550565435,-0.032640345000000015,0.26616900499999996,-0.119459645,1.05177299,-30.16908985,0.03805131999999989,-176.7638892,-1.0166404025,1.9536870353,0.7655125190000001,-0.1542113452,0.27577021814999997,0.108066194475
03:30:32,-0.45071,1.966414,-0.553996,-0.033727,0.268598,-0.11971,1.04562,-30.167747,0.044601,-176.77348,-1.0141771,1.9594439,0.7627175,-0.15562126,0.27794945,0.10908107
03:30:32,-0.444784035,1.96782035,-0.55401321,-0.035676585,0.267069225,-0.118000115,1.069072245,-30.169231035,0.07976366,-176.72049525,-1.009269525565,1.9608745804999999,0.758975964235,-0.155143686725,0.27637899132,0.10963037295
03:30:32,-0.43885807,1.9692267,-0.55403042,-0.03762617,0.26554045,-0.11629023,1.09252449,-30.17071507,0.11492632,-176.66751050000002,-1.00436195113,1.9623052609999998,0.75523442847,-0.15466611345,0.27480853264,0.1101796759
03:30:32,-0.432932105,1.97063305,-0.55404763,-0.039575755,0.264011675,-0.114580345,1.115976735,-30.172199104999997,0.15008897999999998,-176.61452575,-0.9994543766949999,1.9637359415,0.7514928927050001,-0.154188540175,0.27323807396,0.11072897885
03:30:32,-0.42700614,1.9720394,-0.55406484,-0.04152534,0.2624829,-0.11287045999999999,1.13942898,-30.173683139999998,0.18525164,-176.561541,-0.9945468022599999,1.965166622,0.7477513569400001,-0.15371096690000002,0.27166761528,0.1112782818
03:30:32,-0.421080175,1.97344575,-0.55408205,-0.043474925,0.260954125,-0.111160575,1.162881225,-30.175167175,0.2204143,-176.50855625,-0.9896392278249999,1.9665973024999999,0.744009821175,-0.15323339362500002,0.2700971566,0.11182758475
03:30:32,-0.41515420999999997,1.9748521,-0.5540992600000001,-0.04542451,0.25942535,-0.10945068999999999,1.18633347,-30.17665121,0.25557695999999996,-176.45557150000002,-0.9847316533899999,1.9680279829999998,0.74026828541,-0.15275582035000002,0.26852669792,0.1123768877
03:30:32,-0.409228245,1.97625845,-0.5541164700000001,-0.047374095,0.257896575,-0.107740805,1.209785715,-30.178135245,0.29073962,-176.40258675,-0.9798240789549999,1.9694586635,0.7365267496450001,-0.152278247075,0.26695623924,0.11292619065000001
03:30:32,-0.40330228,1.9776648000000001,-0.5541336800000001,-0.04932368,0.2563678,-0.10603092,1.2332379599999999,-30.179619279999997,0.32590228,-176.349602,-0.9749165045199999,1.970889344,0.7327852138800001,-0.1518006738,0.26538578056,0.1134754936
03:30:32,-0.397376315,1.97907115,-0.5541508900000001,-0.051273265,0.254839025,-0.10432103499999999,1.256690205,-30.181103314999998,0.36106494,-176.29661725,-0.970008930085,1.9723200244999999,0.729043678115,-0.151323100525,0.26381532188,0.11402479655
03:30:32,-0.39145035,1.9804775000000001,-0.5541681,-0.05322285,0.25331025,-0.10261115,1.28014245,-30.18258735,0.3962276,-176.24363250000002,-0.96510135565,1.9737507049999998,0.72530214235,-0.15084552725,0.26224486319999996,0.1145740995
03:30:32,-0.38552438499999997,1.98188385,-0.55418531,-0.055172435,0.25178147500000003,-0.10090126499999999,1.303594695,-30.184071385,0.43139025999999997,-176.19064775,-0.960193781215,1.9751813855,0.7215606065850001,-0.15036795397500002,0.26067440452,0.11512340245
03:30:32,-0.37959842,1.9832902000000001,-0.55420252,-0.057122019999999996,0.2502527,-0.09919138,1.32704694,-30.18555542,0.46655292,-176.137663,-0.95528620678,1.976612066,0.7178190708200001,-0.14989038070000002,0.25910394583999996,0.1156727054
03:30:32,-0.373672455,1.98469655,-0.55421973,-0.059071605,0.248723925,-0.097481495,1.3504991849999999,-30.187039454999997,0.5017155799999999,-176.08467825,-0.950378632345,1.9780427465,0.714077535055,-0.14941280742500002,0.25753348715999996,0.11622200835
03:30:32,-0.36774649,1.9861029000000001,-0.55423694,-0.06102119,0.24719515,-0.09577161,1.37395143,-30.188523489999998,0.53687824,-176.03169350000002,-0.94547105791,1.9794734269999998,0.71033599929,-0.14893523415,0.25596302847999997,0.1167713113
03:30:32,-0.361820525,1.98750925,-0.55425415,-0.062970775,0.245666375,-0.094061725,1.397403675,-30.190007525,0.5720409,-175.97870875,-0.940563483475,1.9809041075,0.706594463525,-0.148457660875,0.25439256979999997,0.11732061425
03:30:32,-0.35589455999999997,1.9889156000000001,-0.55427136,-0.06492036,0.2441376,-0.09235183999999999,1.42085592,-30.19149156,0.60720356,-175.925724,-0.93565590904,1.982334788,0.7028529277600001,-0.1479800876,0.25282211111999997,0.11786991720000001
03:30:32,-0.349968595,1.99032195,-0.5542885700000001,-0.066869945,0.242608825,-0.090641955,1.4443081649999998,-30.192975595,0.64236622,-175.87273925,-0.930748334605,1.9837654685,0.699111391995,-0.147502514325,0.25125165244,0.11841922015
03:30:32,-0.34404263,1.9917283000000001,-0.5543057800000001,-0.06881952999999999,0.24108005,-0.08893207,1.46776041,-30.194459629999997,0.67752888,-175.81975450000002,-0.9258407601699999,1.9851961489999999,0.69536985623,-0.14702494105000002,0.24968119375999998,0.1189685231
03:30:32,-0.338116665,1.99313465,-0.5543229900000001,-0.070769115,0.239551275,-0.08722218500000001,1.491212655,-30.195943664999998,0.71269154,-175.76676975,-0.9209331857349999,1.9866268294999998,0.691628320465,-0.14654736777500002,0.24811073507999998,0.11951782605
03:30:32,-0.3321907,1.9945410000000001,-0.5543402000000001,-0.0727187,0.2380225,-0.0855123,1.5146648999999999,-30.1974277,0.7478542,-175.713785,-0.9160256112999999,1.98805751,0.6878867847000001,-0.14606979450000002,0.24654027639999998,0.120067129
03:30:32,-0.326264735,1.99594735,-0.55435741,-0.074668285,0.236493725,-0.08380241499999999,1.538117145,-30.198911735,0.7830168599999999,-175.66080025,-0.9111180368649999,1.9894881905,0.6841452489350001,-0.145592221225,0.24496981771999998,0.12061643195
03:30:32,-0.32033877,1.9973537000000001,-0.55437462,-0.07661787,0.23496495,-0.08209253,1.5615693899999998,-30.20039577,0.8181795199999999,-175.60781550000002,-0.9062104624299999,1.9909188709999999,0.68040371317,-0.14511464795,0.24339935903999999,0.1211657349
03:30:32,-0.314412805,1.99876005,-0.55439183,-0.07856745500000001,0.233436175,-0.080382645,1.585021635,-30.201879804999997,0.85334218,-175.55483075,-0.901302887995,1.9923495514999998,0.676662177405,-0.144637074675,0.24182890036,0.12171503785
03:30:32,-0.30848684,2.0001664,-0.55440904,-0.08051704,0.23190739999999999,-0.07867276,1.60847388,-30.203363839999998,0.88850484,-175.501846,-0.89639531356,1.993780232,0.67292064164,-0.1441595014,0.24025844168,0.12226434080000001
03:30:32,-0.302560875,2.0015727500000002,-0.55442625,-0.082466625,0.230378625,-0.076962875,1.631926125,-30.204847875,0.9236675,-175.44886125,-0.891487739125,1.9952109125,0.6691791058750001,-0.14368192812500002,0.238687983,0.12281364375
03:30:32,-0.29663491,2.0029791,-0.55444346,-0.08441620999999999,0.22884985,-0.07525298999999999,1.6553783699999998,-30.20633191,0.95883016,-175.3958765,-0.88658016469,1.9966415929999999,0.66543757011,-0.14320435485000002,0.23711752432,0.1233629467
03:30:32,-0.290708945,2.00438545,-0.55446067,-0.086365795,0.227321075,-0.073543105,1.6788306149999999,-30.207815945,0.99399282,-175.34289175,-0.881672590255,1.9980722734999998,0.661696034345,-0.14272678157500002,0.23554706564,0.12391224965
03:30:32,-0.28478298,2.0057918,-0.5544778800000001,-0.08831538,0.2257923,-0.07183322,1.70228286,-30.209299979999997,1.02915548,-175.289907,-0.87676501582,1.999502954,0.6579544985800001,-0.1422492083,0.23397660696,0.1244615526
03:30:32,-0.278857015,2.0071981500000002,-0.5544950900000001,-0.090264965,0.22426352500000002,-0.070123335,1.725735105,-30.210784014999998,1.0643181400000001,-175.23692225000002,-0.871857441385,2.0009336345,0.6542129628150001,-0.141771635025,0.23240614827999997,0.12501085555
03:30:32,-0.27293105,2.0086045,-0.5545123000000001,-0.09221455,0.22273475,-0.06841345,1.74918735,-30.21226805,1.0994807999999998,-175.1839375,-0.86694986695,2.002364315,0.65047142705,-0.14129406175,0.23083568959999998,0.1255601585
03:30:32,-0.267005085,2.01001085,-0.5545295100000001,-0.09416413500000001,0.221205975,-0.06670356499999999,1.7726395949999998,-30.213752085,1.13464346,-175.13095275,-0.862042292515,2.0037949955,0.646729891285,-0.140816488475,0.22926523091999998,0.12610946145000002
03:30:32,-0.26107912,2.0114172,-0.55454672,-0.09611372,0.21967720000000002,-0.06499368,1.7960918399999999,-30.21523612,1.16980612,-175.077968,-0.85713471808,2.005225676,0.64298835552,-0.14033891520000003,0.22769477223999998,0.1266587644
03:30:32,-0.255153155,2.0128235500000002,-0.55456393,-0.09806330499999999,0.218148425,-0.063283795,1.819544085,-30.216720154999997,1.2049687799999997,-175.02498325000002,-0.852227143645,2.0066563564999997,0.6392468197550001,-0.13986134192500002,0.22612431355999998,0.12720806735
03:30:32,-0.24922719,2.0142299,-0.55458114,-0.10001289,0.21661965,-0.061573909999999996,1.8429963299999998,-30.218204189999998,1.2401314399999999,-174.9719985,-0.84731956921,2.008087037,0.6355052839900001,-0.13938376865000002,0.22455385488,0.1277573703
03:30:32,-0.243301225,2.01563625,-0.55459835,-0.101962475,0.21509087500000001,-0.059864025,1.8664485749999997,-30.219688225,1.2752941,-174.91901375,-0.842411994775,2.0095177175,0.631763748225,-0.138906195375,0.2229833962,0.12830667325
03:30:32,-0.23737526,2.0170426,-0.55461556,-0.10391206,0.2135621,-0.05815414,1.8899008199999998,-30.22117226,1.31045676,-174.866029,-0.8375044203399999,2.010948398,0.62802221246,-0.1384286221,0.22141293751999996,0.1288559762
03:30:32,-0.231449295,2.0184489500000002,-0.55463277,-0.105861645,0.212033325,-0.056444255,1.913353065,-30.222656295,1.3456194199999998,-174.81304425000002,-0.8325968459049999,2.0123790785,0.624280676695,-0.137951048825,0.21984247883999997,0.12940527915
03:30:32,-0.22552333,2.0198553,-0.55464998,-0.10781123000000001,0.21050455,-0.054734370000000004,1.93680531,-30.224140329999997,1.38078208,-174.7600595,-0.8276892714699999,2.013809759,0.6205391409300001,-0.13747347555,0.21827202015999997,0.1299545821
03:30:32,-0.219597365,2.02126165,-0.5546671900000001,-0.10976081500000001,0.208975775,-0.053024484999999996,1.9602575549999999,-30.225624364999998,1.41594474,-174.70707475,-0.8227816970349999,2.0152404395,0.616797605165,-0.13699590227500003,0.21670156147999997,0.13050388505
03:30:32,-0.2136714,2.022668,-0.5546844000000001,-0.11171039999999999,0.207447,-0.0513146,1.9837097999999997,-30.2271084,1.4511074000000002,-174.65409,-0.8178741225999999,2.01667112,0.6130560694,-0.13651832900000002,0.21513110279999997,0.131053188
03:30:32,-0.207745435,2.0240743500000002,-0.5547016100000001,-0.11365998499999999,0.205918225,-0.049604714999999994,2.007162045,-30.228592435,1.4862700599999998,-174.60110525000002,-0.8129665481649999,2.0181018004999998,0.6093145336350001,-0.13604075572500002,0.21356064411999998,0.13160249095
03:30:32,-0.20181947,2.0254807,-0.5547188200000001,-0.11560957,0.20438945,-0.04789483,2.03061429,-30.23007647,1.52143272,-174.5481205,-0.8080589737299999,2.0195324809999997,0.6055729978700001,-0.13556318245,0.21199018543999998,0.1321517939
03:30:32,-0.19589350500000002,2.02688705,-0.55473603,-0.117559155,0.202860675,-0.046184945000000005,2.0540665349999996,-30.231560504999997,1.55659538,-174.49513575,-0.803151399295,2.0209631615,0.601831462105,-0.135085609175,0.21041972675999998,0.13270109685
03:30:32,-0.18996754,2.0282934,-0.55475324,-0.11950874,0.2013319,-0.04447506,2.07751878,-30.233044539999998,1.5917580399999998,-174.442151,-0.79824382486,2.022393842,0.59808992634,-0.1346080359,0.20884926807999998,0.1332503998
03:30:32,-0.184041575,2.0296997500000002,-0.55477045,-0.121458325,0.199803125,-0.042765175,2.1009710249999998,-30.234528575,1.6269206999999999,-174.38916625000002,-0.793336250425,2.0238245225,0.594348390575,-0.134130462625,0.20727880939999999,0.13379970275
03:30:32,-0.17811560999999998,2.0311061,-0.55478766,-0.12340791000000001,0.19827435,-0.041055289999999994,2.12442327,-30.23601261,1.66208336,-174.3361815,-0.78842867599,2.025255203,0.5906068548100001,-0.13365288935000003,0.20570835072,0.1343490057
03:30:32,-0.172189645,2.03251245,-0.55480487,-0.125357495,0.196745575,-0.039345405,2.147875515,-30.237496645,1.6972460200000001,-174.28319675,-0.783521101555,2.0266858835,0.5868653190450001,-0.13317531607500002,0.20413789204,0.13489830865
03:30:32,-0.16626367999999997,2.0339188,-0.55482208,-0.12730708,0.1952168,-0.03763551999999999,2.1713277599999996,-30.238980679999997,1.7324086799999998,-174.230212,-0.77861352712,2.028116564,0.58312378328,-0.13269774280000002,0.20256743336,0.13544761160000002
03:30:32,-0.160337715,2.0353251500000002,-0.55483929,-0.129256665,0.19368802499999999,-0.035925635,2.194780005,-30.240464714999998,1.76757134,-174.17722725000002,-0.773705952685,2.0295472445,0.579382247515,-0.13222016952500001,0.20099697468,0.13599691455000001
03:30:32,-0.15441175000000001,2.0367315,-0.5548565000000001,-0.13120625,0.19215925,-0.03421575,2.21823225,-30.24194875,1.802734,-174.1242425,-0.76879837825,2.0309779249999997,0.57564071175,-0.13174259625,0.199426516,0.1365462175
03:30:32,-0.14848578499999998,2.03813785,-0.5548737100000001,-0.133155835,0.19063047500000002,-0.032505864999999995,2.241684495,-30.243432785,1.8378966599999997,-174.07125775,-0.763890803815,2.0324086054999997,0.5718991759850001,-0.131265022975,0.19785605731999997,0.13709552045
03:30:32,-0.14255982,2.0395442,-0.5548909200000001,-0.13510542,0.18910169999999998,-0.03079598,2.26513674,-30.24491682,1.8730593199999999,-174.01827300000002,-0.75898322938,2.033839286,0.56815764022,-0.1307874497,0.19628559863999998,0.1376448234
03:30:32,-0.13663385499999997,2.0409505500000003,-0.55490813,-0.137055005,0.187572925,-0.029086094999999992,2.2885889849999996,-30.246400854999997,1.90822198,-173.96528825000001,-0.7540756549450001,2.0352699665,0.564416104455,-0.13030987642500003,0.19471513995999998,0.13819412635
03:30:32,-0.13070789,2.0423569,-0.55492534,-0.13900459,0.18604415000000002,-0.027376209999999998,2.3120412299999997,-30.247884889999998,1.94338464,-173.9123035,-0.7491680805100001,2.036700647,0.5606745686900001,-0.12983230315000002,0.19314468127999998,0.1387434293
03:30:32,-0.12478192500000002,2.04376325,-0.55494255,-0.140954175,0.184515375,-0.025666325000000004,2.335493475,-30.249368925,1.9785472999999998,-173.85931875,-0.744260506075,2.0381313275,0.5569330329250001,-0.12935472987500002,0.19157422259999998,0.13929273225
03:30:32,-0.11885595999999998,2.0451696,-0.55495976,-0.14290376,0.1829866,-0.023956439999999996,2.35894572,-30.25085296,2.01370996,-173.80633400000002,-0.73935293164,2.039562008,0.55319149716,-0.12887715660000001,0.19000376391999999,0.1398420352
03:30:32,-0.112929995,2.0465759500000003,-0.55497697,-0.144853345,0.18145782500000002,-0.022246555,2.382397965,-30.252336995,2.04887262,-173.75334925,-0.734445357205,2.0409926885,0.549449961395,-0.128399583325,0.18843330523999996,0.14039133815
