Timestamp,linacce_x,linacce_y,linacce_z,gyro_x,gyro_y,gyro_z,X-magnetometer,Y-magnetometer,Z-magnetometer,Yaw, worldXAccel,worldYAccel,worldZAccel,worldXgyro,worldYgyro,worldZgyro
09:57:04,-0.799268,-0.452569,0.303144,-0.034457,0.155048,-0.253783,-28.516254,-3.623726,-9.163124,88.7331,-0.39070684,-0.55235136,0.86187243,-0.19881299,0.1709299,-0.102347136
09:57:04,-0.798593535,-0.45172658,0.30154907000000003,-0.032017355000000004,0.15470709,-0.25252056,-28.50217491,-3.6203556,-9.15918479,88.71445647499999,-0.3909902386,-0.5512109304499999,0.86094746335,-0.19629960845,0.17065315949999998,-0.10378373832
09:57:04,-0.79791907,-0.45088416,0.29995414000000004,-0.02957771,0.15436618,-0.25125812,-28.48809582,-3.6169852,-9.155245579999999,88.69581294999999,-0.3912736372,-0.5500705009,0.8600224967,-0.1937862269,0.170376419,-0.10522034064
09:57:04,-0.7972446049999999,-0.45004174,0.29835921000000004,-0.027138065000000003,0.15402527,-0.24999567999999997,-28.47401673,-3.6136148,-9.15130637,88.67716942499999,-0.3915570358,-0.5489300713499999,0.85909753005,-0.19127284535,0.1700996785,-0.10665694296
09:57:04,-0.7965701399999999,-0.44919932,0.29676428000000005,-0.024698420000000002,0.15368436,-0.24873324,-28.45993764,-3.6102444,-9.14736716,88.65852589999999,-0.3918404344,-0.5477896418,0.8581725634,-0.1887594638,0.169822938,-0.10809354528000001
09:57:04,-0.795895675,-0.4483569,0.29516935,-0.022258775,0.15334345,-0.2474708,-28.44585855,-3.606874,-9.14342795,88.639882375,-0.392123833,-0.54664921225,0.8572475967500001,-0.18624608225,0.1695461975,-0.1095301476
09:57:04,-0.79522121,-0.44751448,0.29357442,-0.019819130000000004,0.15300254,-0.24620836,-28.43177946,-3.6035036,-9.139488739999999,88.62123885,-0.3924072316,-0.5455087826999999,0.8563226301,-0.1837327007,0.16926945699999998,-0.11096674992000001
09:57:04,-0.794546745,-0.44667206,0.29197949,-0.017379485000000004,0.15266163,-0.24494591999999998,-28.41770037,-3.6001332,-9.13554953,88.602595325,-0.3926906302,-0.54436835315,0.85539766345,-0.18121931915,0.1689927165,-0.11240335224
09:57:04,-0.79387228,-0.44582963999999997,0.29038456,-0.014939840000000003,0.15232072,-0.24368347999999998,-28.40362128,-3.5967628,-9.13161032,88.5839518,-0.3929740288,-0.5432279235999999,0.8544726968,-0.1787059376,0.168715976,-0.11383995456000001
09:57:04,-0.793197815,-0.44498722,0.28878963,-0.012500195000000002,0.15197981,-0.24242103999999998,-28.38954219,-3.5933924,-9.12767111,88.56530827499999,-0.3932574274,-0.54208749405,0.8535477301500001,-0.17619255605,0.1684392355,-0.11527655688
09:57:04,-0.79252335,-0.4441448,0.2871947,-0.010060550000000001,0.1516389,-0.24115859999999997,-28.3754631,-3.590022,-9.1237319,88.54666474999999,-0.393540826,-0.5409470645,0.8526227635,-0.17367917449999998,0.168162495,-0.1167131592
09:57:04,-0.791848885,-0.44330238,0.28559977000000003,-0.007620905000000004,0.15129799,-0.23989615999999997,-28.36138401,-3.5866516,-9.11979269,88.52802122499999,-0.3938242246,-0.5398066349499999,0.85169779685,-0.17116579295,0.16788575449999998,-0.11814976152000001
09:57:04,-0.7911744199999999,-0.44245996,0.28400484000000004,-0.0051812600000000035,0.15095708,-0.23863372,-28.34730492,-3.5832812,-9.11585348,88.50937769999999,-0.3941076232,-0.5386662054,0.8507728302,-0.16865241139999998,0.167609014,-0.11958636384
09:57:04,-0.790499955,-0.44161754,0.28240991000000004,-0.002741615000000003,0.15061617,-0.23737128,-28.33322583,-3.5799108,-9.11191427,88.490734175,-0.3943910218,-0.5375257758499999,0.84984786355,-0.16613902985,0.1673322735,-0.12102296616000001
09:57:04,-0.78982549,-0.44077512,0.28081498000000005,-0.00030197000000000557,0.15027526,-0.23610884,-28.31914674,-3.5765404,-9.10797506,88.47209065,-0.3946744204,-0.5363853463,0.8489228969,-0.16362564829999998,0.167055533,-0.12245956848
09:57:04,-0.789151025,-0.4399327,0.27922005,0.0021376749999999986,0.14993435,-0.23484639999999998,-28.30506765,-3.57317,-9.10403585,88.453447125,-0.394957819,-0.53524491675,0.84799793025,-0.16111226674999998,0.1667787925,-0.12389617080000001
09:57:04,-0.78847656,-0.43909028,0.27762512,0.004577319999999996,0.14959344,-0.23358395999999998,-28.29098856,-3.5697996,-9.10009664,88.4348036,-0.39524121759999997,-0.5341044871999999,0.8470729636000001,-0.15859888519999998,0.16650205199999998,-0.12533277312000002
09:57:04,-0.787802095,-0.43824786,0.27603019,0.007016964999999993,0.14925253,-0.23232151999999998,-28.27690947,-3.5664292,-9.09615743,88.416160075,-0.3955246162,-0.53296405765,0.84614799695,-0.15608550364999998,0.1662253115,-0.12676937544
09:57:04,-0.78712763,-0.43740544,0.27443526,0.009456609999999997,0.14891162,-0.23105907999999997,-28.26283038,-3.5630588,-9.09221822,88.39751654999999,-0.3958080148,-0.5318236281,0.8452230303,-0.15357212209999999,0.165948571,-0.12820597776
09:57:04,-0.786453165,-0.43656302,0.27284033,0.011896254999999994,0.14857071,-0.22979664,-28.24875129,-3.5596884,-9.088279009999999,88.37887302499999,-0.3960914134,-0.53068319855,0.84429806365,-0.15105874055,0.1656718305,-0.12964258008
09:57:04,-0.7857786999999999,-0.4357206,0.2712454,0.014335899999999999,0.1482298,-0.2285342,-28.2346722,-3.556318,-9.0843398,88.36022949999999,-0.396374812,-0.529542769,0.843373097,-0.148545359,0.16539509,-0.1310791824
09:57:04,-0.785104235,-0.43487818,0.26965047000000003,0.016775544999999996,0.14788889,-0.22727176,-28.22059311,-3.5529476,-9.08040059,88.341585975,-0.3966582106,-0.5284023394499999,0.84244813035,-0.14603197745,0.16511834949999998,-0.13251578472
09:57:04,-0.78442977,-0.43403576,0.26805554000000004,0.019215189999999993,0.14754798,-0.22600931999999999,-28.20651402,-3.5495772,-9.07646138,88.32294245,-0.3969416092,-0.5272619099,0.8415231637,-0.1435185959,0.164841609,-0.13395238704
09:57:04,-0.783755305,-0.43319334,0.26646061000000004,0.021654834999999997,0.14720707,-0.22474687999999998,-28.19243493,-3.5462068,-9.07252217,88.304298925,-0.3972250078,-0.52612148035,0.84059819705,-0.14100521435,0.1645648685,-0.13538898936
09:57:04,-0.78308084,-0.43235091999999997,0.26486568,0.024094479999999995,0.14686616,-0.22348443999999998,-28.17835584,-3.5428364,-9.06858296,88.2856554,-0.3975084064,-0.5249810508,0.8396732304,-0.1384918328,0.164288128,-0.13682559168
09:57:04,-0.782406375,-0.4315085,0.26327075,0.026534124999999992,0.14652525,-0.22222199999999998,-28.16427675,-3.539466,-9.06464375,88.267011875,-0.397791805,-0.52384062125,0.83874826375,-0.13597845125,0.1640113875,-0.138262194
09:57:04,-0.78173191,-0.43066608,0.26167582,0.028973769999999996,0.14618434,-0.22095956,-28.15019766,-3.5360956,-9.06070454,88.24836834999999,-0.3980752036,-0.5227001916999999,0.8378232971,-0.1334650697,0.16373464699999998,-0.13969879632
09:57:04,-0.781057445,-0.42982366,0.26008089,0.031413415,0.14584343,-0.21969711999999997,-28.13611857,-3.5327252,-9.05676533,88.22972482499999,-0.3983586022,-0.52155976215,0.8368983304500001,-0.13095168814999997,0.1634579065,-0.14113539864000002
09:57:04,-0.78038298,-0.42898124,0.25848596,0.03385305999999999,0.14550252,-0.21843468,-28.12203948,-3.5293548,-9.05282612,88.21108129999999,-0.3986420008,-0.5204193326,0.8359733638,-0.1284383066,0.163181166,-0.14257200096
09:57:04,-0.7797085149999999,-0.42813882,0.25689103,0.036292704999999995,0.14516161,-0.21717224,-28.10796039,-3.5259844,-9.04888691,88.19243777499999,-0.3989253994,-0.51927890305,0.83504839715,-0.12592492504999997,0.1629044255,-0.14400860328
09:57:04,-0.77903405,-0.4272964,0.2552961,0.03873235,0.1448207,-0.21590979999999999,-28.0938813,-3.522614,-9.0449477,88.17379425,-0.399208798,-0.5181384735,0.8341234305,-0.12341154349999998,0.162627685,-0.14544520560000002
09:57:04,-0.778359585,-0.42645398,0.25370117000000003,0.04117199499999999,0.14447979,-0.21464735999999998,-28.07980221,-3.5192436,-9.04100849,88.155150725,-0.3994921966,-0.5169980439499999,0.83319846385,-0.12089816194999999,0.16235094449999998,-0.14688180792
09:57:04,-0.77768512,-0.42561156,0.25210624000000004,0.04361163999999999,0.14413888,-0.21338491999999998,-28.06572312,-3.5158732,-9.03706928,88.1365072,-0.3997755952,-0.5158576144,0.8322734972,-0.11838478039999999,0.162074204,-0.14831841024
09:57:04,-0.777010655,-0.42476914,0.25051131000000004,0.046051285,0.14379797,-0.21212248,-28.05164403,-3.5125028,-9.03313007,88.117863675,-0.4000589938,-0.51471718485,0.83134853055,-0.11587139884999999,0.1617974635,-0.14975501256
09:57:04,-0.77633619,-0.42392672,0.24891638000000002,0.04849092999999999,0.14345706,-0.21086003999999997,-28.03756494,-3.5091324,-9.02919086,88.09922015,-0.4003423924,-0.5135767553,0.8304235639,-0.11335801729999999,0.161520723,-0.15119161488
09:57:04,-0.775661725,-0.42308429999999997,0.24732145,0.05093057499999999,0.14311615,-0.2095976,-28.02348585,-3.505762,-9.02525165,88.08057662499999,-0.400625791,-0.51243632575,0.82949859725,-0.11084463574999999,0.1612439825,-0.1526282172
09:57:04,-0.77498726,-0.42224188,0.24572652,0.053370219999999996,0.14277524,-0.20833516,-28.00940676,-3.5023916,-9.021312439999999,88.06193309999999,-0.4009091896,-0.5112958961999999,0.8285736306,-0.10833125419999999,0.160967242,-0.15406481952
09:57:04,-0.7743127949999999,-0.42139946,0.24413159,0.055809864999999986,0.14243433,-0.20707272,-27.99532767,-3.4990212,-9.01737323,88.04328957499999,-0.4011925882,-0.51015546665,0.82764866395,-0.10581787264999999,0.1606905015,-0.15550142184
09:57:04,-0.77363833,-0.42055704,0.24253666000000002,0.05824950999999999,0.14209342,-0.20581027999999998,-27.98124858,-3.4956508,-9.01343402,88.02464605,-0.4014759868,-0.5090150371,0.8267236973000001,-0.10330449109999998,0.160413761,-0.15693802416
09:57:04,-0.772963865,-0.41971462,0.24094173000000002,0.060689154999999995,0.14175251,-0.20454783999999998,-27.96716949,-3.4922804,-9.00949481,88.006002525,-0.4017593854,-0.50787460755,0.82579873065,-0.10079110954999998,0.1601370205,-0.15837462648
09:57:04,-0.7722894,-0.4188722,0.23934680000000003,0.0631288,0.1414116,-0.20328539999999998,-27.9530904,-3.48891,-9.0055556,87.987359,-0.402042784,-0.506734178,0.824873764,-0.09827772799999998,0.15986028,-0.1598112288
09:57:04,-0.771614935,-0.41802978,0.23775187000000003,0.06556844499999999,0.14107069,-0.20202295999999997,-27.93901131,-3.4855396,-9.00161639,87.968715475,-0.40232618259999997,-0.5055937484499999,0.82394879735,-0.09576434644999998,0.15958353949999998,-0.16124783112000002
09:57:04,-0.77094047,-0.41718736,0.23615694,0.06800809,0.14072978,-0.20076052,-27.92493222,-3.4821692,-8.99767718,87.95007195,-0.4026095812,-0.5044533189,0.8230238307,-0.09325096489999998,0.159306799,-0.16268443344
09:57:04,-0.770266005,-0.41634494,0.23456201000000002,0.070447735,0.14038887,-0.19949808,-27.91085313,-3.4787988,-8.99373797,87.931428425,-0.4028929798,-0.50331288935,0.82209886405,-0.09073758334999998,0.1590300585,-0.16412103576
09:57:04,-0.76959154,-0.41550252,0.23296708,0.07288737999999999,0.14004796,-0.19823564,-27.89677404,-3.4754284,-8.98979876,87.91278489999999,-0.4031763784,-0.5021724597999999,0.8211738974,-0.08822420179999999,0.158753318,-0.16555763808
09:57:04,-0.768917075,-0.4146601,0.23137215,0.07532702499999999,0.13970705,-0.1969732,-27.88269495,-3.472058,-8.98585955,87.89414137499999,-0.403459777,-0.50103203025,0.82024893075,-0.08571082024999999,0.1584765775,-0.1669942404
09:57:04,-0.76824261,-0.41381767999999997,0.22977722,0.07776667,0.13936614,-0.19571075999999998,-27.86861586,-3.4686876,-8.98192034,87.87549785,-0.4037431756,-0.4998916007,0.8193239641,-0.08319743869999999,0.158199837,-0.16843084272
09:57:04,-0.767568145,-0.41297526,0.22818229,0.08020631499999999,0.13902523,-0.19444831999999998,-27.85453677,-3.4653172,-8.97798113,87.856854325,-0.4040265742,-0.49875117115,0.81839899745,-0.08068405714999999,0.1579230965,-0.16986744504
09:57:04,-0.76689368,-0.41213284,0.22658736000000002,0.08264595999999999,0.13868432,-0.19318587999999998,-27.84045768,-3.4619467999999998,-8.97404192,87.8382108,-0.4043099728,-0.49761074159999996,0.8174740308,-0.07817067559999999,0.157646356,-0.17130404736
09:57:04,-0.766219215,-0.41129042,0.22499243000000002,0.085085605,0.13834341,-0.19192344,-27.82637859,-3.4585764,-8.97010271,87.819567275,-0.4045933714,-0.49647031205,0.81654906415,-0.07565729404999998,0.1573696155,-0.17274064968
09:57:04,-0.76554475,-0.410448,0.22339750000000003,0.08752524999999999,0.1380025,-0.19066099999999997,-27.8122995,-3.455206,-8.9661635,87.80092375,-0.40487677,-0.4953298825,0.8156240975,-0.07314391249999999,0.157092875,-0.174177252
09:57:04,-0.764870285,-0.40960558,0.22180257,0.08996489499999999,0.13766159,-0.18939856,-27.79822041,-3.4518356,-8.96222429,87.782280225,-0.4051601686,-0.49418945295,0.81469913085,-0.07063053094999999,0.15681613449999998,-0.17561385431999998
09:57:04,-0.76419582,-0.40876316,0.22020764,0.09240454,0.13732068,-0.18813612,-27.78414132,-3.4484652000000002,-8.95828508,87.76363669999999,-0.4054435672,-0.4930490234,0.8137741642,-0.0681171494,0.156539394,-0.17705045664000002
09:57:04,-0.763521355,-0.40792074,0.21861271000000002,0.09484418499999998,0.13697977,-0.18687368,-27.77006223,-3.4450948,-8.95434587,87.74499317499999,-0.4057269658,-0.49190859384999996,0.81284919755,-0.06560376785,0.1562626535,-0.17848705896
09:57:04,-0.76284689,-0.40707832,0.21701778,0.09728383,0.13663886,-0.18561123999999998,-27.75598314,-3.4417244,-8.95040666,87.72634964999999,-0.4060103644,-0.4907681643,0.8119242309,-0.06309038629999997,0.155985913,-0.17992366128
09:57:04,-0.762172425,-0.4062359,0.21542285,0.09972347499999999,0.13629795,-0.18434879999999998,-27.74190405,-3.438354,-8.94646745,87.707706125,-0.406293763,-0.48962773475,0.81099926425,-0.06057700474999997,0.1557091725,-0.18136026360000002
09:57:04,-0.76149796,-0.40539348,0.21382792,0.10216311999999998,0.13595704,-0.18308636,-27.72782496,-3.4349836,-8.94252824,87.6890626,-0.4065771616,-0.48848730519999994,0.8100742976,-0.05806362319999997,0.155432432,-0.18279686592
09:57:04,-0.760823495,-0.40455106,0.21223299,0.104602765,0.13561613,-0.18182391999999997,-27.71374587,-3.4316132,-8.93858903,87.670419075,-0.4068605602,-0.48734687565,0.80914933095,-0.05555024164999997,0.1551556915,-0.18423346824
09:57:04,-0.76014903,-0.40370864,0.21063806000000002,0.10704240999999999,0.13527522,-0.18056148,-27.69966678,-3.4282428,-8.93464982,87.65177555,-0.4071439588,-0.48620644609999997,0.8082243643,-0.05303686009999997,0.154878951,-0.18567007056
09:57:04,-0.759474565,-0.40286622,0.20904313000000002,0.10948205499999998,0.13493431,-0.17929904,-27.68558769,-3.4248724,-8.93071061,87.633132025,-0.4074273574,-0.48506601655,0.80729939765,-0.05052347854999997,0.1546022105,-0.18710667288
09:57:04,-0.7588001,-0.4020238,0.20744820000000003,0.1119217,0.1345934,-0.1780366,-27.6715086,-3.421502,-8.9267714,87.6144885,-0.407710756,-0.483925587,0.8063744310000001,-0.048010096999999974,0.15432547,-0.1885432752
09:57:04,-0.758125635,-0.40118138,0.20585327,0.11436134499999999,0.13425249,-0.17677415999999999,-27.65742951,-3.4181316,-8.92283219,87.59584497499999,-0.4079941546,-0.48278515744999995,0.80544946435,-0.045496715449999975,0.15404872949999998,-0.18997987752
09:57:04,-0.75745117,-0.40033896,0.20425834,0.11680098999999998,0.13391158,-0.17551171999999998,-27.64335042,-3.4147612,-8.91889298,87.57720144999999,-0.4082775532,-0.4816447279,0.8045244977,-0.042983333899999976,0.153771989,-0.19141647984
09:57:04,-0.756776705,-0.39949654,0.20266341,0.119240635,0.13357067,-0.17424928,-27.62927133,-3.4113908,-8.91495377,87.558557925,-0.4085609518,-0.48050429834999997,0.80359953105,-0.04046995234999998,0.1534952485,-0.19285308216000002
09:57:04,-0.75610224,-0.39865412,0.20106848,0.12168027999999999,0.13322976,-0.17298683999999998,-27.61519224,-3.4080204,-8.91101456,87.5399144,-0.4088443504,-0.4793638688,0.8026745644,-0.03795657079999998,0.153218508,-0.19428968448
09:57:04,-0.755427775,-0.3978117,0.19947355,0.12411992499999998,0.13288885,-0.1717244,-27.60111315,-3.40465,-8.90707535,87.521270875,-0.409127749,-0.47822343925,0.80174959775,-0.03544318924999998,0.1529417675,-0.19572628679999998
09:57:04,-0.75475331,-0.39696928,0.19787862,0.12655957,0.13254794,-0.17046196,-27.58703406,-3.4012796,-8.90313614,87.50262735,-0.40941114759999997,-0.47708300969999995,0.8008246311,-0.03292980769999998,0.152665027,-0.19716288912000002
09:57:04,-0.754078845,-0.39612685999999997,0.19628369,0.128999215,0.13220703,-0.16919952,-27.57295497,-3.3979092,-8.89919693,87.483983825,-0.4096945462,-0.47594258015,0.79989966445,-0.03041642614999998,0.1523882865,-0.19859949144
09:57:04,-0.75340438,-0.39528444,0.19468876000000002,0.13143886,0.13186612,-0.16793708,-27.55887588,-3.3945388,-8.89525772,87.4653403,-0.4099779448,-0.4748021506,0.7989746978,-0.027903044599999982,0.152111546,-0.20003609376
09:57:04,-0.752729915,-0.39444202,0.19309383000000002,0.13387850499999998,0.13152521,-0.16667463999999999,-27.54479679,-3.3911684,-8.89131851,87.44669677499999,-0.4102613434,-0.47366172105,0.79804973115,-0.025389663049999983,0.1518348055,-0.20147269608
09:57:04,-0.75205545,-0.3935996,0.1914989,0.13631814999999997,0.1311843,-0.1654122,-27.5307177,-3.387798,-8.8873793,87.42805324999999,-0.410544742,-0.4725212915,0.7971247645,-0.022876281499999984,0.151558065,-0.2029092984
09:57:04,-0.751380985,-0.39275718,0.18990397,0.13875779499999996,0.13084339,-0.16414975999999998,-27.51663861,-3.3844276,-8.88344009,87.409409725,-0.4108281406,-0.47138086194999995,0.79619979785,-0.020362899949999985,0.1512813245,-0.20434590072
09:57:04,-0.75070652,-0.39191476,0.18830904,0.14119744,0.13050248,-0.16288732,-27.50255952,-3.3810572,-8.87950088,87.3907662,-0.4111115392,-0.4702404324,0.7952748312,-0.017849518399999986,0.151004584,-0.20578250304
09:57:04,-0.750032055,-0.39107234,0.18671411,0.143637085,0.13016157,-0.16162487999999997,-27.48848043,-3.3776868,-8.87556167,87.372122675,-0.41139493779999997,-0.46910000285,0.79434986455,-0.015336136849999987,0.15072784349999999,-0.20721910536
09:57:04,-0.74935759,-0.39022992,0.18511918,0.14607673,0.12982066,-0.16036244,-27.47440134,-3.3743164,-8.87162246,87.35347915,-0.4116783364,-0.4679595733,0.7934248979,-0.012822755299999988,0.150451103,-0.20865570768
09:57:04,-0.748683125,-0.3893875,0.18352425,0.14851637499999998,0.12947975,-0.1591,-27.46032225,-3.370946,-8.86768325,87.334835625,-0.411961735,-0.46681914375,0.79249993125,-0.010309373749999962,0.1501743625,-0.21009231
09:57:04,-0.74800866,-0.38854508,0.18192932,0.15095601999999997,0.12913883999999998,-0.15783756,-27.44624316,-3.3675756,-8.86374404,87.3161921,-0.4122451336,-0.46567871419999995,0.7915749646,-0.007795992199999963,0.149897622,-0.21152891231999998
09:57:04,-0.747334195,-0.38770266,0.18033439,0.15339566499999996,0.12879793,-0.15657511999999998,-27.43216407,-3.3642052,-8.85980483,87.297548575,-0.4125285322,-0.46453828464999997,0.79064999795,-0.005282610649999964,0.1496208815,-0.21296551464000002
09:57:04,-0.74665973,-0.38686023999999997,0.17873946000000002,0.15583531,0.12845701999999998,-0.15531267999999998,-27.41808498,-3.3608348,-8.85586562,87.27890504999999,-0.4128119308,-0.4633978551,0.7897250312999999,-0.0027692290999999647,0.14934414099999999,-0.21440211696
09:57:04,-0.7459852650000001,-0.38601782,0.17714453,0.158274955,0.12811611,-0.15405024,-27.40400589,-3.3574644,-8.85192641,87.26026152499999,-0.4130953294,-0.46225742555,0.78880006465,-0.00025584754999996573,0.1490674005,-0.21583871928
09:57:04,-0.7453108,-0.3851754,0.1755496,0.16071459999999999,0.12777519999999998,-0.15278779999999997,-27.3899268,-3.354094,-8.8479872,87.241618,-0.413378728,-0.461116996,0.787875098,0.0022575340000000332,0.14879066,-0.21727532160000002
09:57:04,-0.744636335,-0.38433298,0.17395467,0.16315424499999998,0.12743429,-0.15152536,-27.37584771,-3.3507236000000002,-8.84404799,87.222974475,-0.4136621266,-0.45997656644999996,0.78695013135,0.004770915550000032,0.1485139195,-0.21871192392
09:57:04,-0.74396187,-0.38349056,0.17235974,0.16559388999999997,0.12709337999999998,-0.15026292,-27.36176862,-3.3473532,-8.84010878,87.20433095,-0.4139455252,-0.45883613689999997,0.7860251647,0.007284297100000031,0.148237179,-0.22014852624
09:57:04,-0.743287405,-0.38264814,0.17076481,0.168033535,0.12675247,-0.14900048,-27.34768953,-3.3439828,-8.83616957,87.185687425,-0.4142289238,-0.45769570735,0.78510019805,0.00979767865000003,0.14796043849999999,-0.22158512856
09:57:04,-0.74261294,-0.38180572,0.16916988,0.17047318,0.12641155999999998,-0.14773804,-27.33361044,-3.3406124,-8.83223036,87.1670439,-0.4145123224,-0.4565552778,0.7841752314,0.012311060200000029,0.147683698,-0.22302173088
09:57:04,-0.741938475,-0.3809633,0.16757495,0.172912825,0.12607065,-0.14647559999999998,-27.31953135,-3.337242,-8.82829115,87.148400375,-0.414795721,-0.45541484825,0.78325026475,0.014824441750000028,0.1474069575,-0.2244583332
09:57:04,-0.74126401,-0.38012088,0.16598002,0.17535246999999998,0.12572973999999998,-0.14521316,-27.30545226,-3.3338716,-8.82435194,87.12975684999999,-0.4150791196,-0.45427441869999996,0.7823252981,0.017337823300000027,0.147130217,-0.22589493552
09:57:04,-0.740589545,-0.37927846,0.16438509,0.17779211499999997,0.12538883,-0.14395071999999998,-27.29137317,-3.3305012,-8.82041273,87.11111332499999,-0.4153625182,-0.45313398914999997,0.78140033145,0.019851204850000026,0.1468534765,-0.22733153784
09:57:04,-0.7399150800000001,-0.37843604,0.16279016,0.18023175999999996,0.12504791999999998,-0.14268828,-27.27729408,-3.3271308,-8.81647352,87.0924698,-0.4156459168,-0.4519935596,0.7804753648,0.022364586400000025,0.14657673599999999,-0.22876814016
09:57:04,-0.739240615,-0.37759361999999996,0.16119523,0.182671405,0.12470701,-0.14142584,-27.26321499,-3.3237604,-8.81253431,87.073826275,-0.4159293154,-0.45085313005,0.77955039815,0.024877967950000024,0.1462999955,-0.23020474248
09:57:04,-0.73856615,-0.3767512,0.1596003,0.18511105,0.1243661,-0.1401634,-27.2491359,-3.32039,-8.8085951,87.05518275,-0.416212714,-0.4497127005,0.7786254315,0.027391349500000023,0.146023255,-0.2316413448
09:57:04,-0.737891685,-0.37590878,0.15800537,0.187550695,0.12402519,-0.13890096,-27.23505681,-3.3170196,-8.80465589,87.036539225,-0.41649611259999997,-0.44857227094999996,0.77770046485,0.029904731050000022,0.1457465145,-0.23307794712
09:57:04,-0.73721722,-0.37506636,0.15641044,0.18999033999999998,0.12368428,-0.13763852,-27.22097772,-3.3136492,-8.80071668,87.0178957,-0.4167795112,-0.4474318414,0.7767754982,0.03241811260000002,0.145469774,-0.23451454944
09:57:04,-0.736542755,-0.37422394,0.15481551,0.19242998499999997,0.12334337,-0.13637608,-27.20689863,-3.3102788,-8.79677747,86.999252175,-0.4170629098,-0.44629141185,0.7758505315499999,0.03493149415000002,0.14519303349999998,-0.23595115176
09:57:04,-0.73586829,-0.37338152,0.15322058,0.19486962999999996,0.12300246,-0.13511363999999998,-27.19281954,-3.3069084,-8.79283826,86.98060865,-0.4173463084,-0.4451509823,0.7749255649,0.03744487570000002,0.144916293,-0.23738775408
09:57:04,-0.735193825,-0.3725391,0.15162565,0.197309275,0.12266155,-0.1338512,-27.17874045,-3.303538,-8.78889905,86.96196512499999,-0.417629707,-0.44401055275,0.77400059825,0.03995825725000002,0.1446395525,-0.2388243564
09:57:04,-0.73451936,-0.37169668,0.15003072,0.19974892,0.12232064,-0.13258876,-27.16466136,-3.3001676,-8.78495984,86.9433216,-0.4179131056,-0.44287012319999997,0.7730756316,0.04247163880000002,0.144362812,-0.24026095872
09:57:04,-0.733844895,-0.37085426,0.14843579,0.202188565,0.12197973,-0.13132632,-27.15058227,-3.2967972,-8.78102063,86.924678075,-0.4181965042,-0.44172969365,0.77215066495,0.04498502035000004,0.1440860715,-0.24169756104
09:57:04,-0.73317043,-0.37001184,0.14684086,0.20462820999999998,0.12163882,-0.13006388,-27.13650318,-3.2934267999999998,-8.77708142,86.90603455,-0.41847990279999997,-0.4405892641,0.7712256983,0.04749840190000004,0.14380933099999998,-0.24313416336
09:57:04,-0.732495965,-0.36916941999999997,0.14524593,0.20706785499999997,0.12129791,-0.12880144,-27.12242409,-3.2900564,-8.77314221,86.887391025,-0.4187633014,-0.43944883455,0.77030073165,0.05001178345000004,0.1435325905,-0.24457076568
09:57:04,-0.7318215,-0.36832699999999996,0.143651,0.20950749999999996,0.120957,-0.12753899999999999,-27.108345,-3.286686,-8.769203000000001,86.8687475,-0.4190467,-0.438308405,0.7693757649999999,0.05252516500000001,0.14325585,-0.246007368
09:57:04,-0.731147035,-0.36748458,0.14205607,0.211947145,0.12061609,-0.12627655999999998,-27.09426591,-3.2833156,-8.76526379,86.850103975,-0.4193300986,-0.43716797544999997,0.76845079835,0.05503854655000004,0.1429791095,-0.24744397032
09:57:04,-0.73047257,-0.36664216,0.14046113999999998,0.21438679,0.12027518,-0.12501412,-27.08018682,-3.2799452000000002,-8.76132458,86.83146045,-0.4196134972,-0.4360275459,0.7675258317,0.05755192810000001,0.142702369,-0.24888057264
09:57:04,-0.729798105,-0.36579974,0.13886621,0.21682643499999998,0.11993427,-0.12375168,-27.06610773,-3.2765748,-8.75738537,86.81281692499999,-0.4198968958,-0.43488711635,0.76660086505,0.06006530965000004,0.1424256285,-0.25031717496
09:57:04,-0.7291236400000001,-0.36495732,0.13727128,0.21926607999999997,0.11959336,-0.12248924,-27.05202864,-3.2732044,-8.75344616,86.7941734,-0.4201802944,-0.4337466868,0.7656758983999999,0.06257869120000001,0.142148888,-0.25175377728000004
09:57:04,-0.7284491750000001,-0.3641149,0.13567635,0.22170572499999996,0.11925245,-0.1212268,-27.03794955,-3.269834,-8.74950695,86.775529875,-0.42046369299999997,-0.43260625725,0.76475093175,0.06509207275000004,0.1418721475,-0.2531903796
09:57:04,-0.72777471,-0.36327248,0.13408142,0.22414536999999995,0.11891154,-0.11996435999999999,-27.02387046,-3.2664636,-8.74556774,86.75688635,-0.4207470916,-0.43146582769999997,0.7638259651,0.0676054543,0.141595407,-0.25462698192
09:57:04,-0.727100245,-0.36243006,0.13248648999999998,0.22658501499999995,0.11857062999999998,-0.11870191999999999,-27.00979137,-3.2630932,-8.74162853,86.738242825,-0.4210304902,-0.43032539815,0.7629009984499999,0.07011883585000003,0.1413186665,-0.25606358424
09:57:04,-0.72642578,-0.36158764,0.13089156,0.22902466,0.11822971999999998,-0.11743947999999998,-26.99571228,-3.2597228,-8.73768932,86.7195993,-0.4213138888,-0.4291849686,0.7619760318,0.07263221740000006,0.14104192599999998,-0.25750018656
09:57:04,-0.725751315,-0.36074522,0.12929663,0.23146430499999998,0.11788880999999998,-0.11617703999999998,-26.98163319,-3.2563524,-8.73375011,86.700955775,-0.4215972874,-0.42804453905,0.76105106515,0.07514559895000003,0.1407651855,-0.25893678888
09:57:04,-0.72507685,-0.35990279999999997,0.1277017,0.23390394999999997,0.11754789999999998,-0.1149146,-26.9675541,-3.252982,-8.7298109,86.68231225,-0.421880686,-0.4269041095,0.7601260985,0.07765898050000006,0.140488445,-0.2603733912
09:57:04,-0.724402385,-0.35906037999999996,0.12610677,0.23634359499999996,0.11720698999999998,-0.11365216,-26.95347501,-3.2496116,-8.72587169,86.663668725,-0.4221640846,-0.42576367995,0.7592011318499999,0.08017236205000003,0.1402117045,-0.26180999352
09:57:04,-0.72372792,-0.35821796,0.12451183999999998,0.23878323999999995,0.11686607999999998,-0.11238972,-26.93939592,-3.2462412,-8.72193248,86.64502519999999,-0.4224474832,-0.4246232504,0.7582761652,0.08268574360000006,0.139934964,-0.26324659584
09:57:04,-0.7230534550000001,-0.35737554,0.12291690999999999,0.24122288499999994,0.11652516999999998,-0.11112728,-26.92531683,-3.2428708,-8.717993270000001,86.626381675,-0.4227308818,-0.42348282085,0.75735119855,0.08519912515000003,0.1396582235,-0.26468319815999997
09:57:04,-0.72237899,-0.35653312,0.12132198,0.24366253,0.11618425999999998,-0.10986483999999999,-26.91123774,-3.2395004,-8.71405406,86.60773815,-0.4230142804,-0.4223423913,0.7564262319,0.08771250670000005,0.139381483,-0.26611980048
09:57:04,-0.721704525,-0.35569069999999997,0.11972705,0.24610217499999998,0.11584334999999998,-0.10860239999999999,-26.89715865,-3.23613,-8.71011485,86.589094625,-0.423297679,-0.42120196175,0.7555012652499999,0.09022588825000002,0.1391047425,-0.26755640280000004
09:57:04,-0.72103006,-0.35484828,0.11813212000000001,0.24854181999999997,0.11550243999999998,-0.10733995999999998,-26.88307956,-3.2327596,-8.70617564,86.5704511,-0.42358107759999997,-0.4200615322,0.7545762986,0.09273926980000005,0.138828002,-0.26899300512
09:57:04,-0.720355595,-0.35400586,0.11653718999999998,0.25098146499999996,0.11516152999999998,-0.10607752000000001,-26.86900047,-3.2293892,-8.70223643,86.551807575,-0.4238644762,-0.41892110265,0.75365133195,0.09525265135000002,0.1385512615,-0.27042960744
09:57:04,-0.71968113,-0.35316344,0.11494225999999999,0.25342110999999995,0.11482061999999998,-0.10481508,-26.85492138,-3.2260188,-8.69829722,86.53316405,-0.4241478748,-0.4177806731,0.7527263653,0.09776603290000005,0.13827452099999998,-0.27186620976
09:57:04,-0.719006665,-0.35232102,0.11334733,0.25586075499999994,0.11447970999999998,-0.10355264,-26.84084229,-3.2226484,-8.69435801,86.514520525,-0.4244312734,-0.41664024355,0.75180139865,0.10027941445000002,0.1379977805,-0.27330281208
09:57:04,-0.7183322,-0.3514786,0.1117524,0.2583004,0.11413879999999998,-0.1022902,-26.8267632,-3.219278,-8.6904188,86.495877,-0.424714672,-0.415499814,0.750876432,0.10279279600000005,0.13772104,-0.2747394144
09:57:04,-0.717657735,-0.35063617999999996,0.11015746999999998,0.260740045,0.11379788999999998,-0.10102776,-26.81268411,-3.2159076,-8.68647959,86.477233475,-0.4249980706,-0.41435938445,0.74995146535,0.10530617755000002,0.1374442995,-0.27617601672000003
09:57:04,-0.7169832700000001,-0.34979376,0.10856253999999999,0.26317968999999997,0.11345697999999999,-0.09976531999999999,-26.79860502,-3.2125372,-8.68254038,86.45858995,-0.4252814692,-0.4132189549,0.7490264986999999,0.10781955910000005,0.137167559,-0.27761261904
09:57:04,-0.716308805,-0.34895134,0.10696760999999999,0.26561933499999996,0.11311606999999999,-0.09850287999999999,-26.78452593,-3.2091668,-8.67860117,86.439946425,-0.4255648678,-0.41207852535,0.74810153205,0.11033294065000002,0.1368908185,-0.27904922136
09:57:04,-0.71563434,-0.34810892,0.10537268,0.26805897999999995,0.11277515999999999,-0.09724043999999998,-26.770446839999998,-3.2057964,-8.67466196,86.4213029,-0.4258482664,-0.4109380958,0.7471765654,0.11284632220000004,0.136614078,-0.28048582367999997
09:57:04,-0.714959875,-0.3472665,0.10377775,0.27049862499999994,0.11243424999999999,-0.09597800000000001,-26.75636775,-3.202426,-8.67072275,86.402659375,-0.426131665,-0.40979766625,0.74625159875,0.11535970375000001,0.1363373375,-0.281922426
09:57:04,-0.71428541,-0.34642408,0.10218281999999998,0.27293827,0.11209333999999999,-0.09471556,-26.74228866,-3.1990556,-8.66678354,86.38401585,-0.4264150636,-0.4086572367,0.7453266320999999,0.11787308530000004,0.136060597,-0.28335902832000004
09:57:04,-0.713610945,-0.34558166,0.10058788999999999,0.275377915,0.11175242999999999,-0.09345312,-26.72820957,-3.1956852,-8.66284433,86.365372325,-0.4266984622,-0.40751680715,0.74440166545,0.12038646685000001,0.1357838565,-0.28479563064
09:57:04,-0.71293648,-0.34473924,0.09899295999999999,0.27781755999999996,0.11141151999999999,-0.09219068,-26.71413048,-3.1923148,-8.65890512,86.3467288,-0.4269818608,-0.4063763776,0.7434766988,0.12289984840000004,0.13550711599999998,-0.28623223296
09:57:04,-0.7122620150000001,-0.34389682,0.09739803,0.28025720499999995,0.11107060999999999,-0.09092824,-26.70005139,-3.1889444,-8.65496591,86.328085275,-0.4272652594,-0.40523594805,0.7425517321499999,0.12541322995000007,0.1352303755,-0.28766883528
09:57:04,-0.7115875500000001,-0.3430544,0.0958031,0.28269684999999994,0.11072969999999999,-0.08966579999999999,-26.6859723,-3.185574,-8.651026700000001,86.30944175,-0.42754865799999997,-0.40409551850000003,0.7416267655,0.12792661150000004,0.134953635,-0.28910543759999996
09:57:04,-0.7109130850000001,-0.34221197999999997,0.09420816999999998,0.285136495,0.11038878999999999,-0.08840335999999999,-26.67189321,-3.1822036000000002,-8.64708749,86.290798225,-0.4278320566,-0.40295508895,0.74070179885,0.13043999305000006,0.1346768945,-0.29054203992
09:57:04,-0.71023862,-0.34136955999999996,0.09261323999999999,0.28757614,0.11004787999999999,-0.08714092000000001,-26.65781412,-3.1788332,-8.64314828,86.2721547,-0.4281154552,-0.4018146594,0.7397768322,0.13295337460000003,0.134400154,-0.29197864224000003
09:57:04,-0.709564155,-0.34052714,0.09101830999999999,0.29001578499999997,0.10970696999999999,-0.08587848000000001,-26.64373503,-3.1754628,-8.63920907,86.253511175,-0.4283988538,-0.40067422985,0.7388518655499999,0.13546675615000006,0.1341234135,-0.29341524456
09:57:04,-0.70888969,-0.33968472,0.08942338,0.29245542999999996,0.10936605999999999,-0.08461604,-26.62965594,-3.1720924,-8.635269860000001,86.23486765,-0.4286822524,-0.3995338003,0.7379268989,0.13798013770000003,0.133846673,-0.29485184688
09:57:04,-0.708215225,-0.3388423,0.08782845,0.29489507499999995,0.10902514999999999,-0.0833536,-26.61557685,-3.168722,-8.63133065,86.216224125,-0.428965651,-0.39839337075000003,0.73700193225,0.14049351925000006,0.1335699325,-0.29628844919999997
09:57:04,-0.70754076,-0.33799988,0.08623351999999998,0.29733471999999994,0.10868423999999999,-0.08209116,-26.60149776,-3.1653516,-8.62739144,86.1975806,-0.4292490496,-0.3972529412,0.7360769655999999,0.14300690080000003,0.133293192,-0.29772505152
09:57:04,-0.706866295,-0.33715746,0.08463858999999999,0.299774365,0.10834332999999999,-0.08082871999999999,-26.587418669999998,-3.1619812,-8.62345223,86.178937075,-0.42953244819999997,-0.39611251165,0.7351519989499999,0.14552028235000006,0.1330164515,-0.29916165384
09:57:04,-0.7061918300000001,-0.33631504,0.08304365999999999,0.30221401,0.10800241999999999,-0.07956627999999999,-26.57333958,-3.1586108,-8.61951302,86.16029355,-0.4298158468,-0.3949720821,0.7342270323,0.14803366390000003,0.13273971099999998,-0.30059825616
09:57:04,-0.7055173650000001,-0.33547262,0.08144873,0.30465365499999997,0.10766150999999999,-0.07830383999999999,-26.55926049,-3.1552404,-8.61557381,86.141650025,-0.4300992454,-0.39383165255,0.73330206565,0.15054704545000006,0.1324629705,-0.30203485848
09:57:04,-0.7048429,-0.3346302,0.07985379999999997,0.30709329999999996,0.10732059999999999,-0.07704140000000001,-26.5451814,-3.15187,-8.6116346,86.1230065,-0.430382644,-0.39269122300000003,0.732377099,0.15306042700000003,0.13218623,-0.3034714608
09:57:04,-0.704168435,-0.33378778,0.07825886999999998,0.30953294499999995,0.10697968999999999,-0.07577896,-26.53110231,-3.1484996,-8.60769539,86.104362975,-0.43066604259999997,-0.39155079345,0.73145213235,0.15557380855000005,0.1319094895,-0.30490806311999996
09:57:04,-0.70349397,-0.33294535999999997,0.07666393999999999,0.31197258999999994,0.10663877999999999,-0.07451652,-26.51702322,-3.1451292,-8.60375618,86.08571945,-0.4309494412,-0.3904103639,0.7305271657,0.15808719010000002,0.131632749,-0.30634466544
09:57:04,-0.702819505,-0.33210293999999996,0.07506900999999999,0.314412235,0.10629786999999999,-0.07325408,-26.50294413,-3.1417588,-8.599816970000001,86.067075925,-0.4312328398,-0.38926993435,0.7296021990499999,0.16060057165000005,0.1313560085,-0.30778126776000003
09:57:04,-0.70214504,-0.33126052,0.07347408,0.31685188,0.10595695999999999,-0.07199164,-26.48886504,-3.1383884,-8.59587776,86.0484324,-0.4315162384,-0.3881295048,0.7286772323999999,0.16311395320000002,0.131079268,-0.30921787008
09:57:04,-0.701470575,-0.3304181,0.07187914999999998,0.31929152499999996,0.10561604999999999,-0.07072919999999999,-26.47478595,-3.135018,-8.59193855,86.029788875,-0.431799637,-0.38698907525000004,0.72775226575,0.16562733475000005,0.1308025275,-0.3106544724
09:57:04,-0.70079611,-0.32957568,0.07028421999999998,0.32173116999999996,0.10527513999999999,-0.06946675999999999,-26.46070686,-3.1316476,-8.58799934,86.01114535,-0.4320830356,-0.3858486457,0.7268272991,0.16814071630000002,0.130525787,-0.31209107472
09:57:04,-0.7001216450000001,-0.32873325999999997,0.06868928999999999,0.32417081499999995,0.10493422999999999,-0.06820432000000001,-26.44662777,-3.1282772,-8.584060130000001,85.992501825,-0.4323664342,-0.38470821615,0.72590233245,0.17065409785000005,0.1302490465,-0.31352767704
09:57:04,-0.6994471800000001,-0.32789084,0.06709435999999999,0.32661045999999994,0.10459331999999999,-0.06694188000000001,-26.43254868,-3.1249067999999998,-8.58012092,85.9738583,-0.4326498328,-0.3835677866,0.7249773657999999,0.17316747940000002,0.12997230599999998,-0.31496427936
09:57:04,-0.698772715,-0.32704842,0.06549943,0.329050105,0.10425240999999999,-0.06567944,-26.41846959,-3.1215364,-8.57618171,85.955214775,-0.4329332314,-0.38242735704999997,0.72405239915,0.17568086095000005,0.1296955655,-0.31640088168
09:57:04,-0.69809825,-0.326206,0.06390449999999998,0.33148974999999997,0.10391149999999999,-0.064417,-26.404390499999998,-3.118166,-8.5722425,85.93657125,-0.43321663,-0.38128692750000004,0.7231274325,0.17819424250000007,0.129418825,-0.317837484
09:57:04,-0.697423785,-0.32536358,0.06230956999999998,0.33392939499999996,0.10357058999999999,-0.06315456,-26.39031141,-3.1147956,-8.56830329,85.917927725,-0.4335000286,-0.38014649795,0.7222024658499999,0.18070762405000004,0.1291420845,-0.31927408632
09:57:04,-0.69674932,-0.32452116,0.060714639999999986,0.33636903999999995,0.10322967999999999,-0.061892119999999995,-26.37623232,-3.1114252000000002,-8.56436408,85.8992842,-0.4337834272,-0.3790060684,0.7212774992,0.18322100560000007,0.128865344,-0.32071068863999996
09:57:04,-0.696074855,-0.32367873999999996,0.05911970999999999,0.33880868499999994,0.10288876999999999,-0.06062967999999999,-26.36215323,-3.1080548,-8.56042487,85.880640675,-0.4340668258,-0.37786563885,0.72035253255,0.18573438715000004,0.1285886035,-0.32214729096
09:57:04,-0.6954003900000001,-0.32283631999999995,0.05752478,0.34124832999999993,0.10254785999999999,-0.05936723999999999,-26.34807414,-3.1046844,-8.55648566,85.86199715000001,-0.4343502244,-0.3767252093,0.7194275659,0.18824776870000007,0.128311863,-0.32358389328000003
09:57:04,-0.6947259250000001,-0.3219939,0.055929849999999975,0.343687975,0.10220694999999999,-0.05810480000000001,-26.33399505,-3.101314,-8.55254645,85.843353625,-0.43463362299999997,-0.37558477975000004,0.7185025992499999,0.19076115025000004,0.1280351225,-0.3250204956
09:57:04,-0.6940514600000001,-0.32115148,0.05433491999999998,0.34612761999999997,0.10186603999999999,-0.05684236000000001,-26.31991596,-3.0979436,-8.54860724,85.8247101,-0.4349170216,-0.3744443502,0.7175776326,0.19327453180000007,0.127758382,-0.32645709792
09:57:04,-0.693376995,-0.32030906,0.05273998999999996,0.34856726499999996,0.10152512999999999,-0.055579920000000005,-26.30583687,-3.0945732,-8.54466803,85.806066575,-0.4352004202,-0.37330392065,0.71665266595,0.19578791335000004,0.1274816415,-0.32789370024
09:57:04,-0.69270253,-0.31946664,0.051145059999999964,0.35100690999999995,0.10118421999999999,-0.05431748,-26.29175778,-3.0912028,-8.54072882,85.78742305,-0.4354838188,-0.3721634911,0.7157276992999999,0.19830129490000006,0.12720490099999998,-0.32933030256
09:57:04,-0.692028065,-0.31862422,0.04955012999999997,0.35344655499999994,0.10084330999999999,-0.05305504,-26.27767869,-3.0878324,-8.53678961,85.768779525,-0.4357672174,-0.37102306155,0.7148027326499999,0.20081467645000003,0.1269281605,-0.33076690488
09:57:04,-0.6913536,-0.3177818,0.047955199999999976,0.3558862,0.10050239999999999,-0.051792599999999994,-26.2635996,-3.0844620000000003,-8.532850400000001,85.750136,-0.436050616,-0.36988263200000004,0.713877766,0.20332805800000006,0.12665142000000001,-0.3322035072
09:57:04,-0.690679135,-0.31693938,0.04636026999999998,0.358325845,0.10016148999999999,-0.05053015999999999,-26.24952051,-3.0810916,-8.52891119,85.731492475,-0.4363340146,-0.36874220245,0.71295279935,0.20584143955000003,0.1263746795,-0.33364010952
09:57:04,-0.69000467,-0.31609696,0.04476533999999999,0.36076548999999997,0.09982057999999999,-0.049267720000000015,-26.23544142,-3.0777212,-8.52497198,85.71284895,-0.43661741319999997,-0.3676017729,0.7120278327,0.20835482110000006,0.126097939,-0.33507671184
09:57:04,-0.6893302050000001,-0.31525453999999997,0.04317040999999999,0.36320513499999996,0.09947966999999999,-0.04800528000000001,-26.221362329999998,-3.0743508,-8.52103277,85.694205425,-0.4369008118,-0.36646134335,0.71110286605,0.21086820265000003,0.1258211985,-0.33651331415999997
09:57:04,-0.6886557400000001,-0.31441211999999996,0.04157548,0.36564477999999995,0.09913875999999999,-0.04674284000000001,-26.20728324,-3.0709804,-8.51709356,85.6755619,-0.4371842104,-0.3653209138,0.7101778994,0.21338158420000006,0.125544458,-0.33794991648
09:57:04,-0.6879812750000001,-0.31356969999999995,0.039980550000000004,0.36808442499999994,0.09879784999999999,-0.045480400000000004,-26.19320415,-3.06761,-8.51315435,85.656918375,-0.437467609,-0.36418048425000005,0.7092529327499999,0.21589496575000003,0.1252677175,-0.33938651880000004
09:57:04,-0.68730681,-0.31272728,0.038385619999999954,0.37052407,0.09845693999999999,-0.04421796,-26.17912506,-3.0642396,-8.50921514,85.63827485,-0.43775100759999996,-0.3630400547,0.7083279660999999,0.21840834730000006,0.124990977,-0.34082312112
09:57:04,-0.686632345,-0.31188486,0.03679068999999996,0.372963715,0.09811602999999999,-0.04295552,-26.16504597,-3.0608692,-8.50527593,85.619631325,-0.4380344062,-0.36189962515,0.70740299945,0.22092172885000003,0.12471423649999999,-0.34225972344
09:57:04,-0.68595788,-0.31104244,0.035195759999999965,0.37540335999999996,0.09777512,-0.041693079999999993,-26.15096688,-3.0574988,-8.50133672,85.6009878,-0.4383178048,-0.3607591956,0.7064780328,0.22343511040000005,0.124437496,-0.34369632576
09:57:04,-0.685283415,-0.31020002,0.03360082999999997,0.37784300499999995,0.09743421,-0.04043063999999999,-26.13688779,-3.0541283999999997,-8.49739751,85.582344275,-0.4386012034,-0.35961876605,0.70555306615,0.22594849195000002,0.1241607555,-0.34513292807999996
09:57:04,-0.68460895,-0.3093576,0.032005899999999976,0.38028264999999994,0.0970933,-0.039168200000000014,-26.1228087,-3.050758,-8.4934583,85.56370075,-0.438884602,-0.35847833650000005,0.7046280994999999,0.22846187350000005,0.123884015,-0.3465695304
09:57:04,-0.683934485,-0.30851518,0.03041096999999998,0.38272229499999993,0.09675239,-0.03790576000000001,-26.10872961,-3.0473876,-8.48951909,85.54505722500001,-0.4391680006,-0.35733790695,0.70370313285,0.23097525505000008,0.1236072745,-0.34800613272
09:57:04,-0.6832600200000001,-0.30767276,0.028816039999999987,0.38516194,0.09641148,-0.03664332000000001,-26.094650520000002,-3.0440172,-8.48557988,85.5264137,-0.4394513992,-0.3561974774,0.7027781662,0.23348863660000005,0.12333053399999999,-0.34944273504
09:57:04,-0.6825855550000001,-0.30683034,0.027221109999999993,0.38760158499999997,0.09607057,-0.03538088,-26.08057143,-3.0406468,-8.48164067,85.507770175,-0.4397347978,-0.35505704785000003,0.7018531995499999,0.23600201815000008,0.1230537935,-0.35087933736
09:57:04,-0.68191109,-0.30598791999999997,0.02562618,0.39004122999999996,0.09572966,-0.03411844,-26.06649234,-3.0372764,-8.47770146,85.48912665,-0.4400181964,-0.3539166183,0.7009282329,0.23851539970000005,0.122777053,-0.35231593967999997
09:57:04,-0.681236625,-0.30514549999999996,0.024031250000000004,0.39248087499999995,0.09538875,-0.032855999999999996,-26.05241325,-3.033906,-8.47376225,85.470483125,-0.440301595,-0.35277618875000005,0.70000326625,0.24102878125000007,0.1225003125,-0.353752542
09:57:04,-0.68056216,-0.30430307999999995,0.022436319999999954,0.39492051999999994,0.09504784,-0.03159355999999999,-26.038334159999998,-3.0305356,-8.46982304,85.4518396,-0.4405849936,-0.3516357592,0.6990782996,0.24354216280000004,0.122223572,-0.35518914432
09:57:04,-0.679887695,-0.30346066,0.02084138999999996,0.39736016499999993,0.09470693,-0.030331120000000017,-26.02425507,-3.0271652,-8.465883830000001,85.433196075,-0.4408683922,-0.35049532965,0.6981533329499999,0.24605554435000007,0.12194683149999999,-0.35662574664
09:57:04,-0.67921323,-0.30261824,0.019246459999999965,0.39979981,0.09436602,-0.029068680000000013,-26.01017598,-3.0237948,-8.46194462,85.41455255,-0.4411517908,-0.34935490010000003,0.6972283663,0.24856892590000004,0.121670091,-0.35806234896
09:57:04,-0.6785387650000001,-0.30177582,0.01765152999999997,0.40223945499999997,0.09402511,-0.02780624000000001,-25.99609689,-3.0204244,-8.45800541,85.39590902500001,-0.4414351894,-0.34821447055,0.69630339965,0.25108230745000004,0.1213933505,-0.35949895128
09:57:04,-0.6778643000000001,-0.3009334,0.016056599999999976,0.40467909999999996,0.0936842,-0.026543800000000006,-25.9820178,-3.017054,-8.4540662,85.37726550000001,-0.44171858799999997,-0.34707404100000006,0.6953784329999999,0.25359568900000007,0.12111661,-0.3609355536
09:57:04,-0.6771898350000001,-0.30009098,0.014461669999999982,0.40711874499999995,0.09334329,-0.025281360000000003,-25.96793871,-3.0136836000000002,-8.450126990000001,85.358621975,-0.4420019866,-0.34593361145,0.6944534663499999,0.2561090705500001,0.1208398695,-0.36237215592
09:57:04,-0.6765153700000001,-0.29924856,0.012866739999999988,0.40955838999999994,0.09300238,-0.02401892,-25.95385962,-3.0103132,-8.44618778,85.33997845,-0.4422853852,-0.3447931819,0.6935284997,0.2586224521,0.12056312899999999,-0.36380875824
09:57:04,-0.675840905,-0.29840614,0.011271809999999993,0.41199803499999993,0.09266147,-0.022756479999999996,-25.93978053,-3.0069428,-8.44224857,85.321334925,-0.4425687838,-0.34365275235000003,0.69260353305,0.26113583365000004,0.12028638850000001,-0.36524536056
09:57:04,-0.67516644,-0.29756372,0.009676879999999999,0.41443768,0.09232056,-0.021494039999999992,-25.92570144,-3.0035724,-8.43830936,85.3026914,-0.4428521824,-0.3425123228,0.6916785663999999,0.26364921520000006,0.120009648,-0.36668196288
09:57:04,-0.674491975,-0.29672129999999997,0.008081949999999949,0.41687732499999997,0.09197965,-0.020231600000000016,-25.911622350000002,-3.000202,-8.43437015,85.284047875,-0.443135581,-0.34137189325000006,0.69075359975,0.2661625967500001,0.1197329075,-0.36811856519999997
09:57:04,-0.67381751,-0.29587887999999996,0.0064870199999999545,0.41931696999999996,0.09163874,-0.018969160000000013,-25.89754326,-2.9968316,-8.43043094,85.26540435,-0.4434189796,-0.3402314637,0.6898286331,0.2686759783,0.119456167,-0.36955516752
09:57:04,-0.673143045,-0.29503645999999994,0.00489208999999996,0.42175661499999995,0.09129783,-0.01770672000000001,-25.88346417,-2.9934612,-8.42649173,85.246760825,-0.44370237819999997,-0.33909103415,0.6889036664499999,0.27118935985000003,0.11917942649999999,-0.37099176984
09:57:04,-0.6724685800000001,-0.29419404,0.0032971599999999657,0.42419625999999994,0.09095692,-0.016444280000000006,-25.86938508,-2.9900908,-8.42255252,85.22811730000001,-0.4439857768,-0.33795060460000004,0.6879786997999999,0.27370274140000006,0.11890268600000001,-0.37242837216
09:57:04,-0.6717941150000001,-0.29335162,0.0017022299999999713,0.4266359049999999,0.09061601,-0.015181840000000002,-25.855305989999998,-2.9867204000000003,-8.41861331,85.209473775,-0.4442691754,-0.33681017505,0.68705373315,0.2762161229500001,0.1186259455,-0.37386497448
09:57:04,-0.6711196500000001,-0.2925092,0.00010729999999997686,0.42907555,0.0902751,-0.013919399999999998,-25.8412269,-2.98335,-8.414674100000001,85.19083025,-0.444552574,-0.33566974550000006,0.6861287665,0.2787295045,0.118349205,-0.3753015768
09:57:04,-0.670445185,-0.29166678,-0.0014876300000000175,0.43151519499999996,0.08993419,-0.012656959999999995,-25.82714781,-2.9799796,-8.41073489,85.172186725,-0.44483597259999996,-0.33452931595,0.68520379985,0.28124288605000003,0.1180724645,-0.37673817912
09:57:04,-0.66977072,-0.29082436,-0.003082560000000012,0.43395483999999995,0.08959328,-0.011394520000000019,-25.81306872,-2.9766092,-8.40679568,85.1535432,-0.4451193712,-0.33338888640000003,0.6842788331999999,0.28375626760000006,0.11779572399999999,-0.37817478144
09:57:04,-0.669096255,-0.28998194,-0.004677490000000006,0.43639448499999994,0.08925237,-0.010132080000000016,-25.79898963,-2.9732388,-8.40285647,85.134899675,-0.4454027698,-0.33224845685000004,0.68335386655,0.2862696491500001,0.11751898350000001,-0.37961138376
09:57:04,-0.66842179,-0.28913952,-0.006272420000000001,0.43883412999999993,0.08891146,-0.008869640000000012,-25.78491054,-2.9698684,-8.398917260000001,85.11625615,-0.44568616839999997,-0.3311080273,0.6824288998999999,0.2887830307000001,0.117242243,-0.38104798608
09:57:04,-0.6677473250000001,-0.2882971,-0.00786735000000005,0.441273775,0.08857055,-0.007607200000000008,-25.77083145,-2.966498,-8.39497805,85.097612625,-0.445969567,-0.32996759775000006,0.6815039332499999,0.29129641225,0.1169655025,-0.3824845884
09:57:04,-0.66707286,-0.28745467999999996,-0.009462280000000045,0.44371341999999997,0.08822964,-0.006344760000000005,-25.75675236,-2.9631276,-8.39103884,85.07896910000001,-0.4462529656,-0.3288271682,0.6805789666,0.29380979380000005,0.116688762,-0.38392119071999997
09:57:04,-0.6663983950000001,-0.28661225999999995,-0.01105721000000004,0.44615306499999996,0.08788873,-0.005082320000000001,-25.74267327,-2.9597572,-8.38709963,85.06032557500001,-0.4465363642,-0.32768673865000003,0.67965399995,0.2963231753500001,0.11641202149999999,-0.38535779304
09:57:04,-0.6657239300000001,-0.28576983999999994,-0.012652140000000034,0.44859270999999995,0.08754782,-0.0038198799999999977,-25.72859418,-2.9563867999999998,-8.38316042,85.04168205,-0.4468197628,-0.32654630910000004,0.6787290333,0.2988365569000001,0.116135281,-0.38679439536
09:57:04,-0.6650494650000001,-0.28492742,-0.014247070000000028,0.45103235499999994,0.08720691,-0.002557440000000022,-25.71451509,-2.9530164,-8.37922121,85.023038525,-0.4471031614,-0.32540587955,0.6778040666499999,0.30134993845000013,0.1158585405,-0.38823099768
09:57:05,-0.664375,-0.284085,-0.015842,0.453472,0.086866,-0.001295,-25.700436,-2.949646,-8.375282,85.004395,-0.44738656,-0.32426545,0.6768791,0.30386332,0.1155818,-0.3896676
09:57:05,-0.6675417100000001,-0.27882492,-0.017203125,0.452934,0.08625875,-0.0007250399999999999,-25.676505295,-2.97134123,-8.380996190000001,85.051328325,-0.45098757219999996,-0.31972421725,0.6765106602,0.3038446744,0.115000314358,-0.38903445725
09:57:05,-0.6707084200000001,-0.27356484,-0.018564249999999997,0.45239599999999996,0.0856515,-0.00015507999999999993,-25.65257459,-2.99303646,-8.38671038,85.09826165,-0.4545885844,-0.3151829845,0.6761422203999999,0.3038260288,0.114418828716,-0.3884013145
09:57:05,-0.6738751300000001,-0.26830476,-0.019925375,0.451858,0.08504425,0.00041488000000000007,-25.628643885,-3.01473169,-8.392424570000001,85.145194975,-0.45818959659999997,-0.31064175175000003,0.6757737805999999,0.3038073832,0.113837343074,-0.38776817175
09:57:05,-0.67704184,-0.26304468,-0.0212865,0.45132,0.084437,0.00098484,-25.60471318,-3.03642692,-8.39813876,85.19212830000001,-0.4617906088,-0.306100519,0.6754053407999999,0.30378873759999997,0.11325585743199999,-0.387135029
09:57:05,-0.68020855,-0.2577846,-0.022647624999999998,0.45078199999999996,0.08382975,0.0015548,-25.580782475,-3.05812215,-8.403852950000001,85.239061625,-0.465391621,-0.30155928625,0.6750369009999999,0.303770092,0.11267437179,-0.38650188625
09:57:05,-0.68337526,-0.25252452,-0.02400875,0.450244,0.0832225,0.00212476,-25.55685177,-3.07981738,-8.40956714,85.28599495,-0.4689926332,-0.2970180535,0.6746684611999999,0.3037514464,0.112092886148,-0.3858687435
09:57:05,-0.6865419700000001,-0.24726443999999997,-0.025369875,0.449706,0.08261525,0.0026947200000000003,-25.532921065,-3.10151261,-8.415281330000001,85.332928275,-0.4725936454,-0.29247682075000003,0.6743000214,0.3037328008,0.111511400506,-0.38523560075
09:57:05,-0.6897086800000001,-0.24200435999999997,-0.026730999999999998,0.449168,0.082008,0.00326468,-25.50899036,-3.12320784,-8.42099552,85.3798616,-0.4761946576,-0.287935588,0.6739315816,0.3037141552,0.110929914864,-0.384602458
09:57:05,-0.6928753900000001,-0.23674427999999997,-0.028092124999999996,0.44863,0.08140075,0.0038346399999999994,-25.485059655,-3.14490307,-8.42670971,85.426794925,-0.4797956698,-0.28339435525,0.6735631418,0.30369550959999997,0.110348429222,-0.38396931525
09:57:05,-0.6960421,-0.23148419999999997,-0.029453249999999997,0.448092,0.0807935,0.0044046,-25.46112895,-3.1665983,-8.4324239,85.47372825000001,-0.48339668199999997,-0.2788531225,0.673194702,0.303676864,0.10976694358,-0.3833361725
09:57:05,-0.69920881,-0.22622411999999997,-0.030814374999999998,0.447554,0.08018625,0.00497456,-25.437198245,-3.18829353,-8.43813809,85.520661575,-0.4869976942,-0.27431188975,0.6728262622,0.3036582184,0.109185457938,-0.38270302975
09:57:05,-0.70237552,-0.22096403999999997,-0.032175499999999996,0.44701599999999997,0.079579,0.00554452,-25.41326754,-3.20998876,-8.44385228,85.5675949,-0.4905987064,-0.269770657,0.6724578224,0.3036395728,0.108603972296,-0.382069887
09:57:05,-0.70554223,-0.21570395999999997,-0.033536625,0.446478,0.07897175,0.006114479999999999,-25.389336834999998,-3.23168399,-8.44956647,85.614528225,-0.4941997186,-0.26522942425,0.6720893826,0.3036209272,0.108022486654,-0.38143674425
09:57:05,-0.7087089400000001,-0.21044387999999997,-0.03489775,0.44594,0.0783645,0.006684440000000001,-25.36540613,-3.25337922,-8.45528066,85.66146155,-0.4978007308,-0.2606881915,0.6717209427999999,0.30360228159999997,0.10744100101199999,-0.3808036015
09:57:05,-0.7118756500000001,-0.20518379999999997,-0.036258874999999996,0.44540199999999996,0.07775725,0.0072544,-25.341475425,-3.27507445,-8.46099485,85.708394875,-0.501401743,-0.25614695875,0.6713525029999999,0.303583636,0.10685951536999999,-0.38017045875
09:57:05,-0.71504236,-0.19992371999999997,-0.03762,0.444864,0.07715,0.00782436,-25.31754472,-3.29676968,-8.46670904,85.75532820000001,-0.5050027552,-0.251605726,0.6709840631999999,0.3035649904,0.106278029728,-0.379537316
09:57:05,-0.71820907,-0.19466363999999997,-0.038981125,0.444326,0.07654274999999999,0.00839432,-25.293614015,-3.31846491,-8.47242323,85.802261525,-0.5086037674,-0.24706449325000002,0.6706156233999999,0.3035463448,0.105696544086,-0.37890417325000003
09:57:05,-0.72137578,-0.18940355999999997,-0.040342249999999996,0.44378799999999996,0.0759355,0.00896428,-25.26968331,-3.34016014,-8.47813742,85.84919485,-0.5122047796,-0.2425232605,0.6702471835999999,0.3035276992,0.105115058444,-0.3782710305
09:57:05,-0.72454249,-0.18414347999999997,-0.041703375,0.44325,0.07532825,0.009534240000000001,-25.245752605,-3.36185537,-8.48385161,85.896128175,-0.5158057918,-0.23798202775,0.6698787438,0.30350905359999997,0.104533572802,-0.37763788775
09:57:05,-0.7277092000000001,-0.17888339999999997,-0.04306449999999999,0.442712,0.074721,0.0101042,-25.2218219,-3.3835506,-8.489565800000001,85.9430615,-0.5194068039999999,-0.233440795,0.669510304,0.303490408,0.10395208716,-0.37700474500000003
09:57:05,-0.7308759100000001,-0.17362331999999997,-0.044425624999999996,0.442174,0.07411374999999999,0.01067416,-25.197891195,-3.40524583,-8.49527999,85.989994825,-0.5230078162,-0.22889956225,0.6691418642,0.3034717624,0.103370601518,-0.37637160225
09:57:05,-0.7340426200000001,-0.16836323999999997,-0.04578675,0.441636,0.0735065,0.011244120000000002,-25.17396049,-3.42694106,-8.500994180000001,86.03692815000001,-0.5266088284,-0.2243583295,0.6687734244,0.3034531168,0.102789115876,-0.3757384595
09:57:05,-0.73720933,-0.16310315999999997,-0.04714787499999999,0.441098,0.07289925,0.011814080000000001,-25.150029785,-3.44863629,-8.50670837,86.083861475,-0.5302098406,-0.21981709675,0.6684049846,0.3034344712,0.102207630234,-0.37510531675000003
09:57:05,-0.74037604,-0.15784307999999997,-0.048509,0.44056,0.072292,0.01238404,-25.12609908,-3.4703315200000002,-8.512422560000001,86.1307948,-0.5338108528,-0.21527586399999998,0.6680365448,0.3034158256,0.101626144592,-0.374472174
09:57:05,-0.74354275,-0.15258299999999997,-0.049870125,0.44002199999999997,0.07168474999999999,0.012954,-25.102168374999998,-3.49202675,-8.51813675,86.177728125,-0.5374118649999999,-0.21073463125,0.667668105,0.30339718,0.10104465895,-0.37383903125
09:57:05,-0.74670946,-0.14732291999999997,-0.05123124999999999,0.439484,0.0710775,0.01352396,-25.07823767,-3.51372198,-8.52385094,86.22466145,-0.5410128772,-0.2061933985,0.6672996652,0.3033785344,0.100463173308,-0.3732058885
09:57:05,-0.7498761700000001,-0.14206283999999997,-0.052592375,0.438946,0.07047025,0.014093920000000001,-25.054306965,-3.53541721,-8.52956513,86.271594775,-0.5446138894,-0.20165216575,0.6669312253999999,0.3033598888,0.099881687666,-0.37257274575
09:57:05,-0.7530428800000001,-0.13680275999999997,-0.0539535,0.43840799999999996,0.069863,0.014663880000000002,-25.03037626,-3.55711244,-8.53527932,86.3185281,-0.5482149016,-0.197110933,0.6665627855999999,0.3033412432,0.099300202024,-0.371939603
09:57:05,-0.7562095900000001,-0.13154267999999997,-0.05531462499999999,0.43787,0.06925575,0.01523384,-25.006445555,-3.5788076699999998,-8.54099351,86.365461425,-0.5518159138,-0.19256970025,0.6661943457999999,0.3033225976,0.098718716382,-0.37130646025
09:57:05,-0.7593763,-0.12628259999999997,-0.05667575,0.437332,0.0686485,0.0158038,-24.98251485,-3.6005029,-8.5467077,86.41239475,-0.5554169259999999,-0.1880284675,0.6658259059999999,0.303303952,0.09813723074,-0.3706733175
09:57:05,-0.76254301,-0.12102251999999997,-0.058036875,0.436794,0.06804125,0.016373759999999998,-24.958584145,-3.62219813,-8.55242189,86.459328075,-0.5590179382,-0.18348723475,0.6654574661999999,0.3032853064,0.097555745098,-0.37004017475
09:57:05,-0.76570972,-0.11576243999999997,-0.05939799999999999,0.436256,0.067434,0.01694372,-24.934653439999998,-3.64389336,-8.55813608,86.5062614,-0.5626189504,-0.178946002,0.6650890264,0.3032666608,0.096974259456,-0.369407032
09:57:05,-0.76887643,-0.11050235999999997,-0.060759125,0.435718,0.06682674999999999,0.01751368,-24.910722735,-3.66558859,-8.56385027,86.553194725,-0.5662199626,-0.17440476924999998,0.6647205866,0.3032480152,0.096392773814,-0.36877388925
09:57:05,-0.7720431400000001,-0.10524227999999997,-0.06212025,0.43518,0.0662195,0.018083639999999998,-24.88679203,-3.68728382,-8.56956446,86.60012805,-0.5698209748,-0.1698635365,0.6643521468,0.3032293696,0.09581128817199999,-0.3681407465
09:57:05,-0.77520985,-0.09998219999999997,-0.06348137499999999,0.434642,0.06561225,0.0186536,-24.862861325,-3.70897905,-8.57527865,86.647061375,-0.573421987,-0.16532230374999998,0.663983707,0.303210724,0.09522980252999999,-0.36750760375
09:57:05,-0.77837656,-0.09472211999999997,-0.0648425,0.434104,0.065005,0.019223559999999997,-24.83893062,-3.73067428,-8.58099284,86.6939947,-0.5770229992,-0.160781071,0.6636152672,0.3031920784,0.094648316888,-0.366874461
09:57:05,-0.78154327,-0.08946203999999996,-0.066203625,0.433566,0.06439775,0.01979352,-24.814999915,-3.75236951,-8.58670703,86.740928025,-0.5806240114,-0.15623983824999998,0.6632468274,0.3031734328,0.094066831246,-0.36624131825
09:57:05,-0.78470998,-0.08420195999999996,-0.06756474999999999,0.43302799999999997,0.0637905,0.02036348,-24.79106921,-3.77406474,-8.59242122,86.78786135,-0.5842250236,-0.1516986055,0.6628783876,0.3031547872,0.093485345604,-0.3656081755
09:57:05,-0.78787669,-0.07894187999999996,-0.068925875,0.43249,0.06318325,0.020933439999999998,-24.767138505,-3.7957599699999998,-8.59813541,86.834794675,-0.5878260358,-0.14715737275,0.6625099477999999,0.3031361416,0.092903859962,-0.36497503275
09:57:05,-0.7910434000000001,-0.07368179999999996,-0.07028699999999999,0.431952,0.06257599999999999,0.0215034,-24.7432078,-3.8174552,-8.6038496,86.881728,-0.591427048,-0.14261614,0.6621415079999999,0.303117496,0.09232237432,-0.36434189
09:57:05,-0.7942101100000001,-0.06842171999999996,-0.071648125,0.43141399999999996,0.061968749999999996,0.02207336,-24.719277095,-3.83915043,-8.609563790000001,86.92866132500001,-0.5950280602,-0.13807490725,0.6617730681999999,0.3030988504,0.091740888678,-0.36370874725
09:57:05,-0.79737682,-0.06316163999999996,-0.07300925,0.430876,0.0613615,0.022643319999999998,-24.69534639,-3.86084566,-8.61527798,86.97559465,-0.5986290724,-0.13353367449999998,0.6614046283999999,0.3030802048,0.091159403036,-0.3630756045
09:57:05,-0.80054353,-0.05790155999999996,-0.07437037499999999,0.430338,0.060754249999999996,0.02321328,-24.671415685,-3.88254089,-8.620992170000001,87.022527975,-0.6022300845999999,-0.12899244175,0.6610361885999999,0.3030615592,0.090577917394,-0.36244246175
09:57:05,-0.80371024,-0.05264147999999996,-0.0757315,0.4298,0.06014699999999999,0.02378324,-24.64748498,-3.90423612,-8.62670636,87.0694613,-0.6058310968,-0.12445120899999998,0.6606677488,0.3030429136,0.089996431752,-0.361809319
09:57:05,-0.80687695,-0.04738139999999996,-0.077092625,0.429262,0.059539749999999995,0.0243532,-24.623554275,-3.92593135,-8.63242055,87.116394625,-0.609432109,-0.11990997625,0.660299309,0.303024268,0.08941494611,-0.36117617625
09:57:05,-0.81004366,-0.04212131999999996,-0.07845374999999999,0.428724,0.0589325,0.02492316,-24.59962357,-3.94762658,-8.63813474,87.16332795,-0.6130331212,-0.11536874349999998,0.6599308692,0.3030056224,0.088833460468,-0.3605430335
09:57:05,-0.8132103700000001,-0.03686123999999996,-0.079814875,0.428186,0.058325249999999995,0.025493119999999998,-24.575692865,-3.9693218100000003,-8.64384893,87.21026127500001,-0.6166341334,-0.11082751075,0.6595624294,0.3029869768,0.088251974826,-0.35990989075
09:57:05,-0.8163770800000001,-0.03160115999999996,-0.081176,0.427648,0.057718,0.02606308,-24.55176216,-3.99101704,-8.64956312,87.2571946,-0.6202351455999999,-0.10628627799999998,0.6591939896,0.3029683312,0.087670489184,-0.359276748
09:57:05,-0.81954379,-0.02634107999999996,-0.08253712499999999,0.42711,0.05711075,0.02663304,-24.527831455,-4.01271227,-8.65527731,87.304127925,-0.6238361578,-0.10174504524999997,0.6588255498,0.3029496856,0.087089003542,-0.35864360525
09:57:05,-0.8227105,-0.02108099999999996,-0.08389825,0.426572,0.0565035,0.027202999999999998,-24.50390075,-4.0344075,-8.6609915,87.35106125,-0.62743717,-0.09720381249999999,0.65845711,0.30293104,0.0865075179,-0.3580104625
09:57:05,-0.82587721,-0.01582091999999996,-0.08525937499999998,0.42603399999999997,0.055896249999999995,0.02777296,-24.479970044999998,-4.05610273,-8.66670569,87.397994575,-0.6310381822,-0.09266257974999997,0.6580886702,0.3029123944,0.085926032258,-0.35737731975
09:57:05,-0.82904392,-0.01056083999999996,-0.08662049999999999,0.425496,0.055289,0.028342919999999997,-24.45603934,-4.07779796,-8.67241988,87.4449279,-0.6346391944,-0.08812134699999999,0.6577202303999999,0.3028937488,0.085344546616,-0.356744177
09:57:05,-0.8322106300000001,-0.00530075999999996,-0.087981625,0.424958,0.054681749999999994,0.02891288,-24.432108635,-4.0994931900000005,-8.67813407,87.49186122500001,-0.6382402065999999,-0.08358011424999998,0.6573517905999999,0.3028751032,0.08476306097399999,-0.35611103425
09:57:05,-0.83537734,-4.067999999995964e-05,-0.08934274999999998,0.42442,0.0540745,0.02948284,-24.40817793,-4.12118842,-8.68384826,87.53879455,-0.6418412188,-0.07903888149999999,0.6569833507999999,0.3028564576,0.08418157533199999,-0.3554778915
09:57:05,-0.8385440500000001,0.005219400000000041,-0.09070387499999999,0.423882,0.053467249999999994,0.0300528,-24.384247225,-4.14288365,-8.68956245,87.585727875,-0.645442231,-0.07449764874999998,0.6566149109999999,0.302837812,0.08360008968999999,-0.35484474875
09:57:05,-0.84171076,0.010479480000000041,-0.092065,0.423344,0.05286,0.030622760000000002,-24.360316519999998,-4.16457888,-8.69527664,87.6326612,-0.6490432432,-0.06995641599999997,0.6562464712,0.3028191664,0.08301860404799999,-0.354211606
09:57:05,-0.84487747,0.01573956000000004,-0.09342612499999998,0.422806,0.052252749999999994,0.031192719999999997,-24.336385815,-4.18627411,-8.70099083,87.679594525,-0.6526442554,-0.06541518324999995,0.6558780314,0.3028005208,0.082437118406,-0.35357846325
09:57:05,-0.84804418,0.02099964000000004,-0.09478724999999999,0.422268,0.0516455,0.03176268,-24.31245511,-4.20796934,-8.70670502,87.72652785,-0.6562452676,-0.060873950499999996,0.6555095916,0.3027818752,0.081855632764,-0.3529453205
09:57:05,-0.85121089,0.026259720000000042,-0.096148375,0.42173,0.05103824999999999,0.03233264,-24.288524405,-4.22966457,-8.71241921,87.773461175,-0.6598462798,-0.05633271774999998,0.6551411518,0.3027632296,0.081274147122,-0.35231217775
09:57:05,-0.8543776000000001,0.03151980000000004,-0.09750949999999999,0.421192,0.050431,0.032902600000000004,-24.2645937,-4.2513597999999995,-8.7181334,87.8203945,-0.663447292,-0.05179148499999997,0.654772712,0.302744584,0.08069266148,-0.351679035
09:57:05,-0.85754431,0.03677988000000004,-0.09887062499999999,0.420654,0.04982374999999999,0.033472560000000005,-24.240662995,-4.27305503,-8.72384759,87.867327825,-0.6670483041999999,-0.04725025224999996,0.6544042722,0.3027259384,0.080111175838,-0.35104589225
09:57:05,-0.86071102,0.04203996000000004,-0.10023175,0.420116,0.049216499999999996,0.03404252,-24.21673229,-4.29475026,-8.729561780000001,87.91426115,-0.6706493164,-0.0427090195,0.6540358324,0.3027072928,0.07952969019600001,-0.3504127495
09:57:05,-0.86387773,0.04730004000000004,-0.10159287499999999,0.419578,0.04860924999999999,0.03461248,-24.192801584999998,-4.3164454899999996,-8.73527597,87.961194475,-0.6742503286,-0.03816778674999999,0.6536673926,0.3026886472,0.078948204554,-0.34977960675
09:57:05,-0.86704444,0.052560120000000043,-0.10295399999999999,0.41903999999999997,0.048001999999999996,0.03518244,-24.16887088,-4.33814072,-8.74099016,88.0081278,-0.6778513408,-0.033626553999999975,0.6532989527999999,0.3026700016,0.078366718912,-0.349146464
09:57:05,-0.87021115,0.057820200000000044,-0.104315125,0.418502,0.04739475,0.035752400000000004,-24.144940175,-4.35983595,-8.74670435,88.055061125,-0.681452353,-0.029085321249999962,0.6529305129999999,0.302651356,0.07778523327,-0.34851332125
09:57:05,-0.8733778600000001,0.06308028000000004,-0.10567624999999999,0.417964,0.046787499999999996,0.036322360000000005,-24.12100947,-4.38153118,-8.75241854,88.10199445,-0.6850533651999999,-0.02454408849999995,0.6525620731999999,0.3026327104,0.077203747628,-0.3478801785
09:57:05,-0.8765445700000001,0.06834036000000004,-0.10703737499999999,0.417426,0.04618025,0.03689232,-24.097078765,-4.40322641,-8.75813273,88.148927775,-0.6886543774,-0.020002855749999993,0.6521936333999999,0.3026140648,0.076622261986,-0.34724703575
09:57:05,-0.87971128,0.07360044000000004,-0.1083985,0.416888,0.045572999999999995,0.03746228,-24.07314806,-4.42492164,-8.76384692,88.1958611,-0.6922553896,-0.01546162299999998,0.6518251935999999,0.3025954192,0.076040776344,-0.346613893
09:57:05,-0.88287799,0.07886052000000005,-0.10975962499999999,0.41635,0.04496575,0.03803224,-24.049217355,-4.44661687,-8.76956111,88.242794425,-0.6958564018,-0.010920390249999967,0.6514567538,0.3025767736,0.075459290702,-0.34598075025
09:57:05,-0.8860447,0.08412060000000005,-0.11112074999999999,0.415812,0.044358499999999995,0.0386022,-24.025286649999998,-4.4683121,-8.7752753,88.28972775,-0.699457414,-0.0063791574999999545,0.651088314,0.302558128,0.07487780506,-0.3453476075
09:57:05,-0.88921141,0.08938068000000005,-0.112481875,0.415274,0.04375125,0.039172160000000004,-24.001355945,-4.49000733,-8.78098949,88.336661075,-0.7030584261999999,-0.0018379247499999973,0.6507198742,0.3025394824,0.074296319418,-0.34471446475
09:57:05,-0.89237812,0.09464076000000005,-0.11384299999999999,0.414736,0.043143999999999995,0.03974212,-23.97742524,-4.51170256,-8.78670368,88.3835944,-0.7066594384,0.0027033080000000154,0.6503514344,0.3025208368,0.073714833776,-0.344081322
09:57:05,-0.89554483,0.09990084000000005,-0.11520412499999999,0.414198,0.04253675,0.04031208,-23.953494535,-4.53339779,-8.79241787,88.430527725,-0.7102604506,0.007244540750000028,0.6499829946,0.3025021912,0.07313334813399999,-0.34344817925
09:57:05,-0.8987115400000001,0.10516092000000005,-0.11656525,0.41366,0.041929499999999995,0.04088204,-23.92956383,-4.55509302,-8.79813206,88.47746105,-0.7138614628,0.01178577350000004,0.6496145548,0.3024835456,0.07255186249199999,-0.3428150365
09:57:05,-0.90187825,0.11042100000000005,-0.11792637499999999,0.413122,0.04132225,0.041452,-23.905633125,-4.57678825,-8.80384625,88.524394375,-0.717462475,0.016327006250000053,0.649246115,0.3024649,0.07197037684999999,-0.34218189375
09:57:05,-0.90504496,0.11568108000000005,-0.11928749999999999,0.412584,0.040714999999999994,0.042021960000000004,-23.88170242,-4.59848348,-8.80956044,88.5713277,-0.7210634871999999,0.02086823900000001,0.6488776752,0.3024462544,0.07138889120799999,-0.341548751
09:57:05,-0.90821167,0.12094116000000005,-0.120648625,0.412046,0.04010775,0.042591920000000005,-23.857771715,-4.62017871,-8.81527463,88.618261025,-0.7246644994,0.025409471750000023,0.6485092353999999,0.3024276088,0.070807405566,-0.34091560825
09:57:05,-0.91137838,0.12620124000000005,-0.12200974999999999,0.411508,0.039500499999999994,0.04316188,-23.83384101,-4.64187394,-8.82098882,88.66519435000001,-0.7282655116,0.029950704500000036,0.6481407955999999,0.3024089632,0.070225919924,-0.3402824655
09:57:05,-0.9145450900000001,0.13146132000000005,-0.12337087499999999,0.41097,0.03889325,0.04373184,-23.809910305,-4.66356917,-8.82670301,88.712127675,-0.7318665238,0.03449193725000005,0.6477723557999999,0.3023903176,0.069644434282,-0.33964932275
09:57:05,-0.9177118,0.13672140000000005,-0.12473199999999998,0.410432,0.038285999999999994,0.0443018,-23.7859796,-4.685264399999999,-8.8324172,88.759061,-0.735467536,0.039033170000000006,0.6474039159999999,0.302371672,0.06906294864,-0.33901618
09:57:05,-0.9208785100000001,0.14198148000000005,-0.126093125,0.409894,0.03767875,0.044871760000000004,-23.762048895,-4.70695963,-8.838131390000001,88.805994325,-0.7390685481999999,0.04357440275000002,0.6470354761999999,0.3023530264,0.068481462998,-0.33838303725
09:57:05,-0.92404522,0.14724156000000005,-0.12745425,0.409356,0.03707149999999999,0.045441720000000005,-23.738118189999998,-4.72865486,-8.84384558,88.85292765,-0.7426695604,0.04811563550000003,0.6466670364,0.3023343808,0.06789997735600001,-0.3377498945
09:57:05,-0.92721193,0.15250164000000005,-0.12881537499999998,0.408818,0.03646425,0.04601168,-23.714187485,-4.7503500899999995,-8.84955977,88.899860975,-0.7462705726,0.052656868250000044,0.6462985966,0.3023157352,0.067318491714,-0.33711675175
09:57:05,-0.93037864,0.15776172000000005,-0.1301765,0.40828,0.03585699999999999,0.04658164,-23.69025678,-4.77204532,-8.85527396,88.9467943,-0.7498715847999999,0.05719810100000006,0.6459301568,0.3022970896,0.066737006072,-0.336483609
09:57:05,-0.9335453499999999,0.16302180000000005,-0.131537625,0.407742,0.035249749999999996,0.0471516,-23.666326075,-4.79374055,-8.86098815,88.993727625,-0.753472597,0.061739333750000014,0.645561717,0.302278444,0.06615552043,-0.33585046625000003
09:57:05,-0.9367120600000001,0.16828188000000005,-0.13289874999999998,0.407204,0.03464249999999999,0.04772156,-23.64239537,-4.81543578,-8.86670234,89.04066095,-0.7570736092,0.06628056650000003,0.6451932772,0.3022597984,0.065574034788,-0.3352173235
09:57:05,-0.93987877,0.17354196000000005,-0.134259875,0.40666599999999997,0.034035249999999996,0.048291520000000004,-23.618464664999998,-4.83713101,-8.87241653,89.087594275,-0.7606746214,0.07082179925000004,0.6448248374,0.3022411528,0.064992549146,-0.33458418075
09:57:05,-0.94304548,0.17880204000000005,-0.135621,0.406128,0.03342799999999999,0.048861480000000006,-23.59453396,-4.85882624,-8.87813072,89.1345276,-0.7642756336,0.07536303200000005,0.6444563976,0.3022225072,0.064411063504,-0.33395103800000003
09:57:05,-0.94621219,0.18406212000000005,-0.13698212499999998,0.40559,0.032820749999999996,0.04943144,-23.570603254999998,-4.88052147,-8.88384491,89.181460925,-0.7678766457999999,0.07990426475000006,0.6440879577999999,0.3022038616,0.063829577862,-0.33331789525
09:57:05,-0.9493789,0.18932220000000005,-0.13834325,0.405052,0.03221349999999999,0.0500014,-23.54667255,-4.9022167,-8.8895591,89.22839425,-0.771477658,0.08444549750000002,0.6437195179999999,0.302185216,0.06324809222,-0.3326847525
09:57:05,-0.95254561,0.19458228000000005,-0.139704375,0.404514,0.031606249999999995,0.05057136,-23.522741845,-4.92391193,-8.89527329,89.275327575,-0.7750786702,0.08898673025000003,0.6433510781999999,0.3021665704,0.062666606578,-0.33205160975000003
09:57:05,-0.95571232,0.19984236000000005,-0.14106549999999998,0.403976,0.030998999999999992,0.051141320000000004,-23.49881114,-4.94560716,-8.90098748,89.3222609,-0.7786796824,0.09352796300000005,0.6429826383999999,0.3021479248,0.062085120936,-0.331418467
09:57:05,-0.9588790300000001,0.20510244000000005,-0.142426625,0.403438,0.030391749999999995,0.051711280000000005,-23.474880435,-4.96730239,-8.90670167,89.369194225,-0.7822806946,0.09806919575000006,0.6426141985999999,0.3021292792,0.061503635294,-0.33078532425
09:57:05,-0.96204574,0.21036252000000005,-0.14378775,0.4029,0.02978449999999999,0.05228124,-23.450949729999998,-4.98899762,-8.91241586,89.41612755,-0.7858817067999999,0.10261042850000002,0.6422457587999999,0.3021106336,0.060922149652,-0.33015218150000003
09:57:05,-0.96521245,0.21562260000000005,-0.14514887499999998,0.402362,0.029177249999999995,0.0528512,-23.427019025,-5.01069285,-8.91813005,89.463060875,-0.789482719,0.10715166125000003,0.641877319,0.302091988,0.060340664009999996,-0.32951903875
09:57:05,-0.96837916,0.22088268000000005,-0.14651,0.401824,0.028569999999999998,0.05342116,-23.40308832,-5.0323880800000005,-8.92384424,89.5099942,-0.7930837312,0.11169289400000004,0.6415088792,0.3020733424,0.059759178368,-0.328885896
09:57:05,-0.97154587,0.22614276000000005,-0.147871125,0.40128600000000003,0.027962749999999995,0.053991120000000004,-23.379157615,-5.054083309999999,-8.92955843,89.556927525,-0.7966847434,0.11623412675000006,0.6411404394,0.3020546968,0.059177692726,-0.32825275325000003
09:57:05,-0.97471258,0.23140284000000005,-0.14923224999999998,0.400748,0.027355499999999998,0.054561080000000005,-23.35522691,-5.07577854,-8.93527262,89.60386085,-0.8002857556,0.12077535950000007,0.6407719996,0.3020360512,0.058596207084,-0.3276196105
09:57:05,-0.97787929,0.23666292000000005,-0.15059337499999997,0.40021,0.026748249999999994,0.05513104,-23.331296205,-5.097473770000001,-8.94098681,89.650794175,-0.8038867677999999,0.12531659225000003,0.6404035598,0.3020174056,0.058014721442,-0.32698646775
09:57:05,-0.9810460000000001,0.24192300000000005,-0.1519545,0.399672,0.026140999999999998,0.055701,-23.3073655,-5.119168999999999,-8.946701000000001,89.6977275,-0.80748778,0.12985782500000004,0.64003512,0.30199876000000003,0.057433235799999996,-0.326353325
09:57:05,-0.98421271,0.24718308000000005,-0.15331562499999998,0.399134,0.025533749999999994,0.05627096,-23.283434794999998,-5.14086423,-8.95241519,89.744660825,-0.8110887922,0.13439905775000005,0.6396666802,0.3019801144,0.056851750158,-0.32572018225
09:57:05,-0.98737942,0.25244316000000006,-0.15467674999999997,0.398596,0.024926499999999997,0.05684092,-23.25950409,-5.16255946,-8.95812938,89.79159415,-0.8146898043999999,0.13894029050000006,0.6392982403999999,0.3019614688,0.056270264516,-0.3250870395
09:57:05,-0.99054613,0.25770324000000006,-0.156037875,0.398058,0.02431925,0.057410880000000004,-23.235573385,-5.1842546899999995,-8.96384357,89.838527475,-0.8182908166,0.14348152325000002,0.6389298005999999,0.3019428232,0.055688778874,-0.32445389675
09:57:05,-0.99371284,0.26296332000000006,-0.15739899999999998,0.39752,0.023711999999999997,0.05798084,-23.21164268,-5.20594992,-8.96955776,89.8854608,-0.8218918288,0.14802275600000003,0.6385613607999999,0.3019241776,0.055107293232,-0.323820754
09:57:05,-0.9968795500000001,0.26822340000000006,-0.15876012499999997,0.396982,0.023104749999999993,0.0585508,-23.187711975,-5.22764515,-8.97527195,89.932394125,-0.825492841,0.15256398875000005,0.6381929209999999,0.30190553200000003,0.054525807589999996,-0.32318761125
09:57:05,-1.00004626,0.27348348000000006,-0.16012125,0.396444,0.02249749999999999,0.05912076,-23.16378127,-5.24934038,-8.98098614,89.97932745,-0.8290938532,0.15710522150000006,0.6378244812,0.3018868864,0.053944321948,-0.3225544685
09:57:05,-1.00321297,0.27874356000000006,-0.16148237499999998,0.395906,0.02189025,0.05969072,-23.139850565,-5.27103561,-8.98670033,90.026260775,-0.8326948653999999,0.16164645425000007,0.6374560414,0.3018682408,0.053362836306,-0.32192132575
09:57:05,-1.00637968,0.28400364000000006,-0.16284349999999997,0.395368,0.021282999999999996,0.060260680000000004,-23.115919859999998,-5.29273084,-8.99241452,90.0731941,-0.8362958776,0.16618768700000003,0.6370876016,0.3018495952,0.052781350664,-0.321288183
09:57:05,-1.0095463900000001,0.28926372000000006,-0.164204625,0.39483,0.020675749999999993,0.060830640000000005,-23.091989155,-5.31442607,-8.99812871,90.12012742499999,-0.8398968898,0.17072891975000004,0.6367191618,0.3018309496,0.052199865022,-0.32065504025
09:57:05,-1.0127131,0.29452380000000006,-0.16556574999999998,0.394292,0.02006849999999999,0.06140060000000001,-23.06805845,-5.3361213,-9.0038429,90.16706075,-0.843497902,0.17527015250000005,0.636350722,0.30181230400000003,0.051618379379999996,-0.3200218975
09:57:05,-1.01587981,0.29978388000000006,-0.16692687499999997,0.393754,0.01946125,0.06197056,-23.044127745,-5.35781653,-9.00955709,90.213994075,-0.8470989142,0.17981138525,0.6359822822,0.3017936584,0.051036893737999994,-0.31938875475
09:57:05,-1.01904652,0.30504396000000006,-0.168288,0.393216,0.018853999999999996,0.06254052,-23.02019704,-5.37951176,-9.01527128,90.2609274,-0.8506999263999999,0.18435261800000008,0.6356138424,0.3017750128,0.05045540809599999,-0.318755612
09:57:05,-1.02221323,0.31030404000000006,-0.16964912499999998,0.392678,0.018246749999999992,0.06311048,-22.996266335,-5.40120699,-9.02098547,90.307860725,-0.8543009386,0.18889385075000004,0.6352454026,0.3017563672,0.04987392245399999,-0.31812246925
09:57:05,-1.02537994,0.31556412000000006,-0.17101024999999997,0.39214,0.01763949999999999,0.06368043999999999,-22.97233563,-5.42290222,-9.02669966,90.35479405,-0.8579019508,0.1934350835000001,0.6348769627999999,0.3017377216,0.049292436812000004,-0.3174893265
09:57:05,-1.02854665,0.32082420000000006,-0.172371375,0.391602,0.01703225,0.0642504,-22.948404925,-5.44459745,-9.03241385,90.401727375,-0.861502963,0.19797631625000006,0.6345085229999999,0.30171907600000003,0.04871095117,-0.31685618375
09:57:05,-1.03171336,0.32608428000000006,-0.17373249999999998,0.391064,0.016424999999999995,0.06482036,-22.92447422,-5.4662926800000005,-9.03812804,90.4486607,-0.8651039752,0.20251754900000002,0.6341400831999999,0.3017004304,0.048129465528,-0.316223041
09:57:05,-1.03488007,0.33134436000000006,-0.17509362499999997,0.390526,0.01581774999999999,0.06539032,-22.900543515,-5.487987909999999,-9.04384223,90.495594025,-0.8687049873999999,0.2070587817500001,0.6337716433999999,0.3016817848,0.047547979886,-0.31558989825
09:57:05,-1.03804678,0.33660444000000006,-0.17645475,0.389988,0.015210499999999988,0.06596028,-22.876612809999997,-5.50968314,-9.04955642,90.54252735,-0.8723059996,0.21160001450000004,0.6334032035999999,0.3016631392,0.046966494244,-0.3149567555
09:57:05,-1.04121349,0.34186452000000006,-0.17781587499999998,0.38945,0.014603249999999998,0.06653023999999999,-22.852682105,-5.5313783700000005,-9.055270609999999,90.589460675,-0.8759070118,0.21614124725,0.6330347638,0.3016444936,0.046385008602,-0.31432361275
09:57:05,-1.0443802,0.34712460000000006,-0.17917699999999998,0.38891200000000004,0.013995999999999995,0.0671002,-22.828751399999998,-5.553073599999999,-9.0609848,90.636394,-0.8795080239999999,0.22068248000000007,0.632666324,0.30162584800000003,0.045803522959999995,-0.31369047
09:57:05,-1.0475469099999999,0.35238468000000006,-0.180538125,0.388374,0.013388749999999991,0.06767016,-22.804820695,-5.57476883,-9.066698989999999,90.683327325,-0.8831090362,0.22522371275000003,0.6322978842,0.3016072024,0.045222037317999994,-0.31305732725
09:57:05,-1.05071362,0.35764476000000006,-0.18189924999999998,0.387836,0.012781499999999987,0.06824012,-22.78088999,-5.59646406,-9.07241318,90.73026065,-0.8867100483999999,0.2297649455000001,0.6319294444,0.3015885568,0.04464055167599999,-0.3124241845
09:57:05,-1.0538803300000001,0.36290484000000006,-0.18326037499999998,0.38729800000000003,0.012174249999999998,0.06881008,-22.756959285,-5.6181592899999995,-9.07812737,90.777193975,-0.8903110606,0.23430617825000005,0.6315610046,0.3015699112,0.04405906603399999,-0.31179104175
09:57:05,-1.05704704,0.36816492000000006,-0.1846215,0.38676,0.011566999999999994,0.06938003999999999,-22.73302858,-5.63985452,-9.08384156,90.8241273,-0.8939120728,0.238847411,0.6311925648,0.3015512656,0.043477580392000004,-0.311157899
09:57:05,-1.06021375,0.37342500000000006,-0.18598262499999998,0.386222,0.01095974999999999,0.06995,-22.709097874999998,-5.66154975,-9.08955575,90.871060625,-0.8975130849999999,0.24338864375000008,0.630824125,0.30153262000000003,0.04289609475,-0.31052475625
09:57:05,-1.06338046,0.37868508000000006,-0.18734374999999998,0.385684,0.010352499999999987,0.07051995999999999,-22.68516717,-5.68324498,-9.09526994,90.91799395,-0.9011140972,0.24792987650000003,0.6304556852,0.3015139744,0.042314609108,-0.3098916135
09:57:05,-1.06654717,0.38394516000000006,-0.188704875,0.385146,0.009745249999999997,0.07108992,-22.661236464999998,-5.70494021,-9.10098413,90.964927275,-0.9047151094,0.2524711092500001,0.6300872453999999,0.3014953288,0.041733123466,-0.30925847075
09:57:05,-1.0697138800000001,0.38920524000000006,-0.19006599999999998,0.384608,0.009137999999999993,0.07165988,-22.63730576,-5.72663544,-9.10669832,91.0118606,-0.9083161216,0.25701234200000006,0.6297188055999999,0.3014766832,0.041151637824,-0.308625328
09:57:05,-1.07288059,0.39446532000000006,-0.19142712499999998,0.38407,0.00853074999999999,0.07222983999999999,-22.613375055,-5.74833067,-9.11241251,91.058793925,-0.9119171338,0.26155357475,0.6293503657999999,0.3014580376,0.040570152182,-0.30799218525
09:57:05,-1.0760473,0.39972540000000006,-0.19278825,0.383532,0.0079235,0.0727998,-22.58944435,-5.7700259,-9.1181267,91.10572725,-0.9155181459999999,0.2660948075000001,0.6289819259999999,0.30143939200000003,0.039988666539999995,-0.3073590425
09:57:05,-1.07921401,0.40498548000000006,-0.19414937499999999,0.382994,0.007316249999999996,0.07336975999999999,-22.565513645,-5.79172113,-9.12384089,91.152660575,-0.9191191582,0.27063604025000004,0.6286134861999999,0.3014207464,0.039407180897999994,-0.30672589975
09:57:05,-1.08238072,0.41024556000000006,-0.19551049999999998,0.382456,0.006708999999999993,0.07393972,-22.541582939999998,-5.81341636,-9.12955508,91.1995939,-0.9227201704,0.2751772730000001,0.6282450464,0.3014021008,0.03882569525599999,-0.306092757
09:57:05,-1.08554743,0.41550564000000006,-0.196871625,0.381918,0.006101749999999989,0.07450968,-22.517652235,-5.83511159,-9.13526927,91.246527225,-0.9263211826,0.27971850575000007,0.6278766066,0.3013834552,0.038244209614000005,-0.30545961425
09:57:05,-1.08871414,0.42076572000000007,-0.19823274999999999,0.38138,0.005494499999999999,0.07507963999999999,-22.49372153,-5.85680682,-9.14098346,91.29346054999999,-0.9299221948,0.2842597385,0.6275081668,0.3013648096,0.037662723972,-0.3048264715
09:57:05,-1.09188085,0.42602580000000007,-0.19959387499999998,0.380842,0.004887249999999996,0.0756496,-22.469790825,-5.87850205,-9.14669765,91.340393875,-0.9335232069999999,0.2888009712500001,0.627139727,0.301346164,0.03708123833,-0.30419332875
09:57:05,-1.09504756,0.43128588000000007,-0.200955,0.380304,0.004279999999999992,0.07621955999999999,-22.44586012,-5.90019728,-9.15241184,91.3873272,-0.9371242192,0.29334220400000005,0.6267712872,0.3013275184,0.036499752688,-0.303560186
09:57:05,-1.09821427,0.43654596000000007,-0.20231612499999999,0.379766,0.0036727499999999885,0.07678952,-22.421929415,-5.921892509999999,-9.15812603,91.434260525,-0.9407252314,0.2978834367500001,0.6264028474,0.3013088728,0.035918267046,-0.30292704324999997
09:57:05,-1.10138098,0.44180604000000007,-0.20367724999999998,0.379228,0.0030654999999999988,0.07735948,-22.39799871,-5.94358774,-9.163840219999999,91.48119385,-0.9443262436,0.3024246695000001,0.6260344076,0.3012902272,0.035336781404,-0.3022939005
09:57:05,-1.10454769,0.44706612000000007,-0.205038375,0.37869,0.002458249999999995,0.07792943999999999,-22.374068004999998,-5.9652829700000005,-9.16955441,91.528127175,-0.9479272557999999,0.30696590225000003,0.6256659678,0.3012715816,0.034755295761999996,-0.30166075775
09:57:05,-1.1077143999999999,0.45232620000000007,-0.20639949999999999,0.378152,0.0018509999999999915,0.0784994,-22.3501373,-5.986978199999999,-9.175268599999999,91.57506049999999,-0.951528268,0.3115071350000001,0.6252975279999999,0.301252936,0.034173810119999995,-0.30102761499999997
09:57:05,-1.11088111,0.45758628000000007,-0.20776062499999998,0.377614,0.001243749999999988,0.07906935999999999,-22.326206595,-6.00867343,-9.18098279,91.621993825,-0.9551292802,0.31604836775000006,0.6249290881999999,0.3012342904,0.033592324477999994,-0.30039447225
09:57:05,-1.1140478200000001,0.46284636000000007,-0.20912175,0.377076,0.0006364999999999982,0.07963932,-22.30227589,-6.03036866,-9.18669698,91.66892715,-0.9587302924,0.3205896005,0.6245606483999999,0.3012156448,0.03301083883599999,-0.2997613295
09:57:05,-1.11721453,0.46810644000000007,-0.21048287499999999,0.37653800000000004,2.9249999999994558e-05,0.08020928,-22.278345185,-6.0520638899999994,-9.19241117,91.715860475,-0.9623313045999999,0.3251308332500001,0.6241922085999999,0.30119699920000004,0.032429353194000005,-0.29912818675
09:57:05,-1.12038124,0.47336652000000007,-0.21184399999999998,0.376,-0.0005780000000000091,0.08077923999999999,-22.25441448,-6.07375912,-9.19812536,91.7627938,-0.9659323168,0.32967206600000004,0.6238237687999999,0.3011783536,0.031847867552,-0.298495044
09:57:05,-1.12354795,0.47862660000000007,-0.213205125,0.375462,-0.0011852500000000127,0.0813492,-22.230483775,-6.09545435,-9.20383955,91.809727125,-0.969533329,0.3342132987500001,0.623455329,0.301159708,0.03126638191,-0.29786190125
09:57:05,-1.12671466,0.48388668000000007,-0.21456625,0.37492400000000004,-0.0017925000000000024,0.08191915999999999,-22.20655307,-6.1171495799999995,-9.20955374,91.85666044999999,-0.9731343412,0.33875453150000007,0.6230868892,0.3011410624,0.030684896268,-0.2972287585
09:57:05,-1.12988137,0.48914676000000007,-0.21592737499999998,0.374386,-0.002399750000000006,0.08248912,-22.182622365,-6.13884481,-9.21526793,91.903593775,-0.9767353534,0.34329576425,0.6227184494,0.3011224168,0.030103410626,-0.29659561575
09:57:05,-1.13304808,0.49440684000000007,-0.2172885,0.373848,-0.0030070000000000097,0.08305908,-22.15869166,-6.16054004,-9.22098212,91.9505271,-0.9803363655999999,0.3478369970000001,0.6223500096,0.30110377120000004,0.029521924983999998,-0.295962473
09:57:05,-1.13621479,0.49966692000000007,-0.218649625,0.37331000000000003,-0.0036142500000000133,0.08362904,-22.134760955,-6.18223527,-9.22669631,91.997460425,-0.9839373778,0.35237822975000005,0.6219815698,0.3010851256,0.028940439341999996,-0.29532933025
09:57:05,-1.1393815,0.5049270000000001,-0.22001074999999998,0.372772,-0.004221500000000003,0.084199,-22.11083025,-6.2039305,-9.2324105,92.04439375,-0.98753839,0.3569194625000001,0.62161313,0.30106648,0.028358953699999995,-0.2946961875
09:57:05,-1.14254821,0.5101870800000001,-0.221371875,0.372234,-0.004828750000000007,0.08476895999999999,-22.086899544999998,-6.22562573,-9.23812469,92.091327075,-0.9911394022,0.3614606952500001,0.6212446902,0.3010478344,0.027777468057999993,-0.29406304475
09:57:05,-1.14571492,0.5154471600000001,-0.222733,0.371696,-0.00543600000000001,0.08533892,-22.06296884,-6.24732096,-9.24383888,92.1382604,-0.9947404143999999,0.36600192800000003,0.6208762503999999,0.3010291888,0.027195982415999992,-0.293429902
09:57:05,-1.14888163,0.5207072400000001,-0.22409412499999998,0.371158,-0.006043250000000014,0.08590887999999999,-22.039038135,-6.26901619,-9.24955307,92.185193725,-0.9983414265999999,0.3705431607500001,0.6205078105999999,0.30101054320000004,0.026614496774000004,-0.29279675925000004
09:57:05,-1.15204834,0.5259673200000001,-0.22545525,0.37062,-0.006650500000000004,0.08647884,-22.01510743,-6.29071142,-9.25526726,92.23212705,-1.0019424388,0.37508439350000006,0.6201393707999999,0.3009918976,0.026033011132000003,-0.2921636165
09:57:05,-1.15521505,0.5312274000000001,-0.226816375,0.370082,-0.007257750000000007,0.0870488,-21.991176725,-6.31240665,-9.26098145,92.279060375,-1.0055434509999999,0.3796256262500001,0.6197709309999999,0.300973252,0.02545152549,-0.29153047375
09:57:05,-1.15838176,0.5364874800000001,-0.22817749999999998,0.369544,-0.007865000000000011,0.08761875999999999,-21.967246019999997,-6.33410188,-9.26669564,92.3259937,-1.0091444632,0.3841668590000001,0.6194024912,0.3009546064,0.024870039848,-0.29089733100000004
09:57:05,-1.16154847,0.5417475600000001,-0.229538625,0.369006,-0.008472250000000014,0.08818872,-21.943315315,-6.355797109999999,-9.272409829999999,92.372927025,-1.0127454754,0.38870809175000004,0.6190340514,0.3009359608,0.024288554206,-0.29026418825
09:57:05,-1.16471518,0.5470076400000001,-0.23089975,0.368468,-0.009079500000000004,0.08875867999999999,-21.919384609999998,-6.37749234,-9.27812402,92.41986035,-1.0163464876,0.3932493245000001,0.6186656116,0.30091731520000004,0.023707068563999997,-0.2896310455
09:57:05,-1.1678818899999999,0.5522677200000001,-0.23226087499999998,0.36793,-0.009686750000000008,0.08932864,-21.895453905,-6.3991875700000005,-9.283838209999999,92.46679367499999,-1.0199474998,0.39779055725000007,0.6182971718,0.3008986696,0.023125582921999996,-0.28899790275000004
09:57:05,-1.1710486,0.5575278000000001,-0.23362199999999997,0.367392,-0.010294000000000011,0.0898986,-21.8715232,-6.420882799999999,-9.2895524,92.513727,-1.023548512,0.40233179,0.617928732,0.300880024,0.022544097279999994,-0.28836476
09:57:05,-1.1742153100000001,0.5627878800000001,-0.234983125,0.366854,-0.010901250000000001,0.09046855999999999,-21.847592495,-6.44257803,-9.29526659,92.560660325,-1.0271495242,0.4068730227500001,0.6175602922,0.3008613784,0.021962611637999993,-0.28773161725
09:57:05,-1.17738202,0.5680479600000001,-0.23634424999999998,0.36631600000000003,-0.011508500000000005,0.09103852,-21.82366179,-6.46427326,-9.30098078,92.60759365,-1.0307505363999998,0.41141425550000005,0.6171918524,0.3008427328,0.02138112599599999,-0.28709847450000003
09:57:05,-1.18054873,0.5733080400000001,-0.23770537499999997,0.365778,-0.012115750000000008,0.09160847999999999,-21.799731084999998,-6.485968489999999,-9.30669497,92.654526975,-1.0343515486000001,0.4159554882500001,0.6168234126,0.30082408720000003,0.020799640354000004,-0.28646533175
09:57:05,-1.1837154399999998,0.5785681200000001,-0.2390665,0.36524,-0.012723000000000012,0.09217844,-21.77580038,-6.50766372,-9.31240916,92.7014603,-1.0379525608,0.4204967210000001,0.6164549728,0.3008054416,0.020218154712000003,-0.285832189
09:57:05,-1.18688215,0.5838282000000001,-0.24042762499999998,0.364702,-0.013330250000000002,0.0927484,-21.751869675,-6.52935895,-9.31812335,92.74839362499999,-1.0415535729999998,0.42503795375000003,0.6160865329999999,0.300786796,0.01963666907,-0.28519904625000003
09:57:05,-1.19004886,0.5890882800000001,-0.24178874999999997,0.36416400000000004,-0.013937500000000005,0.09331835999999999,-21.72793897,-6.5510541799999995,-9.32383754,92.79532695,-1.0451545852,0.4295791865000001,0.6157180931999999,0.3007681504,0.019055183428,-0.2845659035
09:57:05,-1.19321557,0.5943483600000001,-0.243149875,0.363626,-0.014544750000000009,0.09388832,-21.704008265,-6.57274941,-9.32955173,92.842260275,-1.0487555974,0.43412041925000006,0.6153496533999999,0.3007495048,0.018473697786,-0.28393276075
09:57:05,-1.19638228,0.5996084400000001,-0.24451099999999998,0.363088,-0.015152000000000013,0.09445827999999999,-21.68007756,-6.59444464,-9.33526592,92.8891936,-1.0523566095999999,0.4386616520000001,0.6149812135999999,0.30073085920000003,0.017892212143999997,-0.28329961800000003
09:57:05,-1.19954899,0.6048685200000001,-0.24587212499999997,0.36255000000000004,-0.015759250000000002,0.09502824,-21.656146855,-6.61613987,-9.34098011,92.936126925,-1.0559576218,0.4432028847500001,0.6146127738,0.3007122136,0.017310726501999996,-0.28266647525
09:57:05,-1.2027157,0.6101286000000001,-0.24723325,0.362012,-0.016366500000000006,0.0955982,-21.632216149999998,-6.6378351,-9.3466943,92.98306025,-1.059558634,0.44774411750000004,0.614244334,0.300693568,0.016729240859999994,-0.2820333325
09:57:05,-1.20588241,0.6153886800000001,-0.24859437499999998,0.361474,-0.01697375000000001,0.09616815999999999,-21.608285445,-6.65953033,-9.35240849,93.02999357499999,-1.0631596462,0.4522853502500001,0.6138758942,0.3006749224,0.016147755217999993,-0.28140018975000003
09:57:05,-1.20904912,0.6206487600000001,-0.24995549999999997,0.36093600000000003,-0.017581000000000013,0.09673812,-21.58435474,-6.68122556,-9.35812268,93.07692689999999,-1.0667606584,0.45682658300000006,0.6135074544,0.3006562768,0.015566269575999991,-0.280767047
09:57:05,-1.2122158299999999,0.6259088400000001,-0.251316625,0.360398,-0.018188250000000003,0.09730807999999999,-21.560424035,-6.70292079,-9.36383687,93.123860225,-1.0703616706,0.46136781575000013,0.6131390146,0.30063763120000003,0.014984783934000004,-0.28013390425
09:57:05,-1.21538254,0.6311689200000001,-0.25267775,0.35986,-0.018795500000000007,0.09787804,-21.53649333,-6.72461602,-9.36955106,93.17079355,-1.0739626828,0.4659090485000001,0.6127705748,0.3006189856,0.014403298292000002,-0.27950076150000003
09:57:05,-1.2185492500000001,0.6364290000000001,-0.254038875,0.35932200000000003,-0.01940275000000001,0.098448,-21.512562625,-6.74631125,-9.37526525,93.217726875,-1.0775636949999998,0.47045028125000005,0.612402135,0.30060034,0.013821812650000001,-0.27886761875
09:57:05,-1.22171596,0.6416890800000001,-0.2554,0.358784,-0.020010000000000014,0.09901796,-21.48863192,-6.76800648,-9.380979439999999,93.2646602,-1.0811647072,0.4749915140000001,0.6120336952,0.3005816944,0.013240327008,-0.278234476
09:57:05,-1.22488267,0.6469491600000001,-0.256761125,0.358246,-0.020617250000000004,0.09958792,-21.464701214999998,-6.789701709999999,-9.38669363,93.31159352499999,-1.0847657194,0.47953274675000007,0.6116652553999999,0.3005630488,0.012658841365999998,-0.27760133325
09:57:05,-1.2280493799999999,0.6522092400000001,-0.25812225,0.357708,-0.021224500000000007,0.10015787999999999,-21.44077051,-6.81139694,-9.392407819999999,93.35852685,-1.0883667315999999,0.48407397950000014,0.6112968155999999,0.30054440320000003,0.012077355723999997,-0.2769681905
09:57:05,-1.23121609,0.6574693200000001,-0.259483375,0.35717,-0.02183175000000001,0.10072784,-21.416839805,-6.8330921700000005,-9.39812201,93.405460175,-1.0919677438,0.4886152122500001,0.6109283757999999,0.3005257576,0.011495870081999995,-0.27633504775
09:57:05,-1.2343828000000001,0.6627294000000001,-0.2608445,0.356632,-0.022439000000000014,0.1012978,-21.392909099999997,-6.854787399999999,-9.4038362,93.4523935,-1.095568756,0.49315644500000005,0.6105599359999999,0.300507112,0.010914384439999994,-0.275701905
09:57:05,-1.23754951,0.6679894800000001,-0.262205625,0.356094,-0.023046250000000004,0.10186776,-21.368978395,-6.87648263,-9.40955039,93.499326825,-1.0991697682,0.4976976777500001,0.6101914961999999,0.30048846640000004,0.010332898797999993,-0.27506876225
09:57:05,-1.24071622,0.6732495600000001,-0.26356675,0.355556,-0.023653500000000008,0.10243772,-21.34504769,-6.89817786,-9.415264579999999,93.54626015,-1.1027707804,0.5022389105,0.6098230564,0.3004698208,0.009751413155999991,-0.2744356195
09:57:05,-1.2438829299999998,0.6785096400000001,-0.264927875,0.355018,-0.02426075000000001,0.10300767999999999,-21.321116985,-6.919873089999999,-9.42097877,93.59319347499999,-1.1063717926,0.5067801432500001,0.6094546166,0.30045117520000003,0.009169927514000004,-0.27380247675
09:57:05,-1.24704964,0.6837697200000001,-0.266289,0.35448,-0.024868000000000015,0.10357764,-21.29718628,-6.94156832,-9.42669296,93.64012679999999,-1.1099728048,0.5113213760000002,0.6090861768,0.3004325296,0.008588441872000002,-0.273169334
09:57:05,-1.25021635,0.6890298000000001,-0.267650125,0.35394200000000003,-0.025475250000000005,0.10414759999999999,-21.273255575,-6.963263550000001,-9.43240715,93.687060125,-1.1135738169999998,0.51586260875,0.608717737,0.300413884,0.00800695623,-0.27253619125
09:57:05,-1.25338306,0.6942898800000001,-0.26901125000000004,0.353404,-0.02608250000000001,0.10471756,-21.24932487,-6.9849587799999995,-9.43812134,93.73399345,-1.1171748292,0.5204038415000001,0.6083492972,0.30039523840000004,0.007425470587999999,-0.2719030485
09:57:05,-1.25654977,0.6995499600000001,-0.270372375,0.352866,-0.026689750000000012,0.10528752,-21.225394164999997,-7.00665401,-9.44383553,93.780926775,-1.1207758414,0.5249450742500001,0.6079808574,0.3003765928,0.006843984945999998,-0.27126990575
09:57:05,-1.25971648,0.7048100400000001,-0.2717335,0.35232800000000003,-0.027297000000000016,0.10585747999999999,-21.20146346,-7.028349240000001,-9.44954972,93.8278601,-1.1243768535999998,0.529486307,0.6076124176,0.30035794720000003,0.0062624993039999965,-0.270636763
09:57:05,-1.26288319,0.7100701200000001,-0.27309462500000004,0.35179000000000005,-0.027904250000000005,0.10642744,-21.177532754999998,-7.05004447,-9.45526391,93.874793425,-1.1279778658,0.5340275397500001,0.6072439778,0.3003393016,0.005681013661999995,-0.27000362025
09:57:05,-1.2660499,0.7153302000000001,-0.27445575,0.351252,-0.02851150000000001,0.10699739999999999,-21.15360205,-7.0717397,-9.4609781,93.92172674999999,-1.131578878,0.5385687725000001,0.6068755379999999,0.300320656,0.005099528019999994,-0.2693704775
09:57:05,-1.26921661,0.7205902800000001,-0.275816875,0.350714,-0.029118750000000013,0.10756736,-21.129671345,-7.093434929999999,-9.46669229,93.968660075,-1.1351798901999999,0.5431100052500002,0.6065070981999999,0.30030201040000004,0.004518042377999992,-0.26873733475
09:57:05,-1.2723833199999999,0.7258503600000001,-0.27717800000000004,0.35017600000000004,-0.029726000000000002,0.10813732,-21.10574064,-7.11513016,-9.47240648,94.0155934,-1.1387809024,0.547651238,0.6061386583999999,0.3002833648,0.003936556736000005,-0.268104192
09:57:05,-1.27555003,0.7311104400000001,-0.278539125,0.349638,-0.030333250000000006,0.10870727999999999,-21.081809935,-7.13682539,-9.47812067,94.062526725,-1.1423819146,0.5521924707500001,0.6057702186,0.30026471920000003,0.0033550710940000034,-0.26747104925
09:57:05,-1.2787167400000001,0.7363705200000001,-0.27990025,0.3491,-0.03094050000000001,0.10927724,-21.057879229999998,-7.158520619999999,-9.48383486,94.10946005,-1.1459829268,0.5567337035000002,0.6054017787999999,0.3002460736,0.002773585452000002,-0.2668379065
09:57:05,-1.28188345,0.7416306000000001,-0.281261375,0.34856200000000004,-0.03154775000000001,0.10984719999999999,-21.033948525,-7.18021585,-9.489549049999999,94.156393375,-1.149583939,0.56127493625,0.605033339,0.300227428,0.0021920998100000005,-0.26620476375
09:57:05,-1.28505016,0.7468906800000001,-0.2826225,0.348024,-0.032155,0.11041716,-21.010017819999998,-7.20191108,-9.49526324,94.20332669999999,-1.1531849512,0.5658161690000001,0.6046648992,0.30020878240000004,0.0016106141679999991,-0.265571621
09:57:05,-1.2882168699999998,0.7521507600000001,-0.283983625,0.347486,-0.03276225000000001,0.11098712,-20.986087115,-7.223606309999999,-9.500977429999999,94.25026002499999,-1.1567859634,0.5703574017500002,0.6042964594,0.3001901368,0.0010291285259999977,-0.26493847825
09:57:05,-1.29138358,0.7574108400000001,-0.28534475,0.34694800000000003,-0.03336950000000001,0.11155707999999999,-20.96215641,-7.24530154,-9.50669162,94.29719335,-1.1603869755999998,0.5748986345,0.6039280196,0.30017149120000003,0.0004476428839999963,-0.2643053355
09:57:05,-1.29455029,0.7626709200000001,-0.286705875,0.34641,-0.033976750000000014,0.11212704,-20.938225705,-7.26699677,-9.51240581,94.344126675,-1.1639879878000001,0.5794398672500001,0.6035595798,0.3001528456,-0.0001338427580000051,-0.26367219275
09:57:06,-1.297717,0.767931,-0.288067,0.345872,-0.034584,0.112697,-20.914295,-7.288692,-9.51812,94.39106,-1.167589,0.5839811,0.60319114,0.3001342,-0.0007153284,-0.26303905
09:57:06,-1.291376805,0.76240677,-0.293087235,0.3420474,-0.034765109999999995,0.11294736000000001,-20.89234773,-7.306948455000001,-9.508671679999999,94.40018051999999,-1.166883728,0.5800493995,0.6016724139499999,0.29811332945,-0.0013019062079999998,-0.25986366815
09:57:06,-1.28503661,0.75688254,-0.29810747000000004,0.3382228,-0.03494622,0.11319772,-20.87040046,-7.32520491,-9.49922336,94.40930104,-1.166178456,0.576117699,0.6001536879,0.2960924589,-0.0018884840159999999,-0.2566882863
09:57:06,-1.278696415,0.7513583100000001,-0.303127705,0.33439820000000003,-0.03512733,0.11344808,-20.84845319,-7.3434613650000005,-9.48977504,94.41842156,-1.1654731839999999,0.5721859985000001,0.59863496185,0.29407158835,-0.002475061824,-0.25351290445
09:57:06,-1.27235622,0.7458340800000001,-0.30814794,0.3305736,-0.035308439999999996,0.11369844000000001,-20.82650592,-7.36171782,-9.480326719999999,94.42754208,-1.164767912,0.568254298,0.5971162358,0.2920507178,-0.0030616396319999998,-0.2503375226
09:57:06,-1.266016025,0.74030985,-0.313168175,0.326749,-0.035489549999999995,0.1139488,-20.80455865,-7.379974275,-9.4708784,94.43666259999999,-1.16406264,0.5643225975,0.5955975097499999,0.29002984725000003,-0.0036482174399999996,-0.24716214075
09:57:06,-1.25967583,0.73478562,-0.31818841000000003,0.3229244,-0.03567066,0.11419916000000001,-20.78261138,-7.39823073,-9.46143008,94.44578312,-1.163357368,0.560390897,0.5940787837,0.28800897670000003,-0.004234795248,-0.2439867589
09:57:06,-1.253335635,0.72926139,-0.323208645,0.3190998,-0.03585177,0.11444952,-20.76066411,-7.416487185,-9.451981759999999,94.45490364,-1.162652096,0.5564591965,0.59256005765,0.28598810615000003,-0.004821373056,-0.24081137705
09:57:06,-1.24699544,0.72373716,-0.32822888,0.31527520000000003,-0.036032879999999996,0.11469988,-20.73871684,-7.43474364,-9.44253344,94.46402416,-1.161946824,0.5525274960000001,0.5910413315999999,0.28396723560000003,-0.005407950864,-0.2376359952
09:57:06,-1.240655245,0.7182129300000001,-0.333249115,0.3114506,-0.036213989999999995,0.11495024000000001,-20.71676957,-7.453000095,-9.43308512,94.47314467999999,-1.161241552,0.5485957955,0.5895226055499999,0.28194636505000004,-0.005994528672,-0.23446061335
09:57:06,-1.23431505,0.7126887000000001,-0.33826935,0.307626,-0.0363951,0.1152006,-20.6948223,-7.4712565500000006,-9.4236368,94.4822652,-1.16053628,0.544664095,0.5880038795,0.27992549450000004,-0.00658110648,-0.2312852315
09:57:06,-1.227974855,0.70716447,-0.343289585,0.3038014,-0.03657621,0.11545096,-20.67287503,-7.489513005,-9.41418848,94.49138572,-1.159831008,0.5407323945,0.58648515345,0.27790462395000004,-0.007167684287999999,-0.22810984965
09:57:06,-1.22163466,0.70164024,-0.34830982,0.29997680000000004,-0.036757319999999996,0.11570132000000001,-20.65092776,-7.5077694600000004,-9.40474016,94.50050623999999,-1.159125736,0.5368006940000001,0.5849664273999999,0.27588375340000004,-0.007754262095999999,-0.22493446779999998
09:57:06,-1.215294465,0.69611601,-0.35333005500000003,0.29615220000000003,-0.036938429999999994,0.11595168,-20.62898049,-7.526025915,-9.39529184,94.50962676,-1.158420464,0.5328689935,0.58344770135,0.27386288285000004,-0.008340839903999999,-0.22175908595
09:57:06,-1.20895427,0.69059178,-0.35835029,0.2923276,-0.03711954,0.11620204,-20.607033219999998,-7.54428237,-9.38584352,94.51874728,-1.157715192,0.528937293,0.5819289753,0.2718420123,-0.008927417711999999,-0.2185837041
09:57:06,-1.202614075,0.6850675500000001,-0.363370525,0.288503,-0.03730065,0.11645240000000001,-20.58508595,-7.562538825,-9.3763952,94.5278678,-1.15700992,0.5250055925,0.58041024925,0.26982114175,-0.009513995519999999,-0.21540832225
09:57:06,-1.1962738800000001,0.6795433200000001,-0.36839076000000004,0.2846784,-0.037481759999999996,0.11670276,-20.563138679999998,-7.58079528,-9.36694688,94.53698831999999,-1.1563046479999999,0.521073892,0.5788915231999999,0.2678002712,-0.010100573327999999,-0.21223294040000001
09:57:06,-1.189933685,0.67401909,-0.373410995,0.28085380000000004,-0.037662869999999994,0.11695312000000001,-20.54119141,-7.599051735,-9.35749856,94.54610884,-1.155599376,0.5171421915000001,0.57737279715,0.26577940065,-0.010687151135999998,-0.20905755855
09:57:06,-1.18359349,0.66849486,-0.37843123,0.27702920000000003,-0.03784398,0.11720348,-20.519244139999998,-7.61730819,-9.34805024,94.55522936,-1.154894104,0.513210491,0.5758540711,0.2637585301,-0.011273728943999998,-0.2058821767
09:57:06,-1.177253295,0.66297063,-0.383451465,0.2732046,-0.03802509,0.11745384,-20.49729687,-7.6355646450000005,-9.33860192,94.56434988,-1.154188832,0.5092787905,0.57433534505,0.26173765955,-0.011860306751999998,-0.20270679485
09:57:06,-1.1709131,0.6574464,-0.3884717,0.26938,-0.038206199999999996,0.11770420000000001,-20.475349599999998,-7.6538211,-9.3291536,94.57347039999999,-1.15348356,0.50534709,0.5728166189999999,0.259716789,-0.012446884559999998,-0.199531413
09:57:06,-1.164572905,0.6519221700000001,-0.393491935,0.2655554,-0.038387309999999994,0.11795456,-20.45340233,-7.672077555,-9.319705279999999,94.58259092,-1.152778288,0.5014153895,0.57129789295,0.25769591845,-0.013033462367999998,-0.19635603115
09:57:06,-1.15823271,0.6463979400000001,-0.39851217,0.26173080000000004,-0.03856842,0.11820492,-20.431455059999998,-7.69033401,-9.31025696,94.59171144,-1.152073016,0.497483689,0.5697791669,0.2556750479,-0.013620040175999997,-0.1931806493
09:57:06,-1.1518925150000001,0.64087371,-0.403532405,0.25790620000000003,-0.03874953,0.11845528000000001,-20.40950779,-7.708590465,-9.30080864,94.60083196,-1.151367744,0.49355198850000004,0.5682604408499999,0.25365417735,-0.014206617983999997,-0.19000526745000001
09:57:06,-1.14555232,0.63534948,-0.40855264,0.2540816,-0.038930639999999996,0.11870564,-20.387560519999997,-7.72684692,-9.291360319999999,94.60995247999999,-1.150662472,0.489620288,0.5667417148,0.2516333068,-0.014793195791999999,-0.1868298856
09:57:06,-1.139212125,0.62982525,-0.413572875,0.250257,-0.039111749999999994,0.118956,-20.36561325,-7.745103375,-9.281912,94.619073,-1.1499572,0.4856885875,0.56522298875,0.24961243625,-0.015379773599999999,-0.18365450375
09:57:06,-1.13287193,0.6243010200000001,-0.41859311,0.2464324,-0.03929286,0.11920636000000001,-20.343665979999997,-7.76335983,-9.27246368,94.62819352,-1.149251928,0.481756887,0.5637042627,0.24759156570000002,-0.015966351408,-0.18047912189999998
09:57:06,-1.126531735,0.6187767900000001,-0.42361334500000003,0.2426078,-0.03947397,0.11945672,-20.32171871,-7.781616285,-9.263015359999999,94.63731403999999,-1.148546656,0.47782518650000005,0.5621855366499999,0.24557069515000002,-0.016552929215999997,-0.17730374005
09:57:06,-1.12019154,0.6132525600000001,-0.42863358,0.23878320000000003,-0.039655079999999995,0.11970708000000001,-20.29977144,-7.79987274,-9.25356704,94.64643456,-1.147841384,0.47389348600000003,0.5606668106,0.24354982460000002,-0.017139507023999998,-0.1741283582
09:57:06,-1.113851345,0.60772833,-0.433653815,0.23495860000000002,-0.039836189999999994,0.11995744,-20.27782417,-7.818129195,-9.24411872,94.65555508,-1.1471361119999999,0.4699617855,0.55914808455,0.24152895405000002,-0.017726084831999996,-0.17095297635
09:57:06,-1.10751115,0.6022041,-0.43867405000000004,0.231134,-0.0400173,0.1202078,-20.2558769,-7.83638565,-9.234670399999999,94.6646756,-1.14643084,0.46603008500000004,0.5576293585,0.23950808350000002,-0.018312662639999998,-0.16777759450000002
09:57:06,-1.101170955,0.59667987,-0.44369428499999997,0.2273094,-0.04019841,0.12045816000000001,-20.23392963,-7.854642105,-9.22522208,94.67379611999999,-1.145725568,0.4620983845,0.55611063245,0.23748721295000003,-0.018899240447999996,-0.16460221265000002
09:57:06,-1.09483076,0.59115564,-0.44871452,0.2234848,-0.040379519999999995,0.12070852,-20.21198236,-7.87289856,-9.21577376,94.68291664,-1.145020296,0.45816668400000005,0.5545919064,0.23546634240000003,-0.019485818255999997,-0.1614268308
09:57:06,-1.088490565,0.5856314100000001,-0.45373475500000005,0.2196602,-0.04056062999999999,0.12095888,-20.19003509,-7.891155015,-9.20632544,94.69203716,-1.144315024,0.4542349835,0.55307318035,0.23344547185000003,-0.020072396064,-0.15825144894999998
09:57:06,-1.08215037,0.5801071800000001,-0.45875499,0.21583560000000002,-0.04074174,0.12120924000000001,-20.16808782,-7.90941147,-9.19687712,94.70115768,-1.143609752,0.450303283,0.5515544542999999,0.23142460130000003,-0.020658973871999997,-0.1550760671
09:57:06,-1.075810175,0.57458295,-0.463775225,0.212011,-0.04092285,0.1214596,-20.14614055,-7.927667925,-9.1874288,94.71027819999999,-1.14290448,0.44637158250000003,0.55003572825,0.22940373075000003,-0.02124555168,-0.15190068525
09:57:06,-1.06946998,0.56905872,-0.46879546,0.20818640000000002,-0.041103959999999995,0.12170996,-20.12419328,-7.94592438,-9.17798048,94.71939872,-1.142199208,0.442439882,0.5485170022,0.2273828602,-0.021832129487999997,-0.1487253034
09:57:06,-1.063129785,0.56353449,-0.473815695,0.2043618,-0.04128506999999999,0.12196032000000001,-20.102246009999998,-7.9641808350000005,-9.16853216,94.72851924,-1.141493936,0.43850818150000004,0.54699827615,0.22536198965,-0.022418707296,-0.14554992155000002
09:57:06,-1.05678959,0.5580102600000001,-0.47883593,0.2005372,-0.04146618,0.12221068,-20.08029874,-7.98243729,-9.15908384,94.73763976,-1.140788664,0.434576481,0.5454795500999999,0.2233411191,-0.023005285103999996,-0.14237453970000002
09:57:06,-1.050449395,0.5524860300000001,-0.483856165,0.19671260000000002,-0.04164729,0.12246104000000001,-20.058351469999998,-8.000693745,-9.14963552,94.74676028,-1.140083392,0.4306447805,0.54396082405,0.22132024855000001,-0.023591862911999998,-0.13919915785
09:57:06,-1.0441092,0.5469618,-0.4888764,0.192888,-0.041828399999999995,0.1227114,-20.0364042,-8.0189502,-9.1401872,94.7558808,-1.13937812,0.42671308,0.542442098,0.21929937800000002,-0.024178440719999996,-0.136023776
09:57:06,-1.037769005,0.54143757,-0.49389663500000003,0.18906340000000002,-0.04200950999999999,0.12296176,-20.014456929999998,-8.037206655,-9.13073888,94.76500132,-1.138672848,0.42278137950000005,0.54092337195,0.21727850745000002,-0.024765018527999998,-0.13284839415
09:57:06,-1.03142881,0.53591334,-0.49891687,0.1852388,-0.04219062,0.12321212000000001,-19.99250966,-8.05546311,-9.12129056,94.77412183999999,-1.1379675759999999,0.41884967900000003,0.5394046458999999,0.2152576369,-0.025351596335999996,-0.1296730123
09:57:06,-1.025088615,0.53038911,-0.503937105,0.1814142,-0.042371729999999996,0.12346248,-19.970562389999998,-8.073719565,-9.11184224,94.78324236,-1.137262304,0.4149179785,0.53788591985,0.21323676635,-0.025938174143999997,-0.12649763045
09:57:06,-1.01874842,0.52486488,-0.50895734,0.17758960000000001,-0.042552839999999995,0.12371284,-19.94861512,-8.09197602,-9.102393919999999,94.79236288,-1.136557032,0.410986278,0.5363671938,0.2112158958,-0.026524751951999995,-0.12332224860000002
09:57:06,-1.012408225,0.5193406500000001,-0.513977575,0.173765,-0.04273394999999999,0.12396320000000001,-19.926667849999998,-8.110232475,-9.0929456,94.8014834,-1.13585176,0.4070545775,0.53484846775,0.20919502525,-0.027111329759999997,-0.12014686675
09:57:06,-1.00606803,0.51381642,-0.51899781,0.16994040000000002,-0.04291506,0.12421356,-19.90472058,-8.12848893,-9.08349728,94.81060391999999,-1.135146488,0.40312287700000005,0.5333297417,0.2071741547,-0.027697907567999995,-0.1169714849
09:57:06,-0.9997278350000001,0.50829219,-0.524018045,0.1661158,-0.043096169999999996,0.12446392,-19.882773309999997,-8.146745385000001,-9.074048959999999,94.81972444,-1.134441216,0.3991911765,0.53181101565,0.20515328415,-0.028284485375999997,-0.11379610305000001
09:57:06,-0.99338764,0.50276796,-0.52903828,0.16229120000000002,-0.043277279999999994,0.12471428000000001,-19.86082604,-8.16500184,-9.06460064,94.82884496,-1.1337359439999999,0.395259476,0.5302922896,0.2031324136,-0.028871063183999998,-0.1106207212
09:57:06,-0.987047445,0.49724373000000005,-0.534058515,0.1584666,-0.04345839,0.12496464,-19.838878769999997,-8.183258295,-9.05515232,94.83796548,-1.133030672,0.3913277755,0.5287735635499999,0.20111154305,-0.029457640991999996,-0.10744533935
09:57:06,-0.98070725,0.49171950000000003,-0.53907875,0.154642,-0.0436395,0.125215,-19.8169315,-8.20151475,-9.045703999999999,94.84708599999999,-1.1323254,0.387396075,0.5272548375,0.1990906725,-0.030044218799999998,-0.10426995750000001
09:57:06,-0.9743670550000001,0.48619527000000007,-0.544098985,0.15081740000000002,-0.043820609999999996,0.12546536,-19.794984229999997,-8.219771205,-9.03625568,94.85620652,-1.131620128,0.38346437450000004,0.52573611145,0.19706980195,-0.030630796607999996,-0.10109457565000002
09:57:06,-0.96802686,0.48067104000000005,-0.54911922,0.1469928,-0.044001719999999994,0.12571572,-19.77303696,-8.23802766,-9.02680736,94.86532704,-1.130914856,0.379532674,0.5242173854,0.19504893140000001,-0.031217374415999997,-0.0979191938
09:57:06,-0.961686665,0.47514681000000003,-0.5541394550000001,0.14316820000000002,-0.04418282999999999,0.12596608,-19.75108969,-8.256284115,-9.017359039999999,94.87444756,-1.130209584,0.3756009735,0.52269865935,0.19302806085000002,-0.031803952223999996,-0.09474381195
09:57:06,-0.9553464700000001,0.46962258000000007,-0.55915969,0.1393436,-0.04436394,0.12621644,-19.72914242,-8.27454057,-9.00791072,94.88356808,-1.129504312,0.371669273,0.5211799333,0.19100719030000002,-0.032390530031999994,-0.09156843010000001
09:57:06,-0.949006275,0.46409835000000005,-0.5641799249999999,0.135519,-0.044545049999999996,0.1264668,-19.70719515,-8.292797025,-8.9984624,94.8926886,-1.12879904,0.3677375725,0.51966120725,0.18898631975000002,-0.03297710784,-0.08839304825000002
09:57:06,-0.94266608,0.45857412000000003,-0.5692001600000001,0.13169440000000002,-0.044726159999999994,0.12671716,-19.68524788,-8.31105348,-8.98901408,94.90180912,-1.128093768,0.36380587200000003,0.5181424812,0.18696544920000002,-0.033563685648,-0.0852176664
09:57:06,-0.936325885,0.45304989000000007,-0.574220395,0.1278698,-0.04490727,0.12696752,-19.66330061,-8.329309935,-8.97956576,94.91092963999999,-1.127388496,0.3598741715,0.51662375515,0.18494457865000002,-0.034150263455999995,-0.08204228455000001
09:57:06,-0.9299856900000001,0.44752566000000005,-0.5792406299999999,0.12404520000000002,-0.04508838,0.12721788,-19.64135334,-8.34756639,-8.97011744,94.92005016,-1.126683224,0.355942471,0.5151050291,0.18292370810000003,-0.03473684126399999,-0.07886690270000002
09:57:06,-0.923645495,0.44200143000000003,-0.5842608650000001,0.12022060000000001,-0.045269489999999996,0.12746824,-19.61940607,-8.365822845,-8.96066912,94.92917068,-1.125977952,0.3520107705,0.51358630305,0.18090283755000003,-0.035323419072,-0.07569152085
09:57:06,-0.9173053,0.43647720000000007,-0.5892811,0.116396,-0.045450599999999994,0.12771860000000002,-19.5974588,-8.3840793,-8.9512208,94.9382912,-1.12527268,0.34807907000000005,0.5120675769999999,0.17888196700000003,-0.035909996879999996,-0.07251613900000001
09:57:06,-0.910965105,0.43095297000000005,-0.5943013349999999,0.11257140000000002,-0.04563170999999999,0.12796896,-19.57551153,-8.402335755,-8.94177248,94.94741171999999,-1.1245674079999999,0.3441473695,0.51054885095,0.17686109645,-0.036496574687999994,-0.06934075715000002
09:57:06,-0.90462491,0.42542874,-0.59932157,0.1087468,-0.04581282,0.12821932,-19.553564259999998,-8.42059221,-8.93232416,94.95653224,-1.123862136,0.340215669,0.5090301249,0.1748402259,-0.03708315249599999,-0.06616537530000002
09:57:06,-0.898284715,0.41990451000000006,-0.604341805,0.10492220000000002,-0.045993929999999995,0.12846968,-19.53161699,-8.438848665,-8.92287584,94.96565276,-1.123156864,0.3362839685,0.50751139885,0.17281935535,-0.037669730304,-0.06298999345
09:57:06,-0.89194452,0.41438028000000005,-0.6093620399999999,0.10109760000000001,-0.046175039999999994,0.12872004,-19.509669719999998,-8.45710512,-8.913427519999999,94.97477328,-1.122451592,0.332352268,0.5059926727999999,0.1707984848,-0.038256308111999995,-0.05981461160000001
09:57:06,-0.8856043250000001,0.40885605,-0.614382275,0.097273,-0.04635615,0.1289704,-19.48772245,-8.475361575,-8.9039792,94.9838938,-1.12174632,0.3284205675,0.50447394675,0.16877761425,-0.03884288591999999,-0.05663922975000002
09:57:06,-0.87926413,0.40333182000000006,-0.61940251,0.09344839999999999,-0.04653726,0.12922076,-19.465775179999998,-8.49361803,-8.89453088,94.99301432,-1.121041048,0.324488867,0.5029552207,0.16675674370000002,-0.039429463728,-0.0534638479
09:57:06,-0.872923935,0.39780759000000004,-0.624422745,0.08962380000000003,-0.046718369999999995,0.12947112,-19.44382791,-8.511874485,-8.885082559999999,95.00213484,-1.120335776,0.3205571665,0.50143649465,0.16473587315000002,-0.040016041536,-0.05028846605000001
09:57:06,-0.86658374,0.39228336,-0.62944298,0.08579920000000002,-0.04689947999999999,0.12972148,-19.421880639999998,-8.53013094,-8.87563424,95.01125535999999,-1.119630504,0.316625466,0.4999177686,0.16271500260000002,-0.040602619343999995,-0.047113084200000016
09:57:06,-0.860243545,0.38675913000000006,-0.634463215,0.08197460000000001,-0.04708058999999999,0.12997184,-19.39993337,-8.548387395,-8.86618592,95.02037588,-1.118925232,0.3126937655,0.49839904255,0.16069413205000002,-0.04118919715199999,-0.043937702350000024
09:57:06,-0.85390335,0.38123490000000004,-0.63948345,0.07815,-0.0472617,0.1302222,-19.377986099999998,-8.56664385,-8.856737599999999,95.0294964,-1.11821996,0.30876206500000003,0.4968803165,0.15867326150000002,-0.04177577496,-0.040762320500000004
09:57:06,-0.847563155,0.37571067,-0.644503685,0.07432539999999999,-0.047442809999999995,0.13047256000000002,-19.35603883,-8.584900305,-8.84728928,95.03861692,-1.117514688,0.3048303645,0.49536159045,0.15665239095,-0.042362352767999996,-0.03758693865000001
09:57:06,-0.8412229600000001,0.37018644000000006,-0.64952392,0.07050080000000003,-0.04762391999999999,0.13072292,-19.334091559999997,-8.603156760000001,-8.83784096,95.04773743999999,-1.116809416,0.300898664,0.4938428644,0.1546315204,-0.042948930575999994,-0.03441155680000002
09:57:06,-0.834882765,0.36466221000000004,-0.654544155,0.06667620000000002,-0.04780503,0.13097328,-19.31214429,-8.621413215,-8.82839264,95.05685796,-1.116104144,0.2969669635,0.49232413835,0.15261064985,-0.04353550838399999,-0.03123617495
09:57:06,-0.82854257,0.35913798,-0.65956439,0.06285160000000001,-0.04798614,0.13122364,-19.290197019999997,-8.63966967,-8.81894432,95.06597848,-1.1153988719999999,0.293035263,0.49080541229999997,0.1505897793,-0.044122086192,-0.02806079310000001
09:57:06,-0.822202375,0.35361375000000006,-0.664584625,0.059026999999999996,-0.048167249999999995,0.131474,-19.26824975,-8.657926125,-8.809496,95.075099,-1.1146936,0.2891035625,0.48928668625,0.14856890875,-0.044708663999999995,-0.024885411250000017
09:57:06,-0.81586218,0.34808952000000004,-0.66960486,0.055202399999999985,-0.04834835999999999,0.13172436,-19.246302479999997,-8.67618258,-8.80004768,95.08421952,-1.113988328,0.285171862,0.4877679602,0.1465480382,-0.04529524180799999,-0.021710029400000025
09:57:06,-0.8095219849999999,0.34256529,-0.674625095,0.05137780000000003,-0.04852946999999999,0.13197472,-19.22435521,-8.694439035,-8.79059936,95.09334004,-1.113283056,0.2812401615,0.48624923415,0.14452716765,-0.04588181961599999,-0.018534647550000005
09:57:06,-0.80318179,0.33704106000000006,-0.67964533,0.04755320000000002,-0.048710579999999996,0.13222508,-19.20240794,-8.71269549,-8.78115104,95.10246056,-1.112577784,0.277308461,0.4847305081,0.1425062971,-0.046468397423999996,-0.015359265700000013
09:57:06,-0.7968415950000001,0.33151683000000004,-0.684665565,0.043728600000000006,-0.048891689999999995,0.13247544,-19.18046067,-8.730951945,-8.77170272,95.11158108,-1.111872512,0.2733767605,0.48321178205,0.14048542655000001,-0.047054975231999994,-0.012183883850000021
09:57:06,-0.7905014,0.3259926000000001,-0.6896857999999999,0.039903999999999995,-0.04907279999999999,0.1327258,-19.1585134,-8.7492084,-8.7622544,95.1207016,-1.11116724,0.26944506,0.481693056,0.13846455600000002,-0.04764155303999999,-0.00900850200000003
09:57:06,-0.784161205,0.32046837000000006,-0.694706035,0.036079399999999984,-0.04925391,0.13297616,-19.13656613,-8.767464855,-8.75280608,95.12982212,-1.110461968,0.2655133595,0.48017432995,0.13644368545000002,-0.048228130848,-0.005833120150000037
09:57:06,-0.77782101,0.31494414000000004,-0.69972627,0.03225480000000003,-0.049435019999999996,0.13322652000000001,-19.11461886,-8.78572131,-8.74335776,95.13894264,-1.109756696,0.261581659,0.4786556039,0.13442281490000002,-0.048814708655999996,-0.00265773829999999
09:57:06,-0.771480815,0.3094199100000001,-0.7047465049999999,0.028430200000000017,-0.049616129999999994,0.13347688,-19.09267159,-8.803977764999999,-8.73390944,95.14806315999999,-1.109051424,0.2576499585,0.47713687785000003,0.13240194435000002,-0.049401286463999994,0.0005176435500000021
