Timestamp,linacce_x,linacce_y,linacce_z,gyro_x,gyro_y,gyro_z,X-magnetometer,Y-magnetometer,Z-magnetometer,Yaw, worldXAccel,worldYAccel,worldZAccel,worldXgyro,worldYgyro,worldZgyro
08:26:18,-0.091618,-0.247002,-0.885204,0.200675,-0.088882,0.155095,15.275883,-47.19315,28.796349,-161.85461,-0.8624446,-0.26626778,0.36569238,0.21584916,-0.0871255,-0.25091776
08:26:18,-0.098033415,-0.24226627,-0.875742385,0.200978625,-0.08699633,0.15368341000000002,15.278193635000001,-47.199979185000004,28.790789115,-161.81205515000002,-0.858397313985,-0.26363399860000003,0.36816913895,0.2146131849,-0.08497647725,-0.2501357478
08:26:18,-0.10444883,-0.23753054,-0.86628077,0.20128225,-0.08511066,0.15227182,15.28050427,-47.206808370000005,28.78522923,-161.7695003,-0.85435002797,-0.2610002172,0.37064589789999997,0.21337720980000002,-0.0828274545,-0.2493537356
08:26:18,-0.110864245,-0.23279481,-0.8568191549999999,0.201585875,-0.08322499,0.15086023,15.282814905,-47.213637555000005,28.779669345,-161.72694545000002,-0.850302741955,-0.2583664358,0.37312265685,0.21214123470000001,-0.08067843175,-0.2485717234
08:26:18,-0.11727966000000001,-0.22805908,-0.84735754,0.2018895,-0.08133932,0.14944864000000002,15.285125540000001,-47.220466740000006,28.77410946,-161.6843906,-0.84625545594,-0.2557326544,0.3755994158,0.2109052596,-0.078529409,-0.24778971119999998
08:26:18,-0.123695075,-0.22332335,-0.837895925,0.202193125,-0.07945365,0.14803705,15.287436175,-47.227295925,28.768549574999998,-161.64183575,-0.842208169925,-0.253098873,0.37807617475,0.20966928450000002,-0.07638038625,-0.247007699
08:26:18,-0.13011049,-0.21858761999999998,-0.82843431,0.20249675,-0.07756798000000001,0.14662546,15.28974681,-47.23412511,28.762989689999998,-161.5992809,-0.83816088391,-0.2504650916,0.3805529337,0.20843330940000002,-0.0742313635,-0.24622568679999998
08:26:18,-0.136525905,-0.21385189,-0.818972695,0.202800375,-0.07568231,0.14521387000000002,15.292057445000001,-47.240954295,28.757429805,-161.55672605,-0.8341135978950001,-0.24783131020000002,0.38302969265,0.2071973343,-0.07208234075,-0.2454436746
08:26:18,-0.14294132,-0.20911616,-0.8095110799999999,0.203104,-0.07379664,0.14380228,15.29436808,-47.24778348,28.75186992,-161.51417120000002,-0.83006631188,-0.2451975288,0.38550645159999997,0.2059613592,-0.069933318,-0.24466166239999998
08:26:18,-0.14935673500000002,-0.20438043,-0.800049465,0.20340762499999998,-0.07191097,0.14239069000000001,15.296678715,-47.254612665,28.746310035,-161.47161635,-0.826019025865,-0.2425637474,0.38798321054999996,0.20472538410000002,-0.06778429525,-0.2438796502
08:26:18,-0.15577215,-0.1996447,-0.79058785,0.20371124999999998,-0.0700253,0.14097910000000002,15.29898935,-47.261441850000004,28.74075015,-161.42906150000002,-0.82197173985,-0.239929966,0.3904599695,0.203489409,-0.0656352725,-0.243097638
08:26:18,-0.162187565,-0.19490897,-0.781126235,0.20401487499999998,-0.06813963,0.13956751,15.301299985,-47.268271035000005,28.735190265,-161.38650665,-0.817924453835,-0.23729618460000002,0.39293672845,0.2022534339,-0.06348624975,-0.2423156258
08:26:18,-0.16860298,-0.19017324,-0.7716646199999999,0.2043185,-0.06625396,0.13815592000000002,15.30361062,-47.275100220000006,28.72963038,-161.3439518,-0.81387716782,-0.2346624032,0.3954134874,0.20101745880000002,-0.061337227,-0.2415336136
08:26:18,-0.175018395,-0.18543751,-0.7622030049999999,0.204622125,-0.06436829,0.13674433,15.305921255,-47.281929405,28.724070495,-161.30139695,-0.809829881805,-0.2320286218,0.39789024635,0.1997814837,-0.05918820425,-0.2407516014
08:26:18,-0.18143381,-0.18070177999999998,-0.75274139,0.20492575,-0.06248262,0.13533274,15.30823189,-47.28875859,28.71851061,-161.2588421,-0.80578259579,-0.2293948404,0.40036700529999997,0.1985455086,-0.0570391815,-0.2399695892
08:26:18,-0.187849225,-0.17596604999999998,-0.743279775,0.205229375,-0.06059695,0.13392115000000002,15.310542525,-47.295587775,28.712950725,-161.21628725,-0.801735309775,-0.226761059,0.40284376425,0.19730953350000002,-0.05489015875,-0.23918757699999998
08:26:18,-0.19426464,-0.17123032,-0.73381816,0.205533,-0.058711280000000005,0.13250956,15.31285316,-47.30241696,28.70739084,-161.1737324,-0.79768802376,-0.2241272776,0.4053205232,0.19607355840000001,-0.052741136,-0.2384055648
08:26:18,-0.200680055,-0.16649459,-0.724356545,0.205836625,-0.05682561,0.13109797,15.315163795,-47.309246145,28.701830955,-161.13117755000002,-0.793640737745,-0.2214934962,0.40779728215,0.1948375833,-0.05059211325,-0.23762355259999998
08:26:18,-0.20709547,-0.16175886,-0.7148949299999999,0.20614025,-0.05493994,0.12968638000000002,15.31747443,-47.316075330000004,28.696271069999998,-161.0886227,-0.7895934517300001,-0.2188597148,0.4102740411,0.1936016082,-0.0484430905,-0.2368415404
08:26:18,-0.21351088499999998,-0.15702312999999998,-0.705433315,0.206443875,-0.05305427,0.12827479,15.319785065,-47.322904515000005,28.690711184999998,-161.04606785000001,-0.785546165715,-0.21622593340000001,0.41275080005,0.19236563310000002,-0.04629406775,-0.23605952819999998
08:26:18,-0.2199263,-0.1522874,-0.6959717,0.2067475,-0.0511686,0.1268632,15.3220957,-47.329733700000006,28.6851513,-161.003513,-0.7814988797,-0.213592152,0.41522755899999997,0.191129658,-0.044145045,-0.235277516
08:26:18,-0.226341715,-0.14755167,-0.686510085,0.207051125,-0.04928293,0.12545161000000002,15.324406335,-47.336562885,28.679591415,-160.96095815,-0.7774515936849999,-0.2109583706,0.41770431794999996,0.1898936829,-0.04199602225,-0.2344955038
08:26:18,-0.23275713,-0.14281593999999997,-0.6770484699999999,0.20735475,-0.047397260000000004,0.12404002,15.32671697,-47.34339207,28.67403153,-160.9184033,-0.77340430767,-0.2083245892,0.4201810769,0.18865770780000002,-0.0398469995,-0.2337134916
08:26:18,-0.23917254500000001,-0.13808020999999998,-0.6675868549999999,0.207658375,-0.04551159,0.12262843000000001,15.329027605,-47.350221255,28.668471645,-160.87584845,-0.769357021655,-0.2056908078,0.42265783585,0.1874217327,-0.03769797675,-0.2329314794
08:26:18,-0.24558796,-0.13334448,-0.65812524,0.207962,-0.04362592,0.12121684,15.331338240000001,-47.35705044,28.66291176,-160.83329360000002,-0.76530973564,-0.2030570264,0.4251345948,0.1861857576,-0.03554895400000001,-0.2321494672
08:26:18,-0.25200337500000003,-0.12860875,-0.648663625,0.208265625,-0.04174025,0.11980525,15.333648875,-47.363879625,28.657351875,-160.79073875,-0.761262449625,-0.200423245,0.42761135375,0.18494978250000002,-0.03339993125000001,-0.231367455
08:26:18,-0.25841879,-0.12387301999999999,-0.63920201,0.20856924999999998,-0.03985458,0.11839366000000001,15.33595951,-47.37070881,28.65179199,-160.74818390000002,-0.75721516361,-0.1977894636,0.43008811269999997,0.1837138074,-0.03125090850000001,-0.23058544279999998
08:26:18,-0.264834205,-0.11913728999999998,-0.629740395,0.20887287499999999,-0.03796891,0.11698207000000001,15.338270145000001,-47.377537995000004,28.646232105,-160.70562905,-0.753167877595,-0.1951556822,0.43256487165,0.1824778323,-0.029101885750000007,-0.2298034306
08:26:18,-0.27124961999999997,-0.11440155999999999,-0.62027878,0.2091765,-0.03608324,0.11557048,15.34058078,-47.384367180000005,28.64067222,-160.6630742,-0.74912059158,-0.19252190079999998,0.4350416306,0.18124185720000002,-0.026952863000000007,-0.22902141839999998
08:26:18,-0.277665035,-0.10966582999999999,-0.6108171649999999,0.209480125,-0.03419757,0.11415889000000001,15.342891415,-47.391196365000006,28.635112335,-160.62051935,-0.745073305565,-0.1898881194,0.43751838955,0.18000588210000001,-0.024803840250000007,-0.2282394062
08:26:18,-0.28408045000000004,-0.10493009999999997,-0.60135555,0.20978375,-0.0323119,0.11274730000000001,15.345202050000001,-47.39802555,28.62955245,-160.5779645,-0.74102601955,-0.187254338,0.4399951485,0.178769907,-0.022654817500000007,-0.22745739399999998
08:26:18,-0.290495865,-0.10019436999999998,-0.5918939349999999,0.210087375,-0.03042623,0.11133571,15.347512685,-47.404854735,28.623992564999998,-160.53540965000002,-0.736978733535,-0.18462055659999999,0.44247190745,0.1775339319,-0.02050579475,-0.2266753818
08:26:18,-0.29691128,-0.09545863999999998,-0.5824323199999999,0.210391,-0.02854056,0.10992412000000001,15.34982332,-47.41168392,28.618432679999998,-160.4928548,-0.73293144752,-0.1819867752,0.44494866639999997,0.17629795680000002,-0.018356772000000007,-0.2258933696
08:26:18,-0.303326695,-0.09072290999999999,-0.5729707049999999,0.210694625,-0.02665489,0.10851253000000001,15.352133955,-47.418513105,28.612872794999998,-160.45029995000002,-0.728884161505,-0.17935299379999997,0.44742542534999996,0.1750619817,-0.016207749250000014,-0.2251113574
08:26:18,-0.30974210999999996,-0.08598718,-0.5635090899999999,0.21099825,-0.024769219999999995,0.10710094,15.35444459,-47.42534229,28.60731291,-160.4077451,-0.72483687549,-0.1767192124,0.44990218429999995,0.1738260066,-0.014058726500000007,-0.2243293452
08:26:18,-0.316157525,-0.08125144999999998,-0.554047475,0.211301875,-0.022883550000000003,0.10568935000000002,15.356755225,-47.432171475000004,28.601753025,-160.36519025,-0.720789589475,-0.17408543099999998,0.45237894325,0.17259003150000002,-0.011909703750000014,-0.223547333
08:26:18,-0.32257294000000003,-0.07651571999999998,-0.54458586,0.2116055,-0.020997879999999997,0.10427776,15.35906586,-47.439000660000005,28.59619314,-160.3226354,-0.71674230346,-0.17145164959999998,0.4548557022,0.1713540564,-0.009760681000000007,-0.2227653208
08:26:18,-0.328988355,-0.07177998999999999,-0.535124245,0.211909125,-0.019112210000000004,0.10286617,15.361376495,-47.445829845000006,28.590633255,-160.28008055,-0.712695017445,-0.1688178682,0.45733246115,0.1701180813,-0.007611658250000014,-0.22198330859999998
08:26:18,-0.33540377,-0.06704425999999997,-0.52566263,0.21221275,-0.01722654,0.10145458000000002,15.36368713,-47.45265903,28.58507337,-160.2375257,-0.70864773143,-0.1661840868,0.45980922009999997,0.1688821062,-0.005462635500000007,-0.2212012964
08:26:18,-0.34181918499999997,-0.06230852999999997,-0.5162010149999999,0.212516375,-0.015340869999999993,0.10004299,15.365997765,-47.459488215,28.579513485,-160.19497085,-0.704600445415,-0.16355030539999998,0.46228597905,0.1676461311,-0.003313612750000014,-0.2204192842
08:26:18,-0.34823459999999995,-0.05757279999999998,-0.5067394,0.21282,-0.0134552,0.09863140000000001,15.3683084,-47.4663174,28.5739536,-160.15241600000002,-0.7005531594000001,-0.160916524,0.464762738,0.166410156,-0.001164590000000007,-0.219637272
08:26:18,-0.35465001500000004,-0.052837069999999986,-0.4972777849999999,0.21312362499999998,-0.011569529999999995,0.09721981,15.370619035,-47.473146585,28.568393715,-160.10986115,-0.696505873385,-0.15828274259999997,0.46723949695,0.16517418090000002,0.000984432749999986,-0.21885525979999998
08:26:18,-0.36106543,-0.04810133999999999,-0.48781616999999994,0.21342724999999999,-0.009683860000000002,0.09580822,15.37292967,-47.47997577,28.56283383,-160.0673063,-0.69245858737,-0.1556489612,0.4697162559,0.16393820580000001,0.003133455499999993,-0.2180732476
08:26:18,-0.367480845,-0.04336560999999997,-0.47835455499999996,0.213730875,-0.0077981899999999965,0.09439663000000001,15.375240305,-47.486804955000004,28.557273945,-160.02475145,-0.688411301355,-0.15301517979999998,0.47219301485,0.1627022307,0.005282478249999986,-0.2172912354
08:26:18,-0.37389626,-0.03862987999999998,-0.4688929399999999,0.2140345,-0.0059125200000000044,0.09298504,15.37755094,-47.493634140000005,28.55171406,-159.9821966,-0.68436401534,-0.15038139839999998,0.47466977379999997,0.1614662556,0.007431500999999993,-0.2165092232
08:26:18,-0.38031167499999996,-0.033894149999999984,-0.45943132499999995,0.214338125,-0.0040268499999999985,0.09157345,15.379861575,-47.500463325000005,28.546154174999998,-159.93964175,-0.680316729325,-0.147747617,0.47714653274999996,0.16023028050000002,0.009580523749999986,-0.215727211
08:26:18,-0.38672709000000005,-0.029158419999999963,-0.4499697099999999,0.21464175,-0.0021411799999999925,0.09016186000000001,15.38217221,-47.50729251,28.540594289999998,-159.8970869,-0.67626944331,-0.1451138356,0.47962329169999995,0.1589943054,0.011729546499999993,-0.2149451988
08:26:18,-0.39314250500000003,-0.02442268999999997,-0.44050809499999993,0.214945375,-0.00025551000000000046,0.08875027,15.384482845,-47.514121695,28.535034405,-159.85453205000002,-0.672222157295,-0.14248005419999998,0.48210005065,0.1577583303,0.013878569249999986,-0.2141631866
08:26:18,-0.39955792,-0.019686959999999976,-0.4310464799999999,0.215249,0.0016301600000000055,0.08733868,15.38679348,-47.52095088,28.52947452,-159.8119772,-0.66817487128,-0.13984627279999998,0.4845768096,0.15652235520000002,0.01602759199999998,-0.21338117439999998
08:26:18,-0.405973335,-0.014951229999999982,-0.4215848649999999,0.215552625,0.0035158299999999976,0.08592709000000001,15.389104115,-47.527780065,28.523914635,-159.76942235,-0.6641275852649999,-0.13721249139999997,0.48705356855,0.1552863801,0.018176614749999986,-0.2125991622
08:26:18,-0.41238874999999997,-0.010215499999999988,-0.41212324999999994,0.21585625,0.0054015000000000035,0.08451550000000001,15.39141475,-47.53460925,28.51835475,-159.7268675,-0.66008029925,-0.13457871,0.4895303275,0.154050405,0.02032563749999998,-0.21181715
08:26:18,-0.41880416499999995,-0.005479769999999967,-0.4026616349999999,0.216159875,0.007287169999999996,0.08310391,15.393725385,-47.541438435,28.512794865,-159.68431265,-0.656033013235,-0.13194492859999998,0.49200708645,0.1528144299,0.022474660249999986,-0.2110351378
08:26:18,-0.42521958000000004,-0.0007440399999999736,-0.39320001999999993,0.2164635,0.009172840000000002,0.08169232,15.39603602,-47.548267620000004,28.50723498,-159.6417578,-0.65198572722,-0.12931114719999998,0.4944838454,0.1515784548,0.02462368299999998,-0.2102531256
08:26:18,-0.431634995,0.003991690000000048,-0.3837384049999999,0.216767125,0.011058510000000008,0.08028073000000001,15.398346655,-47.555096805000005,28.501675095,-159.59920295,-0.647938441205,-0.12667736579999997,0.49696060435,0.1503424797,0.026772705749999987,-0.2094711134
08:26:18,-0.43805041,0.008727420000000041,-0.3742767899999999,0.21707075,0.01294418,0.07886914,15.40065729,-47.561925990000006,28.49611521,-159.55664810000002,-0.64389115519,-0.12404358439999999,0.4994373633,0.14910650460000002,0.02892172849999998,-0.2086891012
08:26:18,-0.444465825,0.013463150000000035,-0.36481517499999994,0.217374375,0.014829850000000006,0.07745755,15.402967925,-47.568755175,28.490555325,-159.51409325,-0.639843869175,-0.12140980299999998,0.50191412225,0.14787052950000001,0.031070751249999987,-0.207907089
08:26:18,-0.45088123999999996,0.01819888000000003,-0.35535355999999996,0.217678,0.016715519999999998,0.07604596000000001,15.40527856,-47.57558436,28.48499544,-159.47153840000001,-0.63579658316,-0.11877602159999998,0.5043908812,0.1466345544,0.03321977399999998,-0.2071250768
08:26:18,-0.45729665499999994,0.022934610000000022,-0.34589194499999987,0.217981625,0.018601190000000004,0.07463437,15.407589195,-47.582413545,28.479435555,-159.42898355,-0.631749297145,-0.11614224019999997,0.50686764015,0.1453985793,0.03536879674999999,-0.20634306460000001
08:26:18,-0.46371207000000003,0.027670340000000015,-0.3364303299999999,0.21828525,0.02048686000000001,0.07322278,15.40989983,-47.58924273,28.473875669999998,-159.3864287,-0.62770201113,-0.11350845879999999,0.5093443991,0.1441626042,0.03751781949999998,-0.2055610524
08:26:18,-0.470127485,0.03240607000000001,-0.3269687149999999,0.218588875,0.02237253,0.07181119000000001,15.412210465,-47.596071915,28.468315784999998,-159.34387385,-0.623654725115,-0.11087467739999998,0.51182115805,0.1429266291,0.03966684224999997,-0.20477904019999998
08:26:18,-0.4765429,0.03714180000000006,-0.31750709999999993,0.2188925,0.024258200000000008,0.0703996,15.4145211,-47.602901100000004,28.462755899999998,-159.301319,-0.6196074390999999,-0.10824089599999998,0.5142979169999999,0.14169065400000003,0.04181586499999998,-0.203997028
08:26:18,-0.48295831499999997,0.04187753000000005,-0.30804548499999995,0.219196125,0.02614387,0.06898801,15.416831735,-47.609730285000005,28.457196015,-159.25876415,-0.615560153085,-0.10560711459999997,0.51677467595,0.14045467890000002,0.04396488774999999,-0.2032150158
08:26:18,-0.48937372999999995,0.046613260000000045,-0.29858386999999986,0.21949975,0.028029540000000006,0.06757642,15.41914237,-47.616559470000006,28.45163613,-159.2162093,-0.6115128670700001,-0.10297333319999999,0.5192514348999999,0.1392187038,0.046113910499999994,-0.2024330036
08:26:18,-0.49578914500000004,0.05134899000000004,-0.2891222549999999,0.219803375,0.029915209999999998,0.06616483000000001,15.421453005,-47.623388655,28.446076245,-159.17365445000002,-0.607465581055,-0.10033955179999998,0.52172819385,0.1379827287,0.04826293324999997,-0.2016509914
08:26:18,-0.50220456,0.05608472000000003,-0.2796606399999999,0.220107,0.031800880000000004,0.06475324,15.42376364,-47.63021784,28.44051636,-159.1310996,-0.60341829504,-0.09770577039999997,0.5242049528,0.1367467536,0.05041195599999998,-0.2008689792
08:26:18,-0.508619975,0.060820450000000026,-0.2701990249999999,0.220410625,0.03368655000000001,0.06334165,15.426074275,-47.637047025,28.434956475,-159.08854475,-0.599371009025,-0.09507198899999997,0.52668171175,0.1355107785,0.05256097874999999,-0.200086967
08:26:18,-0.51503539,0.06555618000000002,-0.26073740999999995,0.22071425,0.03557222,0.06193006000000001,15.42838491,-47.64387621,28.42939659,-159.0459899,-0.5953237230099999,-0.09243820759999996,0.5291584707,0.1342748034,0.054710001499999966,-0.1993049548
08:26:18,-0.521450805,0.07029191000000001,-0.25127579499999986,0.221017875,0.03745789000000001,0.060518470000000005,15.430695545,-47.650705395,28.423836705,-159.00343505,-0.591276436995,-0.08980442619999998,0.53163522965,0.13303882830000002,0.05685902424999997,-0.1985229426
08:26:18,-0.5278662199999999,0.07502764,-0.24181417999999988,0.2213215,0.039343560000000014,0.05910688,15.43300618,-47.657534580000004,28.41827682,-158.9608802,-0.5872291509800001,-0.08717064479999997,0.5341119886,0.13180285320000001,0.05900804699999998,-0.19774093040000001
08:26:18,-0.534281635,0.07976337000000006,-0.2323525649999999,0.221625125,0.04122922999999999,0.057695289999999996,15.435316815,-47.664363765000004,28.412716935,-158.91832535,-0.583181864965,-0.08453686339999997,0.53658874755,0.1305668781,0.06115706974999999,-0.1969589182
08:26:18,-0.54069705,0.08449910000000005,-0.22289094999999992,0.22192875,0.0431149,0.056283700000000006,15.43762745,-47.671192950000005,28.40715705,-158.87577050000002,-0.57913457895,-0.08190308199999996,0.5390655065,0.129330903,0.06330609249999997,-0.19617690599999998
08:26:18,-0.547112465,0.08923483000000004,-0.21342933499999994,0.222232375,0.045000570000000004,0.05487211,15.439938085,-47.678022135,28.401597165,-158.83321565,-0.5750872929349999,-0.07926930059999998,0.54154226545,0.1280949279,0.06545511524999997,-0.1953948938
08:26:18,-0.55352788,0.09397056000000004,-0.20396771999999985,0.222536,0.04688624000000001,0.05346052,15.44224872,-47.68485132,28.396037279999998,-158.7906608,-0.57104000692,-0.07663551919999997,0.5440190244,0.1268589528,0.06760413799999998,-0.1946128816
08:26:18,-0.559943295,0.09870629000000003,-0.19450610499999987,0.222839625,0.048771910000000016,0.05204893000000001,15.444559354999999,-47.691680505,28.390477394999998,-158.74810595,-0.566992720905,-0.07400173779999997,0.5464957833499999,0.1256229777,0.06975316074999999,-0.1938308694
08:26:18,-0.56635871,0.10344202000000002,-0.1850444899999999,0.22314325000000002,0.050657579999999994,0.05063734,15.44686999,-47.69850969,28.38491751,-158.7055511,-0.56294543489,-0.07136795639999996,0.5489725423,0.1243870026,0.07190218349999997,-0.1930488572
08:26:18,-0.572774125,0.10817775000000002,-0.17558287499999992,0.223446875,0.05254325,0.04922575,15.449180625,-47.705338875,28.379357625,-158.66299625,-0.558898148875,-0.06873417499999998,0.55144930125,0.12315102750000001,0.07405120624999997,-0.192266845
08:26:18,-0.57918954,0.11291348000000007,-0.16612125999999994,0.2237505,0.054428920000000006,0.04781416000000001,15.45149126,-47.71216806,28.37379774,-158.6204414,-0.55485086286,-0.06610039359999997,0.5539260602,0.1219150524,0.07620022899999998,-0.1914848328
08:26:18,-0.585604955,0.11764921000000006,-0.15665964499999985,0.224054125,0.05631459000000001,0.046402570000000004,15.453801895,-47.718997245000004,28.368237855,-158.57788655000002,-0.5508035768449999,-0.06346661219999997,0.55640281915,0.1206790773,0.07834925174999999,-0.1907028206
08:26:18,-0.59202037,0.12238494000000005,-0.14719802999999987,0.22435775,0.05820026000000002,0.04499098,15.45611253,-47.725826430000005,28.36267797,-158.5353317,-0.54675629083,-0.06083283079999996,0.5588795781,0.11944310220000001,0.08049827449999997,-0.1899208084
08:26:18,-0.5984357849999999,0.12712067000000005,-0.1377364149999999,0.224661375,0.060085929999999996,0.043579389999999996,15.458423165,-47.732655615000006,28.357118085,-158.49277685,-0.5427090048150001,-0.05819904939999998,0.56135633705,0.1182071271,0.08264729724999997,-0.18913879620000001
08:26:18,-0.6048511999999999,0.13185640000000004,-0.1282747999999999,0.224965,0.0619716,0.042167800000000005,15.4607338,-47.7394848,28.3515582,-158.450222,-0.5386617188,-0.05556526799999997,0.563833096,0.11697115200000001,0.08479631999999998,-0.188356784
08:26:18,-0.611266615,0.13659213000000003,-0.11881318499999993,0.225268625,0.06385727000000001,0.04075621,15.463044435,-47.746313985,28.345998315,-158.40766715,-0.534614432785,-0.052931486599999966,0.56630985495,0.1157351769,0.08694534274999996,-0.18757477179999998
08:26:18,-0.61768203,0.14132786000000003,-0.10935156999999984,0.22557225,0.06574294000000001,0.03934462,15.46535507,-47.75314317,28.34043843,-158.3651123,-0.5305671467699999,-0.05029770519999996,0.5687866139,0.1144992018,0.08909436549999997,-0.1867927596
08:26:18,-0.624097445,0.14606359000000002,-0.09988995499999986,0.225875875,0.06762860999999999,0.037933030000000006,15.467665705,-47.759972355,28.334878545,-158.32255745,-0.526519860755,-0.04766392379999995,0.57126337285,0.11326322670000001,0.09124338824999997,-0.1860107474
08:26:18,-0.63051286,0.15079932000000001,-0.09042833999999988,0.2261795,0.06951428,0.03652144,15.46997634,-47.76680154,28.32931866,-158.2800026,-0.52247257474,-0.04503014239999997,0.5737401317999999,0.1120272516,0.09339241099999998,-0.1852287352
08:26:18,-0.6369282749999999,0.15553505000000006,-0.0809667249999999,0.226483125,0.07139995,0.03510985,15.472286975,-47.773630725000004,28.323758774999998,-158.23744775,-0.518425288725,-0.042396360999999966,0.57621689075,0.11079127650000001,0.09554143374999996,-0.184446723
08:26:18,-0.6433436899999999,0.16027078000000006,-0.07150510999999993,0.22678675,0.07328562000000001,0.03369826000000001,15.47459761,-47.780459910000005,28.318198889999998,-158.1948929,-0.51437800271,-0.03976257959999996,0.5786936496999999,0.1095553014,0.09769045649999997,-0.18366471080000002
08:26:18,-0.649759105,0.16500651000000005,-0.06204349499999984,0.227090375,0.07517129000000002,0.03228667,15.476908245,-47.787289095000006,28.312639005,-158.15233805,-0.510330716695,-0.03712879819999995,0.58117040865,0.1083193263,0.09983947924999997,-0.1828826986
08:26:18,-0.65617452,0.16974224000000004,-0.05258187999999986,0.227394,0.07705696,0.03087508,15.47921888,-47.79411828,28.30707912,-158.1097832,-0.5062834306799999,-0.03449501679999997,0.5836471676,0.10708335120000001,0.10198850199999998,-0.1821006864
08:26:18,-0.662589935,0.17447797000000004,-0.04312026499999988,0.22769762500000001,0.07894263,0.02946349000000001,15.481529515,-47.800947465,28.301519235,-158.06722835,-0.502236144665,-0.031861235399999965,0.58612392655,0.1058473761,0.10413752474999996,-0.1813186742
08:26:18,-0.6690053499999999,0.17921370000000003,-0.0336586499999999,0.22800125,0.0808283,0.02805189999999999,15.483840149999999,-47.80777665,28.29595935,-158.0246735,-0.49818885865,-0.02922745399999996,0.5886006855,0.104611401,0.10628654749999997,-0.18053666200000001
08:26:18,-0.6754207649999999,0.18394943000000002,-0.024197034999999922,0.22830487500000002,0.08271397000000001,0.02664031,15.486150785,-47.814605835,28.290399465,-157.98211865,-0.49414157263499997,-0.02659367259999995,0.59107744445,0.1033754259,0.10843557024999997,-0.1797546498
08:26:18,-0.68183618,0.18868516000000007,-0.014735419999999833,0.2286085,0.08459964000000002,0.02522872000000001,15.48846142,-47.82143502,28.28483958,-157.9395638,-0.49009428662,-0.023959891199999972,0.5935542034,0.1021394508,0.11058459299999998,-0.17897263759999998
08:26:18,-0.688251595,0.19342089000000007,-0.005273804999999854,0.228912125,0.08648531,0.023817129999999992,15.490772054999999,-47.828264205,28.279279695,-157.89700895000001,-0.486047000605,-0.021326109799999965,0.59603096235,0.10090347570000001,0.11273361574999996,-0.1781906254
08:26:18,-0.69466701,0.19815662000000006,0.004187810000000125,0.22921575,0.08837098,0.02240554,15.49308269,-47.835093390000004,28.27371981,-157.8544541,-0.48199971459,-0.018692328399999958,0.5985077213,0.0996675006,0.11488263849999997,-0.1774086132
08:26:18,-0.701082425,0.20289235000000005,0.013649425000000104,0.229519375,0.09025665000000001,0.02099395000000001,15.495393325,-47.841922575000005,28.268159925,-157.81189925,-0.477952428575,-0.01605854699999998,0.60098448025,0.0984315255,0.11703166124999997,-0.176626601
08:26:18,-0.7074978399999999,0.20762808000000005,0.023111040000000194,0.229823,0.09214232000000001,0.019582359999999993,15.497703959999999,-47.84875176,28.26260004,-157.7693444,-0.47390514256,-0.013424765599999944,0.6034612392,0.0971955504,0.11918068399999995,-0.1758445888
08:26:18,-0.7139132549999999,0.21236381000000004,0.03257265500000017,0.230126625,0.09402799000000002,0.018170770000000003,15.500014595,-47.855580945,28.257040155,-157.72678955,-0.469857856545,-0.010790984199999964,0.6059379981499999,0.0959595753,0.12132970674999996,-0.17506257660000002
08:26:18,-0.72032867,0.21709954000000004,0.04203427000000015,0.23043025,0.09591366,0.016759180000000012,15.50232523,-47.86241013,28.25148027,-157.6842347,-0.46581057052999997,-0.00815720279999993,0.6084147571,0.09472360020000001,0.12347872949999997,-0.1742805644
08:26:18,-0.726744085,0.22183527000000003,0.05149588500000013,0.230733875,0.09779933,0.015347589999999994,15.504635865,-47.869239315,28.245920384999998,-157.64167985,-0.461763284515,-0.00552342139999995,0.6108915160499999,0.0934876251,0.12562775224999997,-0.1734985522
08:26:18,-0.7331595,0.22657100000000002,0.06095750000000011,0.2310375,0.09968500000000001,0.013936000000000004,15.5069465,-47.8760685,28.2403605,-157.59912500000002,-0.4577159985,-0.002889639999999971,0.613368275,0.09225165,0.12777677499999995,-0.17271654
08:26:18,-0.7395749149999999,0.23130673000000007,0.0704191150000002,0.231341125,0.10157067000000002,0.012524409999999986,15.509257135,-47.882897685,28.234800615,-157.55657015,-0.453668712485,-0.0002558585999999363,0.61584503395,0.09101567490000001,0.12992579774999996,-0.17193452780000001
08:26:18,-0.7459903299999999,0.23604246000000007,0.07988073000000018,0.23164475,0.10345634,0.011112819999999995,15.51156777,-47.889726870000004,28.22924073,-157.5140153,-0.44962142647,0.002377922800000043,0.6183217929,0.0897796998,0.13207482049999997,-0.1711525156
08:26:18,-0.752405745,0.24077819000000006,0.08934234500000016,0.231948375,0.10534201,0.009701230000000005,15.513878405,-47.896556055000005,28.223680845,-157.47146045,-0.445574140455,0.005011704200000022,0.62079855185,0.08854372469999999,0.13422384324999997,-0.17037050339999998
08:26:18,-0.75882116,0.24551392000000005,0.09880396000000014,0.23225200000000001,0.10722768,0.008289639999999987,15.51618904,-47.903385240000006,28.21812096,-157.4289056,-0.44152685444,0.007645485600000057,0.6232753108,0.08730774960000001,0.13637286599999995,-0.16958849120000002
08:26:18,-0.765236575,0.25024965000000005,0.10826557500000011,0.23255562500000002,0.10911335000000001,0.006878049999999997,15.518499675,-47.910214425,28.212561075,-157.38635075,-0.43747956842499996,0.010279267000000036,0.62575206975,0.0860717745,0.13852188874999996,-0.168806479
08:26:18,-0.77165199,0.2549853800000001,0.1177271900000002,0.23285925000000002,0.11099902000000002,0.005466460000000006,15.52081031,-47.91704361,28.20700119,-157.3437959,-0.43343228241,0.012913048400000071,0.6282288287,0.0848357994,0.14067091149999997,-0.1680244668
08:26:18,-0.7780674049999999,0.25972111000000003,0.12718880500000018,0.233162875,0.11288469,0.004054869999999988,15.523120945,-47.923872795,28.201441305,-157.30124105,-0.429384996395,0.01554682980000005,0.6307055876500001,0.08359982430000001,0.14281993424999997,-0.1672424546
08:26:18,-0.7844828199999999,0.2644568400000001,0.13665042000000016,0.23346650000000002,0.11477036,0.002643279999999998,15.52543158,-47.93070198,28.19588142,-157.2586862,-0.42533771038,0.01818061120000003,0.6331823466,0.0823638492,0.14496895699999995,-0.16646044240000002
08:26:18,-0.790898235,0.26919257,0.14611203500000014,0.233770125,0.11665603000000001,0.0012316900000000075,15.527742215,-47.937531165,28.190321535,-157.21613135,-0.42129042436499997,0.020814392600000065,0.63565910555,0.0811278741,0.14711797974999996,-0.1656784302
08:26:18,-0.79731365,0.27392830000000007,0.15557365000000012,0.23407375,0.11854170000000001,-0.0001799000000000106,15.53005285,-47.944360350000004,28.18476165,-157.1735765,-0.41724313835,0.023448174000000044,0.6381358644999999,0.07989189900000002,0.14926700249999997,-0.164896418
08:26:18,-0.803729065,0.27866403,0.1650352650000001,0.234377375,0.12042737000000002,-0.001591490000000001,15.532363485,-47.951189535000005,28.179201765,-157.13102165,-0.413195852335,0.026081955400000023,0.64061262345,0.07865592390000001,0.15141602524999997,-0.1641144058
08:26:18,-0.81014448,0.28339976000000006,0.17449688000000008,0.234681,0.12231304,-0.0030030799999999913,15.53467412,-47.958018720000005,28.173641879999998,-157.0884668,-0.40914856631999996,0.028715736800000058,0.6430893823999999,0.0774199488,0.15356504799999995,-0.16333239360000001
08:26:18,-0.8165598949999999,0.2881354900000001,0.18395849500000006,0.234984625,0.12419871,-0.004414670000000009,15.536984754999999,-47.964847905,28.168081994999998,-157.04591195,-0.405101280305,0.03134951820000004,0.64556614135,0.07618397369999999,0.15571407074999996,-0.1625503814
08:26:18,-0.8229753099999999,0.29287122000000004,0.19342011000000026,0.23528825,0.12608438,-0.00582626,15.53929539,-47.97167709,28.16252211,-157.0033571,-0.40105399429,0.03398329960000007,0.6480429003,0.07494799860000001,0.15786309349999997,-0.1617683692
08:26:18,-0.829390725,0.2976069500000001,0.20288172500000023,0.235591875,0.12797005,-0.00723784999999999,15.541606025,-47.978506275,28.156962225,-156.96080225,-0.397006708275,0.03661708100000005,0.65051965925,0.0737120235,0.16001211624999995,-0.16098635700000002
08:26:18,-0.83580614,0.30234268000000003,0.2123433400000002,0.2358955,0.12985572,-0.008649440000000008,15.543916659999999,-47.98533546,28.15140234,-156.9182474,-0.39295942225999997,0.03925086240000003,0.6529964182,0.07247604839999999,0.16216113899999995,-0.1602043448
08:26:18,-0.842221555,0.3070784100000001,0.2218049550000002,0.236199125,0.13174139,-0.010061029999999999,15.546227295,-47.992164645,28.145842455,-156.87569255,-0.388912136245,0.041884643800000065,0.65547317715,0.07124007330000001,0.16431016174999993,-0.1594223326
08:26:18,-0.8486369699999999,0.31181414,0.23126657000000017,0.23650275,0.13362706000000002,-0.011472619999999989,15.54853793,-47.99899383,28.14028257,-156.8331377,-0.38486485023,0.044518425200000045,0.6579499361,0.0700040982,0.16645918449999994,-0.1586403204
08:26:18,-0.8550523849999999,0.31654987000000007,0.24072818500000015,0.236806375,0.13551273000000003,-0.012884210000000007,15.550848564999999,-48.005823015000004,28.134722685,-156.79058285,-0.380817564215,0.04715220660000008,0.66042669505,0.0687681231,0.16860820724999995,-0.15785830820000002
08:26:18,-0.8614678,0.3212856000000001,0.25018980000000013,0.23711000000000002,0.13739840000000003,-0.014295799999999997,15.5531592,-48.012652200000005,28.1291628,-156.748028,-0.3767702782,0.04978598800000006,0.6629034540000001,0.06753214800000001,0.17075722999999995,-0.157076296
08:26:18,-0.867883215,0.32602133000000005,0.2596514150000001,0.23741362500000002,0.13928406999999998,-0.015707390000000016,15.555469835,-48.019481385,28.123602915,-156.70547315,-0.372722992185,0.05241976940000004,0.6653802129499999,0.0662961729,0.17290625274999996,-0.1562942838
08:26:18,-0.87429863,0.3307570600000001,0.2691130300000001,0.23771725,0.14116974,-0.017118980000000006,15.557780469999999,-48.02631057,28.11804303,-156.6629183,-0.36867570617,0.05505355080000007,0.6678569719,0.0650601978,0.17505527549999997,-0.1555122716
08:26:18,-0.880714045,0.33549279000000004,0.27857464500000007,0.23802087500000002,0.14305541,-0.018530569999999996,15.560091105,-48.033139755,28.112483145,-156.62036345,-0.36462842015499997,0.05768733220000005,0.6703337308499999,0.06382422269999999,0.17720429824999998,-0.15473025940000001
08:26:18,-0.8871294599999999,0.3402285200000001,0.28803626000000027,0.2383245,0.14494108,-0.019942160000000014,15.56240174,-48.03996894,28.10692326,-156.5778086,-0.36058113414000004,0.06032111360000003,0.6728104898,0.06258824760000001,0.17935332099999998,-0.1539482472
08:26:18,-0.8935448749999999,0.34496425000000003,0.29749787500000024,0.23862812500000002,0.14682675,-0.021353750000000005,15.564712375,-48.046798125,28.101363375,-156.53525375,-0.356533848125,0.06295489500000007,0.67528724875,0.0613522725,0.18150234374999993,-0.153166235
08:26:18,-0.89996029,0.3496999800000001,0.3069594900000002,0.23893175,0.14871242,-0.022765339999999995,15.56702301,-48.05362731,28.095803489999998,-156.4926989,-0.35248656210999996,0.06558867640000005,0.6777640077,0.06011629739999999,0.18365136649999994,-0.15238422280000002
08:26:18,-0.906375705,0.35443571,0.3164211050000002,0.239235375,0.15059809000000002,-0.024176930000000013,15.569333645,-48.060456495000004,28.090243605,-156.45014405,-0.34843927609500003,0.06822245780000008,0.68024076665,0.05888032230000001,0.18580038924999995,-0.1516022106
08:26:18,-0.91279112,0.35917144000000006,0.3258827200000002,0.239539,0.15248376000000002,-0.025588520000000003,15.57164428,-48.067285680000005,28.08468372,-156.4075892,-0.34439199008,0.07085623920000006,0.6827175256,0.0576443472,0.18794941199999995,-0.1508201984
08:26:18,-0.9192065349999999,0.3639071700000001,0.33534433500000016,0.239842625,0.15436943000000003,-0.027000109999999994,15.573954915,-48.074114865000006,28.079123835,-156.36503435,-0.34034470406499995,0.07349002060000004,0.68519428455,0.05640837209999999,0.19009843474999996,-0.1500381862
08:26:18,-0.9256219499999999,0.36864290000000005,0.34480595000000014,0.24014625,0.15625510000000004,-0.028411700000000012,15.576265549999999,-48.08094405,28.07356395,-156.3224795,-0.33629741805,0.07612380200000007,0.6876710435,0.05517239700000001,0.19224745749999997,-0.14925617400000002
08:26:18,-0.932037365,0.3733786300000001,0.3542675650000001,0.240449875,0.15814076999999999,-0.029823290000000002,15.578576185,-48.087773235,28.068004065,-156.27992465,-0.332250132035,0.07875758340000005,0.69014780245,0.0539364219,0.19439648024999998,-0.1484741618
08:26:18,-0.93845278,0.37811436000000004,0.3637291800000001,0.2407535,0.16002644,-0.031234879999999993,15.58088682,-48.09460242,28.06244418,-156.2373698,-0.32820284601999994,0.08139136480000009,0.6926245614,0.052700446799999995,0.19654550299999993,-0.1476921496
08:26:18,-0.944868195,0.3828500900000001,0.3731907950000003,0.241057125,0.16191211,-0.03264647000000001,15.583197454999999,-48.101431605,28.056884295,-156.19481495,-0.324155560005,0.08402514620000007,0.69510132035,0.051464471700000014,0.19869452574999993,-0.14691013740000003
08:26:18,-0.95128361,0.38758582,0.3826524100000003,0.24136075,0.16379778,-0.03405806,15.58550809,-48.10826079,28.05132441,-156.1522601,-0.32010827398999997,0.08665892760000005,0.6975780792999999,0.050228496600000005,0.20084354849999994,-0.14612812520000001
08:26:18,-0.9576990249999999,0.3923215500000001,0.39211402500000025,0.24166437500000001,0.16568345,-0.03546964999999999,15.587818725,-48.115089975000004,28.045764525,-156.10970525,-0.31606098797500004,0.08929270900000008,0.70005483825,0.0489925215,0.20299257124999995,-0.145346113
08:26:18,-0.9641144399999999,0.39705728,0.40157564000000023,0.24196800000000002,0.16756912000000002,-0.03688124000000001,15.590129359999999,-48.121919160000004,28.04020464,-156.0671504,-0.31201370196,0.09192649040000006,0.7025315971999999,0.04775654639999999,0.20514159399999995,-0.1445641008
08:26:18,-0.970529855,0.40179301000000006,0.4110372550000002,0.24227162500000002,0.16945479000000002,-0.03829283,15.592439995,-48.128748345000005,28.034644755,-156.02459555,-0.30796641594499996,0.09456027180000004,0.70500835615,0.04652057130000001,0.20729061674999996,-0.14378208860000002
08:26:18,-0.97694527,0.4065287400000001,0.4204988700000002,0.24257525000000002,0.17134045999999997,-0.03970442000000002,15.59475063,-48.13557753,28.02908487,-155.9820407,-0.30391912993000003,0.09719405320000007,0.7074851151,0.0452845962,0.20943963949999997,-0.1430000764
08:26:18,-0.983360685,0.41126447000000005,0.42996048500000017,0.242878875,0.17322612999999998,-0.04111601000000001,15.597061264999999,-48.142406715,28.023524984999998,-155.93948585,-0.299871843915,0.09982783460000005,0.70996187405,0.04404862109999999,0.21158866224999998,-0.1422180642
08:26:18,-0.9897760999999999,0.4160002000000001,0.43942210000000015,0.24318250000000002,0.17511179999999998,-0.0425276,15.5993719,-48.1492359,28.017965099999998,-155.896931,-0.29582455789999995,0.10246161600000009,0.712438633,0.04281264600000001,0.21373768499999993,-0.141436052
08:26:18,-0.9961915149999999,0.42073593000000004,0.4488837150000001,0.243486125,0.17699747,-0.04393919000000002,15.601682535,-48.156065085,28.012405215,-155.85437615,-0.291777271885,0.10509539740000007,0.71491539195,0.0415766709,0.21588670774999993,-0.14065403980000002
08:26:18,-1.00260693,0.4254716600000001,0.4583453300000001,0.24378975000000003,0.17888314,-0.04535078000000001,15.603993169999999,-48.16289427,28.00684533,-155.8118213,-0.28772998587,0.10772917880000005,0.7173921509,0.04034069579999999,0.21803573049999994,-0.1398720276
08:26:18,-1.009022345,0.43020739,0.4678069450000003,0.244093375,0.18076881,-0.04676237,15.606303805,-48.169723455,28.001285445,-155.76926645,-0.28368269985499994,0.11036296020000008,0.71986890985,0.03910472070000001,0.22018475324999995,-0.13909001540000002
08:26:18,-1.01543776,0.43494312000000007,0.4772685600000003,0.244397,0.18265448,-0.048173960000000016,15.60861444,-48.176552640000004,27.99572556,-155.7267116,-0.27963541384,0.11299674160000006,0.7223456688000001,0.0378687456,0.22233377599999996,-0.13830800320000003
08:26:18,-1.021853175,0.4396788500000001,0.48673017500000026,0.244700625,0.18454015000000001,-0.049585550000000006,15.610925074999999,-48.183381825000005,27.990165675,-155.68415675,-0.275588127825,0.1156305230000001,0.7248224277499999,0.036632770499999995,0.22448279874999996,-0.13752599100000001
08:26:18,-1.02826859,0.44441458000000006,0.49619179000000024,0.24500425,0.18642582000000002,-0.050997139999999996,15.61323571,-48.19021101,27.98460579,-155.64160189999998,-0.27154084180999993,0.11826430440000008,0.7272991867,0.035396795399999986,0.22663182149999997,-0.1367439788
08:26:18,-1.034684005,0.4491503100000001,0.5056534050000002,0.245307875,0.18831148999999997,-0.052408730000000014,15.615546345,-48.197040195,27.979045905,-155.59904705,-0.267493555795,0.12089808580000005,0.7297759456499999,0.034160820300000005,0.22878084424999992,-0.1359619666
08:26:18,-1.04109942,0.45388604000000005,0.5151150200000002,0.2456115,0.19019715999999998,-0.053820320000000005,15.61785698,-48.20386938,27.97348602,-155.5564922,-0.26344626977999996,0.12353186720000009,0.7322527046,0.0329248452,0.23092986699999993,-0.13517995440000002
08:26:18,-1.047514835,0.4586217700000001,0.5245766350000002,0.245915125,0.19208282999999998,-0.055231909999999995,15.620167615,-48.210698565,27.967926135,-155.51393735,-0.25939898376500004,0.12616564860000007,0.7347294635499999,0.03168887009999999,0.23307888974999993,-0.1343979422
08:26:18,-1.05393025,0.46335750000000003,0.5340382500000002,0.24621875000000001,0.1939685,-0.05664350000000001,15.62247825,-48.21752775,27.96236625,-155.4713825,-0.25535169775,0.12879943000000005,0.7372062225,0.030452895000000008,0.23522791249999994,-0.13361593
08:26:18,-1.060345665,0.4680932300000001,0.5434998650000001,0.24652237500000002,0.19585417,-0.058055090000000004,15.624788885,-48.224356935,27.956806365,-155.42882765,-0.25130441173499996,0.13143321140000008,0.73968298145,0.0292169199,0.23737693524999995,-0.1328339178
08:26:18,-1.06676108,0.47282896000000013,0.5529614800000001,0.24682600000000002,0.19773984,-0.059466679999999994,15.62709952,-48.231186120000004,27.95124648,-155.3862728,-0.24725712572000003,0.13406699280000006,0.7421597404,0.02798094479999999,0.23952595799999996,-0.13205190560000002
08:26:18,-1.073176495,0.47756469000000007,0.5624230950000003,0.24712962500000002,0.19962551,-0.06087827000000001,15.629410154999999,-48.238015305000005,27.945686594999998,-155.34371794999998,-0.24320983970499999,0.1367007742000001,0.74463649935,0.02674496970000001,0.24167498074999996,-0.1312698934
08:26:18,-1.07959191,0.4823004200000001,0.5718847100000003,0.24743325000000002,0.20151118,-0.06228986,15.63172079,-48.244844490000006,27.94012671,-155.3011631,-0.23916255368999995,0.13933455560000008,0.7471132583,0.0255089946,0.24382400349999997,-0.13048788120000002
08:26:18,-1.086007325,0.48703615000000006,0.5813463250000003,0.24773687500000002,0.20339685000000002,-0.06370144999999999,15.634031425,-48.251673675,27.934566825,-155.25860825,-0.23511526767500002,0.14196833700000006,0.74959001725,0.024273019499999993,0.24597302624999992,-0.12970586900000003
08:26:18,-1.09242274,0.4917718800000001,0.5908079400000003,0.2480405,0.20528252000000002,-0.06511304000000001,15.636342059999999,-48.25850286,27.92900694,-155.2160534,-0.23106798165999998,0.1446021184000001,0.7520667762,0.023037044400000012,0.24812204899999993,-0.12892385680000001
08:26:18,-1.098838155,0.49650761000000004,0.6002695550000002,0.24834412500000003,0.20716818999999997,-0.06652463,15.638652695,-48.265332045,27.923447055,-155.17349855,-0.22702069564499994,0.14723589980000007,0.75454353515,0.021801069300000003,0.25027107174999996,-0.1281418446
08:26:18,-1.10525357,0.50124334,0.6097311700000002,0.24864775,0.20905385999999998,-0.06793622000000002,15.64096333,-48.27216123,27.91788717,-155.1309437,-0.22297340963,0.14986968120000005,0.7570202940999999,0.020565094199999995,0.2524200944999999,-0.1273598324
08:26:18,-1.1116689849999999,0.50597907,0.6191927850000002,0.248951375,0.21093953,-0.06934781000000001,15.643273964999999,-48.278990415,27.912327285,-155.08838885,-0.21892612361499997,0.15250346260000008,0.75949705305,0.019329119099999986,0.25456911725,-0.12657782020000002
08:26:18,-1.1180843999999999,0.5107148000000001,0.6286544000000002,0.249255,0.2128252,-0.0707594,15.6455846,-48.2858196,27.9067674,-155.04583399999999,-0.21487883760000004,0.15513724400000006,0.7619738119999999,0.018093144000000005,0.25671813999999993,-0.125795808
08:26:18,-1.1244998149999998,0.5154505300000001,0.6381160150000001,0.249558625,0.21471087,-0.07217099000000002,15.647895235,-48.292648785000004,27.901207515,-155.00327915,-0.210831551585,0.1577710254000001,0.76445057095,0.016857168899999997,0.25886716275,-0.12501379580000002
08:26:18,-1.13091523,0.52018626,0.6475776300000001,0.24986225,0.21659654,-0.07358258000000001,15.650205869999999,-48.299477970000005,27.89564763,-154.9607243,-0.20678426556999996,0.16040480680000008,0.7669273299,0.015621193799999988,0.26101618549999994,-0.1242317836
08:26:18,-1.137330645,0.5249219900000002,0.6570392450000003,0.25016587500000004,0.21848221,-0.07499417,15.652516505,-48.306307155,27.890087745,-154.91816945,-0.20273697955500003,0.16303858820000006,0.76940408885,0.014385218700000008,0.2631652082499999,-0.12344977140000002
08:26:18,-1.14374606,0.5296577200000001,0.6665008600000003,0.2504695,0.22036788000000002,-0.07640576000000002,15.65482714,-48.31313634,27.88452786,-154.8756146,-0.19868969354,0.1656723696000001,0.7718808478,0.013149243599999999,0.26531423099999996,-0.1226677592
08:26:18,-1.150161475,0.53439345,0.6759624750000003,0.25077312500000004,0.22225355000000002,-0.07781735000000001,15.657137774999999,-48.319965525,27.878967975,-154.83305975,-0.19464240752499995,0.16830615100000007,0.77435760675,0.01191326849999999,0.2674632537499999,-0.12188574700000002
08:26:18,-1.15657689,0.53912918,0.6854240900000003,0.25107675,0.22413921999999997,-0.07922894,15.65944841,-48.32679471,27.873408089999998,-154.7905049,-0.19059512151000002,0.1709399324000001,0.7768343657,0.01067729340000001,0.26961227649999997,-0.1211037348
08:26:18,-1.162992305,0.5438649100000001,0.6948857050000002,0.251380375,0.22602488999999998,-0.08064053000000002,15.661759045,-48.333623895,27.867848205,-154.74795005,-0.18654783549499998,0.17357371380000008,0.77931112465,0.009441318300000001,0.2717612992499999,-0.12032172260000001
08:26:18,-1.16940772,0.5486006400000001,0.7043473200000002,0.251684,0.22791055999999998,-0.08205212,15.664069679999999,-48.34045308,27.86228832,-154.7053952,-0.18250054947999994,0.17620749520000006,0.7817878836000001,0.008205343199999993,0.273910322,-0.11953971040000003
08:26:18,-1.175823135,0.55333637,0.7138089350000002,0.251987625,0.22979623,-0.08346371,15.666380315,-48.347282265000004,27.856728435,-154.66284034999998,-0.178453263465,0.1788412766000001,0.78426464255,0.006969368099999984,0.27605934474999994,-0.11875769820000001
08:26:18,-1.1822385499999999,0.5580721000000002,0.7232705500000002,0.25229125,0.2316819,-0.08487530000000001,15.668690949999998,-48.354111450000005,27.85116855,-154.6202855,-0.17440597744999997,0.18147505800000008,0.7867414015,0.005733393000000003,0.2782083674999999,-0.11797568600000002
08:26:18,-1.1886539649999999,0.5628078300000001,0.7327321650000002,0.252594875,0.23356757,-0.08628689,15.671001584999999,-48.360940635,27.845608665,-154.57773065,-0.17035869143499993,0.18410883940000006,0.7892181604499999,0.004497417899999995,0.28035739024999995,-0.11719367380000001
08:26:18,-1.1950693799999998,0.5675435600000001,0.7421937800000001,0.2528985,0.23545324,-0.08769848,15.67331222,-48.36776982,27.84004878,-154.5351758,-0.16631140542,0.1867426208000001,0.7916949194,0.003261442799999986,0.2825064129999999,-0.11641166160000002
08:26:18,-1.201484795,0.57227929,0.7516553950000003,0.253202125,0.23733891000000001,-0.08911007000000001,15.675622854999999,-48.374599005,27.834488895,-154.49262095,-0.16226411940499996,0.18937640220000007,0.7941716783499999,0.0020254677000000054,0.28465543574999996,-0.1156296494
08:26:18,-1.20790021,0.5770150200000002,0.7611170100000003,0.25350575000000003,0.23922458000000002,-0.09052166,15.67793349,-48.38142819,27.82892901,-154.4500661,-0.15821683339000003,0.1920101836000001,0.7966484373,0.0007894925999999969,0.2868044584999999,-0.11484763720000002
08:26:18,-1.214315625,0.5817507500000001,0.7705786250000003,0.253809375,0.24111025000000003,-0.09193325000000002,15.680244125,-48.388257375,27.823369125,-154.40751125,-0.154169547375,0.19464396500000009,0.79912519625,-0.00044648250000001166,0.28895348125,-0.114065625
08:26:18,-1.22073104,0.58648648,0.7800402400000003,0.25411300000000003,0.24299591999999998,-0.09334484000000001,15.682554759999999,-48.39508656,27.81780924,-154.36495639999998,-0.15012226135999995,0.19727774640000006,0.8016019552,-0.0016824575999999924,0.29110250399999993,-0.11328361280000002
08:26:18,-1.227146455,0.5912222100000002,0.7895018550000003,0.254416625,0.24488158999999998,-0.09475643,15.684865395,-48.401915745000004,27.812249355,-154.32240155,-0.14607497534500002,0.1999115278000001,0.80407871415,-0.002918432700000001,0.2932515267499999,-0.1125016006
08:26:18,-1.23356187,0.5959579400000001,0.7989634700000002,0.25472025000000004,0.24676726,-0.09616801999999999,15.68717603,-48.408744930000005,27.80668947,-154.2798467,-0.14202768932999998,0.20254530920000008,0.8065554731,-0.0041544078000000095,0.29540054949999994,-0.11171958840000001
08:26:18,-1.239977285,0.6006936700000001,0.8084250850000002,0.255023875,0.24865293,-0.09757961000000001,15.689486664999999,-48.415574115000005,27.801129584999998,-154.23729185,-0.13798040331499994,0.2051790906000001,0.80903223205,-0.00539038289999999,0.2975495722499999,-0.11093757620000003
08:26:18,-1.2463927,0.6054294,0.8178867000000002,0.25532750000000004,0.2505386,-0.09899120000000003,15.6917973,-48.4224033,27.7955697,-154.194737,-0.13393311730000002,0.2078128720000001,0.811508991,-0.006626357999999999,0.29969859499999996,-0.11015556400000001
08:26:18,-1.2528081149999999,0.6101651300000002,0.8273483150000002,0.255631125,0.25242427,-0.10040278999999999,15.694107935,-48.429232485,27.790009815,-154.15218215,-0.12988583128499998,0.21044665340000007,0.8139857499500001,-0.007862333100000007,0.3018476177499999,-0.10937355180000002
08:26:18,-1.2592235299999999,0.6149008600000001,0.8368099300000001,0.25593475,0.25430994,-0.10181438000000001,15.696418569999999,-48.43606167,27.78444993,-154.1096273,-0.12583854526999994,0.2130804348000001,0.8164625088999999,-0.009098308200000016,0.30399664049999997,-0.10859153960000001
08:26:18,-1.2656389449999998,0.61963659,0.8462715450000003,0.256238375,0.25619561,-0.10322597000000003,15.698729205,-48.442890855,27.778890045,-154.06707244999998,-0.121791259255,0.2157142162000001,0.81893926785,-0.010334283299999997,0.3061456632499999,-0.10780952740000002
08:26:18,-1.27205436,0.6243723200000002,0.8557331600000003,0.256542,0.25808128,-0.10463755999999999,15.70103984,-48.44972004,27.77333016,-154.0245176,-0.11774397323999997,0.21834799760000007,0.8214160267999999,-0.011570258400000005,0.308294686,-0.1070275152
08:26:18,-1.278469775,0.6291080500000001,0.8651947750000003,0.256845625,0.25996695,-0.10604915000000001,15.703350474999999,-48.456549225,27.767770275,-153.98196274999998,-0.11369668722499993,0.2209817790000001,0.82389278575,-0.012806233500000014,0.31044370874999994,-0.10624550300000002
08:26:18,-1.28488519,0.6338437800000001,0.8746563900000003,0.25714925,0.26185262,-0.10746074000000003,15.70566111,-48.463378410000004,27.76221039,-153.9394079,-0.10964940121,0.22361556040000008,0.8263695447,-0.014042208599999995,0.3125927314999999,-0.1054634908
08:26:18,-1.291300605,0.63857951,0.8841180050000003,0.257452875,0.26373829,-0.10887232999999999,15.707971745,-48.470207595000005,27.756650505,-153.89685305,-0.10560211519499996,0.22624934180000011,0.82884630365,-0.015278183700000003,0.31474175424999995,-0.10468147860000002
08:26:18,-1.29771602,0.6433152400000002,0.8935796200000002,0.2577565,0.26562396,-0.11028392000000001,15.710282379999999,-48.47703678,27.75109062,-153.8542982,-0.10155482918000003,0.2288831232000001,0.8313230626,-0.01651415880000001,0.3168907769999999,-0.10389946640000003
08:26:18,-1.304131435,0.6480509700000001,0.9030412350000002,0.25806012500000003,0.26750963,-0.11169551000000003,15.712593015,-48.483865965,27.745530735,-153.81174335,-0.09750754316499999,0.23151690460000007,0.83379982155,-0.017750133899999992,0.31903979974999996,-0.10311745420000001
08:26:18,-1.31054685,0.6527867,0.9125028500000002,0.25836375,0.2693953,-0.11310709999999999,15.714903649999998,-48.49069515,27.73997085,-153.76918849999998,-0.09346025714999995,0.23415068600000005,0.8362765805,-0.018986109,0.3211888224999999,-0.10233544200000003
08:26:18,-1.316962265,0.65752243,0.9219644650000002,0.25866737500000003,0.27128097,-0.11451869,15.717214284999999,-48.497524335,27.734410965,-153.72663365,-0.08941297113500002,0.2367844674000001,0.83875333945,-0.02022208410000001,0.32333784525,-0.10155342980000001
08:26:18,-1.32337768,0.6622581600000002,0.9314260800000004,0.258971,0.27316664,-0.11593028000000002,15.71952492,-48.50435352,27.72885108,-153.6840788,-0.08536568511999998,0.23941824880000012,0.8412300984000001,-0.021458059200000018,0.32548686799999993,-0.10077141760000002
08:26:18,-1.3297930949999999,0.6669938900000001,0.9408876950000004,0.25927462500000004,0.27505231,-0.11734186999999999,15.721835554999998,-48.511182705,27.723291194999998,-153.64152395,-0.08131839910499994,0.24205203020000005,0.84370685735,-0.0226940343,0.3276358907499999,-0.09998940540000001
08:26:18,-1.3362085099999998,0.67172962,0.9503493100000003,0.25957825,0.27693798000000003,-0.11875346,15.724146189999999,-48.518011890000004,27.71773131,-153.5989691,-0.07727111309000001,0.24468581160000008,0.8461836163,-0.023930009400000007,0.32978491349999994,-0.09920739320000002
08:26:18,-1.342623925,0.6764653500000002,0.9598109250000003,0.25988187500000004,0.27882365,-0.12016505000000002,15.726456825,-48.524841075000005,27.712171425,-153.55641425,-0.07322382707499997,0.24731959300000012,0.8486603752499999,-0.025165984500000016,0.3319339362499999,-0.098425381
08:26:18,-1.34903934,0.6812010800000001,0.9692725400000003,0.2601855,0.28070932,-0.12157663999999999,15.728767459999998,-48.53167026,27.70661154,-153.5138594,-0.06917654105999993,0.24995337440000015,0.8511371342,-0.026401959599999997,0.33408295899999996,-0.09764336880000002
08:26:18,-1.355454755,0.6859368100000001,0.9787341550000003,0.260489125,0.28259499,-0.12298823,15.731078094999999,-48.538499445,27.701051655,-153.47130454999999,-0.065129255045,0.2525871558000001,0.8536138931499999,-0.027637934700000005,0.3362319817499999,-0.09686135660000003
08:26:18,-1.36187017,0.69067254,0.9881957700000003,0.26079275,0.28448066,-0.12439982000000002,15.73338873,-48.54532863,27.69549177,-153.4287497,-0.06108196902999996,0.2552209372000001,0.8560906521,-0.028873909800000014,0.33838100449999997,-0.09607934440000002
08:26:18,-1.368285585,0.6954082700000002,0.9976573850000002,0.26109637500000005,0.28636633,-0.12581140999999998,15.735699364999999,-48.552157815,27.689931885,-153.38619484999998,-0.05703468301500003,0.25785471860000014,0.85856741105,-0.030109884899999995,0.3405300272499999,-0.09529733220000003
08:26:19,-1.374701,0.700144,1.007119,0.2614,0.288252,-0.127223,15.73801,-48.558987,27.684372,-153.34364,-0.052987397,0.2604885,0.86104417,-0.03134586,0.34267905,-0.09451532
08:26:19,-1.362807175,0.695731445,1.00074262,0.25929593500000003,0.286275775,-0.126493235,15.751437545,-48.540715855,27.699389435,-153.3866309,-0.051888025165,0.25798793870000003,0.85260542765,-0.031482876320000006,0.3404693204,-0.0934275361
08:26:19,-1.35091335,0.69131889,0.9943662400000001,0.25719187000000004,0.28429955,-0.12576347000000002,15.764865089999999,-48.52244471,27.71440687,-153.4296218,-0.050788653329999996,0.2554873774,0.8441666853,-0.03161989264,0.3382595908,-0.0923397522
08:26:19,-1.3390195249999999,0.686906335,0.9879898600000001,0.255087805,0.282323325,-0.125033705,15.778292635,-48.504173565,27.729424305,-153.47261269999998,-0.049689281495,0.2529868161,0.83572794295,-0.03175690896,0.33604986119999997,-0.0912519683
08:26:19,-1.3271256999999999,0.6824937799999999,0.9816134800000001,0.25298374,0.2803471,-0.12430394,15.791720179999999,-48.48590242,27.74444174,-153.5156036,-0.04858990966,0.25048625480000003,0.8272892006,-0.031893925280000006,0.3338401316,-0.0901641844
08:26:19,-1.315231875,0.678081225,0.9752371000000001,0.250879675,0.278370875,-0.12357417500000001,15.805147725,-48.467631275,27.759459175,-153.5585945,-0.047490537825,0.24798569350000002,0.81885045825,-0.0320309416,0.331630402,-0.0890764005
08:26:19,-1.30333805,0.67366867,0.9688607200000001,0.24877561000000004,0.27639465,-0.12284441,15.818575269999998,-48.44936013,27.77447661,-153.6015854,-0.04639116599,0.2454851322,0.8104117159,-0.032167957920000004,0.3294206724,-0.0879886166
08:26:19,-1.291444225,0.669256115,0.96248434,0.24667154500000002,0.274418425,-0.12211464500000001,15.832002815,-48.431088985,27.789494045,-153.64457629999998,-0.045291794154999995,0.2429845709,0.80197297355,-0.032304974240000006,0.32721094279999996,-0.0869008327
08:26:19,-1.2795504,0.66484356,0.9561079600000001,0.24456748000000003,0.2724422,-0.12138488,15.84543036,-48.41281784,27.80451148,-153.6875672,-0.04419242232,0.24048400960000002,0.7935342312,-0.03244199056,0.32500121319999997,-0.0858130488
08:26:19,-1.267656575,0.660431005,0.9497315800000001,0.24246341500000002,0.270465975,-0.12065511500000001,15.858857904999999,-48.394546695,27.819528915,-153.7305581,-0.043093050485,0.2379834483,0.78509548885,-0.032579006880000004,0.3227914836,-0.0847252649
08:26:19,-1.25576275,0.65601845,0.9433552000000001,0.24035935000000003,0.26848975,-0.11992535,15.87228545,-48.37627555,27.83454635,-153.773549,-0.04199367865,0.23548288700000003,0.7766567465,-0.0327160232,0.320581754,-0.083637481
08:26:19,-1.243868925,0.651605895,0.9369788200000001,0.238255285,0.26651352500000003,-0.119195585,15.885712994999999,-48.358004405,27.849563785,-153.81653989999998,-0.040894306815,0.23298232570000002,0.76821800415,-0.03285303952,0.3183720244,-0.0825496971
08:26:19,-1.2319750999999999,0.64719334,0.9306024400000001,0.23615122000000002,0.26453730000000003,-0.11846582,15.89914054,-48.33973326,27.864581219999998,-153.8595308,-0.03979493498,0.2304817644,0.7597792618,-0.032990055840000004,0.31616229479999997,-0.0814619132
08:26:19,-1.2200812749999999,0.642780785,0.9242260600000001,0.234047155,0.26256107500000003,-0.117736055,15.912568084999998,-48.321462115,27.879598655,-153.9025217,-0.038695563145,0.22798120310000003,0.75134051945,-0.03312707216,0.3139525652,-0.0803741293
08:26:19,-1.20818745,0.63836823,0.9178496800000001,0.23194309000000002,0.26058485000000003,-0.11700629,15.92599563,-48.30319097,27.89461609,-153.9455126,-0.03759619131,0.22548064180000002,0.7429017771,-0.03326408848,0.3117428356,-0.0792863454
08:26:19,-1.196293625,0.6339556749999999,0.9114733000000002,0.22983902500000003,0.25860862500000004,-0.116276525,15.939423175,-48.284919825,27.909633525,-153.9885035,-0.036496819475,0.2229800805,0.7344630347500001,-0.033401104800000005,0.309533106,-0.0781985615
08:26:19,-1.1843998,0.62954312,0.9050969200000001,0.22773496000000001,0.2566324,-0.11554676,15.952850719999999,-48.26664868,27.92465096,-154.03149439999999,-0.035397447639999996,0.22047951920000003,0.7260242924,-0.03353812112,0.30732337639999996,-0.0771107776
08:26:19,-1.172505975,0.625130565,0.8987205400000001,0.22563089500000003,0.25465617500000004,-0.114816995,15.966278265,-48.248377535,27.939668394999998,-154.0744853,-0.034298075804999995,0.21797895790000002,0.71758555005,-0.03367513744,0.30511364679999997,-0.0760229937
08:26:19,-1.16061215,0.62071801,0.89234416,0.22352683,0.25267995,-0.11408723,15.979705809999999,-48.23010639,27.95468583,-154.1174762,-0.03319870397,0.2154783966,0.7091468077,-0.033812153760000005,0.3029039172,-0.0749352098
08:26:19,-1.148718325,0.616305455,0.8859677800000001,0.22142276500000002,0.250703725,-0.113357465,15.993133355,-48.211835245,27.969703265,-154.1604671,-0.032099332135,0.21297783530000003,0.70070806535,-0.03394917008,0.3006941876,-0.0738474259
08:26:19,-1.1368245,0.6118929,0.8795914000000001,0.21931870000000003,0.24872750000000002,-0.1126277,16.0065609,-48.1935641,27.9847207,-154.20345799999998,-0.0309999603,0.21047727400000002,0.692269323,-0.0340861864,0.298484458,-0.072759642
08:26:19,-1.1249306749999999,0.6074803449999999,0.8732150200000001,0.21721463500000002,0.24675127500000002,-0.111897935,16.019988445,-48.175292955,27.999738135,-154.2464489,-0.029900588465,0.2079767127,0.68383058065,-0.034223202720000005,0.29627472839999996,-0.0716718581
08:26:19,-1.1130368499999999,0.60306779,0.8668386400000001,0.21511057000000003,0.24477505,-0.11116817000000001,16.033415989999998,-48.15702181,28.01475557,-154.2894398,-0.02880121663,0.20547615140000003,0.6753918383,-0.03436021904,0.2940649988,-0.0705840742
08:26:19,-1.1011430249999998,0.598655235,0.86046226,0.213006505,0.242798825,-0.110438405,16.046843535,-48.138750665,28.029773005,-154.3324307,-0.027701844795,0.20297559010000002,0.6669530959500001,-0.03449723536,0.2918552692,-0.0694962903
08:26:19,-1.0892491999999998,0.59424268,0.8540858800000001,0.21090244000000002,0.2408226,-0.10970864,16.06027108,-48.12047952,28.04479044,-154.37542159999998,-0.026602472959999998,0.2004750288,0.6585143536,-0.034634251680000006,0.2896455396,-0.0684085064
08:26:19,-1.077355375,0.589830125,0.8477095000000001,0.20879837500000004,0.238846375,-0.108978875,16.073698625,-48.102208375000004,28.059807875,-154.4184125,-0.025503101125,0.19797446750000003,0.65007561125,-0.034771268,0.28743580999999996,-0.0673207225
08:26:19,-1.06546155,0.5854175699999999,0.84133312,0.20669431000000002,0.23687015,-0.10824911000000001,16.087126169999998,-48.083937230000004,28.07482531,-154.4614034,-0.02440372929,0.19547390620000002,0.6416368689,-0.03490828432,0.28522608039999997,-0.0662329386
08:26:19,-1.053567725,0.581005015,0.8349567400000001,0.204590245,0.234893925,-0.107519345,16.100553715,-48.065666085000004,28.089842745,-154.5043943,-0.023304357455,0.1929733449,0.6331981265500001,-0.03504530064,0.2830163508,-0.0651451547
08:26:19,-1.0416739,0.57659246,0.8285803600000001,0.20248618000000002,0.2329177,-0.10678958000000001,16.11398126,-48.047394940000004,28.10486018,-154.5473852,-0.02220498562,0.19047278360000003,0.6247593842000001,-0.03518231696,0.2808066212,-0.0640573708
08:26:19,-1.029780075,0.572179905,0.8222039800000001,0.20038211500000003,0.230941475,-0.106059815,16.127408804999998,-48.029123795000004,28.119877615,-154.5903761,-0.021105613784999998,0.18797222230000002,0.61632064185,-0.035319333280000004,0.2785968916,-0.0629695869
08:26:19,-1.0178862499999999,0.56776735,0.8158276000000001,0.19827805000000004,0.22896525,-0.10533005000000001,16.14083635,-48.010852650000004,28.13489505,-154.633367,-0.020006241950000003,0.185471661,0.6078818995,-0.035456349600000006,0.276387162,-0.061881803
08:26:19,-1.005992425,0.563354795,0.8094512200000001,0.19617398500000002,0.226989025,-0.104600285,16.154263895,-47.992581505000004,28.149912484999998,-154.6763579,-0.018906870115000002,0.18297109970000003,0.5994431571500001,-0.03559336592,0.2741774324,-0.0607940191
08:26:19,-0.9940985999999999,0.5589422399999999,0.8030748400000001,0.19406992,0.2250128,-0.10387052000000001,16.16769144,-47.974310360000004,28.16492992,-154.7193488,-0.01780749828,0.18047053840000002,0.5910044148,-0.035730382240000004,0.2719677028,-0.0597062352
08:26:19,-0.9822047749999999,0.554529685,0.7966984600000001,0.19196585500000002,0.22303657500000001,-0.103140755,16.181118984999998,-47.956039215000004,28.179947355,-154.76233969999998,-0.016708126445,0.1779699771,0.5825656724500001,-0.03586739856,0.2697579732,-0.0586184513
08:26:19,-0.97031095,0.55011713,0.7903220800000001,0.18986179000000003,0.22106035000000002,-0.10241099000000001,16.19454653,-47.937768070000004,28.19496479,-154.8053306,-0.015608754609999997,0.17546941580000003,0.5741269301,-0.03600441488,0.26754824359999996,-0.0575306674
08:26:19,-0.958417125,0.545704575,0.7839457000000001,0.18775772500000001,0.21908412500000002,-0.101681225,16.207974075,-47.919496925000004,28.209982225,-154.8483215,-0.014509382775000003,0.17296885450000002,0.5656881877500001,-0.036141431200000004,0.26533851399999997,-0.0564428835
08:26:19,-0.9465233,0.54129202,0.7775693200000001,0.18565366000000003,0.21710790000000002,-0.10095146,16.221401619999998,-47.901225780000004,28.224999659999998,-154.8913124,-0.013410010940000001,0.1704682932,0.5572494454000001,-0.03627844752,0.2631287844,-0.0553550996
08:26:19,-0.9346294749999999,0.536879465,0.7711929400000002,0.183549595,0.21513167500000002,-0.100221695,16.234829165,-47.882954635000004,28.240017095,-154.93430329999998,-0.012310639105,0.16796773190000003,0.54881070305,-0.03641546384,0.2609190548,-0.0542673157
08:26:19,-0.9227356499999999,0.53246691,0.7648165600000001,0.18144553000000002,0.21315545000000002,-0.09949193,16.24825671,-47.864683490000004,28.25503453,-154.9772942,-0.011211267269999999,0.16546717060000002,0.5403719607,-0.036552480160000005,0.2587093252,-0.0531795318
08:26:19,-0.9108418249999999,0.528054355,0.7584401800000001,0.17934146500000003,0.21117922500000003,-0.09876216500000001,16.261684255,-47.846412345000005,28.270051965,-155.0202851,-0.010111895435000004,0.1629666093,0.5319332183500001,-0.03668949648,0.2564995956,-0.0520917479
08:26:19,-0.898948,0.5236418,0.7520638000000002,0.17723740000000002,0.20920300000000003,-0.0980324,16.275111799999998,-47.828141200000005,28.2850694,-155.063276,-0.009012523600000003,0.16046604800000003,0.523494476,-0.0368265128,0.254289866,-0.051003964
08:26:19,-0.887054175,0.519229245,0.7456874200000001,0.175133335,0.20722677500000003,-0.097302635,16.288539345,-47.809870055000005,28.300086835,-155.1062669,-0.007913151765000001,0.15796548670000002,0.5150557336500001,-0.036963529120000005,0.2520801364,-0.0499161801
08:26:19,-0.8751603499999999,0.51481669,0.73931104,0.17302927,0.20525055000000003,-0.09657287,16.30196689,-47.791598910000005,28.31510427,-155.1492578,-0.00681377993,0.1554649254,0.5066169913,-0.03710054544,0.2498704068,-0.0488283962
08:26:19,-0.8632665249999999,0.5104041349999999,0.7329346600000001,0.17092520500000002,0.20327432500000003,-0.09584310500000001,16.315394434999998,-47.773327765000005,28.330121705,-155.1922487,-0.005714408094999998,0.15296436410000003,0.49817824895000007,-0.03723756176,0.24766067719999998,-0.0477406123
08:26:19,-0.8513727,0.50599158,0.7265582800000001,0.16882114000000004,0.2012981,-0.09511334,16.32882198,-47.755056620000005,28.34513914,-155.2352396,-0.004615036260000004,0.15046380280000002,0.48973950660000004,-0.03737457808,0.2454509476,-0.0466528284
08:26:19,-0.839478875,0.501579025,0.7201819,0.16671707500000002,0.199321875,-0.094383575,16.342249525,-47.736785475000005,28.360156575,-155.2782305,-0.003515664425000002,0.1479632415,0.48130076425000007,-0.0375115944,0.24324121799999998,-0.0455650445
08:26:19,-0.8275850499999999,0.49716646999999997,0.7138055200000001,0.16461301,0.19734565,-0.09365381,16.35567707,-47.718514330000005,28.37517401,-155.32122139999998,-0.0024162925900000007,0.14546268020000003,0.47286202190000004,-0.03764861072,0.2410314884,-0.0444772606
08:26:19,-0.8156912249999999,0.492753915,0.7074291400000001,0.16250894500000002,0.195369425,-0.09292404500000001,16.369104614999998,-47.700243185000005,28.390191445,-155.3642123,-0.0013169207549999992,0.14296211890000002,0.46442327955000007,-0.037785627040000005,0.2388217588,-0.0433894767
08:26:19,-0.8037973999999999,0.48834135999999995,0.70105276,0.16040488000000003,0.19339320000000002,-0.09219428,16.38253216,-47.681972040000005,28.40520888,-155.4072032,-0.00021754891999999776,0.1404615576,0.4559845372000001,-0.03792264336,0.2366120292,-0.0423016928
08:26:19,-0.791903575,0.48392880499999996,0.6946763800000001,0.15830081500000004,0.19141697500000002,-0.091464515,16.395959705,-47.663700895000005,28.420226315,-155.4501941,0.0008818229149999968,0.13796099630000003,0.44754579485000007,-0.03805965968,0.23440229959999997,-0.0412139089
08:26:19,-0.78000975,0.47951625,0.6883000000000001,0.15619675000000002,0.18944075000000002,-0.09073475,16.409387249999998,-47.645429750000005,28.435243749999998,-155.49318499999998,0.0019811947499999982,0.13546043500000002,0.4391070525000001,-0.038196676,0.23219257,-0.040126125
08:26:19,-0.7681159249999999,0.47510369499999994,0.6819236200000001,0.154092685,0.18746452500000002,-0.09000498500000001,16.422814795,-47.627158605000005,28.450261185,-155.5361759,0.0030805665849999997,0.13295987370000004,0.43066831015000007,-0.03833369232,0.2299828404,-0.0390383411
08:26:19,-0.7562220999999999,0.47069114,0.6755472400000001,0.15198862000000002,0.18548830000000002,-0.08927522,16.43624234,-47.608887460000005,28.46527862,-155.5791668,0.004179938420000001,0.13045931240000003,0.4222295678000001,-0.038470708640000004,0.22777311079999998,-0.0379505572
08:26:19,-0.744328275,0.46627858499999997,0.6691708600000001,0.14988455500000003,0.183512075,-0.088545455,16.449669885,-47.590616315,28.480296055,-155.6221577,0.005279310254999996,0.12795875110000002,0.41379082545000007,-0.03860772496,0.2255633812,-0.0368627733
08:26:19,-0.73243445,0.46186603,0.6627944800000001,0.14778049000000001,0.18153585,-0.08781569,16.463097429999998,-47.57234517,28.49531349,-155.6651486,0.006378682089999997,0.12545818980000004,0.4053520831000001,-0.03874474128,0.22335365159999998,-0.0357749894
08:26:19,-0.7205406249999999,0.457453475,0.6564181000000001,0.14567642500000003,0.179559625,-0.08708592500000001,16.476524975,-47.554074025,28.510330924999998,-155.7081395,0.007478053924999999,0.12295762850000003,0.39691334075000007,-0.038881757600000004,0.221143922,-0.0346872055
08:26:19,-0.7086467999999999,0.45304091999999996,0.6500417200000002,0.14357236,0.1775834,-0.08635616000000002,16.48995252,-47.53580288,28.52534836,-155.7511304,0.00857742576,0.12045706720000002,0.3884745984000001,-0.03901877392,0.2189341924,-0.0335994216
08:26:19,-0.6967529749999999,0.448628365,0.6436653400000001,0.14146829500000002,0.175607175,-0.08562639500000001,16.503380064999998,-47.517531735,28.540365795,-155.7941213,0.009676797595000002,0.11795650590000004,0.38003585605000006,-0.03915579024,0.2167244628,-0.0325116377
08:26:19,-0.68485915,0.44421581,0.63728896,0.13936423000000003,0.17363095,-0.08489663,16.51680761,-47.49926059,28.55538323,-155.8371122,0.010776169430000003,0.11545594460000003,0.3715971137000001,-0.039292806560000004,0.2145147332,-0.0314238538
08:26:19,-0.672965325,0.43980325499999995,0.6309125800000002,0.13726016500000002,0.171654725,-0.08416686500000001,16.530235155,-47.480989445,28.570400665,-155.88010309999999,0.011875541265000004,0.11295538330000002,0.36315837135000006,-0.03942982288,0.2123050036,-0.0303360699
08:26:19,-0.6610714999999999,0.43539069999999996,0.6245362000000001,0.13515610000000003,0.1696785,-0.08343710000000001,16.5436627,-47.4627183,28.5854181,-155.923094,0.012974913099999992,0.11045482200000004,0.3547196290000001,-0.0395668392,0.210095274,-0.029248286
08:26:19,-0.6491776749999999,0.430978145,0.61815982,0.133052035,0.167702275,-0.082707335,16.557090244999998,-47.444447155,28.600435535,-155.9660849,0.014074284934999994,0.10795426070000003,0.3462808866500001,-0.03970385552,0.20788554439999998,-0.0281605021
08:26:19,-0.63728385,0.42656559,0.6117834400000001,0.13094797000000002,0.16572605,-0.08197757,16.57051779,-47.42617601,28.61545297,-156.0090758,0.015173656769999995,0.10545369940000002,0.33784214430000004,-0.03984087184,0.2056758148,-0.0270727182
08:26:19,-0.625390025,0.42215303499999995,0.6054070600000001,0.128843905,0.16374982500000002,-0.081247805,16.583945335,-47.407904865,28.630470405,-156.0520667,0.016273028604999996,0.10295313810000004,0.32940340195000006,-0.03997788816,0.20346608519999998,-0.025984934299999998
08:26:19,-0.6134961999999999,0.41774047999999997,0.59903068,0.12673984000000002,0.16177360000000002,-0.08051804000000001,16.597372879999998,-47.38963372,28.64548784,-156.0950576,0.017372400439999998,0.10045257680000003,0.3209646596000001,-0.040114904480000005,0.2012563556,-0.024897150399999998
08:26:19,-0.6016023749999999,0.413327925,0.5926543000000001,0.12463577500000003,0.15979737500000002,-0.079788275,16.610800425,-47.371362575,28.660505275,-156.1380485,0.018471772275,0.09795201550000002,0.3125259172500001,-0.0402519208,0.199046626,-0.023809366499999998
08:26:19,-0.5897085499999999,0.40891536999999994,0.5862779200000001,0.12253171000000002,0.15782115000000002,-0.07905851,16.62422797,-47.35309143,28.67552271,-156.1810394,0.01957114411,0.09545145420000004,0.30408717490000015,-0.04038893712,0.1968368964,-0.022721582599999998
08:26:19,-0.577814725,0.40450281499999996,0.57990154,0.12042764500000003,0.15584492500000002,-0.078328745,16.637655515,-47.334820285,28.690540145,-156.2240303,0.020670515945000002,0.09295089290000003,0.29564843255000006,-0.04052595344,0.1946271668,-0.021633798699999998
08:26:19,-0.5659209,0.40009026,0.5735251600000001,0.11832358000000001,0.15386870000000002,-0.07759898000000001,16.651083059999998,-47.31654914,28.70555758,-156.2670212,0.021769887780000004,0.09045033160000002,0.2872096902000001,-0.04066296976,0.19241743719999999,-0.020546014799999998
08:26:19,-0.5540270749999999,0.395677705,0.5671487800000001,0.11621951500000002,0.15189247500000003,-0.076869215,16.664510605,-47.298277995,28.720575015,-156.3100121,0.02286925961499999,0.08794977030000004,0.2787709478500001,-0.04079998608,0.1902077076,-0.019458230899999998
08:26:19,-0.5421332499999999,0.39126514999999995,0.5607724000000001,0.11411545000000001,0.14991625000000003,-0.07613945,16.67793815,-47.28000685,28.73559245,-156.353003,0.023968631449999993,0.08544920900000003,0.27033220550000014,-0.040937002400000005,0.18799797799999998,-0.018370446999999998
08:26:19,-0.530239425,0.38685259499999997,0.5543960200000001,0.11201138500000002,0.14794002500000003,-0.075409685,16.691365695,-47.261735705,28.750609885,-156.3959939,0.025068003284999994,0.08294864770000002,0.26189346315000006,-0.04107401872,0.1857882484,-0.017282663099999998
08:26:19,-0.5183456,0.38244004,0.5480196400000001,0.10990732000000003,0.14596380000000003,-0.07467992000000001,16.70479324,-47.24346456,28.76562732,-156.4389848,0.026167375119999996,0.08044808640000004,0.2534547208000001,-0.04121103504,0.18357851879999998,-0.016194879199999998
08:26:19,-0.5064517749999999,0.37802748499999994,0.5416432600000001,0.10780325500000001,0.143987575,-0.073950155,16.718220785,-47.225193415,28.780644755,-156.4819757,0.027266746954999997,0.07794752510000003,0.24501597845000012,-0.04134805136,0.1813687892,-0.015107095299999998
08:26:19,-0.4945579499999999,0.37361492999999996,0.5352668800000001,0.10569919000000003,0.14201135,-0.07322039,16.73164833,-47.20692227,28.795662189999998,-156.5249666,0.02836611879,0.07544696380000002,0.23657723610000014,-0.04148506768,0.1791590596,-0.014019311399999998
08:26:19,-0.4826641249999999,0.36920237499999997,0.5288905000000002,0.10359512500000001,0.140035125,-0.072490625,16.745075874999998,-47.188651125,28.810679625,-156.5679575,0.029465490625,0.07294640250000003,0.22813849375000006,-0.041622084000000004,0.17694933,-0.012931527499999998
08:26:19,-0.4707703,0.36478982,0.5225141200000001,0.10149106000000002,0.1380589,-0.07176086000000001,16.75850342,-47.17037998,28.82569706,-156.6109484,0.03056486246,0.07044584120000003,0.2196997514000001,-0.04175910032,0.1747396004,-0.011843743599999998
08:26:19,-0.45887647499999995,0.36037726499999995,0.51613774,0.09938699500000003,0.13608267500000001,-0.07103109500000002,16.771930965,-47.152108835,28.840714495,-156.6539393,0.031664234295,0.06794527990000002,0.21126100905000011,-0.04189611664,0.17252987079999998,-0.010755959699999998
08:26:19,-0.4469826499999999,0.35596470999999996,0.5097613600000002,0.09728293000000002,0.13410645000000002,-0.07030133000000001,16.78535851,-47.13383769,28.85573193,-156.6969302,0.03276360612999999,0.06544471860000003,0.20282226670000014,-0.04203313296,0.1703201412,-0.009668175799999998
08:26:19,-0.4350888249999999,0.351552155,0.5033849800000001,0.09517886500000003,0.13213022500000002,-0.069571565,16.798786055,-47.115566545,28.870749364999998,-156.7399211,0.03386297796499999,0.06294415730000003,0.19438352435000006,-0.04217014928,0.16811041159999998,-0.008580391899999998
08:26:19,-0.423195,0.3471396,0.49700860000000013,0.09307480000000001,0.13015400000000002,-0.06884180000000001,16.8122136,-47.0972954,28.8857668,-156.782912,0.034962349799999994,0.060443596000000044,0.1859447820000001,-0.0423071656,0.165900682,-0.007492607999999998
08:26:19,-0.41130117499999996,0.34272704499999995,0.49063222000000006,0.09097073500000002,0.12817777500000002,-0.06811203500000002,16.825641145,-47.079024255,28.900784235,-156.8259029,0.036061721634999995,0.057943034700000035,0.1775060396500001,-0.042444181920000004,0.1636909524,-0.006404824099999998
08:26:19,-0.39940734999999994,0.33831448999999997,0.4842558400000001,0.08886667000000001,0.12620155000000002,-0.06738227000000001,16.839068689999998,-47.06075311,28.91580167,-156.8688938,0.037161093469999996,0.055442473400000025,0.16906729730000014,-0.04258119824,0.1614812228,-0.005317040199999998
08:26:19,-0.3875135249999999,0.333901935,0.47787946000000014,0.08676260500000002,0.12422532500000003,-0.066652505,16.852496235,-47.042481965,28.930819105,-156.9118847,0.038260465305,0.052941912100000044,0.16062855495000017,-0.04271821456,0.1592714932,-0.004229256299999998
08:26:19,-0.3756196999999999,0.32948937999999994,0.4715030800000001,0.08465854000000003,0.12224910000000003,-0.06592274000000001,16.86592378,-47.02421082,28.94583654,-156.9548756,0.03935983714,0.050441350800000034,0.15218981260000009,-0.04285523088,0.1570617636,-0.0031414723999999977
08:26:19,-0.36372587499999987,0.32507682499999996,0.4651267000000001,0.08255447500000002,0.12027287500000003,-0.06519297500000001,16.879351325,-47.005939675,28.960853975,-156.9978665,0.040459208975,0.047940789500000025,0.1437510702500001,-0.0429922472,0.154852034,-0.0020536884999999977
08:26:19,-0.35183204999999984,0.32066427,0.45875032000000004,0.08045041000000003,0.11829665000000003,-0.06446321,16.89277887,-46.98766853,28.97587141,-157.0408574,0.04155858081,0.045440228200000043,0.13531232790000014,-0.04312926352,0.15264230439999998,-0.0009659045999999977
08:26:19,-0.33993822500000004,0.316251715,0.4523739400000001,0.07834634500000001,0.11632042500000003,-0.06373344500000001,16.906206415,-46.969397385,28.990888845,-157.0838483,0.04265795264499999,0.042939666900000034,0.12687358555000017,-0.043266279840000005,0.1504325748,0.00012187930000000236
08:26:19,-0.3280444,0.31183915999999995,0.4459975600000001,0.07624228000000002,0.11434420000000001,-0.06300368,16.91963396,-46.95112624,29.005906279999998,-157.1268392,0.04375732447999999,0.040439105600000025,0.11843484320000008,-0.04340329616,0.1482228452,0.0012096632000000024
08:26:19,-0.316150575,0.30742660499999996,0.43962118000000006,0.07413821500000001,0.11236797500000001,-0.06227391500000001,16.933061504999998,-46.932855095,29.020923715,-157.1698301,0.04485669631499999,0.03793854430000004,0.10999610085000011,-0.04354031248,0.1460131156,0.0022974471000000024
08:26:19,-0.30425674999999996,0.30301405,0.4332448000000001,0.07203415000000002,0.11039175000000001,-0.061544150000000006,16.94648905,-46.91458395,29.03594115,-157.212821,0.045956068149999994,0.035437983000000034,0.10155735850000014,-0.0436773288,0.143803386,0.0033852310000000024
08:26:19,-0.29236292499999994,0.29860149499999994,0.42686842000000014,0.06993008500000003,0.10841552500000001,-0.06081438500000001,16.959916595,-46.896312805,29.050958585,-157.2558119,0.047055439984999996,0.032937421700000025,0.09311861615000017,-0.04381434512,0.1415936564,0.0044730149000000025
08:26:19,-0.2804690999999999,0.29418893999999995,0.42049204000000007,0.06782602000000001,0.10643930000000001,-0.060084620000000005,16.97334414,-46.87804166,29.06597602,-157.2988028,0.04815481182,0.030436860400000043,0.08467987380000008,-0.04395136144,0.1393839268,0.0055607988000000025
08:26:19,-0.2685752749999999,0.28977638499999997,0.4141156600000001,0.06572195500000003,0.10446307500000002,-0.05935485500000001,16.986771685,-46.859770515,29.080993454999998,-157.3417937,0.049254183655,0.027936299100000034,0.07624113145000011,-0.04408837776,0.1371741972,0.0066485827000000025
08:26:19,-0.25668144999999987,0.28536383,0.40773928000000004,0.06361789000000001,0.10248685000000002,-0.058625090000000005,17.00019923,-46.84149937,29.09601089,-157.3847846,0.05035355549,0.025435737800000024,0.06780238910000014,-0.04422539408,0.1349644676,0.0077363666000000025
08:26:19,-0.24478762499999984,0.28095127499999994,0.4013629000000001,0.06151382500000002,0.10051062500000002,-0.05789532500000001,17.013626775,-46.823228225,29.111028325,-157.4277755,0.051452927325,0.022935176500000043,0.059363646750000165,-0.044362410399999996,0.13275473799999998,0.008824150500000003
08:26:19,-0.23289379999999982,0.27653871999999996,0.3949865200000001,0.059409760000000034,0.09853440000000002,-0.057165560000000004,17.027054319999998,-46.80495708,29.12604576,-157.4707664,0.05255229916,0.020434615200000034,0.05092490440000019,-0.04449942672,0.1305450084,0.009911934400000003
08:26:19,-0.22099997500000002,0.272126165,0.38861014000000005,0.05730569500000002,0.09655817500000002,-0.05643579500000001,17.040481865,-46.786685935,29.141063195,-157.5137573,0.05365167099499999,0.017934053900000024,0.04248616205000011,-0.04463644304,0.1283352788,0.010999718300000003
08:26:19,-0.20910615,0.26771360999999994,0.3822337600000001,0.05520163000000003,0.09458195000000003,-0.055706030000000004,17.05390941,-46.76841479,29.156080629999998,-157.5567482,0.05475104282999999,0.015433492600000043,0.03404741970000014,-0.044773459360000004,0.1261255492,0.012087502200000003
08:26:19,-0.19721232499999997,0.26330105499999995,0.37585738000000013,0.05309756500000001,0.09260572500000003,-0.05497626500000001,17.067336955,-46.750143645,29.171098065,-157.5997391,0.055850414664999994,0.012932931300000033,0.025608677350000164,-0.04491047568,0.1239158196,0.013175286100000003
08:26:19,-0.18531849999999994,0.25888849999999997,0.36948100000000006,0.050993500000000025,0.09062950000000003,-0.0542465,17.0807645,-46.7318725,29.1861155,-157.64273,0.056949786499999995,0.010432370000000024,0.01716993500000019,-0.045047492,0.12170608999999999,0.014263070000000003
08:26:19,-0.17342467499999992,0.254475945,0.3631046200000001,0.04888943500000001,0.08865327500000003,-0.05351673500000001,17.094192045,-46.713601355,29.201132935,-157.6857209,0.058049158334999997,0.007931808700000043,0.008731192650000108,-0.04518450832,0.1194963604,0.015350853900000003
08:26:19,-0.1615308499999999,0.25006338999999994,0.35672824000000014,0.04678537000000002,0.08667705000000003,-0.05278697,17.10761959,-46.69533021,29.21615037,-157.7287118,0.05914853017,0.005431247400000061,0.0002924503000001355,-0.04532152464,0.11728663079999999,0.016438637800000003
08:26:19,-0.14963702499999987,0.24565083499999996,0.35035186000000007,0.04468130500000003,0.08470082500000004,-0.05205720500000001,17.121047134999998,-46.677059065,29.231167805,-157.7717027,0.060247902005,0.002930686100000024,-0.008146292049999837,-0.04545854096,0.1150769012,0.017526421700000003
08:26:19,-0.13774319999999984,0.24123827999999997,0.3439754800000001,0.042577240000000016,0.08272460000000004,-0.05132744,17.13447468,-46.65878792,29.24618524,-157.8146936,0.06134727384,0.0004301248000000424,-0.01658503439999981,-0.045595557280000004,0.11286717159999998,0.018614205600000003
08:26:19,-0.12584937499999982,0.23682572499999993,0.33759910000000004,0.04047317500000003,0.08074837500000001,-0.05059767500000001,17.147902225,-46.640516775,29.261202675,-157.8576845,0.062446645675,-0.002070436499999939,-0.025023776749999893,-0.0457325736,0.110657442,0.019701989500000003
08:26:19,-0.11395555000000002,0.23241316999999995,0.3312227200000001,0.03836911000000001,0.07877215000000001,-0.04986791,17.16132977,-46.62224563,29.27622011,-157.9006754,0.06354601751,-0.004570997799999976,-0.033462519099999866,-0.04586958992,0.10844771240000001,0.020789773400000003
08:26:19,-0.10206172499999999,0.22800061499999996,0.3248463400000001,0.036265045000000024,0.07679592500000001,-0.04913814500000001,17.174757315,-46.603974485,29.291237545,-157.9436663,0.064645389345,-0.007071559099999958,-0.04190126144999984,-0.04600660624,0.10623798279999999,0.021877557300000003
08:26:19,-0.09016789999999997,0.22358805999999998,0.31846996000000005,0.03416098000000001,0.07481970000000002,-0.048408380000000015,17.18818486,-46.58570334,29.30625498,-157.9866572,0.06574476118,-0.00957212039999994,-0.05034000379999981,-0.04614362256,0.1040282532,0.022965341200000003
08:26:19,-0.07827407499999994,0.21917550499999994,0.3120935800000001,0.03205691500000002,0.07284347500000002,-0.04767861500000001,17.201612405,-46.567432195,29.321272415,-158.0296481,0.066844133015,-0.012072681699999976,-0.058778746149999894,-0.04628063888,0.10181852359999999,0.024053125100000003
08:26:19,-0.06638024999999992,0.21476294999999995,0.30571720000000013,0.02995285000000003,0.07086725000000002,-0.046948850000000014,17.215039949999998,-46.54916105,29.33628985,-158.072639,0.06794350485,-0.014573242999999958,-0.06721748849999987,-0.0464176552,0.099608794,0.025140909000000003
08:26:19,-0.054486424999999894,0.21035039499999997,0.29934082000000006,0.027848785000000015,0.06889102500000002,-0.04621908500000001,17.228467495,-46.530889905,29.351307285,-158.1156299,0.069042876685,-0.01707380429999994,-0.07565623084999984,-0.04655467152,0.09739906439999998,0.026228692900000003
08:26:19,-0.04259259999999987,0.20593783999999993,0.2929644400000001,0.025744720000000026,0.06691480000000002,-0.045489320000000014,17.24189504,-46.51261876,29.36632472,-158.1586208,0.07014224852,-0.019574365599999977,-0.08409497319999981,-0.046691687839999996,0.0951893348,0.027316476800000003
08:26:19,-0.030698774999999845,0.20152528499999994,0.28658806000000014,0.02364065500000001,0.06493857500000003,-0.044759555000000006,17.255322585,-46.494347615,29.381342155,-158.2016117,0.07124162035500001,-0.022074926899999958,-0.09253371554999978,-0.04682870416,0.09297960520000001,0.028404260700000003
08:26:19,-0.01880494999999982,0.19711272999999996,0.2802116800000001,0.021536590000000022,0.06296235000000003,-0.04402979000000001,17.26875013,-46.47607647,29.39635959,-158.2446026,0.07234099219000001,-0.02457548819999994,-0.10097245789999987,-0.04696572048,0.0907698756,0.029492044600000003
08:26:19,-0.006911125000000018,0.19270017499999992,0.2738353000000001,0.019432525000000006,0.06098612500000003,-0.043300025000000006,17.282177675,-46.457805325,29.411377025,-158.2875935,0.07344036402500001,-0.027076049499999977,-0.10941120024999984,-0.0471027368,0.088560146,0.030579828500000003
08:26:19,0.004982700000000007,0.18828762,0.26745892000000004,0.017328460000000018,0.05900990000000003,-0.04257026000000001,17.29560522,-46.43953418,29.42639446,-158.3305844,0.07453973586000001,-0.02957661079999996,-0.11784994259999981,-0.04723975312,0.08635041640000002,0.0316676124
08:26:19,0.01687652500000003,0.18387506499999995,0.2610825400000001,0.01522439500000003,0.057033675000000034,-0.041840495000000005,17.309032764999998,-46.421263035,29.441411894999998,-158.3735753,0.07563910769500001,-0.03207717209999994,-0.12628868494999979,-0.04737676944,0.08414068679999998,0.0327553963
08:26:19,0.028770350000000056,0.1794625099999999,0.2547061600000001,0.013120330000000013,0.055057450000000036,-0.04111073000000001,17.32246031,-46.40299189,29.45642933,-158.4165662,0.07673847953000001,-0.03457773339999998,-0.13472742729999987,-0.047513785759999996,0.08193095719999999,0.0338431802
08:26:19,0.04066417500000008,0.17504995499999998,0.24832978000000006,0.011016265000000025,0.05308122500000004,-0.040380965000000005,17.335887855,-46.384720745,29.471446765,-158.4595571,0.07783785136499999,-0.03707829469999996,-0.14316616964999973,-0.04765080208,0.0797212276,0.0349309641
08:26:19,0.052558000000000105,0.17063739999999994,0.2419534000000001,0.008912200000000037,0.05110500000000001,-0.03965120000000001,17.3493154,-46.3664496,29.4864642,-158.502548,0.07893722319999999,-0.03957885599999994,-0.15160491199999981,-0.0477878184,0.07751149800000001,0.036018748
08:26:19,0.06445182500000013,0.1662248449999999,0.23557702000000014,0.006808134999999993,0.04912877500000001,-0.038921435000000004,17.362742945,-46.348178455,29.501481635,-158.5455389,0.08003659503499999,-0.04207941729999998,-0.1600436543499999,-0.047924834720000004,0.07530176840000002,0.0371065319
08:26:19,0.07634565000000015,0.16181228999999997,0.22920064000000007,0.004704070000000005,0.047152550000000015,-0.03819167000000001,17.37617049,-46.32990731,29.51649907,-158.5885298,0.08113596686999999,-0.04457997859999996,-0.16848239669999976,-0.04806185104,0.07309203879999998,0.0381943158
08:26:19,0.08823947500000018,0.15739973499999993,0.2228242600000001,0.0026000050000000163,0.04517632500000002,-0.037461905000000004,17.389598035,-46.311636165,29.531516505,-158.6315207,0.082235338705,-0.04708053989999994,-0.17692113904999984,-0.04819886736,0.0708823092,0.0392820997
08:26:19,0.10013329999999998,0.15298718,0.21644788000000004,0.000495940000000028,0.04320010000000002,-0.03673214000000001,17.403025579999998,-46.29336502,29.54653394,-158.6745116,0.08333471054,-0.04958110119999998,-0.18535988139999993,-0.04833588368,0.0686725796,0.0403698836
08:26:19,0.112027125,0.14857462499999996,0.21007150000000008,-0.0016081249999999603,0.04122387500000002,-0.036002375,17.416453125,-46.275093875,29.561551375,-158.7175025,0.084434082375,-0.05208166249999996,-0.1937986237499998,-0.0484729,0.06646285000000002,0.0414576675
08:26:19,0.12392095000000003,0.14416206999999992,0.20369512000000012,-0.003712190000000004,0.03924765000000002,-0.03527261000000001,17.42988067,-46.25682273,29.57656881,-158.7604934,0.08553345421,-0.05458222379999994,-0.20223736609999987,-0.04860991632,0.06425312039999997,0.0425454514
08:26:19,0.13581477500000005,0.139749515,0.19731874000000005,-0.005816254999999992,0.037271425000000025,-0.034542845,17.443308215,-46.238551585,29.591586245,-158.8034843,0.086632826045,-0.05708278509999998,-0.21067610844999973,-0.048746932640000004,0.06204339079999999,0.0436332353
08:26:19,0.14770860000000008,0.13533695999999995,0.1909423600000001,-0.00792031999999998,0.03529520000000003,-0.03381308000000001,17.45673576,-46.22028044,29.60660368,-158.84647520000001,0.08773219788,-0.05958334639999996,-0.21911485079999982,-0.04888394896,0.0598336612,0.0447210192
08:26:19,0.1596024250000001,0.1309244049999999,0.18456598000000013,-0.010024384999999969,0.03331897500000003,-0.033083315000000016,17.470163305,-46.202009295,29.621621115,-158.8894661,0.088831569715,-0.06208390769999994,-0.2275535931499999,-0.049020965279999995,0.05762393160000001,0.0458088031
08:26:19,0.17149625000000013,0.12651184999999998,0.17818960000000006,-0.012128449999999957,0.03134275000000003,-0.03235355000000001,17.48359085,-46.18373815,29.63663855,-158.932457,0.08993094155,-0.06458446899999998,-0.23599233549999976,-0.0491579816,0.055414202000000023,0.046896587
08:26:19,0.18339007500000015,0.12209929499999994,0.1718132200000001,-0.014232515000000001,0.029366525000000032,-0.031623785000000015,17.497018394999998,-46.165467005000004,29.651655984999998,-158.9754479,0.091030313385,-0.06708503029999996,-0.24443107784999984,-0.04929499792,0.05320447239999998,0.047984370900000003
08:26:19,0.19528390000000018,0.1176867399999999,0.16543684000000014,-0.01633657999999999,0.027390300000000034,-0.030894020000000008,17.51044594,-46.147195860000004,29.66667342,-159.0184388,0.09212968522000001,-0.06958559159999994,-0.2528698201999997,-0.04943201424,0.05099474279999999,0.049072154800000004
08:26:19,0.20717772499999998,0.11327418499999997,0.15906046000000007,-0.018440644999999978,0.025414075000000036,-0.030164255000000015,17.523873485,-46.128924715000004,29.681690855,-159.0614297,0.09322905705500001,-0.07208615289999998,-0.2613085625499998,-0.04956903056,0.048785013200000005,0.050159938700000004
08:26:19,0.21907155,0.10886162999999993,0.1526840800000001,-0.020544709999999966,0.023437850000000038,-0.029434490000000008,17.53730103,-46.110653570000004,29.69670829,-159.1044206,0.09432842889000001,-0.07458671419999996,-0.2697473048999999,-0.04970604688,0.04657528360000002,0.051247722600000004
08:26:19,0.23096537500000003,0.104449075,0.14630770000000004,-0.022648774999999954,0.02146162500000004,-0.028704725000000014,17.550728575,-46.092382425000004,29.711725725,-159.1474115,0.09542780072500001,-0.07708727549999994,-0.27818604724999973,-0.049843063199999996,0.044365553999999974,0.052335506500000004
08:26:19,0.24285920000000005,0.10003651999999996,0.13993132000000008,-0.024752839999999998,0.01948540000000004,-0.027974960000000007,17.56415612,-46.074111280000004,29.726743159999998,-159.1904024,0.09652717256000001,-0.07958783679999998,-0.2866247895999998,-0.04998007952,0.042155824399999986,0.053423290400000004
08:26:19,0.2547530250000001,0.09562396499999992,0.13355494000000012,-0.026856904999999986,0.017509175000000043,-0.027245195000000014,17.577583665,-46.055840135000004,29.741760595,-159.2333933,0.09762654439500001,-0.08208839809999996,-0.2950635319499999,-0.05011709584,0.0399460948,0.054511074300000004
08:26:19,0.2666468500000001,0.09121140999999999,0.12717856000000005,-0.028960969999999975,0.015532950000000045,-0.026515430000000006,17.591011209999998,-46.037568990000004,29.75677803,-159.2763842,0.09872591622999999,-0.08458895939999994,-0.30350227429999976,-0.05025411216,0.03773636520000001,0.055598858200000004
08:26:19,0.2785406750000001,0.08679885499999995,0.12080218000000009,-0.031065034999999963,0.013556725000000047,-0.025785665000000013,17.604438755,-46.019297845000004,29.771795465,-159.3193751,0.09982528806499999,-0.08708952069999998,-0.31194101664999985,-0.05039112848,0.03552663560000002,0.056686642100000004
08:26:19,0.29043450000000015,0.08238629999999991,0.11442580000000013,-0.03316910000000001,0.011580500000000049,-0.025055900000000006,17.6178663,-46.001026700000004,29.7868129,-159.362366,0.10092465989999999,-0.08959008199999996,-0.3203797589999997,-0.0505281448,0.03331690599999998,0.057774426000000004
08:26:19,0.3023283250000002,0.07797374499999998,0.10804942000000006,-0.035273164999999995,0.009604275000000051,-0.024326135000000013,17.631293845,-45.982755555000004,29.801830335,-159.40535690000002,0.10202403173499999,-0.09209064329999994,-0.3288185013499998,-0.050665161119999996,0.03110717639999999,0.058862209900000004
08:26:19,0.31422215,0.07356118999999994,0.1016730400000001,-0.037377229999999984,0.007628050000000053,-0.023596370000000005,17.64472139,-45.964484410000004,29.81684777,-159.4483478,0.10312340357,-0.09459120459999998,-0.3372572436999999,-0.05080217744,0.028897446800000004,0.059949993800000004
08:26:19,0.326115975,0.0691486349999999,0.09529666000000003,-0.03948129499999997,0.005651825000000055,-0.022866605000000012,17.658148935,-45.946213265000004,29.831865205,-159.4913387,0.104222775405,-0.09709176589999996,-0.34569598604999974,-0.05093919376,0.026687717200000016,0.061037777700000004
08:26:19,0.3380098,0.06473607999999997,0.08892028000000007,-0.04158535999999996,0.0036756000000000566,-0.022136840000000005,17.67157648,-45.927942120000004,29.84688264,-159.5343296,0.10532214724,-0.09959232719999994,-0.3541347283999998,-0.051076210080000004,0.024477987599999973,0.062125561600000004
08:26:19,0.34990362500000005,0.06032352499999993,0.08254390000000011,-0.043689425000000004,0.001699375000000003,-0.02140707500000001,17.685004024999998,-45.909670975000004,29.861900075,-159.5773205,0.106421519075,-0.10209288849999998,-0.3625734707499997,-0.0512132264,0.022268257999999985,0.0632133455
08:26:19,0.3617974500000001,0.05591096999999989,0.07616752000000004,-0.04579348999999999,-0.00027684999999999516,-0.020677310000000004,17.69843157,-45.891399830000005,29.87691751,-159.6203114,0.10752089091,-0.10459344979999996,-0.37101221309999977,-0.051350242719999994,0.020058528399999997,0.0643011294
08:26:19,0.3736912750000001,0.051498414999999964,0.06979114000000008,-0.04789755499999998,-0.0022530749999999933,-0.01994754500000001,17.711859115,-45.873128685000005,29.891934945,-159.6633023,0.108620262745,-0.10709401109999994,-0.37945095544999985,-0.05148725904,0.01784879880000001,0.0653889133
08:26:19,0.3855851000000001,0.047085859999999924,0.06341476000000013,-0.05000161999999997,-0.004229299999999991,-0.019217780000000004,17.72528666,-45.854857540000005,29.90695238,-159.7062932,0.10971963458,-0.10959457239999998,-0.3878896977999997,-0.05162427536,0.015639069200000022,0.0664766972
08:26:19,0.39747892500000015,0.042673304999999995,0.057038380000000055,-0.05210568499999996,-0.0062055249999999895,-0.01848801500000001,17.738714205,-45.836586395000005,29.921969815,-159.7492841,0.110819006415,-0.11209513369999996,-0.3963284401499998,-0.05176129168,0.013429339599999979,0.0675644811
08:26:19,0.4093727500000002,0.038260749999999955,0.050662000000000096,-0.05420975,-0.008181749999999988,-0.017758250000000017,17.75214175,-45.818315250000005,29.93698725,-159.79227500000002,0.11191837825,-0.11459569499999994,-0.4047671824999999,-0.051898308000000004,0.011219609999999991,0.068652265
08:26:19,0.421266575,0.033848194999999914,0.04428562000000014,-0.05631381499999999,-0.010157974999999986,-0.01702848500000001,17.765569295,-45.800044105,29.952004685,-159.8352659,0.11301775008500001,-0.11709625629999998,-0.41320592484999974,-0.05203532432,0.009009880400000003,0.0697400489
08:26:19,0.4331604,0.029435639999999985,0.037909240000000066,-0.05841787999999998,-0.012134199999999984,-0.016298720000000017,17.778996839999998,-45.78177296,29.96702212,-159.8782568,0.11411712192000001,-0.11959681759999996,-0.4216446671999998,-0.052172340639999995,0.0068001508000000155,0.0708278328
08:26:19,0.445054225,0.025023084999999945,0.03153286000000011,-0.060521944999999966,-0.014110424999999982,-0.01556895500000001,17.792424385,-45.763501815,29.982039555,-159.9212477,0.11521649375500001,-0.12209737889999994,-0.4300834095499997,-0.05230935696,0.004590421200000028,0.0719156167
08:26:19,0.45694805000000005,0.020610529999999905,0.025156480000000037,-0.06262600999999995,-0.01608664999999998,-0.014839190000000016,17.80585193,-45.74523067,29.99705699,-159.96423860000002,0.11631586559000001,-0.12459794019999998,-0.43852215189999977,-0.05244637328,0.0023806915999999845,0.0730034006
08:26:19,0.4688418750000001,0.016197974999999976,0.018780100000000077,-0.064730075,-0.018062874999999978,-0.014109425000000009,17.819279475,-45.726959525,30.012074425,-160.0072295,0.11741523742500001,-0.12709850149999996,-0.44696089424999985,-0.0525833896,0.00017096199999999673,0.0740911845
08:26:19,0.4807357000000001,0.011785419999999935,0.012403720000000118,-0.06683413999999999,-0.020039099999999976,-0.013379660000000015,17.83270702,-45.70868838,30.02709186,-160.0502204,0.11851460925999999,-0.12959906279999994,-0.4553996365999997,-0.05272040592,-0.002038767599999991,0.0751789684
08:26:19,0.4926295250000001,0.007372864999999895,0.006027340000000159,-0.06893820499999997,-0.022015324999999974,-0.012649895000000008,17.846134565,-45.690417235,30.042109295,-160.0932113,0.11961398109499999,-0.13209962409999998,-0.4638383789499998,-0.05285742224,-0.004248497199999979,0.0762667523
08:26:19,0.5045233500000001,0.002960309999999966,-0.00034903999999991164,-0.07104226999999996,-0.023991549999999973,-0.011920130000000015,17.85956211,-45.67214609,30.05712673,-160.1362022,0.12071335292999999,-0.13460018539999996,-0.4722771212999999,-0.052994438559999996,-0.006458226800000022,0.0773545362
08:26:19,0.5164171750000002,-0.0014522450000000742,-0.006725419999999982,-0.073146335,-0.02596777499999997,-0.011190365000000008,17.872989654999998,-45.653874945,30.072144165,-160.1791931,0.12181272476499999,-0.13710074669999994,-0.48071586364999974,-0.05313145488,-0.00866795640000001,0.0784423201
08:26:19,0.528311,-0.005864800000000003,-0.01310179999999983,-0.0752504,-0.02794399999999997,-0.010460600000000014,17.8864172,-45.6356038,30.087161599999998,-160.222184,0.12291209659999999,-0.13960130799999992,-0.4891546059999998,-0.0532684712,-0.010877685999999998,0.079530104
08:26:19,0.540204825,-0.010277355000000044,-0.0194781799999999,-0.07735446499999998,-0.029920224999999967,-0.009730835000000007,17.899844745,-45.617332655,30.102179035,-160.2651749,0.124011468435,-0.14210186929999996,-0.4975933483499997,-0.05340548752,-0.013087415599999985,0.0806178879
08:26:19,0.55209865,-0.014689910000000084,-0.02585455999999997,-0.07945852999999997,-0.031896449999999965,-0.009001070000000014,17.91327229,-45.59906151,30.11719647,-160.3081658,0.12511084027,-0.14460243059999994,-0.5060320906999998,-0.05354250384,-0.015297145199999973,0.0817056718
08:26:19,0.563992475,-0.019102465000000013,-0.03223093999999982,-0.08156259499999996,-0.03387267499999996,-0.008271305000000007,17.926699835,-45.580790365,30.132213905,-160.3511567,0.126210212105,-0.14710299189999992,-0.5144708330499999,-0.053679520159999994,-0.017506874800000016,0.0827934557
08:26:19,0.5758863000000001,-0.023515020000000053,-0.03860731999999989,-0.08366666,-0.03584889999999996,-0.007541540000000013,17.94012738,-45.56251922,30.14723134,-160.3941476,0.12730958394,-0.14960355319999996,-0.5229095753999997,-0.053816536479999996,-0.019716604400000004,0.0838812396
08:26:19,0.5877801250000001,-0.027927575000000093,-0.04498369999999996,-0.08577072499999999,-0.03782512499999996,-0.006811775000000006,17.953554925,-45.544248075,30.162248775,-160.4371385,0.128408955775,-0.15210411449999994,-0.5313483177499998,-0.0539535528,-0.021926333999999992,0.0849690235
08:26:19,0.5996739500000001,-0.03234013000000002,-0.05136007999999981,-0.08787478999999998,-0.03980134999999996,-0.006082010000000013,17.966982469999998,-45.52597693,30.17726621,-160.4801294,0.12950832761,-0.15460467579999992,-0.5397870600999997,-0.05409056912,-0.02413606359999998,0.0860568074
08:26:19,0.6115677750000001,-0.03675268500000006,-0.05773645999999988,-0.08997885499999997,-0.041777574999999956,-0.0053522450000000055,17.980410015,-45.507705785,30.192283645,-160.52312030000002,0.130607699445,-0.15710523709999996,-0.5482258024499997,-0.05422758544,-0.026345793200000023,0.0871445913
08:26:19,0.6234616000000002,-0.0411652400000001,-0.06411283999999995,-0.09208291999999996,-0.043753799999999954,-0.004622480000000012,17.99383756,-45.48943464,30.20730108,-160.5661112,0.13170707128,-0.15960579839999994,-0.5566645447999998,-0.05436460176,-0.02855552280000001,0.0882323752
08:26:19,0.6353554250000002,-0.04557779500000003,-0.07048922000000002,-0.094186985,-0.04573002499999995,-0.003892715000000005,18.007265105,-45.471163495,30.222318514999998,-160.6091021,0.132806443115,-0.16210635969999992,-0.5651032871499997,-0.054501618079999994,-0.0307652524,0.0893201591
08:26:19,0.6472492500000002,-0.04999035000000007,-0.07686559999999987,-0.09629104999999999,-0.04770624999999995,-0.0031629500000000116,18.02069265,-45.45289235,30.23733595,-160.652093,0.13390581495,-0.16460692099999996,-0.5735420294999998,-0.0546386344,-0.032974981999999986,0.090407943
08:26:19,0.6591430750000002,-0.05440290500000011,-0.08324197999999994,-0.09839511499999998,-0.04968247499999995,-0.0024331850000000182,18.034120195,-45.434621205,30.252353385,-160.69508390000001,0.135005186785,-0.16710748229999994,-0.5819807718499999,-0.05477565072,-0.035184711599999974,0.0914957269
08:26:19,0.6710369000000003,-0.05881546000000004,-0.08961836000000001,-0.10049917999999997,-0.051658699999999946,-0.001703420000000011,18.04754774,-45.41635006,30.26737082,-160.7380748,0.13610455862,-0.16960804359999992,-0.5904195141999997,-0.05491266704,-0.03739444120000002,0.0925835108
08:26:19,0.6829307250000003,-0.06322801500000008,-0.09599473999999986,-0.10260324499999995,-0.053634924999999944,-0.0009736550000000177,18.060975284999998,-45.398078915,30.282388255,-160.7810657,0.137203930455,-0.17210860489999996,-0.5988582565499998,-0.05504968336,-0.039604170800000005,0.0936712947
08:26:19,0.6948245499999999,-0.06764057000000001,-0.10237111999999993,-0.10470731,-0.05561114999999994,-0.00024389000000002437,18.07440283,-45.37980777,30.297405689999998,-160.8240566,0.13830330228999999,-0.17460916619999994,-0.6072969988999997,-0.05518669968,-0.04181390039999999,0.0947590786
08:26:19,0.7067183749999999,-0.07205312500000005,-0.1087475,-0.10681137499999999,-0.05758737499999994,0.0004858749999999967,18.087830375,-45.361536625,30.312423125,-160.8670475,0.139402674125,-0.17710972749999992,-0.6157357412499997,-0.055323715999999995,-0.04402362999999998,0.0958468625
08:26:19,0.7186121999999999,-0.07646568000000009,-0.11512387999999985,-0.10891543999999997,-0.059563599999999994,0.00121563999999999,18.10125792,-45.34326548,30.32744056,-160.91003840000002,0.14050204596,-0.17961028879999996,-0.6241744835999998,-0.05546073232,-0.04623335959999997,0.0969346464
08:26:19,0.730506025,-0.08087823500000002,-0.12150025999999992,-0.11101950499999996,-0.06153982499999999,0.0019454049999999834,18.114685465,-45.324994335,30.342457995,-160.9530293,0.141601417795,-0.18211085009999994,-0.6326132259499997,-0.05559774864,-0.04844308920000001,0.0980224303
08:26:19,0.74239985,-0.08529079000000006,-0.12787663999999999,-0.11312357,-0.06351604999999999,0.0026751699999999767,18.12811301,-45.30672319,30.35747543,-160.9960202,0.14270078963,-0.18461141139999993,-0.6410519682999998,-0.05573476496,-0.0506528188,0.0991102142
08:26:19,0.754293675,-0.0897033450000001,-0.13425301999999983,-0.115227635,-0.06549227499999999,0.003404934999999998,18.141540555,-45.288452045,30.372492864999998,-161.0390111,0.143800161465,-0.18711197269999996,-0.6494907106499996,-0.05587178128,-0.05286254839999999,0.1001979981
08:26:19,0.7661875,-0.09411590000000003,-0.1406293999999999,-0.11733169999999998,-0.06746849999999999,0.004134699999999991,18.154968099999998,-45.2701809,30.3875103,-161.08200200000002,0.1448995333,-0.18961253399999994,-0.6579294529999997,-0.05600879759999999,-0.055072277999999975,0.101285782
08:26:19,0.778081325,-0.09852845500000007,-0.14700577999999997,-0.11943576499999997,-0.06944472499999998,0.0048644649999999845,18.168395645,-45.251909755,30.402527735,-161.1249929,0.145998905135,-0.19211309529999993,-0.6663681953499998,-0.056145813919999996,-0.05728200760000002,0.1023735659
08:26:19,0.7899751500000001,-0.10294101000000011,-0.15338215999999982,-0.12153982999999996,-0.07142094999999998,0.005594229999999978,18.18182319,-45.23363861,30.41754517,-161.1679838,0.14709827697,-0.19461365659999996,-0.6748069376999997,-0.05628283024,-0.059491737200000006,0.1034613498
08:26:19,0.8018689750000001,-0.10735356500000004,-0.1597585399999999,-0.123643895,-0.07339717499999998,0.006323994999999999,18.195250735,-45.215367465,30.432562605,-161.2109747,0.148197648805,-0.19711421789999994,-0.6832456800499997,-0.05641984656,-0.06170146679999999,0.1045491337
08:26:19,0.8137628000000001,-0.11176612000000008,-0.16613491999999996,-0.12574796,-0.07537339999999998,0.007053759999999992,18.20867828,-45.19709632,30.44758004,-161.25396560000002,0.14929702064,-0.19961477919999993,-0.6916844223999998,-0.05655686288,-0.06391119639999998,0.1056369176
08:26:19,0.8256566250000001,-0.11617867500000012,-0.1725112999999998,-0.12785202499999998,-0.07734962499999998,0.007783524999999986,18.222105825,-45.178825175,30.462597475,-161.2969565,0.150396392475,-0.20211534049999996,-0.7001231647499997,-0.0566938792,-0.06612092599999997,0.1067247015
08:26:19,0.8375504500000002,-0.12059123000000005,-0.17888767999999988,-0.12995608999999997,-0.07932584999999998,0.008513289999999979,18.23553337,-45.16055403,30.47761491,-161.3399474,0.15149576431,-0.20461590179999994,-0.7085619070999998,-0.056830895519999994,-0.06833065560000001,0.1078124854
08:26:19,0.8494442750000002,-0.1250037850000001,-0.18526405999999995,-0.13206015499999996,-0.08130207499999997,0.009243055,18.248960914999998,-45.142282885,30.492632345,-161.3829383,0.152595136145,-0.20711646309999993,-0.7170006494499996,-0.056967911839999996,-0.0705403852,0.1089002693
08:26:19,0.8613381000000002,-0.12941634000000002,-0.19164044000000002,-0.13416422,-0.08327829999999997,0.009972819999999993,18.26238846,-45.12401174,30.50764978,-161.4259292,0.15369450798,-0.20961702439999996,-0.7254393917999997,-0.05710492816,-0.07275011479999999,0.1099880532
08:26:19,0.8732319250000002,-0.13382889500000006,-0.19801681999999987,-0.136268285,-0.08525452499999997,0.010702584999999987,18.275816005,-45.105740595,30.522667215,-161.46892010000002,0.154793879815,-0.21211758569999994,-0.7338781341499998,-0.05724194448,-0.07495984439999998,0.1110758371
08:26:19,0.8851257500000003,-0.1382414500000001,-0.20439319999999994,-0.13837234999999998,-0.08723074999999997,0.01143234999999998,18.28924355,-45.08746945,30.53768465,-161.511911,0.15589325165,-0.21461814699999993,-0.7423168764999997,-0.057378960799999996,-0.07716957400000002,0.112163621
08:26:19,0.8970195750000003,-0.14265400500000003,-0.21076958,-0.14047641499999997,-0.08920697499999997,0.012162115000000001,18.302671095,-45.069198305,30.552702085,-161.5549019,0.156992623485,-0.21711870829999996,-0.7507556188499998,-0.05751597712,-0.0793793036,0.1132514049
08:26:19,0.9089134000000003,-0.14706656000000007,-0.21714595999999986,-0.14258047999999995,-0.09118319999999996,0.012891879999999994,18.31609864,-45.05092716,30.56771952,-161.5978928,0.15809199532,-0.21961926959999994,-0.7591943611999996,-0.057652993439999994,-0.0815890332,0.1143391888
08:26:19,0.9208072249999999,-0.1514791150000001,-0.22352233999999993,-0.144684545,-0.09315942499999996,0.013621644999999988,18.329526185,-45.032656015,30.582736955,-161.64088370000002,0.15919136715499999,-0.22211983089999993,-0.7676331035499997,-0.05779000976,-0.08379876279999998,0.1154269727
08:26:19,0.9327010499999999,-0.15589167000000004,-0.22989872,-0.14678860999999999,-0.09513564999999996,0.014351409999999981,18.342953729999998,-45.01438487,30.59775439,-161.6838746,0.16029073899,-0.22462039219999996,-0.7760718458999998,-0.05792702608,-0.08600849239999997,0.1165147566
08:26:19,0.944594875,-0.16030422500000008,-0.23627509999999985,-0.14889267499999997,-0.09711187499999996,0.015081174999999974,18.356381275,-44.996113725,30.612771825,-161.7268655,0.161390110825,-0.22712095349999994,-0.7845105882499996,-0.0580640424,-0.08821822200000001,0.1176025405
08:26:19,0.9564887,-0.16471678000000012,-0.24265147999999992,-0.15099673999999996,-0.09908809999999996,0.015810939999999996,18.36980882,-44.97784258,30.62778926,-161.7698564,0.16248948266,-0.22962151479999993,-0.7929493305999997,-0.05820105872,-0.0904279516,0.1186903244
08:26:19,0.968382525,-0.16912933500000005,-0.24902786,-0.153100805,-0.10106432499999995,0.01654070499999999,18.383236365,-44.959571435,30.642806695,-161.81284730000002,0.163588854495,-0.23212207609999996,-0.8013880729499998,-0.05833807503999999,-0.09263768119999999,0.1197781083
08:26:19,0.98027635,-0.1735418900000001,-0.25540423999999984,-0.15520487,-0.10304054999999995,0.017270469999999982,18.39666391,-44.94130029,30.657824129999998,-161.8558382,0.16468822633,-0.23462263739999994,-0.8098268152999997,-0.058475091359999995,-0.09484741079999998,0.1208658922
08:26:19,0.992170175,-0.17795444500000002,-0.2617806199999999,-0.15730893499999998,-0.10501677499999995,0.018000234999999976,18.410091455,-44.923029145,30.672841565,-161.8988291,0.165787598165,-0.23712319869999993,-0.8182655576499998,-0.05861210768,-0.09705714040000002,0.1219536761
08:26:20,1.004064,-0.182367,-0.268157,-0.159413,-0.106993,0.01873,18.423519,-44.904758,30.687859,-161.94182,0.16688697,-0.23962376,-0.8267043,-0.058749124,-0.09926687,0.12304146
08:26:20,0.9994688850000001,-0.18239973,-0.2664025,-0.158486145,-0.10690777,0.017707265,18.40428213,-44.89611123,30.71054809,-161.91599525,0.16672973594999999,-0.23939318895,-0.82325042225,-0.05918893188,-0.099071561125,0.12256367279000001
08:26:20,0.9948737700000001,-0.18243246,-0.264648,-0.15755929,-0.10682254000000001,0.01668453,18.38504526,-44.887464460000004,30.73323718,-161.8901705,0.1665725019,-0.23916261789999999,-0.8197965445,-0.05962873976,-0.09887625224999999,0.12208588558000001
08:26:20,0.9902786550000001,-0.18246519,-0.2628935,-0.156632435,-0.10673731,0.015661795,18.365808389999998,-44.87881769,30.75592627,-161.86434575,0.16641526785,-0.23893204685,-0.81634266675,-0.06006854764,-0.098680943375,0.12160809837
08:26:20,0.98568354,-0.18249792,-0.26113899999999995,-0.15570558,-0.10665208000000001,0.014639059999999999,18.346571519999998,-44.87017092,30.77861536,-161.83852100000001,0.16625803379999998,-0.23870147579999998,-0.812888789,-0.06050835552,-0.09848563449999999,0.12113031116
08:26:20,0.981088425,-0.18253065,-0.25938449999999996,-0.154778725,-0.10656685,0.013616324999999999,18.327334649999997,-44.86152415,30.80130445,-161.81269625000002,0.16610079975,-0.23847090475,-0.80943491125,-0.0609481634,-0.098290325625,0.12065252395
08:26:20,0.9764933100000001,-0.18256338,-0.25762999999999997,-0.15385187,-0.10648162,0.01259359,18.30809778,-44.85287738,30.82399354,-161.78687150000002,0.1659435657,-0.2382403337,-0.8059810334999999,-0.06138797128,-0.09809501675,0.12017473674000001
08:26:20,0.9718981950000001,-0.18259611,-0.2558755,-0.152925015,-0.10639639000000001,0.011570855,18.28886091,-44.844230610000004,30.84668263,-161.76104675000002,0.16578633165,-0.23800976264999998,-0.80252715575,-0.06182777916,-0.09789970787499999,0.11969694953
08:26:20,0.9673030800000001,-0.18262884000000001,-0.254121,-0.15199816,-0.10631116,0.01054812,18.26962404,-44.83558384,30.86937172,-161.735222,0.1656290976,-0.2377791916,-0.7990732779999999,-0.06226758704,-0.097704399,0.11921916232
08:26:20,0.9627079650000001,-0.18266157,-0.2523665,-0.151071305,-0.10622593000000001,0.009525384999999999,18.25038717,-44.82693707,30.89206081,-161.70939725,0.16547186355,-0.23754862054999998,-0.79561940025,-0.06270739492,-0.09750909012499999,0.11874137511
08:26:20,0.95811285,-0.1826943,-0.250612,-0.15014444999999998,-0.1061407,0.008502649999999999,18.2311503,-44.8182903,30.9147499,-161.6835725,0.1653146295,-0.2373180495,-0.7921655224999999,-0.0631472028,-0.09731378125,0.11826358790000001
08:26:20,0.953517735,-0.18272703,-0.24885749999999998,-0.149217595,-0.10605547,0.0074799149999999984,18.21191343,-44.80964353,30.93743899,-161.65774775,0.16515739545,-0.23708747845,-0.78871164475,-0.06358701068,-0.09711847237499999,0.11778580069
08:26:20,0.94892262,-0.18275976,-0.247103,-0.14829074,-0.10597024000000001,0.00645718,18.19267656,-44.800996760000004,30.96012808,-161.631923,0.16500016139999998,-0.23685690739999998,-0.7852577669999999,-0.06402681856,-0.09692316349999999,0.11730801348
08:26:20,0.9443275050000001,-0.18279249,-0.24534849999999997,-0.147363885,-0.10588501,0.0054344449999999996,18.17343969,-44.79234999,30.98281717,-161.60609825,0.16484292735,-0.23662633635,-0.78180388925,-0.06446662644,-0.096727854625,0.11683022627
08:26:20,0.9397323900000001,-0.18282522,-0.24359399999999998,-0.14643703,-0.10579978000000001,0.004411709999999999,18.15420282,-44.78370322,31.00550626,-161.5802735,0.1646856933,-0.2363957653,-0.7783500114999999,-0.06490643432,-0.09653254574999999,0.11635243906
08:26:20,0.9351372750000001,-0.18285795,-0.24183949999999999,-0.145510175,-0.10571455,0.003388974999999999,18.134965949999998,-44.77505645,31.02819535,-161.55444875,0.16452845925,-0.23616519425,-0.77489613375,-0.0653462422,-0.096337236875,0.11587465185000001
08:26:20,0.9305421600000001,-0.18289068,-0.240085,-0.14458332,-0.10562932,0.0023662399999999986,18.115729079999998,-44.76640968,31.05088444,-161.528624,0.1643712252,-0.2359346232,-0.7714422559999999,-0.06578605008,-0.09614192799999999,0.11539686464
08:26:20,0.925947045,-0.18292341,-0.23833049999999997,-0.143656465,-0.10554409000000001,0.0013435049999999983,18.096492209999997,-44.757762910000004,31.07357353,-161.50279925,0.16421399115,-0.23570405214999998,-0.76798837825,-0.06622585796,-0.095946619125,0.11491907743
08:26:20,0.92135193,-0.18295614,-0.23657599999999998,-0.14272961,-0.10545886,0.000320769999999998,18.07725534,-44.74911614,31.09626262,-161.4769745,0.1640567571,-0.2354734811,-0.7645345004999999,-0.06666566584,-0.09575131025,0.11444129022
08:26:20,0.9167568150000001,-0.18298887,-0.2348215,-0.141802755,-0.10537363000000001,-0.0007019650000000023,18.05801847,-44.74046937,31.11895171,-161.45114975,0.16389952305,-0.23524291005,-0.76108062275,-0.06710547372,-0.09555600137499999,0.11396350301000001
08:26:20,0.9121617000000001,-0.1830216,-0.23306699999999997,-0.1408759,-0.1052884,-0.0017247000000000026,18.0387816,-44.7318226,31.141640799999998,-161.42532500000002,0.16374228899999999,-0.235012339,-0.7576267449999999,-0.0675452816,-0.0953606925,0.1134857158
08:26:20,0.9075665850000001,-0.18305433,-0.23131249999999998,-0.139949045,-0.10520317,-0.002747435000000003,18.01954473,-44.72317583,31.164329889999998,-161.39950025000002,0.16358505495,-0.23478176795,-0.75417286725,-0.06798508948,-0.09516538362499999,0.11300792859
08:26:20,0.90297147,-0.18308706,-0.22955799999999998,-0.13902219,-0.10511794,-0.0037701700000000032,18.00030786,-44.714529060000004,31.187018979999998,-161.37367550000002,0.1634278209,-0.23455119689999998,-0.7507189894999999,-0.06842489736,-0.09497007475,0.11253014138
08:26:20,0.898376355,-0.18311979,-0.2278035,-0.13809533499999999,-0.10503271,-0.0047929050000000036,17.98107099,-44.70588229,31.209708069999998,-161.34785075000002,0.16327058685,-0.23432062585,-0.74726511175,-0.06886470524,-0.094774765875,0.11205235417000001
08:26:20,0.89378124,-0.18315252,-0.22604899999999997,-0.13716847999999998,-0.10494748000000001,-0.00581564,17.96183412,-44.69723552,31.232397159999998,-161.322026,0.1631133528,-0.2340900548,-0.7438112339999999,-0.06930451312,-0.09457945699999999,0.11157456696000001
08:26:20,0.889186125,-0.18318525,-0.22429449999999998,-0.136241625,-0.10486225,-0.006838375000000001,17.94259725,-44.68858875,31.255086249999998,-161.29620125,0.16295611875,-0.23385948374999999,-0.74035735625,-0.069744321,-0.094384148125,0.11109677975
08:26:20,0.8845910100000001,-0.18321798,-0.22254,-0.13531477,-0.10477702,-0.007861110000000001,17.92336038,-44.67994198,31.277775339999998,-161.2703765,0.1627988847,-0.2336289127,-0.7369034784999999,-0.07018412888,-0.09418883924999999,0.11061899254
08:26:20,0.8799958950000001,-0.18325071,-0.22078549999999997,-0.134387915,-0.10469179,-0.008883845000000001,17.904123509999998,-44.671295210000004,31.300464429999998,-161.24455175,0.16264165065,-0.23339834164999998,-0.73344960075,-0.07062393676,-0.093993530375,0.11014120533
08:26:20,0.8754007800000001,-0.18328344,-0.21903099999999998,-0.13346106,-0.10460656,-0.009906580000000002,17.884886639999998,-44.66264844,31.323153519999998,-161.218727,0.1624844166,-0.2331677706,-0.7299957229999999,-0.07106374464,-0.0937982215,0.10966341812000001
08:26:20,0.870805665,-0.18331617,-0.21727649999999998,-0.132534205,-0.10452133000000001,-0.010929315000000002,17.865649769999997,-44.65400167,31.34584261,-161.19290225,0.16232718255,-0.23293719955,-0.72654184525,-0.07150355252,-0.09360291262499999,0.10918563091
08:26:20,0.86621055,-0.1833489,-0.215522,-0.13160735,-0.1044361,-0.011952050000000002,17.8464129,-44.6453549,31.3685317,-161.1670775,0.1621699485,-0.23270662849999998,-0.7230879674999999,-0.0719433604,-0.09340760375,0.1087078437
08:26:20,0.861615435,-0.18338163,-0.21376749999999997,-0.130680495,-0.10435087,-0.012974785000000006,17.82717603,-44.63670813,31.39122079,-161.14125275,0.16201271444999998,-0.23247605745,-0.71963408975,-0.07238316828,-0.09321229487499999,0.10823005649
08:26:20,0.8570203200000001,-0.18341436,-0.21201299999999998,-0.12975364,-0.10426564,-0.013997520000000003,17.80793916,-44.628061360000004,31.41390988,-161.115428,0.1618554804,-0.2322454864,-0.7161802119999999,-0.07282297616,-0.093016986,0.10775226928000001
08:26:20,0.8524252050000001,-0.18344709,-0.2102585,-0.128826785,-0.10418041,-0.015020255,17.78870229,-44.61941459,31.43659897,-161.08960325,0.16169824635,-0.23201491535,-0.71272633425,-0.07326278404,-0.09282167712499999,0.10727448207000001
08:26:20,0.8478300900000001,-0.18347982,-0.20850399999999997,-0.12789993,-0.10409518000000001,-0.016042990000000003,17.76946542,-44.61076782,31.45928806,-161.0637785,0.1615410123,-0.2317843443,-0.7092724564999999,-0.07370259192,-0.09262636825,0.10679669486
08:26:20,0.8432349750000001,-0.18351255,-0.20674949999999997,-0.126973075,-0.10400995,-0.017065725,17.75022855,-44.60212105,31.48197715,-161.03795375,0.16138377825,-0.23155377324999998,-0.70581857875,-0.0741423998,-0.092431059375,0.10631890765
08:26:20,0.83863986,-0.18354528,-0.20499499999999998,-0.12604622,-0.10392472,-0.018088460000000004,17.73099168,-44.59347428,31.50466624,-161.01212900000002,0.1612265442,-0.2313232022,-0.7023647009999999,-0.07458220768,-0.09223575049999999,0.10584112044
08:26:20,0.834044745,-0.18357801,-0.2032405,-0.12511936499999998,-0.10383949,-0.019111195,17.71175481,-44.584827510000004,31.52735533,-160.98630425000002,0.16106931015,-0.23109263115,-0.69891082325,-0.07502201556,-0.092040441625,0.10536333323
08:26:20,0.82944963,-0.18361074,-0.201486,-0.12419251,-0.10375426,-0.020133930000000005,17.69251794,-44.57618074,31.55004442,-160.96047950000002,0.1609120761,-0.2308620601,-0.6954569454999999,-0.07546182343999999,-0.09184513274999999,0.10488554602
08:26:20,0.8248545150000001,-0.18364347,-0.19973149999999998,-0.123265655,-0.10366903000000001,-0.021156665,17.673281069999998,-44.56753397,31.57273351,-160.93465475,0.16075484204999999,-0.23063148905,-0.69200306775,-0.07590163132,-0.091649823875,0.10440775881
