Timestamp,linacce_x,linacce_y,linacce_z,gyro_x,gyro_y,gyro_z,X-magnetometer,Y-magnetometer,Z-magnetometer,Yaw, worldXAccel,worldYAccel,worldZAccel,worldXgyro,worldYgyro,worldZgyro,Distance
03:45:18,-0.674075,3.46283,0.267913,-0.378555,0.691729,-0.72702,-3.711697,-30.326721,-8.70047,162.77736,-0.67597264,3.3157885,-0.45125216,-0.84663665,0.7197563,0.61505795,0.0045
03:45:18,-0.6744591449999999,3.447112255,0.2677708,-0.3771114499999999,0.68608798,-0.72216734,-3.702387365,-30.32747547,-8.69697879,162.8244383,-0.6751223843,3.3003201184,-0.44801873105,-0.84193173235,0.71385921225,0.6114888709999999,0.0045
03:45:18,-0.67484329,3.43139451,0.2676286,-0.3756679,0.68044696,-0.71731468,-3.69307773,-30.32822994,-8.69348758,162.87151659999998,-0.6742721286,3.2848517368,-0.4447853021,-0.8372268147,0.7079621245000001,0.607919792,0.0045
03:45:18,-0.6752274349999999,3.415676765,0.2674864,-0.37422435,0.67480594,-0.71246202,-3.683768095,-30.32898441,-8.68999637,162.9185949,-0.6734218729,3.2693833552,-0.44155187315,-0.83252189705,0.70206503675,0.604350713,0.0045
03:45:18,-0.67561158,3.39995902,0.2673442,-0.3727807999999999,0.66916492,-0.70760936,-3.67445846,-30.32973888,-8.68650516,162.9656732,-0.6725716172,3.2539149736,-0.4383184442,-0.8278169794,0.696167949,0.600781634,0.0045
03:45:18,-0.6759957249999999,3.384241275,0.267202,-0.3713372499999999,0.6635239,-0.7027567,-3.665148825,-30.33049335,-8.68301395,163.01275149999998,-0.6717213615000001,3.238446592,-0.43508501525,-0.82311206175,0.69027086125,0.5972125549999999,0.0045
03:45:18,-0.67637987,3.36852353,0.2670598,-0.3698937,0.6578828800000001,-0.69790404,-3.65583919,-30.33124782,-8.67952274,163.0598298,-0.6708711058,3.2229782104,-0.4318515863,-0.8184071441,0.6843737735000001,0.593643476,0.0045
03:45:18,-0.6767640149999999,3.352805785,0.2669176,-0.36845015,0.6522418600000001,-0.69305138,-3.646529555,-30.33200229,-8.67603153,163.1069081,-0.6700208501,3.2075098288,-0.42861815735,-0.81370222645,0.67847668575,0.590074397,0.0045
03:45:18,-0.67714816,3.33708804,0.2667754,-0.3670065999999999,0.6466008400000001,-0.68819872,-3.63721992,-30.33275676,-8.67254032,163.15398639999998,-0.6691705944,3.1920414472,-0.4253847284,-0.8089973088,0.672579598,0.5865053179999999,0.0045
03:45:18,-0.677532305,3.321370295,0.2666332,-0.36556305,0.6409598200000001,-0.68334606,-3.627910285,-30.33351123,-8.66904911,163.2010647,-0.6683203387,3.1765730656,-0.42215129945,-0.80429239115,0.66668251025,0.5829362389999999,0.0045
03:45:18,-0.67791645,3.30565255,0.266491,-0.3641195,0.6353188000000001,-0.6784934,-3.61860065,-30.3342657,-8.6655579,163.248143,-0.667470083,3.161104684,-0.4189178705,-0.7995874735,0.6607854225,0.57936716,0.0045
03:45:18,-0.678300595,3.289934805,0.2663488,-0.3626759499999999,0.6296777800000001,-0.67364074,-3.609291015,-30.33502017,-8.66206669,163.29522129999998,-0.6666198273,3.1456363024,-0.41568444155,-0.79488255585,0.65488833475,0.575798081,0.0045
03:45:18,-0.67868474,3.27421706,0.2662066,-0.3612323999999999,0.6240367600000001,-0.66878808,-3.59998138,-30.33577464,-8.65857548,163.3422996,-0.6657695716,3.1301679208,-0.4124510126,-0.7901776382,0.648991247,0.5722290019999999,0.0045
03:45:18,-0.679068885,3.258499315,0.2660644,-0.35978885,0.6183957400000001,-0.66393542,-3.590671745,-30.33652911,-8.65508427,163.3893779,-0.6649193159,3.1146995392,-0.40921758365,-0.78547272055,0.64309415925,0.568659923,0.0045
03:45:18,-0.67945303,3.24278157,0.2659222,-0.3583453,0.6127547200000001,-0.65908276,-3.58136211,-30.33728358,-8.65159306,163.43645619999998,-0.6640690602,3.0992311576,-0.4059841547,-0.7807678029,0.6371970715,0.565090844,0.0045
03:45:18,-0.679837175,3.227063825,0.26578,-0.3569017499999999,0.6071137,-0.6542301,-3.572052475,-30.33803805,-8.64810185,163.4835345,-0.6632188045,3.083762776,-0.40275072575,-0.77606288525,0.63129998375,0.561521765,0.0045
03:45:18,-0.68022132,3.21134608,0.2656378,-0.3554582,0.6014726800000001,-0.64937744,-3.56274284,-30.33879252,-8.64461064,163.5306128,-0.6623685488000001,3.0682943944,-0.3995172968,-0.7713579676,0.625402896,0.5579526859999999,0.0045
03:45:18,-0.680605465,3.195628335,0.2654956,-0.35401465,0.59583166,-0.64452478,-3.553433205,-30.33954699,-8.64111943,163.57769109999998,-0.6615182931,3.0528260128,-0.39628386785,-0.7666530499499999,0.61950580825,0.554383607,0.0045
03:45:18,-0.68098961,3.17991059,0.2653534,-0.3525710999999999,0.5901906400000001,-0.63967212,-3.54412357,-30.34030146,-8.63762822,163.6247694,-0.6606680374,3.0373576312,-0.3930504389,-0.7619481323,0.6136087205,0.550814528,0.0045
03:45:18,-0.681373755,3.164192845,0.2652112,-0.3511275499999999,0.58454962,-0.63481946,-3.534813935,-30.34105593,-8.63413701,163.6718477,-0.6598177817,3.0218892496,-0.38981700995,-0.75724321465,0.60771163275,0.5472454489999999,0.0045
03:45:18,-0.6817579,3.1484751,0.265069,-0.349684,0.5789086,-0.6299668,-3.5255043,-30.3418104,-8.6306458,163.71892599999998,-0.658967526,3.006420868,-0.386583581,-0.752538297,0.601814545,0.54367637,0.0045
03:45:18,-0.682142045,3.132757355,0.2649268,-0.34824045,0.57326758,-0.62511414,-3.516194665,-30.34256487,-8.62715459,163.7660043,-0.6581172703,2.9909524864,-0.38335015205,-0.7478333793499999,0.59591745725,0.540107291,0.0045
03:45:18,-0.68252619,3.11703961,0.2647846,-0.3467968999999999,0.56762656,-0.62026148,-3.50688503,-30.34331934,-8.62366338,163.8130826,-0.6572670146,2.9754841048,-0.3801167231,-0.7431284617,0.5900203695,0.536538212,0.0045
03:45:18,-0.682910335,3.101321865,0.2646424,-0.34535335,0.56198554,-0.61540882,-3.497575395,-30.34407381,-8.62017217,163.86016089999998,-0.6564167589000001,2.9600157232,-0.37688329415,-0.73842354405,0.58412328175,0.5329691329999999,0.0045
03:45:18,-0.68329448,3.08560412,0.2645002,-0.3439098,0.55634452,-0.61055616,-3.48826576,-30.34482828,-8.61668096,163.9072392,-0.6555665032,2.9445473416,-0.3736498652,-0.7337186264,0.578226194,0.5294000539999999,0.0045
03:45:18,-0.683678625,3.069886375,0.264358,-0.3424662499999999,0.5507035,-0.6057035,-3.478956125,-30.34558275,-8.61318975,163.9543175,-0.6547162475,2.92907896,-0.37041643625,-0.7290137087499999,0.57232910625,0.525830975,0.0045
03:45:18,-0.6840627699999999,3.05416863,0.2642158,-0.3410226999999999,0.54506248,-0.60085084,-3.46964649,-30.34633722,-8.60969854,164.00139579999998,-0.6538659918,2.9136105784,-0.3671830073,-0.7243087911,0.5664320185,0.522261896,0.0045
03:45:18,-0.684446915,3.038450885,0.2640736,-0.33957915,0.53942146,-0.59599818,-3.460336855,-30.34709169,-8.60620733,164.0484741,-0.6530157361,2.8981421968,-0.36394957835,-0.71960387345,0.56053493075,0.5186928169999999,0.0045
03:45:18,-0.6848310599999999,3.02273314,0.2639314,-0.3381356,0.53378044,-0.59114552,-3.45102722,-30.34784616,-8.60271612,164.09555239999997,-0.6521654804,2.8826738152,-0.3607161494,-0.7148989558,0.554637843,0.515123738,0.0045
03:45:18,-0.685215205,3.007015395,0.2637892,-0.3366920499999999,0.52813942,-0.58629286,-3.441717585,-30.34860063,-8.59922491,164.14263069999998,-0.6513152247,2.8672054336,-0.35748272045,-0.71019403815,0.54874075525,0.511554659,0.0045
03:45:18,-0.6855993499999999,2.99129765,0.263647,-0.3352484999999999,0.5224984,-0.5814402,-3.43240795,-30.3493551,-8.5957337,164.189709,-0.6504649690000001,2.851737052,-0.3542492915,-0.7054891205,0.5428436675,0.5079855799999999,0.0045
03:45:18,-0.685983495,2.975579905,0.2635048,-0.33380495,0.51685738,-0.57658754,-3.423098315,-30.35010957,-8.59224249,164.23678729999995,-0.6496147133,2.8362686704,-0.35101586255,-0.70078420285,0.5369465797499999,0.5044165009999999,0.0045
03:45:18,-0.68636764,2.95986216,0.2633626,-0.3323614,0.51121636,-0.57173488,-3.41378868,-30.35086404,-8.58875128,164.28386559999998,-0.6487644576,2.8208002888,-0.3477824336,-0.6960792852,0.531049492,0.500847422,0.0045
03:45:18,-0.686751785,2.944144415,0.2632204,-0.3309178499999999,0.50557534,-0.56688222,-3.404479045,-30.35161851,-8.58526007,164.3309439,-0.6479142019,2.8053319072000003,-0.34454900465,-0.6913743675499999,0.52515240425,0.4972783429999999,0.0045
03:45:18,-0.68713593,2.92842667,0.2630782,-0.3294743,0.49993432,-0.56202956,-3.39516941,-30.35237298,-8.581768859999999,164.37802219999998,-0.6470639462,2.7898635256,-0.3413155757,-0.6866694499,0.5192553165,0.4937092639999999,0.0045
03:45:18,-0.687520075,2.912708925,0.262936,-0.32803075,0.4942933,-0.5571769,-3.385859775,-30.35312745,-8.578277649999999,164.4251005,-0.6462136905,2.774395144,-0.33808214675,-0.68196453225,0.51335822875,0.4901401849999999,0.0045
03:45:18,-0.68790422,2.89699118,0.2627938,-0.3265871999999999,0.48865228,-0.55232424,-3.37655014,-30.35388192,-8.574786439999999,164.4721788,-0.6453634348,2.7589267624,-0.3348487178,-0.6772596146,0.507461141,0.486571106,0.0045
03:45:18,-0.688288365,2.881273435,0.2626516,-0.32514365,0.48301126,-0.5474715800000001,-3.367240505,-30.35463639,-8.571295229999999,164.51925709999998,-0.6445131791,2.7434583808,-0.33161528885,-0.67255469695,0.50156405325,0.4830020269999999,0.0045
03:45:18,-0.68867251,2.86555569,0.2625094,-0.3237001,0.47737024,-0.54261892,-3.35793087,-30.35539086,-8.567804019999999,164.5663354,-0.6436629234,2.7279899992,-0.3283818599,-0.6678497793,0.4956669655,0.4794329479999999,0.0045
03:45:18,-0.689056655,2.849837945,0.2623672,-0.32225655,0.47172922,-0.5377662599999999,-3.348621235,-30.35614533,-8.564312809999999,164.6134137,-0.6428126677,2.7125216176,-0.32514843095,-0.66314486165,0.4897698777499999,0.475863869,0.0045
03:45:18,-0.6894408,2.8341202,0.262225,-0.3208129999999999,0.4660882,-0.5329136,-3.3393116000000003,-30.3568998,-8.560821599999999,164.66049199999998,-0.641962412,2.697053236,-0.321915002,-0.6584399439999999,0.4838727899999999,0.4722947899999999,0.0045
03:45:18,-0.689824945,2.818402455,0.2620828,-0.31936945,0.46044718,-0.52806094,-3.330001965,-30.35765427,-8.557330389999999,164.7075703,-0.6411121563,2.6815848544,-0.31868157305,-0.6537350263499999,0.4779757022499999,0.4687257109999999,0.0045
03:45:18,-0.69020909,2.80268471,0.2619406,-0.3179259,0.45480616,-0.52320828,-3.32069233,-30.35840874,-8.553839179999999,164.7546486,-0.6402619006,2.6661164728,-0.3154481441,-0.6490301087,0.4720786145,0.4651566319999999,0.0045
03:45:18,-0.690593235,2.786966965,0.2617984,-0.3164823499999999,0.4491651400000001,-0.51835562,-3.311382695,-30.35916321,-8.550347969999999,164.80172689999998,-0.6394116449,2.6506480912,-0.31221471515,-0.64432519105,0.4661815267499999,0.461587553,0.0045
03:45:18,-0.69097738,2.77124922,0.2616562,-0.3150387999999999,0.44352412,-0.5135029600000001,-3.30207306,-30.35991768,-8.546856759999999,164.8488052,-0.6385613892,2.6351797096,-0.3089812862,-0.6396202733999999,0.460284439,0.4580184739999999,0.0045
03:45:18,-0.691361525,2.755531475,0.261514,-0.31359525,0.4378831,-0.5086503,-3.292763425,-30.36067215,-8.543365549999999,164.8958835,-0.6377111335,2.619711328,-0.30574785725,-0.63491535575,0.4543873512499999,0.4544493949999999,0.0045
03:45:18,-0.69174567,2.73981373,0.2613718,-0.3121517,0.43224208,-0.5037976399999999,-3.2834537900000003,-30.36142662,-8.539874339999999,164.94296179999998,-0.6368608778,2.6042429464,-0.3025144282999999,-0.6302104381,0.4484902635,0.4508803159999999,0.0045
03:45:18,-0.692129815,2.724095985,0.2612296,-0.3107081499999999,0.42660106,-0.49894498,-3.274144155,-30.36218109,-8.536383129999999,164.9900401,-0.6360106221,2.5887745648,-0.29928099935,-0.62550552045,0.4425931757499999,0.447311237,0.0045
03:45:18,-0.69251396,2.70837824,0.2610874,-0.3092646,0.42096004,-0.49409232,-3.26483452,-30.36293556,-8.532891919999999,165.0371184,-0.6351603664000001,2.5733061832,-0.2960475704,-0.6208006027999999,0.436696088,0.4437421579999999,0.0045
03:45:18,-0.692898105,2.692660495,0.2609452,-0.30782105,0.41531902,-0.4892396599999999,-3.255524885,-30.36369003,-8.529400709999999,165.08419669999998,-0.6343101107,2.5578378016,-0.29281414145,-0.61609568515,0.4307990002499999,0.4401730789999999,0.0045
03:45:18,-0.69328225,2.67694275,0.260803,-0.3063774999999999,0.409678,-0.484387,-3.24621525,-30.3644445,-8.5259095,165.131275,-0.633459855,2.54236942,-0.2895807125,-0.6113907675,0.4249019125,0.436604,0.0045
03:45:18,-0.6936663949999999,2.661225005,0.2606608,-0.30493395,0.40403698,-0.47953434,-3.236905615,-30.36519897,-8.52241829,165.1783533,-0.6326095993,2.5269010384,-0.28634728355,-0.60668584985,0.4190048247499999,0.4330349209999999,0.0045
03:45:18,-0.69405054,2.64550726,0.2605186,-0.3034904,0.39839596,-0.47468168,-3.2275959800000003,-30.36595344,-8.51892708,165.22543159999998,-0.6317593436,2.5114326568,-0.2831138546,-0.6019809322,0.413107737,0.4294658419999999,0.0045
03:45:18,-0.6944346849999999,2.629789515,0.2603764,-0.30204685,0.39275494,-0.46982902,-3.218286345,-30.36670791,-8.51543587,165.2725099,-0.6309090879,2.4959642752,-0.27988042565,-0.59727601455,0.4072106492499999,0.4258967629999999,0.0045
03:45:18,-0.69481883,2.61407177,0.2602342,-0.3006033,0.38711392,-0.46497636,-3.20897671,-30.36746238,-8.51194466,165.3195882,-0.6300588322,2.4804958936,-0.2766469967,-0.5925710969,0.4013135614999999,0.422327684,0.0045
03:45:18,-0.695202975,2.598354025,0.260092,-0.29915975,0.3814729,-0.4601237,-3.199667075,-30.36821685,-8.50845345,165.36666649999998,-0.6292085765000001,2.465027512,-0.27341356775,-0.58786617925,0.3954164737499999,0.4187586049999999,0.0045
03:45:18,-0.69558712,2.58263628,0.2599498,-0.2977162,0.37583188,-0.45527104,-3.19035744,-30.36897132,-8.50496224,165.4137448,-0.6283583208,2.4495591304,-0.2701801388,-0.5831612615999999,0.3895193859999999,0.4151895259999999,0.0045
03:45:18,-0.695971265,2.566918535,0.2598076,-0.2962726499999999,0.37019086,-0.45041838,-3.181047805,-30.36972579,-8.50147103,165.4608231,-0.6275080651,2.4340907488,-0.26694670985,-0.5784563439499999,0.3836222982499999,0.4116204469999999,0.0045
03:45:18,-0.69635541,2.55120079,0.2596654,-0.2948290999999999,0.36454984,-0.44556572,-3.17173817,-30.37048026,-8.49797982,165.50790139999998,-0.6266578094,2.4186223672,-0.2637132809,-0.5737514263,0.3777252104999999,0.4080513679999999,0.0045
03:45:18,-0.696739555,2.535483045,0.2595232,-0.29338555,0.35890882,-0.44071306,-3.162428535,-30.37123473,-8.49448861,165.5549797,-0.6258075537,2.4031539856,-0.26047985195,-0.56904650865,0.3718281227499999,0.4044822889999999,0.0045
03:45:18,-0.6971237,2.5197653,0.259381,-0.291942,0.3532678,-0.4358604,-3.1531189,-30.3719892,-8.4909974,165.602058,-0.624957298,2.387685604,-0.257246423,-0.564341591,0.3659310349999999,0.4009132099999999,0.0045
03:45:18,-0.697507845,2.504047555,0.2592388,-0.2904984499999999,0.34762678,-0.43100774,-3.143809265,-30.37274367,-8.48750619,165.64913629999998,-0.6241070423,2.3722172224,-0.25401299405,-0.55963667335,0.3600339472499999,0.397344131,0.0045
03:45:18,-0.69789199,2.48832981,0.2590966,-0.2890549,0.34198576,-0.42615508,-3.13449963,-30.37349814,-8.48401498,165.6962146,-0.6232567866000001,2.3567488408,-0.2507795651,-0.5549317557,0.3541368594999999,0.3937750519999999,0.0045
03:45:18,-0.698276135,2.472612065,0.2589544,-0.28761135,0.33634474,-0.42130242,-3.125189995,-30.37425261,-8.48052377,165.7432929,-0.6224065309,2.3412804592,-0.24754613615,-0.55022683805,0.3482397717499999,0.3902059729999999,0.0045
03:45:18,-0.69866028,2.45689432,0.2588122,-0.2861677999999999,0.33070372,-0.41644976,-3.11588036,-30.37500708,-8.47703256,165.79037119999998,-0.6215562752,2.3258120776,-0.2443127072,-0.5455219203999999,0.3423426839999999,0.3866368939999999,0.0045
03:45:18,-0.699044425,2.441176575,0.25867,-0.28472425,0.3250627,-0.4115971,-3.106570725,-30.37576155,-8.47354135,165.8374495,-0.6207060195,2.310343696,-0.24107927825,-0.54081700275,0.33644559625,0.383067815,0.0045
03:45:18,-0.69942857,2.42545883,0.2585278,-0.2832807,0.31942168,-0.40674444,-3.09726109,-30.37651602,-8.47005014,165.8845278,-0.6198557638,2.2948753144,-0.2378458493,-0.5361120851,0.3305485084999999,0.3794987359999999,0.0045
03:45:18,-0.699812715,2.4097410850000003,0.2583856,-0.28183715,0.31378066,-0.40189178,-3.087951455,-30.37727049,-8.46655893,165.93160609999998,-0.6190055081,2.2794069328,-0.23461242035,-0.53140716745,0.32465142075,0.3759296569999999,0.0045
03:45:18,-0.70019686,2.39402334,0.2582434,-0.2803936,0.30813964,-0.39703912,-3.07864182,-30.37802496,-8.46306772,165.9786844,-0.6181552524,2.2639385512,-0.2313789914,-0.5267022498,0.3187543329999999,0.3723605779999999,0.0045
03:45:18,-0.700581005,2.378305595,0.2581012,-0.27895005,0.30249862,-0.39218646,-3.069332185,-30.37877943,-8.45957651,166.0257627,-0.6173049967,2.2484701696,-0.22814556245,-0.52199733215,0.3128572452499999,0.3687914989999999,0.0045
03:45:18,-0.70096515,2.36258785,0.257959,-0.2775065,0.2968576,-0.3873338,-3.06002255,-30.3795339,-8.4560853,166.07284099999998,-0.616454741,2.233001788,-0.2249121335,-0.5172924145,0.3069601574999999,0.3652224199999999,0.0045
03:45:18,-0.701349295,2.346870105,0.2578168,-0.27606295,0.29121658,-0.38248114,-3.050712915,-30.38028837,-8.45259409,166.1199193,-0.6156044853,2.2175334064000003,-0.22167870455,-0.5125874968499999,0.3010630697499999,0.3616533409999999,0.0045
03:45:18,-0.70173344,2.33115236,0.2576746,-0.2746193999999999,0.28557556,-0.37762848,-3.04140328,-30.38104284,-8.44910288,166.1669976,-0.6147542296,2.2020650248,-0.2184452756,-0.5078825791999999,0.2951659819999999,0.3580842619999999,0.0045
03:45:18,-0.702117585,2.315434615,0.2575324,-0.27317585,0.27993454,-0.37277582,-3.032093645,-30.38179731,-8.44561167,166.21407589999998,-0.6139039739000001,2.1865966432,-0.21521184665,-0.50317766155,0.2892688942499999,0.3545151829999999,0.0045
03:45:18,-0.70250173,2.29971687,0.2573902,-0.2717323,0.27429352,-0.36792316,-3.02278401,-30.38255178,-8.44212046,166.2611542,-0.6130537182,2.1711282616,-0.2119784177,-0.4984727438999999,0.2833718064999999,0.3509461039999999,0.0045
03:45:18,-0.702885875,2.283999125,0.257248,-0.2702887499999999,0.2686525,-0.3630705,-3.013474375,-30.38330625,-8.43862925,166.30823249999997,-0.6122034625,2.15565988,-0.20874498875,-0.49376782625,0.2774747187499999,0.3473770249999999,0.0045
03:45:18,-0.7032700199999999,2.26828138,0.2571058,-0.2688452,0.26301148,-0.35821784,-3.00416474,-30.38406072,-8.43513804,166.35531079999998,-0.6113532068,2.1401914984,-0.2055115598,-0.4890629085999999,0.2715776309999999,0.343807946,0.0045
03:45:18,-0.703654165,2.252563635,0.2569636,-0.26740165,0.25737046,-0.35336518,-2.994855105,-30.38481519,-8.43164683,166.4023891,-0.6105029511,2.1247231168000003,-0.20227813085,-0.48435799095,0.2656805432499999,0.3402388669999999,0.0045
03:45:18,-0.70403831,2.23684589,0.2568214,-0.2659581,0.25172944,-0.34851252,-2.98554547,-30.38556966,-8.42815562,166.44946739999995,-0.6096526954,2.1092547352,-0.1990447019,-0.4796530732999999,0.2597834554999999,0.3366697879999999,0.0045
03:45:18,-0.704422455,2.221128145,0.2566792,-0.26451455,0.24608842,-0.34365986,-2.976235835,-30.38632413,-8.42466441,166.49654569999998,-0.6088024397,2.0937863536,-0.19581127295,-0.47494815565,0.2538863677499999,0.3331007089999999,0.0045
03:45:18,-0.7048066,2.2054104,0.256537,-0.263071,0.2404474,-0.3388072,-2.9669262,-30.3870786,-8.4211732,166.543624,-0.6079521840000001,2.078317972,-0.192577844,-0.4702432379999999,0.2479892799999999,0.3295316299999999,0.0045
03:45:18,-0.705190745,2.189692655,0.2563948,-0.26162745,0.23480638,-0.33395454,-2.957616565,-30.38783307,-8.41768199,166.59070229999998,-0.6071019283,2.0628495904,-0.18934441505,-0.46553832035,0.2420921922499999,0.3259625509999999,0.0045
03:45:18,-0.70557489,2.17397491,0.2562526,-0.2601839,0.22916536,-0.32910188,-2.94830693,-30.38858754,-8.41419078,166.6377806,-0.6062516726,2.0473812088,-0.1861109861,-0.4608334026999999,0.2361951044999999,0.3223934719999999,0.0045
03:45:18,-0.705959035,2.158257165,0.2561104,-0.25874035,0.22352434,-0.32424922,-2.938997295,-30.38934201,-8.41069957,166.6848589,-0.6054014169,2.0319128272,-0.1828775571499999,-0.45612848505,0.2302980167499999,0.3188243929999999,0.0045
03:45:18,-0.70634318,2.1425394200000003,0.2559682,-0.2572968,0.21788332,-0.31939656,-2.92968766,-30.39009648,-8.40720836,166.73193719999998,-0.6045511612000001,2.0164444456,-0.1796441282,-0.4514235673999999,0.2244009289999999,0.3152553139999999,0.0045
03:45:18,-0.706727325,2.126821675,0.255826,-0.25585325,0.2122423,-0.3145439,-2.920378025,-30.39085095,-8.40371715,166.7790155,-0.6037009055,2.000976064,-0.17641069925,-0.44671864975,0.2185038412499998,0.3116862349999999,0.0045
03:45:18,-0.70711147,2.11110393,0.2556838,-0.2544096999999999,0.20660128,-0.30969124,-2.91106839,-30.39160542,-8.40022594,166.8260938,-0.6028506498,1.9855076824,-0.1731772703,-0.4420137320999999,0.2126067534999999,0.3081171559999999,0.0045
03:45:18,-0.707495615,2.095386185,0.2555416,-0.25296615,0.20096026,-0.30483858,-2.901758755,-30.39235989,-8.39673473,166.87317209999998,-0.6020003941000001,1.9700393008,-0.16994384135,-0.4373088144499999,0.2067096657499999,0.304548077,0.0045
03:45:18,-0.70787976,2.07966844,0.2553994,-0.2515226,0.19531924,-0.29998592,-2.89244912,-30.39311436,-8.39324352,166.9202504,-0.6011501384,1.9545709192,-0.1667104124,-0.4326038967999999,0.2008125779999999,0.3009789979999999,0.0045
03:45:18,-0.708263905,2.063950695,0.2552572,-0.2500790499999999,0.18967822,-0.29513326,-2.883139485,-30.39386883,-8.38975231,166.9673287,-0.6002998827,1.9391025376,-0.16347698345,-0.4278989791499999,0.1949154902499998,0.2974099189999999,0.0045
03:45:18,-0.70864805,2.04823295,0.255115,-0.2486354999999999,0.1840372,-0.2902806,-2.87382985,-30.3946233,-8.3862611,167.01440699999998,-0.599449627,1.923634156,-0.1602435545,-0.4231940614999999,0.1890184024999999,0.2938408399999999,0.0045
03:45:18,-0.709032195,2.032515205,0.2549728,-0.24719195,0.17839618,-0.28542794,-2.864520215,-30.39537777,-8.38276989,167.0614853,-0.5985993713,1.9081657744,-0.15701012555,-0.4184891438499999,0.1831213147499999,0.2902717609999999,0.0045
03:45:18,-0.70941634,2.0167974600000003,0.2548306,-0.2457483999999999,0.17275516,-0.28057528,-2.85521058,-30.39613224,-8.37927868,167.1085636,-0.5977491156,1.8926973928,-0.1537766965999999,-0.4137842261999999,0.1772242269999999,0.2867026819999999,0.0045
03:45:18,-0.709800485,2.001079715,0.2546884,-0.24430485,0.16711414,-0.27572262,-2.845900945,-30.39688671,-8.37578747,167.15564189999998,-0.5968988599,1.8772290112,-0.1505432676499999,-0.4090793085499999,0.1713271392499998,0.2831336029999999,0.0045
03:45:18,-0.71018463,1.98536197,0.2545462,-0.2428613,0.16147312,-0.27086996,-2.83659131,-30.39764118,-8.37229626,167.2027202,-0.5960486042,1.8617606296,-0.1473098387,-0.4043743908999999,0.1654300514999999,0.2795645239999999,0.0045
03:45:18,-0.710568775,1.969644225,0.254404,-0.24141775,0.1558321,-0.2660173,-2.827281675,-30.39839565,-8.36880505,167.2497985,-0.5951983485,1.846292248,-0.14407640975,-0.3996694732499999,0.1595329637499999,0.2759954449999999,0.0045
03:45:18,-0.71095292,1.95392648,0.2542618,-0.2399742,0.15019108,-0.26116464,-2.81797204,-30.39915012,-8.36531384,167.29687679999998,-0.5943480928,1.8308238664,-0.1408429808,-0.3949645556,0.1536358759999999,0.2724263659999999,0.0045
03:45:18,-0.711337065,1.938208735,0.2541196,-0.2385306499999999,0.14455006,-0.25631198,-2.808662405,-30.39990459,-8.36182263,167.3439551,-0.5934978371,1.8153554848,-0.13760955185,-0.3902596379499999,0.1477387882499999,0.2688572869999999,0.0045
03:45:18,-0.71172121,1.92249099,0.2539774,-0.2370871,0.13890904,-0.25145932,-2.79935277,-30.40065906,-8.35833142,167.3910334,-0.5926475814000001,1.7998871032,-0.1343761229,-0.3855547203,0.1418417004999999,0.2652882079999999,0.0045
03:45:18,-0.712105355,1.906773245,0.2538352,-0.2356435499999999,0.13326802,-0.2466066599999999,-2.790043135,-30.40141353,-8.35484021,167.43811169999998,-0.5917973257,1.7844187216,-0.13114269395,-0.3808498026499999,0.1359446127499999,0.2617191289999999,0.0045
03:45:18,-0.7124895,1.8910555,0.253693,-0.2342,0.127627,-0.241754,-2.7807335,-30.402168,-8.351348999999999,167.48519,-0.59094707,1.76895034,-0.127909265,-0.376144885,0.1300475249999999,0.2581500499999999,0.0045
03:45:18,-0.712873645,1.875337755,0.2535508,-0.23275645,0.12198598,-0.23690134,-2.771423865,-30.40292247,-8.347857789999999,167.5322683,-0.5900968143,1.7534819584,-0.1246758360499999,-0.3714399673499999,0.1241504372499999,0.2545809709999999,0.0045
03:45:18,-0.71325779,1.85962001,0.2534086,-0.2313129,0.11634496,-0.23204868,-2.76211423,-30.40367694,-8.344366579999999,167.57934659999998,-0.5892465586,1.7380135768,-0.1214424070999999,-0.3667350497,0.1182533494999998,0.2510118919999999,0.0045
03:45:18,-0.713641935,1.843902265,0.2532664,-0.22986935,0.11070394,-0.22719602,-2.752804595,-30.40443141,-8.34087537,167.6264249,-0.5883963029,1.7225451952,-0.1182089781499999,-0.3620301320499999,0.1123562617499999,0.2474428129999999,0.0045
03:45:18,-0.71402608,1.82818452,0.2531242,-0.2284257999999999,0.10506292,-0.22234336,-2.74349496,-30.40518588,-8.33738416,167.6735032,-0.5875460472,1.7070768136,-0.1149755492,-0.3573252144,0.1064591739999999,0.2438737339999999,0.0045
03:45:18,-0.714410225,1.812466775,0.252982,-0.22698225,0.0994219,-0.2174907,-2.734185325,-30.40594035,-8.33389295,167.72058149999998,-0.5866957915000001,1.691608432,-0.11174212025,-0.3526202967499999,0.1005620862499999,0.2403046549999999,0.0045
03:45:18,-0.71479437,1.79674903,0.2528398,-0.2255386999999999,0.09378088,-0.2126380399999999,-2.72487569,-30.40669482,-8.33040174,167.7676598,-0.5858455358,1.6761400504,-0.1085086913,-0.3479153791,0.0946649984999998,0.2367355759999999,0.0045
03:45:18,-0.715178515,1.781031285,0.2526976,-0.22409515,0.08813986,-0.20778538,-2.715566055,-30.40744929,-8.32691053,167.8147381,-0.5849952801,1.6606716687999998,-0.10527526235,-0.34321046145,0.0887679107499999,0.2331664969999999,0.0045
03:45:18,-0.71556266,1.76531354,0.2525554,-0.2226516,0.08249884,-0.2029327199999999,-2.70625642,-30.40820376,-8.32341932,167.86181639999998,-0.5841450244,1.6452032872,-0.1020418334,-0.3385055438,0.0828708229999999,0.2295974179999999,0.0045
03:45:18,-0.715946805,1.749595795,0.2524132,-0.22120805,0.07685782,-0.19808006,-2.696946785,-30.40895823,-8.31992811,167.9088947,-0.5832947687000001,1.6297349056,-0.09880840445,-0.3338006261499999,0.0769737352499999,0.2260283389999999,0.0045
03:45:18,-0.71633095,1.73387805,0.252271,-0.2197645,0.0712168,-0.1932274,-2.68763715,-30.4097127,-8.3164369,167.955973,-0.582444513,1.614266524,-0.0955749754999999,-0.3290957084999999,0.0710766474999998,0.2224592599999999,0.0045
03:45:18,-0.716715095,1.718160305,0.2521288,-0.2183209499999999,0.06557578,-0.1883747399999999,-2.6783275150000003,-30.41046717,-8.31294569,168.00305129999998,-0.5815942573,1.5987981424,-0.0923415465499999,-0.32439079085,0.0651795597499999,0.2188901809999999,0.0045
03:45:18,-0.71709924,1.7024425600000002,0.2519866,-0.2168774,0.0599347599999999,-0.18352208,-2.66901788,-30.41122164,-8.30945448,168.0501296,-0.5807440016000001,1.5833297608,-0.0891081175999999,-0.3196858731999999,0.0592824719999999,0.2153211019999999,0.0045
03:45:18,-0.717483385,1.686724815,0.2518444,-0.2154338499999999,0.0542937399999999,-0.1786694199999999,-2.659708245,-30.41197611,-8.30596327,168.0972079,-0.5798937459,1.5678613792,-0.0858746886499999,-0.3149809555499999,0.0533853842499999,0.2117520229999999,0.0045
03:45:18,-0.71786753,1.67100707,0.2517022,-0.2139903,0.0486527199999999,-0.17381676,-2.65039861,-30.41273058,-8.30247206,168.14428619999998,-0.5790434902,1.5523929976,-0.0826412597,-0.3102760378999999,0.0474882964999998,0.2081829439999999,0.0045
03:45:18,-0.718251675,1.655289325,0.25156,-0.21254675,0.0430116999999999,-0.1689640999999999,-2.641088975,-30.41348505,-8.29898085,168.1913645,-0.5781932345,1.536924616,-0.07940783075,-0.30557112025,0.0415912087499998,0.2046138649999999,0.0045
03:45:18,-0.71863582,1.63957158,0.2514178,-0.2111032,0.0373706799999999,-0.16411144,-2.63177934,-30.41423952,-8.29548964,168.2384428,-0.5773429788,1.5214562344,-0.0761744018,-0.3008662025999999,0.0356941209999999,0.2010447859999999,0.0045
03:45:18,-0.719019965,1.623853835,0.2512756,-0.20965965,0.0317296599999999,-0.15925878,-2.6224697050000003,-30.41499399,-8.29199843,168.28552109999998,-0.5764927231,1.5059878528,-0.07294097285,-0.2961612849499999,0.0297970332499999,0.1974757069999999,0.0045
03:45:18,-0.71940411,1.60813609,0.2511334,-0.2082161,0.0260886399999999,-0.1544061199999999,-2.61316007,-30.41574846,-8.28850722,168.3325994,-0.5756424674,1.4905194711999998,-0.0697075439,-0.2914563672999999,0.0238999454999998,0.1939066279999999,0.0045
03:45:18,-0.719788255,1.592418345,0.2509912,-0.20677255,0.02044762,-0.14955346,-2.603850435,-30.41650293,-8.28501601,168.3796777,-0.5747922117,1.4750510896,-0.06647411495,-0.28675144965,0.0180028577499998,0.1903375489999999,0.0045
03:45:18,-0.7201724,1.5767006,0.250849,-0.2053289999999999,0.0148066,-0.1447007999999999,-2.5945408,-30.4172574,-8.2815248,168.42675599999998,-0.573941956,1.459582708,-0.0632406859999999,-0.2820465319999999,0.0121057699999999,0.1867684699999999,0.0045
03:45:18,-0.720556545,1.560982855,0.2507068,-0.20388545,0.00916558,-0.13984814,-2.585231165,-30.41801187,-8.27803359,168.4738343,-0.5730917003,1.4441143263999998,-0.0600072570499999,-0.2773416143499999,0.0062086822499999,0.1831993909999999,0.0045
03:45:18,-0.72094069,1.54526511,0.2505646,-0.2024419,0.00352456,-0.13499548,-2.57592153,-30.41876634,-8.27454238,168.52091259999997,-0.5722414446,1.4286459448,-0.0567738280999999,-0.2726366966999999,0.0003115944999998,0.1796303119999999,0.0045
03:45:18,-0.721324835,1.529547365,0.2504224,-0.20099835,-0.0021164599999999,-0.13014282,-2.5666118950000003,-30.41952081,-8.27105117,168.56799089999998,-0.5713911889000001,1.4131775632,-0.0535403991499999,-0.26793177905,-0.0055854932500001,0.1760612329999999,0.0045
03:45:18,-0.72170898,1.51382962,0.2502802,-0.1995548,-0.0077574799999999,-0.12529016,-2.55730226,-30.42027528,-8.26755996,168.6150692,-0.5705409332,1.3977091816,-0.0503069702,-0.2632268613999999,-0.0114825810000001,0.1724921539999999,0.0045
03:45:18,-0.722093125,1.498111875,0.2501379999999999,-0.19811125,-0.0133984999999999,-0.1204374999999999,-2.547992625,-30.42102975,-8.26406875,168.6621475,-0.5696906775,1.3822408,-0.04707354125,-0.2585219437499999,-0.01737966875,0.1689230749999999,0.0045
03:45:18,-0.72247727,1.48239413,0.2499958,-0.1966677,-0.0190395199999999,-0.11558484,-2.53868299,-30.42178422,-8.26057754,168.70922579999998,-0.5688404218,1.3667724184,-0.0438401123,-0.2538170260999999,-0.0232767565000001,0.1653539959999999,0.0045
03:45:18,-0.722861415,1.466676385,0.2498536,-0.1952241499999999,-0.0246805399999999,-0.1107321799999999,-2.529373355,-30.42253869,-8.25708633,168.7563041,-0.5679901661,1.3513040368,-0.04060668335,-0.2491121084499999,-0.0291738442500001,0.1617849169999999,0.0045
03:45:18,-0.72324556,1.45095864,0.2497114,-0.1937806,-0.0303215599999999,-0.10587952,-2.52006372,-30.42329316,-8.25359512,168.80338239999998,-0.5671399104,1.3358356552,-0.0373732544,-0.2444071907999999,-0.0350709320000001,0.1582158379999999,0.0045
03:45:18,-0.723629705,1.4352408950000002,0.2495692,-0.19233705,-0.0359625799999999,-0.10102686,-2.5107540850000003,-30.42404763,-8.25010391,168.8504607,-0.5662896547,1.3203672735999998,-0.0341398254499999,-0.2397022731499999,-0.04096801975,0.1546467589999999,0.0045
03:45:18,-0.72401385,1.4195231500000005,0.249427,-0.1908935,-0.0416035999999999,-0.0961741999999999,-2.50144445,-30.4248021,-8.2466127,168.897539,-0.5654393990000001,1.3048988919999998,-0.0309063964999999,-0.2349973555,-0.0468651075,0.1510776799999999,0.0045
03:45:18,-0.724397995,1.403805405,0.2492848,-0.18944995,-0.0472446199999999,-0.09132154,-2.492134815,-30.42555657,-8.24312149,168.94461729999998,-0.5645891433,1.2894305104,-0.0276729675499999,-0.2302924378499999,-0.0527621952500001,0.1475086009999999,0.0045
03:45:18,-0.72478214,1.38808766,0.2491426,-0.1880064,-0.0528856399999999,-0.0864688799999999,-2.48282518,-30.42631104,-8.23963028,168.9916956,-0.5637388876,1.2739621288,-0.0244395385999999,-0.2255875201999999,-0.0586592830000001,0.1439395219999999,0.0045
03:45:18,-0.725166285,1.3723699150000002,0.2490004,-0.18656285,-0.0585266599999999,-0.08161622,-2.473515545,-30.42706551,-8.23613907,169.0387739,-0.5628886319,1.2584937471999995,-0.02120610965,-0.2208826025499999,-0.06455637075,0.1403704429999999,0.0045
03:45:18,-0.72555043,1.3566521700000005,0.2488582,-0.1851193,-0.0641676799999999,-0.0767635599999999,-2.46420591,-30.42781998,-8.23264786,169.08585219999998,-0.5620383762000001,1.2430253656,-0.0179726807,-0.2161776849,-0.0704534585,0.1368013639999999,0.0045
03:45:18,-0.725934575,1.340934425,0.248716,-0.18367575,-0.0698086999999999,-0.0719109,-2.4548962750000003,-30.42857445,-8.22915665,169.1329305,-0.5611881205,1.227556984,-0.01473925175,-0.2114727672499999,-0.0763505462500001,0.1332322849999999,0.0045
03:45:18,-0.72631872,1.32521668,0.2485738,-0.1822322,-0.0754497199999999,-0.06705824,-2.44558664,-30.42932892,-8.22566544,169.1800088,-0.5603378648,1.2120886023999995,-0.0115058228,-0.2067678495999999,-0.0822476340000001,0.1296632059999999,0.0045
03:45:18,-0.726702865,1.309498935,0.2484316,-0.18078865,-0.0810907399999999,-0.0622055799999999,-2.436277005,-30.43008339,-8.22217423,169.22708709999998,-0.5594876091000001,1.1966202208,-0.00827239385,-0.2020629319499999,-0.0881447217500001,0.1260941269999999,0.0045
03:45:18,-0.72708701,1.2937811900000002,0.2482894,-0.1793451,-0.0867317599999999,-0.05735292,-2.42696737,-30.43083786,-8.21868302,169.2741654,-0.5586373534,1.1811518392,-0.0050389648999999,-0.1973580143,-0.0940418095,0.1225250479999999,0.0045
03:45:18,-0.727471155,1.278063445,0.2481472,-0.17790155,-0.0923727799999999,-0.0525002599999999,-2.417657735,-30.43159233,-8.21519181,169.3212437,-0.5577870977,1.1656834575999997,-0.0018055359499999,-0.1926530966499999,-0.0999388972500001,0.1189559689999999,0.0045
03:45:18,-0.7278553,1.2623457,0.248005,-0.176458,-0.0980137999999999,-0.0476476,-2.4083481,-30.4323468,-8.2117006,169.36832199999998,-0.556936842,1.1502150759999998,0.001427893,-0.1879481789999999,-0.1058359850000001,0.1153868899999999,0.0045
03:45:18,-0.728239445,1.246627955,0.2478628,-0.17501445,-0.1036548199999999,-0.04279494,-2.3990384650000003,-30.43310127,-8.20820939,169.4154003,-0.5560865863,1.1347466944,0.00466132195,-0.1832432613499999,-0.1117330727500001,0.1118178109999999,0.0045
03:45:18,-0.72862359,1.2309102100000002,0.2477206,-0.1735709,-0.1092958399999999,-0.0379422799999999,-2.38972883,-30.43385574,-8.20471818,169.4624786,-0.5552363306,1.1192783128,0.0078947509,-0.1785383437,-0.1176301605,0.1082487319999999,0.0045
03:45:18,-0.729007735,1.215192465,0.2475784,-0.17212735,-0.1149368599999999,-0.03308962,-2.380419195,-30.43461021,-8.20122697,169.50955689999998,-0.5543860749,1.1038099311999998,0.0111281798499999,-0.1738334260499999,-0.1235272482500001,0.1046796529999999,0.0045
03:45:18,-0.72939188,1.19947472,0.2474362,-0.1706838,-0.1205778799999999,-0.0282369599999999,-2.37110956,-30.43536468,-8.19773576,169.5566352,-0.5535358192000001,1.0883415496,0.0143616087999999,-0.1691285083999999,-0.1294243360000001,0.1011105739999999,0.0045
03:45:18,-0.729776025,1.183756975,0.247294,-0.16924025,-0.1262189,-0.0233843,-2.361799925,-30.43611915,-8.19424455,169.6037135,-0.5526855635,1.072873168,0.0175950377499999,-0.1644235907499999,-0.1353214237500001,0.0975414949999999,0.0045
03:45:18,-0.73016017,1.1680392300000002,0.2471518,-0.1677967,-0.13185992,-0.0185316399999999,-2.35249029,-30.43687362,-8.19075334,169.65079179999998,-0.5518353078,1.0574047863999998,0.0208284666999999,-0.1597186730999999,-0.1412185115000001,0.0939724159999999,0.0045
03:45:18,-0.730544315,1.1523214850000003,0.2470096,-0.16635315,-0.13750094,-0.01367898,-2.3431806550000003,-30.43762809,-8.18726213,169.6978701,-0.5509850521,1.0419364048,0.0240618956499999,-0.1550137554499999,-0.1471155992500001,0.0904033369999999,0.0045
03:45:18,-0.73092846,1.13660374,0.2468674,-0.1649096,-0.14314196,-0.00882632,-2.33387102,-30.43838256,-8.18377092,169.7449484,-0.5501347964000001,1.0264680232,0.0272953246,-0.1503088377999999,-0.1530126870000001,0.0868342579999998,0.0045
03:45:18,-0.7313126050000001,1.120885995,0.2467252,-0.16346605,-0.14878298,-0.0039736599999999,-2.324561385,-30.43913703,-8.18027971,169.79202669999998,-0.5492845407,1.0109996415999998,0.03052875355,-0.1456039201499999,-0.1589097747500001,0.0832651789999999,0.0045
03:45:18,-0.73169675,1.1051682500000002,0.246583,-0.1620225,-0.154424,0.0008789999999999,-2.31525175,-30.4398915,-8.1767885,169.839105,-0.548434285,0.99553126,0.0337621825,-0.1408990024999999,-0.1648068625000001,0.0796960999999999,0.0045
03:45:18,-0.732080895,1.0894505050000003,0.2464408,-0.16057895,-0.16006502,0.00573166,-2.305942115,-30.44064597,-8.17329729,169.8861833,-0.5475840293,0.9800628784,0.03699561145,-0.1361940848499999,-0.1707039502500001,0.0761270209999999,0.0045
03:45:18,-0.73246504,1.07373276,0.2462986,-0.1591354,-0.16570604,0.0105843199999999,-2.29663248,-30.44140044,-8.16980608,169.93326159999998,-0.5467337736,0.9645944967999998,0.0402290404,-0.1314891671999999,-0.1766010380000001,0.0725579419999999,0.0045
03:45:18,-0.732849185,1.058015015,0.2461564,-0.15769185,-0.17134706,0.01543698,-2.2873228450000003,-30.44215491,-8.16631487,169.9803399,-0.5458835179,0.9491261152,0.0434624693499999,-0.1267842495499999,-0.1824981257500001,0.0689888629999999,0.0045
03:45:18,-0.73323333,1.0422972700000002,0.2460142,-0.1562483,-0.17698808,0.0202896399999999,-2.27801321,-30.44290938,-8.16282366,170.0274182,-0.5450332622,0.9336577336,0.0466958982999999,-0.1220793318999999,-0.1883952135000001,0.0654197839999999,0.0045
03:45:18,-0.733617475,1.0265795250000005,0.245872,-0.15480475,-0.1826291,0.0251422999999999,-2.268703575,-30.44366385,-8.15933245,170.07449649999998,-0.5441830065,0.9181893519999996,0.0499293272499999,-0.1173744142499999,-0.1942923012500002,0.0618507049999998,0.0045
03:45:18,-0.73400162,1.01086178,0.2457298,-0.1533612,-0.1882701199999999,0.02999496,-2.25939394,-30.44441832,-8.15584124,170.1215748,-0.5433327508,0.9027209704,0.0531627561999999,-0.1126694965999999,-0.2001893890000001,0.0582816259999999,0.0045
03:45:18,-0.734385765,0.995144035,0.2455876,-0.15191765,-0.1939111399999999,0.0348476199999999,-2.250084305,-30.44517279,-8.152350030000001,170.1686531,-0.5424824951,0.8872525888,0.05639618515,-0.1079645789499998,-0.2060864767500001,0.0547125469999999,0.0045
03:45:18,-0.73476991,0.97942629,0.2454454,-0.1504741,-0.1995521599999999,0.03970028,-2.24077467,-30.44592726,-8.148858820000001,170.21573139999998,-0.5416322394,0.8717842071999997,0.0596296141,-0.1032596612999999,-0.2119835645000001,0.0511434679999999,0.0045
03:45:18,-0.735154055,0.9637085450000002,0.2453032,-0.14903055,-0.2051931799999999,0.0445529399999999,-2.2314650350000003,-30.44668173,-8.145367610000001,170.2628097,-0.5407819837000001,0.8563158255999999,0.06286304305,-0.0985547436499999,-0.2178806522500002,0.0475743889999998,0.0045
03:45:18,-0.7355382,0.9479908,0.245161,-0.147587,-0.2108341999999999,0.0494056,-2.2221554,-30.4474362,-8.141876400000001,170.309888,-0.539931728,0.840847444,0.066096472,-0.0938498259999999,-0.2237777400000001,0.0440053099999999,0.0045
03:45:18,-0.735922345,0.932273055,0.2450188,-0.14614345,-0.2164752199999999,0.05425826,-2.212845765,-30.44819067,-8.138385190000001,170.35696629999998,-0.5390814723,0.8253790623999997,0.06932990095,-0.08914490835,-0.2296748277500001,0.0404362309999999,0.0045
03:45:18,-0.73630649,0.91655531,0.2448766,-0.1446999,-0.2221162399999999,0.0591109199999999,-2.20353613,-30.44894514,-8.134893980000001,170.4040446,-0.5382312166000001,0.8099106807999998,0.0725633299,-0.0844399906999999,-0.2355719155000001,0.0368671519999999,0.0045
03:45:18,-0.736690635,0.9008375650000002,0.2447344,-0.14325635,-0.2277572599999999,0.06396358,-2.194226495,-30.44969961,-8.131402770000001,170.4511229,-0.5373809609,0.7944422992,0.07579675885,-0.0797350730499999,-0.2414690032500001,0.0332980729999999,0.0045
03:45:18,-0.73707478,0.8851198200000003,0.2445921999999999,-0.1418128,-0.2333982799999999,0.0688162399999999,-2.18491686,-30.45045408,-8.127911560000001,170.49820119999998,-0.5365307052,0.7789739175999997,0.0790301878,-0.0750301553999999,-0.2473660910000001,0.0297289939999999,0.0045
03:45:18,-0.737458925,0.869402075,0.24445,-0.14036925,-0.2390392999999999,0.0736689,-2.1756072250000003,-30.45120855,-8.124420350000001,170.5452795,-0.5356804495,0.7635055359999998,0.08226361675,-0.0703252377499999,-0.2532631787500001,0.0261599149999999,0.0045
03:45:18,-0.73784307,0.8536843300000001,0.2443078,-0.1389257,-0.2446803199999999,0.0785215599999999,-2.16629759,-30.45196302,-8.120929140000001,170.5923578,-0.5348301938,0.7480371544,0.0854970457,-0.0656203200999999,-0.2591602665000001,0.0225908359999998,0.0045
03:45:18,-0.738227215,0.8379665850000002,0.2441655999999999,-0.13748215,-0.2503213399999999,0.0833742199999999,-2.156987955,-30.45271749,-8.117437930000001,170.63943609999998,-0.5339799381,0.7325687728000001,0.08873047465,-0.0609154024499999,-0.2650573542500001,0.0190217569999999,0.0045
03:45:18,-0.73861136,0.8222488400000003,0.2440234,-0.1360386,-0.2559623599999999,0.08822688,-2.14767832,-30.45347196,-8.113946720000001,170.6865144,-0.5331296824,0.7171003911999998,0.0919639035999999,-0.0562104847999999,-0.2709544420000002,0.0154526779999999,0.0045
03:45:18,-0.738995505,0.806531095,0.2438812,-0.13459505,-0.2616033799999999,0.0930795399999999,-2.138368685,-30.45422643,-8.110455510000001,170.7335927,-0.5322794267000001,0.7016320095999999,0.0951973325499999,-0.0515055671499999,-0.2768515297500001,0.0118835989999999,0.0045
03:45:18,-0.73937965,0.7908133500000001,0.2437389999999999,-0.1331515,-0.2672443999999999,0.0979322,-2.12905905,-30.4549809,-8.1069643,170.78067099999998,-0.531429171,0.6861636280000001,0.0984307614999999,-0.0468006494999999,-0.2827486175000002,0.0083145199999998,0.0045
03:45:18,-0.739763795,0.7750956050000002,0.2435968,-0.13170795,-0.2728854199999999,0.1027848599999999,-2.119749415,-30.45573537,-8.10347309,170.8277493,-0.5305789153,0.6706952463999998,0.1016641904499999,-0.0420957318499999,-0.2886457052500002,0.0047454409999999,0.0045
03:45:18,-0.74014794,0.7593778600000003,0.2434546,-0.1302644,-0.2785264399999999,0.10763752,-2.11043978,-30.45648984,-8.09998188,170.8748276,-0.5297286596,0.6552268647999999,0.1048976193999999,-0.0373908141999999,-0.2945427930000002,0.0011763619999999,0.0045
03:45:18,-0.740532085,0.743660115,0.2433123999999999,-0.12882085,-0.2841674599999999,0.11249018,-2.101130145,-30.45724431,-8.09649067,170.92190589999998,-0.5288784039000001,0.6397584832000001,0.1081310483499999,-0.0326858965499999,-0.3004398807500001,-0.002392717,0.0045
03:45:18,-0.7409162300000001,0.7279423700000001,0.2431702,-0.1273773,-0.2898084799999999,0.1173428399999999,-2.09182051,-30.45799878,-8.09299946,170.9689842,-0.5280281482,0.6242901015999998,0.1113644772999999,-0.0279809788999999,-0.3063369685000001,-0.005961796,0.0045
03:45:18,-0.741300375,0.7122246250000002,0.243028,-0.12593375,-0.2954494999999999,0.1221955,-2.082510875,-30.45875325,-8.08950825,171.01606249999998,-0.5271778925,0.6088217199999999,0.1145979062499999,-0.0232760612499999,-0.3122340562500001,-0.009530875,0.0045
03:45:18,-0.74168452,0.6965068800000003,0.2428857999999999,-0.1244902,-0.30109052,0.1270481599999999,-2.07320124,-30.45950772,-8.08601704,171.0631408,-0.5263276368,0.5933533384,0.1178313352,-0.0185711435999998,-0.3181311440000001,-0.013099954,0.0045
03:45:18,-0.742068665,0.6807891350000004,0.2427436,-0.1230466499999999,-0.30673154,0.13190082,-2.063891605,-30.46026219,-8.08252583,171.1102191,-0.5254773811,0.5778849567999997,0.12106476415,-0.0138662259499999,-0.32402823175,-0.0166690330000001,0.0045
03:45:18,-0.74245281,0.66507139,0.2426014,-0.1216031,-0.31237256,0.1367534799999999,-2.05458197,-30.46101666,-8.07903462,171.15729739999998,-0.5246271254,0.5624165751999999,0.1242981931,-0.0091613082999999,-0.3299253195000002,-0.020238112,0.0045
03:45:18,-0.742836955,0.6493536450000001,0.2424591999999999,-0.12015955,-0.3180135799999999,0.14160614,-2.045272335,-30.46177113,-8.07554341,171.2043757,-0.5237768697,0.5469481936,0.12753162205,-0.0044563906499999,-0.3358224072500002,-0.023807191,0.0045
03:45:18,-0.7432211,0.6336359000000003,0.242317,-0.1187159999999999,-0.3236546,0.1464588,-2.0359627,-30.4625256,-8.0720522,171.251454,-0.522926614,0.5314798119999997,0.130765051,0.0002485270000001,-0.3417194950000002,-0.02737627,0.0045
03:45:18,-0.743605245,0.6179181550000004,0.2421748,-0.11727245,-0.3292956199999999,0.1513114599999999,-2.026653065,-30.46328007,-8.06856099,171.29853229999998,-0.5220763583,0.5160114303999999,0.13399847995,0.00495344465,-0.3476165827500002,-0.0309453490000001,0.0045
03:45:18,-0.74398939,0.60220041,0.2420326,-0.1158289,-0.33493664,0.15616412,-2.01734343,-30.46403454,-8.06506978,171.3456106,-0.5212261026,0.5005430488,0.1372319089,0.0096583623,-0.3535136705000001,-0.034514428,0.0045
03:45:18,-0.744373535,0.5864826650000001,0.2418904,-0.11438535,-0.3405776599999999,0.1610167799999999,-2.008033795,-30.46478901,-8.06157857,171.3926889,-0.5203758469,0.4850746671999997,0.14046533785,0.01436327995,-0.3594107582500001,-0.038083507,0.0045
03:45:18,-0.74475768,0.5707649200000002,0.2417482,-0.1129417999999999,-0.34621868,0.16586944,-1.99872416,-30.46554348,-8.05808736,171.43976719999998,-0.5195255912000001,0.4696062855999998,0.1436987668,0.0190681976000001,-0.3653078460000001,-0.0416525860000001,0.0045
03:45:18,-0.745141825,0.5550471750000003,0.241606,-0.11149825,-0.3518596999999999,0.1707221,-1.989414525,-30.46629795,-8.05459615,171.4868455,-0.5186753355,0.454137904,0.14693219575,0.02377311525,-0.3712049337500001,-0.045221665,0.0045
03:45:18,-0.74552597,0.53932943,0.2414638,-0.1100547,-0.35750072,0.1755747599999999,-1.98010489,-30.46705242,-8.05110494,171.5339238,-0.5178250798,0.4386695223999997,0.1501656247,0.0284780329,-0.3771020215000003,-0.048790744,0.0045
03:45:18,-0.745910115,0.5236116850000001,0.2413216,-0.1086111499999999,-0.3631417399999999,0.18042742,-1.970795255,-30.46780689,-8.04761373,171.58100209999998,-0.5169748241000001,0.4232011407999998,0.15339905365,0.03318295055,-0.3829991092500002,-0.052359823,0.0045
03:45:18,-0.74629426,0.5078939400000002,0.2411794,-0.1071676,-0.36878276,0.1852800799999999,-1.96148562,-30.46856136,-8.04412252,171.6280804,-0.5161245684,0.4077327591999999,0.1566324825999999,0.0378878682000001,-0.3888961970000002,-0.0559289020000001,0.0045
03:45:18,-0.746678405,0.4921761950000003,0.2410372,-0.10572405,-0.3744237799999999,0.19013274,-1.952175985,-30.46931583,-8.04063131,171.6751587,-0.5152743127,0.3922643775999996,0.1598659115499999,0.04259278585,-0.3947932847500002,-0.059497981,0.0045
03:45:18,-0.74706255,0.47645845,0.240895,-0.1042805,-0.3800648,0.1949853999999999,-1.94286635,-30.4700703,-8.0371401,171.72223699999998,-0.514424057,0.3767959959999998,0.1630993404999999,0.0472977035,-0.4006903725000001,-0.06306706,0.0045
03:45:18,-0.747446695,0.4607407050000001,0.2407528,-0.1028369499999999,-0.3857058199999998,0.19983806,-1.933556715,-30.47082477,-8.03364889,171.7693153,-0.5135738013,0.3613276143999999,0.1663327694499999,0.05200262115,-0.4065874602500001,-0.0666361390000001,0.0045
03:45:18,-0.74783084,0.4450229600000002,0.2406106,-0.1013934,-0.39134684,0.20469072,-1.92424708,-30.47157924,-8.03015768,171.8163936,-0.5127235456,0.3458592327999996,0.1695661983999999,0.0567075388,-0.4124845480000001,-0.0702052180000001,0.0045
03:45:18,-0.748214985,0.4293052150000003,0.2404684,-0.09994985,-0.3969878600000001,0.2095433799999999,-1.914937445,-30.47233371,-8.02666647,171.86347189999998,-0.5118732899,0.3303908511999998,0.1727996273499999,0.06141245645,-0.4183816357500001,-0.073774297,0.0045
03:45:18,-0.74859913,0.4135874700000004,0.2403262,-0.0985062999999999,-0.4026288799999999,0.21439604,-1.90562781,-30.47308818,-8.02317526,171.9105502,-0.5110230342000001,0.3149224695999999,0.1760330563,0.0661173741,-0.4242787235,-0.077343376,0.0045
03:45:18,-0.7489832750000001,0.397869725,0.240184,-0.09706275,-0.4082699000000001,0.2192486999999999,-1.896318175,-30.47384265,-8.01968405,171.9576285,-0.5101727785,0.299454088,0.17926648525,0.0708222917500001,-0.4301758112500002,-0.0809124550000001,0.0045
03:45:18,-0.74936742,0.3821519800000001,0.2400418,-0.0956192,-0.4139109199999999,0.22410136,-1.88700854,-30.47459712,-8.01619284,172.00470679999998,-0.5093225228,0.2839857063999997,0.1824999142,0.0755272094,-0.4360728990000002,-0.084481534,0.0045
03:45:18,-0.749751565,0.3664342350000003,0.2398996,-0.09417565,-0.41955194,0.2289540199999999,-1.877698905,-30.47535159,-8.01270163,172.0517851,-0.5084722671,0.2685173247999999,0.18573334315,0.08023212705,-0.4419699867500002,-0.088050613,0.0045
03:45:18,-0.75013571,0.3507164900000004,0.2397573999999999,-0.0927320999999999,-0.4251929599999999,0.23380668,-1.86838927,-30.47610606,-8.00921042,172.0988634,-0.5076220114000001,0.2530489432,0.1889667721,0.0849370447,-0.4478670745000002,-0.091619692,0.0045
03:45:18,-0.7505198550000001,0.334998745,0.2396152,-0.09128855,-0.43083398,0.23865934,-1.859079635,-30.47686053,-8.00571921,172.14594169999998,-0.5067717557,0.2375805615999997,0.19220020105,0.0896419623500001,-0.4537641622500001,-0.0951887710000001,0.0045
03:45:19,-0.750904,0.319281,0.239473,-0.089845,-0.436475,0.243512,-1.84977,-30.477615,-8.002228,172.19302,-0.5059215,0.22211218,0.19543363,0.09434688,-0.45966125,-0.09875785,0.0045
03:45:19,-0.750349535,0.323466685,0.253775995,-0.0916880549999999,-0.432053805,0.24372507,-1.84853804,-30.48484824,-7.980978115000001,172.20954725,-0.4986511845,0.2255288973499999,0.18238901985,0.0924941795999999,-0.45544777635,-0.0984773640999999,0.0045
03:45:19,-0.74979507,0.3276523699999999,0.26807899,-0.09353111,-0.42763261,0.24393814,-1.84730608,-30.49208148,-7.95972823,172.22607449999998,-0.491380869,0.2289456147,0.1693444097,0.0906414792,-0.4512343027,-0.0981968781999999,0.0045
03:45:19,-0.749240605,0.3318380549999999,0.282381985,-0.095374165,-0.423211415,0.24415121,-1.84607412,-30.49931472,-7.938478345000001,172.24260174999998,-0.4841105535,0.2323623320499999,0.15629979955,0.0887887788,-0.44702082905,-0.0979163922999999,0.0045
03:45:19,-0.74868614,0.3360237399999999,0.29668498,-0.09721722,-0.41879022,0.24436428,-1.84484216,-30.50654796,-7.91722846,172.259129,-0.476840238,0.2357790494,0.1432551893999999,0.0869360783999999,-0.4428073554,-0.0976359064,0.0045
03:45:19,-0.748131675,0.3402094249999999,0.3109879749999999,-0.0990602749999999,-0.414369025,0.24457735,-1.8436102,-30.5137812,-7.895978575000001,172.27565625,-0.4695699225,0.2391957667499999,0.13021057925,0.0850833779999999,-0.43859388175,-0.0973554205,0.0045
03:45:19,-0.74757721,0.34439511,0.32529097,-0.10090333,-0.40994783,0.24479042,-1.84237824,-30.52101444,-7.87472869,172.2921835,-0.462299607,0.2426124841,0.1171659690999999,0.0832306776,-0.4343804081,-0.0970749346,0.0045
03:45:19,-0.747022745,0.348580795,0.339593965,-0.102746385,-0.405526635,0.24500349,-1.84114628,-30.52824768,-7.853478805000001,172.30871075,-0.4550292915,0.2460292014499999,0.1041213589499999,0.0813779771999999,-0.43016693445,-0.0967944487,0.0045
03:45:19,-0.74646828,0.35276648,0.35389696,-0.1045894399999999,-0.40110544,0.24521656,-1.83991432,-30.53548092,-7.83222892,172.32523799999998,-0.447758976,0.2494459188,0.0910767488,0.0795252767999999,-0.4259534608,-0.0965139627999999,0.0045
03:45:19,-0.745913815,0.356952165,0.368199955,-0.1064324949999999,-0.396684245,0.24542963,-1.83868236,-30.54271416,-7.810979035000001,172.34176524999998,-0.4404886605,0.25286263615,0.07803213865,0.0776725764,-0.42173998715,-0.0962334768999999,0.0045
03:45:19,-0.74535935,0.36113785,0.38250295,-0.10827555,-0.39226305,0.2456427,-1.8374504,-30.5499474,-7.78972915,172.3582925,-0.433218345,0.2562793535,0.0649875285,0.075819876,-0.4175265135,-0.0959529909999999,0.0045
03:45:19,-0.744804885,0.365323535,0.396805945,-0.110118605,-0.387841855,0.24585577,-1.83621844,-30.55718064,-7.768479265000001,172.37481975,-0.4259480295,0.25969607085,0.05194291835,0.0739671755999999,-0.41331303985,-0.0956725051,0.0045
03:45:19,-0.74425042,0.3695092199999999,0.41110894,-0.1119616599999999,-0.3834206599999999,0.24606884,-1.83498648,-30.56441388,-7.74722938,172.391347,-0.418677714,0.2631127882,0.0388983081999999,0.0721144752,-0.4090995662,-0.0953920192,0.0045
03:45:19,-0.743695955,0.3736949049999999,0.4254119349999999,-0.113804715,-0.378999465,0.24628191,-1.83375452,-30.57164712,-7.725979495000001,172.40787425,-0.4114073985,0.26652950555,0.0258536980499999,0.0702617748,-0.40488609255,-0.0951115333,0.0045
03:45:19,-0.74314149,0.3778805899999999,0.43971493,-0.11564777,-0.37457827,0.24649498,-1.83252256,-30.57888036,-7.70472961,172.4244015,-0.404137083,0.2699462229,0.0128090878999999,0.0684090743999999,-0.4006726189,-0.0948310474,0.0045
03:45:19,-0.7425870250000001,0.382066275,0.454017925,-0.117490825,-0.370157075,0.24670805,-1.8312906,-30.5861136,-7.683479725000001,172.44092874999998,-0.3968667675,0.2733629402499999,-0.00023552225,0.0665563739999999,-0.39645914525,-0.0945505614999999,0.0045
03:45:19,-0.7420325600000001,0.3862519599999999,0.46832092,-0.1193338799999999,-0.36573588,0.24692112,-1.83005864,-30.59334684,-7.66222984,172.45745599999998,-0.389596452,0.2767796576,-0.0132801324,0.0647036735999999,-0.3922456716,-0.0942700755999999,0.0045
03:45:19,-0.7414780950000001,0.390437645,0.482623915,-0.1211769349999999,-0.3613146849999999,0.24713419,-1.82882668,-30.60058008,-7.640979955000001,172.47398325,-0.3823261365,0.28019637495,-0.02632474255,0.0628509732,-0.38803219795,-0.0939895896999999,0.0045
03:45:19,-0.74092363,0.39462333,0.49692691,-0.12301999,-0.35689349,0.24734726,-1.82759472,-30.60781332,-7.61973007,172.4905105,-0.375055821,0.2836130923,-0.0393693527,0.0609982727999999,-0.3838187243,-0.0937091038,0.0045
03:45:19,-0.740369165,0.398809015,0.511229905,-0.1248630449999999,-0.352472295,0.24756033,-1.82636276,-30.61504656,-7.598480185,172.50703775,-0.3677855055,0.2870298096499999,-0.0524139628499999,0.0591455723999999,-0.37960525065,-0.0934286179,0.0045
03:45:19,-0.7398147,0.4029947,0.5255329,-0.1267061,-0.3480511,0.2477734,-1.8251308,-30.6222798,-7.5772303,172.523565,-0.36051519,0.2904465269999999,-0.0654585729999999,0.0572928719999999,-0.375391777,-0.093148132,0.0045
03:45:19,-0.739260235,0.407180385,0.539835895,-0.128549155,-0.343629905,0.24798647,-1.82389884,-30.62951304,-7.555980415,172.54009225,-0.3532448745,0.29386324435,-0.07850318315,0.0554401715999999,-0.37117830335,-0.0928676460999999,0.0045
03:45:19,-0.73870577,0.41136607,0.5541388899999999,-0.13039221,-0.3392087099999999,0.24819954,-1.82266688,-30.63674628,-7.53473053,172.55661949999998,-0.345974559,0.2972799617,-0.0915477932999999,0.0535874711999999,-0.3669648297,-0.0925871601999999,0.0045
03:45:19,-0.738151305,0.4155517549999999,0.5684418849999999,-0.132235265,-0.334787515,0.24841261,-1.82143492,-30.64397952,-7.513480645,172.57314674999998,-0.3387042435,0.3006966790499999,-0.10459240345,0.0517347707999999,-0.36275135605,-0.0923066742999999,0.0045
03:45:19,-0.73759684,0.4197374399999999,0.58274488,-0.13407832,-0.33036632,0.24862568,-1.82020296,-30.65121276,-7.49223076,172.589674,-0.331433928,0.3041133964,-0.1176370136,0.0498820703999999,-0.3585378824,-0.0920261884,0.0045
03:45:19,-0.737042375,0.4239231249999999,0.597047875,-0.1359213749999999,-0.325945125,0.24883875,-1.818971,-30.658446,-7.470980875,172.60620125,-0.3241636125,0.30753011375,-0.13068162375,0.0480293699999999,-0.35432440875,-0.0917457025,0.0045
03:45:19,-0.73648791,0.42810881,0.61135087,-0.13776443,-0.32152393,0.24905182,-1.81773904,-30.66567924,-7.449730990000001,172.6227285,-0.316893297,0.3109468311,-0.1437262339,0.0461766695999999,-0.3501109351,-0.0914652166,0.0045
03:45:19,-0.735933445,0.4322944949999999,0.6256538650000001,-0.1396074849999999,-0.3171027349999999,0.24926489,-1.81650708,-30.67291248,-7.428481105,172.63925575,-0.3096229815,0.31436354845,-0.15677084405,0.0443239691999999,-0.34589746145,-0.0911847307,0.0045
03:45:19,-0.73537898,0.43648018,0.6399568600000001,-0.1414505399999999,-0.31268154,0.24947796,-1.81527512,-30.68014572,-7.40723122,172.655783,-0.302352666,0.3177802657999999,-0.1698154542,0.0424712687999999,-0.3416839878,-0.0909042447999999,0.0045
03:45:19,-0.734824515,0.440665865,0.6542598550000001,-0.143293595,-0.308260345,0.24969103,-1.81404316,-30.68737896,-7.385981335,172.67231024999998,-0.2950823505,0.32119698315,-0.18286006435,0.0406185683999999,-0.33747051415,-0.0906237588999999,0.0045
03:45:19,-0.73427005,0.44485155,0.66856285,-0.1451366499999999,-0.30383915,0.2499041,-1.8128112,-30.6946122,-7.364731450000001,172.68883749999998,-0.287812035,0.3246137005,-0.1959046745,0.0387658679999999,-0.3332570405,-0.090343273,0.0045
03:45:19,-0.733715585,0.449037235,0.682865845,-0.146979705,-0.299417955,0.25011717,-1.81157924,-30.70184544,-7.343481565,172.70536475,-0.2805417195,0.32803041785,-0.2089492846499999,0.0369131675999999,-0.32904356685,-0.0900627871,0.0045
03:45:19,-0.73316112,0.45322292,0.69716884,-0.14882276,-0.2949967599999999,0.25033024,-1.81034728,-30.70907868,-7.322231680000001,172.721892,-0.273271404,0.3314471351999999,-0.2219938948,0.0350604671999999,-0.3248300932,-0.0897823012,0.0045
03:45:19,-0.732606655,0.4574086049999999,0.711471835,-0.1506658149999999,-0.290575565,0.25054331,-1.80911532,-30.71631192,-7.300981795,172.73841925,-0.2660010885,0.3348638525499999,-0.23503850495,0.0332077667999999,-0.32061661955,-0.0895018153,0.0045
03:45:19,-0.73205219,0.4615942899999999,0.72577483,-0.15250887,-0.28615437,0.25075638,-1.80788336,-30.72354516,-7.279731910000001,172.7549465,-0.258730773,0.3382805699,-0.2480831151,0.0313550663999999,-0.3164031459,-0.0892213294,0.0045
03:45:19,-0.731497725,0.465779975,0.740077825,-0.154351925,-0.281733175,0.25096945,-1.8066514,-30.7307784,-7.258482025,172.77147374999998,-0.2514604575,0.34169728725,-0.26112772525,0.0295023659999999,-0.31218967225,-0.0889408434999999,0.0045
03:45:19,-0.73094326,0.4699656599999999,0.75438082,-0.1561949799999999,-0.27731198,0.25118252,-1.80541944,-30.73801164,-7.237232140000001,172.78800099999998,-0.244190142,0.3451140045999999,-0.2741723353999999,0.0276496655999999,-0.3079761986,-0.0886603575999999,0.0045
03:45:19,-0.730388795,0.474151345,0.7686838149999999,-0.158038035,-0.2728907849999999,0.25139559,-1.80418748,-30.74524488,-7.215982255,172.80452825,-0.2369198265,0.34853072195,-0.28721694555,0.0257969651999999,-0.30376272495,-0.0883798717,0.0045
03:45:19,-0.72983433,0.4783370299999999,0.7829868099999999,-0.15988109,-0.26846959,0.25160866,-1.80295552,-30.75247812,-7.1947323700000005,172.8210555,-0.229649511,0.3519474392999999,-0.3002615557,0.0239442647999999,-0.2995492513,-0.0880993858,0.0045
03:45:19,-0.729279865,0.482522715,0.7972898049999999,-0.1617241449999999,-0.264048395,0.25182173,-1.80172356,-30.75971136,-7.173482485,172.83758275,-0.2223791955,0.35536415665,-0.3133061658499999,0.0220915643999999,-0.2953357776499999,-0.0878188999,0.0045
03:45:19,-0.7287254,0.4867084,0.8115928000000001,-0.1635672,-0.2596272,0.2520348,-1.8004916,-30.7669446,-7.1522326000000005,172.85411,-0.21510888,0.3587808739999999,-0.3263507759999999,0.0202388639999999,-0.291122304,-0.087538414,0.0045
03:45:19,-0.728170935,0.490894085,0.8258957950000001,-0.165410255,-0.255206005,0.25224787,-1.7992596399999998,-30.77417784,-7.130982715,172.87063725,-0.2078385645,0.3621975913499999,-0.33939538615,0.0183861635999999,-0.28690883035,-0.0872579280999999,0.0045
03:45:19,-0.72761647,0.49507977,0.8401987900000001,-0.16725331,-0.2507848099999999,0.25246094,-1.79802768,-30.78141108,-7.10973283,172.88716449999998,-0.200568249,0.3656143087,-0.3524399963,0.0165334631999999,-0.2826953567,-0.0869774421999999,0.0045
03:45:19,-0.7270620050000001,0.4992654549999999,0.8545017850000001,-0.1690963649999999,-0.246363615,0.25267401,-1.79679572,-30.78864432,-7.088482945,172.90369174999998,-0.1932979335,0.3690310260499999,-0.36548460645,0.0146807627999999,-0.27848188305,-0.0866969562999999,0.0045
03:45:19,-0.7265075400000001,0.5034511399999999,0.86880478,-0.17093942,-0.24194242,0.25288708,-1.7955637599999998,-30.79587756,-7.06723306,172.920219,-0.186027618,0.3724477434,-0.3785292165999999,0.0128280623999999,-0.2742684093999999,-0.0864164704,0.0045
03:45:19,-0.7259530750000001,0.507636825,0.883107775,-0.172782475,-0.237521225,0.25310015,-1.7943318,-30.8031108,-7.045983175,172.93674625,-0.1787573025,0.3758644607499999,-0.3915738267499999,0.0109753619999999,-0.27005493575,-0.0861359845,0.0045
03:45:19,-0.72539861,0.51182251,0.89741077,-0.1746255299999999,-0.2331000299999999,0.25331322,-1.79309984,-30.81034404,-7.02473329,172.9532735,-0.171486987,0.3792811780999999,-0.4046184369,0.0091226615999999,-0.2658414621,-0.0858554986,0.0045
03:45:19,-0.724844145,0.516008195,0.911713765,-0.1764685849999999,-0.228678835,0.25352629,-1.79186788,-30.81757728,-7.003483405,172.96980075,-0.1642166715,0.38269789545,-0.41766304705,0.0072699611999999,-0.26162798845,-0.0855750127,0.0045
03:45:19,-0.72428968,0.52019388,0.92601676,-0.17831164,-0.2242576399999999,0.25373936,-1.79063592,-30.82481052,-6.98223352,172.986328,-0.156946356,0.3861146128,-0.4307076572,0.0054172607999999,-0.2574145148,-0.0852945267999999,0.0045
03:45:19,-0.723735215,0.5243795649999999,0.940319755,-0.1801546949999999,-0.219836445,0.25395243,-1.78940396,-30.83204376,-6.960983635,173.00285524999998,-0.1496760405,0.3895313301499999,-0.4437522673499999,0.0035645603999999,-0.25320104115,-0.0850140408999999,0.0045
03:45:19,-0.72318075,0.52856525,0.95462275,-0.1819977499999999,-0.21541525,0.2541655,-1.788172,-30.839277,-6.93973375,173.0193825,-0.142405725,0.3929480475,-0.4567968775,0.0017118599999999,-0.2489875675,-0.0847335549999999,0.0045
03:45:19,-0.722626285,0.5327509349999999,0.968925745,-0.183840805,-0.2109940549999999,0.25437857,-1.78694004,-30.84651024,-6.918483865000001,173.03590975,-0.1351354095,0.3963647648499999,-0.46984148765,-0.0001408404,-0.2447740938499999,-0.0844530691,0.0045
03:45:19,-0.72207182,0.53693662,0.98322874,-0.1856838599999999,-0.20657286,0.25459164,-1.78570808,-30.85374348,-6.89723398,173.052437,-0.127865094,0.3997814822,-0.4828860978,-0.0019935408,-0.2405606202,-0.0841725832,0.0045
03:45:19,-0.721517355,0.541122305,0.997531735,-0.187526915,-0.2021516649999999,0.25480471,-1.78447612,-30.86097672,-6.875984095,173.06896425,-0.1205947785,0.4031981995499999,-0.4959307079499999,-0.0038462412,-0.23634714655,-0.0838920973,0.0045
03:45:19,-0.72096289,0.54530799,1.01183473,-0.18936997,-0.19773047,0.25501778,-1.78324416,-30.86820996,-6.85473421,173.0854915,-0.113324463,0.4066149168999999,-0.5089753181,-0.0056989416,-0.2321336728999999,-0.0836116114,0.0045
03:45:19,-0.720408425,0.5494936749999999,1.026137725,-0.1912130249999999,-0.193309275,0.25523085,-1.7820121999999998,-30.8754432,-6.833484325000001,173.10201874999998,-0.1060541475,0.41003163425,-0.52201992825,-0.007551642,-0.2279201992499999,-0.0833311254999999,0.0045
03:45:19,-0.71985396,0.55367936,1.04044072,-0.19305608,-0.1888880799999999,0.25544392,-1.78078024,-30.88267644,-6.81223444,173.11854599999998,-0.098783832,0.4134483515999999,-0.5350645384,-0.0094043424,-0.2237067256,-0.0830506395999999,0.0045
03:45:19,-0.719299495,0.557865045,1.054743715,-0.194899135,-0.1844668849999999,0.25565699,-1.77954828,-30.88990968,-6.790984555,173.13507325,-0.0915135165,0.41686506895,-0.54810914855,-0.0112570428,-0.21949325195,-0.0827701536999999,0.0045
03:45:19,-0.71874503,0.5620507299999999,1.06904671,-0.1967421899999999,-0.1800456899999999,0.25587006,-1.7783163199999998,-30.89714292,-6.76973467,173.1516005,-0.084243201,0.4202817862999999,-0.5611537587,-0.0131097432,-0.2152797783,-0.0824896678,0.0045
03:45:19,-0.718190565,0.566236415,1.083349705,-0.198585245,-0.175624495,0.25608313,-1.77708436,-30.90437616,-6.7484847850000005,173.16812775,-0.0769728855,0.4236985036499999,-0.57419836885,-0.0149624436,-0.2110663046499999,-0.0822091819,0.0045
03:45:19,-0.7176361,0.5704221,1.0976527,-0.2004283,-0.1712033,0.2562962,-1.7758524,-30.9116094,-6.7272349,173.184655,-0.06970257,0.427115221,-0.587242979,-0.016815144,-0.2068528309999999,-0.081928696,0.0045
03:45:19,-0.717081635,0.574607785,1.111955695,-0.2022713549999999,-0.166782105,0.25650927,-1.77462044,-30.91884264,-6.705985015,173.20118225,-0.0624322545,0.43053193835,-0.60028758915,-0.0186678444,-0.20263935735,-0.0816482101,0.0045
03:45:19,-0.71652717,0.5787934699999999,1.12625869,-0.2041144099999999,-0.1623609099999999,0.25672234,-1.77338848,-30.92607588,-6.68473513,173.21770949999998,-0.055161939,0.4339486556999999,-0.6133321992999999,-0.0205205448,-0.1984258836999999,-0.0813677241999999,0.0045
03:45:19,-0.715972705,0.582979155,1.140561685,-0.205957465,-0.1579397149999999,0.25693541,-1.77215652,-30.93330912,-6.663485245,173.23423674999998,-0.0478916235,0.43736537305,-0.62637680945,-0.0223732452,-0.19421241005,-0.0810872382999999,0.0045
03:45:19,-0.71541824,0.58716484,1.15486468,-0.20780052,-0.15351852,0.25714848,-1.77092456,-30.94054236,-6.64223536,173.250764,-0.040621308,0.4407820903999999,-0.6394214196,-0.0242259456,-0.1899989363999999,-0.0808067523999999,0.0045
03:45:19,-0.714863775,0.591350525,1.169167675,-0.2096435749999999,-0.149097325,0.25736155,-1.7696926,-30.9477756,-6.620985475,173.26729125,-0.0333509925,0.44419880775,-0.65246602975,-0.026078646,-0.1857854627499999,-0.0805262665,0.0045
03:45:19,-0.71430931,0.5955362099999999,1.18347067,-0.21148663,-0.14467613,0.25757462,-1.76846064,-30.95500884,-6.59973559,173.2838185,-0.0260806769999999,0.4476155250999999,-0.6655106399,-0.0279313464,-0.1815719891,-0.0802457806,0.0045
03:45:19,-0.713754845,0.599721895,1.197773665,-0.213329685,-0.1402549349999999,0.25778769,-1.76722868,-30.96224208,-6.578485705,173.30034575,-0.0188103615,0.4510322424499999,-0.67855525005,-0.0297840468,-0.1773585154499999,-0.0799652947,0.0045
03:45:19,-0.71320038,0.60390758,1.21207666,-0.2151727399999999,-0.1358337399999999,0.25800076,-1.76599672,-30.96947532,-6.55723582,173.316873,-0.011540046,0.4544489598,-0.6915998602,-0.0316367472,-0.1731450418,-0.0796848087999999,0.0045
03:45:19,-0.712645915,0.6080932649999999,1.226379655,-0.217015795,-0.131412545,0.25821383,-1.7647647599999998,-30.97670856,-6.535985935,173.33340024999998,-0.0042697305,0.4578656771499999,-0.70464447035,-0.0334894476,-0.16893156815,-0.0794043228999999,0.0045
03:45:19,-0.71209145,0.61227895,1.24068265,-0.21885885,-0.12699135,0.2584269,-1.7635328,-30.9839418,-6.51473605,173.34992749999998,0.003000585,0.4612823944999999,-0.7176890805,-0.035342148,-0.1647180944999999,-0.079123837,0.0045
03:45:19,-0.711536985,0.616464635,1.254985645,-0.2207019049999999,-0.122570155,0.25863997,-1.76230084,-30.99117504,-6.493486165,173.36645475,0.0102709005,0.4646991118499999,-0.7307336906499999,-0.0371948484,-0.16050462085,-0.0788433510999999,0.0045
03:45:19,-0.71098252,0.62065032,1.26928864,-0.22254496,-0.1181489599999999,0.25885304,-1.7610688799999998,-30.99840828,-6.472236280000001,173.382982,0.017541216,0.4681158291999999,-0.7437783008,-0.0390475488,-0.1562911471999999,-0.0785628652,0.0045
03:45:19,-0.7104280550000001,0.6248360049999999,1.283591635,-0.224388015,-0.1137277649999999,0.25906611,-1.75983692,-31.00564152,-6.450986395,173.39950925,0.0248115314999999,0.47153254655,-0.75682291095,-0.0409002492,-0.1520776735499999,-0.0782823793,0.0045
03:45:19,-0.70987359,0.62902169,1.29789463,-0.2262310699999999,-0.1093065699999999,0.25927918,-1.75860496,-31.01287476,-6.42973651,173.4160365,0.0320818469999999,0.4749492639,-0.7698675211,-0.0427529496,-0.1478641999,-0.0780018934,0.0045
03:45:19,-0.709319125,0.633207375,1.312197625,-0.2280741249999999,-0.104885375,0.25949225,-1.757373,-31.020108,-6.408486625,173.43256375,0.0393521624999999,0.4783659812499999,-0.78291213125,-0.04460565,-0.1436507262499999,-0.0777214074999999,0.0045
03:45:19,-0.70876466,0.63739306,1.32650062,-0.22991718,-0.10046418,0.25970532,-1.75614104,-31.02734124,-6.3872367400000005,173.44909099999998,0.0466224779999999,0.4817826985999999,-0.7959567414,-0.0464583504,-0.1394372525999999,-0.0774409215999999,0.0045
03:45:19,-0.708210195,0.6415787449999999,1.340803615,-0.2317602349999999,-0.0960429849999999,0.25991839,-1.75490908,-31.03457448,-6.365986855,173.46561825,0.0538927934999999,0.4851994159499999,-0.80900135155,-0.0483110508,-0.1352237789499999,-0.0771604357,0.0045
03:45:19,-0.70765573,0.64576443,1.35510661,-0.2336032899999999,-0.0916217899999999,0.26013146,-1.75367712,-31.04180772,-6.34473697,173.4821455,0.0611631089999999,0.4886161333,-0.8220459616999999,-0.0501637512,-0.1310103052999999,-0.0768799497999999,0.0045
03:45:19,-0.707101265,0.649950115,1.3694096050000002,-0.235446345,-0.0872005949999999,0.26034453,-1.75244516,-31.04904096,-6.323487085,173.49867275,0.0684334245,0.4920328506499999,-0.83509057185,-0.0520164516,-0.12679683165,-0.0765994639,0.0045
03:45:19,-0.7065468,0.6541357999999999,1.3837126000000002,-0.2372893999999999,-0.0827794,0.2605576,-1.7512132,-31.0562742,-6.3022372,173.5152,0.07570374,0.4954495679999999,-0.8481351819999999,-0.053869152,-0.1225833579999999,-0.076318978,0.0045
03:45:19,-0.705992335,0.658321485,1.3980155950000002,-0.2391324549999999,-0.078358205,0.26077067,-1.74998124,-31.06350744,-6.280987315,173.53172725,0.0829740555,0.4988662853499999,-0.8611797921500001,-0.0557218524,-0.1183698843499999,-0.0760384921,0.0045
03:45:19,-0.70543787,0.66250717,1.4123185900000002,-0.24097551,-0.0739370099999999,0.26098374,-1.74874928,-31.07074068,-6.25973743,173.54825449999998,0.0902443709999999,0.5022830027,-0.8742244023,-0.0575745528,-0.1141564106999999,-0.0757580061999999,0.0045
03:45:19,-0.704883405,0.666692855,1.426621585,-0.242818565,-0.0695158149999999,0.26119681,-1.74751732,-31.07797392,-6.238487545,173.56478174999998,0.0975146864999999,0.50569972005,-0.8872690124499999,-0.0594272532,-0.1099429370499999,-0.0754775202999999,0.0045
03:45:19,-0.70432894,0.6708785399999999,1.44092458,-0.2446616199999999,-0.0650946199999999,0.26140988,-1.74628536,-31.08520716,-6.21723766,173.581309,0.1047850019999999,0.5091164373999999,-0.9003136226,-0.0612799536,-0.1057294634,-0.0751970344,0.0045
03:45:19,-0.703774475,0.675064225,1.455227575,-0.246504675,-0.060673425,0.26162295,-1.7450534,-31.0924404,-6.195987775,173.59783625,0.1120553174999999,0.5125331547499999,-0.91335823275,-0.063132654,-0.1015159897499999,-0.0749165484999999,0.0045
03:45:19,-0.70322001,0.67924991,1.46953057,-0.24834773,-0.05625223,0.26183602,-1.7438214399999998,-31.09967364,-6.17473789,173.6143635,0.1193256329999999,0.5159498721,-0.9264028429,-0.0649853544,-0.0973025160999999,-0.0746360626,0.0045
03:45:19,-0.702665545,0.683435595,1.483833565,-0.2501907849999999,-0.0518310349999999,0.26204909,-1.74258948,-31.10690688,-6.153488005,173.63089075,0.1265959485,0.5193665894499999,-0.93944745305,-0.0668380548,-0.0930890424499999,-0.0743555767,0.0045
03:45:19,-0.70211108,0.6876212799999999,1.49813656,-0.25203384,-0.0474098399999999,0.26226216,-1.74135752,-31.11414012,-6.13223812,173.647418,0.133866264,0.5227833068,-0.9524920632,-0.0686907552,-0.0888755687999999,-0.0740750907999999,0.0045
03:45:19,-0.701556615,0.6918069649999999,1.512439555,-0.253876895,-0.0429886449999999,0.26247523,-1.7401255599999998,-31.12137336,-6.110988235,173.66394524999998,0.1411365795,0.52620002415,-0.96553667335,-0.0705434556,-0.0846620951499999,-0.0737946048999999,0.0045
03:45:19,-0.70100215,0.69599265,1.52674255,-0.25571995,-0.03856745,0.2626883,-1.7388936,-31.1286066,-6.08973835,173.6804725,0.1484068949999999,0.5296167414999999,-0.9785812835,-0.072396156,-0.0804486214999999,-0.0735141189999999,0.0045
03:45:19,-0.700447685,0.7001783349999999,1.541045545,-0.257563005,-0.034146255,0.26290137,-1.73766164,-31.13583984,-6.068488465,173.69699975,0.1556772104999999,0.53303345885,-0.99162589365,-0.0742488564,-0.0762351478499999,-0.0732336331,0.0045
03:45:19,-0.69989322,0.70436402,1.55534854,-0.25940606,-0.0297250599999999,0.26311444,-1.73642968,-31.14307308,-6.04723858,173.713527,0.1629475259999999,0.5364501762,-1.0046705038,-0.0761015568,-0.0720216741999999,-0.0729531472,0.0045
03:45:19,-0.699338755,0.708549705,1.5696515350000002,-0.261249115,-0.0253038649999999,0.26332751,-1.73519772,-31.15030632,-6.025988695,173.73005425,0.1702178414999999,0.53986689355,-1.01771511395,-0.0779542572,-0.0678082005499999,-0.0726726613,0.0045
03:45:19,-0.69878429,0.71273539,1.5839545300000002,-0.2630921699999999,-0.0208826699999999,0.26354058,-1.73396576,-31.15753956,-6.00473881,173.7465815,0.1774881569999999,0.5432836108999999,-1.0307597241000002,-0.0798069576,-0.0635947268999999,-0.0723921754,0.0045
03:45:19,-0.698229825,0.7169210749999999,1.5982575250000002,-0.264935225,-0.016461475,0.26375365,-1.7327338,-31.1647728,-5.983488925,173.76310875,0.1847584725,0.54670032825,-1.04380433425,-0.081659658,-0.0593812532499999,-0.0721116894999999,0.0045
03:45:19,-0.69767536,0.72110676,1.6125605200000002,-0.26677828,-0.0120402799999999,0.26396672,-1.73150184,-31.17200604,-5.96223904,173.77963599999998,0.192028788,0.5501170456,-1.0568489444000002,-0.0835123584,-0.0551677795999999,-0.0718312035999999,0.0045
03:45:19,-0.697120895,0.725292445,1.626863515,-0.2686213349999999,-0.0076190849999999,0.26417979,-1.7302698799999998,-31.17923928,-5.9409891550000005,173.79616325,0.1992991035,0.5535337629499999,-1.06989355455,-0.0853650588,-0.0509543059499999,-0.0715507176999999,0.0045
03:45:19,-0.69656643,0.72947813,1.64116651,-0.27046439,-0.0031978899999999,0.26439286,-1.72903792,-31.18647252,-5.91973927,173.8126905,0.206569419,0.5569504802999999,-1.0829381647,-0.0872177592,-0.0467408322999999,-0.0712702318,0.0045
03:45:19,-0.6960119650000001,0.7336638149999999,1.655469505,-0.272307445,0.001223305,0.26460593,-1.72780596,-31.19370576,-5.898489385,173.82921775,0.2138397344999999,0.56036719765,-1.0959827748500002,-0.0890704596,-0.0425273586499999,-0.0709897459,0.0045
03:45:19,-0.6954575000000001,0.7378494999999999,1.6697725,-0.2741504999999999,0.0056444999999999,0.264819,-1.7265739999999998,-31.200939,-5.8772395,173.845745,0.2211100499999999,0.5637839149999999,-1.109027385,-0.09092316,-0.0383138849999999,-0.07070926,0.0045
03:45:19,-0.6949030350000001,0.742035185,1.684075495,-0.275993555,0.010065695,0.26503207,-1.72534204,-31.20817224,-5.855989615,173.86227225,0.2283803654999999,0.56720063235,-1.12207199515,-0.0927758604,-0.0341004113499999,-0.0704287741,0.0045
03:45:19,-0.69434857,0.7462208699999999,1.69837849,-0.27783661,0.01448689,0.26524514,-1.72411008,-31.21540548,-5.83473973,173.8787995,0.2356506809999999,0.5706173497,-1.1351166053,-0.0946285608,-0.0298869376999999,-0.0701482881999999,0.0045
03:45:19,-0.693794105,0.750406555,1.712681485,-0.2796796649999999,0.018908085,0.26545821,-1.7228781199999998,-31.22263872,-5.813489844999999,173.89532674999998,0.2429209964999999,0.5740340670499999,-1.14816121545,-0.0964812612,-0.0256734640499999,-0.0698678022999999,0.0045
03:45:19,-0.69323964,0.75459224,1.72698448,-0.28152272,0.02332928,0.26567128,-1.72164616,-31.22987196,-5.79223996,173.911854,0.250191312,0.5774507844,-1.1612058256000002,-0.0983339616,-0.0214599903999999,-0.0695873163999999,0.0045
03:45:19,-0.692685175,0.758777925,1.741287475,-0.283365775,0.0277504749999999,0.26588435,-1.7204142,-31.2371052,-5.770990075,173.92838125,0.2574616275,0.58086750175,-1.17425043575,-0.100186662,-0.0172465167499999,-0.0693068305,0.0045
03:45:19,-0.69213071,0.7629636099999999,1.75559047,-0.2852088299999999,0.03217167,0.26609742,-1.71918224,-31.24433844,-5.74974019,173.9449085,0.264731943,0.5842842191,-1.1872950459,-0.1020393624,-0.0130330430999999,-0.0690263446,0.0045
03:45:19,-0.691576245,0.767149295,1.7698934650000002,-0.287051885,0.036592865,0.26631049,-1.71795028,-31.25157168,-5.728490304999999,173.96143575,0.2720022584999999,0.5877009364499999,-1.20033965605,-0.1038920628,-0.0088195694499999,-0.0687458587,0.0045
03:45:19,-0.69102178,0.77133498,1.7841964600000002,-0.28889494,0.04101406,0.26652356,-1.71671832,-31.25880492,-5.70724042,173.977963,0.2792725739999999,0.5911176537999999,-1.2133842662,-0.1057447632,-0.0046060957999999,-0.0684653728,0.0045
03:45:19,-0.690467315,0.7755206649999999,1.7984994550000002,-0.2907379949999999,0.045435255,0.26673663,-1.71548636,-31.26603816,-5.685990535,173.99449024999998,0.2865428894999999,0.59453437115,-1.2264288763500002,-0.1075974636,-0.0003926221499999,-0.0681848868999999,0.0045
03:45:19,-0.68991285,0.7797063499999999,1.81280245,-0.29258105,0.04985645,0.2669497,-1.7142544,-31.2732714,-5.66474065,174.01101749999998,0.2938132049999999,0.5979510884999999,-1.2394734865,-0.109450164,0.0038208515,-0.0679044009999999,0.0045
03:45:19,-0.689358385,0.7838920349999999,1.827105445,-0.294424105,0.054277645,0.26716277,-1.71302244,-31.28050464,-5.643490764999999,174.02754475,0.3010835205,0.6013678058499999,-1.25251809665,-0.1113028644,0.00803432515,-0.0676239150999999,0.0045
03:45:19,-0.68880392,0.78807772,1.84140844,-0.29626716,0.05869884,0.26737584,-1.71179048,-31.28773788,-5.62224088,174.044072,0.308353836,0.6047845232,-1.2655627068000002,-0.1131555648,0.0122477988,-0.0673434292,0.0045
03:45:19,-0.688249455,0.7922634049999999,1.855711435,-0.298110215,0.063120035,0.26758891,-1.71055852,-31.29497112,-5.600990995,174.06059925,0.3156241515,0.6082012405499999,-1.27860731695,-0.1150082652,0.01646127245,-0.0670629433,0.0045
03:45:19,-0.68769499,0.79644909,1.87001443,-0.29995327,0.06754123,0.26780198,-1.70932656,-31.30220436,-5.57974111,174.0771265,0.322894467,0.6116179579,-1.2916519271000002,-0.1168609656,0.0206747461,-0.0667824574,0.0045
03:45:19,-0.687140525,0.800634775,1.884317425,-0.301796325,0.071962425,0.26801505,-1.7080946,-31.3094376,-5.558491224999999,174.09365375,0.3301647825,0.61503467525,-1.30469653725,-0.118713666,0.02488821975,-0.0665019714999999,0.0045
03:45:19,-0.68658606,0.80482046,1.89862042,-0.3036393799999999,0.07638362,0.26822812,-1.70686264,-31.31667084,-5.53724134,174.11018099999998,0.3374350979999999,0.6184513925999999,-1.3177411474,-0.1205663664,0.0291016934,-0.0662214855999999,0.0045
03:45:19,-0.686031595,0.8090061449999999,1.912923415,-0.305482435,0.0808048149999999,0.26844119,-1.7056306799999998,-31.32390408,-5.515991455,174.12670825,0.3447054134999999,0.62186810995,-1.3307857575500002,-0.1224190668,0.03331516705,-0.0659409997,0.0045
03:45:19,-0.68547713,0.81319183,1.92722641,-0.30732549,0.08522601,0.26865426,-1.70439872,-31.33113732,-5.49474157,174.1432355,0.3519757289999999,0.6252848273,-1.3438303677,-0.1242717672,0.0375286407,-0.0656605137999999,0.0045
03:45:19,-0.684922665,0.817377515,1.941529405,-0.3091685449999999,0.089647205,0.26886733,-1.70316676,-31.33837056,-5.473491685,174.15976275,0.3592460445,0.6287015446499999,-1.35687497785,-0.1261244676,0.04174211435,-0.0653800279,0.0045
03:45:19,-0.6843682,0.8215631999999999,1.9558324,-0.3110116,0.0940684,0.2690804,-1.7019348,-31.3456038,-5.4522418,174.17629,0.36651636,0.6321182619999999,-1.369919588,-0.127977168,0.0459555880000001,-0.065099542,0.0045
03:45:19,-0.683813735,0.8257488849999999,1.970135395,-0.312854655,0.098489595,0.26929347,-1.70070284,-31.35283704,-5.430991915,174.19281725,0.3737866755,0.6355349793499999,-1.38296419815,-0.1298298684,0.05016906165,-0.0648190561,0.0045
03:45:19,-0.68325927,0.82993457,1.98443839,-0.3146977099999999,0.1029107899999999,0.26950654,-1.69947088,-31.36007028,-5.40974203,174.2093445,0.381056991,0.6389516967,-1.3960088083000002,-0.1316825688,0.0543825353,-0.0645385701999999,0.0045
03:45:19,-0.682704805,0.834120255,1.998741385,-0.316540765,0.107331985,0.26971961,-1.69823892,-31.36730352,-5.388492145,174.22587174999998,0.3883273065,0.6423684140499999,-1.40905341845,-0.1335352692,0.05859600895,-0.0642580842999999,0.0045
03:45:19,-0.68215034,0.8383059399999999,2.01304438,-0.31838382,0.11175318,0.26993268,-1.69700696,-31.37453676,-5.367242259999999,174.242399,0.3955976219999999,0.6457851313999999,-1.4220980286,-0.1353879696,0.0628094826,-0.0639775984,0.0045
03:45:19,-0.681595875,0.8424916249999999,2.027347375,-0.3202268749999999,0.116174375,0.27014575,-1.695775,-31.38177,-5.345992375,174.25892625,0.4028679374999999,0.64920184875,-1.43514263875,-0.13724067,0.0670229562500001,-0.0636971124999999,0.0045
03:45:19,-0.68104141,0.84667731,2.04165037,-0.32206993,0.12059557,0.27035882,-1.69454304,-31.38900324,-5.32474249,174.2754535,0.4101382529999999,0.6526185660999999,-1.4481872489,-0.1390933704,0.0712364299,-0.0634166266,0.0045
03:45:19,-0.680486945,0.850862995,2.055953365,-0.323912985,0.1250167649999999,0.27057189,-1.69331108,-31.39623648,-5.303492605,174.29198075,0.4174085684999999,0.65603528345,-1.4612318590500002,-0.1409460708,0.07544990355,-0.0631361407,0.0045
03:45:19,-0.67993248,0.8550486799999999,2.07025636,-0.3257560399999999,0.12943796,0.27078496,-1.6920791199999998,-31.40346972,-5.282242719999999,174.308508,0.424678884,0.6594520008,-1.4742764692,-0.1427987712,0.0796633772,-0.0628556548,0.0045
03:45:19,-0.679378015,0.859234365,2.084559355,-0.327599095,0.133859155,0.27099803,-1.69084716,-31.41070296,-5.260992835,174.32503524999998,0.4319491995,0.6628687181499999,-1.48732107935,-0.1446514716,0.08387685085,-0.0625751688999999,0.0045
03:45:19,-0.67882355,0.86342005,2.09886235,-0.32944215,0.13828035,0.2712111,-1.6896152,-31.4179362,-5.23974295,174.3415625,0.439219515,0.6662854354999999,-1.5003656895000002,-0.146504172,0.0880903245000001,-0.062294683,0.0045
03:45:19,-0.678269085,0.8676057349999999,2.113165345,-0.3312852049999999,0.142701545,0.27142417,-1.6883832399999998,-31.42516944,-5.218493065,174.35808975,0.4464898305,0.66970215285,-1.51341029965,-0.1483568724,0.09230379815,-0.0620141970999999,0.0045
03:45:19,-0.67771462,0.8717914199999999,2.12746834,-0.33312826,0.1471227399999999,0.27163724,-1.68715128,-31.43240268,-5.197243179999999,174.374617,0.453760146,0.6731188701999999,-1.5264549098000002,-0.1502095728,0.0965172718,-0.0617337111999999,0.0045
03:45:19,-0.677160155,0.875977105,2.141771335,-0.334971315,0.151543935,0.27185031,-1.68591932,-31.43963592,-5.175993295,174.39114425,0.4610304614999999,0.6765355875499999,-1.53949951995,-0.1520622732,0.10073074545,-0.0614532252999999,0.0045
03:45:19,-0.67660569,0.88016279,2.15607433,-0.33681437,0.15596513,0.27206338,-1.68468736,-31.44686916,-5.15474341,174.4076715,0.4683007769999999,0.6799523048999999,-1.5525441301,-0.1539149736,0.1049442191,-0.0611727393999999,0.0045
03:45:19,-0.676051225,0.8843484749999999,2.170377325,-0.3386574249999999,0.160386325,0.27227645,-1.6834554,-31.4541024,-5.133493525,174.42419875,0.4755710924999999,0.68336902225,-1.5655887402500002,-0.155767674,0.10915769275,-0.0608922534999999,0.0045
03:45:19,-0.67549676,0.8885341599999999,2.18468032,-0.34050048,0.16480752,0.27248952,-1.68222344,-31.46133564,-5.112243639999999,174.44072599999998,0.4828414079999999,0.6867857395999999,-1.5786333504,-0.1576203744,0.1133711664,-0.0606117675999999,0.0045
03:45:19,-0.674942295,0.892719845,2.198983315,-0.342343535,0.1692287149999999,0.27270259,-1.68099148,-31.46856888,-5.090993755,174.45725325,0.4901117235,0.6902024569499999,-1.5916779605500002,-0.1594730748,0.11758464005,-0.0603312816999999,0.0045
03:45:19,-0.67438783,0.89690553,2.21328631,-0.34418659,0.17364991,0.27291566,-1.67975952,-31.47580212,-5.06974387,174.4737805,0.497382039,0.6936191743,-1.6047225707,-0.1613257752,0.1217981137,-0.0600507957999999,0.0045
03:45:19,-0.673833365,0.901091215,2.227589305,-0.346029645,0.178071105,0.27312873,-1.67852756,-31.48303536,-5.048493985,174.49030775,0.5046523545,0.6970358916499999,-1.61776718085,-0.1631784756,0.12601158735,-0.0597703098999999,0.0045
03:45:19,-0.6732789,0.9052769,2.2418923,-0.3478727,0.1824923,0.2733417999999999,-1.6772956,-31.4902686,-5.027244099999999,174.506835,0.51192267,0.700452609,-1.6308117910000002,-0.165031176,0.1302250610000001,-0.059489824,0.0045
03:45:19,-0.672724435,0.909462585,2.256195295,-0.349715755,0.186913495,0.27355487,-1.67606364,-31.49750184,-5.005994214999999,174.52336225,0.5191929855,0.70386932635,-1.64385640115,-0.1668838764,0.1344385346500001,-0.0592093380999999,0.0045
03:45:19,-0.67216997,0.91364827,2.27049829,-0.35155881,0.1913346899999999,0.27376794,-1.67483168,-31.50473508,-4.98474433,174.5398895,0.526463301,0.7072860436999999,-1.6569010113,-0.1687365768,0.1386520083,-0.0589288521999999,0.0045
03:45:19,-0.671615505,0.917833955,2.284801285,-0.353401865,0.195755885,0.2739810099999999,-1.67359972,-31.51196832,-4.963494445,174.55641674999998,0.5337336165000001,0.7107027610499999,-1.66994562145,-0.1705892772,0.14286548195,-0.0586483662999999,0.0045
03:45:19,-0.67106104,0.92201964,2.29910428,-0.35524492,0.20017708,0.27419408,-1.67236776,-31.51920156,-4.94224456,174.572944,0.5410039320000001,0.7141194784,-1.6829902316,-0.1724419776,0.1470789556,-0.0583678803999999,0.0045
03:45:19,-0.670506575,0.926205325,2.313407275,-0.357087975,0.204598275,0.27440715,-1.6711358,-31.5264348,-4.920994674999999,174.58947125,0.5482742475000001,0.7175361957499999,-1.6960348417500002,-0.174294678,0.15129242925,-0.0580873944999999,0.0045
03:45:19,-0.66995211,0.93039101,2.32771027,-0.35893103,0.20901947,0.2746202199999999,-1.66990384,-31.53366804,-4.89974479,174.6059985,0.5555445629999999,0.7209529130999999,-1.7090794519,-0.1761473784,0.1555059029000001,-0.0578069085999999,0.0045
03:45:19,-0.669397645,0.9345766949999998,2.342013265,-0.360774085,0.2134406649999999,0.27483329,-1.66867188,-31.54090128,-4.878494905,174.62252575,0.5628148784999999,0.7243696304499999,-1.72212406205,-0.1780000788,0.15971937655,-0.0575264226999999,0.0045
03:45:19,-0.66884318,0.93876238,2.35631626,-0.36261714,0.21786186,0.27504636,-1.66743992,-31.54813452,-4.85724502,174.639053,0.5700851939999999,0.7277863478,-1.7351686722000002,-0.1798527792,0.1639328502,-0.0572459367999999,0.0045
03:45:19,-0.668288715,0.942948065,2.370619255,-0.364460195,0.222283055,0.2752594299999999,-1.66620796,-31.55536776,-4.835995134999999,174.65558025,0.5773555094999999,0.7312030651499999,-1.74821328235,-0.1817054796,0.16814632385,-0.0569654508999999,0.0045
03:45:19,-0.66773425,0.94713375,2.38492225,-0.3663032499999999,0.22670425,0.2754725,-1.664976,-31.562601,-4.81474525,174.67210749999998,0.5846258249999999,0.7346197824999999,-1.7612578925000002,-0.18355818,0.1723597975,-0.056684965,0.0045
03:45:19,-0.667179785,0.951319435,2.399225245,-0.368146305,0.231125445,0.27568557,-1.66374404,-31.56983424,-4.793495365,174.68863475,0.5918961405,0.73803649985,-1.77430250265,-0.1854108804,0.1765732711500001,-0.0564044790999999,0.0045
03:45:19,-0.66662532,0.95550512,2.41352824,-0.36998936,0.2355466399999999,0.27589864,-1.66251208,-31.57706748,-4.77224548,174.705162,0.599166456,0.7414532171999999,-1.7873471128,-0.1872635808,0.1807867448000001,-0.0561239931999999,0.0045
03:45:19,-0.666070855,0.959690805,2.427831235,-0.3718324149999999,0.239967835,0.27611171,-1.66128012,-31.58430072,-4.750995594999999,174.72168925,0.6064367715,0.74486993455,-1.8003917229500002,-0.1891162812,0.18500021845,-0.0558435072999999,0.0045
03:45:19,-0.66551639,0.96387649,2.44213423,-0.37367547,0.24438903,0.27632478,-1.66004816,-31.59153396,-4.72974571,174.7382165,0.613707087,0.7482866518999999,-1.8134363331,-0.1909689816,0.1892136921,-0.0555630213999999,0.0045
03:45:19,-0.6649619250000001,0.968062175,2.456437225,-0.375518525,0.248810225,0.27653785,-1.6588162,-31.5987672,-4.708495825,174.75474375,0.6209774025,0.7517033692499999,-1.82648094325,-0.192821682,0.19342716575,-0.0552825354999999,0.0045
03:45:19,-0.6644074600000001,0.97224786,2.47074022,-0.37736158,0.25323142,0.27675092,-1.6575842399999998,-31.60600044,-4.68724594,174.77127099999998,0.628247718,0.7551200866,-1.8395255534,-0.1946743824,0.1976406394000001,-0.0550020495999999,0.0045
03:45:19,-0.6638529950000001,0.976433545,2.485043215,-0.379204635,0.257652615,0.27696399,-1.65635228,-31.61323368,-4.665996054999999,174.78779825,0.6355180335,0.7585368039499999,-1.85257016355,-0.1965270828,0.2018541130500001,-0.0547215636999999,0.0045
03:45:19,-0.66329853,0.9806192299999998,2.49934621,-0.38104769,0.26207381,0.27717706,-1.65512032,-31.62046692,-4.64474617,174.8043255,0.642788349,0.7619535212999999,-1.8656147737,-0.1983797832,0.2060675867,-0.0544410777999999,0.0045
03:45:19,-0.662744065,0.984804915,2.513649205,-0.382890745,0.266495005,0.27739013,-1.6538883599999998,-31.62770016,-4.623496285,174.82085275,0.6500586645,0.76537023865,-1.8786593838500003,-0.2002324836,0.21028106035,-0.0541605918999999,0.0045
03:45:19,-0.6621896,0.9889906,2.5279522,-0.3847338,0.2709162,0.2776032,-1.6526564,-31.6349334,-4.602246399999999,174.83738,0.6573289800000001,0.7687869559999999,-1.891703994,-0.202085184,0.214494534,-0.053880106,0.0045
03:45:19,-0.661635135,0.993176285,2.542255195,-0.386576855,0.275337395,0.27781627,-1.65142444,-31.64216664,-4.580996514999999,174.85390725,0.6645992955000001,0.77220367335,-1.90474860415,-0.2039378844,0.2187080076500001,-0.0535996200999999,0.0045
03:45:19,-0.66108067,0.99736197,2.55655819,-0.38841991,0.27975859,0.27802934,-1.65019248,-31.64939988,-4.559746629999999,174.8704345,0.6718696110000001,0.7756203906999999,-1.9177932143000005,-0.2057905848,0.2229214813000001,-0.0533191341999999,0.0045
03:45:19,-0.660526205,1.001547655,2.570861185,-0.390262965,0.284179785,0.27824241,-1.64896052,-31.65663312,-4.538496745,174.88696174999998,0.6791399264999999,0.7790371080499999,-1.93083782445,-0.2076432852,0.22713495495,-0.0530386482999999,0.0045
03:45:19,-0.65997174,1.00573334,2.58516418,-0.39210602,0.28860098,0.27845548,-1.64772856,-31.66386636,-4.517246859999999,174.903489,0.6864102419999999,0.7824538254,-1.9438824346,-0.2094959856,0.2313484286,-0.0527581623999999,0.0045
03:45:19,-0.659417275,1.009919025,2.599467175,-0.393949075,0.293022175,0.27866855,-1.6464966,-31.6710996,-4.495996974999999,174.92001625,0.6936805574999999,0.7858705427499999,-1.95692704475,-0.211348686,0.23556190225,-0.0524776764999999,0.0045
03:45:19,-0.65886281,1.01410471,2.61377017,-0.39579213,0.29744337,0.27888162,-1.64526464,-31.67833284,-4.474747089999999,174.9365435,0.7009508729999999,0.7892872600999999,-1.9699716549,-0.2132013864,0.2397753759000001,-0.0521971905999999,0.0045
03:45:19,-0.658308345,1.018290395,2.628073165,-0.397635185,0.301864565,0.27909469,-1.64403268,-31.68556608,-4.453497205,174.95307075,0.7082211884999999,0.7927039774499999,-1.98301626505,-0.2150540868,0.2439888495500001,-0.0519167046999999,0.0045
03:45:19,-0.65775388,1.02247608,2.64237616,-0.39947824,0.30628576,0.27930776,-1.64280072,-31.69279932,-4.43224732,174.969598,0.715491504,0.7961206947999999,-1.9960608752,-0.2169067872,0.2482023232,-0.0516362187999999,0.0045
03:45:19,-0.657199415,1.0266617649999998,2.656679155,-0.4013212949999999,0.310706955,0.27952083,-1.64156876,-31.70003256,-4.410997435,174.98612525,0.7227618195,0.79953741215,-2.00910548535,-0.2187594876,0.25241579685,-0.0513557328999999,0.0045
03:45:19,-0.65664495,1.03084745,2.67098215,-0.40316435,0.31512815,0.2797339,-1.6403368,-31.7072658,-4.389747549999999,175.0026525,0.730032135,0.8029541294999999,-2.0221500955,-0.220612188,0.2566292705,-0.0510752469999999,0.0045
03:45:19,-0.656090485,1.035033135,2.685285145,-0.405007405,0.319549345,0.27994697,-1.63910484,-31.71449904,-4.368497665,175.01917975,0.7373024505,0.8063708468499999,-2.03519470565,-0.2224648884,0.2608427441500001,-0.0507947610999999,0.0045
03:45:19,-0.65553602,1.03921882,2.69958814,-0.4068504599999999,0.32397054,0.28016004,-1.63787288,-31.72173228,-4.34724778,175.035707,0.744572766,0.8097875641999999,-2.0482393158,-0.2243175888,0.2650562178000001,-0.0505142751999999,0.0045
03:45:19,-0.654981555,1.043404505,2.713891135,-0.408693515,0.328391735,0.28037311,-1.63664092,-31.72896552,-4.325997895,175.05223425,0.7518430815,0.8132042815499999,-2.06128392595,-0.2261702892,0.2692696914500001,-0.0502337892999999,0.0045
03:45:19,-0.65442709,1.04759019,2.72819413,-0.41053657,0.33281293,0.28058618,-1.63540896,-31.73619876,-4.304748009999999,175.0687615,0.759113397,0.8166209989,-2.0743285361,-0.2280229896,0.2734831651,-0.0499533033999999,0.0045
03:45:19,-0.653872625,1.051775875,2.742497125,-0.4123796249999999,0.337234125,0.28079925,-1.634177,-31.743432,-4.283498125,175.08528875,0.7663837125,0.8200377162499999,-2.08737314625,-0.22987569,0.27769663875,-0.0496728174999999,0.0045
03:45:19,-0.65331816,1.05596156,2.75680012,-0.41422268,0.34165532,0.28101232,-1.63294504,-31.75066524,-4.26224824,175.101816,0.773654028,0.8234544335999999,-2.1004177564,-0.2317283904,0.2819101124000001,-0.0493923315999999,0.0045
03:45:19,-0.652763695,1.060147245,2.771103115,-0.416065735,0.346076515,0.28122539,-1.63171308,-31.75789848,-4.240998354999999,175.11834325,0.7809243435000001,0.82687115095,-2.11346236655,-0.2335810908,0.2861235860500001,-0.0491118457,0.0045
03:45:19,-0.65220923,1.06433293,2.78540611,-0.41790879,0.35049771,0.28143846,-1.63048112,-31.76513172,-4.219748469999999,175.1348705,0.7881946590000001,0.8302878682999999,-2.1265069767,-0.2354337912,0.2903370597000001,-0.0488313597999999,0.0045
03:45:19,-0.651654765,1.068518615,2.799709105,-0.419751845,0.354918905,0.28165153,-1.62924916,-31.77236496,-4.198498584999999,175.15139775,0.7954649745000001,0.8337045856499999,-2.13955158685,-0.2372864916,0.29455053335,-0.0485508738999999,0.0045
03:45:19,-0.6511003,1.0727042999999998,2.8140121,-0.4215949,0.3593401,0.2818646,-1.6280172,-31.7795982,-4.1772487,175.167925,0.8027352899999999,0.8371213029999999,-2.152596197,-0.239139192,0.298764007,-0.0482703879999999,0.0045
03:45:19,-0.650545835,1.076889985,2.828315095,-0.423437955,0.363761295,0.28207767,-1.62678524,-31.78683144,-4.155998814999999,175.18445225,0.8100056054999999,0.8405380203499999,-2.16564080715,-0.2409918924,0.3029774806500001,-0.0479899020999999,0.0045
03:45:19,-0.64999137,1.08107567,2.84261809,-0.42528101,0.36818249,0.28229074,-1.62555328,-31.79406468,-4.134748929999999,175.2009795,0.8172759209999999,0.8439547377,-2.1786854173,-0.2428445928,0.3071909543000001,-0.0477094161999999,0.0045
03:45:19,-0.649436905,1.085261355,2.856921085,-0.427124065,0.372603685,0.28250381,-1.62432132,-31.80129792,-4.113499044999999,175.21750674999998,0.8245462364999999,0.8473714550499999,-2.19173002745,-0.2446972932,0.3114044279500001,-0.0474289302999999,0.0045
03:45:19,-0.64888244,1.08944704,2.87122408,-0.42896712,0.37702488,0.28271688,-1.62308936,-31.80853116,-4.09224916,175.234034,0.8318165519999999,0.8507881723999999,-2.2047746376,-0.2465499936,0.3156179016000001,-0.0471484443999999,0.0045
03:45:19,-0.648327975,1.093632725,2.885527075,-0.430810175,0.381446075,0.28292995,-1.6218574,-31.8157644,-4.070999274999999,175.25056125,0.8390868674999999,0.8542048897499999,-2.21781924775,-0.248402694,0.31983137525,-0.0468679584999999,0.0045
03:45:19,-0.6477735099999999,1.09781841,2.89983007,-0.43265323,0.38586727,0.28314302,-1.62062544,-31.82299764,-4.049749389999999,175.2670885,0.846357183,0.8576216070999999,-2.2308638579,-0.2502553944,0.3240448489,-0.0465874725999999,0.0045
03:45:19,-0.647219045,1.102004095,2.914133065,-0.434496285,0.390288465,0.28335609,-1.6193934799999998,-31.83023088,-4.028499504999999,175.28361575,0.8536274985,0.86103832445,-2.24390846805,-0.2521080948,0.3282583225500001,-0.0463069867,0.0045
03:45:19,-0.64666458,1.10618978,2.92843606,-0.4363393399999999,0.39470966,0.28356916,-1.61816152,-31.83746412,-4.00724962,175.300143,0.860897814,0.8644550417999999,-2.2569530782,-0.2539607952,0.3324717962000001,-0.0460265007999999,0.0045
03:45:19,-0.646110115,1.110375465,2.942739055,-0.438182395,0.399130855,0.28378223,-1.61692956,-31.84469736,-3.985999734999999,175.31667025,0.8681681295,0.8678717591499999,-2.26999768835,-0.2558134956,0.3366852698500001,-0.0457460148999999,0.0045
03:45:19,-0.64555565,1.11456115,2.95704205,-0.44002545,0.40355205,0.2839953,-1.6156975999999998,-31.8519306,-3.96474985,175.33319749999998,0.875438445,0.8712884765,-2.2830422985,-0.257666196,0.3408987435,-0.0454655289999999,0.0045
03:45:19,-0.645001185,1.1187468349999998,2.971345045,-0.4418685049999999,0.407973245,0.28420837,-1.61446564,-31.85916384,-3.943499964999999,175.34972475,0.8827087605,0.8747051938499999,-2.29608690865,-0.2595188964,0.34511221715,-0.0451850430999999,0.0045
03:45:19,-0.64444672,1.12293252,2.98564804,-0.44371156,0.4123944400000001,0.28442144,-1.61323368,-31.86639708,-3.92225008,175.366252,0.889979076,0.8781219111999999,-2.3091315188,-0.2613715968,0.3493256908000001,-0.0449045571999999,0.0045
03:45:19,-0.643892255,1.127118205,2.999951035,-0.445554615,0.416815635,0.28463451,-1.61200172,-31.87363032,-3.901000194999999,175.38277925,0.8972493915,0.8815386285499999,-2.32217612895,-0.2632242972,0.3535391644500001,-0.0446240712999999,0.0045
03:45:19,-0.64333779,1.13130389,3.01425403,-0.4473976699999999,0.42123683,0.28484758,-1.61076976,-31.88086356,-3.87975031,175.3993065,0.904519707,0.8849553458999999,-2.3352207391,-0.2650769976,0.3577526381000001,-0.0443435853999999,0.0045
03:45:19,-0.642783325,1.135489575,3.028557025,-0.449240725,0.425658025,0.2850606499999999,-1.6095378,-31.8880968,-3.858500424999999,175.41583375,0.9117900225,0.88837206325,-2.34826534925,-0.2669296980000001,0.36196611175,-0.0440630994999999,0.0045
03:45:19,-0.64222886,1.13967526,3.04286002,-0.45108378,0.43007922,0.28527372,-1.60830584,-31.89533004,-3.83725054,175.432361,0.919060338,0.8917887805999999,-2.3613099594,-0.2687823984,0.3661795854,-0.0437826135999999,0.0045
03:45:19,-0.641674395,1.143860945,3.057163015,-0.4529268349999999,0.4345004150000001,0.28548679,-1.60707388,-31.90256328,-3.816000654999999,175.44888825,0.9263306535,0.8952054979499999,-2.37435456955,-0.2706350988,0.3703930590500001,-0.0435021276999999,0.0045
03:45:19,-0.64111993,1.1480466299999998,3.07146601,-0.45476989,0.43892161,0.2856998599999999,-1.60584192,-31.90979652,-3.79475077,175.4654155,0.933600969,0.8986222152999999,-2.3873991797,-0.2724877992000001,0.3746065327000001,-0.0432216417999999,0.0045
03:45:19,-0.640565465,1.152232315,3.085769005,-0.456612945,0.443342805,0.28591293,-1.60460996,-31.91702976,-3.773500884999999,175.48194275,0.9408712845,0.90203893265,-2.40044378985,-0.2743404996,0.3788200063500001,-0.0429411558999999,0.0045
03:45:20,-0.640011,1.156418,3.100072,-0.458456,0.447764,0.286126,-1.603378,-31.924263,-3.752251,175.49847,0.9481416,0.90545565,-2.4134884,-0.2761932,0.38303348,-0.04266067,0.0045
03:45:20,-0.641246145,1.14888228,3.096261455,-0.45214381,0.44466384,0.286392335,-1.586151765,-31.91999466,-3.7248942,173.74221745,0.9460463503,0.8981861272499999,-2.408944626,-0.270470984,0.3805060088499999,-0.04609678085,0.0045
03:45:20,-0.64248129,1.14134656,3.09245091,-0.44583162,0.44156368,0.28665867,-1.56892553,-31.91572632,-3.6975374,171.9859649,0.9439511006,0.8909166045,-2.404400852,-0.264748768,0.3779785377,-0.0495328917,0.0045
03:45:20,-0.643716435,1.13381084,3.088640365,-0.43951943,0.43846352,0.286925005,-1.551699295,-31.91145798,-3.6701806,170.22971235,0.9418558509,0.88364708175,-2.399857078,-0.259026552,0.37545106655,-0.05296900255,0.0045
03:45:20,-0.64495158,1.12627512,3.08482982,-0.43320724,0.43536336,0.28719134,-1.53447306,-31.90718964,-3.6428238,168.4734598,0.9397606012,0.8763775589999999,-2.395313304,-0.253304336,0.3729235954,-0.0564051134,0.0045
03:45:20,-0.646186725,1.1187394,3.081019275,-0.42689505,0.4322632,0.2874576749999999,-1.517246825,-31.9029213,-3.615467,166.71720725,0.9376653515,0.86910803625,-2.39076953,-0.24758212,0.3703961242499999,-0.05984122425,0.0045
03:45:20,-0.64742187,1.11120368,3.07720873,-0.42058286,0.42916304,0.28772401,-1.50002059,-31.89865296,-3.5881102,164.9609547,0.9355701018,0.8618385135,-2.386225756,-0.241859904,0.3678686531,-0.0632773351,0.0045
03:45:20,-0.648657015,1.10366796,3.073398185,-0.4142706699999999,0.42606288,0.287990345,-1.482794355,-31.89438462,-3.5607534,163.20470215,0.9334748521,0.8545689907499999,-2.381681982,-0.236137688,0.36534118195,-0.06671344595,0.0045
03:45:20,-0.64989216,1.09613224,3.06958764,-0.4079584799999999,0.42296272,0.28825668,-1.46556812,-31.89011628,-3.5333966,161.4484496,0.9313796024,0.847299468,-2.377138208,-0.230415472,0.3628137107999999,-0.0701495568,0.0045
03:45:20,-0.651127305,1.0885965199999998,3.065777095,-0.4016462899999999,0.41986256,0.288523015,-1.448341885,-31.88584794,-3.5060398,159.69219705,0.9292843527,0.84002994525,-2.372594434,-0.224693256,0.36028623965,-0.07358566765,0.0045
03:45:20,-0.65236245,1.0810608,3.06196655,-0.3953340999999999,0.4167624,0.28878935,-1.43111565,-31.8815796,-3.478683,157.9359445,0.927189103,0.8327604224999999,-2.36805066,-0.21897104,0.3577587685,-0.0770217785,0.0045
03:45:20,-0.653597595,1.07352508,3.058156005,-0.3890219099999999,0.41366224,0.289055685,-1.413889415,-31.87731126,-3.4513262,156.17969195,0.9250938533,0.8254908997499999,-2.363506886,-0.213248824,0.35523129735,-0.08045788935,0.0045
03:45:20,-0.65483274,1.06598936,3.05434546,-0.38270972,0.41056208,0.28932202,-1.39666318,-31.87304292,-3.4239694,154.4234394,0.9229986036,0.818221377,-2.358963112,-0.207526608,0.3527038261999999,-0.0838940002,0.0045
03:45:20,-0.656067885,1.05845364,3.050534915,-0.37639753,0.40746192,0.289588355,-1.379436945,-31.86877458,-3.3966126,152.66718685,0.9209033539,0.8109518542499999,-2.354419338,-0.201804392,0.35017635505,-0.08733011105,0.0045
03:45:20,-0.65730303,1.0509179199999998,3.04672437,-0.37008534,0.40436176,0.2898546899999999,-1.36221071,-31.86450624,-3.3692558,150.9109343,0.9188081042,0.8036823314999999,-2.349875564,-0.196082176,0.3476488839,-0.0907662219,0.0045
03:45:20,-0.658538175,1.0433822,3.042913825,-0.36377315,0.4012616,0.290121025,-1.344984475,-31.8602379,-3.341899,149.15468175,0.9167128545,0.79641280875,-2.34533179,-0.19035996,0.3451214127499999,-0.09420233275,0.0045
03:45:20,-0.65977332,1.03584648,3.03910328,-0.35746096,0.39816144,0.29038736,-1.32775824,-31.85596956,-3.3145422,147.3984292,0.9146176048,0.7891432859999999,-2.340788016,-0.184637744,0.3425939416,-0.0976384436,0.0045
03:45:20,-0.661008465,1.02831076,3.035292735,-0.35114877,0.39506128,0.290653695,-1.310532005,-31.85170122,-3.2871854,145.64217665,0.9125223551,0.7818737632499999,-2.336244242,-0.178915528,0.34006647045,-0.10107455445,0.0045
03:45:20,-0.66224361,1.02077504,3.03148219,-0.3448365799999999,0.39196112,0.29092003,-1.29330577,-31.84743288,-3.2598286,143.8859241,0.9104271054,0.7746042405,-2.331700468,-0.173193312,0.3375389993,-0.1045106653,0.0045
03:45:20,-0.663478755,1.01323932,3.027671645,-0.33852439,0.38886096,0.291186365,-1.276079535,-31.84316454,-3.2324718,142.12967155,0.9083318557,0.76733471775,-2.327156694,-0.167471096,0.33501152815,-0.10794677615,0.0045
03:45:20,-0.6647139,1.0057036,3.0238611,-0.3322121999999999,0.3857608,0.2914527,-1.2588533,-31.8388962,-3.205115,140.373419,0.906236606,0.7600651949999999,-2.32261292,-0.16174888,0.332484057,-0.111382887,0.0045
03:45:20,-0.665949045,0.99816788,3.020050555,-0.32590001,0.38266064,0.291719035,-1.241627065,-31.83462786,-3.1777581999999995,138.61716645,0.9041413563,0.75279567225,-2.318069146,-0.156026664,0.32995658585,-0.11481899785,0.0045
03:45:20,-0.66718419,0.99063216,3.01624001,-0.3195878199999999,0.37956048,0.2919853699999999,-1.22440083,-31.83035952,-3.1504014,136.8609139,0.9020461066,0.7455261495,-2.313525372,-0.150304448,0.3274291146999999,-0.1182551087,0.0045
03:45:20,-0.668419335,0.98309644,3.012429465,-0.3132756299999999,0.3764603199999999,0.292251705,-1.207174595,-31.82609118,-3.1230446,135.10466135,0.8999508569,0.7382566267499999,-2.308981598,-0.144582232,0.32490164355,-0.12169121955,0.0045
03:45:20,-0.66965448,0.97556072,3.00861892,-0.30696344,0.37336016,0.29251804,-1.18994836,-31.82182284,-3.0956878,133.34840880000002,0.8978556072,0.730987104,-2.304437824,-0.138860016,0.3223741724,-0.1251273304,0.0045
03:45:20,-0.670889625,0.968025,3.004808375,-0.30065125,0.37026,0.292784375,-1.172722125,-31.8175545,-3.068331,131.59215625000002,0.8957603575,0.72371758125,-2.29989405,-0.1331378,0.31984670125,-0.12856344125,0.0045
03:45:20,-0.67212477,0.96048928,3.00099783,-0.29433906,0.36715984,0.29305071,-1.15549589,-31.81328616,-3.0409742,129.83590370000002,0.8936651078,0.7164480584999999,-2.295350276,-0.127415584,0.3173192300999999,-0.1319995521,0.0045
03:45:20,-0.673359915,0.95295356,2.997187285,-0.28802687,0.36405968,0.293317045,-1.138269655,-31.80901782,-3.0136174,128.07965115,0.8915698581,0.70917853575,-2.290806502,-0.121693368,0.31479175895,-0.13543566295,0.0045
03:45:20,-0.67459506,0.94541784,2.99337674,-0.28171468,0.36095952,0.29358338,-1.12104342,-31.80474948,-2.9862606,126.3233986,0.8894746084,0.701909013,-2.286262728,-0.115971152,0.3122642878,-0.1388717738,0.0045
03:45:20,-0.675830205,0.93788212,2.989566195,-0.2754024899999999,0.3578593599999999,0.293849715,-1.103817185,-31.80048114,-2.9589038,124.56714605,0.8873793587000001,0.6946394902499999,-2.281718954,-0.110248936,0.3097368166499999,-0.14230788465,0.0045
03:45:20,-0.67706535,0.9303464,2.98575565,-0.2690903,0.3547592,0.29411605,-1.08659095,-31.7962128,-2.931547,122.8108935,0.885284109,0.6873699675,-2.27717518,-0.10452672,0.3072093455,-0.1457439955,0.0045
03:45:20,-0.678300495,0.92281068,2.981945105,-0.2627781099999999,0.35165904,0.2943823849999999,-1.069364715,-31.79194446,-2.9041901999999995,121.05464095,0.8831888593,0.68010044475,-2.272631406,-0.098804504,0.30468187435,-0.14918010635,0.0045
03:45:20,-0.67953564,0.91527496,2.97813456,-0.25646592,0.34855888,0.29464872,-1.05213848,-31.78767612,-2.8768334,119.2983884,0.8810936096,0.6728309219999999,-2.268087632,-0.093082288,0.3021544032,-0.1526162172,0.0045
03:45:20,-0.680770785,0.90773924,2.974324015,-0.2501537299999999,0.34545872,0.294915055,-1.034912245,-31.78340778,-2.8494766,117.54213585,0.8789983599,0.66556139925,-2.263543858,-0.087360072,0.29962693205,-0.15605232805,0.0045
03:45:20,-0.68200593,0.90020352,2.97051347,-0.24384154,0.34235856,0.29518139,-1.01768601,-31.77913944,-2.8221198,115.7858833,0.8769031102,0.6582918765,-2.259000084,-0.081637856,0.2970994609,-0.1594884389,0.0045
03:45:20,-0.683241075,0.8926677999999999,2.966702925,-0.23752935,0.3392583999999999,0.295447725,-1.000459775,-31.7748711,-2.794763,114.02963075,0.8748078605,0.65102235375,-2.25445631,-0.07591564,0.29457198975,-0.16292454975,0.0045
03:45:20,-0.68447622,0.88513208,2.96289238,-0.2312171599999999,0.33615824,0.29571406,-0.98323354,-31.77060276,-2.7674062,112.2733782,0.8727126108000001,0.643752831,-2.249912536,-0.070193424,0.2920445186,-0.1663606606,0.0045
03:45:20,-0.685711365,0.87759636,2.959081835,-0.2249049699999999,0.33305808,0.295980395,-0.966007305,-31.76633442,-2.7400494,110.51712565,0.8706173611,0.63648330825,-2.245368762,-0.064471208,0.28951704745,-0.16979677145,0.0045
03:45:20,-0.68694651,0.8700606399999999,2.95527129,-0.21859278,0.32995792,0.29624673,-0.94878107,-31.76206608,-2.7126926,108.7608731,0.8685221114,0.6292137855,-2.240824988,-0.058748992,0.2869895763,-0.1732328823,0.0045
03:45:20,-0.688181655,0.86252492,2.951460745,-0.21228059,0.32685776,0.2965130649999999,-0.931554835,-31.75779774,-2.6853358,107.00462055,0.8664268617,0.62194426275,-2.236281214,-0.053026776,0.28446210515,-0.17666899315,0.0045
03:45:20,-0.6894168,0.8549892,2.9476502,-0.2059684,0.3237576,0.2967793999999999,-0.9143286,-31.7535294,-2.657979,105.248368,0.864331612,0.61467474,-2.23173744,-0.04730456,0.2819346339999999,-0.180105104,0.0045
03:45:20,-0.690651945,0.84745348,2.943839655,-0.19965621,0.3206574399999999,0.297045735,-0.897102365,-31.74926106,-2.6306221999999995,103.49211545,0.8622363623,0.60740521725,-2.227193666,-0.041582344,0.27940716285,-0.18354121485,0.0045
03:45:20,-0.69188709,0.83991776,2.94002911,-0.19334402,0.31755728,0.29731207,-0.87987613,-31.74499272,-2.6032654,101.7358629,0.8601411126,0.6001356945,-2.222649892,-0.035860128,0.2768796917,-0.1869773257,0.0045
03:45:20,-0.693122235,0.8323820399999999,2.936218565,-0.18703183,0.31445712,0.297578405,-0.862649895,-31.74072438,-2.5759086,99.97961035,0.8580458629000001,0.59286617175,-2.218106118,-0.030137912,0.2743522205499999,-0.19041343655,0.0045
03:45:20,-0.69435738,0.82484632,2.93240802,-0.18071964,0.31135696,0.29784474,-0.84542366,-31.73645604,-2.5485518,98.2233578,0.8559506132,0.585596649,-2.213562344,-0.024415696,0.2718247494,-0.1938495474,0.0045
03:45:20,-0.695592525,0.8173106,2.928597475,-0.1744074499999999,0.3082568,0.298111075,-0.828197425,-31.7321877,-2.521195,96.46710525,0.8538553635,0.57832712625,-2.20901857,-0.01869348,0.26929727825,-0.19728565825,0.0045
03:45:20,-0.69682767,0.80977488,2.92478693,-0.1680952599999999,0.30515664,0.29837741,-0.81097119,-31.72791936,-2.4938382,94.7108527,0.8517601138,0.5710576034999999,-2.204474796,-0.012971264,0.2667698071,-0.2007217691,0.0045
03:45:20,-0.698062815,0.8022391600000001,2.920976385,-0.1617830699999999,0.3020564799999999,0.298643745,-0.793744955,-31.72365102,-2.4664814,92.95460015,0.8496648641,0.56378808075,-2.199931022,-0.007249048,0.26424233595,-0.20415787995,0.0045
03:45:20,-0.69929796,0.7947034399999999,2.91716584,-0.1554708799999999,0.29895632,0.2989100799999999,-0.77651872,-31.71938268,-2.4391245999999995,91.1983476,0.8475696144,0.556518558,-2.195387248,-0.001526832,0.2617148648,-0.2075939908,0.0045
03:45:20,-0.700533105,0.78716772,2.913355295,-0.1491586899999999,0.29585616,0.299176415,-0.759292485,-31.71511434,-2.4117678,89.44209505,0.8454743647,0.5492490352499999,-2.190843474,0.0041953839999999,0.25918739365,-0.21103010165,0.0045
03:45:20,-0.70176825,0.779632,2.90954475,-0.1428465,0.292756,0.29944275,-0.74206625,-31.710846,-2.384411,87.6858425,0.8433791150000001,0.5419795125,-2.1862997,0.0099175999999999,0.2566599225,-0.2144662125,0.0045
03:45:20,-0.703003395,0.77209628,2.905734205,-0.13653431,0.28965584,0.299709085,-0.724840015,-31.70657766,-2.3570541999999994,85.92958995000001,0.8412838653,0.5347099897500001,-2.181755926,0.0156398159999999,0.2541324513499999,-0.21790232335,0.0045
03:45:20,-0.70423854,0.7645605600000001,2.90192366,-0.13022212,0.28655568,0.29997542,-0.70761378,-31.70230932,-2.3296974,84.17333740000001,0.8391886156,0.5274404669999999,-2.177212152,0.0213620319999999,0.2516049802,-0.2213384342,0.0045
03:45:20,-0.705473685,0.7570248399999999,2.898113115,-0.12390993,0.2834555199999999,0.300241755,-0.690387545,-31.69804098,-2.3023406,82.41708485000001,0.8370933659,0.52017094425,-2.172668378,0.0270842479999999,0.24907750905,-0.22477454505,0.0045
03:45:20,-0.70670883,0.74948912,2.89430257,-0.11759774,0.2803553599999999,0.30050809,-0.67316131,-31.69377264,-2.2749838,80.6608323,0.8349981162,0.5129014215000001,-2.168124604,0.0328064639999999,0.2465500379,-0.2282106559,0.0045
03:45:20,-0.7079439750000001,0.7419534,2.890492025,-0.11128555,0.2772552,0.300774425,-0.655935075,-31.6895043,-2.247627,78.90457975,0.8329028665,0.5056318987499999,-2.16358083,0.0385286799999999,0.24402256675,-0.23164676675,0.0045
03:45:20,-0.70917912,0.73441768,2.88668148,-0.10497336,0.27415504,0.30104076,-0.63870884,-31.68523596,-2.2202702,77.1483272,0.8308076168,0.498362376,-2.159037056,0.0442508959999999,0.2414950956,-0.2350828776,0.0045
03:45:20,-0.710414265,0.72688196,2.882870935,-0.09866117,0.27105488,0.3013070949999999,-0.621482605,-31.68096762,-2.1929134,75.39207465,0.8287123671000001,0.49109285325,-2.154493282,0.0499731119999999,0.23896762445,-0.23851898845,0.0045
03:45:20,-0.71164941,0.7193462399999999,2.87906039,-0.0923489799999999,0.26795472,0.30157343,-0.60425637,-31.67669928,-2.1655565999999995,73.6358221,0.8266171174,0.4838233305,-2.149949508,0.0556953279999999,0.2364401533,-0.2419550993,0.0045
03:45:20,-0.712884555,0.71181052,2.875249845,-0.0860367899999999,0.2648545599999999,0.301839765,-0.587030135,-31.67243094,-2.1381998,71.87956955,0.8245218677,0.47655380775,-2.145405734,0.0614175439999999,0.23391268215,-0.24539121015,0.0045
03:45:20,-0.7141197,0.7042748,2.8714393,-0.0797245999999999,0.2617543999999999,0.3021061,-0.5698038999999999,-31.6681626,-2.110843,70.123317,0.822426618,0.4692842849999999,-2.14086196,0.0671397599999999,0.231385211,-0.248827321,0.0045
03:45:20,-0.715354845,0.69673908,2.867628755,-0.0734124099999999,0.25865424,0.302372435,-0.552577665,-31.66389426,-2.0834862,68.36706445,0.8203313683,0.46201476225,-2.136318186,0.0728619759999999,0.22885773985,-0.25226343185,0.0045
03:45:20,-0.71658999,0.68920336,2.86381821,-0.0671002199999999,0.25555408,0.30263877,-0.53535143,-31.65962592,-2.0561294,66.6108119,0.8182361186,0.4547452395,-2.131774412,0.0785841919999999,0.2263302687,-0.2556995427,0.0045
03:45:20,-0.717825135,0.68166764,2.860007665,-0.0607880299999999,0.25245392,0.302905105,-0.5181251950000001,-31.65535758,-2.0287726,64.85455935,0.8161408689,0.44747571675,-2.127230638,0.0843064079999999,0.22380279755,-0.25913565355,0.0045
03:45:20,-0.71906028,0.67413192,2.85619712,-0.05447584,0.2493537599999999,0.30317144,-0.50089896,-31.65108924,-2.0014158,63.0983068,0.8140456192000001,0.440206194,-2.122686864,0.0900286239999999,0.2212753264,-0.2625717644,0.0045
03:45:20,-0.720295425,0.6665962,2.852386575,-0.04816365,0.2462536,0.303437775,-0.4836727249999999,-31.6468209,-1.974059,61.34205425,0.8119503695,0.43293667125,-2.11814309,0.0957508399999999,0.21874785525,-0.26600787525,0.0045
03:45:20,-0.72153057,0.65906048,2.84857603,-0.04185146,0.2431534399999999,0.3037041099999999,-0.46644649,-31.64255256,-1.9467022,59.585801700000005,0.8098551198,0.4256671485,-2.113599316,0.1014730559999999,0.2162203841,-0.2694439861,0.0045
03:45:20,-0.722765715,0.65152476,2.844765485,-0.03553927,0.2400532799999999,0.303970445,-0.4492202549999999,-31.63828422,-1.9193454,57.829549150000005,0.8077598701,0.41839762575,-2.109055542,0.1071952719999999,0.21369291295,-0.27288009695,0.0045
03:45:20,-0.72400086,0.64398904,2.84095494,-0.02922708,0.23695312,0.30423678,-0.4319940200000001,-31.63401588,-1.8919886,56.073296600000006,0.8056646204,0.411128103,-2.104511768,0.1129174879999999,0.2111654418,-0.2763162078,0.0045
03:45:20,-0.725236005,0.63645332,2.837144395,-0.02291489,0.2338529599999999,0.304503115,-0.414767785,-31.62974754,-1.8646318,54.31704405000001,0.8035693707,0.40385858025,-2.099967994,0.1186397039999999,0.20863797065,-0.27975231865,0.0045
03:45:20,-0.7264711500000001,0.6289176,2.83333385,-0.0166027,0.2307527999999999,0.30476945,-0.3975415499999999,-31.6254792,-1.837275,52.56079150000001,0.801474121,0.3965890574999999,-2.09542422,0.1243619199999999,0.2061104995,-0.2831884295,0.0045
03:45:20,-0.7277062950000001,0.62138188,2.829523305,-0.0102905099999999,0.22765264,0.305035785,-0.380315315,-31.62121086,-1.8099182,50.80453895000001,0.7993788713000001,0.38931953475,-2.090880446,0.1300841359999999,0.20358302835,-0.28662454035,0.0045
03:45:20,-0.72894144,0.61384616,2.82571276,-0.0039783199999999,0.2245524799999999,0.30530212,-0.3630890799999999,-31.61694252,-1.7825613999999996,49.04828640000001,0.7972836216,0.382050012,-2.086336672,0.1358063519999999,0.2010555572,-0.2900606512,0.0045
03:45:20,-0.730176585,0.60631044,2.821902215,0.00233387,0.2214523199999999,0.305568455,-0.3458628450000001,-31.61267418,-1.7552045999999997,47.29203385,0.7951883719,0.3747804892499999,-2.081792898,0.1415285679999999,0.19852808605,-0.29349676205,0.0045
03:45:20,-0.73141173,0.59877472,2.81809167,0.00864606,0.21835216,0.30583479,-0.32863661,-31.60840584,-1.7278477999999995,45.5357813,0.7930931222,0.3675109665,-2.077249124,0.1472507839999999,0.1960006149,-0.2969328729,0.0045
03:45:20,-0.732646875,0.591239,2.814281125,0.01495825,0.2152519999999999,0.306101125,-0.3114103749999999,-31.6041375,-1.7004909999999995,43.77952875,0.7909978725,0.36024144375,-2.07270535,0.1529729999999999,0.19347314375,-0.30036898375,0.0045
03:45:20,-0.73388202,0.58370328,2.81047058,0.02127044,0.2121518399999999,0.30636746,-0.29418414,-31.59986916,-1.6731341999999998,42.0232762,0.7889026228,0.3529719209999999,-2.068161576,0.1586952159999999,0.1909456726,-0.3038050946,0.0045
03:45:20,-0.735117165,0.57616756,2.806660035,0.0275826299999999,0.20905168,0.306633795,-0.2769579049999999,-31.59560082,-1.6457773999999996,40.26702365,0.7868073731,0.34570239825,-2.063617802,0.1644174319999999,0.18841820145,-0.30724120545,0.0045
03:45:20,-0.73635231,0.56863184,2.80284949,0.0338948199999999,0.2059515199999999,0.30690013,-0.2597316700000001,-31.59133248,-1.6184206,38.5107711,0.7847121234000001,0.3384328755,-2.059074028,0.1701396479999999,0.1858907303,-0.3106773163,0.0045
03:45:20,-0.737587455,0.56109612,2.799038945,0.0402070099999999,0.2028513599999999,0.307166465,-0.242505435,-31.58706414,-1.5910637999999997,36.75451855,0.7826168737,0.33116335275,-2.054530254,0.1758618639999999,0.18336325915,-0.31411342715,0.0045
03:45:20,-0.7388226,0.5535604000000001,2.7952284,0.0465191999999999,0.1997511999999999,0.3074328,-0.2252791999999999,-31.5827958,-1.5637069999999995,34.998266,0.780521624,0.32389383,-2.04998648,0.1815840799999999,0.180835788,-0.3175495380000001,0.0045
03:45:20,-0.740057745,0.54602468,2.791417855,0.05283139,0.19665104,0.307699135,-0.208052965,-31.57852746,-1.5363501999999998,33.24201345,0.7784263743,0.31662430725,-2.045442706,0.1873062959999999,0.17830831685,-0.3209856488500001,0.0045
03:45:20,-0.74129289,0.53848896,2.78760731,0.0591435799999999,0.1935508799999999,0.30796547,-0.1908267299999999,-31.57425912,-1.5089933999999996,31.4857609,0.7763311246,0.3093547845,-2.040898932,0.1930285119999999,0.1757808457,-0.3244217597,0.0045
03:45:20,-0.742528035,0.53095324,2.783796765,0.06545577,0.1904507199999999,0.3082318049999999,-0.173600495,-31.56999078,-1.4816366,29.729508350000003,0.7742358749,0.30208526175,-2.036355158,0.1987507279999999,0.17325337455,-0.32785787055,0.0045
03:45:20,-0.74376318,0.52341752,2.77998622,0.0717679599999999,0.18735056,0.30849814,-0.15637426,-31.56572244,-1.4542797999999997,27.973255800000004,0.7721406252,0.294815739,-2.031811384,0.2044729439999999,0.1707259034,-0.3312939814,0.0045
03:45:20,-0.7449983250000001,0.5158818000000001,2.776175675,0.07808015,0.1842503999999999,0.308764475,-0.1391480250000001,-31.5614541,-1.426923,26.217003250000005,0.7700453755000001,0.28754621625,-2.02726761,0.2101951599999999,0.16819843225,-0.33473009225,0.0045
03:45:20,-0.74623347,0.50834608,2.77236513,0.0843923399999999,0.1811502399999999,0.30903081,-0.12192179,-31.55718576,-1.3995661999999998,24.46075070000001,0.7679501258,0.2802766935,-2.022723836,0.2159173759999999,0.1656709611,-0.3381662031,0.0045
03:45:20,-0.7474686150000001,0.50081036,2.768554585,0.09070453,0.17805008,0.309297145,-0.1046955549999999,-31.55291742,-1.3722093999999996,22.704498150000006,0.7658548761,0.27300717075,-2.018180062,0.2216395919999999,0.16314348995,-0.34160231395,0.0045
03:45:20,-0.74870376,0.49327464,2.76474404,0.0970167199999999,0.1749499199999999,0.30956348,-0.08746932,-31.54864908,-1.3448525999999998,20.948245600000007,0.7637596264,0.265737648,-2.013636288,0.2273618079999999,0.1606160188,-0.3450384248000001,0.0045
03:45:20,-0.749938905,0.4857389199999999,2.760933495,0.10332891,0.1718497599999999,0.309829815,-0.0702430849999999,-31.54438074,-1.3174957999999997,19.191993050000008,0.7616643767,0.25846812525,-2.009092514,0.2330840239999999,0.15808854765,-0.3484745356500001,0.0045
03:45:20,-0.75117405,0.4782032,2.75712295,0.1096411,0.1687496,0.31009615,-0.0530168500000001,-31.5401124,-1.290139,17.43574050000001,0.759569127,0.2511986025,-2.00454874,0.2388062399999999,0.1555610765,-0.3519106465,0.0045
03:45:20,-0.752409195,0.47066748,2.753312405,0.1159532899999999,0.1656494399999999,0.3103624849999999,-0.035790615,-31.53584406,-1.2627821999999995,15.67948795000001,0.7574738773,0.24392907975,-2.000004966,0.2445284559999999,0.15303360535,-0.35534675735,0.0045
03:45:20,-0.75364434,0.46313176,2.74950186,0.12226548,0.1625492799999999,0.3106288199999999,-0.0185643799999999,-31.53157572,-1.2354253999999996,13.92323540000001,0.7553786276000001,0.2366595569999999,-1.995461192,0.2502506719999999,0.1505061342,-0.3587828682,0.0045
03:45:20,-0.754879485,0.45559604,2.745691315,0.1285776699999999,0.15944912,0.310895155,-0.001338145,-31.52730738,-1.2080685999999998,12.16698285000001,0.7532833779,0.22939003425,-1.990917418,0.2559728879999999,0.14797866305,-0.36221897905,0.0045
03:45:20,-0.75611463,0.44806032,2.74188077,0.13488986,0.1563489599999999,0.31116149,0.01588809,-31.52303904,-1.1807117999999996,10.410730300000012,0.7511881282,0.2221205115,-1.986373644,0.2616951039999999,0.1454511919,-0.3656550899,0.0045
03:45:20,-0.757349775,0.4405246,2.738070225,0.1412020499999999,0.1532487999999999,0.311427825,0.0331143249999998,-31.5187707,-1.153355,8.654477750000012,0.7490928785,0.2148509887499999,-1.98182987,0.2674173199999999,0.14292372075,-0.36909120075,0.0045
