Timestamp,linacce_x,linacce_y,linacce_z,gyro_x,gyro_y,gyro_z,X-magnetometer,Y-magnetometer,Z-magnetometer,Yaw, worldXAccel,worldYAccel,worldZAccel,worldXgyro,worldYgyro,worldZgyro,Distance
03:43:03,1.051559,1.464774,-2.013737,-0.052558,0.338033,-0.125098,-4.365685,30.015965,-29.258293,0.118800364,-0.7790853,1.1253989,-2.0586848,-0.09140961,0.32468763,-0.034432035,0.0045
03:43:03,1.048699205,1.458909985,-2.00289498,-0.05218513,0.336179295,-0.1241871299999999,-4.404368815,30.000029365,-29.27304428,0.19953297218,-0.772936344,1.1212339243,-2.049829099,-0.09067414865,0.32290042995,-0.03410815409,0.0045
03:43:03,1.04583941,1.45304597,-1.99205296,-0.05181226,0.3343255899999999,-0.1232762599999999,-4.44305263,29.98409373,-29.28779556,0.28026558036,-0.766787388,1.1170689486,-2.040973398,-0.0899386873,0.3211132299,-0.03378427318,0.0045
03:43:03,1.042979615,1.447181955,-1.98121094,-0.05143939,0.3324718849999999,-0.1223653899999999,-4.481736445,29.968158095,-29.30254684,0.36099818854,-0.760638432,1.1129039729,-2.032117697,-0.08920322595,0.31932602985,-0.03346039227,0.0045
03:43:03,1.04011982,1.44131794,-1.97036892,-0.05106652,0.33061818,-0.1214545199999999,-4.52042026,29.95222246,-29.31729812,0.44173079672,-0.7544894759999999,1.1087389972,-2.023261996,-0.0884677646,0.3175388298,-0.03313651136,0.0045
03:43:03,1.037260025,1.435453925,-1.9595269,-0.05069365,0.3287644749999999,-0.1205436499999999,-4.5591040750000005,29.936286825,-29.3320494,0.5224634049000001,-0.74834052,1.1045740215,-2.014406295,-0.08773230325,0.31575162975,-0.03281263045,0.0045
03:43:03,1.03440023,1.42958991,-1.94868488,-0.05032078,0.3269107699999999,-0.11963278,-4.59778789,29.92035119,-29.34680068,0.6031960130800001,-0.742191564,1.1004090458,-2.005550594,-0.0869968419,0.3139644297,-0.03248874954,0.0045
03:43:03,1.031540435,1.423725895,-1.93784286,-0.04994791,0.325057065,-0.1187219099999999,-4.636471705,29.904415555,-29.36155196,0.6839286212600001,-0.736042608,1.0962440701,-1.996694893,-0.08626138055,0.31217722965,-0.03216486863,0.0045
03:43:03,1.02868064,1.41786188,-1.92700084,-0.04957504,0.32320336,-0.1178110399999999,-4.67515552,29.88847992,-29.37630324,0.7646612294400001,-0.729893652,1.0920790944,-1.987839192,-0.0855259192,0.3103900296,-0.03184098772,0.0045
03:43:03,1.025820845,1.411997865,-1.91615882,-0.04920217,0.3213496549999999,-0.1169001699999999,-4.713839335,29.872544285,-29.39105452,0.8453938376200002,-0.723744696,1.0879141187,-1.978983491,-0.08479045785,0.30860282955,-0.03151710681,0.0045
03:43:03,1.02296105,1.40613385,-1.9053168,-0.0488293,0.31949595,-0.1159892999999999,-4.75252315,29.85660865,-29.4058058,0.9261264458,-0.7175957399999999,1.083749143,-1.97012779,-0.0840549965,0.3068156295,-0.0311932259,0.0045
03:43:03,1.020101255,1.400269835,-1.89447478,-0.04845643,0.317642245,-0.1150784299999999,-4.791206965,29.840673015,-29.42055708,1.0068590539800002,-0.7114467839999999,1.0795841673,-1.961272089,-0.08331953515,0.30502842945,-0.03086934499,0.0045
03:43:03,1.01724146,1.39440582,-1.88363276,-0.04808356,0.3157885399999999,-0.1141675599999999,-4.82989078,29.82473738,-29.43530836,1.08759166216,-0.705297828,1.0754191916,-1.952416388,-0.0825840738,0.3032412294,-0.03054546408,0.0045
03:43:03,1.014381665,1.388541805,-1.87279074,-0.04771069,0.3139348349999999,-0.11325669,-4.868574595,29.808801745,-29.45005964,1.16832427034,-0.699148872,1.0712542159,-1.943560687,-0.08184861245,0.30145402935,-0.03022158317,0.0045
03:43:03,1.01152187,1.38267779,-1.86194872,-0.04733782,0.31208113,-0.1123458199999999,-4.90725841,29.79286611,-29.46481092,1.24905687852,-0.692999916,1.0670892402,-1.934704986,-0.0811131511,0.2996668293,-0.02989770226,0.0045
03:43:03,1.008662075,1.376813775,-1.8511067,-0.04696495,0.310227425,-0.1114349499999999,-4.9459422250000005,29.776930475,-29.4795622,1.3297894867000002,-0.68685096,1.0629242645,-1.925849285,-0.08037768975,0.29787962925,-0.02957382135,0.0045
03:43:03,1.00580228,1.37094976,-1.84026468,-0.04659208,0.3083737199999999,-0.1105240799999999,-4.98462604,29.76099484,-29.49431348,1.41052209488,-0.680702004,1.0587592888,-1.916993584,-0.0796422284,0.2960924292,-0.02924994044,0.0045
03:43:03,1.002942485,1.365085745,-1.82942266,-0.04621921,0.306520015,-0.1096132099999999,-5.023309855,29.745059205,-29.50906476,1.49125470306,-0.6745530479999999,1.0545943131,-1.908137883,-0.07890676705,0.29430522915,-0.02892605953,0.0045
03:43:03,1.00008269,1.35922173,-1.81858064,-0.04584634,0.30466631,-0.1087023399999999,-5.06199367,29.72912357,-29.52381604,1.5719873112400002,-0.668404092,1.0504293374,-1.899282182,-0.0781713057,0.2925180291,-0.0286021786199999,0.0045
03:43:03,0.997222895,1.353357715,-1.80773862,-0.04547347,0.3028126049999999,-0.1077914699999999,-5.100677485,29.713187935,-29.53856732,1.6527199194200002,-0.662255136,1.0462643617,-1.890426481,-0.07743584435,0.29073082905,-0.02827829771,0.0045
03:43:03,0.9943631,1.3474937,-1.7968966,-0.0451006,0.3009589,-0.1068805999999999,-5.1393613,29.6972523,-29.5533186,1.7334525276,-0.65610618,1.042099386,-1.88157078,-0.076700383,0.288943629,-0.0279544168,0.0045
03:43:03,0.991503305,1.341629685,-1.7860545799999998,-0.04472773,0.299105195,-0.1059697299999999,-5.178045115,29.681316665,-29.56806988,1.8141851357800003,-0.649957224,1.0379344103,-1.872715079,-0.07596492165,0.28715642895,-0.02763053589,0.0045
03:43:03,0.98864351,1.33576567,-1.77521256,-0.0443548599999999,0.2972514899999999,-0.1050588599999999,-5.21672893,29.66538103,-29.58282116,1.89491774396,-0.643808268,1.0337694346,-1.863859378,-0.0752294603,0.2853692289,-0.0273066549799999,0.0045
03:43:03,0.985783715,1.329901655,-1.7643705399999998,-0.04398199,0.2953977849999999,-0.1041479899999999,-5.255412745,29.649445395,-29.59757244,1.97565035214,-0.637659312,1.0296044589,-1.855003677,-0.07449399895,0.28358202885,-0.02698277407,0.0045
03:43:03,0.98292392,1.32403764,-1.75352852,-0.04360912,0.29354408,-0.1032371199999999,-5.29409656,29.633509760000003,-29.61232372,2.056382960320001,-0.6315103559999999,1.0254394832,-1.846147976,-0.0737585376,0.2817948288,-0.02665889316,0.0045
03:43:03,0.980064125,1.318173625,-1.7426865,-0.04323625,0.2916903749999999,-0.1023262499999999,-5.3327803750000005,29.617574125,-29.627075,2.1371155685000005,-0.6253614,1.0212745075,-1.837292275,-0.07302307625,0.28000762875,-0.0263350122499999,0.0045
03:43:03,0.97720433,1.31230961,-1.73184448,-0.04286338,0.2898366699999999,-0.1014153799999999,-5.37146419,29.601638490000003,-29.64182628,2.2178481766800004,-0.619212444,1.0171095318,-1.828436574,-0.0722876149,0.2782204287,-0.02601113134,0.0045
03:43:03,0.974344535,1.306445595,-1.7210024599999998,-0.04249051,0.287982965,-0.1005045099999999,-5.410148005,29.585702855,-29.65657756,2.2985807848600004,-0.613063488,1.0129445561,-1.819580873,-0.07155215355,0.27643322865,-0.02568725043,0.0045
03:43:03,0.97148474,1.30058158,-1.71016044,-0.04211764,0.28612926,-0.0995936399999999,-5.4488318200000005,29.569767220000003,-29.67132884,2.3793133930400003,-0.606914532,1.0087795804,-1.810725172,-0.0708166922,0.2746460286,-0.0253633695199999,0.0045
03:43:03,0.968624945,1.294717565,-1.69931842,-0.04174477,0.2842755549999999,-0.0986827699999999,-5.487515635,29.553831585,-29.68608012,2.4600460012200007,-0.600765576,1.0046146047,-1.801869471,-0.07008123085,0.27285882855,-0.02503948861,0.0045
03:43:03,0.96576515,1.28885355,-1.6884764,-0.0413719,0.28242185,-0.0977718999999999,-5.52619945,29.537895950000003,-29.7008314,2.5407786094000007,-0.59461662,1.000449629,-1.79301377,-0.0693457695,0.2710716285,-0.0247156077,0.0045
03:43:03,0.962905355,1.282989535,-1.67763438,-0.04099903,0.280568145,-0.0968610299999999,-5.564883265000001,29.521960315,-29.71558268,2.6215112175800006,-0.588467664,0.9962846533,-1.784158069,-0.06861030815,0.26928442845,-0.02439172679,0.0045
03:43:03,0.96004556,1.27712552,-1.66679236,-0.04062616,0.2787144399999999,-0.0959501599999999,-5.60356708,29.506024680000003,-29.73033396,2.702243825760001,-0.582318708,0.9921196776,-1.775302368,-0.0678748468,0.2674972284,-0.02406784588,0.0045
03:43:03,0.957185765,1.271261505,-1.65595034,-0.04025329,0.2768607349999999,-0.0950392899999999,-5.642250895,29.490089045,-29.74508524,2.7829764339400005,-0.576169752,0.9879547019,-1.766446667,-0.06713938545,0.26571002835,-0.02374396497,0.0045
03:43:03,0.95432597,1.26539749,-1.6451083199999998,-0.03988042,0.27500703,-0.0941284199999999,-5.68093471,29.47415341,-29.75983652,2.8637090421200004,-0.570020796,0.9837897262,-1.757590966,-0.0664039241,0.2639228283,-0.02342008406,0.0045
03:43:03,0.951466175,1.259533475,-1.6342663,-0.03950755,0.273153325,-0.0932175499999999,-5.7196185250000005,29.458217775,-29.7745878,2.9444416503000004,-0.56387184,0.9796247505,-1.748735265,-0.06566846275,0.26213562825,-0.02309620315,0.0045
03:43:03,0.94860638,1.25366946,-1.62342428,-0.03913468,0.2712996199999999,-0.0923066799999999,-5.75830234,29.44228214,-29.78933908,3.0251742584800008,-0.557722884,0.9754597748,-1.739879564,-0.0649330014,0.2603484282,-0.0227723222399999,0.0045
03:43:03,0.945746585,1.247805445,-1.61258226,-0.03876181,0.269445915,-0.09139581,-5.796986155,29.426346505,-29.80409036,3.1059068666600007,-0.551573928,0.9712947991,-1.731023863,-0.06419754005,0.25856122815,-0.02244844133,0.0045
03:43:03,0.94288679,1.24194143,-1.6017402399999998,-0.0383889399999999,0.26759221,-0.0904849399999999,-5.83566997,29.41041087,-29.81884164,3.1866394748400007,-0.545424972,0.9671298234,-1.722168162,-0.0634620787,0.2567740281,-0.02212456042,0.0045
03:43:03,0.940026995,1.236077415,-1.59089822,-0.03801607,0.2657385049999999,-0.0895740699999999,-5.874353785,29.394475235,-29.83359292,3.2673720830200006,-0.539276016,0.9629648477,-1.713312461,-0.06272661735,0.25498682805,-0.0218006795099999,0.0045
03:43:03,0.9371672,1.2302134,-1.5800562,-0.0376432,0.2638848,-0.0886631999999999,-5.9130376,29.3785396,-29.8483442,3.3481046912000005,-0.53312706,0.958799872,-1.70445676,-0.061991156,0.253199628,-0.0214767986,0.0045
03:43:03,0.934307405,1.224349385,-1.56921418,-0.03727033,0.262031095,-0.0877523299999999,-5.951721415,29.362603965,-29.86309548,3.4288372993800005,-0.526978104,0.9546348963,-1.695601059,-0.06125569465,0.25141242795,-0.02115291769,0.0045
03:43:03,0.93144761,1.21848537,-1.55837216,-0.03689746,0.2601773899999999,-0.0868414599999999,-5.99040523,29.34666833,-29.87784676,3.509569907560001,-0.520829148,0.9504699206,-1.686745358,-0.0605202333,0.2496252279,-0.0208290367799999,0.0045
03:43:03,0.928587815,1.212621355,-1.54753014,-0.0365245899999999,0.2583236849999999,-0.0859305899999999,-6.029089045,29.330732695,-29.89259804,3.590302515740001,-0.5146801919999999,0.9463049449,-1.677889657,-0.05978477195,0.24783802785,-0.02050515587,0.0045
03:43:03,0.92572802,1.20675734,-1.53668812,-0.03615172,0.25646998,-0.08501972,-6.06777286,29.31479706,-29.90734932,3.6710351239200008,-0.508531236,0.9421399692,-1.6690339559999998,-0.0590493106,0.2460508277999999,-0.02018127496,0.0045
03:43:03,0.922868225,1.200893325,-1.5258461,-0.03577885,0.2546162749999999,-0.0841088499999999,-6.106456675,29.298861425,-29.9221006,3.7517677321000007,-0.50238228,0.9379749935,-1.660178255,-0.05831384925,0.24426362775,-0.0198573940499999,0.0045
03:43:03,0.92000843,1.19502931,-1.51500408,-0.03540598,0.2527625699999999,-0.0831979799999999,-6.14514049,29.28292579,-29.93685188,3.8325003402800006,-0.496233324,0.9338100178,-1.651322554,-0.0575783879,0.2424764277,-0.01953351314,0.0045
03:43:03,0.917148635,1.189165295,-1.50416206,-0.03503311,0.250908865,-0.0822871099999999,-6.183824305,29.266990155,-29.95160316,3.9132329484600006,-0.490084368,0.9296450421,-1.642466853,-0.05684292655,0.24068922765,-0.01920963223,0.0045
03:43:03,0.91428884,1.18330128,-1.49332004,-0.0346602399999999,0.2490551599999999,-0.0813762399999999,-6.2225081200000005,29.25105452,-29.96635444,3.993965556640001,-0.483935412,0.9254800664,-1.6336111519999998,-0.0561074652,0.2389020276,-0.0188857513199999,0.0045
03:43:03,0.911429045,1.177437265,-1.4824780199999998,-0.03428737,0.2472014549999999,-0.0804653699999999,-6.261191935,29.235118885,-29.98110572,4.074698164820001,-0.4777864559999999,0.9213150907,-1.624755451,-0.05537200385,0.23711482755,-0.01856187041,0.0045
03:43:03,0.90856925,1.17157325,-1.471636,-0.0339145,0.2453477499999999,-0.0795544999999999,-6.29987575,29.21918325,-29.995857,4.155430773000001,-0.4716375,0.917150115,-1.61589975,-0.0546365425,0.2353276275,-0.0182379895,0.0045
03:43:03,0.905709455,1.165709235,-1.46079398,-0.03354163,0.243494045,-0.0786436299999999,-6.338559565000001,29.203247615,-30.01060828,4.236163381180001,-0.465488544,0.9129851393,-1.607044049,-0.05390108115,0.23354042745,-0.01791410859,0.0045
03:43:03,0.90284966,1.15984522,-1.44995196,-0.03316876,0.2416403399999999,-0.0777327599999999,-6.37724338,29.18731198,-30.02535956,4.316895989360001,-0.459339588,0.9088201636,-1.598188348,-0.0531656198,0.2317532273999999,-0.0175902276799999,0.0045
03:43:03,0.899989865,1.153981205,-1.4391099399999998,-0.0327958899999999,0.2397866349999999,-0.0768218899999999,-6.415927195,29.171376345,-30.04011084,4.397628597540001,-0.453190632,0.9046551879,-1.589332647,-0.05243015845,0.22996602735,-0.01726634677,0.0045
03:43:03,0.8971300699999999,1.14811719,-1.42826792,-0.03242302,0.23793293,-0.0759110199999999,-6.454611010000001,29.15544071,-30.05486212,4.478361205720001,-0.447041676,0.9004902122,-1.580476946,-0.0516946971,0.2281788273,-0.01694246586,0.0045
03:43:03,0.8942702749999999,1.142253175,-1.4174259,-0.03205015,0.2360792249999999,-0.0750001499999999,-6.493294825,29.139505075,-30.0696134,4.559093813900001,-0.44089272,0.8963252365,-1.571621245,-0.05095923575,0.22639162725,-0.0166185849499999,0.0045
03:43:03,0.8914104799999999,1.13638916,-1.40658388,-0.03167728,0.2342255199999999,-0.0740892799999999,-6.53197864,29.12356944,-30.08436468,4.6398264220800005,-0.434743764,0.8921602608,-1.562765544,-0.0502237744,0.2246044272,-0.01629470404,0.0045
03:43:03,0.8885506849999999,1.130525145,-1.3957418599999998,-0.03130441,0.2323718149999999,-0.0731784099999999,-6.570662455000001,29.107633805000003,-30.09911596,4.7205590302600005,-0.428594808,0.8879952850999999,-1.553909843,-0.04948831305,0.22281722715,-0.01597082313,0.0045
03:43:03,0.8856908899999999,1.12466113,-1.38489984,-0.03093154,0.2305181099999999,-0.0722675399999999,-6.60934627,29.09169817,-30.11386724,4.801291638440001,-0.422445852,0.8838303094,-1.545054142,-0.0487528517,0.2210300271,-0.0156469422199999,0.0045
03:43:03,0.8828310949999999,1.118797115,-1.37405782,-0.03055867,0.2286644049999999,-0.0713566699999999,-6.648030085,29.075762535000003,-30.12861852,4.882024246620001,-0.4162968959999999,0.8796653337,-1.5361984409999998,-0.04801739035,0.21924282705,-0.01532306131,0.0045
03:43:03,0.8799712999999999,1.1129331,-1.3632158,-0.0301858,0.2268106999999999,-0.0704457999999999,-6.686713900000001,29.0598269,-30.1433698,4.962756854800001,-0.41014794,0.875500358,-1.52734274,-0.047281929,0.2174556269999999,-0.0149991804,0.0045
03:43:03,0.8771115049999999,1.107069085,-1.35237378,-0.0298129299999999,0.224956995,-0.06953493,-6.725397715,29.043891265000003,-30.15812108,5.043489462980001,-0.403998984,0.8713353823,-1.518487039,-0.04654646765,0.21566842695,-0.0146752994899999,0.0045
03:43:03,0.8742517099999999,1.10120507,-1.34153176,-0.02944006,0.2231032899999999,-0.0686240599999999,-6.76408153,29.02795563,-30.17287236,5.124222071160001,-0.397850028,0.8671704065999999,-1.509631338,-0.0458110063,0.2138812269,-0.0143514185799999,0.0045
03:43:03,0.8713919149999999,1.095341055,-1.33068974,-0.02906719,0.2212495849999999,-0.0677131899999999,-6.802765345,29.012019995000003,-30.18762364,5.204954679340001,-0.391701072,0.8630054308999999,-1.5007756369999998,-0.04507554495,0.21209402685,-0.01402753767,0.0045
03:43:03,0.8685321199999999,1.08947704,-1.3198477199999998,-0.02869432,0.21939588,-0.0668023199999999,-6.84144916,28.99608436,-30.20237492,5.285687287520001,-0.385552116,0.8588404552,-1.491919936,-0.0443400836,0.2103068268,-0.0137036567599999,0.0045
03:43:03,0.8656723249999999,1.083613025,-1.3090057,-0.0283214499999999,0.2175421749999999,-0.0658914499999999,-6.880132975,28.980148725000003,-30.2171262,5.366419895700001,-0.37940316,0.8546754795,-1.483064235,-0.04360462225,0.20851962675,-0.0133797758499999,0.0045
03:43:03,0.8628125299999999,1.07774901,-1.29816368,-0.0279485799999999,0.2156884699999999,-0.0649805799999999,-6.91881679,28.96421309,-30.23187748,5.447152503880001,-0.373254204,0.8505105038,-1.474208534,-0.0428691609,0.2067324267,-0.01305589494,0.0045
03:43:03,0.8599527349999999,1.071884995,-1.28732166,-0.02757571,0.2138347649999999,-0.0640697099999999,-6.957500605,28.948277455000003,-30.24662876,5.527885112060001,-0.367105248,0.8463455281,-1.465352833,-0.04213369955,0.2049452266499999,-0.0127320140299999,0.0045
03:43:03,0.8570929399999999,1.06602098,-1.2764796399999998,-0.02720284,0.2119810599999999,-0.06315884,-6.9961844200000005,28.93234182,-30.26138004,5.608617720240001,-0.360956292,0.8421805523999999,-1.456497132,-0.0413982382,0.2031580265999999,-0.0124081331199999,0.0045
03:43:03,0.8542331449999999,1.060156965,-1.26563762,-0.0268299699999999,0.2101273549999999,-0.0622479699999999,-7.034868235,28.916406185,-30.27613132,5.689350328420001,-0.354807336,0.8380155766999999,-1.447641431,-0.04066277685,0.20137082655,-0.0120842522099999,0.0045
03:43:03,0.8513733499999999,1.05429295,-1.2547956,-0.0264570999999999,0.2082736499999999,-0.0613370999999999,-7.07355205,28.90047055,-30.2908826,5.770082936600001,-0.34865838,0.833850601,-1.43878573,-0.0399273155,0.1995836265,-0.0117603713,0.0045
03:43:03,0.8485135549999999,1.048428935,-1.24395358,-0.02608423,0.2064199449999999,-0.0604262299999999,-7.112235865000001,28.884534915,-30.30563388,5.850815544780001,-0.342509424,0.8296856253,-1.429930029,-0.03919185415,0.19779642645,-0.0114364903899999,0.0045
03:43:03,0.8456537599999999,1.04256492,-1.23311156,-0.02571136,0.2045662399999999,-0.0595153599999999,-7.15091968,28.86859928,-30.32038516,5.931548152960001,-0.336360468,0.8255206495999999,-1.421074328,-0.0384563928,0.1960092264,-0.0111126094799999,0.0045
03:43:03,0.8427939649999999,1.036700905,-1.22226954,-0.0253384899999999,0.2027125349999999,-0.0586044899999999,-7.189603495,28.852663645,-30.33513644,6.012280761140001,-0.330211512,0.8213556739,-1.412218627,-0.03772093145,0.19422202635,-0.01078872857,0.0045
03:43:03,0.8399341699999999,1.03083689,-1.21142752,-0.0249656199999999,0.2008588299999999,-0.0576936199999999,-7.228287310000001,28.83672801,-30.34988772,6.093013369320001,-0.324062556,0.8171906981999999,-1.4033629259999998,-0.0369854701,0.1924348263,-0.0104648476599999,0.0045
03:43:03,0.8370743749999999,1.024972875,-1.2005855,-0.02459275,0.1990051249999999,-0.0567827499999999,-7.266971125,28.820792375,-30.364639,6.173745977500001,-0.3179136,0.8130257224999999,-1.394507225,-0.03625000875,0.19064762625,-0.0101409667499999,0.0045
03:43:03,0.8342145799999999,1.01910886,-1.18974348,-0.02421988,0.1971514199999999,-0.0558718799999999,-7.30565494,28.80485674,-30.37939028,6.254478585680001,-0.311764644,0.8088607468,-1.385651524,-0.0355145474,0.1888604262,-0.00981708584,0.0045
03:43:03,0.8313547849999999,1.013244845,-1.17890146,-0.02384701,0.1952977149999999,-0.0549610099999999,-7.344338755000001,28.788921105,-30.39414156,6.335211193860001,-0.305615688,0.8046957711,-1.376795823,-0.03477908605,0.18707322615,-0.0094932049299999,0.0045
03:43:03,0.8284949899999999,1.00738083,-1.16805944,-0.0234741399999999,0.1934440099999999,-0.0540501399999999,-7.38302257,28.77298547,-30.40889284,6.415943802040001,-0.299466732,0.8005307953999999,-1.3679401219999998,-0.0340436247,0.1852860261,-0.0091693240199999,0.0045
03:43:03,0.8256351949999999,1.001516815,-1.1572174199999998,-0.02310127,0.1915903049999999,-0.0531392699999999,-7.421706385,28.757049835,-30.42364412,6.496676410220001,-0.293317776,0.7963658197,-1.359084421,-0.03330816335,0.18349882605,-0.0088454431099999,0.0045
03:43:03,0.8227753999999999,0.9956528,-1.1463754,-0.0227284,0.1897365999999999,-0.0522283999999999,-7.460390200000001,28.7411142,-30.4383954,6.577409018400001,-0.28716882,0.7922008439999999,-1.35022872,-0.032572702,0.181711626,-0.0085215621999999,0.0045
03:43:03,0.8199156049999999,0.989788785,-1.13553338,-0.02235553,0.1878828949999999,-0.0513175299999999,-7.499074015,28.725178565,-30.45314668,6.658141626580001,-0.281019864,0.7880358682999999,-1.341373019,-0.03183724065,0.17992442595,-0.0081976812899999,0.0045
03:43:03,0.8170558099999999,0.98392477,-1.12469136,-0.0219826599999999,0.1860291899999999,-0.0504066599999999,-7.53775783,28.70924293,-30.46789796,6.738874234760001,-0.274870908,0.7838708926,-1.3325173179999998,-0.0311017793,0.1781372259,-0.0078738003799999,0.0045
03:43:03,0.8141960149999999,0.978060755,-1.1138493399999998,-0.0216097899999999,0.1841754849999999,-0.0494957899999999,-7.576441645000001,28.693307295,-30.48264924,6.819606842940001,-0.268721952,0.7797059169,-1.323661617,-0.03036631795,0.17635002585,-0.0075499194699999,0.0045
03:43:03,0.8113362199999999,0.97219674,-1.10300732,-0.02123692,0.1823217799999999,-0.0485849199999999,-7.61512546,28.67737166,-30.49740052,6.900339451120002,-0.262572996,0.7755409412,-1.314805916,-0.0296308566,0.1745628258,-0.0072260385599999,0.0045
03:43:03,0.8084764249999999,0.966332725,-1.0921653,-0.0208640499999999,0.1804680749999999,-0.0476740499999999,-7.653809275,28.661436025,-30.5121518,6.9810720593000015,-0.2564240399999999,0.7713759655,-1.305950215,-0.0288953952499999,0.17277562575,-0.0069021576499999,0.0045
03:43:03,0.80561663,0.96046871,-1.08132328,-0.0204911799999999,0.1786143699999999,-0.0467631799999999,-7.69249309,28.64550039,-30.52690308,7.0618046674800015,-0.250275084,0.7672109897999999,-1.297094514,-0.0281599339,0.1709884257,-0.00657827674,0.0045
03:43:03,0.802756835,0.954604695,-1.07048126,-0.02011831,0.1767606649999999,-0.0458523099999999,-7.731176905,28.629564755,-30.54165436,7.142537275660001,-0.244126128,0.7630460141,-1.288238813,-0.02742447255,0.16920122565,-0.0062543958299999,0.0045
03:43:03,0.79989704,0.94874068,-1.05963924,-0.0197454399999999,0.1749069599999999,-0.0449414399999999,-7.76986072,28.61362912,-30.55640564,7.223269883840001,-0.237977172,0.7588810384,-1.279383112,-0.0266890112,0.1674140256,-0.0059305149199999,0.0045
03:43:03,0.797037245,0.942876665,-1.04879722,-0.01937257,0.1730532549999999,-0.0440305699999999,-7.808544535,28.597693485,-30.57115692,7.304002492020001,-0.231828216,0.7547160627,-1.2705274109999998,-0.02595354985,0.16562682555,-0.0056066340099999,0.0045
03:43:03,0.79417745,0.93701265,-1.0379552,-0.0189997,0.1711995499999999,-0.0431196999999999,-7.84722835,28.58175785,-30.5859082,7.384735100200001,-0.22567926,0.750551087,-1.26167171,-0.0252180885,0.1638396255,-0.0052827530999999,0.0045
03:43:03,0.791317655,0.931148635,-1.02711318,-0.0186268299999999,0.1693458449999999,-0.0422088299999999,-7.885912165000001,28.565822215,-30.60065948,7.465467708380001,-0.2195303039999999,0.7463861112999999,-1.252816009,-0.02448262715,0.16205242545,-0.0049588721899999,0.0045
03:43:03,0.78845786,0.92528462,-1.01627116,-0.01825396,0.1674921399999999,-0.0412979599999999,-7.92459598,28.549886580000003,-30.61541076,7.546200316560001,-0.2133813479999999,0.7422211355999999,-1.243960308,-0.0237471657999999,0.1602652254,-0.0046349912799999,0.0045
03:43:03,0.785598065,0.919420605,-1.00542914,-0.0178810899999999,0.1656384349999999,-0.0403870899999999,-7.963279795,28.533950945,-30.63016204,7.626932924740001,-0.207232392,0.7380561599,-1.2351046069999998,-0.02301170445,0.15847802535,-0.0043111103699999,0.0045
03:43:03,0.78273827,0.91355659,-0.99458712,-0.0175082199999999,0.1637847299999999,-0.0394762199999999,-8.00196361,28.518015310000003,-30.64491332,7.707665532920001,-0.201083436,0.7338911842,-1.226248906,-0.0222762431,0.1566908253,-0.0039872294599999,0.0045
03:43:03,0.779878475,0.907692575,-0.9837451,-0.01713535,0.1619310249999999,-0.0385653499999999,-8.040647425,28.502079675,-30.6596646,7.788398141100001,-0.19493448,0.7297262085,-1.217393205,-0.02154078175,0.15490362525,-0.0036633485499999,0.0045
03:43:03,0.77701868,0.90182856,-0.97290308,-0.0167624799999999,0.1600773199999999,-0.0376544799999999,-8.07933124,28.486144040000003,-30.67441588,7.869130749280002,-0.188785524,0.7255612328,-1.208537504,-0.0208053204,0.1531164252,-0.0033394676399999,0.0045
03:43:03,0.774158885,0.895964545,-0.96206106,-0.01638961,0.1582236149999999,-0.0367436099999999,-8.118015055,28.470208405,-30.68916716,7.949863357460002,-0.182636568,0.7213962570999999,-1.1996818029999998,-0.02006985905,0.15132922515,-0.0030155867299999,0.0045
03:43:03,0.77129909,0.89010053,-0.95121904,-0.0160167399999999,0.1563699099999999,-0.0358327399999999,-8.15669887,28.454272770000003,-30.70391844,8.030595965640002,-0.1764876119999999,0.7172312813999999,-1.190826102,-0.0193343977,0.1495420251,-0.00269170582,0.0045
03:43:03,0.768439295,0.884236515,-0.94037702,-0.0156438699999999,0.1545162049999999,-0.0349218699999999,-8.195382685,28.438337135,-30.71866972,8.111328573820002,-0.1703386559999999,0.7130663057,-1.181970401,-0.0185989363499999,0.1477548250499999,-0.0023678249099999,0.0045
03:43:03,0.7655795,0.8783725,-0.929535,-0.015271,0.1526624999999999,-0.0340109999999999,-8.2340665,28.422401500000003,-30.733421,8.192061182000002,-0.1641897,0.70890133,-1.1731147,-0.017863475,0.145967625,-0.0020439439999999,0.0045
03:43:03,0.762719705,0.872508485,-0.91869298,-0.0148981299999999,0.1508087949999999,-0.0331001299999999,-8.272750315,28.406465865,-30.74817228,8.272793790180001,-0.158040744,0.7047363543,-1.164258999,-0.01712801365,0.14418042495,-0.0017200630899999,0.0045
03:43:03,0.75985991,0.86664447,-0.90785096,-0.0145252599999999,0.1489550899999999,-0.0321892599999999,-8.31143413,28.390530230000003,-30.76292356,8.353526398360001,-0.151891788,0.7005713786,-1.155403298,-0.0163925523,0.1423932249,-0.0013961821799999,0.0045
03:43:03,0.757000115,0.860780455,-0.8970089400000001,-0.01415239,0.1471013849999999,-0.0312783899999999,-8.350117945000001,28.374594595,-30.77767484,8.434259006540001,-0.145742832,0.6964064028999999,-1.146547597,-0.01565709095,0.1406060248499999,-0.0010723012699999,0.0045
03:43:03,0.75414032,0.85491644,-0.88616692,-0.0137795199999999,0.1452476799999999,-0.0303675199999999,-8.38880176,28.35865896,-30.79242612,8.514991614720001,-0.139593876,0.6922414271999999,-1.137691896,-0.0149216296,0.1388188248,-0.0007484203599999,0.0045
03:43:03,0.751280525,0.849052425,-0.8753249000000001,-0.0134066499999999,0.1433939749999999,-0.0294566499999999,-8.427485575,28.342723325,-30.8071774,8.595724222900001,-0.1334449199999999,0.6880764515,-1.128836195,-0.01418616825,0.13703162475,-0.0004245394499999,0.0045
03:43:03,0.74842073,0.84318841,-0.86448288,-0.0130337799999999,0.1415402699999999,-0.0285457799999999,-8.466169390000001,28.32678769,-30.82192868,8.676456831080001,-0.1272959639999999,0.6839114758,-1.119980494,-0.0134507068999999,0.1352444247,-0.0001006585399999,0.0045
03:43:03,0.7455609349999999,0.837324395,-0.8536408600000001,-0.0126609099999999,0.1396865649999999,-0.0276349099999999,-8.504853205,28.310852055,-30.83667996,8.757189439260001,-0.121147008,0.6797465000999999,-1.111124793,-0.01271524555,0.1334572246499999,0.00022322237,0.0045
03:43:03,0.7427011399999999,0.83146038,-0.8427988399999999,-0.01228804,0.1378328599999999,-0.0267240399999999,-8.54353702,28.29491642,-30.85143124,8.837922047440001,-0.114998052,0.6755815244,-1.1022690919999998,-0.0119797842,0.1316700246,0.00054710328,0.0045
03:43:03,0.7398413449999999,0.825596365,-0.83195682,-0.0119151699999999,0.1359791549999999,-0.0258131699999999,-8.582220835000001,28.278980785,-30.86618252,8.918654655620001,-0.108849096,0.6714165486999999,-1.093413391,-0.01124432285,0.12988282455,0.00087098419,0.0045
03:43:03,0.7369815499999999,0.81973235,-0.8211147999999999,-0.0115422999999999,0.1341254499999999,-0.0249022999999999,-8.62090465,28.26304515,-30.8809338,8.999387263800001,-0.10270014,0.6672515729999999,-1.08455769,-0.0105088615,0.1280956245,0.0011948651,0.0045
03:43:03,0.7341217549999999,0.813868335,-0.81027278,-0.01116943,0.1322717449999999,-0.0239914299999999,-8.659588465,28.247109515,-30.89568508,9.08011987198,-0.096551184,0.6630865973,-1.075701989,-0.00977340015,0.1263084244499999,0.00151874601,0.0045
03:43:03,0.7312619599999999,0.80800432,-0.7994307599999999,-0.0107965599999999,0.1304180399999999,-0.0230805599999999,-8.698272280000001,28.23117388,-30.91043636,9.16085248016,-0.0904022279999999,0.6589216216,-1.0668462879999998,-0.0090379388,0.1245212243999999,0.0018426269199999,0.0045
03:43:03,0.7284021649999999,0.802140305,-0.78858874,-0.01042369,0.1285643349999999,-0.0221696899999999,-8.736956095,28.215238245,-30.92518764,9.24158508834,-0.0842532719999999,0.6547566458999999,-1.057990587,-0.0083024774499999,0.12273402435,0.00216650783,0.0045
03:43:03,0.7255423699999999,0.79627629,-0.7777467199999999,-0.0100508199999999,0.1267106299999999,-0.0212588199999999,-8.77563991,28.19930261,-30.93993892,9.32231769652,-0.078104316,0.6505916702,-1.0491348859999998,-0.0075670161,0.1209468243,0.00249038874,0.0045
03:43:03,0.7226825749999999,0.790412275,-0.7669047,-0.0096779499999999,0.1248569249999999,-0.0203479499999999,-8.814323725000001,28.183366975,-30.9546902,9.4030503047,-0.07195536,0.6464266944999999,-1.040279185,-0.00683155475,0.1191596242499999,0.0028142696499999,0.0045
03:43:03,0.7198227799999999,0.78454826,-0.7560626800000001,-0.00930508,0.1230032199999999,-0.0194370799999999,-8.85300754,28.16743134,-30.96944148,9.483782912880002,-0.065806404,0.6422617187999999,-1.0314234839999998,-0.0060960934,0.1173724241999999,0.00313815056,0.0045
03:43:03,0.7169629849999999,0.778684245,-0.74522066,-0.0089322099999999,0.1211495149999999,-0.0185262099999999,-8.891691355,28.151495705,-30.98419276,9.564515521060002,-0.059657448,0.6380967431,-1.022567783,-0.00536063205,0.11558522415,0.00346203147,0.0045
03:43:03,0.7141031899999999,0.77282023,-0.7343786400000001,-0.0085593399999999,0.1192958099999999,-0.0176153399999999,-8.930375170000001,28.13556007,-30.99894404,9.645248129240002,-0.0535084919999999,0.6339317674,-1.0137120819999998,-0.0046251707,0.1137980241,0.0037859123799999,0.0045
03:43:03,0.7112433949999999,0.766956215,-0.72353662,-0.0081864699999999,0.1174421049999999,-0.0167044699999999,-8.969058985,28.119624435,-31.01369532,9.725980737420002,-0.0473595359999999,0.6297667916999999,-1.004856381,-0.00388970935,0.1120108240499999,0.00410979329,0.0045
03:43:03,0.7083835999999999,0.7610922,-0.7126946000000001,-0.0078135999999999,0.1155883999999999,-0.0157935999999999,-9.0077428,28.1036888,-31.0284466,9.806713345600002,-0.04121058,0.625601816,-0.99600068,-0.0031542479999999,0.1102236239999999,0.0044336742,0.0045
03:43:03,0.7055238049999999,0.755228185,-0.70185258,-0.00744073,0.1137346949999999,-0.0148827299999999,-9.046426615,28.087753165,-31.04319788,9.887445953780002,-0.035061624,0.6214368402999999,-0.987144979,-0.00241878665,0.10843642395,0.00475755511,0.0045
03:43:03,0.7026640099999999,0.74936417,-0.69101056,-0.0070678599999999,0.1118809899999999,-0.0139718599999999,-9.08511043,28.07181753,-31.05794916,9.968178561960002,-0.028912668,0.6172718645999999,-0.978289278,-0.0016833253,0.1066492239,0.00508143602,0.0045
03:43:03,0.6998042149999999,0.743500155,-0.6801685399999999,-0.0066949899999999,0.1100272849999999,-0.0130609899999999,-9.123794245,28.055881895,-31.07270044,10.048911170140002,-0.022763712,0.6131068889,-0.969433577,-0.00094786395,0.1048620238499999,0.00540531693,0.0045
03:43:03,0.6969444199999999,0.73763614,-0.66932652,-0.00632212,0.1081735799999999,-0.0121501199999999,-9.162478060000002,28.03994626,-31.08745172,10.129643778320002,-0.016614756,0.6089419131999999,-0.960577876,-0.0002124026,0.1030748237999999,0.00572919784,0.0045
03:43:03,0.6940846249999999,0.731772125,-0.6584844999999999,-0.0059492499999999,0.1063198749999999,-0.0112392499999999,-9.201161875,28.024010625000003,-31.102203,10.210376386500002,-0.0104657999999999,0.6047769375,-0.951722175,0.0005230587499999,0.10128762375,0.00605307875,0.0045
03:43:03,0.6912248299999999,0.72590811,-0.64764248,-0.0055763799999999,0.1044661699999999,-0.0103283799999999,-9.23984569,28.00807499,-31.11695428,10.291108994680002,-0.0043168439999999,0.6006119618,-0.942866474,0.0012585200999999,0.0995004237,0.00637695966,0.0045
03:43:03,0.6883650349999999,0.720044095,-0.6368004599999999,-0.0052035099999999,0.1026124649999999,-0.0094175099999999,-9.278529505000002,27.992139355000003,-31.13170556,10.371841602860002,0.0018321119999999,0.5964469860999999,-0.934010773,0.00199398145,0.0977132236499999,0.00670084057,0.0045
03:43:03,0.6855052399999999,0.71418008,-0.62595844,-0.0048306399999999,0.1007587599999999,-0.0085066399999999,-9.31721332,27.97620372,-31.14645684,10.452574211040002,0.0079810679999999,0.5922820104,-0.925155072,0.0027294427999999,0.0959260236,0.00702472148,0.0045
03:43:03,0.6826454449999999,0.708316065,-0.6151164200000001,-0.00445777,0.0989050549999999,-0.0075957699999999,-9.355897135,27.960268085000003,-31.16120812,10.533306819220002,0.0141300239999999,0.5881170347,-0.9162993709999998,0.0034649041499999,0.09413882355,0.00734860239,0.0045
03:43:03,0.6797856499999999,0.70245205,-0.6042744,-0.0040848999999999,0.0970513499999999,-0.0066848999999999,-9.394580950000002,27.94433245,-31.1759594,10.614039427400002,0.0202789799999999,0.5839520589999999,-0.90744367,0.0042003654999999,0.0923516234999999,0.0076724833,0.0045
03:43:03,0.6769258549999999,0.696588035,-0.5934323800000001,-0.0037120299999999,0.0951976449999999,-0.0057740299999999,-9.433264765,27.928396815000003,-31.19071068,10.694772035580002,0.0264279359999999,0.5797870833,-0.8985879689999998,0.0049358268499999,0.0905644234499999,0.00799636421,0.0045
03:43:03,0.6740660599999999,0.69072402,-0.58259036,-0.0033391599999999,0.0933439399999999,-0.0048631599999999,-9.47194858,27.91246118,-31.20546196,10.77550464376,0.032576892,0.5756221076,-0.8897322679999999,0.0056712881999999,0.0887772234,0.00832024512,0.0045
03:43:03,0.6712062649999999,0.684860005,-0.5717483400000001,-0.0029662899999999,0.0914902349999999,-0.0039522899999999,-9.510632395000002,27.896525545000003,-31.22021324,10.85623725194,0.038725848,0.5714571318999999,-0.8808765669999998,0.0064067495499999,0.08699002335,0.00864412603,0.0045
03:43:03,0.6683464699999999,0.67899599,-0.56090632,-0.0025934199999999,0.0896365299999999,-0.0030414199999999,-9.54931621,27.88058991,-31.23496452,10.93696986012,0.0448748039999999,0.5672921562,-0.872020866,0.0071422109,0.0852028232999999,0.00896800694,0.0045
03:43:03,0.6654866749999999,0.673131975,-0.5500643000000001,-0.0022205499999999,0.0877828249999999,-0.0021305499999999,-9.588000025,27.864654275,-31.2497158,11.0177024683,0.0510237599999999,0.5631271805,-0.8631651649999998,0.0078776722499999,0.0834156232499999,0.00929188785,0.0045
03:43:03,0.6626268799999999,0.66726796,-0.5392222799999999,-0.0018476799999999,0.0859291199999999,-0.0012196799999999,-9.62668384,27.84871864,-31.26446708,11.09843507648,0.0571727159999999,0.5589622047999999,-0.854309464,0.0086131335999999,0.0816284232,0.00961576876,0.0045
03:43:03,0.6597670849999999,0.661403945,-0.52838026,-0.00147481,0.0840754149999999,-0.0003088099999999,-9.665367655,27.832783005000003,-31.27921836,11.17916768466,0.0633216719999999,0.5547972291,-0.8454537629999999,0.0093485949499999,0.07984122315,0.00993964967,0.0045
03:43:03,0.6569072899999999,0.65553993,-0.5175382399999999,-0.0011019399999999,0.0822217099999999,0.00060206,-9.70405147,27.81684737,-31.29396964,11.25990029284,0.0694706279999999,0.5506322534,-0.836598062,0.0100840562999999,0.0780540230999999,0.01026353058,0.0045
03:43:03,0.6540474949999999,0.649675915,-0.50669622,-0.0007290699999999,0.0803680049999999,0.00151293,-9.742735285,27.800911735,-31.30872092,11.34063290102,0.075619584,0.5464672776999999,-0.8277423609999999,0.0108195176499999,0.0762668230499999,0.01058741149,0.0045
03:43:03,0.6511876999999999,0.6438119,-0.4958541999999999,-0.0003561999999999,0.0785142999999999,0.0024238,-9.7814191,27.7849761,-31.3234722,11.4213655092,0.08176854,0.542302302,-0.81888666,0.0115549789999999,0.074479623,0.0109112924,0.0045
03:43:03,0.6483279049999999,0.637947885,-0.48501218,1.667000000000335e-05,0.076660595,0.00333467,-9.820102915,27.769040465,-31.33822348,11.502098117380005,0.0879174959999999,0.5381373263,-0.8100309589999999,0.01229044035,0.07269242295,0.01123517331,0.0045
03:43:03,0.6454681099999999,0.63208387,-0.4741701600000001,0.00038954,0.0748068899999999,0.00424554,-9.85878673,27.75310483,-31.35297476,11.582830725560004,0.0940664519999999,0.5339723505999999,-0.801175258,0.0130259016999999,0.0709052229,0.01155905422,0.0045
03:43:03,0.6426083149999999,0.626219855,-0.46332814,0.00076241,0.0729531849999999,0.00515641,-9.897470545,27.737169195,-31.36772604,11.663563333740004,0.1002154079999999,0.5298073749,-0.7923195569999999,0.0137613630499999,0.06911802285,0.01188293513,0.0045
03:43:03,0.6397485199999999,0.62035584,-0.4524861200000001,0.00113528,0.0710994799999999,0.00606728,-9.93615436,27.72123356,-31.38247732,11.744295941920004,0.1063643639999999,0.5256423991999999,-0.783463856,0.0144968243999999,0.0673308227999999,0.01220681604,0.0045
03:43:03,0.6368887249999999,0.614491825,-0.4416441,0.00150815,0.0692457749999999,0.00697815,-9.974838175,27.705297925,-31.3972286,11.825028550100004,0.11251332,0.5214774234999999,-0.7746081549999999,0.0152322857499999,0.0655436227499999,0.01253069695,0.0045
03:43:03,0.6340289299999999,0.60862781,-0.4308020800000001,0.00188102,0.0673920699999999,0.00788902,-10.01352199,27.68936229,-31.41197988,11.905761158280002,0.118662276,0.5173124478,-0.7657524539999998,0.0159677471,0.0637564226999999,0.01285457786,0.0045
03:43:03,0.6311691349999999,0.602763795,-0.4199600599999999,0.00225389,0.0655383649999999,0.00879989,-10.052205805,27.673426655,-31.42673116,11.986493766460002,0.124811232,0.5131474720999999,-0.7568967529999999,0.0167032084499999,0.0619692226499999,0.01317845877,0.0045
03:43:03,0.6283093399999999,0.59689978,-0.40911804,0.00262676,0.0636846599999999,0.00971076,-10.09088962,27.65749102,-31.44148244,12.067226374640002,0.1309601879999999,0.5089824963999999,-0.7480410519999998,0.0174386698,0.0601820225999999,0.01350233968,0.0045
03:43:03,0.6254495449999999,0.591035765,-0.3982760199999999,0.00299963,0.0618309549999999,0.01062163,-10.129573435,27.641555385,-31.45623372,12.147958982820002,0.1371091439999999,0.5048175207,-0.7391853509999999,0.0181741311499999,0.05839482255,0.01382622059,0.0045
03:43:03,0.6225897499999999,0.58517175,-0.387434,0.0033725,0.0599772499999999,0.0115325,-10.16825725,27.62561975,-31.470985,12.228691591000002,0.1432580999999999,0.5006525449999999,-0.7303296499999998,0.0189095924999999,0.0566076225,0.0141501015,0.0045
03:43:03,0.6197299549999999,0.579307735,-0.3765919799999999,0.00374537,0.058123545,0.01244337,-10.206941065,27.609684115,-31.48573628,12.309424199180002,0.1494070559999999,0.4964875692999999,-0.721473949,0.0196450538499999,0.05482042245,0.01447398241,0.0045
03:43:03,0.61687016,0.57344372,-0.36574996,0.00411824,0.0562698399999999,0.01335424,-10.24562488,27.59374848,-31.50048756,12.390156807360002,0.155556012,0.4923225935999999,-0.7126182479999998,0.0203805151999999,0.0530332223999999,0.01479786332,0.0045
03:43:03,0.614010365,0.567579705,-0.3549079399999999,0.00449111,0.0544161349999999,0.01426511,-10.284308695,27.577812845,-31.51523884,12.470889415540002,0.161704968,0.4881576178999999,-0.703762547,0.02111597655,0.0512460223499999,0.01512174423,0.0045
03:43:03,0.61115057,0.56171569,-0.34406592,0.00486398,0.0525624299999999,0.01517598,-10.32299251,27.56187721,-31.52999012,12.551622023720002,0.167853924,0.4839926421999999,-0.6949068459999999,0.0218514378999999,0.0494588222999999,0.01544562514,0.0045
03:43:03,0.608290775,0.555851675,-0.3332239000000001,0.00523685,0.0507087249999999,0.01608685,-10.361676325,27.545941575,-31.5447414,12.632354631900002,0.1740028799999999,0.4798276664999999,-0.686051145,0.02258689925,0.0476716222499999,0.01576950605,0.0045
03:43:03,0.60543098,0.54998766,-0.32238188,0.00560972,0.0488550199999999,0.01699772,-10.40036014,27.53000594,-31.55949268,12.713087240080002,0.1801518359999999,0.4756626907999999,-0.6771954439999999,0.0233223605999999,0.0458844222,0.01609338696,0.0045
03:43:03,0.602571185,0.544123645,-0.3115398600000001,0.00598259,0.0470013149999999,0.01790859,-10.439043955,27.514070305,-31.57424396,12.793819848260002,0.1863007919999999,0.4714977150999999,-0.668339743,0.0240578219499999,0.04409722215,0.01641726787,0.0045
03:43:03,0.59971139,0.53825963,-0.30069784,0.00635546,0.0451476099999999,0.01881946,-10.47772777,27.49813467,-31.58899524,12.874552456440002,0.1924497479999999,0.4673327394,-0.6594840419999999,0.0247932832999999,0.0423100221,0.01674114878,0.0045
03:43:03,0.596851595,0.532395615,-0.2898558200000001,0.00672833,0.0432939049999999,0.01973033,-10.516411585,27.482199035,-31.60374652,12.955285064620002,0.198598704,0.4631677636999999,-0.650628341,0.0255287446499999,0.04052282205,0.01706502969,0.0045
03:43:03,0.5939918,0.5265316,-0.2790138,0.0071012,0.0414401999999999,0.0206412,-10.5550954,27.466263400000003,-31.6184978,13.036017672800002,0.20474766,0.4590027879999999,-0.6417726399999999,0.026264206,0.0387356219999999,0.0173889106,0.0045
03:43:03,0.591132005,0.520667585,-0.2681717800000001,0.00747407,0.039586495,0.02155207,-10.593779215,27.450327765,-31.63324908,13.116750280980002,0.2108966159999999,0.4548378123,-0.6329169389999998,0.0269996673499999,0.0369484219499999,0.01771279151,0.0045
03:43:03,0.58827221,0.51480357,-0.2573297599999999,0.00784694,0.0377327899999999,0.02246294,-10.63246303,27.434392130000003,-31.64800036,13.197482889160002,0.2170455719999999,0.4506728365999999,-0.6240612379999999,0.0277351287,0.0351612218999999,0.01803667242,0.0045
03:43:03,0.585412415,0.508939555,-0.24648774,0.00821981,0.0358790849999999,0.02337381,-10.671146845,27.418456495,-31.66275164,13.278215497340002,0.223194528,0.4465078608999999,-0.6152055369999998,0.0284705900499999,0.0333740218499999,0.01836055333,0.0045
03:43:03,0.58255262,0.50307554,-0.2356457199999999,0.00859268,0.0340253799999999,0.02428468,-10.709830660000002,27.402520860000003,-31.67750292,13.35894810552,0.2293434839999999,0.4423428852,-0.6063498359999999,0.0292060513999999,0.0315868218,0.01868443424,0.0045
03:43:03,0.579692825,0.497211525,-0.2248037,0.00896555,0.0321716749999999,0.02519555,-10.748514475,27.386585225,-31.6922542,13.4396807137,0.23549244,0.4381779094999999,-0.5974941349999998,0.0299415127499999,0.02979962175,0.01900831515,0.0045
03:43:03,0.57683303,0.49134751,-0.2139616799999999,0.00933842,0.0303179699999999,0.02610642,-10.78719829,27.370649590000003,-31.70700548,13.52041332188,0.2416413959999999,0.4340129337999999,-0.5886384339999999,0.0306769740999999,0.0280124217,0.01933219606,0.0045
03:43:03,0.573973235,0.485483495,-0.20311966,0.00971129,0.0284642649999999,0.02701729,-10.825882105000002,27.354713955,-31.72175676,13.601145930060005,0.247790352,0.4298479581,-0.5797827329999998,0.03141243545,0.0262252216499999,0.01965607697,0.0045
03:43:03,0.57111344,0.47961948,-0.1922776400000001,0.01008416,0.0266105599999999,0.02792816,-10.86456592,27.338778320000003,-31.73650804,13.681878538240005,0.2539393079999998,0.4256829823999999,-0.570927032,0.0321478967999999,0.0244380215999999,0.01997995788,0.0045
03:43:03,0.568253645,0.473755465,-0.18143562,0.0104570299999999,0.0247568549999999,0.02883903,-10.903249735,27.322842685,-31.75125932,13.762611146420005,0.2600882639999999,0.4215180066999999,-0.5620713309999998,0.03288335815,0.0226508215499999,0.02030383879,0.0045
03:43:03,0.56539385,0.46789145,-0.1705936000000001,0.0108299,0.0229031499999999,0.0297499,-10.941933550000002,27.30690705,-31.7660106,13.843343754600005,0.26623722,0.417353031,-0.55321563,0.0336188195,0.0208636214999999,0.0206277197,0.0045
03:43:03,0.562534055,0.462027435,-0.15975158,0.01120277,0.021049445,0.03066077,-10.980617365,27.290971415,-31.78076188,13.924076362780005,0.2723861759999999,0.4131880552999999,-0.5443599289999999,0.03435428085,0.0190764214499999,0.02095160061,0.0045
03:43:03,0.55967426,0.45616342,-0.1489095600000001,0.01157564,0.0191957399999999,0.03157164,-11.01930118,27.275035780000003,-31.79551316,14.004808970960005,0.278535132,0.4090230795999999,-0.535504228,0.0350897421999999,0.0172892214,0.02127548152,0.0045
03:43:03,0.556814465,0.450299405,-0.13806754,0.01194851,0.0173420349999999,0.03248251,-11.057984995000002,27.259100145,-31.81026444,14.085541579140004,0.2846840879999999,0.4048581039,-0.5266485269999999,0.0358252035499999,0.01550202135,0.02159936243,0.0045
03:43:03,0.55395467,0.44443539,-0.1272255200000001,0.01232138,0.0154883299999999,0.03339338,-11.09666881,27.24316451,-31.82501572,14.166274187320004,0.290833044,0.4006931281999999,-0.517792826,0.0365606648999999,0.0137148213,0.02192324334,0.0045
03:43:03,0.551094875,0.438571375,-0.1163834999999999,0.0126942499999999,0.0136346249999999,0.03430425,-11.135352625,27.227228875,-31.839767,14.247006795500004,0.2969819999999998,0.3965281524999999,-0.5089371249999999,0.03729612625,0.0119276212499999,0.02224712425,0.0045
03:43:03,0.54823508,0.43270736,-0.10554148,0.01306712,0.0117809199999999,0.03521512,-11.174036440000002,27.21129324,-31.85451828,14.327739403680004,0.3031309559999999,0.3923631768,-0.5000814239999998,0.0380315876,0.0101404211999999,0.02257100516,0.0045
03:43:03,0.545375285,0.426843345,-0.0946994599999999,0.01343999,0.0099272149999999,0.03612599,-11.212720255,27.195357605,-31.86926956,14.408472011860002,0.309279912,0.3881982010999999,-0.4912257229999999,0.0387670489499999,0.0083532211499999,0.02289488607,0.0045
03:43:03,0.54251549,0.42097933,-0.08385744,0.01381286,0.0080735099999999,0.03703686,-11.25140407,27.17942197,-31.88402084,14.489204620040002,0.3154288679999999,0.3840332253999999,-0.4823700219999998,0.0395025102999999,0.0065660210999999,0.02321876698,0.0045
03:43:03,0.539655695,0.415115315,-0.0730154199999999,0.01418573,0.0062198049999999,0.03794773,-11.290087885000002,27.163486335,-31.89877212,14.569937228220002,0.321577824,0.3798682496999999,-0.4735143209999999,0.0402379716499999,0.0047788210499999,0.02354264789,0.0045
03:43:03,0.5367959,0.4092513,-0.0621734,0.0145585999999999,0.0043660999999999,0.0388586,-11.3287717,27.1475507,-31.9135234,14.650669836400002,0.3277267799999999,0.3757032739999999,-0.4646586199999998,0.040973433,0.002991621,0.0238665288,0.0045
03:43:03,0.533936105,0.403387285,-0.0513313800000001,0.01493147,0.002512395,0.03976947,-11.367455515,27.131615065,-31.92827468,14.731402444580002,0.333875736,0.3715382982999999,-0.4558029189999999,0.04170889435,0.00120442095,0.02419040971,0.0045
03:43:03,0.53107631,0.39752327,-0.04048936,0.01530434,0.0006586899999999,0.04068034,-11.40613933,27.11567943,-31.94302596,14.812135052760002,0.3400246920000001,0.3673733225999999,-0.4469472179999998,0.0424443556999999,-0.0005827790999999,0.02451429062,0.0045
03:43:03,0.528216515,0.391659255,-0.0296473400000001,0.01567721,-0.001195015,0.04159121,-11.444823145,27.099743795,-31.95777724,14.892867660940002,0.3461736479999999,0.3632083468999999,-0.4380915169999999,0.0431798170499999,-0.00236997915,0.02483817153,0.0045
03:43:03,0.52535672,0.38579524,-0.01880532,0.01605008,-0.00304872,0.04250208,-11.48350696,27.08380816,-31.97252852,14.973600269120002,0.352322604,0.3590433711999999,-0.4292358159999998,0.0439152784,-0.0041571792,0.02516205244,0.0045
03:43:03,0.522496925,0.379931225,-0.0079633000000001,0.01642295,-0.004902425,0.04341295,-11.522190775,27.067872525,-31.9872798,15.054332877300002,0.3584715599999999,0.3548783954999999,-0.4203801149999999,0.04465073975,-0.00594437925,0.02548593335,0.0045
03:43:03,0.51963713,0.37406721,0.00287872,0.01679582,-0.00675613,0.04432382,-11.56087459,27.05193689,-32.002031079999995,15.135065485480002,0.364620516,0.3507134197999999,-0.4115244139999998,0.0453862010999999,-0.0077315793,0.02580981426,0.0045
03:43:03,0.516777335,0.368203195,0.0137207400000001,0.01716869,-0.008609835,0.04523469,-11.599558405,27.036001255,-32.01678236,15.215798093660002,0.3707694719999999,0.3465484440999999,-0.4026687129999999,0.0461216624499999,-0.00951877935,0.02613369517,0.0045
03:43:03,0.51391754,0.36233918,0.0245627599999997,0.01754156,-0.01046354,0.04614556,-11.63824222,27.02006562,-32.03153364,15.296530701840002,0.3769184279999999,0.3423834683999999,-0.3938130119999998,0.0468571237999999,-0.0113059793999999,0.02645757608,0.0045
03:43:03,0.511057745,0.356475165,0.0354047799999999,0.01791443,-0.012317245,0.04705643,-11.676926035,27.004129985,-32.04628492,15.377263310020002,0.383067384,0.3382184926999999,-0.3849573109999999,0.04759258515,-0.0130931794499999,0.02678145699,0.0045
03:43:03,0.50819795,0.35061115,0.0462468,0.0182873,-0.01417095,0.0479673,-11.71560985,26.98819435,-32.0610362,15.457995918200002,0.3892163399999999,0.3340535169999999,-0.3761016099999998,0.0483280465,-0.0148803794999999,0.0271053379,0.0045
03:43:03,0.505338155,0.344747135,0.0570888200000001,0.01866017,-0.016024655,0.04887817,-11.754293665,26.972258715,-32.075787479999995,15.538728526380002,0.395365296,0.3298885412999999,-0.367245909,0.0490635078499999,-0.01666757955,0.02742921881,0.0045
03:43:03,0.50247836,0.33888312,0.0679308399999998,0.01903304,-0.01787836,0.04978904,-11.79297748,26.95632308,-32.09053876,15.619461134560003,0.4015142519999999,0.3257235655999999,-0.3583902079999999,0.0497989691999999,-0.0184547796,0.02775309972,0.0045
03:43:03,0.499618565,0.333019105,0.0787728599999999,0.01940591,-0.019732065,0.05069991,-11.831661295,26.940387445,-32.10529004,15.700193742740003,0.407663208,0.3215585898999999,-0.3495345069999998,0.0505344305499999,-0.02024197965,0.0280769806299999,0.0045
03:43:03,0.49675877,0.32715509,0.08961488,0.01977878,-0.02158577,0.05161078,-11.87034511,26.92445181,-32.12004132,15.780926350920003,0.4138121639999998,0.3173936141999999,-0.3406788059999999,0.0512698919,-0.0220291797,0.02840086154,0.0045
03:43:03,0.493898975,0.321291075,0.1004568999999997,0.02015165,-0.023439475,0.05252165,-11.909028925,26.908516175000003,-32.1347926,15.861658959100003,0.4199611199999999,0.3132286384999999,-0.3318231049999998,0.05200535325,-0.02381637975,0.02872474245,0.0045
03:43:03,0.49103918,0.31542706,0.1112989199999998,0.02052452,-0.02529318,0.05343252,-11.94771274,26.89258054,-32.14954388,15.942391567280003,0.426110076,0.3090636627999999,-0.3229674039999999,0.0527408145999999,-0.0256035797999999,0.0290486233599999,0.0045
03:43:03,0.488179385,0.309563045,0.1221409399999999,0.02089739,-0.027146885,0.05434339,-11.986396555,26.876644905000003,-32.164295159999995,16.02312417546,0.4322590319999999,0.3048986870999999,-0.3141117029999998,0.0534762759499999,-0.0273907798499999,0.02937250427,0.0045
03:43:03,0.48531959,0.30369903,0.1329829600000001,0.02127026,-0.02900059,0.05525426,-12.02508037,26.86070927,-32.17904644,16.10385678364,0.438407988,0.3007337113999999,-0.3052560019999999,0.0542117373,-0.0291779799,0.02969638518,0.0045
03:43:03,0.482459795,0.297835015,0.1438249799999997,0.02164313,-0.030854295,0.05616513,-12.063764185,26.844773635000003,-32.19379772,16.18458939182,0.4445569439999999,0.2965687357,-0.2964003009999998,0.05494719865,-0.03096517995,0.0300202660899999,0.0045
03:43:04,0.4796,0.291971,0.154667,0.022016,-0.032708,0.057076,-12.102448,26.828838,-32.208549,16.265322,0.4507059,0.29240376,-0.2875446,0.05568266,-0.03275238,0.030344147,0.0045
03:43:04,0.490098145,0.283264325,0.147838255,0.021648455,-0.031818435,0.055595165,-12.09790351,26.817020375,-32.216440545,16.203728534,0.4525938127,0.2807087212,-0.298998752,0.05453622435,-0.0320328801,0.029467283915,0.0045
03:43:04,0.50059629,0.27455765,0.14100951,0.02128091,-0.03092887,0.05411433,-12.09335902,26.80520275,-32.22433209,16.142135068,0.4544817254,0.2690136824,-0.310452904,0.0533897887,-0.0313133802,0.0285904208299999,0.0045
03:43:04,0.5110944350000001,0.265850975,0.134180765,0.020913365,-0.030039305,0.052633495,-12.08881453,26.793385125,-32.232223635,16.080541602,0.4563696381,0.2573186436,-0.3219070559999999,0.05224335305,-0.0305938802999999,0.027713557745,0.0045
03:43:04,0.5215925800000001,0.2571443,0.12735202,0.02054582,-0.02914974,0.05115266,-12.084270040000002,26.7815675,-32.24011518,16.018948136000002,0.4582575507999999,0.2456236048,-0.3333612079999999,0.0510969174,-0.0298743803999999,0.02683669466,0.0045
03:43:04,0.532090725,0.248437625,0.120523275,0.020178275,-0.028260175,0.049671825,-12.07972555,26.769749875,-32.248006725,15.95735467,0.4601454635,0.233928566,-0.34481536,0.04995048175,-0.0291548804999999,0.0259598315749999,0.0045
03:43:04,0.54258887,0.2397309499999999,0.1136945299999999,0.01981073,-0.02737061,0.04819099,-12.07518106,26.75793225,-32.25589827,15.895761204,0.4620333762,0.2222335272,-0.356269512,0.0488040461,-0.0284353805999999,0.02508296849,0.0045
03:43:04,0.553087015,0.2310242749999999,0.1068657849999999,0.019443185,-0.026481045,0.046710155,-12.07063657,26.746114625,-32.263789815,15.834167738,0.4639212889,0.2105384884,-0.367723664,0.04765761045,-0.0277158806999999,0.0242061054049999,0.0045
03:43:04,0.56358516,0.2223175999999999,0.10003704,0.01907564,-0.02559148,0.04522932,-12.06609208,26.734297,-32.271681359999995,15.772574272000002,0.4658092016,0.1988434496,-0.379177816,0.0465111748,-0.0269963807999999,0.02332924232,0.0045
03:43:04,0.574083305,0.2136109249999999,0.093208295,0.018708095,-0.024701915,0.043748485,-12.06154759,26.722479375,-32.279572904999995,15.710980806,0.4676971143,0.1871484108,-0.390631968,0.04536473915,-0.0262768808999999,0.022452379235,0.0045
03:43:04,0.5845814500000001,0.2049042499999999,0.08637955,0.01834055,-0.02381235,0.04226765,-12.0570031,26.71066175,-32.28746445,15.64938734,0.469585027,0.175453372,-0.40208612,0.0442183035,-0.0255573809999999,0.0215755161499999,0.0045
03:43:04,0.5950795950000001,0.1961975749999999,0.0795508049999999,0.017973005,-0.022922785,0.040786815,-12.05245861,26.698844125,-32.295355995,15.587793874,0.4714729397,0.1637583332,-0.413540272,0.04307186785,-0.0248378811,0.020698653065,0.0045
03:43:04,0.60557774,0.1874908999999999,0.0727220599999999,0.01760546,-0.02203322,0.03930598,-12.047914120000002,26.6870265,-32.30324754,15.526200408,0.4733608524,0.1520632944,-0.424994424,0.0419254322,-0.0241183811999999,0.0198217899799999,0.0045
03:43:04,0.6160758850000001,0.1787842249999999,0.065893315,0.017237915,-0.021143655,0.037825145,-12.04336963,26.675208875,-32.311139085,15.464606942,0.4752487650999999,0.1403682556,-0.436448576,0.04077899655,-0.0233988813,0.018944926895,0.0045
03:43:04,0.62657403,0.1700775499999999,0.0590645699999999,0.01687037,-0.02025409,0.03634431,-12.03882514,26.66339125,-32.31903063,15.403013476000002,0.4771366778,0.1286732168,-0.4479027279999999,0.0396325609,-0.0226793813999999,0.01806806381,0.0045
03:43:04,0.637072175,0.1613708749999999,0.0522358249999999,0.016502825,-0.019364525,0.034863475,-12.03428065,26.651573625,-32.326922175,15.34142001,0.4790245905,0.116978178,-0.4593568799999999,0.03848612525,-0.0219598815,0.017191200725,0.0045
03:43:04,0.64757032,0.1526641999999999,0.0454070799999999,0.01613528,-0.01847496,0.03338264,-12.02973616,26.639756,-32.33481372,15.279826544,0.4809125032,0.1052831392,-0.4708110319999999,0.0373396896,-0.0212403815999999,0.01631433764,0.0045
03:43:04,0.658068465,0.1439575249999999,0.0385783349999999,0.015767735,-0.017585395,0.031901805,-12.02519167,26.627938375,-32.342705265,15.218233078,0.4828004159,0.0935881004,-0.4822651839999999,0.03619325395,-0.0205208817,0.0154374745549999,0.0045
03:43:04,0.6685666100000001,0.1352508499999999,0.0317495899999999,0.01540019,-0.01669583,0.03042097,-12.02064718,26.61612075,-32.35059681,15.156639612,0.4846883286,0.0818930616,-0.4937193359999999,0.0350468183,-0.0198013817999999,0.0145606114699999,0.0045
03:43:04,0.679064755,0.1265441749999999,0.0249208449999999,0.015032645,-0.015806265,0.028940135,-12.01610269,26.604303125,-32.358488355,15.095046146,0.4865762413,0.0701980228,-0.5051734880000001,0.03390038265,-0.0190818819,0.013683748385,0.0045
03:43:04,0.6895629000000001,0.1178374999999999,0.0180921,0.0146651,-0.0149167,0.0274593,-12.0115582,26.5924855,-32.3663799,15.03345268,0.488464154,0.058502984,-0.51662764,0.032753947,-0.0183623819999999,0.0128068852999999,0.0045
03:43:04,0.700061045,0.1091308249999999,0.0112633549999999,0.014297555,-0.014027135,0.025978465,-12.00701371,26.580667875,-32.374271445,14.971859214,0.4903520667,0.0468079452,-0.528081792,0.03160751135,-0.0176428821,0.0119300222149999,0.0045
03:43:04,0.71055919,0.1004241499999999,0.0044346099999999,0.01393001,-0.01313757,0.02449763,-12.00246922,26.56885025,-32.38216299,14.910265748,0.4922399793999999,0.0351129064,-0.539535944,0.0304610757,-0.0169233822,0.01105315913,0.0045
03:43:04,0.721057335,0.0917174749999999,-0.002394135,0.013562465,-0.012248005,0.023016795,-11.99792473,26.557032625,-32.390054535,14.848672282,0.4941278920999999,0.0234178676,-0.550990096,0.02931464005,-0.0162038823,0.0101762960449999,0.0045
03:43:04,0.73155548,0.0830107999999999,-0.00922288,0.01319492,-0.01135844,0.02153596,-11.99338024,26.545215,-32.39794608,14.787078816,0.4960158048,0.0117228288,-0.562444248,0.0281682044,-0.0154843824,0.00929943296,0.0045
03:43:04,0.742053625,0.0743041249999999,-0.016051625,0.012827375,-0.010468875,0.020055125,-11.98883575,26.533397375,-32.405837625,14.72548535,0.4979037175,2.7790000000027515e-05,-0.5738984,0.0270217687499999,-0.0147648825,0.008422569875,0.0045
03:43:04,0.7525517700000001,0.0655974499999999,-0.02288037,0.01245983,-0.00957931,0.01857429,-11.98429126,26.52157975,-32.41372917,14.663891884000002,0.4997916302,-0.0116672487999999,-0.585352552,0.0258753330999999,-0.0140453826,0.0075457067899999,0.0045
03:43:04,0.7630499150000001,0.0568907749999999,-0.029709115,0.012092285,-0.008689745,0.017093455,-11.97974677,26.509762125,-32.421620715,14.602298418,0.5016795429,-0.0233622875999999,-0.596806704,0.02472889745,-0.0133258827,0.006668843705,0.0045
03:43:04,0.77354806,0.0481840999999999,-0.03653786,0.01172474,-0.00780018,0.01561262,-11.97520228,26.4979445,-32.42951226,14.540704952,0.5035674556,-0.0350573263999999,-0.608260856,0.0235824617999999,-0.0126063828,0.00579198062,0.0045
03:43:04,0.7840462050000001,0.0394774249999999,-0.043366605,0.011357195,-0.006910615,0.014131785,-11.97065779,26.486126875,-32.437403804999995,14.479111486,0.5054553683,-0.0467523651999999,-0.619715008,0.0224360261499999,-0.0118868829,0.0049151175349999,0.0045
03:43:04,0.79454435,0.0307707499999999,-0.05019535,0.01098965,-0.00602105,0.01265095,-11.9661133,26.47430925,-32.445295349999995,14.41751802,0.507343281,-0.0584474039999999,-0.63116916,0.0212895904999999,-0.011167383,0.00403825445,0.0045
03:43:04,0.805042495,0.0220640749999999,-0.057024095,0.010622105,-0.005131485,0.011170115,-11.96156881,26.462491625,-32.453186895,14.355924554,0.5092311937,-0.0701424427999999,-0.642623312,0.0201431548499999,-0.0104478831,0.0031613913649999,0.0045
03:43:04,0.81554064,0.0133573999999999,-0.06385284,0.01025456,-0.00424192,0.00968928,-11.95702432,26.450674,-32.46107844,14.294331088,0.5111191064,-0.0818374815999999,-0.654077464,0.0189967191999999,-0.0097283832,0.00228452828,0.0045
03:43:04,0.826038785,0.0046507249999999,-0.070681585,0.009887015,-0.003352355,0.008208445,-11.95247983,26.438856375,-32.468969985,14.232737622,0.5130070191,-0.0935325203999999,-0.665531616,0.01785028355,-0.0090088833,0.001407665195,0.0045
03:43:04,0.8365369300000001,-0.00405595,-0.07751033,0.00951947,-0.00246279,0.00672761,-11.94793534,26.42703875,-32.47686153,14.171144156,0.5148949318,-0.1052275591999999,-0.676985768,0.0167038479,-0.0082893834,0.0005308021099999,0.0045
03:43:04,0.847035075,-0.012762625,-0.084339075,0.009151925,-0.001573225,0.005246775,-11.94339085,26.415221125,-32.484753075,14.10955069,0.5167828445,-0.1169225979999999,-0.68843992,0.01555741225,-0.0075698834999999,-0.0003460609749999,0.0045
03:43:04,0.8575332200000001,-0.0214693,-0.09116782,0.00878438,-0.00068366,0.00376594,-11.93884636,26.4034035,-32.49264462,14.047957224,0.5186707572,-0.1286176368,-0.699894072,0.0144109766,-0.0068503835999999,-0.00122292406,0.0045
03:43:04,0.868031365,-0.030175975,-0.097996565,0.008416835,0.0002059049999999,0.002285105,-11.93430187,26.391585875,-32.500536165,13.986363758,0.5205586699,-0.1403126756,-0.711348224,0.01326454095,-0.0061308836999999,-0.002099787145,0.0045
03:43:04,0.87852951,-0.03888265,-0.10482531,0.00804929,0.0010954699999999,0.00080427,-11.92975738,26.37976825,-32.50842771,13.924770292000002,0.5224465826,-0.1520077144,-0.722802376,0.0121181052999999,-0.0054113837999999,-0.0029766502299999,0.0045
03:43:04,0.889027655,-0.047589325,-0.111654055,0.007681745,0.0019850349999999,-0.0006765649999999,-11.92521289,26.367950625,-32.516319255,13.863176826,0.5243344953,-0.1637027532,-0.734256528,0.0109716696499999,-0.0046918838999999,-0.0038535133149999,0.0045
03:43:04,0.8995258,-0.056296,-0.1184828,0.0073142,0.0028745999999999,-0.0021573999999999,-11.9206684,26.356133,-32.5242108,13.80158336,0.526222408,-0.175397792,-0.74571068,0.0098252339999999,-0.0039723839999999,-0.0047303764,0.0045
03:43:04,0.910023945,-0.065002675,-0.125311545,0.006946655,0.0037641649999999,-0.0036382349999999,-11.91612391,26.344315375,-32.532102345,13.739989894,0.5281103207,-0.1870928308,-0.757164832,0.0086787983499999,-0.0032528840999999,-0.005607239485,0.0045
03:43:04,0.92052209,-0.07370935,-0.13214029,0.00657911,0.0046537299999999,-0.0051190699999999,-11.91157942,26.33249775,-32.53999389,13.678396428,0.5299982334,-0.1987878696,-0.768618984,0.0075323626999999,-0.0025333841999999,-0.00648410257,0.0045
03:43:04,0.931020235,-0.082416025,-0.138969035,0.006211565,0.0055432949999999,-0.006599905,-11.90703493,26.320680125,-32.547885435,13.616802962,0.5318861461,-0.2104829083999999,-0.780073136,0.0063859270499999,-0.0018138842999999,-0.0073609656549999,0.0045
03:43:04,0.94151838,-0.0911227,-0.14579778,0.00584402,0.0064328599999999,-0.00808074,-11.90249044,26.3088625,-32.55577698,13.555209496,0.5337740588,-0.2221779471999999,-0.7915272879999999,0.0052394913999999,-0.0010943844,-0.0082378287399999,0.0045
03:43:04,0.952016525,-0.099829375,-0.152626525,0.005476475,0.0073224249999999,-0.009561575,-11.89794595,26.297044875,-32.563668525,13.49361603,0.5356619715,-0.2338729859999999,-0.8029814399999999,0.0040930557499999,-0.0003748844999999,-0.0091146918249999,0.0045
03:43:04,0.96251467,-0.10853605,-0.15945527,0.00510893,0.0082119899999999,-0.01104241,-11.89340146,26.28522725,-32.57156007,13.432022564,0.5375498841999999,-0.2455680247999999,-0.8144355919999999,0.0029466200999999,0.0003446153999999,-0.00999155491,0.0045
03:43:04,0.973012815,-0.117242725,-0.166284015,0.004741385,0.0091015549999999,-0.012523245,-11.88885697,26.273409625,-32.579451615,13.370429098,0.5394377969,-0.2572630635999999,-0.8258897439999999,0.0018001844499999,0.0010641153,-0.010868417995,0.0045
03:43:04,0.98351096,-0.1259494,-0.17311276,0.00437384,0.0099911199999999,-0.01400408,-11.88431248,26.261592,-32.58734316,13.308835632,0.5413257096,-0.2689581023999999,-0.8373438959999999,0.0006537487999999,0.0017836151999999,-0.01174528108,0.0045
03:43:04,0.994009105,-0.134656075,-0.179941505,0.004006295,0.0108806849999999,-0.015484915,-11.87976799,26.249774375,-32.595234705,13.247242166,0.5432136223,-0.2806531411999999,-0.8487980479999999,-0.00049268685,0.0025031151,-0.0126221441649999,0.0045
03:43:04,1.00450725,-0.14336275,-0.18677025,0.00363875,0.0117702499999999,-0.01696575,-11.8752235,26.23795675,-32.60312625,13.185648700000002,0.545101535,-0.2923481799999999,-0.8602521999999999,-0.0016391225,0.0032226149999999,-0.0134990072499999,0.0045
03:43:04,1.0150053950000002,-0.152069425,-0.193598995,0.003271205,0.0126598149999999,-0.018446585,-11.87067901,26.226139125,-32.611017795,13.124055234,0.5469894477,-0.3040432187999999,-0.8717063519999999,-0.00278555815,0.0039421149,-0.014375870335,0.0045
03:43:04,1.02550354,-0.1607761,-0.20042774,0.00290366,0.0135493799999999,-0.01992742,-11.86613452,26.2143215,-32.61890934,13.062461768,0.5488773604,-0.3157382575999999,-0.8831605039999999,-0.0039319938,0.0046616147999999,-0.01525273342,0.0045
03:43:04,1.036001685,-0.169482775,-0.207256485,0.002536115,0.0144389449999999,-0.021408255,-11.86159003,26.202503875,-32.626800885,13.000868302,0.5507652731,-0.3274332963999999,-0.8946146559999999,-0.00507842945,0.0053811147,-0.016129596505,0.0045
03:43:04,1.04649983,-0.17818945,-0.21408523,0.00216857,0.0153285099999999,-0.02288909,-11.85704554,26.19068625,-32.63469243,12.939274836,0.5526531858,-0.3391283351999999,-0.906068808,-0.0062248651,0.0061006145999999,-0.01700645959,0.0045
03:43:04,1.056997975,-0.186896125,-0.220913975,0.001801025,0.016218075,-0.024369925,-11.85250105,26.178868625,-32.642583975,12.87768137,0.5545410985,-0.3508233739999999,-0.91752296,-0.00737130075,0.0068201145,-0.0178833226749999,0.0045
03:43:04,1.06749612,-0.1956028,-0.22774272,0.00143348,0.0171076399999999,-0.02585076,-11.84795656,26.167051,-32.65047552,12.816087904,0.5564290112,-0.3625184127999999,-0.928977112,-0.0085177364,0.0075396143999999,-0.0187601857599999,0.0045
03:43:04,1.077994265,-0.204309475,-0.234571465,0.001065935,0.0179972049999999,-0.027331595,-11.84341207,26.155233375,-32.658367065,12.754494438,0.5583169239,-0.3742134515999999,-0.940431264,-0.00966417205,0.0082591143,-0.019637048845,0.0045
03:43:04,1.0884924100000002,-0.21301615,-0.24140021,0.00069839,0.0188867699999999,-0.02881243,-11.83886758,26.14341575,-32.66625861,12.692900972,0.5602048366,-0.3859084903999999,-0.951885416,-0.0108106077,0.0089786141999999,-0.02051391193,0.0045
03:43:04,1.098990555,-0.221722825,-0.248228955,0.000330845,0.0197763349999999,-0.030293265,-11.83432309,26.131598125,-32.674150155,12.631307506,0.5620927493,-0.3976035291999999,-0.963339568,-0.01195704335,0.0096981141,-0.021390775015,0.0045
03:43:04,1.1094887,-0.2304295,-0.2550577,-3.669999999999368e-05,0.0206658999999999,-0.0317741,-11.8297786,26.1197805,-32.6820417,12.56971404,0.563980662,-0.409298568,-0.97479372,-0.013103479,0.0104176139999999,-0.0222676380999999,0.0045
03:43:04,1.119986845,-0.239136175,-0.261886445,-0.0004042449999999,0.0215554649999999,-0.033254935,-11.82523411,26.107962875,-32.689933245,12.508120574,0.5658685747,-0.4209936068,-0.986247872,-0.01424991465,0.0111371139,-0.0231445011849999,0.0045
03:43:04,1.13048499,-0.24784285,-0.26871519,-0.0007717899999999,0.0224450299999999,-0.03473577,-11.82068962,26.09614525,-32.69782479,12.446527108,0.5677564874,-0.4326886456,-0.997702024,-0.0153963503,0.0118566137999999,-0.02402136427,0.0045
03:43:04,1.140983135,-0.256549525,-0.275543935,-0.0011393349999999,0.0233345949999999,-0.036216605,-11.81614513,26.084327625,-32.705716335,12.384933642,0.5696444001000001,-0.4443836844,-1.009156176,-0.01654278595,0.0125761137,-0.024898227355,0.0045
03:43:04,1.15148128,-0.2652562,-0.28237268,-0.0015068799999999,0.0242241599999999,-0.03769744,-11.81160064,26.07251,-32.71360788,12.323340176,0.5715323128,-0.4560787232,-1.020610328,-0.0176892216,0.0132956135999999,-0.02577509044,0.0045
03:43:04,1.1619794250000002,-0.273962875,-0.289201425,-0.0018744249999999,0.0251137249999999,-0.039178275,-11.80705615,26.060692375,-32.721499425,12.26174671,0.5734202255,-0.467773762,-1.03206448,-0.01883565725,0.0140151134999999,-0.0266519535249999,0.0045
03:43:04,1.17247757,-0.28266955,-0.29603017,-0.0022419699999999,0.0260032899999999,-0.04065911,-11.80251166,26.04887475,-32.72939097,12.200153244,0.5753081382,-0.4794688008,-1.043518632,-0.0199820929,0.0147346133999999,-0.0275288166099999,0.0045
03:43:04,1.182975715,-0.291376225,-0.302858915,-0.0026095149999999,0.0268928549999999,-0.042139945,-11.79796717,26.037057125,-32.737282515,12.138559778,0.5771960509,-0.4911638396,-1.054972784,-0.02112852855,0.0154541132999999,-0.028405679695,0.0045
03:43:04,1.19347386,-0.3000829,-0.30968766,-0.0029770599999999,0.0277824199999999,-0.04362078,-11.79342268,26.0252395,-32.74517406,12.076966312,0.5790839636,-0.5028588784,-1.066426936,-0.0222749642,0.0161736132,-0.02928254278,0.0045
03:43:04,1.203972005,-0.308789575,-0.316516405,-0.0033446049999999,0.0286719849999999,-0.045101615,-11.78887819,26.013421875,-32.753065605,12.015372846,0.5809718763,-0.5145539172,-1.077881088,-0.02342139985,0.0168931130999999,-0.030159405865,0.0045
03:43:04,1.21447015,-0.31749625,-0.32334515,-0.0037121499999999,0.0295615499999999,-0.04658245,-11.7843337,26.00160425,-32.76095715,11.95377938,0.582859789,-0.526248956,-1.08933524,-0.0245678355,0.017612613,-0.0310362689499999,0.0045
03:43:04,1.224968295,-0.326202925,-0.330173895,-0.0040796949999999,0.030451115,-0.048063285,-11.77978921,25.989786625,-32.768848695,11.892185914,0.5847477017,-0.5379439948,-1.100789392,-0.02571427115,0.0183321128999999,-0.031913132035,0.0045
03:43:04,1.2354664400000002,-0.3349096,-0.33700264,-0.0044472399999999,0.0313406799999999,-0.04954412,-11.77524472,25.977969,-32.77674024,11.830592448,0.5866356144,-0.5496390336,-1.112243544,-0.0268607068,0.0190516128,-0.03278999512,0.0045
03:43:04,1.245964585,-0.343616275,-0.343831385,-0.0048147849999999,0.0322302449999999,-0.051024955,-11.77070023,25.966151375,-32.784631785,11.768998982,0.5885235271,-0.5613340724,-1.123697696,-0.02800714245,0.0197711126999999,-0.033666858205,0.0045
03:43:04,1.25646273,-0.35232295,-0.35066013,-0.0051823299999999,0.03311981,-0.05250579,-11.76615574,25.95433375,-32.79252333,11.707405516,0.5904114398,-0.5730291112,-1.135151848,-0.0291535781,0.0204906126,-0.0345437212899999,0.0045
03:43:04,1.266960875,-0.361029625,-0.357488875,-0.0055498749999999,0.0340093749999999,-0.0539866249999999,-11.76161125,25.942516125,-32.800414875,11.64581205,0.5922993525,-0.58472415,-1.146606,-0.03030001375,0.0212101124999999,-0.0354205843749999,0.0045
03:43:04,1.27745902,-0.3697363,-0.36431762,-0.0059174199999999,0.0348989399999999,-0.0554674599999999,-11.75706676,25.9306985,-32.80830642,11.584218584,0.5941872652,-0.5964191888,-1.158060152,-0.0314464494,0.0219296124,-0.0362974474599999,0.0045
03:43:04,1.287957165,-0.378442975,-0.3711463650000001,-0.0062849649999999,0.035788505,-0.0569482949999999,-11.75252227,25.918880875,-32.816197965,11.522625118,0.5960751779,-0.6081142276,-1.169514304,-0.03259288505,0.0226491122999999,-0.0371743105449999,0.0045
03:43:04,1.29845531,-0.38714965,-0.37797511,-0.0066525099999999,0.0366780699999999,-0.0584291299999999,-11.74797778,25.90706325,-32.82408951,11.461031652,0.5979630906,-0.6198092664,-1.180968456,-0.0337393207,0.0233686122,-0.0380511736299999,0.0045
03:43:04,1.3089534550000002,-0.395856325,-0.384803855,-0.0070200549999999,0.0375676349999999,-0.0599099649999999,-11.74343329,25.895245625,-32.831981055,11.399438186,0.5998510033,-0.6315043052,-1.192422608,-0.03488575635,0.0240881120999999,-0.0389280367149999,0.0045
03:43:04,1.3194516,-0.404563,-0.3916326,-0.0073875999999999,0.0384572,-0.0613907999999999,-11.7388888,25.883428,-32.8398726,11.33784472,0.601738916,-0.643199344,-1.20387676,-0.036032192,0.024807612,-0.0398048998,0.0045
03:43:04,1.329949745,-0.4132696750000001,-0.3984613450000001,-0.0077551449999999,0.0393467649999999,-0.062871635,-11.73434431,25.871610375,-32.847764145,11.276251254,0.6036268287,-0.6548943828,-1.215330912,-0.03717862765,0.0255271118999999,-0.040681762885,0.0045
03:43:04,1.34044789,-0.4219763500000001,-0.40529009,-0.0081226899999999,0.0402363299999999,-0.06435247,-11.72979982,25.85979275,-32.85565569,11.214657788,0.6055147414,-0.6665894216,-1.226785064,-0.0383250633,0.0262466118,-0.04155862597,0.0045
03:43:04,1.3509460350000002,-0.4306830250000001,-0.412118835,-0.0084902349999999,0.0411258949999999,-0.065833305,-11.72525533,25.847975125,-32.863547235,11.153064322,0.6074026540999999,-0.6782844604,-1.238239216,-0.03947149895,0.0269661116999999,-0.042435489055,0.0045
03:43:04,1.36144418,-0.4393897000000001,-0.4189475800000001,-0.0088577799999999,0.0420154599999999,-0.06731414,-11.72071084,25.8361575,-32.87143878,11.091470856,0.6092905667999999,-0.6899794992,-1.249693368,-0.0406179346,0.0276856116,-0.0433123521399999,0.0045
03:43:04,1.371942325,-0.4480963750000001,-0.425776325,-0.0092253249999999,0.042905025,-0.068794975,-11.71616635,25.824339875,-32.879330325,11.02987739,0.6111784795,-0.701674538,-1.26114752,-0.04176437025,0.0284051114999999,-0.0441892152249999,0.0045
03:43:04,1.38244047,-0.4568030500000001,-0.43260507,-0.0095928699999999,0.0437945899999999,-0.07027581,-11.71162186,25.81252225,-32.88722187,10.968283924,0.6130663922,-0.7133695767999999,-1.272601672,-0.0429108059,0.0291246114,-0.0450660783099999,0.0045
03:43:04,1.392938615,-0.4655097250000001,-0.439433815,-0.0099604149999999,0.0446841549999999,-0.071756645,-11.70707737,25.800704625,-32.895113415,10.906690458,0.6149543049,-0.7250646156,-1.284055824,-0.04405724155,0.0298441113,-0.0459429413949999,0.0045
03:43:04,1.40343676,-0.4742164000000001,-0.4462625600000001,-0.0103279599999999,0.04557372,-0.07323748,-11.70253288,25.788887,-32.90300496,10.845096992,0.6168422176,-0.7367596543999999,-1.295509976,-0.0452036772,0.0305636111999999,-0.0468198044799999,0.0045
03:43:04,1.413934905,-0.4829230750000001,-0.453091305,-0.0106955049999999,0.0464632849999999,-0.074718315,-11.69798839,25.777069375,-32.910896505,10.783503526,0.6187301303,-0.7484546932,-1.306964128,-0.04635011285,0.0312831111,-0.0476966675649999,0.0045
03:43:04,1.4244330500000002,-0.4916297500000001,-0.45992005,-0.0110630499999999,0.0473528499999999,-0.07619915,-11.6934439,25.76525175,-32.91878805,10.72191006,0.620618043,-0.7601497319999999,-1.31841828,-0.0474965485,0.032002611,-0.0485735306499999,0.0045
03:43:04,1.434931195,-0.5003364250000001,-0.4667487950000001,-0.0114305949999999,0.048242415,-0.077679985,-11.68889941,25.753434125,-32.926679595,10.660316594,0.6225059557,-0.7718447708,-1.329872432,-0.04864298415,0.0327221109,-0.049450393735,0.0045
03:43:04,1.44542934,-0.5090431000000001,-0.4735775400000001,-0.0117981399999999,0.0491319799999999,-0.07916082,-11.68435492,25.7416165,-32.93457114,10.598723128,0.6243938684,-0.7835398095999999,-1.341326584,-0.0497894198,0.0334416107999999,-0.05032725682,0.0045
03:43:04,1.455927485,-0.5177497750000001,-0.480406285,-0.0121656849999999,0.0500215449999999,-0.0806416549999999,-11.67981043,25.729798875,-32.942462685,10.537129662,0.6262817811,-0.7952348484,-1.352780736,-0.05093585545,0.0341611107,-0.051204119905,0.0045
03:43:04,1.46642563,-0.5264564500000001,-0.48723503,-0.0125332299999999,0.0509111099999999,-0.08212249,-11.67526594,25.71798125,-32.95035423,10.475536196,0.6281696938,-0.8069298871999999,-1.364234888,-0.0520822911,0.0348806106,-0.05208098299,0.0045
03:43:04,1.476923775,-0.5351631250000001,-0.4940637750000001,-0.0129007749999999,0.0518006749999999,-0.0836033249999999,-11.67072145,25.706163625,-32.958245775,10.41394273,0.6300576065,-0.818624926,-1.37568904,-0.05322872675,0.0356001105,-0.0529578460749999,0.0045
03:43:04,1.48742192,-0.5438698000000001,-0.5008925200000001,-0.0132683199999999,0.0526902399999999,-0.08508416,-11.66617696,25.694346,-32.96613732,10.352349264,0.6319455192,-0.8303199647999999,-1.387143192,-0.0543751624,0.0363196103999999,-0.0538347091599999,0.0045
03:43:04,1.497920065,-0.5525764750000001,-0.507721265,-0.0136358649999999,0.0535798049999999,-0.0865649949999999,-11.66163247,25.682528375,-32.974028865,10.290755798,0.6338334319,-0.8420150036,-1.398597344,-0.05552159805,0.0370391103,-0.0547115722449999,0.0045
03:43:04,1.50841821,-0.5612831500000001,-0.5145500100000001,-0.0140034099999999,0.0544693699999999,-0.08804583,-11.65708798,25.67071075,-32.98192041,10.229162332,0.6357213446,-0.8537100423999999,-1.410051496,-0.0566680337,0.0377586102,-0.0555884353299999,0.0045
03:43:04,1.518916355,-0.5699898250000001,-0.5213787550000001,-0.0143709549999999,0.055358935,-0.0895266649999999,-11.65254349,25.658893125,-32.989811955,10.167568866,0.6376092573000001,-0.8654050812,-1.421505648,-0.05781446935,0.0384781100999999,-0.0564652984149999,0.0045
03:43:04,1.5294145,-0.5786965000000001,-0.5282075,-0.0147384999999999,0.0562484999999999,-0.0910075,-11.647999,25.6470755,-32.9977035,10.1059754,0.6394971700000001,-0.8771001199999999,-1.4329598,-0.058960905,0.0391976099999999,-0.0573421614999999,0.0045
03:43:04,1.539912645,-0.587403175,-0.535036245,-0.0151060449999999,0.0571380649999999,-0.0924883349999999,-11.64345451,25.635257875,-33.005595045,10.044381934,0.6413850827,-0.8887951588,-1.444413952,-0.06010734065,0.0399171099,-0.0582190245849999,0.0045
03:43:04,1.55041079,-0.59610985,-0.5418649900000001,-0.0154735899999999,0.05802763,-0.09396917,-11.63891002,25.62344025,-33.01348659,9.982788468,0.6432729954,-0.9004901975999999,-1.455868104,-0.0612537763,0.0406366098,-0.05909588767,0.0045
03:43:04,1.560908935,-0.604816525,-0.5486937350000001,-0.0158411349999999,0.0589171949999999,-0.0954500049999999,-11.63436553,25.611622625,-33.021378135,9.921195002,0.6451609081,-0.9121852364,-1.467322256,-0.06240021195,0.0413561096999999,-0.059972750755,0.0045
03:43:04,1.5714070800000002,-0.6135232,-0.55552248,-0.0162086799999999,0.0598067599999999,-0.09693084,-11.62982104,25.599805,-33.02926968,9.859601536,0.6470488208,-0.9238802752,-1.478776408,-0.0635466476,0.0420756095999999,-0.06084961384,0.0045
03:43:04,1.581905225,-0.622229875,-0.5623512250000001,-0.0165762249999999,0.0606963249999999,-0.0984116749999999,-11.62527655,25.587987375,-33.037161225,9.79800807,0.6489367335,-0.935575314,-1.49023056,-0.06469308325,0.0427951095,-0.0617264769249999,0.0045
03:43:04,1.59240337,-0.63093655,-0.5691799700000001,-0.0169437699999999,0.0615858899999999,-0.09989251,-11.62073206,25.57616975,-33.04505277,9.736414604,0.6508246462,-0.9472703528,-1.501684712,-0.0658395189,0.0435146094,-0.06260334001,0.0045
03:43:04,1.602901515,-0.639643225,-0.5760087150000001,-0.0173113149999999,0.0624754549999999,-0.1013733449999999,-11.61618757,25.564352125,-33.052944315,9.674821138,0.6527125589,-0.9589653916,-1.513138864,-0.06698595455,0.0442341092999999,-0.0634802030949999,0.0045
03:43:04,1.61339966,-0.6483499,-0.58283746,-0.0176788599999999,0.06336502,-0.10285418,-11.61164308,25.5525345,-33.06083586,9.613227672,0.6546004716,-0.9706604304,-1.524593016,-0.0681323902,0.0449536091999999,-0.0643570661799999,0.0045
03:43:04,1.623897805,-0.657056575,-0.5896662050000001,-0.0180464049999999,0.0642545849999999,-0.1043350149999999,-11.60709859,25.540716875,-33.068727405,9.551634206,0.6564883843,-0.9823554692,-1.536047168,-0.06927882585,0.0456731091,-0.0652339292649999,0.0045
03:43:04,1.63439595,-0.66576325,-0.5964949500000001,-0.0184139499999999,0.06514415,-0.10581585,-11.6025541,25.52889925,-33.07661895,9.49004074,0.658376297,-0.994050508,-1.54750132,-0.0704252615,0.046392609,-0.0661107923499999,0.0045
03:43:04,1.6448940950000002,-0.674469925,-0.603323695,-0.0187814949999999,0.0660337149999999,-0.1072966849999999,-11.59800961,25.517081625,-33.084510495,9.428447274,0.6602642097,-1.0057455468,-1.558955472,-0.07157169715,0.0471121088999999,-0.0669876554349999,0.0045
03:43:04,1.65539224,-0.6831766000000001,-0.6101524400000001,-0.0191490399999999,0.0669232799999999,-0.10877752,-11.59346512,25.505264,-33.09240204,9.366853808,0.6621521224,-1.0174405856,-1.570409624,-0.0727181328,0.0478316087999999,-0.0678645185199999,0.0045
03:43:04,1.665890385,-0.6918832750000001,-0.6169811850000001,-0.0195165849999999,0.067812845,-0.1102583549999999,-11.58892063,25.493446375,-33.100293585,9.305260342,0.6640400351,-1.0291356244,-1.581863776,-0.07386456845,0.0485511087,-0.068741381605,0.0045
03:43:04,1.67638853,-0.7005899500000001,-0.6238099300000001,-0.0198841299999999,0.0687024099999999,-0.11173919,-11.58437614,25.48162875,-33.10818513,9.243666876,0.6659279478,-1.0408306632,-1.593317928,-0.0750110041,0.0492706086,-0.06961824469,0.0045
03:43:04,1.686886675,-0.7092966250000001,-0.630638675,-0.0202516749999999,0.0695919749999999,-0.1132200249999999,-11.57983165,25.469811125,-33.116076675,9.18207341,0.6678158605,-1.052525702,-1.60477208,-0.07615743975,0.0499901084999999,-0.070495107775,0.0045
03:43:04,1.69738482,-0.7180033000000001,-0.6374674200000001,-0.0206192199999999,0.07048154,-0.11470086,-11.57528716,25.4579935,-33.12396822,9.120479944,0.6697037732,-1.0642207408,-1.616226232,-0.0773038754,0.0507096083999999,-0.07137197086,0.0045
03:43:04,1.707882965,-0.7267099750000001,-0.6442961650000001,-0.0209867649999999,0.0713711049999999,-0.1161816949999999,-11.57074267,25.446175875,-33.131859765,9.058886478,0.6715916859,-1.0759157796,-1.627680384,-0.07845031105,0.0514291083,-0.072248833945,0.0045
03:43:04,1.7183811100000002,-0.7354166500000001,-0.6511249100000001,-0.0213543099999999,0.0722606699999999,-0.11766253,-11.56619818,25.43435825,-33.13975131,8.997293012,0.6734795986,-1.0876108184,-1.639134536,-0.0795967467,0.0521486082,-0.0731256970299999,0.0045
03:43:04,1.728879255,-0.7441233250000001,-0.657953655,-0.0217218549999999,0.073150235,-0.1191433649999999,-11.56165369,25.422540625,-33.147642855,8.935699545999999,0.6753675113,-1.0993058572,-1.650588688,-0.08074318235,0.0528681080999999,-0.0740025601149999,0.0045
03:43:04,1.7393774,-0.7528300000000001,-0.6647824000000001,-0.0220893999999999,0.0740397999999999,-0.1206242,-11.5571092,25.410723,-33.1555344,8.87410608,0.6772554239999999,-1.111000896,-1.66204284,-0.081889618,0.0535876079999999,-0.0748794231999999,0.0045
03:43:04,1.749875545,-0.7615366750000001,-0.6716111450000001,-0.0224569449999999,0.0749293649999999,-0.1221050349999999,-11.55256471,25.398905375,-33.163425945,8.812512614,0.6791433366999999,-1.1226959348,-1.673496992,-0.08303605365,0.0543071079,-0.0757562862849999,0.0045
03:43:04,1.76037369,-0.7702433500000001,-0.67843989,-0.0228244899999999,0.0758189299999999,-0.12358587,-11.54802022,25.38708775,-33.17131749,8.750919148,0.6810312494,-1.1343909736,-1.684951144,-0.0841824893,0.0550266078,-0.0766331493699999,0.0045
03:43:04,1.770871835,-0.7789500250000001,-0.6852686350000001,-0.0231920349999999,0.0767084949999999,-0.125066705,-11.54347573,25.375270125,-33.179209035,8.689325682,0.6829191621,-1.1460860124,-1.696405296,-0.08532892495,0.0557461076999999,-0.077510012455,0.0045
03:43:04,1.78136998,-0.7876567000000001,-0.6920973800000001,-0.0235595799999999,0.07759806,-0.12654754,-11.53893124,25.3634525,-33.18710058,8.627732215999998,0.6848070748,-1.1577810512,-1.707859448,-0.0864753606,0.0564656075999999,-0.07838687554,0.0045
03:43:04,1.791868125,-0.7963633750000001,-0.6989261250000001,-0.0239271249999999,0.0784876249999999,-0.1280283749999999,-11.53438675,25.351634875,-33.194992125,8.56613875,0.6866949875,-1.16947609,-1.7193136,-0.08762179625,0.0571851075,-0.079263738625,0.0045
03:43:04,1.80236627,-0.8050700500000001,-0.70575487,-0.0242946699999999,0.0793771899999999,-0.1295092099999999,-11.52984226,25.33981725,-33.20288367,8.504545283999999,0.6885829002,-1.1811711288,-1.730767752,-0.0887682319,0.0579046074,-0.08014060171,0.0045
03:43:04,1.812864415,-0.8137767250000001,-0.7125836150000001,-0.0246622149999999,0.080266755,-0.130990045,-11.52529777,25.327999625,-33.210775215,8.442951818,0.6904708129,-1.1928661676,-1.742221904,-0.08991466755,0.0586241072999999,-0.081017464795,0.0045
03:43:04,1.82336256,-0.8224834000000001,-0.7194123600000001,-0.0250297599999999,0.0811563199999999,-0.13247088,-11.52075328,25.316182,-33.21866676,8.381358352,0.6923587256,-1.2045612064,-1.753676056,-0.0910611032,0.0593436071999999,-0.0818943278799999,0.0045
03:43:04,1.833860705,-0.8311900750000001,-0.726241105,-0.0253973049999999,0.0820458849999999,-0.133951715,-11.51620879,25.304364375,-33.226558305,8.319764886,0.6942466383,-1.2162562452,-1.765130208,-0.09220753885,0.0600631071,-0.0827711909649999,0.0045
03:43:04,1.84435885,-0.8398967500000001,-0.7330698500000001,-0.0257648499999999,0.08293545,-0.1354325499999999,-11.5116643,25.29254675,-33.234449850000004,8.25817142,0.696134551,-1.227951284,-1.77658436,-0.0933539745,0.0607826069999999,-0.0836480540499999,0.0045
03:43:04,1.854856995,-0.8486034250000001,-0.7398985950000001,-0.0261323949999999,0.0838250149999999,-0.136913385,-11.50711981,25.280729125,-33.242341395000004,8.196577953999999,0.6980224637,-1.2396463228,-1.788038512,-0.09450041015,0.0615021068999999,-0.0845249171349999,0.0045
03:43:04,1.86535514,-0.8573101000000001,-0.7467273400000001,-0.0264999399999999,0.0847145799999999,-0.13839422,-11.50257532,25.2689115,-33.250232940000004,8.134984487999999,0.6999103764,-1.2513413616,-1.799492664,-0.0956468458,0.0622216067999999,-0.0854017802199999,0.0045
03:43:04,1.875853285,-0.8660167750000001,-0.753556085,-0.0268674849999999,0.0856041449999999,-0.139875055,-11.49803083,25.257093875,-33.258124485,8.073391022,0.7017982891000001,-1.2630364004,-1.810946816,-0.09679328145,0.0629411067,-0.0862786433049999,0.0045
03:43:04,1.88635143,-0.8747234500000001,-0.7603848300000001,-0.0272350299999999,0.0864937099999999,-0.1413558899999999,-11.49348634,25.24527625,-33.26601603,8.011797556,0.7036862018000001,-1.2747314392,-1.822400968,-0.0979397171,0.0636606065999999,-0.08715550639,0.0045
03:43:04,1.896849575,-0.8834301250000001,-0.7672135750000001,-0.0276025749999999,0.087383275,-0.142836725,-11.48894185,25.233458625,-33.273907575,7.95020409,0.7055741145000001,-1.286426478,-1.83385512,-0.09908615275,0.0643801064999999,-0.088032369475,0.0045
03:43:04,1.90734772,-0.8921368000000001,-0.7740423200000001,-0.0279701199999999,0.0882728399999999,-0.14431756,-11.48439736,25.221641,-33.28179912,7.888610624,0.7074620272000001,-1.2981215168,-1.845309272,-0.1002325884,0.0650996064,-0.08890923256,0.0045
03:43:04,1.917845865,-0.900843475,-0.7808710650000001,-0.0283376649999999,0.0891624049999999,-0.145798395,-11.47985287,25.209823375,-33.289690665,7.8270171579999985,0.7093499399000001,-1.3098165556,-1.856763424,-0.10137902405,0.0658191063,-0.089786095645,0.0045
03:43:04,1.92834401,-0.90955015,-0.7876998100000001,-0.0287052099999999,0.09005197,-0.1472792299999999,-11.47530838,25.19800575,-33.29758221,7.765423691999999,0.7112378526,-1.3215115944,-1.868217576,-0.1025254597,0.0665386061999999,-0.0906629587299999,0.0045
03:43:04,1.938842155,-0.918256825,-0.7945285550000001,-0.0290727549999999,0.0909415349999999,-0.148760065,-11.47076389,25.186188125,-33.305473755,7.703830225999999,0.7131257653,-1.3332066332,-1.879671728,-0.10367189535,0.0672581060999999,-0.0915398218149999,0.0045
03:43:04,1.9493403,-0.9269635,-0.8013573,-0.0294402999999999,0.0918310999999999,-0.1502409,-11.4662194,25.1743705,-33.3133653,7.642236759999999,0.715013678,-1.344901672,-1.89112588,-0.104818331,0.067977606,-0.0924166848999999,0.0045
03:43:04,1.959838445,-0.935670175,-0.8081860450000001,-0.0298078449999999,0.092720665,-0.151721735,-11.46167491,25.162552875,-33.321256845,7.580643294,0.7169015907,-1.3565967108,-1.902580032,-0.10596476665,0.0686971059,-0.0932935479849999,0.0045
03:43:04,1.97033659,-0.94437685,-0.8150147900000001,-0.0301753899999999,0.09361023,-0.1532025699999999,-11.45713042,25.15073525,-33.32914839,7.519049828,0.7187895034,-1.3682917496,-1.914034184,-0.1071112023,0.0694166057999999,-0.0941704110699999,0.0045
03:43:04,1.980834735,-0.953083525,-0.8218435350000001,-0.0305429349999999,0.0944997949999999,-0.154683405,-11.45258593,25.138917625,-33.337039935,7.4574563619999985,0.7206774161,-1.3799867884,-1.925488336,-0.10825763795,0.0701361056999999,-0.0950472741549999,0.0045
03:43:04,1.99133288,-0.9617902,-0.82867228,-0.0309104799999999,0.0953893599999999,-0.15616424,-11.44804144,25.1271,-33.34493148,7.395862895999999,0.7225653288,-1.3916818272,-1.936942488,-0.1094040736,0.0708556056,-0.09592413724,0.0045
03:43:04,2.001831025,-0.970496875,-0.8355010250000001,-0.0312780249999999,0.096278925,-0.157645075,-11.44349695,25.115282375,-33.352823025,7.334269429999999,0.7244532415,-1.403376866,-1.94839664,-0.11055050925,0.0715751055,-0.0968010003249999,0.0045
03:43:04,2.01232917,-0.97920355,-0.8423297700000001,-0.0316455699999999,0.0971684899999999,-0.1591259099999999,-11.43895246,25.10346475,-33.36071457,7.272675963999999,0.7263411542,-1.4150719048,-1.959850792,-0.1116969449,0.0722946053999999,-0.09767786341,0.0045
03:43:04,2.022827315,-0.987910225,-0.8491585150000002,-0.0320131149999999,0.0980580549999999,-0.160606745,-11.43440797,25.091647125,-33.368606115,7.211082498,0.7282290669,-1.4267669436,-1.971304944,-0.11284338055,0.0730141052999999,-0.0985547264949999,0.0045
03:43:04,2.0333254600000004,-0.9966169,-0.8559872600000001,-0.0323806599999999,0.09894762,-0.16208758,-11.42986348,25.0798295,-33.37649766,7.149489032,0.7301169796,-1.4384619824,-1.982759096,-0.1139898162,0.0737336052,-0.09943158958,0.0045
03:43:04,2.043823605,-1.005323575,-0.8628160050000001,-0.0327482049999999,0.0998371849999999,-0.163568415,-11.42531899,25.068011875,-33.384389205,7.087895565999999,0.7320048923,-1.4501570212,-1.994213248,-0.11513625185,0.0744531051,-0.1003084526649999,0.0045
03:43:04,2.05432175,-1.01403025,-0.8696447500000001,-0.0331157499999999,0.1007267499999999,-0.1650492499999999,-11.4207745,25.05619425,-33.39228075,7.026302099999999,0.733892805,-1.46185206,-2.0056674,-0.1162826875,0.0751726049999999,-0.1011853157499999,0.0045
03:43:04,2.0648198950000003,-1.022736925,-0.876473495,-0.0334832949999999,0.101616315,-0.166530085,-11.41623001,25.044376625,-33.400172295000004,6.964708633999999,0.7357807177,-1.4735470988,-2.0171215520000003,-0.11742912315,0.0758921049,-0.102062178835,0.0045
03:43:04,2.07531804,-1.0314436,-0.88330224,-0.0338508399999999,0.1025058799999999,-0.16801092,-11.41168552,25.032559,-33.408063840000004,6.903115167999999,0.7376686304,-1.4852421376,-2.028575704,-0.1185755588,0.0766116048,-0.1029390419199999,0.0045
03:43:04,2.085816185,-1.040150275,-0.8901309850000002,-0.0342183849999999,0.1033954449999999,-0.169491755,-11.40714103,25.020741375,-33.415955385000004,6.841521702,0.7395565431,-1.4969371764,-2.0400298560000003,-0.11972199445,0.0773311047,-0.103815905005,0.0045
03:43:04,2.09631433,-1.04885695,-0.8969597300000002,-0.0345859299999999,0.10428501,-0.1709725899999999,-11.40259654,25.00892375,-33.42384693,6.779928236,0.7414444558,-1.5086322152,-2.051484008,-0.1208684301,0.0780506045999999,-0.1046927680899999,0.0045
03:43:04,2.106812475,-1.057563625,-0.903788475,-0.0349534749999999,0.1051745749999999,-0.172453425,-11.39805205,24.997106125,-33.431738475,6.718334769999999,0.7433323685,-1.520327254,-2.0629381600000003,-0.12201486575,0.0787701045,-0.105569631175,0.0045
03:43:04,2.11731062,-1.0662703,-0.91061722,-0.0353210199999999,0.1060641399999999,-0.17393426,-11.39350756,24.9852885,-33.43963002,6.656741303999999,0.7452202812,-1.5320222928,-2.074392312,-0.1231613014,0.0794896044,-0.1064464942599999,0.0045
03:43:04,2.127808765,-1.074976975,-0.917445965,-0.0356885649999999,0.106953705,-0.175415095,-11.38896307,24.973470875,-33.447521565,6.595147837999999,0.7471081938999999,-1.5437173316,-2.0858464640000003,-0.12430773705,0.0802091043,-0.107323357345,0.0045
03:43:04,2.13830691,-1.08368365,-0.92427471,-0.0360561099999999,0.1078432699999999,-0.1768959299999999,-11.38441858,24.96165325,-33.45541311,6.533554371999999,0.7489961065999999,-1.5554123704,-2.097300616,-0.1254541727,0.0809286041999999,-0.1082002204299999,0.0045
03:43:04,2.1488050550000004,-1.092390325,-0.931103455,-0.0364236549999999,0.1087328349999999,-0.178376765,-11.37987409,24.949835625,-33.463304655,6.471960906,0.7508840192999999,-1.5671074092,-2.1087547680000003,-0.12660060835,0.0816481041,-0.1090770835149999,0.0045
03:43:04,2.1593032,-1.101097,-0.9379322,-0.0367911999999999,0.1096224,-0.1798576,-11.3753296,24.938018,-33.4711962,6.410367439999998,0.752771932,-1.578802448,-2.12020892,-0.127747044,0.082367604,-0.1099539466,0.0045
03:43:04,2.169801345,-1.1098036750000002,-0.9447609450000002,-0.0371587449999999,0.1105119649999999,-0.181338435,-11.37078511,24.926200375,-33.479087745,6.348773973999998,0.7546598447,-1.5904974868,-2.1316630720000003,-0.12889347965,0.0830871038999999,-0.1108308096849999,0.0045
03:43:04,2.1802994900000003,-1.1185103500000002,-0.9515896900000002,-0.0375262899999999,0.1114015299999999,-0.1828192699999999,-11.36624062,24.91438275,-33.48697929,6.287180507999999,0.7565477574,-1.6021925256,-2.143117224,-0.1300399153,0.0838066037999999,-0.11170767277,0.0045
03:43:04,2.190797635,-1.1272170250000002,-0.958418435,-0.0378938349999999,0.112291095,-0.184300105,-11.36169613,24.902565125,-33.494870835,6.225587041999999,0.7584356701,-1.6138875644,-2.1545713760000003,-0.13118635095,0.0845261037,-0.1125845358549999,0.0045
03:43:04,2.20129578,-1.1359237000000002,-0.96524718,-0.0382613799999999,0.1131806599999999,-0.18578094,-11.35715164,24.8907475,-33.50276238,6.163993575999999,0.7603235828,-1.6255826032,-2.166025528,-0.1323327866,0.0852456036,-0.11346139894,0.0045
03:43:04,2.2117939250000003,-1.1446303750000002,-0.972075925,-0.0386289249999999,0.1140702249999999,-0.187261775,-11.35260715,24.878929875,-33.510653925,6.10240011,0.7622114955,-1.637277642,-2.1774796800000003,-0.13347922225,0.0859651034999999,-0.1143382620249999,0.0045
03:43:04,2.22229207,-1.1533370500000002,-0.97890467,-0.0389964699999999,0.1149597899999999,-0.1887426099999999,-11.34806266,24.86711225,-33.51854547,6.040806643999998,0.7640994082,-1.6489726808,-2.188933832,-0.1346256579,0.0866846033999999,-0.11521512511,0.0045
03:43:04,2.232790215,-1.1620437250000002,-0.985733415,-0.0393640149999999,0.115849355,-0.190223445,-11.34351817,24.855294625,-33.526437015,5.979213177999998,0.7659873209,-1.6606677196,-2.200387984,-0.13577209355,0.0874041033,-0.1160919881949999,0.0045
03:43:04,2.24328836,-1.1707504000000002,-0.9925621600000002,-0.0397315599999999,0.1167389199999999,-0.19170428,-11.33897368,24.843477,-33.53432856,5.917619711999999,0.7678752336,-1.6723627584,-2.211842136,-0.1369185292,0.0881236032,-0.11696885128,0.0045
03:43:04,2.253786505,-1.1794570750000002,-0.9993909050000002,-0.0400991049999999,0.1176284849999999,-0.1931851149999999,-11.33442919,24.831659375,-33.542220105,5.856026245999999,0.7697631463,-1.6840577972,-2.223296288,-0.13806496485,0.0888431030999999,-0.1178457143649999,0.0045
03:43:04,2.26428465,-1.1881637500000002,-1.0062196500000002,-0.0404666499999999,0.11851805,-0.1946659499999999,-11.3298847,24.81984175,-33.550111650000005,5.794432779999999,0.7716510590000001,-1.695752836,-2.23475044,-0.1392114005,0.0895626029999999,-0.1187225774499999,0.0045
03:43:04,2.274782795,-1.1968704250000002,-1.0130483950000002,-0.0408341949999999,0.1194076149999999,-0.196146785,-11.32534021,24.808024125,-33.558003195000005,5.732839314,0.7735389717000001,-1.7074478748,-2.246204592,-0.14035783615,0.0902821029,-0.119599440535,0.0045
03:43:04,2.28528094,-1.2055771000000002,-1.0198771400000002,-0.0412017399999999,0.1202971799999999,-0.19762762,-11.32079572,24.7962065,-33.565894740000005,5.671245847999998,0.7754268844000001,-1.7191429135999998,-2.257658744,-0.1415042718,0.0910016028,-0.1204763036199999,0.0045
03:43:04,2.2957790850000004,-1.2142837750000002,-1.0267058850000002,-0.0415692849999999,0.121186745,-0.1991084549999999,-11.31625123,24.784388875,-33.573786285000004,5.609652381999998,0.7773147971000001,-1.7308379524,-2.269112896,-0.14265070745,0.0917211026999999,-0.121353166705,0.0045
03:43:04,2.30627723,-1.2229904500000002,-1.03353463,-0.0419368299999999,0.1220763099999999,-0.2005892899999999,-11.31170674,24.77257125,-33.581677830000004,5.548058915999999,0.7792027098000001,-1.7425329912,-2.280567048,-0.1437971431,0.0924406026,-0.1222300297899999,0.0045
03:43:04,2.316775375,-1.2316971250000002,-1.040363375,-0.0423043749999999,0.1229658749999999,-0.202070125,-11.30716225,24.760753625,-33.589569375,5.486465449999999,0.7810906225,-1.7542280300000002,-2.2920212,-0.14494357875,0.0931601024999999,-0.123106892875,0.0045
03:43:04,2.3272735200000003,-1.2404038000000002,-1.04719212,-0.0426719199999999,0.12385544,-0.20355096,-11.30261776,24.748936,-33.59746092,5.424871983999999,0.7829785352,-1.7659230687999998,-2.303475352,-0.1460900144,0.0938796023999999,-0.1239837559599999,0.0045
03:43:04,2.337771665,-1.2491104750000002,-1.054020865,-0.0430394649999999,0.1247450049999999,-0.2050317949999999,-11.29807327,24.737118375,-33.605352465,5.363278518,0.7848664479,-1.7776181076,-2.314929504,-0.14723645005,0.0945991022999999,-0.124860619045,0.0045
03:43:04,2.34826981,-1.2578171500000002,-1.06084961,-0.0434070099999999,0.12563457,-0.2065126299999999,-11.29352878,24.72530075,-33.61324401,5.301685051999998,0.7867543606,-1.7893131464,-2.326383656,-0.1483828857,0.0953186021999999,-0.12573748213,0.0045
03:43:04,2.358767955,-1.2665238250000002,-1.067678355,-0.0437745549999999,0.1265241349999999,-0.207993465,-11.28898429,24.713483125,-33.621135555,5.240091585999998,0.7886422733,-1.8010081852000002,-2.337837808,-0.14952932135,0.0960381021,-0.126614345215,0.0045
03:43:04,2.3692661,-1.2752305000000002,-1.0745071,-0.0441420999999999,0.1274136999999999,-0.2094743,-11.2844398,24.7016655,-33.6290271,5.178498119999999,0.790530186,-1.812703224,-2.34929196,-0.150675757,0.096757602,-0.1274912083,0.0045
03:43:04,2.379764245,-1.2839371750000002,-1.081335845,-0.0445096449999999,0.128303265,-0.2109551349999999,-11.27989531,24.689847875,-33.636918645,5.116904653999999,0.7924180987,-1.8243982628,-2.360746112,-0.15182219265,0.0974771019,-0.128368071385,0.0045
03:43:04,2.39026239,-1.29264385,-1.0881645900000003,-0.0448771899999999,0.1291928299999999,-0.2124359699999999,-11.27535082,24.67803025,-33.64481019,5.055311187999999,0.7943060114,-1.8360933016,-2.372200264,-0.1529686283,0.0981966018,-0.12924493447,0.0045
03:43:04,2.400760535,-1.301350525,-1.0949933350000003,-0.0452447349999999,0.1300823949999999,-0.213916805,-11.27080633,24.666212625,-33.652701735,4.993717722,0.7961939241,-1.8477883404,-2.383654416,-0.15411506395,0.0989161016999999,-0.130121797555,0.0045
03:43:04,2.41125868,-1.3100572,-1.1018220800000005,-0.0456122799999999,0.13097196,-0.21539764,-11.26626184,24.654395,-33.66059328,4.932124255999998,0.7980818368,-1.8594833792,-2.395108568,-0.1552614996,0.0996356015999999,-0.13099866064,0.0045
03:43:04,2.421756825,-1.318763875,-1.1086508250000002,-0.0459798249999999,0.1318615249999999,-0.2168784749999999,-11.26171735,24.642577375,-33.668484825,4.870530789999998,0.7999697495,-1.871178418,-2.40656272,-0.15640793525,0.1003551014999999,-0.131875523725,0.0045
03:43:04,2.43225497,-1.32747055,-1.1154795700000002,-0.0463473699999999,0.1327510899999999,-0.2183593099999999,-11.25717286,24.63075975,-33.67637637,4.808937323999999,0.8018576622,-1.8828734568,-2.418016872,-0.1575543709,0.1010746013999999,-0.13275238681,0.0045
03:43:04,2.4427531150000004,-1.336177225,-1.1223083150000002,-0.0467149149999999,0.133640655,-0.219840145,-11.25262837,24.618942125,-33.684267915,4.747343857999999,0.8037455749,-1.8945684956,-2.429471024,-0.15870080655,0.1017941013,-0.133629249895,0.0045
03:43:04,2.45325126,-1.3448839,-1.12913706,-0.0470824599999999,0.1345302199999999,-0.22132098,-11.24808388,24.6071245,-33.69215946,4.685750391999999,0.8056334876,-1.9062635344,-2.440925176,-0.1598472422,0.1025136012,-0.13450611298,0.0045
03:43:04,2.463749405,-1.353590575,-1.135965805,-0.0474500049999999,0.1354197849999999,-0.2228018149999999,-11.24353939,24.595306875,-33.700051005,4.624156926,0.8075214003,-1.9179585732,-2.452379328,-0.16099367785,0.1032331011,-0.135382976065,0.0045
03:43:04,2.4742475500000003,-1.36229725,-1.14279455,-0.0478175499999999,0.13630935,-0.2242826499999999,-11.2389949,24.58348925,-33.70794255,4.562563459999998,0.809409313,-1.929653612,-2.46383348,-0.1621401135,0.103952601,-0.13625983915,0.0045
03:43:04,2.484745695,-1.371003925,-1.149623295,-0.0481850949999999,0.1371989149999999,-0.2257634849999999,-11.23445041,24.571671625,-33.715834095000005,4.500969993999998,0.8112972257,-1.9413486508,-2.475287632,-0.16328654915,0.1046721008999999,-0.137136702235,0.0045
03:43:04,2.49524384,-1.3797106,-1.15645204,-0.0485526399999999,0.1380884799999999,-0.22724432,-11.22990592,24.559854,-33.723725640000005,4.439376527999999,0.8131851384,-1.9530436896,-2.486741784,-0.1644329848,0.1053916007999999,-0.13801356532,0.0045
03:43:04,2.505741985,-1.388417275,-1.163280785,-0.0489201849999999,0.138978045,-0.228725155,-11.22536143,24.548036375,-33.731617185000005,4.377783061999999,0.8150730511,-1.9647387284,-2.498195936,-0.16557942045,0.1061111006999999,-0.138890428405,0.0045
03:43:04,2.51624013,-1.39712395,-1.17010953,-0.0492877299999999,0.1398676099999999,-0.2302059899999999,-11.22081694,24.53621875,-33.739508730000004,4.316189595999999,0.8169609637999999,-1.9764337672,-2.509650088,-0.1667258561,0.1068306005999999,-0.13976729149,0.0045
03:43:04,2.526738275,-1.405830625,-1.176938275,-0.0496552749999999,0.140757175,-0.2316868249999999,-11.21627245,24.524401125,-33.747400275000004,4.254596129999998,0.8188488764999999,-1.988128806,-2.52110424,-0.16787229175,0.1075501005,-0.140644154575,0.0045
03:43:04,2.53723642,-1.4145373,-1.1837670200000003,-0.0500228199999999,0.14164674,-0.23316766,-11.21172796,24.5125835,-33.755291820000004,4.193002663999998,0.8207367891999999,-1.9998238448,-2.532558392,-0.1690187274,0.1082696004,-0.14152101766,0.0045
03:43:04,2.5477345650000003,-1.423243975,-1.1905957650000003,-0.0503903649999999,0.1425363049999999,-0.234648495,-11.20718347,24.500765875,-33.763183365,4.131409197999998,0.8226247019,-2.0115188836,-2.544012544,-0.17016516305,0.1089891003,-0.142397880745,0.0045
03:43:04,2.55823271,-1.43195065,-1.1974245100000005,-0.0507579099999999,0.14342587,-0.2361293299999999,-11.20263898,24.48894825,-33.77107491,4.069815731999999,0.8245126146,-2.0232139224,-2.555466696,-0.1713115987,0.1097086001999999,-0.14327474383,0.0045
03:43:04,2.568730855,-1.440657325,-1.2042532550000002,-0.0511254549999999,0.144315435,-0.2376101649999999,-11.19809449,24.477130625,-33.778966455,4.008222265999999,0.8264005273,-2.0349089612,-2.566920848,-0.17245803435,0.1104281000999999,-0.144151606915,0.0045
03:43:05,2.579229,-1.449364,-1.211082,-0.051493,0.145205,-0.239091,-11.19355,24.465313,-33.786858,3.9466288,0.82828844,-2.046604,-2.578375,-0.17360447,0.1111476,-0.14502847,0.0045
03:43:05,2.565217415,-1.4401079,-1.20685198,-0.051386465,0.14422488,-0.23857963,-11.1579127,24.48505131,-33.793820505,3.977295031,0.82189175265,-2.03430843475,-2.5661119995,-0.1733190065,0.1103838918,-0.144616913125,0.0045
03:43:05,2.55120583,-1.4308518,-1.20262196,-0.0512799299999999,0.14324476,-0.23806826,-11.1222754,24.50478962,-33.80078301,4.007961262,0.8154950653,-2.0220128695,-2.553848999,-0.173033543,0.1096201836,-0.14420535625,0.0045
03:43:05,2.537194245,-1.4215957,-1.19839194,-0.0511733949999999,0.14226464,-0.23755689,-11.0866381,24.52452793,-33.807745515,4.038627493,0.8090983779500001,-2.00971730425,-2.5415859985,-0.1727480795,0.1088564754,-0.143793799375,0.0045
03:43:05,2.52318266,-1.4123396,-1.19416192,-0.05106686,0.14128452,-0.23704552,-11.0510008,24.54426624,-33.814708020000005,4.069293724,0.8027016906,-1.997421739,-2.529322998,-0.172462616,0.1080927672,-0.1433822424999999,0.0045
03:43:05,2.5091710750000003,-1.4030835000000002,-1.1899319,-0.0509603249999999,0.1403044,-0.23653415,-11.0153635,24.56400455,-33.821670525,4.099959955,0.79630500325,-1.98512617375,-2.5170599975,-0.1721771525,0.107329059,-0.1429706856249999,0.0045
03:43:05,2.4951594900000003,-1.3938274000000002,-1.18570188,-0.0508537899999999,0.13932428,-0.23602278,-10.9797262,24.58374286,-33.82863303,4.130626186,0.7899083159,-1.9728306085,-2.504796997,-0.171891689,0.1065653508,-0.1425591287499999,0.0045
03:43:05,2.4811479050000003,-1.3845713000000002,-1.18147186,-0.050747255,0.13834416,-0.23551141,-10.9440889,24.60348117,-33.835595535,4.161292417,0.78351162855,-1.96053504325,-2.4925339965,-0.1716062255,0.1058016426,-0.142147571875,0.0045
03:43:05,2.4671363200000003,-1.3753152000000002,-1.17724184,-0.05064072,0.13736404,-0.23500004,-10.9084516,24.62321948,-33.84255804,4.191958648,0.7771149412,-1.948239478,-2.480270996,-0.171320762,0.1050379344,-0.141736015,0.0045
03:43:05,2.4531247350000003,-1.3660591000000002,-1.17301182,-0.0505341849999999,0.13638392,-0.23448867,-10.8728143,24.64295779,-33.849520545000004,4.222624879,0.77071825385,-1.93594391275,-2.4680079955,-0.1710352985,0.1042742262,-0.141324458125,0.0045
03:43:05,2.4391131500000003,-1.3568030000000002,-1.1687818,-0.05042765,0.1354038,-0.2339773,-10.837177,24.6626961,-33.85648305,4.25329111,0.7643215665,-1.9236483475,-2.455744995,-0.170749835,0.103510518,-0.14091290125,0.0045
03:43:05,2.4251015650000003,-1.3475469000000002,-1.16455178,-0.050321115,0.13442368,-0.23346593,-10.8015397,24.68243441,-33.863445555000006,4.283957341,0.75792487915,-1.91135278225,-2.4434819945,-0.1704643715,0.1027468098,-0.140501344375,0.0045
03:43:05,2.4110899800000003,-1.3382908,-1.16032176,-0.0502145799999999,0.13344356,-0.23295456,-10.7659024,24.70217272,-33.87040806,4.314623572,0.7515281918,-1.899057217,-2.431218994,-0.170178908,0.1019831016,-0.1400897875,0.0045
03:43:05,2.3970783950000003,-1.3290347,-1.15609174,-0.050108045,0.13246344,-0.23244319,-10.7302651,24.72191103,-33.877370565,4.345289803,0.74513150445,-1.88676165175,-2.4189559935,-0.1698934445,0.1012193934,-0.1396782306249999,0.0045
03:43:05,2.3830668100000003,-1.3197786,-1.15186172,-0.05000151,0.13148332,-0.23193182,-10.6946278,24.74164934,-33.884333070000004,4.375956034,0.7387348171,-1.8744660865,-2.406692993,-0.169607981,0.1004556852,-0.13926667375,0.0045
03:43:05,2.3690552250000003,-1.3105225,-1.1476317,-0.0498949749999999,0.1305031999999999,-0.23142045,-10.6589905,24.76138765,-33.891295575,4.406622265,0.73233812975,-1.86217052125,-2.3944299925,-0.1693225175,0.099691977,-0.138855116875,0.0045
03:43:05,2.3550436400000003,-1.3012664,-1.14340168,-0.0497884399999999,0.12952308,-0.23090908,-10.6233532,24.78112596,-33.898258080000005,4.437288496,0.7259414424,-1.849874956,-2.382166992,-0.169037054,0.0989282688,-0.13844356,0.0045
03:43:05,2.3410320550000003,-1.2920103,-1.13917166,-0.049681905,0.1285429599999999,-0.23039771,-10.5877159,24.80086427,-33.905220585,4.467954727,0.71954475505,-1.83757939075,-2.3699039915,-0.1687515905,0.0981645606,-0.138032003125,0.0045
03:43:05,2.3270204700000003,-1.2827542,-1.13494164,-0.04957537,0.12756284,-0.22988634,-10.5520786,24.82060258,-33.91218309,4.498620958,0.7131480677,-1.8252838255,-2.357640991,-0.168466127,0.0974008524,-0.13762044625,0.0045
03:43:05,2.3130088850000003,-1.2734981,-1.13071162,-0.0494688349999999,0.12658272,-0.22937497,-10.5164413,24.84034089,-33.919145595,4.529287189,0.7067513803500001,-1.81298826025,-2.3453779905,-0.1681806635,0.0966371442,-0.137208889375,0.0045
03:43:05,2.2989973000000004,-1.264242,-1.1264816,-0.0493623,0.1256026,-0.2288636,-10.480804,24.8600792,-33.9261081,4.55995342,0.700354693,-1.800692695,-2.33311499,-0.1678952,0.0958734359999999,-0.1367973324999999,0.0045
03:43:05,2.2849857150000004,-1.2549859,-1.12225158,-0.049255765,0.12462248,-0.22835223,-10.4451667,24.87981751,-33.933070605000005,4.590619651,0.69395800565,-1.78839712975,-2.3208519895,-0.1676097365,0.0951097278,-0.1363857756249999,0.0045
03:43:05,2.2709741300000004,-1.2457298,-1.11802156,-0.0491492299999999,0.12364236,-0.22784086,-10.4095294,24.89955582,-33.94003311,4.6212858820000005,0.6875613183,-1.7761015644999998,-2.308588989,-0.167324273,0.0943460196,-0.13597421875,0.0045
03:43:05,2.2569625450000004,-1.2364737,-1.11379154,-0.049042695,0.12266224,-0.22732949,-10.3738921,24.91929413,-33.946995615,4.651952113,0.68116463095,-1.76380599925,-2.2963259885,-0.1670388095,0.0935823113999999,-0.135562661875,0.0045
03:43:05,2.24295096,-1.2272176,-1.10956152,-0.04893616,0.12168212,-0.22681812,-10.3382548,24.93903244,-33.95395812,4.682618344,0.6747679436,-1.7515104339999998,-2.284062988,-0.166753346,0.0928186032,-0.135151105,0.0045
03:43:05,2.2289393750000004,-1.2179615,-1.1053315,-0.0488296249999999,0.120702,-0.22630675,-10.3026175,24.95877075,-33.960920625,4.713284575,0.66837125625,-1.73921486875,-2.2717999875,-0.1664678825,0.092054895,-0.134739548125,0.0045
03:43:05,2.21492779,-1.2087054000000002,-1.10110148,-0.04872309,0.11972188,-0.22579538,-10.2669802,24.97850906,-33.967883130000004,4.743950806,0.6619745689000001,-1.7269193035,-2.259536987,-0.166182419,0.0912911868,-0.13432799125,0.0045
03:43:05,2.2009162050000004,-1.1994493000000002,-1.09687146,-0.048616555,0.11874176,-0.22528401,-10.2313429,24.99824737,-33.974845635,4.7746170370000005,0.65557788155,-1.7146237382499998,-2.2472739865,-0.1658969555,0.0905274786,-0.133916434375,0.0045
03:43:05,2.18690462,-1.1901932000000002,-1.09264144,-0.04851002,0.11776164,-0.22477264,-10.1957056,25.01798568,-33.98180814,4.805283268,0.6491811942,-1.702328173,-2.235010986,-0.165611492,0.0897637704,-0.1335048775,0.0045
03:43:05,2.172893035,-1.1809371000000002,-1.08841142,-0.0484034849999999,0.11678152,-0.2242612699999999,-10.1600683,25.03772399,-33.988770645,4.835949499,0.64278450685,-1.69003260775,-2.2227479855,-0.1653260285,0.0890000622,-0.1330933206249999,0.0045
03:43:05,2.15888145,-1.171681,-1.0841814,-0.04829695,0.1158014,-0.2237499,-10.124431,25.0574623,-33.99573315,4.86661573,0.6363878195,-1.6777370425,-2.210484985,-0.165040565,0.0882363539999999,-0.13268176375,0.0045
03:43:05,2.144869865,-1.1624249,-1.07995138,-0.048190415,0.11482128,-0.22323853,-10.0887937,25.07720061,-34.002695655000004,4.897281961,0.62999113215,-1.66544147725,-2.1982219845,-0.1647551015,0.0874726458,-0.132270206875,0.0045
03:43:05,2.13085828,-1.1531688,-1.07572136,-0.0480838799999999,0.11384116,-0.22272716,-10.0531564,25.09693892,-34.00965816,4.927948192,0.6235944448,-1.6531459119999998,-2.185958984,-0.164469638,0.0867089376,-0.13185865,0.0045
03:43:05,2.116846695,-1.1439127,-1.07149134,-0.047977345,0.11286104,-0.22221579,-10.0175191,25.11667723,-34.016620665000005,4.958614423,0.61719775745,-1.64085034675,-2.1736959835,-0.1641841745,0.0859452293999999,-0.131447093125,0.0045
03:43:05,2.10283511,-1.1346566,-1.06726132,-0.04787081,0.11188092,-0.2217044199999999,-9.9818818,25.13641554,-34.02358317,4.989280654,0.6108010701,-1.6285547815,-2.161432983,-0.163898711,0.0851815212,-0.13103553625,0.0045
03:43:05,2.088823525,-1.1254005,-1.0630313,-0.0477642749999999,0.1109008,-0.22119305,-9.9462445,25.15615385,-34.030545675,5.019946885,0.60440438275,-1.61625921625,-2.1491699825,-0.1636132475,0.084417813,-0.130623979375,0.0045
03:43:05,2.07481194,-1.1161444,-1.05880128,-0.04765774,0.1099206799999999,-0.22068168,-9.9106072,25.17589216,-34.03750818,5.050613116,0.5980076954,-1.603963651,-2.136906982,-0.163327784,0.0836541047999999,-0.1302124224999999,0.0045
03:43:05,2.060800355,-1.1068883,-1.05457126,-0.047551205,0.1089405599999999,-0.22017031,-9.8749699,25.19563047,-34.044470685,5.081279347,0.59161100805,-1.59166808575,-2.1246439815,-0.1630423205,0.0828903966,-0.1298008656249999,0.0045
03:43:05,2.04678877,-1.0976322,-1.05034124,-0.0474446699999999,0.1079604399999999,-0.21965894,-9.8393326,25.21536878,-34.051433190000004,5.111945578,0.5852143207,-1.5793725204999998,-2.112380981,-0.162756857,0.0821266884,-0.12938930875,0.0045
03:43:05,2.032777185,-1.0883761,-1.04611122,-0.0473381349999999,0.1069803199999999,-0.2191475699999999,-9.8036953,25.23510709,-34.058395695,5.142611809,0.57881763335,-1.56707695525,-2.1001179805,-0.1624713935,0.0813629801999999,-0.128977751875,0.0045
03:43:05,2.0187656,-1.07912,-1.0418812,-0.0472316,0.1060001999999999,-0.2186362,-9.768058,25.2548454,-34.0653582,5.17327804,0.572420946,-1.5547813899999998,-2.08785498,-0.16218593,0.080599272,-0.128566195,0.0045
03:43:05,2.004754015,-1.0698639,-1.03765118,-0.047125065,0.1050200799999999,-0.21812483,-9.7324207,25.27458371,-34.072320705,5.203944271,0.56602425865,-1.54248582475,-2.0755919795,-0.1619004665,0.0798355638,-0.128154638125,0.0045
03:43:05,1.99074243,-1.0606078,-1.03342116,-0.0470185299999999,0.1040399599999999,-0.21761346,-9.6967834,25.29432202,-34.07928321,5.234610502,0.5596275713000001,-1.5301902595,-2.063328979,-0.161615003,0.0790718555999999,-0.12774308125,0.0045
03:43:05,1.976730845,-1.0513517,-1.02919114,-0.046911995,0.1030598399999999,-0.21710209,-9.6611461,25.31406033,-34.086245715000004,5.265276733,0.55323088395,-1.5178946942499998,-2.0510659785,-0.1613295395,0.0783081474,-0.127331524375,0.0045
03:43:05,1.96271926,-1.0420956,-1.02496112,-0.04680546,0.10207972,-0.21659072,-9.6255088,25.33379864,-34.09320822,5.295942964,0.5468341966,-1.505599129,-2.038802978,-0.161044076,0.0775444392,-0.1269199675,0.0045
03:43:05,1.948707675,-1.0328395,-1.0207311,-0.0466989249999999,0.1010996,-0.21607935,-9.5898715,25.35353695,-34.100170725,5.326609195,0.54043750925,-1.4933035637499998,-2.0265399775,-0.1607586125,0.0767807309999999,-0.1265084106249999,0.0045
03:43:05,1.93469609,-1.0235834,-1.01650108,-0.04659239,0.10011948,-0.21556798,-9.5542342,25.37327526,-34.10713323,5.357275426,0.5340408219,-1.4810079985,-2.014276977,-0.160473149,0.0760170228,-0.12609685375,0.0045
03:43:05,1.920684505,-1.0143273000000002,-1.01227106,-0.046485855,0.09913936,-0.2150566099999999,-9.5185969,25.39301357,-34.114095735,5.387941657,0.52764413455,-1.46871243325,-2.0020139765,-0.1601876855,0.0752533146,-0.125685296875,0.0045
03:43:05,1.90667292,-1.0050712000000002,-1.00804104,-0.04637932,0.09815924,-0.21454524,-9.4829596,25.41275188,-34.12105824,5.418607888,0.5212474471999999,-1.4564168679999998,-1.989750976,-0.159902222,0.0744896063999999,-0.12527374,0.0045
03:43:05,1.892661335,-0.9958151000000002,-1.00381102,-0.046272785,0.09717912,-0.21403387,-9.4473223,25.43249019,-34.128020745,5.449274119,0.5148507598500001,-1.44412130275,-1.9774879755,-0.1596167585,0.0737258982,-0.124862183125,0.0045
03:43:05,1.87864975,-0.9865590000000002,-0.999581,-0.04616625,0.0961989999999999,-0.2135225,-9.411685,25.4522285,-34.134983250000005,5.47994035,0.5084540725,-1.4318257375,-1.965224975,-0.159331295,0.07296219,-0.12445062625,0.0045
03:43:05,1.864638165,-0.9773029,-0.99535098,-0.046059715,0.0952188799999999,-0.21301113,-9.3760477,25.47196681,-34.141945755,5.510606581,0.50205738515,-1.41953017225,-1.9529619745,-0.1590458315,0.0721984817999999,-0.1240390693749999,0.0045
03:43:05,1.85062658,-0.9680468,-0.99112096,-0.0459531799999999,0.0942387599999999,-0.2124997599999999,-9.3404104,25.49170512,-34.14890826,5.541272812,0.4956606978,-1.407234607,-1.940698974,-0.158760368,0.0714347736,-0.1236275125,0.0045
03:43:05,1.836614995,-0.9587907,-0.98689094,-0.045846645,0.09325864,-0.21198839,-9.3047731,25.51144343,-34.155870765,5.571939043,0.48926401045,-1.3949390417499998,-1.9284359735,-0.1584749045,0.0706710654,-0.123215955625,0.0045
03:43:05,1.82260341,-0.9495346,-0.98266092,-0.04574011,0.09227852,-0.21147702,-9.2691358,25.53118174,-34.16283327,5.602605274,0.4828673231,-1.3826434764999995,-1.916172973,-0.158189441,0.0699073571999999,-0.1228043987499999,0.0045
03:43:05,1.808591825,-0.9402785,-0.9784309,-0.0456335749999999,0.0912984,-0.21096565,-9.2334985,25.55092005,-34.169795775000004,5.633271505,0.47647063575,-1.37034791125,-1.9039099725,-0.1579039775,0.069143649,-0.1223928418749999,0.0045
03:43:05,1.7945802400000002,-0.9310224,-0.97420088,-0.04552704,0.09031828,-0.21045428,-9.1978612,25.57065836,-34.17675828,5.663937736,0.4700739484,-1.358052346,-1.891646972,-0.157618514,0.0683799408,-0.121981285,0.0045
03:43:05,1.7805686550000002,-0.9217663,-0.96997086,-0.045420505,0.08933816,-0.2099429099999999,-9.1622239,25.59039667,-34.183720785,5.694603967,0.46367726105,-1.34575678075,-1.8793839715,-0.1573330505,0.0676162325999999,-0.121569728125,0.0045
03:43:05,1.7665570700000002,-0.9125102000000002,-0.96574084,-0.0453139699999999,0.08835804,-0.20943154,-9.1265866,25.61013498,-34.19068329,5.7252701980000005,0.4572805737,-1.3334612155,-1.867120971,-0.157047587,0.0668525244,-0.12115817125,0.0045
03:43:05,1.7525454850000002,-0.9032541,-0.96151082,-0.045207435,0.08737792,-0.20892017,-9.0909493,25.62987329,-34.197645795,5.755936429,0.45088388635,-1.3211656502499998,-1.8548579705,-0.1567621235,0.0660888162,-0.1207466143749999,0.0045
03:43:05,1.7385339000000002,-0.8939980000000001,-0.9572808,-0.0451009,0.0863978,-0.2084088,-9.055312,25.6496116,-34.204608300000004,5.78660266,0.444487199,-1.308870085,-1.84259497,-0.15647666,0.0653251079999999,-0.1203350575,0.0045
03:43:05,1.7245223150000002,-0.8847419000000001,-0.95305078,-0.0449943649999999,0.08541768,-0.20789743,-9.0196747,25.66934991,-34.211570805,5.817268890999999,0.43809051165,-1.29657451975,-1.8303319695,-0.1561911965,0.0645613998,-0.119923500625,0.0045
03:43:05,1.7105107300000002,-0.8754858000000001,-0.94882076,-0.04488783,0.08443756,-0.2073860599999999,-8.9840374,25.68908822,-34.21853331,5.847935122,0.4316938243,-1.2842789545,-1.818068969,-0.155905733,0.0637976916,-0.1195119437499999,0.0045
03:43:05,1.6964991450000002,-0.8662297000000001,-0.94459074,-0.044781295,0.08345744,-0.20687469,-8.9484001,25.70882653,-34.225495815,5.878601353,0.42529713695,-1.27198338925,-1.8058059685,-0.1556202695,0.0630339834,-0.1191003868749999,0.0045
03:43:05,1.6824875600000002,-0.8569736000000001,-0.94036072,-0.04467476,0.0824773199999999,-0.20636332,-8.9127628,25.72856484,-34.23245832,5.909267584,0.4189004496,-1.2596878239999998,-1.793542968,-0.155334806,0.0622702751999999,-0.11868883,0.0045
03:43:05,1.6684759750000002,-0.8477175000000001,-0.9361307,-0.0445682249999999,0.0814971999999999,-0.20585195,-8.8771255,25.74830315,-34.239420825,5.939933815,0.41250376225,-1.24739225875,-1.7812799675,-0.1550493425,0.061506567,-0.118277273125,0.0045
03:43:05,1.6544643900000002,-0.8384614000000001,-0.93190068,-0.04446169,0.0805170799999999,-0.20534058,-8.8414882,25.76804146,-34.24638333,5.970600046,0.4061070749,-1.2350966935,-1.7690169669999998,-0.154763879,0.0607428587999999,-0.11786571625,0.0045
03:43:05,1.6404528050000002,-0.8292053000000001,-0.92767066,-0.044355155,0.0795369599999999,-0.2048292099999999,-8.8058509,25.78777977,-34.253345835,6.001266277,0.39971038755,-1.22280112825,-1.7567539664999998,-0.1544784155,0.0599791505999999,-0.1174541593749999,0.0045
03:43:05,1.6264412200000002,-0.8199492000000002,-0.92344064,-0.0442486199999999,0.0785568399999999,-0.20431784,-8.7702136,25.80751808,-34.26030834,6.031932508000001,0.3933137002,-1.210505563,-1.744490966,-0.154192952,0.0592154424,-0.1170426025,0.0045
03:43:05,1.6124296350000002,-0.8106931000000002,-0.91921062,-0.044142085,0.0775767199999999,-0.20380647,-8.7345763,25.82725639,-34.267270845,6.062598739,0.38691701285,-1.1982099977499998,-1.7322279655,-0.1539074885,0.0584517341999999,-0.116631045625,0.0045
03:43:05,1.5984180500000005,-0.8014370000000001,-0.9149806,-0.04403555,0.0765965999999999,-0.2032951,-8.698939,25.8469947,-34.27423335,6.09326497,0.3805203255,-1.1859144325,-1.719964965,-0.153622025,0.0576880259999999,-0.1162194887499999,0.0045
03:43:05,1.584406465,-0.7921809000000001,-0.91075058,-0.043929015,0.0756164799999999,-0.20278373,-8.6633017,25.86673301,-34.281195855,6.123931201,0.37412363815,-1.17361886725,-1.7077019645,-0.1533365615,0.0569243177999999,-0.1158079318749999,0.0045
03:43:05,1.57039488,-0.7829248000000001,-0.90652056,-0.04382248,0.0746363599999999,-0.2022723599999999,-8.6276644,25.88647132,-34.288158360000004,6.154597432,0.3677269508,-1.161323302,-1.695438964,-0.153051098,0.0561606095999999,-0.115396375,0.0045
03:43:05,1.556383295,-0.7736687000000001,-0.90229054,-0.043715945,0.07365624,-0.20176099,-8.5920271,25.90620963,-34.295120865,6.185263663,0.36133026345,-1.14902773675,-1.6831759635,-0.1527656345,0.0553969014,-0.114984818125,0.0045
03:43:05,1.54237171,-0.7644126000000001,-0.89806052,-0.04360941,0.07267612,-0.20124962,-8.5563898,25.92594794,-34.30208337,6.215929894,0.3549335761,-1.1367321714999998,-1.670912963,-0.152480171,0.0546331931999999,-0.11457326125,0.0045
03:43:05,1.528360125,-0.7551565000000001,-0.8938305,-0.0435028749999999,0.071696,-0.20073825,-8.5207525,25.94568625,-34.309045875,6.246596125,0.34853688875,-1.1244366062499995,-1.6586499625,-0.1521947075,0.0538694849999999,-0.1141617043749999,0.0045
03:43:05,1.51434854,-0.7459004000000001,-0.8896004799999999,-0.04339634,0.07071588,-0.20022688,-8.4851152,25.96542456,-34.31600838,6.277262356,0.3421402014,-1.112141041,-1.6463869619999998,-0.151909244,0.0531057768,-0.1137501475,0.0045
03:43:05,1.500336955,-0.7366443000000001,-0.88537046,-0.043289805,0.06973576,-0.1997155099999999,-8.4494779,25.98516287,-34.322970885000004,6.307928587,0.33574351405,-1.09984547575,-1.6341239614999998,-0.1516237805,0.0523420685999999,-0.113338590625,0.0045
