Timestamp,linacce_x,linacce_y,linacce_z,gyro_x,gyro_y,gyro_z,X-magnetometer,Y-magnetometer,Z-magnetometer,Yaw, worldXAccel,worldYAccel,worldZAccel,worldXgyro,worldYgyro,worldZgyro,Distance
08:33:52,0.095643,-0.161377,-0.302723,-0.134231,0.051511,0.074361,-33.502445,-40.478428,-4.280304,110.600555,-0.23727742,-0.1388502,0.0028036311,0.017906006,0.043182753,0.098749384,0.0045
08:33:52,0.09624959,-0.155534655,-0.302722555,-0.13187658,0.05368964,0.074712565,-33.496191530000004,-40.47058258,-4.305538525,110.592684375,-0.2374458854999999,-0.132959337,-2.9868255500000232e-05,0.0189668941199999,0.045397770585,0.09564176908,0.0045
08:33:52,0.09685618,-0.14969231,-0.30272211,-0.12952216,0.05586828,0.0750641299999999,-33.48993806,-40.46273716,-4.33077305,110.58481375,-0.237614351,-0.127068474,-0.002863367611,0.02002778224,0.0476127881699999,0.0925341541599999,0.0045
08:33:52,0.09746277,-0.143849965,-0.302721665,-0.12716774,0.05804692,0.0754156949999999,-33.48368459,-40.45489174,-4.3560075750000005,110.576943125,-0.2377828165,-0.121177611,-0.0056968669665,0.02108867036,0.0498278057549999,0.0894265392399999,0.0045
08:33:52,0.09806936,-0.13800762,-0.30272122,-0.1248133199999999,0.06022556,0.07576726,-33.47743112,-40.44704632,-4.3812421,110.5690725,-0.237951282,-0.115286748,-0.008530366322,0.0221495584799999,0.0520428233399999,0.0863189243199999,0.0045
08:33:52,0.09867595,-0.132165275,-0.302720775,-0.1224589,0.0624042,0.076118825,-33.47117765,-40.4392009,-4.406476625,110.561201875,-0.2381197474999999,-0.109395885,-0.0113638656775,0.0232104465999999,0.0542578409249999,0.0832113094,0.0045
08:33:52,0.09928254,-0.12632293,-0.30272033,-0.1201044799999999,0.06458284,0.07647039,-33.464924180000004,-40.43135548,-4.43171115,110.55333125,-0.238288213,-0.103505022,-0.014197365033,0.02427133472,0.05647285851,0.08010369448,0.0045
08:33:52,0.09988913,-0.120480585,-0.302719885,-0.1177500599999999,0.06676148,0.076821955,-33.45867071,-40.42351006,-4.456945675,110.545460625,-0.2384566785,-0.097614159,-0.0170308643885,0.0253322228399999,0.0586878760949999,0.07699607956,0.0045
08:33:52,0.10049572,-0.11463824,-0.30271944,-0.11539564,0.06894012,0.07717352,-33.45241724,-40.41566464,-4.4821802,110.53759,-0.2386251439999999,-0.091723296,-0.019864363744,0.02639311096,0.06090289368,0.07388846464,0.0045
08:33:52,0.10110231,-0.108795895,-0.302718995,-0.11304122,0.07111876,0.077525085,-33.44616377,-40.40781922,-4.507414725,110.529719375,-0.2387936094999999,-0.085832433,-0.0226978630995,0.02745399908,0.0631179112649999,0.07078084972,0.0045
08:33:52,0.1017089,-0.10295355,-0.30271855,-0.1106867999999999,0.0732974,0.0778766499999999,-33.4399103,-40.3999738,-4.53264925,110.52184875,-0.238962075,-0.07994157,-0.025531362455,0.0285148872,0.06533292885,0.0676732348,0.0045
08:33:52,0.10231549,-0.0971112049999999,-0.302718105,-0.1083323799999999,0.07547604,0.0782282149999999,-33.433656830000004,-40.39212838,-4.5578837750000005,110.513978125,-0.2391305405,-0.074050707,-0.0283648618105,0.0295757753199999,0.0675479464349999,0.06456561988,0.0045
08:33:52,0.10292208,-0.09126886,-0.30271766,-0.1059779599999999,0.07765468,0.07857978,-33.42740336,-40.38428296,-4.5831183,110.5061075,-0.2392990059999999,-0.068159844,-0.031198361166,0.03063666344,0.06976296402,0.06145800496,0.0045
08:33:52,0.10352867,-0.085426515,-0.302717215,-0.1036235399999999,0.07983332,0.078931345,-33.42114989,-40.37643754,-4.608352825,110.498236875,-0.2394674715,-0.062268981,-0.0340318605215,0.0316975515599999,0.0719779816049999,0.05835039004,0.0045
08:33:52,0.10413526,-0.07958417,-0.30271677,-0.1012691199999999,0.08201196,0.07928291,-33.41489642,-40.36859212,-4.63358735,110.49036625,-0.239635937,-0.056378118,-0.036865359877,0.03275843968,0.07419299919,0.05524277512,0.0045
08:33:52,0.10474185,-0.073741825,-0.302716325,-0.0989147,0.0841906,0.079634475,-33.40864295,-40.3607467,-4.658821875,110.482495625,-0.2398044024999999,-0.0504872549999999,-0.0396988592325,0.0338193278,0.076408016775,0.0521351602,0.0045
08:33:52,0.10534844,-0.06789948,-0.30271588,-0.09656028,0.08636924,0.07998604,-33.402389480000004,-40.35290128,-4.6840564,110.474625,-0.2399728679999999,-0.044596392,-0.042532358588,0.03488021592,0.07862303436,0.04902754528,0.0045
08:33:52,0.10595503,-0.062057135,-0.302715435,-0.0942058599999999,0.08854788,0.0803376049999999,-33.39613601,-40.34505586,-4.709290925,110.466754375,-0.2401413335,-0.038705529,-0.0453658579435,0.03594110404,0.0808380519449999,0.04591993036,0.0045
08:33:52,0.10656162,-0.05621479,-0.30271499,-0.0918514399999999,0.09072652,0.0806891699999999,-33.38988254,-40.33721044,-4.7345254500000005,110.45888375,-0.240309799,-0.0328146659999999,-0.048199357299,0.03700199216,0.08305306953,0.04281231544,0.0045
08:33:52,0.10716821,-0.050372445,-0.302714545,-0.0894970199999999,0.09290516,0.081040735,-33.38362907,-40.32936502,-4.759759975,110.451013125,-0.2404782644999999,-0.0269238029999999,-0.0510328566545,0.03806288028,0.085268087115,0.03970470052,0.0045
08:33:52,0.1077748,-0.0445301,-0.3027141,-0.0871425999999999,0.0950838,0.0813923,-33.3773756,-40.3215196,-4.7849945,110.4431425,-0.2406467299999999,-0.02103294,-0.05386635601,0.0391237683999999,0.0874831047,0.0365970856,0.0045
08:33:52,0.10838139,-0.038687755,-0.302713655,-0.0847881799999999,0.09726244,0.081743865,-33.37112213,-40.31367418,-4.810229025,110.435271875,-0.2408151955,-0.0151420769999999,-0.0566998553655,0.04018465652,0.0896981222849999,0.03348947068,0.0045
08:33:52,0.10898798,-0.0328454099999999,-0.30271321,-0.08243376,0.09944108,0.08209543,-33.36486866,-40.30582876,-4.83546355,110.42740125,-0.240983661,-0.009251214,-0.059533354721,0.04124554464,0.09191313987,0.03038185576,0.0045
08:33:52,0.10959457,-0.0270030649999999,-0.302712765,-0.08007934,0.10161972,0.082446995,-33.35861519,-40.29798334,-4.860698075,110.419530625,-0.2411521264999999,-0.0033603509999999,-0.0623668540765,0.04230643276,0.094128157455,0.02727424084,0.0045
08:33:52,0.11020116,-0.0211607199999999,-0.30271232,-0.0777249199999999,0.10379836,0.08279856,-33.352361720000005,-40.29013792,-4.8859326,110.41166,-0.241320592,0.002530512,-0.065200353432,0.04336732088,0.09634317504,0.02416662592,0.0045
08:33:52,0.11080775,-0.0153183749999999,-0.302711875,-0.0753704999999999,0.105977,0.0831501249999999,-33.34610825,-40.2822925,-4.911167125,110.403789375,-0.2414890575,0.008421375,-0.0680338527875,0.0444282089999999,0.098558192625,0.021059011,0.0045
08:33:52,0.11141434,-0.0094760299999999,-0.30271143,-0.0730160799999999,0.10815564,0.0835016899999999,-33.33985478,-40.27444708,-4.9364016500000005,110.39591875,-0.2416575229999999,0.014312238,-0.070867352143,0.04548909712,0.1007732102099999,0.01795139608,0.0045
08:33:52,0.11202093,-0.0036336849999999,-0.302710985,-0.0706616599999999,0.11033428,0.083853255,-33.33360131,-40.26660166,-4.961636175,110.388048125,-0.2418259884999999,0.020203101,-0.0737008514985,0.0465499852399999,0.102988227795,0.01484378116,0.0045
08:33:52,0.11262752,0.00220866,-0.30271054,-0.0683072399999999,0.11251292,0.08420482,-33.32734784,-40.25875624,-4.9868707,110.3801775,-0.241994454,0.0260939639999999,-0.076534350854,0.04761087336,0.10520324538,0.01173616624,0.0045
08:33:52,0.11323411,0.008051005,-0.302710095,-0.06595282,0.11469156,0.084556385,-33.321094370000004,-40.25091082,-5.012105225,110.372306875,-0.2421629195,0.031984827,-0.0793678502095,0.04867176148,0.1074182629649999,0.00862855132,0.0045
08:33:52,0.1138407,0.0138933499999999,-0.30270965,-0.0635984,0.1168702,0.08490795,-33.3148409,-40.2430654,-5.03733975,110.36443625,-0.2423313849999999,0.03787569,-0.082201349565,0.0497326496,0.1096332805499999,0.0055209364,0.0045
08:33:52,0.11444729,0.0197356949999999,-0.302709205,-0.0612439799999999,0.11904884,0.085259515,-33.30858743,-40.23521998,-5.062574275,110.356565625,-0.2424998505,0.043766553,-0.0850348489205,0.05079353772,0.111848298135,0.00241332148,0.0045
08:33:52,0.11505388,0.0255780399999999,-0.30270876,-0.0588895599999999,0.12122748,0.0856110799999999,-33.30233396,-40.22737456,-5.0878088,110.348695,-0.242668316,0.049657416,-0.087868348276,0.0518544258399999,0.11406331572,-0.0006942934399999,0.0045
08:33:52,0.11566047,0.0314203849999999,-0.302708315,-0.05653514,0.12340612,0.085962645,-33.29608049,-40.21952914,-5.113043325,110.340824375,-0.2428367815,0.055548279,-0.0907018476315,0.05291531396,0.116278333305,-0.0038019083599999,0.0045
08:33:52,0.11626706,0.0372627299999999,-0.30270787,-0.0541807199999999,0.12558476,0.08631421,-33.289827020000004,-40.21168372,-5.13827785,110.33295375,-0.2430052469999999,0.061439142,-0.093535346987,0.0539762020799999,0.1184933508899999,-0.0069095232799999,0.0045
08:33:52,0.11687365,0.0431050749999999,-0.302707425,-0.0518262999999999,0.1277634,0.086665775,-33.28357355,-40.2038383,-5.163512375,110.325083125,-0.2431737125,0.067330005,-0.0963688463425,0.0550370902,0.120708368475,-0.0100171381999999,0.0045
08:33:52,0.11748024,0.0489474199999999,-0.30270698,-0.0494718799999999,0.1299420399999999,0.08701734,-33.27732008,-40.19599288,-5.1887469,110.3172125,-0.243342178,0.073220868,-0.099202345698,0.05609797832,0.12292338606,-0.0131247531199999,0.0045
08:33:52,0.11808683,0.0547897649999999,-0.302706535,-0.04711746,0.13212068,0.087368905,-33.27106661,-40.18814746,-5.213981425,110.309341875,-0.2435106434999999,0.079111731,-0.1020358450535,0.05715886644,0.125138403645,-0.0162323680399999,0.0045
08:33:52,0.11869342,0.0606321099999999,-0.30270609,-0.0447630399999999,0.13429932,0.08772047,-33.26481314,-40.18030204,-5.23921595,110.30147125,-0.2436791089999999,0.085002594,-0.104869344409,0.05821975456,0.1273534212299999,-0.0193399829599999,0.0045
08:33:52,0.11930001,0.0664744549999999,-0.302705645,-0.0424086199999999,0.13647796,0.0880720349999999,-33.258559670000004,-40.17245662,-5.264450475,110.293600625,-0.2438475745,0.090893457,-0.1077028437645,0.0592806426799999,0.129568438815,-0.0224475978799999,0.0045
08:33:52,0.1199066,0.0723167999999999,-0.3027052,-0.0400542,0.1386566,0.0884235999999999,-33.2523062,-40.1646112,-5.289685,110.28573,-0.24401604,0.09678432,-0.11053634312,0.0603415308,0.1317834564,-0.0255552127999999,0.0045
08:33:52,0.12051319,0.0781591449999999,-0.302704755,-0.0376997799999999,0.14083524,0.088775165,-33.24605273,-40.15676578,-5.3149195250000005,110.277859375,-0.2441845054999999,0.102675183,-0.1133698424755,0.0614024189199999,0.133998473985,-0.0286628277199999,0.0045
08:33:52,0.12111978,0.0840014899999999,-0.30270431,-0.0353453599999999,0.1430138799999999,0.08912673,-33.23979926,-40.14892036,-5.34015405,110.26998875,-0.244352971,0.108566046,-0.116203341831,0.06246330704,0.1362134915699999,-0.0317704426399999,0.0045
08:33:52,0.12172637,0.0898438349999999,-0.302703865,-0.0329909399999999,0.14519252,0.089478295,-33.23354579,-40.14107494,-5.365388575,110.262118125,-0.2445214365,0.114456909,-0.1190368411865,0.06352419516,0.138428509155,-0.0348780575599999,0.0045
08:33:52,0.12233296,0.09568618,-0.30270342,-0.03063652,0.14737116,0.08982986,-33.227292320000004,-40.13322952,-5.3906231,110.2542475,-0.244689902,0.1203477719999999,-0.121870340542,0.06458508328,0.14064352674,-0.0379856724799999,0.0045
08:33:52,0.12293955,0.1015285249999999,-0.302702975,-0.0282820999999999,0.1495498,0.090181425,-33.22103885,-40.1253841,-5.415857625,110.246376875,-0.2448583674999999,0.126238635,-0.1247038398975,0.0656459714,0.142858544325,-0.0410932873999999,0.0045
08:33:52,0.12354614,0.10737087,-0.30270253,-0.0259276799999999,0.15172844,0.09053299,-33.21478538,-40.11753868,-5.44109215,110.23850625,-0.245026833,0.132129498,-0.127537339253,0.06670685952,0.1450735619099999,-0.0442009023199999,0.0045
08:33:52,0.12415273,0.1132132149999999,-0.302702085,-0.02357326,0.15390708,0.090884555,-33.20853191,-40.10969326,-5.466326675,110.230635625,-0.2451952985,0.138020361,-0.1303708386085,0.06776774764,0.147288579495,-0.0473085172399999,0.0045
08:33:52,0.12475932,0.11905556,-0.30270164,-0.0212188399999999,0.1560857199999999,0.09123612,-33.20227844,-40.10184784,-5.4915612,110.222765,-0.2453637639999999,0.143911224,-0.133204337964,0.06882863576,0.14950359708,-0.0504161321599999,0.0045
08:33:52,0.12536591,0.1248979049999999,-0.302701195,-0.0188644199999999,0.15826436,0.091587685,-33.19602497,-40.09400242,-5.516795725,110.214894375,-0.2455322294999999,0.149802087,-0.1360378373195,0.06988952388,0.151718614665,-0.0535237470799999,0.0045
08:33:52,0.1259725,0.13074025,-0.30270075,-0.0165099999999999,0.160443,0.09193925,-33.1897715,-40.086157,-5.54203025,110.20702375,-0.245700695,0.15569295,-0.138871336675,0.070950412,0.15393363225,-0.0566313619999999,0.0045
08:33:52,0.12657909,0.1365825949999999,-0.302700305,-0.01415558,0.16262164,0.092290815,-33.18351803,-40.07831158,-5.567264775,110.199153125,-0.2458691605,0.161583813,-0.1417048360305,0.07201130012,0.156148649835,-0.0597389769199999,0.0045
08:33:52,0.12718568,0.14242494,-0.30269986,-0.0118011599999999,0.16480028,0.09264238,-33.17726456,-40.07046616,-5.5924993,110.1912825,-0.2460376259999999,0.167474676,-0.144538335386,0.07307218824,0.15836366742,-0.06284659184,0.0045
08:33:52,0.12779227,0.1482672849999999,-0.302699415,-0.0094467399999999,0.16697892,0.092993945,-33.17101109,-40.06262074,-5.617733825,110.183411875,-0.2462060915,0.173365539,-0.1473718347415,0.07413307636,0.160578685005,-0.06595420676,0.0045
08:33:52,0.12839886,0.15410963,-0.30269897,-0.0070923199999999,0.1691575599999999,0.0933455099999999,-33.16475762,-40.05477532,-5.64296835,110.17554125,-0.246374557,0.179256402,-0.150205334097,0.07519396448,0.16279370259,-0.06906182168,0.0045
08:33:52,0.12900545,0.1599519749999999,-0.302698525,-0.0047378999999999,0.1713362,0.0936970749999999,-33.15850415,-40.0469299,-5.668202875,110.167670625,-0.2465430225,0.185147265,-0.1530388334525,0.0762548526,0.1650087201749999,-0.0721694366,0.0045
08:33:52,0.12961204,0.16579432,-0.30269808,-0.0023834799999999,0.17351484,0.09404864,-33.15225068,-40.03908448,-5.6934374,110.1598,-0.2467114879999999,0.191038128,-0.155872332808,0.07731574072,0.16722373776,-0.0752770515199999,0.0045
08:33:52,0.13021863,0.1716366649999999,-0.302697635,-2.905999999999742e-05,0.17569348,0.094400205,-33.14599721,-40.03123906,-5.718671925,110.151929375,-0.2468799535,0.196928991,-0.1587058321635,0.07837662884,0.169438755345,-0.0783846664399999,0.0045
08:33:52,0.13082522,0.17747901,-0.30269719,0.0023253599999999,0.17787212,0.09475177,-33.13974374,-40.02339364,-5.74390645,110.14405875,-0.247048419,0.202819854,-0.161539331519,0.07943751696,0.1716537729299999,-0.0814922813599999,0.0045
08:33:52,0.13143181,0.1833213549999999,-0.302696745,0.0046797799999999,0.18005076,0.095103335,-33.13349027,-40.01554822,-5.769140975,110.136188125,-0.2472168844999999,0.208710717,-0.1643728308745,0.08049840508,0.1738687905149999,-0.0845998962799999,0.0045
08:33:52,0.1320384,0.1891637,-0.3026963,0.0070341999999999,0.1822293999999999,0.0954549,-33.1272368,-40.0077028,-5.7943755,110.1283175,-0.24738535,0.21460158,-0.16720633023,0.0815592932,0.1760838081,-0.0877075111999999,0.0045
08:33:52,0.13264499,0.1950060449999999,-0.302695855,0.00938862,0.18440804,0.095806465,-33.12098333,-39.99985738,-5.819610025,110.120446875,-0.2475538155,0.220492443,-0.1700398295855,0.08262018132,0.178298825685,-0.0908151261199999,0.0045
08:33:52,0.13325158,0.20084839,-0.30269541,0.01174304,0.18658668,0.09615803,-33.114729860000004,-39.99201196,-5.84484455,110.11257625,-0.247722281,0.226383306,-0.172873328941,0.08368106944,0.1805138432699999,-0.0939227410399999,0.0045
08:33:52,0.13385817,0.2066907349999999,-0.302694965,0.01409746,0.18876532,0.096509595,-33.10847639,-39.98416654,-5.870079075,110.104705625,-0.2478907464999999,0.232274169,-0.1757068282965,0.08474195756,0.1827288608549999,-0.0970303559599999,0.0045
08:33:52,0.13446476,0.2125330799999999,-0.30269452,0.01645188,0.19094396,0.09686116,-33.10222292,-39.97632112,-5.8953136,110.096835,-0.248059212,0.238165032,-0.178540327652,0.08580284568,0.18494387844,-0.1001379708799999,0.0045
08:33:52,0.13507135,0.218375425,-0.302694075,0.0188062999999999,0.1931226,0.097212725,-33.09596945,-39.9684757,-5.920548125,110.088964375,-0.2482276775,0.244055895,-0.1813738270075,0.0868637338,0.187158896025,-0.1032455857999999,0.0045
08:33:52,0.13567794,0.2242177699999999,-0.30269363,0.0211607199999999,0.19530124,0.09756429,-33.08971598,-39.96063028,-5.94578265,110.08109375,-0.2483961429999999,0.249946758,-0.184207326363,0.08792462192,0.18937391361,-0.1063532007199999,0.0045
08:33:52,0.13628453,0.230060115,-0.302693185,0.0235151399999999,0.19747988,0.097915855,-33.083462510000004,-39.95278486,-5.971017175,110.073223125,-0.2485646084999999,0.255837621,-0.1870408257185,0.08898551004,0.1915889311949999,-0.1094608156399999,0.0045
08:33:52,0.13689112,0.2359024599999999,-0.30269274,0.02586956,0.19965852,0.09826742,-33.07720904,-39.94493944,-5.9962517,110.0653525,-0.248733074,0.261728484,-0.189874325074,0.09004639816,0.1938039487799999,-0.1125684305599999,0.0045
08:33:52,0.13749771,0.241744805,-0.302692295,0.02822398,0.20183716,0.0986189849999999,-33.07095557,-39.93709402,-6.021486225,110.057481875,-0.2489015395,0.267619347,-0.1927078244295,0.09110728628,0.196018966365,-0.1156760454799999,0.0045
08:33:52,0.1381043,0.2475871499999999,-0.30269185,0.0305784,0.2040158,0.0989705499999999,-33.0647021,-39.9292486,-6.04672075,110.04961125,-0.2490700049999999,0.27351021,-0.195541323785,0.0921681744,0.19823398395,-0.1187836603999999,0.0045
08:33:52,0.13871089,0.253429495,-0.302691405,0.03293282,0.20619444,0.099322115,-33.05844863,-39.92140318,-6.071955275,110.041740625,-0.2492384705,0.279401073,-0.1983748231405,0.09322906252,0.2004490015349999,-0.1218912753199999,0.0045
08:33:52,0.13931748,0.25927184,-0.30269096,0.03528724,0.20837308,0.09967368,-33.052195160000004,-39.91355776,-6.0971898,110.03387,-0.249406936,0.285291936,-0.201208322496,0.09428995064,0.2026640191199999,-0.12499889024,0.0045
08:33:52,0.13992407,0.265114185,-0.302690515,0.0376416599999999,0.21055172,0.100025245,-33.04594169,-39.90571234,-6.122424325,110.025999375,-0.2495754015,0.291182799,-0.2040418218515,0.09535083876,0.204879036705,-0.1281065051599999,0.0045
08:33:52,0.14053066,0.27095653,-0.30269007,0.0399960799999999,0.21273036,0.10037681,-33.03968822,-39.89786692,-6.14765885,110.01812875,-0.2497438669999999,0.297073662,-0.206875321207,0.09641172688,0.20709405429,-0.1312141200799999,0.0045
08:33:52,0.14113725,0.276798875,-0.302689625,0.0423505,0.214909,0.100728375,-33.03343475,-39.8900215,-6.172893375,110.010258125,-0.2499123325,0.302964525,-0.2097088205625,0.097472615,0.2093090718749999,-0.1343217349999999,0.0045
08:33:52,0.14174384,0.2826412199999999,-0.30268918,0.04470492,0.21708764,0.10107994,-33.02718128,-39.88217608,-6.198127899999999,110.0023875,-0.250080798,0.308855388,-0.212542319918,0.09853350312,0.2115240894599999,-0.1374293499199999,0.0045
08:33:52,0.14235043,0.288483565,-0.302688735,0.04705934,0.21926628,0.101431505,-33.02092781,-39.87433066,-6.223362425,109.994516875,-0.2502492635,0.3147462510000001,-0.2153758192735,0.09959439124,0.213739107045,-0.1405369648399999,0.0045
08:33:52,0.14295702,0.2943259099999999,-0.30268829,0.04941376,0.22144492,0.10178307,-33.01467434,-39.86648524,-6.24859695,109.98664625,-0.250417729,0.320637114,-0.218209318629,0.10065527936,0.21595412463,-0.1436445797599999,0.0045
08:33:52,0.14356361,0.300168255,-0.302687845,0.05176818,0.22362356,0.102134635,-33.00842087,-39.85863982,-6.273831475,109.978775625,-0.2505861944999999,0.326527977,-0.2210428179845,0.10171616748,0.2181691422149999,-0.1467521946799999,0.0045
08:33:52,0.1441702,0.3060105999999999,-0.3026874,0.0541225999999999,0.2258021999999999,0.1024862,-33.0021674,-39.8507944,-6.299066,109.970905,-0.25075466,0.33241884,-0.22387631734,0.1027770556,0.2203841597999999,-0.1498598095999999,0.0045
08:33:52,0.14477679,0.311852945,-0.302686955,0.0564770199999999,0.22798084,0.102837765,-32.99591393,-39.84294898,-6.324300525,109.963034375,-0.2509231255,0.3383097030000001,-0.2267098166955,0.10383794372,0.2225991773849999,-0.1529674245199999,0.0045
08:33:52,0.14538338,0.3176952899999999,-0.30268651,0.05883144,0.23015948,0.10318933,-32.98966046,-39.83510356,-6.34953505,109.95516375,-0.251091591,0.344200566,-0.229543316051,0.10489883184,0.22481419497,-0.1560750394399999,0.0045
08:33:52,0.14598997,0.323537635,-0.302686065,0.06118586,0.2323381199999999,0.103540895,-32.98340699,-39.82725814,-6.374769575,109.947293125,-0.2512600565,0.350091429,-0.2323768154065,0.10595971996,0.227029212555,-0.1591826543599999,0.0045
08:33:52,0.14659656,0.3293799799999999,-0.30268562,0.06354028,0.23451676,0.1038924599999999,-32.97715352,-39.81941272,-6.4000041,109.9394225,-0.251428522,0.3559822920000001,-0.235210314762,0.10702060808,0.2292442301399999,-0.1622902692799999,0.0045
08:33:52,0.14720315,0.335222325,-0.302685175,0.0658947,0.2366954,0.1042440249999999,-32.97090005,-39.8115673,-6.425238625,109.931551875,-0.2515969875,0.361873155,-0.2380438141175,0.1080814962,0.2314592477249999,-0.1653978841999999,0.0045
08:33:52,0.14780974,0.3410646699999999,-0.30268473,0.06824912,0.2388740399999999,0.10459559,-32.96464658,-39.80372188,-6.45047315,109.92368125,-0.251765453,0.367764018,-0.240877313473,0.10914238432,0.23367426531,-0.1685054991199999,0.0045
08:33:52,0.1484163299999999,0.346907015,-0.302684285,0.0706035399999999,0.24105268,0.104947155,-32.95839311,-39.79587646,-6.475707675,109.915810625,-0.2519339184999999,0.373654881,-0.2437108128285,0.11020327244,0.235889282895,-0.1716131140399999,0.0045
08:33:52,0.14902292,0.35274936,-0.30268384,0.0729579599999999,0.24323132,0.10529872,-32.95213964,-39.78803104,-6.5009422,109.90794,-0.252102384,0.3795457439999999,-0.246544312184,0.11126416056,0.2381043004799999,-0.1747207289599999,0.0045
08:33:52,0.14962951,0.3585917049999999,-0.302683395,0.07531238,0.2454099599999999,0.105650285,-32.94588617,-39.78018562,-6.526176725,109.900069375,-0.2522708495,0.385436607,-0.2493778115395,0.11232504868,0.2403193180649999,-0.1778283438799999,0.0045
08:33:52,0.1502361,0.3644340499999999,-0.30268295,0.0776668,0.2475886,0.10600185,-32.9396327,-39.7723402,-6.551411249999999,109.89219875,-0.252439315,0.39132747,-0.252211310895,0.1133859368,0.24253433565,-0.1809359587999999,0.0045
08:33:52,0.15084269,0.370276395,-0.302682505,0.08002122,0.24976724,0.106353415,-32.93337923,-39.76449478,-6.576645774999999,109.884328125,-0.2526077805,0.397218333,-0.2550448102505,0.11444682492,0.244749353235,-0.1840435737199999,0.0045
08:33:52,0.15144928,0.37611874,-0.30268206,0.08237564,0.2519458799999999,0.10670498,-32.92712576,-39.75664936,-6.6018803,109.8764575,-0.252776246,0.403109196,-0.257878309606,0.11550771304,0.2469643708199999,-0.1871511886399999,0.0045
08:33:52,0.15205587,0.3819610849999999,-0.302681615,0.08473006,0.2541245199999999,0.107056545,-32.92087229,-39.74880394,-6.627114825,109.868586875,-0.2529447115,0.409000059,-0.2607118089615,0.11656860116,0.2491793884049999,-0.1902588035599999,0.0045
08:33:52,0.15266246,0.3878034299999999,-0.30268117,0.0870844799999999,0.25630316,0.10740811,-32.91461882,-39.74095852,-6.65234935,109.86071625,-0.2531131769999999,0.414890922,-0.263545308317,0.11762948928,0.25139440599,-0.1933664184799999,0.0045
08:33:52,0.15326905,0.393645775,-0.302680725,0.0894388999999999,0.2584818,0.107759675,-32.90836535,-39.7331131,-6.677583875,109.852845625,-0.2532816425,0.4207817849999999,-0.2663788076725,0.1186903774,0.253609423575,-0.1964740333999999,0.0045
08:33:52,0.15387564,0.39948812,-0.30268028,0.09179332,0.26066044,0.10811124,-32.90211188,-39.72526768,-6.7028184,109.844975,-0.253450108,0.426672648,-0.269212307028,0.11975126552,0.25582444116,-0.1995816483199999,0.0045
08:33:52,0.15448223,0.405330465,-0.302679835,0.09414774,0.26283908,0.108462805,-32.89585841,-39.71742226,-6.728052925,109.837104375,-0.2536185735,0.432563511,-0.2720458063835,0.12081215364,0.258039458745,-0.2026892632399999,0.0045
08:33:52,0.15508882,0.4111728099999999,-0.30267939,0.09650216,0.26501772,0.10881437,-32.88960494,-39.70957684,-6.75328745,109.82923375,-0.253787039,0.438454374,-0.274879305739,0.12187304176,0.26025447633,-0.2057968781599999,0.0045
08:33:52,0.15569541,0.4170151549999999,-0.302678945,0.09885658,0.26719636,0.1091659349999999,-32.88335147,-39.70173142,-6.778521975,109.821363125,-0.2539555045,0.444345237,-0.2777128050945,0.12293392988,0.262469493915,-0.2089044930799999,0.0045
08:33:52,0.156302,0.4228575,-0.3026785,0.101211,0.269375,0.1095174999999999,-32.877098000000004,-39.693886,-6.8037565,109.8134925,-0.25412397,0.4502361,-0.28054630445,0.123994818,0.2646845115,-0.2120121079999999,0.0045
08:33:52,0.15690859,0.428699845,-0.302678055,0.1035654199999999,0.27155364,0.109869065,-32.87084453,-39.68604058,-6.828991025,109.805621875,-0.2542924354999999,0.456126963,-0.2833798038055,0.12505570612,0.266899529085,-0.2151197229199999,0.0045
08:33:52,0.15751518,0.4345421899999999,-0.30267761,0.1059198399999999,0.27373228,0.11022063,-32.86459106,-39.67819516,-6.85422555,109.79775125,-0.254460901,0.4620178259999999,-0.286213303161,0.12611659424,0.26911454667,-0.2182273378399999,0.0045
08:33:52,0.15812177,0.4403845349999999,-0.302677165,0.1082742599999999,0.27591092,0.110572195,-32.85833759,-39.67034974,-6.879460075,109.789880625,-0.2546293665,0.467908689,-0.2890468025165,0.12717748236,0.271329564255,-0.2213349527599999,0.0045
08:33:52,0.15872836,0.44622688,-0.30267672,0.11062868,0.2780895599999999,0.11092376,-32.85208412,-39.66250432,-6.9046946,109.78201,-0.254797832,0.473799552,-0.291880301872,0.12823837048,0.27354458184,-0.2244425676799999,0.0045
08:33:52,0.15933495,0.452069225,-0.302676275,0.1129831,0.2802681999999999,0.111275325,-32.84583065,-39.6546589,-6.929929124999999,109.774139375,-0.2549662975,0.479690415,-0.2947138012275,0.1292992586,0.275759599425,-0.2275501825999999,0.0045
08:33:52,0.15994154,0.4579115699999999,-0.30267583,0.11533752,0.28244684,0.11162689,-32.83957718,-39.64681348,-6.955163649999999,109.76626875,-0.255134763,0.485581278,-0.297547300583,0.13036014672,0.27797461701,-0.2306577975199999,0.0045
08:33:52,0.16054813,0.4637539149999999,-0.302675385,0.11769194,0.28462548,0.111978455,-32.83332371,-39.63896806,-6.980398175,109.758398125,-0.2553032285,0.491472141,-0.3003807999385,0.13142103484,0.280189634595,-0.23376541244,0.0045
08:33:52,0.16115472,0.46959626,-0.30267494,0.12004636,0.28680412,0.11233002,-32.82707024,-39.63112264,-7.0056327,109.7505275,-0.2554716939999999,0.497363004,-0.303214299294,0.13248192296,0.28240465218,-0.23687302736,0.0045
08:33:52,0.16176131,0.475438605,-0.302674495,0.1224007799999999,0.28898276,0.112681585,-32.82081677,-39.62327722,-7.030867225,109.742656875,-0.2556401594999999,0.5032538670000001,-0.3060477986495,0.13354281108,0.2846196697649999,-0.23998064228,0.0045
08:33:52,0.1623679,0.4812809499999999,-0.30267405,0.1247552,0.2911614,0.11303315,-32.8145633,-39.6154318,-7.05610175,109.73478625,-0.255808625,0.50914473,-0.308881298005,0.1346036992,0.28683468735,-0.2430882572,0.0045
08:33:52,0.16297449,0.4871232949999999,-0.302673605,0.1271096199999999,0.29334004,0.113384715,-32.80830983,-39.60758638,-7.081336275,109.726915625,-0.2559770905,0.515035593,-0.3117147973605,0.13566458732,0.289049704935,-0.24619587212,0.0045
08:33:52,0.16358108,0.49296564,-0.30267316,0.12946404,0.29551868,0.11373628,-32.80205636,-39.59974096,-7.1065708,109.719045,-0.256145556,0.520926456,-0.314548296716,0.13672547544,0.29126472252,-0.2493034870399999,0.0045
08:33:52,0.16418767,0.498807985,-0.302672715,0.1318184599999999,0.29769732,0.114087845,-32.79580289,-39.59189554,-7.131805325,109.711174375,-0.2563140215,0.5268173190000001,-0.3173817960715,0.1377863635599999,0.293479740105,-0.2524111019599999,0.0045
08:33:52,0.16479426,0.5046503299999999,-0.30267227,0.13417288,0.29987596,0.1144394099999999,-32.78954942,-39.58405012,-7.15703985,109.70330375,-0.256482487,0.532708182,-0.320215295427,0.13884725168,0.29569475769,-0.2555187168799999,0.0045
08:33:52,0.16540085,0.510492675,-0.302671825,0.1365273,0.3020545999999999,0.1147909749999999,-32.78329595,-39.5762047,-7.182274375,109.695433125,-0.2566509525,0.538599045,-0.3230487947825,0.1399081398,0.297909775275,-0.2586263317999999,0.0045
08:33:52,0.16600744,0.51633502,-0.30267138,0.13888172,0.3042332399999999,0.11514254,-32.77704248,-39.56835928,-7.2075089,109.6875625,-0.2568194179999999,0.5444899080000001,-0.3258822941380001,0.14096902792,0.30012479286,-0.2617339467199999,0.0045
08:33:52,0.16661403,0.522177365,-0.302670935,0.14123614,0.3064118799999999,0.115494105,-32.77078901,-39.56051386,-7.232743425,109.679691875,-0.2569878835,0.550380771,-0.3287157934935,0.14202991604,0.302339810445,-0.2648415616399999,0.0045
08:33:52,0.16722062,0.5280197099999999,-0.30267049,0.1435905599999999,0.30859052,0.11584567,-32.76453554,-39.55266844,-7.25797795,109.67182125,-0.257156349,0.556271634,-0.331549292849,0.14309080416,0.30455482803,-0.2679491765599999,0.0045
08:33:52,0.16782721,0.533862055,-0.302670045,0.14594498,0.31076916,0.116197235,-32.75828207,-39.54482302,-7.283212474999999,109.663950625,-0.2573248145,0.562162497,-0.3343827922045,0.14415169228,0.306769845615,-0.2710567914799999,0.0045
08:33:52,0.1684338,0.5397044,-0.3026696,0.1482993999999999,0.3129478,0.1165488,-32.7520286,-39.5369776,-7.308446999999999,109.65608,-0.25749328,0.5680533600000001,-0.33721629156,0.1452125804,0.3089848632,-0.2741644063999999,0.0045
08:33:52,0.1690403899999999,0.545546745,-0.302669155,0.15065382,0.31512644,0.116900365,-32.74577513,-39.52913218,-7.333681524999999,109.648209375,-0.2576617455,0.573944223,-0.3400497909155,0.14627346852,0.311199880785,-0.2772720213199999,0.0045
08:33:52,0.16964698,0.5513890899999999,-0.30266871,0.15300824,0.31730508,0.11725193,-32.73952166,-39.52128676,-7.358916049999999,109.64033875,-0.257830211,0.579835086,-0.342883290271,0.14733435664,0.31341489837,-0.2803796362399999,0.0045
08:33:52,0.17025357,0.5572314349999999,-0.302668265,0.1553626599999999,0.31948372,0.117603495,-32.73326819,-39.51344134,-7.384150575,109.632468125,-0.2579986764999999,0.5857259490000001,-0.3457167896265,0.14839524476,0.315629915955,-0.2834872511599999,0.0045
08:33:52,0.1708601599999999,0.56307378,-0.30266782,0.15771708,0.32166236,0.11795506,-32.72701472,-39.50559592,-7.4093851,109.6245975,-0.258167142,0.591616812,-0.3485502889820001,0.14945613288,0.31784493354,-0.2865948660799999,0.0045
08:33:52,0.17146675,0.568916125,-0.302667375,0.1600714999999999,0.323841,0.118306625,-32.72076125,-39.4977505,-7.434619625,109.616726875,-0.2583356075,0.597507675,-0.3513837883375,0.150517021,0.320059951125,-0.2897024809999999,0.0045
08:33:52,0.17207334,0.5747584699999999,-0.30266693,0.16242592,0.3260196399999999,0.11865819,-32.71450778,-39.48990508,-7.45985415,109.60885625,-0.258504073,0.603398538,-0.354217287693,0.15157790912,0.32227496871,-0.2928100959199999,0.0045
08:33:52,0.1726799299999999,0.5806008149999999,-0.302666485,0.1647803399999999,0.3281982799999999,0.119009755,-32.70825431,-39.48205966,-7.485088675,109.600985625,-0.2586725385,0.6092894010000001,-0.3570507870485001,0.15263879724,0.324489986295,-0.2959177108399999,0.0045
08:33:52,0.17328652,0.58644316,-0.30266604,0.16713476,0.3303769199999999,0.1193613199999999,-32.70200084,-39.47421424,-7.5103232,109.593115,-0.258841004,0.615180264,-0.359884286404,0.15369968536,0.32670500388,-0.2990253257599999,0.0045
08:33:52,0.17389311,0.592285505,-0.302665595,0.16948918,0.33255556,0.1197128849999999,-32.69574737,-39.46636882,-7.535557725,109.585244375,-0.2590094695,0.621071127,-0.3627177857595,0.15476057348,0.328920021465,-0.3021329406799999,0.0045
08:33:52,0.1744996999999999,0.59812785,-0.30266515,0.1718435999999999,0.3347342,0.12006445,-32.6894939,-39.4585234,-7.560792249999999,109.57737375,-0.2591779349999999,0.6269619900000001,-0.365551285115,0.1558214616,0.33113503905,-0.3052405555999999,0.0045
08:33:52,0.17510629,0.6039701949999999,-0.302664705,0.17419802,0.33691284,0.120416015,-32.68324043,-39.45067798,-7.586026775,109.569503125,-0.2593464005,0.632852853,-0.3683847844705,0.15688234972,0.333350056635,-0.3083481705199999,0.0045
08:33:52,0.17571288,0.60981254,-0.30266426,0.1765524399999999,0.33909148,0.12076758,-32.67698696,-39.44283256,-7.6112613,109.5616325,-0.259514866,0.638743716,-0.371218283826,0.15794323784,0.33556507422,-0.3114557854399999,0.0045
08:33:52,0.17631947,0.615654885,-0.302663815,0.17890686,0.34127012,0.121119145,-32.67073349,-39.43498714,-7.636495825,109.553761875,-0.2596833315,0.644634579,-0.3740517831815,0.15900412596,0.337780091805,-0.3145634003599999,0.0045
08:33:52,0.17692606,0.62149723,-0.30266337,0.1812612799999999,0.34344876,0.12147071,-32.66448002,-39.42714172,-7.661730349999999,109.54589125,-0.259851797,0.6505254420000001,-0.376885282537,0.16006501408,0.33999510939,-0.3176710152799999,0.0045
08:33:52,0.17753265,0.6273395749999999,-0.302662925,0.1836157,0.3456274,0.121822275,-32.65822655,-39.4192963,-7.686964874999999,109.538020625,-0.2600202625,0.656416305,-0.3797187818925001,0.1611259022,0.342210126975,-0.3207786301999999,0.0045
08:33:52,0.17813924,0.63318192,-0.30266248,0.18597012,0.34780604,0.12217384,-32.65197308,-39.41145088,-7.712199399999999,109.53015,-0.260188728,0.662307168,-0.382552281248,0.16218679032,0.34442514456,-0.3238862451199999,0.0045
08:33:52,0.17874583,0.639024265,-0.302662035,0.1883245399999999,0.3499846799999999,0.122525405,-32.64571961,-39.40360546,-7.737433924999999,109.522279375,-0.2603571935,0.6681980310000001,-0.3853857806035,0.16324767844,0.346640162145,-0.32699386004,0.0045
08:33:52,0.17935242,0.64486661,-0.30266159,0.19067896,0.3521633199999999,0.12287697,-32.63946614,-39.39576004,-7.76266845,109.51440875,-0.260525659,0.674088894,-0.3882192799590001,0.16430856656,0.34885517973,-0.33010147496,0.0045
08:33:52,0.17995901,0.6507089549999999,-0.302661145,0.1930333799999999,0.3543419599999999,0.123228535,-32.63321267,-39.38791462,-7.787902975,109.506538125,-0.2606941245,0.679979757,-0.3910527793145,0.16536945468,0.351070197315,-0.33320908988,0.0045
08:33:52,0.1805656,0.6565513,-0.3026607,0.1953878,0.3565205999999999,0.1235801,-32.6269592,-39.3800692,-7.8131375,109.4986675,-0.26086259,0.68587062,-0.39388627867,0.1664303428,0.3532852149,-0.3363167048,0.0045
08:33:52,0.18117219,0.662393645,-0.302660255,0.1977422199999999,0.35869924,0.123931665,-32.62070573,-39.37222378,-7.838372025,109.490796875,-0.2610310555,0.6917614830000001,-0.3967197780255,0.16749123092,0.355500232485,-0.33942431972,0.0045
08:33:52,0.18177878,0.66823599,-0.30265981,0.20009664,0.36087788,0.12428323,-32.61445226,-39.36437836,-7.86360655,109.48292625,-0.261199521,0.697652346,-0.399553277381,0.16855211904,0.35771525007,-0.34253193464,0.0045
08:33:52,0.18238537,0.6740783349999999,-0.302659365,0.20245106,0.36305652,0.1246347949999999,-32.60819879,-39.35653294,-7.888841075,109.475055625,-0.2613679865,0.703543209,-0.4023867767365001,0.16961300716,0.359930267655,-0.34563954956,0.0045
08:33:52,0.18299196,0.6799206799999999,-0.30265892,0.2048054799999999,0.36523516,0.1249863599999999,-32.60194532,-39.34868752,-7.9140756,109.467185,-0.261536452,0.7094340720000001,-0.405220276092,0.17067389528,0.36214528524,-0.34874716448,0.0045
08:33:52,0.18359855,0.685763025,-0.302658475,0.2071599,0.3674138,0.125337925,-32.59569185,-39.3408421,-7.939310124999999,109.459314375,-0.2617049174999999,0.715324935,-0.4080537754475,0.1717347834,0.364360302825,-0.3518547793999999,0.0045
08:33:52,0.18420514,0.69160537,-0.30265803,0.2095143199999999,0.36959244,0.12568949,-32.58943838,-39.33299668,-7.96454465,109.45144375,-0.261873383,0.721215798,-0.4108872748030001,0.17279567152,0.36657532041,-0.3549623943199999,0.0045
08:33:52,0.18481173,0.6974477149999999,-0.302657585,0.21186874,0.37177108,0.126041055,-32.58318491,-39.32515126,-7.989779175,109.443573125,-0.2620418485,0.727106661,-0.4137207741585,0.17385655964,0.368790337995,-0.3580700092399999,0.0045
08:33:52,0.18541832,0.7032900599999999,-0.30265714,0.2142231599999999,0.37394972,0.12639262,-32.57693144,-39.31730584,-8.0150137,109.4357025,-0.262210314,0.7329975240000001,-0.416554273514,0.17491744776,0.37100535558,-0.3611776241599999,0.0045
08:33:52,0.18602491,0.709132405,-0.302656695,0.21657758,0.3761283599999999,0.126744185,-32.57067797,-39.30946042,-8.040248225,109.427831875,-0.2623787795,0.738888387,-0.4193877728695001,0.17597833588,0.373220373165,-0.3642852390799999,0.0045
08:33:52,0.1866315,0.71497475,-0.30265625,0.218932,0.3783069999999999,0.12709575,-32.5644245,-39.301615,-8.06548275,109.41996125,-0.262547245,0.74477925,-0.422221272225,0.177039224,0.37543539075,-0.3673928539999999,0.0045
08:33:52,0.18723809,0.7208170949999999,-0.302655805,0.2212864199999999,0.3804856399999999,0.127447315,-32.55817103,-39.29376958,-8.090717275,109.412090625,-0.2627157105,0.7506701130000001,-0.4250547715805,0.17810011212,0.377650408335,-0.3705004689199999,0.0045
08:33:52,0.1878446799999999,0.7266594399999999,-0.30265536,0.22364084,0.3826642799999999,0.12779888,-32.55191756,-39.28592416,-8.1159518,109.40422,-0.2628841759999999,0.756560976,-0.427888270936,0.17916100024,0.37986542592,-0.3736080838399999,0.0045
08:33:52,0.18845127,0.732501785,-0.302654915,0.2259952599999999,0.38484292,0.128150445,-32.54566409,-39.27807874,-8.141186325,109.396349375,-0.2630526415,0.762451839,-0.4307217702915,0.18022188836,0.382080443505,-0.3767156987599999,0.0045
08:33:52,0.18905786,0.73834413,-0.30265447,0.22834968,0.38702156,0.12850201,-32.53941062,-39.27023332,-8.16642085,109.38847875,-0.263221107,0.7683427020000001,-0.4335552696470001,0.18128277648,0.38429546109,-0.3798233136799999,0.0045
08:33:52,0.1896644499999999,0.7441864749999999,-0.302654025,0.2307040999999999,0.3892002,0.128853575,-32.53315715,-39.2623879,-8.191655375,109.380608125,-0.2633895725,0.7742335650000001,-0.4363887690025,0.1823436646,0.386510478675,-0.3829309285999999,0.0045
08:33:52,0.19027104,0.7500288199999999,-0.30265358,0.23305852,0.39137884,0.12920514,-32.52690368,-39.25454248,-8.2168899,109.3727375,-0.263558038,0.780124428,-0.439222268358,0.18340455272,0.38872549626,-0.3860385435199999,0.0045
08:33:52,0.19087763,0.755871165,-0.302653135,0.23541294,0.39355748,0.129556705,-32.52065021,-39.24669706,-8.242124425,109.364866875,-0.2637265035,0.786015291,-0.4420557677135001,0.18446544084,0.390940513845,-0.3891461584399999,0.0045
08:33:52,0.1914842199999999,0.76171351,-0.30265269,0.2377673599999999,0.39573612,0.12990827,-32.51439674,-39.23885164,-8.26735895,109.35699625,-0.263894969,0.7919061540000001,-0.444889267069,0.18552632896,0.39315553143,-0.3922537733599999,0.0045
08:33:52,0.19209081,0.7675558549999999,-0.302652245,0.24012178,0.39791476,0.130259835,-32.50814327,-39.23100622,-8.292593475,109.349125625,-0.2640634344999999,0.797797017,-0.4477227664245,0.18658721708,0.395370549015,-0.3953613882799999,0.0045
08:33:52,0.1926974,0.7733981999999999,-0.3026518,0.2424761999999999,0.4000933999999999,0.1306114,-32.5018898,-39.2231608,-8.317827999999999,109.341255,-0.2642318999999999,0.80368788,-0.4505562657800001,0.1876481052,0.3975855666,-0.3984690031999999,0.0045
08:33:52,0.1933039899999999,0.779240545,-0.302651355,0.24483062,0.4022720399999999,0.130962965,-32.49563633,-39.21531538,-8.343062525,109.333384375,-0.2644003655,0.8095787430000001,-0.4533897651355,0.18870899332,0.399800584185,-0.4015766181199999,0.0045
08:33:52,0.19391058,0.78508289,-0.30265091,0.2471850399999999,0.4044506799999999,0.1313145299999999,-32.48938286,-39.20746996,-8.368297049999999,109.32551375,-0.264568831,0.8154696060000001,-0.456223264491,0.18976988144,0.40201560177,-0.4046842330399999,0.0045
08:33:52,0.19451717,0.790925235,-0.302650465,0.24953946,0.4066293199999999,0.131666095,-32.48312939,-39.19962454,-8.393531575,109.317643125,-0.2647372965,0.821360469,-0.4590567638465,0.19083076956,0.404230619355,-0.4077918479599999,0.0045
08:33:52,0.1951237599999999,0.7967675799999999,-0.30265002,0.25189388,0.4088079599999999,0.13201766,-32.47687592,-39.19177912,-8.4187661,109.3097725,-0.264905762,0.827251332,-0.461890263202,0.19189165768,0.40644563694,-0.4108994628799999,0.0045
08:33:52,0.19573035,0.802609925,-0.302649575,0.2542483,0.4109866,0.132369225,-32.47062245,-39.1839337,-8.444000625,109.301901875,-0.2650742275,0.8331421950000001,-0.4647237625575001,0.1929525458,0.408660654525,-0.4140070777999999,0.0045
08:33:52,0.19633694,0.80845227,-0.30264913,0.25660272,0.41316524,0.13272079,-32.46436898,-39.17608828,-8.46923515,109.29403125,-0.265242693,0.839033058,-0.467557261913,0.19401343392,0.41087567211,-0.4171146927199999,0.0045
08:33:52,0.1969435299999999,0.814294615,-0.302648685,0.25895714,0.41534388,0.133072355,-32.45811551,-39.16824286,-8.494469675,109.286160625,-0.2654111584999999,0.844923921,-0.4703907612685,0.19507432204,0.413090689695,-0.4202223076399999,0.0045
08:33:52,0.19755012,0.8201369599999999,-0.30264824,0.26131156,0.41752252,0.13342392,-32.45186204,-39.16039744,-8.5197042,109.27829,-0.265579624,0.8508147840000001,-0.4732242606240001,0.19613521016,0.41530570728,-0.4233299225599999,0.0045
08:33:52,0.19815671,0.8259793049999999,-0.302647795,0.2636659799999999,0.41970116,0.133775485,-32.44560857,-39.15255202,-8.544938725,109.270419375,-0.2657480895,0.8567056470000001,-0.4760577599795,0.19719609828,0.417520724865,-0.4264375374799999,0.0045
08:33:52,0.1987633,0.83182165,-0.30264735,0.2660204,0.4218798,0.13412705,-32.4393551,-39.1447066,-8.57017325,109.26254875,-0.265916555,0.8625965100000001,-0.478891259335,0.1982569864,0.41973574245,-0.4295451523999999,0.0045
08:33:52,0.19936989,0.837663995,-0.302646905,0.26837482,0.42405844,0.134478615,-32.43310163,-39.13686118,-8.595407775,109.254678125,-0.2660850205,0.868487373,-0.4817247586905001,0.19931787452,0.421950760035,-0.4326527673199999,0.0045
08:33:52,0.19997648,0.8435063399999999,-0.30264646,0.27072924,0.4262370799999999,0.13483018,-32.42684816,-39.12901576,-8.6206423,109.2468075,-0.266253486,0.8743782360000001,-0.484558258046,0.20037876264,0.42416577762,-0.4357603822399999,0.0045
08:33:52,0.20058307,0.8493486849999999,-0.302646015,0.27308366,0.4284157199999999,0.135181745,-32.42059469,-39.12117034,-8.645876824999998,109.238936875,-0.2664219515,0.8802690990000002,-0.4873917574015001,0.20143965076,0.426380795205,-0.4388679971599999,0.0045
08:33:52,0.20118966,0.85519103,-0.30264557,0.27543808,0.4305943599999999,0.13553331,-32.41434122,-39.11332492,-8.67111135,109.23106625,-0.2665904169999999,0.886159962,-0.490225256757,0.20250053888,0.42859581279,-0.4419756120799999,0.0045
08:33:52,0.20179625,0.861033375,-0.302645125,0.2777925,0.4327729999999999,0.135884875,-32.40808775,-39.1054795,-8.696345874999999,109.223195625,-0.2667588825,0.8920508250000001,-0.4930587561125,0.203561427,0.430810830375,-0.4450832269999999,0.0045
08:33:52,0.20240284,0.86687572,-0.30264468,0.2801469199999999,0.43495164,0.13623644,-32.40183428,-39.09763408,-8.7215804,109.215325,-0.266927348,0.897941688,-0.4958922554680001,0.20462231512,0.43302584796,-0.4481908419199999,0.0045
08:33:52,0.20300943,0.872718065,-0.302644235,0.28250134,0.43713028,0.136588005,-32.39558081,-39.08978866,-8.746814924999999,109.207454375,-0.2670958135,0.903832551,-0.4987257548235,0.20568320324,0.435240865545,-0.4512984568399999,0.0045
08:33:52,0.20361602,0.8785604099999998,-0.30264379,0.28485576,0.43930892,0.13693957,-32.38932734,-39.08194324,-8.77204945,109.19958375,-0.267264279,0.909723414,-0.501559254179,0.20674409136,0.43745588313,-0.4544060717599999,0.0045
08:33:52,0.20422261,0.8844027549999999,-0.302643345,0.28721018,0.44148756,0.137291135,-32.38307387,-39.07409782,-8.797283975,109.191713125,-0.2674327445,0.915614277,-0.5043927535345,0.20780497948,0.439670900715,-0.4575136866799999,0.0045
08:33:52,0.2048292,0.8902450999999999,-0.3026429,0.2895646,0.4436662,0.1376427,-32.3768204,-39.0662524,-8.8225185,109.1838425,-0.26760121,0.92150514,-0.50722625289,0.2088658676,0.4418859183,-0.4606213015999999,0.0045
08:33:52,0.20543579,0.8960874449999999,-0.302642455,0.29191902,0.44584484,0.137994265,-32.370566929999995,-39.05840698,-8.847753025,109.175971875,-0.2677696754999999,0.927396003,-0.5100597522455,0.20992675572,0.444100935885,-0.4637289165199999,0.0045
08:33:52,0.20604238,0.90192979,-0.30264201,0.29427344,0.44802348,0.13834583,-32.36431346,-39.05056156,-8.87298755,109.16810125,-0.267938141,0.933286866,-0.512893251601,0.21098764384,0.44631595347,-0.4668365314399999,0.0045
08:33:52,0.20664897,0.907772135,-0.302641565,0.2966278599999999,0.45020212,0.138697395,-32.35805999,-39.04271614,-8.898222075,109.160230625,-0.2681066065,0.939177729,-0.5157267509565,0.21204853196,0.448530971055,-0.4699441463599999,0.0045
08:33:52,0.20725556,0.91361448,-0.30264112,0.29898228,0.4523807599999999,0.13904896,-32.35180652,-39.03487072,-8.9234566,109.15236,-0.268275072,0.9450685920000002,-0.518560250312,0.21310942008,0.45074598864,-0.4730517612799999,0.0045
08:33:52,0.20786215,0.919456825,-0.302640675,0.3013367,0.4545593999999999,0.139400525,-32.34555305,-39.0270253,-8.948691125,109.144489375,-0.2684435375,0.950959455,-0.5213937496675,0.2141703082,0.452961006225,-0.4761593761999999,0.0045
08:33:52,0.2084687399999999,0.9252991699999998,-0.30264023,0.30369112,0.4567380399999999,0.13975209,-32.33929958,-39.01917988,-8.97392565,109.13661875,-0.268612003,0.956850318,-0.524227249023,0.21523119632,0.45517602381,-0.4792669911199999,0.0045
08:33:52,0.20907533,0.931141515,-0.302639785,0.30604554,0.4589166799999999,0.140103655,-32.33304611,-39.01133446,-8.999160175,109.128748125,-0.2687804685,0.9627411810000002,-0.5270607483785,0.21629208444,0.457391041395,-0.4823746060399999,0.0045
08:33:52,0.20968192,0.93698386,-0.30263934,0.30839996,0.46109532,0.14045522,-32.32679264,-39.00348904,-9.024394699999998,109.1208775,-0.268948934,0.968632044,-0.5298942477340001,0.21735297256,0.45960605898,-0.4854822209599999,0.0045
08:33:52,0.2102885099999999,0.942826205,-0.302638895,0.31075438,0.46327396,0.140806785,-32.32053917,-38.99564362,-9.049629225,109.113006875,-0.2691173995,0.974522907,-0.5327277470895,0.21841386068,0.461821076565,-0.4885898358799999,0.0045
08:33:52,0.2108951,0.94866855,-0.30263845,0.3131087999999999,0.4654526,0.14115835,-32.3142857,-38.9877982,-9.07486375,109.10513625,-0.269285865,0.98041377,-0.535561246445,0.2194747488,0.46403609415,-0.4916974507999999,0.0045
08:33:52,0.21150169,0.954510895,-0.302638005,0.31546322,0.46763124,0.141509915,-32.30803223,-38.97995278,-9.100098275,109.097265625,-0.2694543305,0.986304633,-0.5383947458005001,0.22053563692,0.466251111735,-0.4948050657199999,0.0045
08:33:52,0.2121082799999999,0.96035324,-0.30263756,0.31781764,0.46980988,0.1418614799999999,-32.30177876,-38.97210736,-9.1253328,109.089395,-0.269622796,0.992195496,-0.541228245156,0.22159652504,0.46846612932,-0.4979126806399999,0.0045
08:33:52,0.21271487,0.966195585,-0.302637115,0.32017206,0.47198852,0.1422130449999999,-32.29552529,-38.96426194,-9.150567325,109.081524375,-0.2697912615,0.998086359,-0.5440617445115,0.22265741316,0.470681146905,-0.5010202955599999,0.0045
08:33:52,0.21332146,0.97203793,-0.30263667,0.32252648,0.47416716,0.14256461,-32.28927182,-38.95641652,-9.17580185,109.07365375,-0.269959727,1.003977222,-0.5468952438670001,0.22371830128,0.47289616449,-0.5041279104799999,0.0045
08:33:52,0.2139280499999999,0.977880275,-0.302636225,0.3248809,0.4763457999999999,0.142916175,-32.28301835,-38.9485711,-9.201036375,109.065783125,-0.2701281925,1.009868085,-0.5497287432225,0.2247791894,0.475111182075,-0.5072355253999999,0.0045
08:33:52,0.21453464,0.98372262,-0.30263578,0.32723532,0.4785244399999999,0.14326774,-32.27676488,-38.94072568,-9.2262709,109.0579125,-0.270296658,1.015758948,-0.552562242578,0.22584007752,0.47732619966,-0.5103431403199999,0.0045
08:33:52,0.21514123,0.989564965,-0.302635335,0.3295897399999999,0.4807030799999999,0.143619305,-32.27051141,-38.93288026,-9.251505425,109.050041875,-0.2704651235,1.021649811,-0.5553957419335,0.22690096564,0.479541217245,-0.51345075524,0.0045
08:33:52,0.2157478199999999,0.99540731,-0.30263489,0.33194416,0.4828817199999999,0.14397087,-32.26425794,-38.92503484,-9.27673995,109.04217125,-0.270633589,1.0275406740000002,-0.558229241289,0.22796185376,0.48175623483,-0.51655837016,0.0045
08:33:52,0.21635441,1.001249655,-0.302634445,0.3342985799999999,0.4850603599999999,0.144322435,-32.25800447,-38.91718942,-9.301974475,109.034300625,-0.2708020545,1.033431537,-0.5610627406445,0.22902274188,0.483971252415,-0.51966598508,0.0045
08:33:53,0.216961,1.007092,-0.302634,0.336653,0.487239,0.144674,-32.251751,-38.909344,-9.327209,109.02643,-0.27097052,1.0393224,-0.56389624,0.23008363,0.48618627,-0.5227736,0.0045
08:33:53,0.2131677749999999,1.0059550350000002,-0.295085185,0.33546514,0.4868448199999999,0.144290475,-32.26799917,-38.935327655,-9.26739718,109.1113359,-0.2658436443999999,1.0374046395,-0.5617586139,0.229296158575,0.4857820961499999,-0.5214521223999999,0.0045
08:33:53,0.20937455,1.00481807,-0.28753637,0.3342772799999999,0.48645064,0.14390695,-32.28424734,-38.96131131,-9.20758536,109.1962418,-0.2607167688,1.035486879,-0.5596209878,0.22850868715,0.4853779223,-0.5201306447999999,0.0045
08:33:53,0.2055813249999999,1.003681105,-0.279987555,0.3330894199999999,0.4860564599999999,0.143523425,-32.30049551,-38.987294965,-9.14777354,109.2811477,-0.2555898932,1.0335691185,-0.5574833617,0.227721215725,0.4849737484499999,-0.5188091671999999,0.0045
08:33:53,0.2017881,1.00254414,-0.27243874,0.33190156,0.48566228,0.1431399,-32.31674368,-39.01327862,-9.08796172,109.3660536,-0.2504630176,1.0316513580000002,-0.5553457356,0.2269337443,0.4845695746,-0.5174876895999999,0.0045
08:33:53,0.197994875,1.0014071750000002,-0.264889925,0.3307137,0.4852681,0.142756375,-32.33299185,-39.039262275,-9.0281499,109.4509595,-0.2453361419999999,1.0297335975000002,-0.5532081095000001,0.226146272875,0.48416540075,-0.5161662119999999,0.0045
08:33:53,0.19420165,1.00027021,-0.25734111,0.3295258399999999,0.4848739199999999,0.14237285,-32.34924002,-39.06524593,-8.96833808,109.5358654,-0.2402092663999999,1.027815837,-0.5510704834000001,0.22535880145,0.4837612268999999,-0.5148447344,0.0045
08:33:53,0.190408425,0.999133245,-0.249792295,0.32833798,0.48447974,0.141989325,-32.36548819,-39.091229585,-8.90852626,109.6207713,-0.2350823907999999,1.0258980765,-0.5489328573000001,0.224571330025,0.48335705305,-0.5135232568,0.0045
08:33:53,0.1866151999999999,0.99799628,-0.24224348,0.32715012,0.4840855599999999,0.1416058,-32.38173636,-39.11721324,-8.84871444,109.7056772,-0.2299555152,1.023980316,-0.5467952312000001,0.2237838586,0.4829528791999999,-0.5122017792,0.0045
08:33:53,0.182821975,0.996859315,-0.234694665,0.32596226,0.48369138,0.141222275,-32.39798453,-39.143196895,-8.78890262,109.7905831,-0.2248286396,1.0220625555,-0.5446576051,0.222996387175,0.48254870535,-0.5108803016,0.0045
08:33:53,0.17902875,0.99572235,-0.22714585,0.3247743999999999,0.4832972,0.1408387499999999,-32.4142327,-39.16918055,-8.7290908,109.875489,-0.219701764,1.020144795,-0.542519979,0.22220891575,0.4821445315,-0.509558824,0.0045
08:33:53,0.175235525,0.994585385,-0.219597035,0.32358654,0.4829030199999999,0.140455225,-32.43048087,-39.195164205,-8.66927898,109.9603949,-0.2145748884,1.0182270345000002,-0.5403823529,0.221421444325,0.4817403576499999,-0.5082373464,0.0045
08:33:53,0.1714423,0.99344842,-0.21204822,0.32239868,0.48250884,0.1400717,-32.44672904,-39.22114786,-8.60946716,110.0453008,-0.2094480127999999,1.0163092740000002,-0.5382447268,0.2206339729,0.4813361838,-0.5069158688,0.0045
08:33:53,0.1676490749999999,0.992311455,-0.204499405,0.32121082,0.48211466,0.139688175,-32.46297721,-39.247131515,-8.54965534,110.1302067,-0.2043211372,1.0143915135,-0.5361071007,0.219846501475,0.4809320099499999,-0.5055943911999999,0.0045
08:33:53,0.16385585,0.99117449,-0.19695059,0.3200229599999999,0.48172048,0.13930465,-32.479225379999995,-39.27311517,-8.489843519999999,110.2151126,-0.1991942615999999,1.012473753,-0.5339694746,0.21905903005,0.4805278361,-0.5042729135999999,0.0045
08:33:53,0.160062625,0.990037525,-0.189401775,0.3188351,0.4813263,0.138921125,-32.49547355,-39.299098825,-8.4300317,110.3000185,-0.1940673859999999,1.0105559925,-0.5318318485000001,0.218271558625,0.4801236622499999,-0.5029514359999999,0.0045
08:33:53,0.1562694,0.98890056,-0.18185296,0.31764724,0.4809321199999999,0.1385376,-32.51172172,-39.32508248,-8.37021988,110.3849244,-0.1889405103999999,1.008638232,-0.5296942224000001,0.2174840872,0.4797194883999999,-0.5016299583999999,0.0045
08:33:53,0.152476175,0.987763595,-0.174304145,0.3164593799999999,0.48053794,0.138154075,-32.52796989,-39.351066135,-8.31040806,110.4698303,-0.1838136348,1.0067204715,-0.5275565963000001,0.216696615775,0.47931531455,-0.5003084808,0.0045
08:33:53,0.1486829499999999,0.98662663,-0.16675533,0.3152715199999999,0.48014376,0.13777055,-32.54421806,-39.37704979,-8.25059624,110.5547362,-0.1786867592,1.0048027110000002,-0.5254189702000001,0.21590914435,0.4789111406999999,-0.4989870031999999,0.0045
08:33:53,0.1448897249999999,0.985489665,-0.159206515,0.31408366,0.47974958,0.137387025,-32.56046623,-39.403033445,-8.19078442,110.6396421,-0.1735598835999999,1.0028849505,-0.5232813441,0.215121672925,0.47850696685,-0.4976655255999999,0.0045
08:33:53,0.1410964999999999,0.9843527,-0.1516577,0.3128958,0.4793554,0.1370035,-32.5767144,-39.4290171,-8.1309726,110.724548,-0.168433008,1.00096719,-0.521143718,0.2143342015,0.4781027929999999,-0.496344048,0.0045
08:33:53,0.137303275,0.983215735,-0.144108885,0.3117079399999999,0.4789612199999999,0.136619975,-32.59296257,-39.455000755,-8.07116078,110.8094539,-0.1633061323999999,0.9990494295,-0.5190060919,0.213546730075,0.47769861915,-0.4950225704,0.0045
08:33:53,0.13351005,0.98207877,-0.13656007,0.31052008,0.47856704,0.13623645,-32.60921074,-39.48098441,-8.01134896,110.8943598,-0.1581792567999999,0.997131669,-0.5168684658,0.21275925865,0.4772944453,-0.4937010927999999,0.0045
08:33:53,0.1297168249999999,0.980941805,-0.129011255,0.30933222,0.47817286,0.1358529249999999,-32.62545891,-39.506968065,-7.95153714,110.9792657,-0.1530523811999999,0.9952139085,-0.5147308397,0.211971787225,0.4768902714499999,-0.4923796151999999,0.0045
08:33:53,0.1259236,0.97980484,-0.12146244,0.30814436,0.4777786799999999,0.1354694,-32.64170708,-39.53295172,-7.89172532,111.0641716,-0.1479255055999999,0.993296148,-0.5125932136,0.2111843158,0.4764860976,-0.4910581375999999,0.0045
08:33:53,0.1221303749999999,0.978667875,-0.113913625,0.3069564999999999,0.4773845,0.135085875,-32.65795525,-39.558935375,-7.8319135,111.1490775,-0.1427986299999999,0.9913783875,-0.5104555875000001,0.210396844375,0.4760819237499999,-0.4897366599999999,0.0045
08:33:53,0.1183371499999999,0.97753091,-0.10636481,0.30576864,0.4769903199999999,0.13470235,-32.67420342,-39.58491903,-7.77210168,111.2339834,-0.1376717543999999,0.989460627,-0.5083179614000001,0.20960937295,0.4756777499,-0.4884151824,0.0045
08:33:53,0.1145439249999999,0.976393945,-0.098815995,0.30458078,0.47659614,0.134318825,-32.69045159,-39.610902685,-7.71228986,111.3188893,-0.1325448788,0.9875428665,-0.5061803353000001,0.208821901525,0.47527357605,-0.4870937047999999,0.0045
08:33:53,0.1107507,0.97525698,-0.09126718,0.3033929199999999,0.47620196,0.1339353,-32.70669976,-39.63688634,-7.65247804,111.4037952,-0.1274180031999999,0.985625106,-0.5040427092,0.2080344301,0.4748694021999999,-0.4857722271999999,0.0045
08:33:53,0.106957475,0.974120015,-0.083718365,0.3022050599999999,0.4758077799999999,0.1335517749999999,-32.72294793,-39.662869995,-7.59266622,111.4887011,-0.1222911275999999,0.9837073455,-0.5019050831,0.207246958675,0.47446522835,-0.4844507495999999,0.0045
08:33:53,0.1031642499999999,0.97298305,-0.07616955,0.3010172,0.4754136,0.13316825,-32.7391961,-39.68885365,-7.5328544,111.573607,-0.1171642519999999,0.981789585,-0.499767457,0.20645948725,0.4740610544999999,-0.4831292719999999,0.0045
08:33:53,0.0993710249999999,0.971846085,-0.068620735,0.29982934,0.4750194199999999,0.132784725,-32.75544427,-39.714837305,-7.473042579999999,111.6585129,-0.1120373763999999,0.9798718245,-0.4976298309,0.205672015825,0.47365688065,-0.4818077944,0.0045
08:33:53,0.0955777999999999,0.97070912,-0.06107192,0.29864148,0.47462524,0.1324012,-32.771692439999995,-39.74082096,-7.413230759999999,111.7434188,-0.1069105007999999,0.977954064,-0.4954922048,0.2048845444,0.4732527068,-0.4804863168,0.0045
08:33:53,0.0917845749999999,0.969572155,-0.053523105,0.29745362,0.47423106,0.132017675,-32.78794061,-39.766804615,-7.35341894,111.8283247,-0.1017836251999999,0.9760363035,-0.4933545787,0.204097072975,0.4728485329499999,-0.4791648391999999,0.0045
08:33:53,0.08799135,0.96843519,-0.04597429,0.29626576,0.4738368799999999,0.13163415,-32.80418878,-39.79278827,-7.29360712,111.9132306,-0.0966567495999999,0.974118543,-0.4912169526,0.20330960155,0.4724443591,-0.4778433615999999,0.0045
08:33:53,0.0841981249999999,0.967298225,-0.038425475,0.2950779,0.4734427,0.131250625,-32.82043695,-39.818771925,-7.2337953,111.9981365,-0.0915298739999999,0.9722007825,-0.4890793265000001,0.202522130125,0.4720401852499999,-0.4765218839999999,0.0045
08:33:53,0.0804049,0.96616126,-0.03087666,0.2938900399999999,0.47304852,0.1308671,-32.83668512,-39.84475558,-7.17398348,112.0830424,-0.0864029983999999,0.970283022,-0.4869417004,0.2017346587,0.4716360114,-0.4752004063999999,0.0045
08:33:53,0.0766116749999999,0.965024295,-0.023327845,0.29270218,0.47265434,0.130483575,-32.85293329,-39.870739235,-7.11417166,112.1679483,-0.0812761227999999,0.9683652615,-0.4848040743,0.200947187275,0.47123183755,-0.4738789287999999,0.0045
08:33:53,0.0728184499999999,0.96388733,-0.01577903,0.29151432,0.47226016,0.13010005,-32.86918146,-39.89672289,-7.05435984,112.2528542,-0.0761492471999999,0.966447501,-0.4826664482,0.20015971585,0.4708276636999999,-0.4725574512,0.0045
08:33:53,0.069025225,0.962750365,-0.008230215,0.29032646,0.4718659799999999,0.129716525,-32.88542963,-39.922706545,-6.99454802,112.3377601,-0.0710223715999999,0.9645297405,-0.4805288221,0.199372244425,0.47042348985,-0.4712359735999999,0.0045
08:33:53,0.0652319999999999,0.9616134,-0.0006814,0.2891385999999999,0.4714718,0.129333,-32.9016778,-39.9486902,-6.9347362,112.422666,-0.0658954959999999,0.96261198,-0.478391196,0.198584773,0.4700193159999999,-0.4699144959999999,0.0045
08:33:53,0.061438775,0.960476435,0.0068674149999999,0.28795074,0.47107762,0.128949475,-32.91792597,-39.974673855,-6.87492438,112.5075719,-0.0607686203999999,0.9606942195,-0.4762535699,0.197797301575,0.46961514215,-0.4685930183999999,0.0045
08:33:53,0.0576455499999999,0.95933947,0.0144162299999999,0.28676288,0.47068344,0.1285659499999999,-32.93417414,-40.00065751,-6.815112559999999,112.5924778,-0.0556417447999999,0.958776459,-0.4741159438,0.19700983015,0.4692109683,-0.4672715407999999,0.0045
08:33:53,0.0538523249999999,0.958202505,0.0219650449999999,0.28557502,0.47028926,0.128182425,-32.95042231,-40.026641165,-6.755300739999999,112.6773837,-0.0505148691999999,0.9568586985,-0.4719783177,0.196222358725,0.4688067944499999,-0.4659500632,0.0045
08:33:53,0.0500590999999999,0.95706554,0.0295138599999999,0.2843871599999999,0.4698950799999999,0.1277989,-32.96667048,-40.05262482,-6.69548892,112.7622896,-0.0453879935999999,0.954940938,-0.4698406916,0.1954348873,0.4684026206,-0.4646285856,0.0045
08:33:53,0.0462658749999999,0.955928575,0.0370626749999999,0.2831993,0.4695009,0.127415375,-32.98291865,-40.078608475,-6.6356771,112.8471955,-0.0402611179999999,0.9530231775,-0.4677030655,0.194647415875,0.4679984467499999,-0.4633071079999999,0.0045
08:33:53,0.04247265,0.95479161,0.0446114899999999,0.28201144,0.46910672,0.12703185,-32.99916682,-40.10459213,-6.57586528,112.9321014,-0.0351342423999999,0.951105417,-0.4655654394,0.19385994445,0.4675942729,-0.4619856303999999,0.0045
08:33:53,0.0386794249999999,0.953654645,0.0521603049999999,0.2808235799999999,0.46871254,0.126648325,-33.01541499,-40.130575785,-6.51605346,113.0170073,-0.0300073667999999,0.9491876565,-0.4634278133,0.193072473025,0.46719009905,-0.4606641527999999,0.0045
08:33:53,0.0348862,0.95251768,0.0597091199999999,0.27963572,0.46831836,0.1262648,-33.03166316,-40.15655944,-6.45624164,113.1019132,-0.0248804911999999,0.947269896,-0.4612901872,0.1922850016,0.4667859251999999,-0.4593426751999999,0.0045
08:33:53,0.0310929749999999,0.951380715,0.0672579349999999,0.27844786,0.4679241799999999,0.125881275,-33.04791133,-40.182543095,-6.39642982,113.1868191,-0.0197536155999999,0.9453521355,-0.4591525611,0.191497530175,0.46638175135,-0.4580211975999999,0.0045
08:33:53,0.0272997499999999,0.95024375,0.0748067499999999,0.27726,0.46753,0.12549775,-33.0641595,-40.20852675,-6.336618,113.271725,-0.0146267399999999,0.943434375,-0.457014935,0.19071005875,0.4659775774999999,-0.45669972,0.0045
08:33:53,0.023506525,0.949106785,0.0823555649999999,0.27607214,0.46713582,0.125114225,-33.08040767,-40.234510405,-6.27680618,113.3566309,-0.0094998643999999,0.9415166145,-0.4548773089,0.189922587325,0.46557340365,-0.4553782423999999,0.0045
08:33:53,0.0197132999999999,0.94796982,0.0899043799999999,0.27488428,0.4667416399999999,0.1247307,-33.09665584,-40.26049406,-6.216994359999999,113.4415368,-0.0043729887999999,0.939598854,-0.4527396828,0.1891351159,0.4651692298,-0.4540567647999999,0.0045
08:33:53,0.015920075,0.946832855,0.0974531949999999,0.27369642,0.46634746,0.124347175,-33.11290401,-40.286477715,-6.15718254,113.5264427,0.0007538868,0.9376810935,-0.4506020567,0.188347644475,0.4647650559499999,-0.4527352871999999,0.0045
08:33:53,0.0121268499999999,0.94569589,0.1050020099999999,0.27250856,0.4659532799999999,0.12396365,-33.12915218,-40.31246137,-6.09737072,113.6113486,0.0058807624,0.935763333,-0.4484644306000001,0.18756017305,0.4643608821,-0.4514138096,0.0045
08:33:53,0.0083336249999999,0.944558925,0.1125508249999999,0.2713206999999999,0.4655591,0.123580125,-33.14540035,-40.338445025,-6.0375589,113.6962545,0.011007638,0.9338455725,-0.4463268045,0.186772701625,0.4639567082499999,-0.450092332,0.0045
08:33:53,0.0045404,0.94342196,0.1200996399999999,0.27013284,0.46516492,0.1231966,-33.16164852,-40.36442868,-5.97774708,113.7811604,0.0161345136,0.931927812,-0.4441891784,0.1859852302,0.4635525344,-0.4487708544,0.0045
08:33:53,0.0007471749999999,0.942284995,0.1276484549999999,0.26894498,0.4647707399999999,0.122813075,-33.17789669,-40.39041233499999,-5.91793526,113.8660663,0.0212613892,0.9300100515,-0.4420515523,0.185197758775,0.4631483605499999,-0.4474493767999999,0.0045
08:33:53,-0.0030460499999999,0.94114803,0.1351972699999999,0.2677571199999999,0.46437656,0.12242955,-33.19414486,-40.41639599,-5.85812344,113.9509722,0.0263882648,0.928092291,-0.4399139262,0.18441028735,0.4627441866999999,-0.4461278991999999,0.0045
08:33:53,-0.006839275,0.940011065,0.1427460849999999,0.26656926,0.4639823799999999,0.122046025,-33.21039303,-40.442379645,-5.79831162,114.0358781,0.0315151404,0.9261745305,-0.4377763001,0.183622815925,0.46234001285,-0.4448064215999999,0.0045
08:33:53,-0.0106325,0.9388741,0.1502948999999999,0.2653814,0.4635882,0.1216625,-33.2266412,-40.4683633,-5.7384998,114.120784,0.036642016,0.92425677,-0.435638674,0.1828353445,0.4619358389999999,-0.4434849439999999,0.0045
08:33:53,-0.014425725,0.937737135,0.1578437149999999,0.26419354,0.46319402,0.121278975,-33.24288937,-40.494346955,-5.678687979999999,114.2056899,0.0417688916,0.9223390095,-0.4335010479,0.182047873075,0.46153166515,-0.4421634664,0.0045
08:33:53,-0.01821895,0.93660017,0.1653925299999999,0.26300568,0.4627998399999999,0.12089545,-33.25913754,-40.52033061,-5.618876159999999,114.2905958,0.0468957672,0.920421249,-0.4313634218,0.18126040165,0.4611274912999999,-0.4408419888,0.0045
08:33:53,-0.0220121749999999,0.935463205,0.1729413449999999,0.26181782,0.46240566,0.1205119249999999,-33.27538571,-40.546314265,-5.55906434,114.3755017,0.0520226428,0.9185034885,-0.4292257957000001,0.180472930225,0.46072331745,-0.4395205111999999,0.0045
08:33:53,-0.0258054,0.93432624,0.1804901599999999,0.26062996,0.46201148,0.1201284,-33.29163388,-40.57229792,-5.49925252,114.4604076,0.0571495184,0.916585728,-0.4270881696,0.1796854588,0.4603191436,-0.4381990335999999,0.0045
08:33:53,-0.029598625,0.933189275,0.1880389749999999,0.2594421,0.4616173,0.119744875,-33.30788205,-40.598281575,-5.4394407,114.5453135,0.062276394,0.9146679675,-0.4249505435,0.178897987375,0.4599149697499999,-0.436877556,0.0045
08:33:53,-0.03339185,0.93205231,0.1955877899999999,0.2582542399999999,0.46122312,0.11936135,-33.32413022,-40.62426523,-5.37962888,114.6302194,0.0674032696,0.912750207,-0.4228129174,0.17811051595,0.4595107959,-0.4355560784,0.0045
08:33:53,-0.0371850749999999,0.930915345,0.2031366049999999,0.25706638,0.4608289399999999,0.118977825,-33.34037839,-40.650248885,-5.31981706,114.7151253,0.0725301452,0.9108324465,-0.4206752913,0.177323044525,0.4591066220499999,-0.4342346008,0.0045
08:33:53,-0.0409782999999999,0.92977838,0.2106854199999999,0.25587852,0.46043476,0.1185943,-33.35662656,-40.67623254,-5.26000524,114.8000312,0.0776570208,0.908914686,-0.4185376652,0.1765355731,0.4587024482,-0.4329131231999999,0.0045
08:33:53,-0.044771525,0.928641415,0.218234235,0.25469066,0.46004058,0.118210775,-33.37287473,-40.702216195,-5.20019342,114.8849371,0.0827838964,0.9069969255,-0.4164000391,0.175748101675,0.45829827435,-0.4315916455999999,0.0045
08:33:53,-0.04856475,0.92750445,0.2257830499999999,0.2535028,0.4596464,0.11782725,-33.3891229,-40.72819985,-5.1403816,114.969843,0.087910772,0.905079165,-0.414262413,0.17496063025,0.4578941004999999,-0.4302701679999999,0.0045
08:33:53,-0.052357975,0.926367485,0.2333318649999999,0.25231494,0.45925222,0.117443725,-33.40537107,-40.754183505,-5.080569779999999,115.0547489,0.0930376476,0.9031614045,-0.4121247869,0.174173158825,0.45748992665,-0.4289486903999999,0.0045
08:33:53,-0.0561511999999999,0.92523052,0.2408806799999999,0.25112708,0.4588580399999999,0.1170602,-33.42161924,-40.78016716,-5.02075796,115.1396548,0.0981645232,0.901243644,-0.4099871608,0.1733856874,0.4570857527999999,-0.4276272128,0.0045
08:33:53,-0.0599444249999999,0.924093555,0.2484294949999999,0.24993922,0.45846386,0.116676675,-33.43786741,-40.806150815,-4.96094614,115.2245607,0.1032913988,0.8993258835000001,-0.4078495347,0.172598215975,0.45668157895,-0.4263057352,0.0045
08:33:53,-0.06373765,0.92295659,0.25597831,0.2487513599999999,0.45806968,0.11629315,-33.45411558,-40.83213447,-4.90113432,115.3094666,0.1084182744,0.8974081230000001,-0.4057119086,0.17181074455,0.4562774051,-0.4249842575999999,0.0045
08:33:53,-0.067530875,0.921819625,0.2635271249999999,0.2475635,0.4576755,0.115909625,-33.47036375,-40.858118125,-4.8413225,115.3943725,0.11354515,0.8954903625000001,-0.4035742825,0.171023273125,0.4558732312499999,-0.4236627799999999,0.0045
08:33:53,-0.0713241,0.92068266,0.2710759399999999,0.24637564,0.45728132,0.1155260999999999,-33.48661192,-40.88410178,-4.781510679999999,115.4792784,0.1186720256,0.8935726020000001,-0.4014366564,0.1702358017,0.4554690574,-0.4223413023999999,0.0045
08:33:53,-0.0751173249999999,0.919545695,0.278624755,0.24518778,0.4568871399999999,0.115142575,-33.50286009,-40.910085435,-4.72169886,115.5641843,0.1237989012,0.8916548415000001,-0.3992990303,0.169448330275,0.4550648835499999,-0.4210198248,0.0045
08:33:53,-0.07891055,0.91840873,0.2861735699999999,0.2439999199999999,0.45649296,0.11475905,-33.51910826,-40.93606909,-4.66188704,115.6490902,0.1289257768,0.889737081,-0.3971614042,0.16866085885,0.4546607097,-0.4196983472,0.0045
08:33:53,-0.082703775,0.917271765,0.293722385,0.24281206,0.45609878,0.114375525,-33.53535643,-40.962052745,-4.60207522,115.7339961,0.1340526524,0.8878193205,-0.3950237781,0.167873387425,0.45425653585,-0.4183768696,0.0045
08:33:53,-0.086497,0.9161348,0.3012711999999999,0.2416242,0.4557046,0.113992,-33.5516046,-40.9880364,-4.5422634,115.818902,0.139179528,0.8859015600000001,-0.392886152,0.167085916,0.4538523619999999,-0.4170553919999999,0.0045
08:33:53,-0.090290225,0.914997835,0.3088200149999999,0.24043634,0.45531042,0.113608475,-33.56785277,-41.014020055,-4.482451579999999,115.9038079,0.1443064036,0.8839837995000001,-0.3907485259,0.166298444575,0.45344818815,-0.4157339143999999,0.0045
08:33:53,-0.0940834499999999,0.91386087,0.31636883,0.2392484799999999,0.4549162399999999,0.1132249499999999,-33.58410094,-41.04000370999999,-4.42263976,115.9887138,0.1494332792,0.8820660390000001,-0.3886108998000001,0.16551097315,0.4530440142999999,-0.4144124367999999,0.0045
08:33:53,-0.097876675,0.912723905,0.3239176449999999,0.23806062,0.45452206,0.112841425,-33.60034911,-41.065987365,-4.36282794,116.0736197,0.1545601548,0.8801482785000001,-0.3864732737,0.164723501725,0.45263984045,-0.4130909591999999,0.0045
08:33:53,-0.1016699,0.91158694,0.3314664599999999,0.23687276,0.45412788,0.1124579,-33.61659728,-41.09197102,-4.30301612,116.1585256,0.1596870304,0.8782305180000001,-0.3843356476,0.1639360303,0.4522356666,-0.4117694816,0.0045
08:33:53,-0.105463125,0.910449975,0.3390152749999999,0.2356849,0.4537337,0.112074375,-33.63284545,-41.117954675,-4.2432043,116.2434315,0.164813906,0.8763127575,-0.3821980215,0.163148558875,0.45183149275,-0.410448004,0.0045
08:33:53,-0.10925635,0.90931301,0.3465640899999999,0.23449704,0.45333952,0.11169085,-33.64909362,-41.14393833,-4.183392479999999,116.3283374,0.1699407816,0.874394997,-0.3800603954,0.16236108745,0.4514273189,-0.4091265263999999,0.0045
08:33:53,-0.1130495749999999,0.908176045,0.354112905,0.23330918,0.45294534,0.111307325,-33.66534179,-41.169921985,-4.12358066,116.4132433,0.1750676572,0.8724772365000001,-0.3779227693,0.161573616025,0.4510231450499999,-0.4078050487999999,0.0045
08:33:53,-0.1168428,0.90703908,0.3616617199999999,0.23212132,0.45255116,0.1109238,-33.68158996,-41.19590564,-4.06376884,116.4981492,0.1801945328,0.870559476,-0.3757851432,0.1607861446,0.4506189712,-0.4064835712,0.0045
08:33:53,-0.120636025,0.905902115,0.3692105349999999,0.2309334599999999,0.45215698,0.110540275,-33.69783813,-41.221889295,-4.00395702,116.5830551,0.1853214084,0.8686417155000001,-0.3736475171,0.159998673175,0.45021479735,-0.4051620936,0.0045
08:33:53,-0.12442925,0.90476515,0.37675935,0.2297456,0.4517628,0.11015675,-33.7140863,-41.24787295,-3.9441452,116.667961,0.190448284,0.8667239550000001,-0.371509891,0.15921120175,0.4498106235,-0.403840616,0.0045
08:33:53,-0.128222475,0.903628185,0.3843081649999999,0.22855774,0.45136862,0.109773225,-33.73033447,-41.273856605,-3.8843333799999993,116.7528669,0.1955751596,0.8648061945000001,-0.3693722649,0.158423730325,0.44940644965,-0.4025191384,0.0045
08:33:53,-0.1320156999999999,0.90249122,0.3918569799999999,0.22736988,0.45097444,0.1093897,-33.74658264,-41.29984026,-3.82452156,116.8377728,0.2007020352,0.862888434,-0.3672346388,0.1576362589,0.4490022757999999,-0.4011976607999999,0.0045
08:33:53,-0.135808925,0.901354255,0.3994057949999999,0.2261820199999999,0.45058026,0.109006175,-33.76283081,-41.325823915,-3.76470974,116.9226787,0.2058289108,0.8609706735,-0.3650970127,0.156848787475,0.44859810195,-0.3998761831999999,0.0045
08:33:53,-0.13960215,0.9002172900000001,0.4069546099999999,0.22499416,0.45018608,0.10862265,-33.77907898,-41.35180757,-3.70489792,117.0075846,0.2109557864,0.8590529130000001,-0.3629593866,0.15606131605,0.4481939280999999,-0.3985547055999999,0.0045
08:33:53,-0.143395375,0.899080325,0.414503425,0.2238063,0.4497919,0.1082391249999999,-33.79532715,-41.377791225,-3.6450861,117.0924905,0.216082662,0.8571351525,-0.3608217605,0.155273844625,0.44778975425,-0.3972332279999999,0.0045
08:33:53,-0.1471885999999999,0.8979433600000001,0.4220522399999999,0.22261844,0.44939772,0.1078556,-33.81157532,-41.40377488,-3.58527428,117.1773964,0.2212095376,0.8552173920000001,-0.3586841344,0.1544863732,0.4473855804,-0.3959117504,0.0045
08:33:53,-0.150981825,0.896806395,0.4296010549999999,0.22143058,0.44900354,0.107472075,-33.82782349,-41.429758535,-3.52546246,117.2623023,0.2263364132,0.8532996315000001,-0.3565465083,0.153698901775,0.4469814065499999,-0.3945902728,0.0045
08:33:53,-0.15477505,0.8956694300000001,0.4371498699999999,0.22024272,0.44860936,0.10708855,-33.84407166,-41.45574219,-3.46565064,117.3472082,0.2314632888000001,0.8513818710000001,-0.3544088822,0.15291143035,0.4465772327,-0.3932687951999999,0.0045
08:33:53,-0.158568275,0.894532465,0.4446986849999999,0.21905486,0.44821518,0.106705025,-33.86031983,-41.481725845,-3.40583882,117.4321141,0.2365901644,0.8494641105,-0.3522712561,0.152123958925,0.4461730588499999,-0.3919473176,0.0045
08:33:53,-0.1623615,0.8933955,0.4522474999999999,0.217867,0.447821,0.1063215,-33.876568,-41.5077095,-3.3460269999999994,117.51702,0.24171704,0.84754635,-0.35013363,0.1513364875,0.445768885,-0.39062584,0.0045
08:33:53,-0.1661547249999999,0.8922585350000001,0.4597963149999999,0.21667914,0.44742682,0.105937975,-33.89281617,-41.533693155,-3.28621518,117.6019259,0.2468439156,0.8456285895000001,-0.3479960039000001,0.150549016075,0.44536471115,-0.3893043624,0.0045
08:33:53,-0.16994795,0.89112157,0.4673451299999999,0.21549128,0.44703264,0.10555445,-33.90906434,-41.55967681,-3.22640336,117.6868318,0.2519707912000001,0.843710829,-0.3458583778,0.14976154465,0.4449605372999999,-0.3879828848,0.0045
08:33:53,-0.173741175,0.8899846050000001,0.474893945,0.21430342,0.44663846,0.105170925,-33.92531251,-41.585660465,-3.16659154,117.7717377,0.2570976668,0.8417930685,-0.3437207517,0.148974073225,0.44455636345,-0.3866614072,0.0045
08:33:53,-0.1775344,0.88884764,0.4824427599999999,0.21311556,0.44624428,0.1047874,-33.94156068,-41.61164412,-3.10677972,117.8566436,0.2622245424,0.8398753080000001,-0.3415831256,0.1481866018,0.4441521895999999,-0.3853399295999999,0.0045
08:33:53,-0.181327625,0.8877106750000001,0.4899915749999999,0.2119277,0.4458500999999999,0.104403875,-33.95780885,-41.637627775,-3.0469678999999994,117.9415495,0.267351418,0.8379575475000001,-0.3394454995,0.147399130375,0.44374801575,-0.3840184519999999,0.0045
08:33:53,-0.1851208499999999,0.8865737100000001,0.4975403899999999,0.21073984,0.44545592,0.10402035,-33.97405702,-41.66361143,-2.98715608,118.0264554,0.2724782936000001,0.836039787,-0.3373078734,0.14661165895,0.4433438419,-0.3826969743999999,0.0045
08:33:53,-0.188914075,0.885436745,0.505089205,0.20955198,0.44506174,0.103636825,-33.99030519,-41.68959508499999,-2.92734426,118.1113613,0.2776051692000001,0.8341220265,-0.3351702473,0.145824187525,0.4429396680499999,-0.3813754968,0.0045
08:33:53,-0.1927073,0.8842997800000001,0.51263802,0.20836412,0.44466756,0.1032532999999999,-34.00655336,-41.71557874,-2.86753244,118.1962672,0.2827320448,0.8322042660000001,-0.3330326212,0.1450367161,0.4425354942,-0.3800540192,0.0045
08:33:53,-0.196500525,0.883162815,0.5201868349999998,0.20717626,0.44427338,0.102869775,-34.02280153,-41.741562395,-2.80772062,118.2811731,0.2878589204,0.8302865055,-0.3308949951,0.144249244675,0.4421313203499999,-0.3787325416,0.0045
08:33:53,-0.20029375,0.88202585,0.5277356499999999,0.2059884,0.4438792,0.10248625,-34.0390497,-41.76754605,-2.7479088,118.366079,0.2929857960000001,0.828368745,-0.328757369,0.14346177325,0.4417271465,-0.377411064,0.0045
08:33:53,-0.2040869749999999,0.8808888850000001,0.5352844649999999,0.20480054,0.44348502,0.102102725,-34.05529787,-41.793529705,-2.68809698,118.4509849,0.2981126716000001,0.8264509845000001,-0.3266197429,0.142674301825,0.44132297265,-0.3760895864,0.0045
08:33:53,-0.2078802,0.87975192,0.54283328,0.20361268,0.44309084,0.1017192,-34.07154604,-41.81951336,-2.62828516,118.5358908,0.3032395472000001,0.8245332240000001,-0.3244821168,0.1418868304,0.4409187987999999,-0.3747681088,0.0045
08:33:53,-0.211673425,0.8786149550000001,0.550382095,0.20242482,0.44269666,0.101335675,-34.08779421,-41.845497015,-2.56847334,118.6207967,0.3083664228,0.8226154635,-0.3223444907,0.141099358975,0.44051462495,-0.3734466312,0.0045
08:33:53,-0.21546665,0.87747799,0.5579309099999998,0.20123696,0.44230248,0.10095215,-34.10404238,-41.87148067,-2.5086615199999995,118.7057026,0.3134932984,0.820697703,-0.3202068646,0.14031188755,0.4401104510999999,-0.3721251536,0.0045
08:33:53,-0.219259875,0.8763410250000001,0.5654797249999999,0.2000491,0.4419083,0.100568625,-34.12029055,-41.897464325,-2.4488497,118.7906085,0.3186201740000001,0.8187799425000001,-0.3180692385,0.139524416125,0.43970627725,-0.3708036759999999,0.0045
08:33:53,-0.2230530999999999,0.8752040600000001,0.5730285399999999,0.19886124,0.44151412,0.1001851,-34.13653872,-41.92344798,-2.38903788,118.8755144,0.3237470496000001,0.816862182,-0.3159316124,0.1387369447,0.4393021034,-0.3694821983999999,0.0045
08:33:53,-0.226846325,0.874067095,0.580577355,0.19767338,0.44111994,0.099801575,-34.15278689,-41.949431635,-2.32922606,118.9604203,0.3288739252,0.8149444215,-0.3137939863,0.137949473275,0.4388979295499999,-0.3681607207999999,0.0045
08:33:53,-0.23063955,0.8729301300000001,0.58812617,0.19648552,0.4407257599999999,0.09941805,-34.16903506,-41.97541529,-2.26941424,119.0453262,0.3340008008,0.8130266610000001,-0.3116563602,0.13716200185,0.4384937557,-0.3668392431999999,0.0045
08:33:53,-0.234432775,0.871793165,0.5956749849999998,0.19529766,0.44033158,0.099034525,-34.18528323,-42.001398945,-2.2096024199999995,119.1302321,0.3391276764000001,0.8111089005000001,-0.3095187341,0.136374530425,0.4380895818499999,-0.3655177656,0.0045
08:33:53,-0.238226,0.8706562,0.6032237999999999,0.1941098,0.4399374,0.098651,-34.2015314,-42.0273826,-2.1497905999999998,119.215138,0.3442545520000001,0.80919114,-0.307381108,0.135587059,0.437685408,-0.364196288,0.0045
08:33:53,-0.2420192249999999,0.8695192350000001,0.6107726149999999,0.19292194,0.43954322,0.0982674749999999,-34.21777957,-42.053366255,-2.08997878,119.3000439,0.3493814276000001,0.8072733795,-0.3052434819,0.134799587575,0.43728123415,-0.3628748104,0.0045
08:33:53,-0.24581245,0.86838227,0.61832143,0.19173408,0.43914904,0.09788395,-34.23402774,-42.07934991,-2.03016696,119.3849498,0.3545083032,0.8053556190000001,-0.3031058558,0.13401211615,0.4368770602999999,-0.3615533328,0.0045
08:33:53,-0.249605675,0.8672453050000001,0.625870245,0.19054622,0.4387548599999999,0.097500425,-34.25027591,-42.105333565,-1.97035514,119.4698557,0.3596351788,0.8034378585,-0.3009682297,0.133224644725,0.43647288645,-0.3602318552,0.0045
08:33:53,-0.2533989,0.86610834,0.63341906,0.18935836,0.43836068,0.0971169,-34.26652408,-42.13131722,-1.9105433199999995,119.5547616,0.3647620544000001,0.801520098,-0.2988306036,0.1324371733,0.4360687125999999,-0.3589103776,0.0045
08:33:53,-0.257192125,0.8649713750000001,0.6409678749999999,0.1881705,0.4379665,0.096733375,-34.28277225,-42.157300875,-1.8507314999999995,119.6396675,0.3698889300000001,0.7996023375000001,-0.2966929775,0.131649701875,0.43566453875,-0.3575889,0.0045
08:33:53,-0.26098535,0.86383441,0.6485166899999999,0.18698264,0.43757232,0.09634985,-34.29902042,-42.18328453,-1.79091968,119.7245734,0.3750158056,0.7976845770000001,-0.2945553514,0.13086223045,0.4352603649,-0.3562674224,0.0045
08:33:53,-0.264778575,0.862697445,0.6560655049999999,0.18579478,0.43717814,0.095966325,-34.31526859,-42.209268185,-1.7311078599999998,119.8094793,0.3801426812,0.7957668165,-0.2924177253,0.130074759025,0.4348561910499999,-0.3549459447999999,0.0045
08:33:53,-0.2685718,0.8615604800000001,0.66361432,0.18460692,0.4367839599999999,0.0955828,-34.33151676,-42.23525184,-1.6712960399999996,119.8943852,0.3852695568000001,0.793849056,-0.2902800992,0.1292872876,0.4344520172,-0.3536244671999999,0.0045
08:33:53,-0.272365025,0.860423515,0.671163135,0.18341906,0.43638978,0.095199275,-34.34776493,-42.261235495,-1.6114842199999997,119.9792911,0.3903964324000001,0.7919312955000001,-0.2881424731,0.128499816175,0.4340478433499999,-0.3523029895999999,0.0045
08:33:53,-0.27615825,0.85928655,0.6787119499999998,0.1822312,0.4359956,0.09481575,-34.3640131,-42.28721915,-1.5516723999999993,120.064197,0.3955233080000001,0.790013535,-0.286004847,0.12771234475,0.4336436695,-0.350981512,0.0045
08:33:53,-0.2799514749999999,0.858149585,0.6862607649999999,0.18104334,0.43560142,0.094432225,-34.38026127,-42.313202805,-1.49186058,120.1491029,0.4006501836,0.7880957745000001,-0.2838672209,0.126924873325,0.43323949565,-0.3496600344,0.0045
08:33:53,-0.2837447,0.85701262,0.6938095799999999,0.17985548,0.43520724,0.0940487,-34.39650944,-42.33918645999999,-1.4320487599999998,120.2340088,0.4057770592,0.7861780140000001,-0.2817295948,0.1261374019,0.4328353217999999,-0.3483385568,0.0045
08:33:53,-0.2875379249999999,0.8558756550000001,0.701358395,0.17866762,0.43481306,0.093665175,-34.41275761,-42.365170115,-1.3722369399999996,120.3189147,0.4109039348000001,0.7842602535000001,-0.2795919687,0.125349930475,0.43243114795,-0.3470170792,0.0045
08:33:53,-0.29133115,0.85473869,0.7089072099999998,0.17747976,0.43441888,0.09328165,-34.42900578,-42.39115377,-1.3124251200000003,120.4038206,0.4160308104000001,0.782342493,-0.2774543426,0.12456245905,0.4320269740999999,-0.3456956016,0.0045
08:33:53,-0.295124375,0.8536017250000001,0.7164560249999998,0.1762919,0.4340247,0.092898125,-34.44525395,-42.417137425,-1.2526133000000002,120.4887265,0.421157686,0.7804247325,-0.2753167165,0.123774987625,0.43162280025,-0.344374124,0.0045
08:33:53,-0.2989176,0.85246476,0.7240048399999999,0.17510404,0.43363052,0.0925146,-34.46150212,-42.44312108,-1.19280148,120.5736324,0.4262845616,0.7785069720000001,-0.2731790904,0.1229875162,0.4312186263999999,-0.3430526464,0.0045
08:33:53,-0.302710825,0.851327795,0.7315536549999999,0.17391618,0.43323634,0.092131075,-34.47775029,-42.469104735,-1.1329896599999998,120.6585383,0.4314114372000001,0.7765892115,-0.2710414643,0.122200044775,0.4308144525499999,-0.3417311688,0.0045
08:33:53,-0.30650405,0.8501908300000001,0.73910247,0.17272832,0.43284216,0.09174755,-34.49399846,-42.49508839,-1.0731778399999996,120.7434442,0.4365383128000001,0.7746714510000001,-0.2689038382,0.12141257335,0.4304102787,-0.3404096912,0.0045
08:33:53,-0.310297275,0.849053865,0.7466512849999998,0.17154046,0.43244798,0.091364025,-34.51024663,-42.521072045,-1.0133660199999994,120.8283501,0.4416651884000001,0.7727536905000001,-0.2667662121,0.120625101925,0.4300061048499999,-0.3390882135999999,0.0045
08:33:53,-0.3140905,0.8479169,0.7542000999999998,0.1703526,0.4320538,0.0909805,-34.5264948,-42.5470557,-0.9535541999999992,120.913256,0.446792064,0.7708359300000001,-0.264628586,0.1198376305,0.429601931,-0.3377667359999999,0.0045
08:33:53,-0.317883725,0.846779935,0.7617489149999999,0.16916474,0.43165962,0.090596975,-34.54274297,-42.573039355,-0.8937423799999991,120.9981619,0.4519189396,0.7689181695,-0.2624909599,0.119050159075,0.4291977571499999,-0.3364452584,0.0045
08:33:53,-0.3216769500000001,0.8456429700000001,0.7692977299999999,0.16797688,0.43126544,0.09021345,-34.55899114,-42.59902301,-0.8339305599999989,121.0830678,0.4570458152000001,0.767000409,-0.2603533338,0.11826268765,0.4287935832999999,-0.3351237808,0.0045
08:33:53,-0.325470175,0.8445060050000001,0.7768465449999999,0.16678902,0.43087126,0.089829925,-34.57523931,-42.625006665,-0.7741187400000005,121.1679737,0.4621726908000001,0.7650826485000001,-0.2582157077,0.117475216225,0.42838940945,-0.3338023032,0.0045
08:33:53,-0.3292634,0.84336904,0.7843953599999998,0.16560116,0.43047708,0.0894464,-34.59148748,-42.65099032,-0.7143069200000003,121.2528796,0.4672995664,0.763164888,-0.2560780816,0.1166877448,0.4279852355999999,-0.3324808256,0.0045
08:33:53,-0.333056625,0.8422320750000001,0.7919441749999998,0.1644133,0.4300829,0.089062875,-34.60773565,-42.676973975,-0.6544951000000001,121.3377855,0.472426442,0.7612471275000001,-0.2539404555,0.115900273375,0.42758106175,-0.331159348,0.0045
08:33:53,-0.33684985,0.84109511,0.7994929899999998,0.16322544,0.42968872,0.08867935,-34.62398382,-42.70295763,-0.5946832799999999,121.4226914,0.4775533176000001,0.7593293670000001,-0.2518028294,0.11511280195,0.4271768878999999,-0.3298378704,0.0045
08:33:53,-0.340643075,0.839958145,0.8070418049999999,0.16203758,0.42929454,0.088295825,-34.64023199,-42.728941285,-0.5348714599999997,121.5075973,0.4826801932000001,0.7574116065000001,-0.2496652033,0.114325330525,0.42677271405,-0.3285163928,0.0045
08:33:53,-0.3444363,0.83882118,0.8145906199999999,0.16084972,0.42890036,0.0879123,-34.65648016,-42.75492494,-0.4750596399999995,121.5925032,0.4878070688000001,0.755493846,-0.2475275772,0.1135378591,0.4263685402,-0.3271949152,0.0045
08:33:53,-0.348229525,0.837684215,0.8221394349999998,0.15966186,0.42850618,0.087528775,-34.67272833,-42.780908595,-0.4152478199999994,121.6774091,0.4929339444,0.7535760855,-0.2453899511,0.112750387675,0.4259643663499999,-0.3258734376,0.0045
08:33:53,-0.35202275,0.8365472500000001,0.8296882499999998,0.158474,0.428112,0.08714525,-34.688976499999995,-42.80689225,-0.3554359999999992,121.762315,0.49806082,0.7516583250000001,-0.243252325,0.11196291625,0.4255601925,-0.32455196,0.0045
08:33:53,-0.355815975,0.835410285,0.8372370649999998,0.15728614,0.42771782,0.086761725,-34.70522467,-42.832875905,-0.295624179999999,121.8472209,0.5031876956000001,0.7497405645,-0.2411146989,0.111175444825,0.4251560186499999,-0.3232304823999999,0.0045
08:33:53,-0.3596092000000001,0.8342733200000001,0.8447858799999999,0.15609828,0.42732364,0.0863782,-34.72147284,-42.85885956,-0.2358123599999988,121.9321268,0.5083145712000001,0.7478228040000001,-0.2389770728,0.1103879734,0.4247518448,-0.3219090047999999,0.0045
08:33:53,-0.363402425,0.833136355,0.8523346949999999,0.15491042,0.42692946,0.085994675,-34.73772101,-42.884843215,-0.1760005400000004,122.0170327,0.5134414468000001,0.7459050435000001,-0.2368394467,0.109600501975,0.42434767095,-0.3205875272,0.0045
08:33:53,-0.36719565,0.83199939,0.85988351,0.15372256,0.42653528,0.08561115,-34.75396918,-42.91082687,-0.1161887200000002,122.1019386,0.5185683224000001,0.743987283,-0.2347018206,0.10881303055,0.4239434970999999,-0.3192660496,0.0045
08:33:53,-0.370988875,0.8308624250000001,0.8674323249999998,0.1525347,0.4261411,0.085227625,-34.77021735,-42.936810525,-0.0563769,122.1868445,0.5236951980000001,0.7420695225,-0.2325641945,0.108025559125,0.42353932325,-0.317944572,0.0045
08:33:53,-0.3747821,0.82972546,0.8749811399999998,0.15134684,0.42574692,0.0848441,-34.78646552,-42.96279418,0.0034349200000001,122.2717504,0.5288220736000001,0.740151762,-0.2304265684,0.1072380877,0.4231351493999999,-0.3166230944,0.0045
08:33:53,-0.378575325,0.828588495,0.8825299549999999,0.15015898,0.42535274,0.084460575,-34.80271369,-42.98877783499999,0.0632467400000003,122.3566563,0.5339489492000001,0.7382340015000001,-0.2282889423,0.106450616275,0.42273097555,-0.3153016168,0.0045
08:33:53,-0.38236855,0.82745153,0.8900787699999999,0.14897112,0.42495856,0.08407705,-34.81896186,-43.01476149,0.1230585600000004,122.4415622,0.5390758248,0.736316241,-0.2261513162,0.10566314485,0.4223268017,-0.3139801392,0.0045
08:33:53,-0.386161775,0.826314565,0.897627585,0.14778326,0.42456438,0.083693525,-34.83521003,-43.040745145,0.1828703800000006,122.5264681,0.5442027004000001,0.7343984805000001,-0.2240136901,0.104875673425,0.42192262785,-0.3126586616,0.0045
08:33:53,-0.389955,0.8251776000000001,0.9051763999999998,0.1465954,0.4241702,0.08331,-34.8514582,-43.0667288,0.2426822000000008,122.611374,0.5493295760000001,0.7324807200000001,-0.221876064,0.104088202,0.421518454,-0.311337184,0.0045
08:33:53,-0.393748225,0.824040635,0.9127252149999998,0.14540754,0.42377602,0.082926475,-34.86770637,-43.092712455,0.302494020000001,122.6962799,0.5544564516000001,0.7305629595,-0.2197384379,0.103300730575,0.4211142801499999,-0.3100157064,0.0045
08:33:53,-0.3975414500000001,0.8229036700000001,0.92027403,0.14421968,0.42338184,0.08254295,-34.88395454,-43.11869611,0.3623058400000012,122.7811858,0.5595833272000001,0.728645199,-0.2176008118,0.10251325915,0.4207101063,-0.3086942287999999,0.0045
08:33:53,-0.401334675,0.821766705,0.927822845,0.14303182,0.42298766,0.082159425,-34.90020271,-43.144679765,0.4221176599999996,122.8660917,0.5647102028000001,0.7267274385,-0.2154631857,0.101725787725,0.42030593245,-0.3073727511999999,0.0045
08:33:53,-0.4051279,0.82062974,0.93537166,0.14184396,0.42259348,0.0817759,-34.91645088,-43.17066342,0.4819294799999998,122.9509976,0.5698370784000001,0.7248096780000001,-0.2133255596,0.1009383163,0.4199017586,-0.3060512736,0.0045
08:33:53,-0.408921125,0.8194927750000001,0.9429204749999998,0.1406561,0.4221993,0.081392375,-34.93269905,-43.196647075,0.5417413,123.0359035,0.5749639540000001,0.7228919175,-0.2111879335,0.100150844875,0.41949758475,-0.304729796,0.0045
08:33:53,-0.41271435,0.81835581,0.9504692899999998,0.13946824,0.42180512,0.08100885,-34.94894722,-43.22263073,0.6015531200000002,123.1208094,0.5800908296000001,0.7209741570000001,-0.2090503074,0.09936337345,0.4190934108999999,-0.3034083184,0.0045
08:33:53,-0.416507575,0.817218845,0.9580181049999998,0.13828038,0.42141094,0.080625325,-34.96519539,-43.248614385,0.6613649400000003,123.2057153,0.5852177052,0.7190563965000001,-0.2069126813,0.098575902025,0.41868923705,-0.3020868408,0.0045
08:33:53,-0.4203008,0.81608188,0.96556692,0.13709252,0.42101676,0.0802418,-34.98144356,-43.27459804,0.7211767600000005,123.2906212,0.5903445808000001,0.717138636,-0.2047750552,0.0977884306,0.4182850632,-0.3007653632,0.0045
08:33:53,-0.424094025,0.814944915,0.973115735,0.13590466,0.42062258,0.079858275,-34.99769173,-43.300581695,0.7809885800000007,123.3755271,0.5954714564000001,0.7152208755,-0.2026374291,0.097000959175,0.41788088935,-0.2994438856,0.0045
08:33:53,-0.42788725,0.8138079500000001,0.9806645499999996,0.1347168,0.4202284,0.07947475,-35.0139399,-43.32656535,0.8408004000000009,123.460433,0.6005983320000001,0.713303115,-0.200499803,0.09621348775,0.4174767155,-0.298122408,0.0045
08:33:53,-0.431680475,0.812670985,0.9882133649999998,0.13352894,0.41983422,0.079091225,-35.03018807,-43.352549005,0.9006122200000011,123.5453389,0.6057252076000001,0.7113853545000001,-0.1983621769,0.095426016325,0.4170725416499999,-0.2968009304,0.0045
08:33:53,-0.4354737000000001,0.8115340200000001,0.9957621799999998,0.13234108,0.41944004,0.0787077,-35.04643624,-43.37853266,0.9604240400000011,123.6302448,0.6108520832000001,0.709467594,-0.1962245508,0.0946385449,0.4166683678,-0.2954794528,0.0045
08:33:53,-0.439266925,0.810397055,1.003310995,0.13115322,0.41904586,0.078324175,-35.06268441,-43.404516315,1.0202358599999997,123.7151507,0.6159789588000001,0.7075498335000001,-0.1940869247,0.093851073475,0.4162641939499999,-0.2941579752,0.0045
08:33:53,-0.44306015,0.80926009,1.01085981,0.12996536,0.41865168,0.07794065,-35.07893258,-43.43049997,1.0800476799999998,123.8000566,0.6211058344000001,0.7056320730000001,-0.1919492986,0.09306360205,0.4158600201,-0.2928364975999999,0.0045
08:33:53,-0.446853375,0.808123125,1.018408625,0.1287775,0.4182575,0.077557125,-35.09518075,-43.456483625,1.1398595,123.8849625,0.6262327100000001,0.7037143125,-0.1898116725,0.092276130625,0.41545584625,-0.29151502,0.0045
08:33:53,-0.4506466,0.80698616,1.0259574399999998,0.12758964,0.41786332,0.0771736,-35.11142892,-43.48246728,1.1996713200000002,123.9698684,0.6313595856000002,0.701796552,-0.1876740464,0.0914886592,0.4150516723999999,-0.2901935424,0.0045
08:33:53,-0.454439825,0.805849195,1.0335062549999998,0.12640178,0.41746914,0.076790075,-35.12767709,-43.508450935,1.2594831400000004,124.0547743,0.6364864612000001,0.6998787915,-0.1855364203,0.090701187775,0.41464749855,-0.2888720648,0.0045
08:33:53,-0.45823305,0.80471223,1.04105507,0.12521392,0.41707496,0.07640655,-35.14392526,-43.53443459,1.3192949600000006,124.1396802,0.6416133368000001,0.6979610310000001,-0.1833987942,0.08991371635,0.4142433246999999,-0.2875505872,0.0045
08:33:53,-0.462026275,0.803575265,1.048603885,0.12402606,0.41668078,0.076023025,-35.16017343,-43.560418245,1.3791067800000008,124.2245861,0.6467402124000001,0.6960432705,-0.1812611681,0.089126244925,0.41383915085,-0.2862291096,0.0045
08:33:53,-0.4658195,0.8024383,1.0561527,0.1228382,0.4162866,0.0756395,-35.1764216,-43.5864019,1.438918600000001,124.309492,0.6518670880000001,0.6941255100000001,-0.179123542,0.0883387735,0.413434977,-0.284907632,0.0045
08:33:53,-0.469612725,0.801301335,1.0637015149999998,0.12165034,0.41589242,0.075255975,-35.19266977,-43.612385555,1.4987304200000011,124.3943979,0.6569939636000001,0.6922077495000001,-0.1769859159,0.087551302075,0.4130308031499999,-0.2835861544,0.0045
08:33:53,-0.4734059500000001,0.8001643700000001,1.0712503299999998,0.12046248,0.41549824,0.07487245,-35.20891794,-43.63836920999999,1.5585422400000013,124.4793038,0.6621208392000001,0.690289989,-0.1748482898,0.08676383065,0.4126266293,-0.2822646768,0.0045
08:33:53,-0.477199175,0.799027405,1.0787991449999998,0.11927462,0.41510406,0.074488925,-35.22516611,-43.664352865,1.6183540599999997,124.5642097,0.6672477148000001,0.6883722285,-0.1727106637,0.085976359225,0.4122224554499999,-0.2809431992,0.0045
08:33:53,-0.4809924,0.79789044,1.08634796,0.11808676,0.41470988,0.0741054,-35.24141428,-43.69033652,1.67816588,124.6491156,0.6723745904000001,0.686454468,-0.1705730376,0.0851888878,0.4118182816,-0.2796217216,0.0045
08:33:53,-0.484785625,0.796753475,1.093896775,0.1168989,0.4143157,0.073721875,-35.25766245,-43.716320175,1.7379777,124.7340215,0.6775014660000002,0.6845367075000001,-0.1684354115,0.084401416375,0.41141410775,-0.278300244,0.0045
08:33:53,-0.48857885,0.79561651,1.1014455899999998,0.11571104,0.41392152,0.07333835,-35.27391062,-43.74230383,1.7977895200000005,124.8189274,0.6826283416000001,0.682618947,-0.1662977854,0.08361394495,0.4110099338999999,-0.2769787663999999,0.0045
08:33:53,-0.492372075,0.794479545,1.1089944049999998,0.11452318,0.41352734,0.072954825,-35.29015879,-43.768287485,1.8576013400000004,124.9038333,0.6877552172000001,0.6807011865000001,-0.1641601593,0.082826473525,0.41060576005,-0.2756572888,0.0045
08:33:53,-0.4961653,0.79334258,1.1165432199999998,0.11333532,0.41313316,0.0725713,-35.30640696,-43.79427114,1.9174131600000008,124.9887392,0.6928820928000001,0.6787834260000001,-0.1620225332,0.0820390021,0.4102015861999999,-0.2743358112,0.0045
08:33:53,-0.499958525,0.7922056150000001,1.124092035,0.11214746,0.41273898,0.072187775,-35.32265513,-43.820254795,1.9772249800000008,125.0736451,0.6980089684000002,0.6768656655,-0.1598849071,0.081251530675,0.40979741235,-0.2730143336,0.0045
08:33:53,-0.50375175,0.79106865,1.13164085,0.1109596,0.4123448,0.07180425,-35.3389033,-43.84623845,2.037036800000001,125.158551,0.7031358440000001,0.674947905,-0.157747281,0.08046405925,0.4093932385,-0.271692856,0.0045
08:33:53,-0.5075449750000001,0.789931685,1.1391896649999995,0.10977174,0.41195062,0.071420725,-35.35515147,-43.872222105,2.096848620000001,125.2434569,0.7082627196000001,0.6730301445,-0.1556096549,0.079676587825,0.4089890646499999,-0.2703713784,0.0045
08:33:53,-0.5113382,0.7887947200000001,1.1467384799999998,0.10858388,0.41155644,0.0710372,-35.37139964,-43.89820576,2.15666044,125.3283628,0.7133895952000001,0.6711123840000001,-0.1534720288,0.0788891164,0.4085848908,-0.2690499008,0.0045
08:33:53,-0.515131425,0.787657755,1.1542872949999998,0.10739602,0.41116226,0.070653675,-35.38764781,-43.924189415,2.21647226,125.4132687,0.7185164708000001,0.6691946235,-0.1513344027,0.078101644975,0.4081807169499999,-0.2677284232,0.0045
08:33:53,-0.51892465,0.78652079,1.16183611,0.10620816,0.41076808,0.07027015,-35.40389598,-43.95017307,2.27628408,125.4981746,0.7236433464000002,0.6672768630000001,-0.1491967766,0.07731417355,0.4077765431,-0.2664069456,0.0045
08:33:53,-0.522717875,0.785383825,1.169384925,0.1050203,0.4103739,0.069886625,-35.42014415,-43.976156725,2.3360959,125.5830805,0.7287702220000001,0.6653591025000001,-0.1470591505,0.076526702125,0.40737236925,-0.265085468,0.0045
08:33:53,-0.5265111,0.78424686,1.1769337399999995,0.10383244,0.40997972,0.0695031,-35.43639232,-44.00214038,2.3959077200000003,125.6679864,0.7338970976000002,0.663441342,-0.1449215244,0.0757392307,0.4069681953999999,-0.2637639904,0.0045
08:33:53,-0.530304325,0.7831098950000001,1.1844825549999998,0.10264458,0.40958554,0.069119575,-35.45264049,-44.028124035,2.4557195400000005,125.7528923,0.7390239732,0.6615235815,-0.1427838983,0.074951759275,0.40656402155,-0.2624425128,0.0045
08:33:53,-0.53409755,0.78197293,1.1920313699999998,0.10145672,0.40919136,0.06873605,-35.46888866,-44.05410769,2.5155313600000007,125.8377982,0.7441508488,0.659605821,-0.1406462722,0.07416428785,0.4061598476999999,-0.2611210352,0.0045
08:33:53,-0.537890775,0.7808359650000001,1.199580185,0.10026886,0.40879718,0.068352525,-35.48513683,-44.080091345,2.575343180000001,125.9227041,0.7492777244000001,0.6576880605,-0.1385086461,0.073376816425,0.40575567385,-0.2597995576,0.0045
08:33:54,-0.541684,0.779699,1.207129,0.099081,0.408403,0.067969,-35.501385,-44.106075,2.635155,126.00761,0.7544046,0.6557703,-0.13637102,0.072589345,0.4053515,-0.25847808,0.0045
08:33:54,-0.53406085,0.768952225,1.20959648,0.098383195,0.405563845,0.06766005,-35.474236105,-44.125834715,2.645423055,126.04761705,0.7599422514999999,0.646001964,-0.1402828964,0.072083123875,0.4025416000499999,-0.25670410145,0.0045
08:33:54,-0.5264377,0.7582054500000001,1.2120639599999998,0.09768539,0.40272469,0.0673511,-35.44708721,-44.14559443,2.65569111,126.0876241,0.765479903,0.636233628,-0.1441947728,0.07157690275,0.3997317001,-0.2549301229,0.0045
08:33:54,-0.5188145500000001,0.7474586750000001,1.2145314399999998,0.096987585,0.399885535,0.06704215,-35.419938315,-44.165354145,2.6659591650000003,126.12763115,0.7710175545,0.626465292,-0.1481066492,0.0710706816249999,0.39692180015,-0.25315614435,0.0045
08:33:54,-0.5111914000000001,0.7367119,1.21699892,0.09628978,0.39704638,0.0667332,-35.39278942,-44.18511386,2.6762272200000004,126.1676382,0.7765552059999999,0.6166969560000001,-0.1520185256,0.0705644605,0.3941119002,-0.2513821658,0.0045
08:33:54,-0.50356825,0.725965125,1.2194664,0.095591975,0.394207225,0.06642425,-35.365640525,-44.20487357499999,2.686495275,126.20764525,0.7820928575,0.60692862,-0.155930402,0.070058239375,0.3913020002499999,-0.24960818725,0.0045
08:33:54,-0.4959451,0.71521835,1.22193388,0.09489417,0.39136807,0.0661153,-35.33849163,-44.22463329,2.69676333,126.2476523,0.787630509,0.597160284,-0.1598422784,0.06955201825,0.3884921003,-0.2478342087,0.0045
08:33:54,-0.48832195,0.704471575,1.22440136,0.094196365,0.388528915,0.06580635,-35.311342735,-44.244393005,2.707031385,126.28765935,0.7931681604999999,0.587391948,-0.1637541548,0.069045797125,0.38568220035,-0.24606023015,0.0045
08:33:54,-0.4806988,0.6937248,1.2268688399999998,0.09349856,0.38568976,0.0654974,-35.28419384,-44.26415272,2.71729944,126.3276664,0.798705812,0.577623612,-0.1676660312,0.068539576,0.3828723004,-0.2442862516,0.0045
08:33:54,-0.47307565,0.682978025,1.2293363199999998,0.092800755,0.382850605,0.06518845,-35.257044945,-44.283912435,2.727567495,126.36767345,0.8042434635,0.5678552760000001,-0.1715779076,0.068033354875,0.3800624004499999,-0.24251227305,0.0045
08:33:54,-0.4654525,0.6722312500000001,1.2318038,0.09210295,0.38001145,0.0648795,-35.22989605,-44.30367215,2.73783555,126.4076805,0.8097811149999999,0.55808694,-0.175489784,0.06752713375,0.3772525005,-0.2407382945,0.0045
08:33:54,-0.45782935,0.6614844750000001,1.23427128,0.091405145,0.377172295,0.06457055,-35.202747155,-44.323431865,2.7481036050000003,126.44768755,0.8153187665,0.5483186040000001,-0.1794016604,0.067020912625,0.37444260055,-0.23896431595,0.0045
08:33:54,-0.4502062,0.6507377000000001,1.23673876,0.09070734,0.37433314,0.0642616,-35.17559826,-44.34319158,2.7583716600000003,126.4876946,0.820856418,0.538550268,-0.1833135368,0.0665146915,0.3716327006,-0.2371903374,0.0045
08:33:54,-0.44258305,0.639990925,1.23920624,0.090009535,0.371493985,0.06395265,-35.148449365,-44.362951295,2.768639715,126.52770165,0.8263940695,0.528781932,-0.1872254132,0.066008470375,0.3688228006499999,-0.23541635885,0.0045
08:33:54,-0.4349599,0.62924415,1.24167372,0.08931173,0.36865483,0.0636437,-35.12130047,-44.38271101,2.77890777,126.5677087,0.831931721,0.5190135960000001,-0.1911372896,0.06550224925,0.3660129007,-0.2336423803,0.0045
08:33:54,-0.42733675,0.618497375,1.2441411999999998,0.088613925,0.365815675,0.06333475,-35.094151575,-44.402470725,2.789175825,126.60771575,0.8374693725,0.50924526,-0.195049166,0.064996028125,0.36320300075,-0.23186840175,0.0045
08:33:54,-0.4197136,0.6077506,1.2466086799999998,0.08791612,0.36297652,0.0630258,-35.06700268,-44.42223044,2.79944388,126.6477228,0.843007024,0.499476924,-0.1989610424,0.064489807,0.3603931008,-0.2300944232,0.0045
08:33:54,-0.41209045,0.597003825,1.24907616,0.087218315,0.360137365,0.06271685,-35.039853785,-44.441990155,2.809711935,126.68772985,0.8485446755,0.489708588,-0.2028729188,0.063983585875,0.3575832008499999,-0.22832044465,0.0045
08:33:54,-0.4044673000000001,0.5862570500000001,1.25154364,0.08652051,0.35729821,0.0624079,-35.01270489,-44.46174987,2.81997999,126.7277369,0.854082327,0.479940252,-0.2067847952,0.06347736475,0.3547733009,-0.2265464661,0.0045
08:33:54,-0.39684415,0.5755102750000001,1.25401112,0.085822705,0.354459055,0.06209895,-34.985555995,-44.481509585,2.8302480450000003,126.76774395,0.8596199785,0.4701719160000001,-0.2106966716,0.062971143625,0.35196340095,-0.22477248755,0.0045
08:33:54,-0.389221,0.5647635,1.2564786,0.0851249,0.3516199,0.06179,-34.9584071,-44.5012693,2.8405161000000003,126.807751,0.86515763,0.46040358,-0.214608548,0.0624649225,0.349153501,-0.222998509,0.0045
08:33:54,-0.38159785,0.5540167250000001,1.25894608,0.084427095,0.348780745,0.06148105,-34.931258205,-44.521029015,2.850784155,126.84775805,0.8706952815,0.450635244,-0.2185204244,0.061958701375,0.3463436010499999,-0.22122453045,0.0045
08:33:54,-0.3739747,0.54326995,1.2614135599999998,0.08372929,0.34594159,0.0611721,-34.90410931,-44.54078873,2.86105221,126.8877651,0.876232933,0.440866908,-0.2224323008,0.06145248025,0.3435337011,-0.2194505519,0.0045
08:33:54,-0.3663515500000001,0.532523175,1.26388104,0.083031485,0.343102435,0.06086315,-34.876960415,-44.560548445,2.871320265,126.92777215,0.8817705845,0.431098572,-0.2263441772,0.060946259125,0.34072380115,-0.21767657335,0.0045
08:33:54,-0.3587284,0.5217764,1.26634852,0.08233368,0.34026328,0.0605542,-34.84981152,-44.58030816,2.88158832,126.9677792,0.887308236,0.4213302360000001,-0.2302560536,0.060440038,0.3379139012,-0.2159025948,0.0045
08:33:54,-0.35110525,0.511029625,1.268816,0.081635875,0.337424125,0.06024525,-34.822662625,-44.60006787499999,2.891856375,127.00778625,0.8928458875,0.4115619,-0.23416793,0.059933816875,0.3351040012499999,-0.21412861625,0.0045
08:33:54,-0.3434821,0.5002828500000001,1.27128348,0.08093807,0.33458497,0.0599363,-34.79551373,-44.61982759,2.90212443,127.0477933,0.898383539,0.401793564,-0.2380798064,0.05942759575,0.3322941013,-0.2123546377,0.0045
08:33:54,-0.33585895,0.489536075,1.27375096,0.080240265,0.331745815,0.05962735,-34.768364835,-44.639587305,2.9123924850000003,127.08780035,0.9039211905,0.392025228,-0.2419916828,0.058921374625,0.32948420135,-0.21058065915,0.0045
08:33:54,-0.3282358000000001,0.4787893,1.2762184399999998,0.07954246,0.32890666,0.0593184,-34.74121594,-44.65934702,2.9226605400000003,127.1278074,0.909458842,0.382256892,-0.2459035592,0.0584151535,0.3266743014,-0.2088066806,0.0045
08:33:54,-0.32061265,0.468042525,1.27868592,0.078844655,0.326067505,0.05900945,-34.714067045,-44.679106735,2.932928595,127.16781445,0.9149964935,0.3724885560000001,-0.2498154356,0.057908932375,0.3238644014499999,-0.20703270205,0.0045
08:33:54,-0.3129895,0.45729575,1.2811534,0.07814685,0.32322835,0.0587005,-34.68691815,-44.69886645,2.94319665,127.2078215,0.920534145,0.36272022,-0.253727312,0.05740271125,0.3210545015,-0.2052587235,0.0045
08:33:54,-0.30536635,0.446548975,1.28362088,0.077449045,0.320389195,0.05839155,-34.659769255,-44.718626165,2.953464705,127.24782855,0.9260717965,0.352951884,-0.2576391884,0.056896490125,0.31824460155,-0.20348474495,0.0045
08:33:54,-0.2977432,0.4358022,1.28608836,0.07675124,0.31755004,0.0580826,-34.63262036,-44.73838588,2.96373276,127.2878356,0.931609448,0.343183548,-0.2615510648,0.056390269,0.3154347016,-0.2017107664,0.0045
08:33:54,-0.29012005,0.425055425,1.28855584,0.076053435,0.314710885,0.05777365,-34.605471465,-44.758145595,2.974000815,127.32784265,0.9371470995,0.333415212,-0.2654629412,0.0558840478749999,0.3126248016499999,-0.19993678785,0.0045
08:33:54,-0.2824969,0.41430865,1.29102332,0.07535563,0.31187173,0.0574647,-34.57832257,-44.77790531,2.98426887,127.3678497,0.942684751,0.3236468760000001,-0.2693748176,0.05537782675,0.3098149017,-0.1981628093,0.0045
08:33:54,-0.27487375,0.403561875,1.2934907999999998,0.074657825,0.309032575,0.05715575,-34.551173675,-44.797665025,2.994536925,127.40785675,0.9482224025,0.31387854,-0.273286694,0.054871605625,0.30700500175,-0.19638883075,0.0045
08:33:54,-0.2672506,0.3928151,1.29595828,0.07396002,0.30619342,0.0568468,-34.52402478,-44.81742474,3.0048049800000003,127.4478638,0.953760054,0.304110204,-0.2771985704,0.0543653845,0.3041951018,-0.1946148522,0.0045
08:33:54,-0.25962745,0.382068325,1.29842576,0.073262215,0.303354265,0.05653785,-34.496875885,-44.837184455,3.0150730350000003,127.48787085,0.9592977055,0.294341868,-0.2811104468,0.053859163375,0.3013852018499999,-0.19284087365,0.0045
08:33:54,-0.2520043,0.37132155,1.30089324,0.07256441,0.30051511,0.0562289,-34.46972699,-44.85694417,3.02534109,127.5278779,0.964835357,0.2845735320000001,-0.2850223232,0.05335294225,0.2985753019,-0.1910668951,0.0045
08:33:54,-0.24438115,0.360574775,1.30336072,0.071866605,0.297675955,0.05591995,-34.442578095,-44.876703885,3.035609145,127.56788495,0.9703730085,0.2748051960000001,-0.2889341996,0.0528467211249999,0.29576540195,-0.18929291655,0.0045
08:33:54,-0.236758,0.349828,1.3058282,0.0711688,0.2948368,0.055611,-34.4154292,-44.8964636,3.0458772,127.607892,0.97591066,0.26503686,-0.292846076,0.0523405,0.292955502,-0.187518938,0.0045
08:33:54,-0.22913485,0.339081225,1.3082956799999998,0.070470995,0.291997645,0.05530205,-34.388280305,-44.916223315,3.056145255,127.64789905,0.9814483115,0.255268524,-0.2967579524,0.051834278875,0.2901456020499999,-0.18574495945,0.0045
08:33:54,-0.2215117,0.32833445,1.31076316,0.06977319,0.28915849,0.0549931,-34.36113141,-44.93598303,3.06641331,127.6879061,0.986985963,0.245500188,-0.3006698288,0.05132805775,0.2873357021,-0.1839709809,0.0045
08:33:54,-0.21388855,0.317587675,1.31323064,0.069075385,0.286319335,0.05468415,-34.333982515,-44.955742745,3.076681365,127.72791315,0.9925236145,0.235731852,-0.3045817052,0.050821836625,0.28452580215,-0.18219700235,0.0045
08:33:54,-0.2062654,0.3068409,1.31569812,0.06837758,0.28348018,0.0543752,-34.30683362,-44.97550246,3.0869494200000003,127.7679202,0.998061266,0.2259635160000001,-0.3084935816,0.0503156155,0.2817159022,-0.1804230238,0.0045
08:33:54,-0.19864225,0.296094125,1.3181656,0.067679775,0.280641025,0.05406625,-34.279684725,-44.99526217499999,3.097217475,127.80792725,1.0035989175,0.2161951800000001,-0.312405458,0.0498093943749999,0.2789060022499999,-0.17864904525,0.0045
08:33:54,-0.1910191,0.28534735,1.32063308,0.06698197,0.27780187,0.0537573,-34.25253583,-45.01502189,3.10748553,127.8479343,1.009136569,0.206426844,-0.3163173344,0.04930317325,0.2760961023,-0.1768750667,0.0045
08:33:54,-0.18339595,0.274600575,1.32310056,0.066284165,0.274962715,0.05344835,-34.225386935,-45.034781605,3.117753585,127.88794135,1.0146742205,0.196658508,-0.3202292108,0.048796952125,0.27328620235,-0.17510108815,0.0045
08:33:54,-0.1757728,0.2638538,1.3255680399999998,0.06558636,0.27212356,0.0531394,-34.19823804,-45.05454132,3.12802164,127.9279484,1.020211872,0.186890172,-0.3241410872,0.048290731,0.2704763024,-0.1733271096,0.0045
08:33:54,-0.16814965,0.253107025,1.32803552,0.064888555,0.269284405,0.05283045,-34.171089145,-45.074301035,3.138289695,127.96795545,1.0257495235,0.1771218360000001,-0.3280529636,0.047784509875,0.2676664024499999,-0.17155313105,0.0045
08:33:54,-0.1605265,0.24236025,1.330503,0.06419075,0.26644525,0.0525215,-34.14394025,-45.09406075,3.14855775,128.0079625,1.031287175,0.1673535000000001,-0.33196484,0.04727828875,0.2648565025,-0.1697791525,0.0045
08:33:54,-0.15290335,0.231613475,1.33297048,0.063492945,0.263606095,0.0522125499999999,-34.116791355,-45.113820465,3.158825805,128.04796955,1.0368248265,0.157585164,-0.3358767164,0.046772067625,0.26204660255,-0.16800517395,0.0045
08:33:54,-0.1452802,0.2208667,1.33543796,0.06279514,0.26076694,0.0519036,-34.08964246,-45.13358018,3.1690938600000003,128.0879766,1.042362478,0.147816828,-0.3397885928,0.0462658465,0.2592367026,-0.1662311954,0.0045
08:33:54,-0.13765705,0.2101199249999999,1.33790544,0.062097335,0.257927785,0.05159465,-34.062493565,-45.153339895,3.1793619150000003,128.12798365,1.0479001295,0.1380484920000001,-0.3437004692,0.045759625375,0.2564268026499999,-0.16445721685,0.0045
08:33:54,-0.1300339,0.19937315,1.34037292,0.06139953,0.25508863,0.0512857,-34.03534467,-45.17309961,3.1896299700000004,128.1679907,1.053437781,0.1282801560000001,-0.3476123456,0.04525340425,0.2536169027,-0.1626832382999999,0.0045
08:33:54,-0.12241075,0.188626375,1.3428404,0.060701725,0.252249475,0.05097675,-34.008195775,-45.192859325,3.199898025,128.20799775,1.0589754325,0.11851182,-0.351524222,0.044747183125,0.25080700275,-0.1609092597499999,0.0045
08:33:54,-0.1147876,0.1778796,1.34530788,0.06000392,0.24941032,0.0506678,-33.98104688,-45.21261904,3.21016608,128.2480048,1.064513084,0.1087434840000001,-0.3554360984,0.044240962,0.2479971027999999,-0.1591352811999999,0.0045
08:33:54,-0.10716445,0.167132825,1.34777536,0.059306115,0.246571165,0.05035885,-33.953897985,-45.232378755,3.220434135,128.28801185,1.0700507355,0.098975148,-0.3593479748,0.043734740875,0.2451872028499999,-0.1573613026499999,0.0045
08:33:54,-0.0995413,0.15638605,1.35024284,0.05860831,0.24373201,0.0500499,-33.92674909,-45.25213847,3.23070219,128.3280189,1.075588387,0.0892068120000001,-0.3632598512,0.04322851975,0.2423773028999999,-0.1555873240999999,0.0045
08:33:54,-0.09191815,0.145639275,1.35271032,0.057910505,0.240892855,0.04974095,-33.899600195,-45.271898185,3.240970245,128.36802595,1.0811260385,0.079438476,-0.3671717276,0.042722298625,0.2395674029499999,-0.1538133455499999,0.0045
08:33:54,-0.084295,0.1348924999999999,1.3551778,0.0572127,0.2380537,0.049432,-33.8724513,-45.2916579,3.2512383,128.408033,1.08666369,0.06967014,-0.371083604,0.0422160775,0.2367575029999999,-0.1520393669999999,0.0045
08:33:54,-0.07667185,0.1241457249999999,1.3576452799999998,0.056514895,0.235214545,0.04912305,-33.845302405,-45.311417615,3.261506355,128.44804005,1.0922013415,0.0599018040000001,-0.3749954804,0.041709856375,0.2339476030499999,-0.1502653884499999,0.0045
08:33:54,-0.0690487,0.11339895,1.36011276,0.05581709,0.23237539,0.0488141,-33.81815351,-45.33117733,3.27177441,128.4880471,1.097738993,0.050133468,-0.3789073568,0.04120363525,0.2311377030999999,-0.1484914098999999,0.0045
08:33:54,-0.06142555,0.102652175,1.36258024,0.055119285,0.229536235,0.04850515,-33.791004615,-45.350937045,3.282042465,128.52805415,1.1032766445,0.0403651320000001,-0.3828192332,0.040697414125,0.2283278031499999,-0.1467174313499999,0.0045
08:33:54,-0.0538024,0.0919054,1.36504772,0.05442148,0.22669708,0.0481962,-33.76385572,-45.37069676,3.29231052,128.5680612,1.108814296,0.030596796,-0.3867311096,0.040191193,0.2255179031999999,-0.1449434527999999,0.0045
08:33:54,-0.04617925,0.081158625,1.3675152,0.053723675,0.223857925,0.04788725,-33.736706825,-45.39045647499999,3.302578575,128.60806825,1.1143519475,0.02082846,-0.390642986,0.039684971875,0.2227080032499999,-0.1431694742499999,0.0045
08:33:54,-0.0385560999999999,0.07041185,1.36998268,0.05302587,0.22101877,0.0475783,-33.70955793,-45.41021619,3.31284663,128.6480753,1.119889599,0.0110601240000001,-0.3945548624,0.03917875075,0.2198981032999999,-0.1413954956999999,0.0045
08:33:54,-0.03093295,0.059665075,1.37245016,0.052328065,0.218179615,0.04726935,-33.682409035,-45.429975905,3.323114685,128.68808235,1.1254272505,0.001291788,-0.3984667388,0.038672529625,0.2170882033499999,-0.1396215171499999,0.0045
08:33:54,-0.0233098,0.0489183,1.37491764,0.05163026,0.21534046,0.0469604,-33.65526014,-45.44973562,3.33338274,128.7280894,1.130964902,-0.0084765479999998,-0.4023786152,0.0381663085,0.2142783033999999,-0.1378475385999999,0.0045
08:33:54,-0.01568665,0.0381715249999999,1.37738512,0.050932455,0.212501305,0.04665145,-33.628111245,-45.469495335,3.3436507950000003,128.76809645,1.1365025535,-0.0182448839999999,-0.4062904916,0.037660087375,0.2114684034499999,-0.13607356005,0.0045
08:33:54,-0.0080635,0.0274247499999999,1.3798526,0.05023465,0.20966215,0.0463425,-33.60096235,-45.48925505,3.3539188500000003,128.8081035,1.142040205,-0.0280132199999999,-0.410202368,0.03715386625,0.2086585034999999,-0.1342995815,0.0045
08:33:54,-0.0004403499999999,0.016677975,1.38232008,0.049536845,0.206822995,0.04603355,-33.573813455,-45.509014765,3.3641869050000004,128.84811055,1.1475778565,-0.0377815559999998,-0.4141142444,0.036647645125,0.2058486035499999,-0.13252560295,0.0045
08:33:54,0.0071827999999999,0.0059312,1.38478756,0.04883904,0.20398384,0.0457246,-33.54666456,-45.52877448,3.37445496,128.8881176,1.153115508,-0.0475498919999999,-0.4180261208,0.036141424,0.2030387035999999,-0.1307516244,0.0045
08:33:54,0.0148059499999999,-0.0048155749999999,1.38725504,0.048141235,0.201144685,0.04541565,-33.519515665,-45.548534195,3.384723015,128.92812465,1.1586531595,-0.0573182279999998,-0.4219379972,0.035635202875,0.2002288036499999,-0.12897764585,0.0045
08:33:54,0.0224290999999999,-0.0155623499999999,1.38972252,0.04744343,0.19830553,0.0451067,-33.49236677,-45.56829391,3.39499107,128.9681317,1.164190811,-0.0670865639999999,-0.4258498736,0.03512898175,0.1974189036999999,-0.1272036673,0.0045
08:33:54,0.03005225,-0.0263091249999999,1.39219,0.046745625,0.195466375,0.04479775,-33.465217875,-45.588053625,3.405259125,129.00813875,1.1697284625000002,-0.0768548999999999,-0.42976175,0.034622760625,0.1946090037499999,-0.12542968875,0.0045
08:33:54,0.0376754,-0.0370559,1.39465748,0.04604782,0.19262722,0.0444888,-33.43806898,-45.60781334,3.41552718,129.0481458,1.175266114,-0.0866232359999998,-0.4336736264,0.0341165395,0.1917991037999999,-0.1236557101999999,0.0045
08:33:54,0.0452985499999999,-0.047802675,1.39712496,0.045350015,0.189788065,0.04417985,-33.410920085,-45.627573055,3.4257952350000003,129.08815285,1.1808037655,-0.0963915719999999,-0.4375855028,0.033610318375,0.1889892038499999,-0.1218817316499999,0.0045
08:33:54,0.0529216999999999,-0.05854945,1.39959244,0.04465221,0.18694891,0.0438709,-33.38377119,-45.64733277,3.43606329,129.1281599,1.186341417,-0.1061599079999998,-0.4414973792,0.03310409725,0.1861793038999999,-0.1201077530999999,0.0045
08:33:54,0.0605448499999999,-0.0692962249999999,1.40205992,0.043954405,0.184109755,0.04356195,-33.356622295,-45.667092485,3.446331345,129.16816695,1.1918790685,-0.1159282439999999,-0.4454092556,0.032597876125,0.1833694039499999,-0.1183337745499999,0.0045
08:33:54,0.068168,-0.0800429999999999,1.4045274,0.0432566,0.1812706,0.043253,-33.3294734,-45.6868522,3.4565994,129.208174,1.19741672,-0.1256965799999999,-0.449321132,0.032091655,0.1805595039999999,-0.116559796,0.0045
08:33:54,0.07579115,-0.0907897749999999,1.40699488,0.042558795,0.178431445,0.04294405,-33.302324505,-45.706611915,3.466867455,129.24818105,1.2029543715000002,-0.1354649159999998,-0.4532330084,0.031585433875,0.1777496040499999,-0.11478581745,0.0045
08:33:54,0.0834142999999999,-0.1015365499999999,1.40946236,0.04186099,0.17559229,0.0426351,-33.27517561,-45.72637163,3.47713551,129.2881881,1.208492023,-0.1452332519999999,-0.4571448848,0.03107921275,0.1749397040999999,-0.1130118389,0.0045
08:33:54,0.0910374499999999,-0.1122833249999999,1.41192984,0.041163185,0.172753135,0.04232615,-33.248026715,-45.746131345,3.487403565,129.32819515,1.2140296745,-0.1550015879999998,-0.4610567612,0.0305729916249999,0.1721298041499999,-0.11123786035,0.0045
08:33:54,0.0986605999999999,-0.1230300999999999,1.41439732,0.04046538,0.16991398,0.0420172,-33.22087782,-45.76589106,3.49767162,129.36820219999998,1.219567326,-0.1647699239999999,-0.4649686376,0.0300667705,0.1693199041999999,-0.1094638818,0.0045
08:33:54,0.10628375,-0.133776875,1.4168648,0.039767575,0.167074825,0.04170825,-33.193728925,-45.78565077499999,3.5079396750000003,129.40820925,1.2251049775,-0.1745382599999998,-0.468880514,0.029560549375,0.1665100042499999,-0.10768990325,0.0045
08:33:54,0.1139069,-0.14452365,1.41933228,0.03906977,0.16423567,0.0413993,-33.16658003,-45.80541049,3.5182077300000003,129.44821629999998,1.230642629,-0.1843065959999998,-0.4727923904,0.0290543282499999,0.1637001042999999,-0.1059159247,0.0045
08:33:54,0.1215300499999999,-0.155270425,1.42179976,0.038371965,0.161396515,0.04109035,-33.139431135,-45.825170205,3.5284757850000004,129.48822335,1.2361802805000002,-0.1940749319999999,-0.4767042668,0.028548107125,0.1608902043499999,-0.10414194615,0.0045
08:33:54,0.1291531999999999,-0.1660171999999999,1.42426724,0.03767416,0.15855736,0.0407814,-33.11228224,-45.84492992,3.53874384,129.52823039999998,1.241717932,-0.2038432679999998,-0.4806161432,0.028041886,0.1580803043999999,-0.1023679676,0.0045
08:33:54,0.13677635,-0.1767639749999999,1.42673472,0.036976355,0.155718205,0.04047245,-33.085133345,-45.864689635,3.549011895,129.56823745,1.2472555835,-0.2136116039999999,-0.4845280196,0.0275356648749999,0.1552704044499999,-0.10059398905,0.0045
08:33:54,0.1443995,-0.1875107499999999,1.4292022,0.03627855,0.15287905,0.0401635,-33.05798445,-45.88444935,3.55927995,129.60824449999998,1.252793235,-0.2233799399999998,-0.488439896,0.02702944375,0.1524605044999999,-0.0988200105,0.0045
08:33:54,0.15202265,-0.1982575249999999,1.43166968,0.035580745,0.150039895,0.03985455,-33.030835555,-45.904209065,3.569548005,129.64825155,1.2583308865,-0.2331482759999998,-0.4923517724,0.026523222625,0.14965060455,-0.09704603195,0.0045
08:33:54,0.1596457999999999,-0.2090043,1.43413716,0.03488294,0.14720074,0.0395456,-33.00368666,-45.92396878,3.57981606,129.68825859999998,1.263868538,-0.2429166119999999,-0.4962636488,0.0260170014999999,0.1468407045999999,-0.0952720534,0.0045
08:33:54,0.1672689499999999,-0.219751075,1.43660464,0.034185135,0.144361585,0.03923665,-32.976537765,-45.943728495,3.590084115,129.72826565,1.2694061895000002,-0.2526849479999998,-0.5001755252,0.025510780375,0.1440308046499999,-0.09349807485,0.0045
08:33:54,0.1748921,-0.23049785,1.43907212,0.03348733,0.14152243,0.0389277,-32.94938887,-45.96348821,3.60035217,129.76827269999998,1.274943841,-0.2624532839999999,-0.5040874016,0.02500455925,0.1412209046999999,-0.0917240963,0.0045
08:33:54,0.18251525,-0.2412446249999998,1.4415396,0.032789525,0.138683275,0.03861875,-32.922239975,-45.983247925,3.610620225,129.80827975,1.2804814925,-0.2722216199999998,-0.507999278,0.0244983381249999,0.13841100475,-0.08995011775,0.0045
08:33:54,0.1901383999999999,-0.2519914,1.44400708,0.03209172,0.13584412,0.0383098,-32.89509108,-46.00300764,3.62088828,129.84828679999998,1.286019144,-0.2819899559999999,-0.5119111544,0.023992117,0.1356011047999999,-0.0881761392,0.0045
08:33:54,0.1977615499999999,-0.2627381750000001,1.44647456,0.031393915,0.133004965,0.03800085,-32.867942185,-46.022767355,3.631156335,129.88829385,1.2915567955,-0.2917582919999999,-0.5158230308,0.023485895875,0.1327912048499999,-0.08640216065,0.0045
08:33:54,0.2053846999999999,-0.2734849499999999,1.44894204,0.03069611,0.13016581,0.0376919,-32.84079329,-46.04252707,3.64142439,129.92830089999998,1.297094447,-0.3015266279999998,-0.5197349072,0.0229796747499999,0.1299813048999999,-0.0846281821,0.0045
08:33:54,0.21300785,-0.284231725,1.45140952,0.029998305,0.127326655,0.03738295,-32.813644395,-46.062286785,3.651692445,129.96830795,1.3026320985000002,-0.3112949639999999,-0.5236467836,0.022473453625,0.12717140495,-0.08285420355,0.0045
08:33:54,0.220631,-0.2949784999999999,1.453877,0.0293005,0.1244875,0.037074,-32.7864955,-46.0820465,3.6619605,130.00831499999998,1.30816975,-0.3210632999999998,-0.52755866,0.0219672325,0.1243615049999999,-0.081080225,0.0045
08:33:54,0.2282541499999999,-0.305725275,1.45634448,0.028602695,0.121648345,0.03676505,-32.759346605,-46.101806215,3.672228555,130.04832205,1.3137074015,-0.3308316359999999,-0.5314705364000001,0.021461011375,0.1215516050499999,-0.07930624645,0.0045
08:33:54,0.2358772999999999,-0.3164720499999999,1.45881196,0.02790489,0.11880919,0.0364561,-32.73219771,-46.12156593,3.68249661,130.0883291,1.319245053,-0.3405999719999999,-0.5353824128,0.02095479025,0.1187417050999999,-0.0775322679,0.0045
08:33:54,0.2435004499999999,-0.327218825,1.46127944,0.027207085,0.115970035,0.03614715,-32.705048815,-46.141325645,3.692764665,130.12833615,1.3247827045,-0.3503683079999998,-0.5392942892,0.020448569125,0.11593180515,-0.07575828935,0.0045
