Timestamp,linacce_x,linacce_y,linacce_z,gyro_x,gyro_y,gyro_z,X-magnetometer,Y-magnetometer,Z-magnetometer,Yaw, worldXAccel,worldYAccel,worldZAccel,worldXgyro,worldYgyro,worldZgyro,Distance
03:45:53,0.002734,-1.199242,-0.421606,0.26385,-0.093433,0.017658,-4.716797,31.692566,-29.77314,6.8912816,-0.20601562,-1.1960648,-0.23690227,0.23597853,-0.0903938,-0.11115681,0.0045
03:45:53,-0.0078919399999999,-1.18555612,-0.426179645,0.2648727349999999,-0.0943492,0.01648612,-4.73561467,31.69728133,-29.77363507,6.980381577,-0.2188351469,-1.183843261,-0.23456879805,0.23606125475,-0.09036627615,-0.1125644131,0.0045
03:45:53,-0.0185178799999999,-1.1718702399999998,-0.4307532899999999,0.2658954699999999,-0.0952654,0.01531424,-4.754432339999999,31.70199666,-29.77413014,7.069481554,-0.2316546738,-1.171621722,-0.2322353261,0.2361439795,-0.0903387522999999,-0.1139720162,0.0045
03:45:53,-0.0291438199999999,-1.15818436,-0.4353269349999999,0.2669182049999999,-0.0961816,0.01414236,-4.77325001,31.70671199,-29.77462521,7.158581531,-0.2444742007,-1.159400183,-0.22990185415,0.23622670425,-0.09031122845,-0.1153796193,0.0045
03:45:53,-0.0397697599999999,-1.14449848,-0.43990058,0.2679409399999999,-0.0970978,0.01297048,-4.79206768,31.71142732,-29.775120280000003,7.247681508,-0.2572937276,-1.147178644,-0.2275683822,0.236309429,-0.0902837046,-0.1167872224,0.0045
03:45:53,-0.0503956999999999,-1.1308125999999998,-0.444474225,0.2689636749999999,-0.098014,0.0117986,-4.81088535,31.71614265,-29.77561535,7.336781485,-0.2701132545,-1.134957105,-0.22523491025,0.23639215375,-0.09025618075,-0.1181948254999999,0.0045
03:45:53,-0.0610216399999999,-1.11712672,-0.4490478699999999,0.2699864099999999,-0.0989302,0.01062672,-4.829703019999999,31.72085798,-29.77611042,7.425881462,-0.2829327814,-1.122735566,-0.2229014383,0.2364748784999999,-0.0902286569,-0.1196024285999999,0.0045
03:45:53,-0.0716475799999999,-1.10344084,-0.453621515,0.2710091449999999,-0.0998464,0.00945484,-4.84852069,31.72557331,-29.77660549,7.514981439,-0.2957523083,-1.110514027,-0.22056796635,0.23655760325,-0.0902011330499999,-0.1210100316999999,0.0045
03:45:53,-0.0822735199999999,-1.0897549599999998,-0.45819516,0.2720318799999999,-0.1007626,0.00828296,-4.86733836,31.73028864,-29.77710056,7.604081416,-0.3085718352,-1.098292488,-0.2182344944,0.2366403279999999,-0.0901736091999999,-0.1224176348,0.0045
03:45:53,-0.0928994599999999,-1.07606908,-0.462768805,0.273054615,-0.1016788,0.00711108,-4.88615603,31.73500397,-29.77759563,7.693181393,-0.3213913621,-1.086070949,-0.21590102245,0.23672305275,-0.09014608535,-0.1238252379,0.0045
03:45:53,-0.1035253999999999,-1.0623832,-0.4673424499999999,0.27407735,-0.102595,0.0059392,-4.904973699999999,31.7397193,-29.7780907,7.78228137,-0.334210889,-1.07384941,-0.2135675504999999,0.2368057774999999,-0.0901185615,-0.1252328409999999,0.0045
03:45:53,-0.1141513399999999,-1.04869732,-0.471916095,0.275100085,-0.1035112,0.00476732,-4.92379137,31.74443463,-29.778585770000003,7.871381347,-0.3470304159,-1.061627871,-0.2112340785499999,0.23688850225,-0.09009103765,-0.1266404441,0.0045
03:45:53,-0.1247772799999999,-1.03501144,-0.47648974,0.27612282,-0.1044274,0.00359544,-4.94260904,31.74914996,-29.77908084,7.960481324,-0.3598499428,-1.049406332,-0.2089006065999999,0.236971227,-0.0900635138,-0.1280480472,0.0045
03:45:53,-0.13540322,-1.02132556,-0.481063385,0.277145555,-0.1053436,0.00242356,-4.96142671,31.75386529,-29.77957591,8.049581301,-0.3726694697,-1.037184793,-0.2065671346499999,0.23705395175,-0.0900359899499999,-0.1294556503,0.0045
03:45:53,-0.14602916,-1.00763968,-0.4856370299999999,0.27816829,-0.1062598,0.00125168,-4.980244379999999,31.75858062,-29.78007098,8.138681278,-0.3854889966,-1.024963254,-0.2042336626999999,0.2371366765,-0.0900084661,-0.1308632534,0.0045
03:45:53,-0.1566551,-0.9939538,-0.490210675,0.279191025,-0.107176,7.98000000000014e-05,-4.99906205,31.76329595,-29.78056605,8.227781255,-0.3983085235,-1.012741715,-0.2019001907499999,0.23721940125,-0.08998094225,-0.1322708564999999,0.0045
03:45:53,-0.16728104,-0.98026792,-0.49478432,0.28021376,-0.1080922,-0.0010920799999999,-5.01787972,31.76801128,-29.78106112,8.316881232,-0.4111280504,-1.000520176,-0.1995667188,0.237302126,-0.0899534184,-0.1336784596,0.0045
03:45:53,-0.17790698,-0.96658204,-0.4993579649999999,0.281236495,-0.1090084,-0.0022639599999999,-5.03669739,31.77272661,-29.78155619,8.405981209,-0.4239475773,-0.988298637,-0.19723324685,0.23738485075,-0.08992589455,-0.1350860627,0.0045
03:45:53,-0.18853292,-0.95289616,-0.50393161,0.2822592299999999,-0.1099246,-0.0034358399999999,-5.055515059999999,31.77744194,-29.782051260000003,8.495081186,-0.4367671042,-0.976077098,-0.1948997749,0.2374675755,-0.0898983707,-0.1364936658,0.0045
03:45:53,-0.19915886,-0.93921028,-0.508505255,0.2832819649999999,-0.1108408,-0.0046077199999999,-5.07433273,31.78215727,-29.78254633,8.584181163,-0.4495866310999999,-0.963855559,-0.19256630295,0.2375503002499999,-0.0898708468499999,-0.1379012688999999,0.0045
03:45:53,-0.2097848,-0.9255244,-0.5130789,0.2843046999999999,-0.111757,-0.0057795999999999,-5.0931504,31.7868726,-29.7830414,8.67328114,-0.462406158,-0.95163402,-0.190232831,0.237633025,-0.089843323,-0.139308872,0.0045
03:45:53,-0.22041074,-0.91183852,-0.517652545,0.2853274349999999,-0.1126732,-0.0069514799999999,-5.11196807,31.79158793,-29.78353647,8.762381117,-0.4752256849,-0.939412481,-0.18789935905,0.2377157497499999,-0.08981579915,-0.1407164751,0.0045
03:45:53,-0.23103668,-0.89815264,-0.52222619,0.2863501699999999,-0.1135894,-0.00812336,-5.130785739999999,31.79630326,-29.78403154,8.851481094,-0.4880452118,-0.927190942,-0.1855658871,0.2377984745,-0.0897882753,-0.1421240782,0.0045
03:45:53,-0.24166262,-0.88446676,-0.526799835,0.2873729049999999,-0.1145056,-0.00929524,-5.149603409999999,31.80101859,-29.78452661,8.940581071,-0.5008647387,-0.914969403,-0.18323241515,0.23788119925,-0.08976075145,-0.1435316813,0.0045
03:45:53,-0.2522885599999999,-0.8707808799999999,-0.53137348,0.2883956399999999,-0.1154218,-0.0104671199999999,-5.16842108,31.80573392,-29.78502168,9.029681048,-0.5136842656,-0.902747864,-0.1808989432,0.237963924,-0.0897332275999999,-0.1449392843999999,0.0045
03:45:53,-0.2629144999999999,-0.8570949999999999,-0.535947125,0.2894183749999999,-0.116338,-0.0116389999999999,-5.18723875,31.81044925,-29.785516750000003,9.118781025,-0.5265037925,-0.8905263250000001,-0.17856547125,0.23804664875,-0.08970570375,-0.1463468875,0.0045
03:45:53,-0.2735404399999999,-0.84340912,-0.54052077,0.2904411099999999,-0.1172542,-0.0128108799999999,-5.20605642,31.81516458,-29.78601182,9.207881002,-0.5393233194,-0.8783047860000001,-0.1762319993,0.2381293735,-0.0896781799,-0.1477544906,0.0045
03:45:53,-0.2841663799999999,-0.8297232399999999,-0.545094415,0.291463845,-0.1181704,-0.0139827599999999,-5.224874089999999,31.81987991,-29.78650689,9.296980979,-0.5521428463,-0.8660832470000002,-0.17389852735,0.23821209825,-0.08965065605,-0.1491620937,0.0045
03:45:53,-0.2947923199999999,-0.8160373599999999,-0.54966806,0.29248658,-0.1190866,-0.0151546399999999,-5.24369176,31.82459524,-29.78700196,9.386080956,-0.5649623732,-0.8538617080000002,-0.1715650554,0.238294823,-0.0896231322,-0.1505696967999999,0.0045
03:45:53,-0.3054182599999999,-0.80235148,-0.554241705,0.293509315,-0.1200028,-0.0163265199999999,-5.26250943,31.82931057,-29.78749703,9.475180933,-0.5777819001,-0.8416401690000002,-0.16923158345,0.23837754775,-0.08959560835,-0.1519772999,0.0045
03:45:53,-0.3160441999999999,-0.7886656,-0.5588153499999999,0.29453205,-0.120919,-0.0174983999999999,-5.2813271,31.8340259,-29.7879921,9.56428091,-0.590601427,-0.8294186300000002,-0.1668981115,0.2384602725,-0.0895680844999999,-0.153384903,0.0045
03:45:53,-0.3266701399999999,-0.7749797199999999,-0.563388995,0.295554785,-0.1218352,-0.0186702799999999,-5.300144769999999,31.83874123,-29.78848717,9.653380887,-0.6034209539,-0.8171970910000002,-0.16456463955,0.23854299725,-0.08954056065,-0.1547925061,0.0045
03:45:53,-0.3372960799999999,-0.76129384,-0.56796264,0.29657752,-0.1227514,-0.0198421599999999,-5.31896244,31.84345656,-29.78898224,9.742480864,-0.6162404807999999,-0.8049755520000001,-0.1622311676,0.2386257219999999,-0.0895130368,-0.1562001092,0.0045
03:45:53,-0.3479220199999999,-0.74760796,-0.572536285,0.297600255,-0.1236676,-0.0210140399999999,-5.33778011,31.84817189,-29.78947731,9.831580841,-0.6290600076999999,-0.7927540130000001,-0.15989769565,0.23870844675,-0.08948551295,-0.1576077122999999,0.0045
03:45:53,-0.3585479599999999,-0.7339220799999999,-0.57710993,0.29862299,-0.1245838,-0.0221859199999999,-5.35659778,31.85288722,-29.78997238,9.920680818,-0.6418795345999999,-0.7805324740000001,-0.1575642237,0.2387911715,-0.0894579891,-0.1590153154,0.0045
03:45:53,-0.3691738999999999,-0.7202362,-0.581683575,0.299645725,-0.1255,-0.0233577999999999,-5.375415449999999,31.85760255,-29.79046745,10.009780795,-0.6546990615,-0.7683109350000001,-0.15523075175,0.23887389625,-0.08943046525,-0.1604229184999999,0.0045
03:45:53,-0.3797998399999999,-0.70655032,-0.58625722,0.3006684599999999,-0.1264162,-0.0245296799999999,-5.39423312,31.86231788,-29.79096252,10.098880772,-0.6675185884,-0.7560893960000001,-0.1528972798,0.238956621,-0.0894029413999999,-0.1618305216,0.0045
03:45:53,-0.3904257799999999,-0.6928644399999999,-0.590830865,0.3016911949999999,-0.1273324,-0.02570156,-5.41305079,31.86703321,-29.79145759,10.187980749,-0.6803381153,-0.7438678570000001,-0.15056380785,0.23903934575,-0.08937541755,-0.1632381247,0.0045
03:45:53,-0.4010517199999999,-0.67917856,-0.59540451,0.3027139299999999,-0.1282486,-0.02687344,-5.43186846,31.87174854,-29.79195266,10.277080726,-0.6931576422,-0.7316463180000001,-0.1482303358999999,0.2391220705,-0.0893478937,-0.1646457277999999,0.0045
03:45:53,-0.4116776599999999,-0.66549268,-0.599978155,0.3037366649999999,-0.1291648,-0.02804532,-5.450686129999999,31.87646387,-29.79244773,10.366180703,-0.7059771691,-0.7194247790000001,-0.1458968639499999,0.23920479525,-0.08932036985,-0.1660533309,0.0045
03:45:53,-0.4223035999999999,-0.6518067999999999,-0.6045518,0.3047593999999999,-0.130081,-0.0292172,-5.4695038,31.8811792,-29.7929428,10.45528068,-0.7187966960000001,-0.7072032400000001,-0.1435633919999999,0.23928752,-0.089292846,-0.167460934,0.0045
03:45:53,-0.4329295399999999,-0.63812092,-0.609125445,0.3057821349999999,-0.1309972,-0.03038908,-5.48832147,31.88589453,-29.79343787,10.544380657,-0.7316162229000001,-0.6949817010000001,-0.1412299200499999,0.23937024475,-0.0892653221499999,-0.1688685371,0.0045
03:45:53,-0.4435554799999999,-0.6244350399999999,-0.61369909,0.30680487,-0.1319134,-0.03156096,-5.50713914,31.89060986,-29.79393294,10.633480634,-0.7444357498,-0.6827601620000001,-0.1388964481,0.2394529695,-0.0892377983,-0.1702761401999999,0.0045
03:45:53,-0.4541814199999999,-0.6107491599999999,-0.618272735,0.3078276049999999,-0.1328296,-0.03273284,-5.525956809999999,31.89532519,-29.79442801,10.722580611,-0.7572552767,-0.6705386230000001,-0.13656297615,0.23953569425,-0.08921027445,-0.1716837433,0.0045
03:45:53,-0.4648073599999999,-0.59706328,-0.62284638,0.30885034,-0.1337458,-0.03390472,-5.544774479999999,31.90004052,-29.79492308,10.811680588,-0.7700748036,-0.6583170840000001,-0.1342295042,0.239618419,-0.0891827506,-0.1730913463999999,0.0045
03:45:53,-0.4754332999999999,-0.5833773999999999,-0.6274200249999999,0.309873075,-0.134662,-0.0350766,-5.56359215,31.90475585,-29.79541815,10.900780565,-0.7828943305,-0.6460955450000001,-0.13189603225,0.23970114375,-0.08915522675,-0.1744989495,0.0045
03:45:53,-0.4860592399999999,-0.56969152,-0.63199367,0.31089581,-0.1355782,-0.03624848,-5.58240982,31.90947118,-29.79591322,10.989880542,-0.7957138574,-0.6338740060000001,-0.1295625603,0.2397838685,-0.0891277029,-0.1759065526,0.0045
03:45:53,-0.4966851799999999,-0.55600564,-0.636567315,0.311918545,-0.1364944,-0.03742036,-5.601227489999999,31.91418651,-29.79640829,11.078980519,-0.8085333843,-0.6216524670000001,-0.12722908835,0.23986659325,-0.0891001790499999,-0.1773141556999999,0.0045
03:45:53,-0.5073111199999999,-0.5423197599999999,-0.64114096,0.31294128,-0.1374106,-0.0385922399999999,-5.62004516,31.91890184,-29.79690336,11.168080496,-0.8213529112,-0.6094309280000001,-0.1248956163999999,0.239949318,-0.0890726552,-0.1787217588,0.0045
03:45:53,-0.51793706,-0.52863388,-0.645714605,0.313964015,-0.1383268,-0.0397641199999999,-5.63886283,31.92361717,-29.79739843,11.257180473,-0.8341724381,-0.5972093890000001,-0.1225621444499999,0.24003204275,-0.08904513135,-0.1801293619,0.0045
03:45:53,-0.5285629999999999,-0.514948,-0.65028825,0.31498675,-0.139243,-0.0409359999999999,-5.6576805,31.9283325,-29.7978935,11.34628045,-0.846991965,-0.5849878500000001,-0.1202286724999999,0.2401147675,-0.0890176075,-0.181536965,0.0045
03:45:53,-0.53918894,-0.5012621199999999,-0.654861895,0.316009485,-0.1401592,-0.0421078799999999,-5.67649817,31.93304783,-29.79838857,11.435380427,-0.8598114919,-0.5727663110000001,-0.1178952005499999,0.24019749225,-0.08899008365,-0.1829445680999999,0.0045
03:45:53,-0.5498148799999999,-0.48757624,-0.65943554,0.31703222,-0.1410754,-0.0432797599999999,-5.695315839999999,31.93776316,-29.79888364,11.524480404,-0.8726310187999999,-0.5605447720000001,-0.1155617285999999,0.240280217,-0.0889625598,-0.1843521712,0.0045
03:45:53,-0.56044082,-0.4738903599999999,-0.6640091850000001,0.318054955,-0.1419916,-0.0444516399999999,-5.71413351,31.94247849,-29.79937871,11.613580381,-0.8854505456999999,-0.5483232330000001,-0.1132282566499999,0.24036294175,-0.08893503595,-0.1857597742999999,0.0045
03:45:53,-0.5710667599999999,-0.4602044799999999,-0.66858283,0.3190776899999999,-0.1429078,-0.0456235199999999,-5.73295118,31.94719382,-29.79987378,11.702680358,-0.8982700725999999,-0.5361016940000002,-0.1108947846999999,0.2404456665,-0.0889075121,-0.1871673774,0.0045
03:45:53,-0.5816927,-0.4465186,-0.673156475,0.3201004249999999,-0.143824,-0.0467953999999999,-5.75176885,31.95190915,-29.80036885,11.791780335,-0.9110895995,-0.5238801550000002,-0.1085613127499999,0.24052839125,-0.08887998825,-0.1885749805,0.0045
03:45:53,-0.5923186399999999,-0.4328327199999999,-0.67773012,0.3211231599999999,-0.1447402,-0.0479672799999999,-5.770586519999999,31.95662448,-29.80086392,11.880880312,-0.9239091264,-0.5116586160000002,-0.1062278407999999,0.240611116,-0.0888524644,-0.1899825835999999,0.0045
03:45:53,-0.60294458,-0.4191468399999999,-0.682303765,0.3221458949999999,-0.1456564,-0.0491391599999999,-5.789404189999999,31.96133981,-29.80135899,11.969980289,-0.9367286533,-0.4994370770000002,-0.1038943688499999,0.24069384075,-0.08882494055,-0.1913901867,0.0045
03:45:53,-0.6135705199999999,-0.40546096,-0.68687741,0.3231686299999999,-0.1465726,-0.0503110399999999,-5.80822186,31.96605514,-29.80185406,12.059080266,-0.9495481802,-0.4872155380000001,-0.1015608968999999,0.2407765655,-0.0887974166999999,-0.1927977898,0.0045
03:45:53,-0.62419646,-0.3917750799999999,-0.6914510549999999,0.324191365,-0.1474888,-0.0514829199999999,-5.82703953,31.97077047,-29.80234913,12.148180243,-0.9623677071,-0.4749939990000001,-0.0992274249499999,0.24085929025,-0.08876989285,-0.1942053929,0.0045
03:45:53,-0.6348223999999999,-0.3780892,-0.6960246999999999,0.3252140999999999,-0.148405,-0.0526547999999999,-5.845857199999999,31.9754858,-29.8028442,12.23728022,-0.975187234,-0.4627724600000001,-0.0968939529999999,0.240942015,-0.088742369,-0.1956129959999999,0.0045
03:45:53,-0.64544834,-0.36440332,-0.700598345,0.326236835,-0.1493212,-0.0538266799999999,-5.86467487,31.98020113,-29.80333927,12.326380197,-0.9880067609,-0.4505509210000001,-0.0945604810499999,0.24102473975,-0.08871484515,-0.1970205990999999,0.0045
03:45:53,-0.6560742799999999,-0.3507174399999999,-0.70517199,0.32725957,-0.1502374,-0.0549985599999999,-5.88349254,31.98491646,-29.80383434,12.415480174,-1.0008262878,-0.4383293820000001,-0.0922270090999999,0.2411074645,-0.0886873213,-0.1984282022,0.0045
03:45:53,-0.66670022,-0.33703156,-0.709745635,0.328282305,-0.1511536,-0.0561704399999999,-5.90231021,31.98963179,-29.80432941,12.504580151,-1.0136458147,-0.4261078430000001,-0.0898935371499999,0.24119018925,-0.08865979745,-0.1998358053,0.0045
03:45:53,-0.6773261599999999,-0.3233456799999999,-0.71431928,0.32930504,-0.1520698,-0.0573423199999999,-5.921127879999999,31.99434712,-29.80482448,12.593680128,-1.0264653416,-0.4138863040000001,-0.0875600651999999,0.241272914,-0.0886322736,-0.2012434084,0.0045
03:45:53,-0.6879520999999998,-0.3096597999999999,-0.718892925,0.330327775,-0.152986,-0.0585141999999999,-5.939945549999999,31.99906245,-29.80531955,12.682780105,-1.0392848685,-0.4016647650000001,-0.0852265932499999,0.24135563875,-0.08860474975,-0.2026510114999999,0.0045
03:45:53,-0.6985780399999999,-0.29597392,-0.72346657,0.33135051,-0.1539022,-0.0596860799999999,-5.95876322,32.00377778,-29.80581462,12.771880082,-1.0521043954,-0.3894432260000001,-0.0828931212999999,0.2414383635,-0.0885772259,-0.2040586146,0.0045
03:45:53,-0.7092039799999998,-0.2822880399999999,-0.728040215,0.332373245,-0.1548184,-0.0608579599999999,-5.97758089,32.00849311,-29.80630969,12.860980059,-1.0649239223,-0.3772216870000001,-0.0805596493499999,0.24152108825,-0.08854970205,-0.2054662177,0.0045
03:45:53,-0.7198299199999999,-0.2686021599999999,-0.7326138600000001,0.33339598,-0.1557346,-0.0620298399999999,-5.996398559999999,32.01320844,-29.80680476,12.950080036,-1.0777434492,-0.3650001480000001,-0.0782261773999999,0.241603813,-0.0885221782,-0.2068738208,0.0045
03:45:53,-0.7304558599999998,-0.25491628,-0.7371875050000001,0.334418715,-0.1566508,-0.0632017199999999,-6.01521623,32.01792377,-29.80729983,13.039180013,-1.0905629761,-0.3527786090000001,-0.0758927054499999,0.24168653775,-0.08849465435,-0.2082814238999999,0.0045
03:45:53,-0.7410817999999999,-0.2412303999999999,-0.74176115,0.33544145,-0.157567,-0.0643736,-6.0340339,32.0226391,-29.8077949,13.12827999,-1.103382503,-0.3405570700000001,-0.0735592334999999,0.2417692625,-0.0884671305,-0.2096890269999999,0.0045
03:45:53,-0.7517077399999998,-0.22754452,-0.746334795,0.3364641849999999,-0.1584832,-0.0655454799999999,-6.05285157,32.02735443,-29.80828997,13.217379967,-1.1162020299,-0.3283355310000001,-0.0712257615499999,0.24185198725,-0.08843960665,-0.2110966301,0.0045
03:45:53,-0.7623336799999999,-0.21385864,-0.75090844,0.3374869199999999,-0.1593994,-0.06671736,-6.071669239999999,32.03206976,-29.80878504,13.306479944,-1.1290215568,-0.3161139920000001,-0.0688922895999999,0.241934712,-0.0884120828,-0.2125042332,0.0045
03:45:53,-0.7729596199999998,-0.2001727599999999,-0.755482085,0.3385096549999999,-0.1603156,-0.0678892399999999,-6.090486909999999,32.03678509,-29.80928011,13.395579921,-1.1418410837,-0.3038924530000001,-0.0665588176499999,0.24201743675,-0.08838455895,-0.2139118363,0.0045
03:45:53,-0.7835855599999999,-0.1864868799999999,-0.7600557299999999,0.3395323899999999,-0.1612318,-0.06906112,-6.10930458,32.04150042,-29.80977518,13.484679898,-1.1546606106,-0.2916709140000001,-0.0642253456999999,0.2421001615,-0.0883570351,-0.2153194393999999,0.0045
03:45:53,-0.7942114999999998,-0.1728009999999999,-0.764629375,0.3405551249999999,-0.162148,-0.0702329999999999,-6.12812225,32.04621575,-29.81027025,13.573779875,-1.1674801375,-0.2794493750000002,-0.0618918737499999,0.24218288625,-0.0883295112499999,-0.2167270425,0.0045
03:45:53,-0.8048374399999999,-0.15911512,-0.76920302,0.34157786,-0.1630642,-0.07140488,-6.14693992,32.05093108,-29.81076532,13.662879852,-1.1802996644,-0.2672278360000002,-0.0595584017999999,0.242265611,-0.0883019874,-0.2181346455999999,0.0045
03:45:53,-0.8154633799999998,-0.1454292399999999,-0.773776665,0.3426005949999999,-0.1639804,-0.0725767599999999,-6.165757589999999,32.05564641,-29.81126039,13.751979829,-1.1931191913,-0.2550062970000002,-0.0572249298499999,0.24234833575,-0.08827446355,-0.2195422487,0.0045
03:45:53,-0.8260893199999999,-0.1317433599999999,-0.77835031,0.34362333,-0.1648966,-0.07374864,-6.184575259999999,32.06036174,-29.81175546,13.841079806,-1.2059387182,-0.2427847580000002,-0.0548914578999999,0.2424310605,-0.0882469397,-0.2209498517999999,0.0045
03:45:53,-0.8367152599999998,-0.11805748,-0.782923955,0.344646065,-0.1658128,-0.0749205199999999,-6.20339293,32.06507707,-29.81225053,13.930179783,-1.2187582451,-0.2305632190000002,-0.0525579859499999,0.24251378525,-0.08821941585,-0.2223574548999999,0.0045
03:45:53,-0.8473411999999999,-0.1043715999999999,-0.7874976,0.3456688,-0.166729,-0.0760924,-6.2222106,32.0697924,-29.8127456,14.01927976,-1.231577772,-0.2183416800000002,-0.0502245139999999,0.24259651,-0.088191892,-0.223765058,0.0045
03:45:53,-0.8579671399999999,-0.0906857199999999,-0.792071245,0.346691535,-0.1676452,-0.0772642799999999,-6.241028269999999,32.07450773,-29.81324067,14.108379737,-1.2443972989,-0.2061201410000002,-0.0478910420499999,0.24267923475,-0.08816436815,-0.2251726611,0.0045
03:45:53,-0.8685930799999999,-0.07699984,-0.79664489,0.34771427,-0.1685614,-0.07843616,-6.25984594,32.07922306,-29.81373574,14.197479714,-1.2572168258,-0.1938986020000002,-0.0455575700999999,0.2427619595,-0.0881368443,-0.2265802642,0.0045
03:45:53,-0.8792190199999999,-0.0633139599999998,-0.8012185350000001,0.348737005,-0.1694776,-0.0796080399999999,-6.27866361,32.08393839,-29.81423081,14.286579691,-1.2700363527,-0.1816770630000002,-0.0432240981499999,0.24284468425,-0.08810932045,-0.2279878672999999,0.0045
03:45:53,-0.8898449599999999,-0.0496280799999999,-0.8057921800000001,0.34975974,-0.1703938,-0.08077992,-6.29748128,32.08865372,-29.81472588,14.375679668,-1.2828558796,-0.1694555240000002,-0.0408906261999999,0.242927409,-0.0880817966,-0.2293954704,0.0045
03:45:53,-0.9004708999999999,-0.0359422,-0.810365825,0.350782475,-0.17131,-0.0819517999999999,-6.316298949999999,32.09336905,-29.81522095,14.464779645,-1.2956754065,-0.1572339850000002,-0.0385571542499999,0.24301013375,-0.08805427275,-0.2308030734999999,0.0045
03:45:53,-0.91109684,-0.0222563199999998,-0.81493947,0.35180521,-0.1722262,-0.08312368,-6.335116619999999,32.09808438,-29.81571602,14.553879622,-1.3084949334,-0.1450124460000001,-0.0362236822999999,0.2430928585,-0.0880267489,-0.2322106766,0.0045
03:45:53,-0.92172278,-0.0085704399999999,-0.819513115,0.352827945,-0.1731424,-0.0842955599999999,-6.35393429,32.10279971,-29.81621109,14.642979599,-1.3213144603,-0.1327909070000001,-0.0338902103499999,0.24317558325,-0.08799922505,-0.2336182797,0.0045
03:45:53,-0.93234872,0.0051154399999999,-0.82408676,0.35385068,-0.1740586,-0.08546744,-6.37275196,32.10751504,-29.81670616,14.732079576,-1.3341339872,-0.1205693680000001,-0.0315567383999999,0.243258308,-0.0879717012,-0.2350258827999999,0.0045
03:45:53,-0.94297466,0.0188013200000001,-0.8286604049999999,0.3548734149999999,-0.1749747999999999,-0.0866393199999999,-6.391569629999999,32.11223037,-29.81720123,14.821179553,-1.3469535141,-0.1083478290000001,-0.0292232664499999,0.24334103275,-0.08794417735,-0.2364334859,0.0045
03:45:53,-0.9536006,0.0324872,-0.83323405,0.3558961499999999,-0.175891,-0.0878112,-6.4103873,32.1169457,-29.8176963,14.91027953,-1.359773041,-0.0961262900000001,-0.0268897944999999,0.2434237575,-0.0879166535,-0.2378410889999999,0.0045
03:45:53,-0.96422654,0.0461730799999999,-0.837807695,0.3569188849999999,-0.1768072,-0.0889830799999999,-6.42920497,32.12166103,-29.81819137,14.999379507,-1.3725925679,-0.0839047510000001,-0.0245563225499999,0.24350648225,-0.08788912965,-0.2392486921,0.0045
03:45:53,-0.97485248,0.0598589599999999,-0.84238134,0.3579416199999999,-0.1777234,-0.09015496,-6.44802264,32.12637636,-29.81868644,15.088479484,-1.3854120948,-0.0716832120000001,-0.0222228505999999,0.243589207,-0.0878616058,-0.2406562951999999,0.0045
03:45:53,-0.98547842,0.07354484,-0.846954985,0.358964355,-0.1786396,-0.0913268399999999,-6.466840309999999,32.13109169,-29.81918151,15.177579461,-1.3982316217,-0.0594616730000001,-0.0198893786499999,0.24367193175,-0.08783408195,-0.2420638983,0.0045
03:45:53,-0.99610436,0.0872307199999999,-0.85152863,0.3599870899999999,-0.1795558,-0.09249872,-6.485657979999999,32.13580702,-29.81967658,15.266679438,-1.4110511486,-0.0472401340000001,-0.0175559066999999,0.2437546565,-0.0878065581,-0.2434715013999999,0.0045
03:45:53,-1.0067303,0.1009165999999999,-0.856102275,0.361009825,-0.180472,-0.0936705999999999,-6.50447565,32.14052235,-29.82017165,15.355779415,-1.4238706755,-0.0350185950000001,-0.0152224347499999,0.24383738125,-0.08777903425,-0.2448791045,0.0045
03:45:53,-1.0173562399999998,0.11460248,-0.86067592,0.3620325599999999,-0.1813882,-0.0948424799999999,-6.52329332,32.14523768,-29.82066672,15.444879392,-1.4366902024,-0.0227970560000001,-0.0128889627999999,0.243920106,-0.0877515104,-0.2462867076,0.0045
03:45:53,-1.0279821799999995,0.12828836,-0.865249565,0.363055295,-0.1823044,-0.0960143599999999,-6.542110989999999,32.14995301,-29.82116179,15.533979369,-1.4495097293,-0.0105755170000001,-0.0105554908499999,0.24400283075,-0.08772398655,-0.2476943106999999,0.0045
03:45:53,-1.03860812,0.1419742399999999,-0.8698232100000001,0.36407803,-0.1832206,-0.0971862399999999,-6.560928659999999,32.15466834,-29.82165686,15.623079346,-1.4623292562,0.0016460219999998,-0.0082220188999999,0.2440855555,-0.0876964627,-0.2491019138,0.0045
03:45:53,-1.04923406,0.15566012,-0.8743968550000001,0.365100765,-0.1841368,-0.09835812,-6.579746329999999,32.15938367,-29.82215193,15.712179323,-1.4751487831,0.0138675609999998,-0.0058885469499999,0.24416828025,-0.08766893885,-0.2505095169,0.0045
03:45:53,-1.0598599999999998,0.169346,-0.8789705,0.3661235,-0.185053,-0.0995299999999999,-6.598564,32.164099,-29.822647,15.8012793,-1.48796831,0.0260890999999998,-0.0035550749999999,0.244251005,-0.087641415,-0.25191712,0.0045
03:45:53,-1.0704859399999995,0.1830318799999999,-0.883544145,0.367146235,-0.1859692,-0.10070188,-6.617381669999999,32.168814330000004,-29.82314207,15.890379277,-1.5007878369,0.0383106389999998,-0.0012216030499999,0.24433372975,-0.08761389115,-0.2533247231,0.0045
03:45:53,-1.08111188,0.19671776,-0.88811779,0.36816897,-0.1868854,-0.1018737599999999,-6.636199339999999,32.17352966,-29.82363714,15.979479254,-1.5136073638,0.0505321779999998,0.0011118689,0.2444164545,-0.0875863673,-0.2547323261999999,0.0045
03:45:53,-1.09173782,0.21040364,-0.892691435,0.369191705,-0.1878016,-0.10304564,-6.65501701,32.17824499,-29.82413221,16.068579231,-1.5264268907,0.0627537169999998,0.00344534085,0.24449917925,-0.08755884345,-0.2561399292999999,0.0045
03:45:53,-1.1023637599999998,0.2240895199999999,-0.8972650799999999,0.37021444,-0.1887178,-0.1042175199999999,-6.67383468,32.18296032,-29.82462728,16.157679208,-1.5392464176,0.0749752559999998,0.0057788128,0.244581904,-0.0875313196,-0.2575475324,0.0045
03:45:53,-1.1129896999999995,0.2377754,-0.901838725,0.371237175,-0.189634,-0.1053894,-6.69265235,32.18767565,-29.82512235,16.246779185,-1.5520659445,0.0871967949999998,0.00811228475,0.24466462875,-0.08750379575,-0.2589551355,0.0045
03:45:53,-1.12361564,0.25146128,-0.90641237,0.3722599099999999,-0.1905502,-0.1065612799999999,-6.711470019999999,32.19239098,-29.82561742,16.335879162,-1.5648854714,0.0994183339999998,0.0104457567,0.2447473535,-0.0874762719,-0.2603627386,0.0045
03:45:53,-1.13424158,0.2651471599999999,-0.910986015,0.3732826449999999,-0.1914664,-0.10773316,-6.730287689999999,32.19710631,-29.82611249,16.424979139,-1.5777049983,0.1116398729999996,0.01277922865,0.24483007825,-0.08744874805,-0.2617703417,0.0045
03:45:53,-1.1448675199999998,0.2788330400000001,-0.91555966,0.3743053799999999,-0.1923826,-0.1089050399999999,-6.74910536,32.20182164,-29.82660756,16.514079116,-1.5905245252,0.1238614119999996,0.0151127006,0.244912803,-0.0874212242,-0.2631779448,0.0045
03:45:53,-1.1554934599999998,0.29251892,-0.920133305,0.3753281149999999,-0.1932988,-0.11007692,-6.76792303,32.20653697,-29.82710263,16.603179093,-1.6033440521,0.1360829509999996,0.01744617255,0.24499552775,-0.08739370035,-0.2645855479,0.0045
03:45:53,-1.1661194,0.3062047999999999,-0.92470695,0.37635085,-0.194215,-0.1112487999999999,-6.786740699999999,32.2112523,-29.8275977,16.69227907,-1.616163579,0.1483044899999996,0.0197796445,0.2450782525,-0.0873661765,-0.265993151,0.0045
03:45:53,-1.17674534,0.3198906800000001,-0.929280595,0.3773735849999999,-0.1951312,-0.11242068,-6.80555837,32.21596763,-29.82809277,16.781379047,-1.6289831059,0.1605260289999996,0.02211311645,0.24516097725,-0.08733865265,-0.2674007540999999,0.0045
03:45:53,-1.1873712799999998,0.33357656,-0.93385424,0.37839632,-0.1960474,-0.1135925599999999,-6.824376039999999,32.22068296,-29.82858784,16.870479023999998,-1.6418026328,0.1727475679999996,0.0244465884,0.245243702,-0.0873111288,-0.2688083571999999,0.0045
03:45:53,-1.1979972199999998,0.3472624399999999,-0.938427885,0.3794190549999999,-0.1969636,-0.11476444,-6.84319371,32.22539829,-29.82908291,16.959579000999998,-1.6546221597,0.1849691069999997,0.02678006035,0.24532642675,-0.08728360495,-0.2702159602999999,0.0045
03:45:53,-1.20862316,0.3609483200000001,-0.94300153,0.38044179,-0.1978798,-0.1159363199999999,-6.862011379999999,32.23011362,-29.82957798,17.048678977999998,-1.6674416866,0.1971906459999997,0.0291135323,0.2454091515,-0.0872560811,-0.2716235634,0.0045
03:45:53,-1.2192491,0.3746342,-0.947575175,0.381464525,-0.198796,-0.1171082,-6.880829049999999,32.23482895,-29.83007305,17.137778954999998,-1.6802612135,0.2094121849999997,0.03144700425,0.24549187625,-0.08722855725,-0.2730311665,0.0045
03:45:53,-1.2298750399999998,0.3883200799999999,-0.95214882,0.38248726,-0.1997122,-0.1182800799999999,-6.89964672,32.23954428,-29.83056812,17.226878931999998,-1.6930807404,0.2216337239999997,0.0337804762,0.245574601,-0.0872010334,-0.2744387696,0.0045
03:45:53,-1.2405009799999998,0.4020059599999999,-0.956722465,0.383509995,-0.2006284,-0.11945196,-6.91846439,32.24425961,-29.83106319,17.315978909,-1.7059002673,0.2338552629999997,0.03611394815,0.24565732575,-0.08717350955,-0.2758463727,0.0045
03:45:53,-1.25112692,0.41569184,-0.96129611,0.38453273,-0.2015446,-0.1206238399999999,-6.937282059999999,32.248974940000004,-29.83155826,17.405078886,-1.7187197942,0.2460768019999997,0.0384474201,0.2457400505,-0.0871459857,-0.2772539758,0.0045
03:45:53,-1.26175286,0.4293777199999999,-0.965869755,0.385555465,-0.2024608,-0.12179572,-6.95609973,32.25369027,-29.83205333,17.494178863,-1.7315393211,0.2582983409999997,0.04078089205,0.24582277525,-0.08711846185,-0.2786615789,0.0045
03:45:53,-1.2723787999999998,0.4430635999999999,-0.9704434,0.3865782,-0.203377,-0.1229675999999999,-6.974917399999999,32.2584056,-29.8325484,17.58327884,-1.744358848,0.2705198799999997,0.043114364,0.2459055,-0.087090938,-0.2800691819999999,0.0045
03:45:53,-1.2830047399999998,0.45674948,-0.975017045,0.387600935,-0.2042932,-0.12413948,-6.99373507,32.26312093,-29.83304347,17.672378817,-1.7571783749,0.2827414189999997,0.04544783595,0.24598822475,-0.08706341415,-0.2814767850999999,0.0045
03:45:53,-1.29363068,0.4704353599999999,-0.97959069,0.38862367,-0.2052094,-0.1253113599999999,-7.012552739999999,32.26783626,-29.83353854,17.761478794,-1.7699979018,0.2949629579999997,0.0477813079,0.2460709495,-0.0870358903,-0.2828843881999999,0.0045
03:45:53,-1.30425662,0.4841212399999999,-0.984164335,0.389646405,-0.2061256,-0.12648324,-7.031370409999999,32.27255159,-29.83403361,17.850578771,-1.7828174287,0.3071844969999997,0.05011477985,0.24615367425,-0.08700836645,-0.2842919913,0.0045
03:45:53,-1.3148825599999998,0.49780712,-0.98873798,0.3906691399999999,-0.2070418,-0.1276551199999999,-7.05018808,32.27726692,-29.83452868,17.939678748,-1.7956369556,0.3194060359999997,0.0524482518,0.246236399,-0.0869808426,-0.2856995944,0.0045
03:45:53,-1.3255084999999998,0.511493,-0.993311625,0.391691875,-0.207958,-0.128827,-7.06900575,32.28198225,-29.83502375,18.028778725,-1.8084564825,0.3316275749999997,0.05478172375,0.24631912375,-0.08695331875,-0.2871071975,0.0045
03:45:53,-1.33613444,0.5251788799999999,-0.99788527,0.3927146099999999,-0.2088742,-0.1299988799999999,-7.087823419999999,32.28669758,-29.83551882,18.117878702,-1.8212760094,0.3438491139999997,0.0571151957,0.2464018485,-0.0869257949,-0.2885148006,0.0045
03:45:53,-1.34676038,0.53886476,-1.002458915,0.393737345,-0.2097904,-0.13117076,-7.10664109,32.29141291,-29.83601389,18.206978679,-1.8340955363,0.3560706529999997,0.05944866765,0.24648457325,-0.08689827105,-0.2899224037,0.0045
03:45:53,-1.3573863199999998,0.55255064,-1.00703256,0.3947600799999999,-0.2107066,-0.1323426399999999,-7.125458759999999,32.29612824,-29.83650896,18.296078656,-1.8469150632,0.3682921919999997,0.0617821396,0.246567298,-0.0868707472,-0.2913300068,0.0045
03:45:53,-1.3680122599999998,0.5662365199999999,-1.011606205,0.395782815,-0.2116228,-0.1335145199999999,-7.14427643,32.30084357,-29.83700403,18.385178633,-1.8597345901,0.3805137309999997,0.06411561155,0.24665002275,-0.08684322335,-0.2927376099,0.0045
03:45:53,-1.3786381999999997,0.5799224000000001,-1.01617985,0.3968055499999999,-0.212539,-0.1346863999999999,-7.1630941,32.3055589,-29.8374991,18.47427861,-1.872554117,0.3927352699999997,0.0664490835,0.2467327475,-0.0868156995,-0.2941452129999999,0.0045
03:45:53,-1.38926414,0.59360828,-1.020753495,0.397828285,-0.2134552,-0.1358582799999999,-7.181911769999999,32.31027423,-29.83799417,18.563378587,-1.8853736439,0.4049568089999997,0.06878255545,0.24681547225,-0.08678817565,-0.2955528160999999,0.0045
03:45:53,-1.3998900799999998,0.6072941599999999,-1.02532714,0.3988510199999999,-0.2143714,-0.1370301599999999,-7.20072944,32.31498956,-29.83848924,18.652478564,-1.8981931708,0.4171783479999997,0.0711160274,0.246898197,-0.0867606518,-0.2969604192,0.0045
03:45:53,-1.4105160199999998,0.6209800400000001,-1.029900785,0.399873755,-0.2152876,-0.1382020399999999,-7.219547109999999,32.31970489,-29.83898431,18.741578541,-1.9110126977,0.4293998869999997,0.07344949935,0.24698092175,-0.08673312795,-0.2983680223,0.0045
03:45:53,-1.4211419599999997,0.63466592,-1.03447443,0.40089649,-0.2162038,-0.1393739199999999,-7.238364779999999,32.32442022,-29.83947938,18.830678518,-1.9238322246,0.4416214259999997,0.0757829713,0.2470636465,-0.0867056041,-0.2997756254,0.0045
03:45:53,-1.4317679,0.6483517999999999,-1.039048075,0.401919225,-0.21712,-0.1405457999999999,-7.257182449999999,32.329135550000004,-29.83997445,18.919778495,-1.9366517515,0.4538429649999997,0.07811644325,0.24714637125,-0.08667808025,-0.3011832285,0.0045
03:45:53,-1.4423938399999998,0.6620376800000001,-1.04362172,0.40294196,-0.2180362,-0.1417176799999999,-7.276000119999999,32.33385088,-29.84046952,19.008878472,-1.9494712784,0.4660645039999997,0.0804499152,0.247229096,-0.0866505564,-0.3025908316,0.0045
03:45:53,-1.4530197799999998,0.67572356,-1.048195365,0.403964695,-0.2189524,-0.1428895599999999,-7.29481779,32.33856621,-29.84096459,19.097978449,-1.9622908053,0.4782860429999997,0.08278338715,0.24731182075,-0.08662303255,-0.3039984347,0.0045
03:45:53,-1.4636457199999997,0.6894094399999999,-1.05276901,0.40498743,-0.2198686,-0.1440614399999999,-7.313635459999999,32.34328154,-29.84145966,19.187078426,-1.9751103322,0.4905075819999998,0.0851168591,0.2473945455,-0.0865955087,-0.3054060378,0.0045
03:45:53,-1.47427166,0.7030953200000001,-1.057342655,0.406010165,-0.2207848,-0.1452333199999999,-7.332453129999999,32.34799687,-29.84195473,19.276178403,-1.9879298591,0.5027291209999998,0.08745033105,0.24747727025,-0.08656798485,-0.3068136408999999,0.0045
03:45:53,-1.4848975999999998,0.7167812,-1.0619163,0.4070329,-0.2217009999999999,-0.1464051999999999,-7.3512708,32.3527122,-29.8424498,19.36527838,-2.000749386,0.5149506599999998,0.089783803,0.247559995,-0.086540461,-0.3082212439999999,0.0045
03:45:53,-1.4955235399999998,0.7304670799999999,-1.066489945,0.4080556349999999,-0.2226172,-0.1475770799999999,-7.370088469999999,32.35742753,-29.84294487,19.454378357,-2.0135689129,0.5271721989999998,0.09211727495,0.24764271975,-0.08651293715,-0.3096288471,0.0045
03:45:53,-1.5061494799999997,0.7441529599999999,-1.07106359,0.40907837,-0.2235334,-0.1487489599999999,-7.38890614,32.36214286,-29.84343994,19.543478334,-2.0263884398,0.5393937379999998,0.0944507469,0.2477254445,-0.0864854133,-0.3110364502,0.0045
03:45:53,-1.51677542,0.75783884,-1.075637235,0.4101011049999999,-0.2244496,-0.1499208399999999,-7.407723809999999,32.36685819,-29.84393501,19.632578311,-2.0392079667,0.5516152769999998,0.09678421885,0.24780816925,-0.08645788945,-0.3124440533,0.0045
03:45:53,-1.5274013599999998,0.7715247199999999,-1.08021088,0.41112384,-0.2253658,-0.1510927199999999,-7.426541479999999,32.37157352,-29.84443008,19.721678288,-2.0520274936,0.5638368159999998,0.0991176908,0.247890894,-0.0864303656,-0.3138516564,0.0045
03:45:53,-1.5380272999999998,0.7852105999999999,-1.084784525,0.4121465749999999,-0.2262819999999999,-0.1522645999999999,-7.44535915,32.37628885,-29.84492515,19.810778265,-2.0648470205,0.5760583549999998,0.10145116275,0.24797361875,-0.08640284175,-0.3152592595,0.0045
03:45:53,-1.5486532399999997,0.79889648,-1.08935817,0.41316931,-0.2271982,-0.15343648,-7.46417682,32.38100418,-29.84542022,19.899878242,-2.0776665474,0.5882798939999998,0.1037846347,0.2480563435,-0.0863753179,-0.3166668626,0.0045
03:45:53,-1.55927918,0.81258236,-1.093931815,0.4141920449999999,-0.2281144,-0.1546083599999999,-7.482994489999999,32.38571951,-29.84591529,19.988978219,-2.0904860743,0.6005014329999998,0.10611810665,0.24813906825,-0.08634779405,-0.3180744657,0.0045
03:45:53,-1.5699051199999998,0.8262682400000001,-1.09850546,0.41521478,-0.2290306,-0.15578024,-7.50181216,32.39043484,-29.84641036,20.078078196,-2.1033056012,0.6127229719999998,0.1084515786,0.248221793,-0.0863202702,-0.3194820687999999,0.0045
03:45:53,-1.5805310599999998,0.8399541199999998,-1.103079105,0.4162375149999999,-0.2299468,-0.1569521199999999,-7.520629829999999,32.39515017,-29.84690543,20.167178173,-2.1161251281,0.6249445109999998,0.11078505055,0.24830451775,-0.08629274635,-0.3208896718999999,0.0045
03:45:53,-1.5911569999999997,0.85364,-1.10765275,0.41726025,-0.2308629999999999,-0.158124,-7.5394475,32.399865500000004,-29.8474005,20.25627815,-2.128944655,0.6371660499999996,0.1131185225,0.2483872425,-0.0862652225,-0.322297275,0.0045
03:45:53,-1.60178294,0.8673258800000001,-1.112226395,0.418282985,-0.2317792,-0.1592958799999999,-7.558265169999999,32.40458083,-29.84789557,20.345378127,-2.1417641819,0.6493875889999996,0.11545199445,0.24846996725,-0.08623769865,-0.3237048781,0.0045
03:45:53,-1.6124088799999998,0.8810117599999998,-1.11680004,0.41930572,-0.2326954,-0.16046776,-7.577082839999999,32.409296160000004,-29.84839064,20.434478104,-2.1545837088,0.6616091279999996,0.1177854664,0.248552692,-0.0862101748,-0.3251124811999999,0.0045
03:45:53,-1.6230348199999998,0.89469764,-1.121373685,0.420328455,-0.2336116,-0.1616396399999999,-7.59590051,32.41401149,-29.84888571,20.523578081,-2.1674032357,0.6738306669999996,0.12011893835,0.24863541675,-0.08618265095,-0.3265200843,0.0045
03:45:53,-1.6336607599999995,0.90838352,-1.12594733,0.42135119,-0.2345278,-0.16281152,-7.614718179999999,32.41872682,-29.84938078,20.612678058,-2.1802227626,0.6860522059999996,0.1224524103,0.2487181415,-0.0861551271,-0.3279276874,0.0045
03:45:53,-1.6442867,0.9220693999999998,-1.130520975,0.422373925,-0.235444,-0.1639833999999999,-7.633535849999999,32.42344215,-29.84987585,20.701778035,-2.1930422895,0.6982737449999996,0.12478588225,0.24880086625,-0.08612760325,-0.3293352905,0.0045
03:45:53,-1.6549126399999998,0.93575528,-1.13509462,0.42339666,-0.2363602,-0.16515528,-7.652353519999999,32.42815748,-29.85037092,20.790878012,-2.2058618164,0.7104952839999996,0.1271193542,0.248883591,-0.0861000794,-0.3307428936,0.0045
03:45:53,-1.6655385799999998,0.94944116,-1.139668265,0.424419395,-0.2372764,-0.1663271599999999,-7.671171189999999,32.43287281,-29.85086599,20.879977989,-2.2186813433,0.7227168229999996,0.12945282615,0.24896631575,-0.08607255555,-0.3321504966999999,0.0045
03:45:53,-1.6761645199999995,0.9631270399999998,-1.14424191,0.42544213,-0.2381926,-0.16749904,-7.68998886,32.43758814,-29.85136106,20.969077966,-2.2315008702,0.7349383619999996,0.1317862981,0.2490490405,-0.0860450317,-0.3335580997999999,0.0045
03:45:53,-1.68679046,0.97681292,-1.148815555,0.426464865,-0.2391088,-0.1686709199999999,-7.708806529999999,32.44230347,-29.85185613,21.058177943,-2.2443203971,0.7471599009999996,0.13411977005,0.24913176525,-0.08601750785,-0.3349657029,0.0045
03:45:53,-1.6974163999999998,0.9904988,-1.1533892,0.4274875999999999,-0.240025,-0.1698428,-7.727624199999999,32.4470188,-29.8523512,21.14727792,-2.257139924,0.7593814399999996,0.136453242,0.24921449,-0.085989984,-0.336373306,0.0045
03:45:53,-1.7080423399999998,1.0041846799999998,-1.157962845,0.428510335,-0.2409412,-0.1710146799999999,-7.74644187,32.45173413,-29.85284627,21.236377897,-2.2699594509,0.7716029789999996,0.13878671395,0.24929721475,-0.08596246015,-0.3377809090999999,0.0045
03:45:53,-1.7186682799999995,1.01787056,-1.16253649,0.4295330699999999,-0.2418574,-0.17218656,-7.765259539999999,32.45644946,-29.85334134,21.325477874,-2.2827789778,0.7838245179999996,0.1411201859,0.2493799395,-0.0859349363,-0.3391885122,0.0045
03:45:53,-1.7292942199999997,1.03155644,-1.167110135,0.430555805,-0.2427736,-0.1733584399999999,-7.784077209999999,32.46116479,-29.85383641,21.414577851,-2.2955985047,0.7960460569999996,0.14345365785,0.24946266425,-0.08590741245,-0.3405961153,0.0045
03:45:53,-1.7399201599999998,1.0452423199999998,-1.17168378,0.4315785399999999,-0.2436898,-0.17453032,-7.802894879999999,32.46588012,-29.85433148,21.503677828,-2.3084180316,0.8082675959999996,0.1457871298,0.249545389,-0.0858798886,-0.3420037184,0.0045
03:45:53,-1.7505460999999998,1.0589282,-1.176257425,0.432601275,-0.244606,-0.1757021999999999,-7.821712549999999,32.47059545,-29.85482655,21.592777805,-2.3212375585,0.8204891349999996,0.14812060175,0.24962811375,-0.08585236475,-0.3434113215,0.0045
03:45:53,-1.7611720399999995,1.07261408,-1.18083107,0.4336240099999999,-0.2455222,-0.17687408,-7.84053022,32.47531078,-29.85532162,21.681877782,-2.3340570854,0.8327106739999997,0.1504540737,0.2497108385,-0.0858248409,-0.3448189245999999,0.0045
03:45:53,-1.7717979799999997,1.0862999599999998,-1.185404715,0.434646745,-0.2464384,-0.1780459599999999,-7.85934789,32.480026110000004,-29.85581669,21.770977759,-2.3468766123,0.8449322129999997,0.15278754565,0.24979356325,-0.08579731705,-0.3462265276999999,0.0045
03:45:53,-1.7824239199999998,1.09998584,-1.18997836,0.43566948,-0.2473546,-0.17921784,-7.878165559999999,32.48474144,-29.85631176,21.860077736,-2.3596961392,0.8571537519999997,0.1551210176,0.249876288,-0.0857697932,-0.3476341308,0.0045
03:45:53,-1.7930498599999998,1.11367172,-1.194552005,0.436692215,-0.2482708,-0.1803897199999999,-7.89698323,32.489456770000004,-29.85680683,21.949177713,-2.3725156661,0.8693752909999997,0.15745448955,0.24995901275,-0.08574226935,-0.3490417339,0.0045
03:45:53,-1.8036758,1.1273575999999998,-1.19912565,0.43771495,-0.249187,-0.1815616,-7.915800899999999,32.4941721,-29.8573019,22.03827769,-2.385335193,0.8815968299999997,0.1597879615,0.2500417375,-0.0857147455,-0.3504493369999999,0.0045
03:45:53,-1.81430174,1.14104348,-1.203699295,0.438737685,-0.2501032,-0.1827334799999999,-7.93461857,32.49888743,-29.85779697,22.127377667,-2.3981547199,0.8938183689999997,0.16212143345,0.25012446225,-0.08568722165,-0.3518569401,0.0045
03:45:53,-1.82492768,1.15472936,-1.20827294,0.43976042,-0.2510194,-0.18390536,-7.953436239999999,32.50360276,-29.85829204,22.216477644,-2.4109742468,0.9060399079999996,0.1644549054,0.250207187,-0.0856596978,-0.3532645432,0.0045
03:45:53,-1.83555362,1.16841524,-1.212846585,0.440783155,-0.2519356,-0.1850772399999999,-7.972253909999999,32.50831809,-29.85878711,22.305577621,-2.4237937737,0.9182614469999996,0.16678837735,0.25028991175,-0.08563217395,-0.3546721463,0.0045
03:45:53,-1.84617956,1.18210112,-1.21742023,0.44180589,-0.2528518,-0.18624912,-7.99107158,32.51303342,-29.85928218,22.394677598,-2.4366133006,0.9304829859999996,0.1691218493,0.2503726365,-0.0856046501,-0.3560797494,0.0045
03:45:53,-1.8568055,1.1957870000000002,-1.221993875,0.442828625,-0.253768,-0.1874209999999999,-8.009889249999999,32.51774875,-29.85977725,22.483777575,-2.4494328275,0.9427045249999996,0.17145532125,0.25045536125,-0.08557712625,-0.3574873524999999,0.0045
03:45:53,-1.86743144,1.20947288,-1.22656752,0.44385136,-0.2546842,-0.18859288,-8.02870692,32.52246408,-29.86027232,22.572877552,-2.4622523544,0.9549260639999996,0.1737887932,0.250538086,-0.0855496024,-0.3588949555999999,0.0045
03:45:53,-1.87805738,1.22315876,-1.231141165,0.4448740949999999,-0.2556004,-0.1897647599999999,-8.047524589999998,32.52717941,-29.86076739,22.661977529,-2.4750718813,0.9671476029999996,0.17612226515,0.25062081075,-0.08552207855,-0.3603025586999999,0.0045
03:45:53,-1.88868332,1.2368446400000002,-1.23571481,0.44589683,-0.2565166,-0.19093664,-8.066342259999999,32.53189474,-29.86126246,22.751077506,-2.4878914082,0.9793691419999996,0.1784557371,0.2507035355,-0.0854945547,-0.3617101618,0.0045
03:45:53,-1.89930926,1.25053052,-1.240288455,0.4469195649999999,-0.2574328,-0.1921085199999999,-8.08515993,32.53661007,-29.86175753,22.840177483,-2.5007109351,0.9915906809999996,0.18078920905,0.25078626025,-0.08546703085,-0.3631177649,0.0045
03:45:53,-1.9099352,1.2642164,-1.2448621,0.4479423,-0.258349,-0.1932804,-8.1039776,32.5413254,-29.8622526,22.92927746,-2.513530462,1.0038122199999997,0.183122681,0.250868985,-0.085439507,-0.3645253679999999,0.0045
03:45:53,-1.92056114,1.2779022799999995,-1.249435745,0.4489650349999999,-0.2592652,-0.1944522799999999,-8.12279527,32.54604073,-29.86274767,23.018377437,-2.5263499889,1.0160337589999997,0.18545615295,0.25095170975,-0.08541198315,-0.3659329711,0.0045
03:45:53,-1.93118708,1.29158816,-1.25400939,0.44998777,-0.2601814,-0.19562416,-8.14161294,32.55075606,-29.86324274,23.107477414,-2.5391695158,1.0282552979999997,0.1877896249,0.2510344345,-0.0853844593,-0.3673405742,0.0045
03:45:53,-1.94181302,1.30527404,-1.258583035,0.4510105049999999,-0.2610976,-0.1967960399999999,-8.160430609999999,32.55547139,-29.86373781,23.196577391,-2.5519890427,1.0404768369999997,0.19012309685,0.25111715925,-0.08535693545,-0.3687481773,0.0045
03:45:53,-1.95243896,1.3189599199999995,-1.26315668,0.45203324,-0.2620138,-0.19796792,-8.17924828,32.560186720000004,-29.86423288,23.285677368,-2.5648085696,1.0526983759999995,0.1924565688,0.251199884,-0.0853294116,-0.3701557803999999,0.0045
03:45:53,-1.9630649,1.3326458,-1.267730325,0.453055975,-0.26293,-0.1991397999999999,-8.19806595,32.56490205,-29.86472795,23.374777345,-2.5776280965,1.0649199149999995,0.19479004075,0.25128260875,-0.08530188775,-0.3715633834999999,0.0045
03:45:53,-1.97369084,1.34633168,-1.27230397,0.45407871,-0.2638462,-0.20031168,-8.216883619999999,32.569617380000004,-29.86522302,23.463877322,-2.5904476234,1.0771414539999995,0.1971235127,0.2513653335,-0.0852743639,-0.3729709866,0.0045
03:45:53,-1.98431678,1.3600175599999995,-1.276877615,0.455101445,-0.2647624,-0.2014835599999999,-8.23570129,32.57433271,-29.86571809,23.552977299,-2.6032671503,1.0893629929999995,0.19945698465,0.25144805825,-0.08524684005,-0.3743785897,0.0045
03:45:53,-1.99494272,1.37370344,-1.28145126,0.45612418,-0.2656786,-0.20265544,-8.254518959999999,32.57904804,-29.86621316,23.642077276,-2.6160866772,1.1015845319999995,0.2017904566,0.251530783,-0.0852193162,-0.3757861928,0.0045
03:45:53,-2.00556866,1.38738932,-1.286024905,0.457146915,-0.2665948,-0.2038273199999999,-8.27333663,32.58376337,-29.86670823,23.731177253,-2.6289062041,1.1138060709999995,0.20412392855,0.25161350775,-0.08519179235,-0.3771937958999999,0.0045
03:45:53,-2.0161946,1.4010751999999995,-1.29059855,0.45816965,-0.267511,-0.2049992,-8.2921543,32.5884787,-29.8672033,23.82027723,-2.641725731,1.1260276099999995,0.2064574005,0.2516962325,-0.0851642685,-0.378601399,0.0045
03:45:53,-2.02682054,1.41476108,-1.295172195,0.459192385,-0.2684272,-0.2061710799999999,-8.310971969999999,32.59319403,-29.86769837,23.909377207,-2.6545452579,1.1382491489999995,0.20879087245,0.25177895725,-0.08513674465,-0.3800090021,0.0045
03:45:53,-2.03744648,1.42844696,-1.29974584,0.46021512,-0.2693434,-0.2073429599999999,-8.32978964,32.59790936,-29.86819344,23.998477184,-2.6673647848,1.1504706879999995,0.2111243444,0.251861682,-0.0851092208,-0.3814166052,0.0045
03:45:53,-2.04807242,1.4421328399999995,-1.304319485,0.461237855,-0.2702596,-0.2085148399999999,-8.348607309999998,32.60262469,-29.86868851,24.087577161,-2.6801843117,1.1626922269999995,0.21345781635,0.25194440675,-0.08508169695,-0.3828242082999999,0.0045
03:45:53,-2.05869836,1.45581872,-1.30889313,0.4622605899999999,-0.2711758,-0.2096867199999999,-8.36742498,32.60734002,-29.86918358,24.176677138,-2.6930038386,1.1749137659999995,0.2157912883,0.2520271315,-0.0850541731,-0.3842318113999999,0.0045
03:45:53,-2.0693243,1.4695046,-1.313466775,0.463283325,-0.272092,-0.2108585999999999,-8.38624265,32.61205535,-29.86967865,24.265777115,-2.7058233655,1.1871353049999998,0.21812476025,0.25210985625,-0.08502664925,-0.3856394145,0.0045
03:45:53,-2.07995024,1.4831904799999998,-1.31804042,0.4643060599999999,-0.2730082,-0.2120304799999999,-8.405060319999999,32.61677068,-29.87017372,24.354877092,-2.7186428924,1.1993568439999998,0.2204582322,0.252192581,-0.0849991254,-0.3870470176,0.0045
03:45:53,-2.09057618,1.49687636,-1.322614065,0.465328795,-0.2739244,-0.2132023599999999,-8.42387799,32.62148601,-29.87066879,24.443977069,-2.7314624193,1.2115783829999998,0.22279170415,0.25227530575,-0.08497160155,-0.3884546207,0.0045
03:45:53,-2.10120212,1.51056224,-1.32718771,0.4663515299999999,-0.2748406,-0.2143742399999999,-8.442695659999998,32.62620134,-29.87116386,24.533077046,-2.7442819462,1.2237999219999998,0.2251251761,0.2523580305,-0.0849440777,-0.3898622237999999,0.0045
03:45:53,-2.11182806,1.5242481199999998,-1.331761355,0.467374265,-0.2757568,-0.2155461199999999,-8.461513329999999,32.63091667,-29.87165893,24.622177023,-2.7571014731,1.2360214609999998,0.22745864805,0.25244075525,-0.08491655385,-0.3912698269,0.0045
03:45:54,-2.122454,1.537934,-1.336335,0.468397,-0.276673,-0.216718,-8.480331,32.635632,-29.872154,24.711277,-2.769921,1.248243,0.22979212,0.25252348,-0.08488903,-0.39267743,0.0045
03:45:54,-2.116525845,1.526080645,-1.324033115,0.45892073,-0.27449436,-0.212728275,-8.497034835,32.617178685,-29.89255096,24.69602107,-2.7571796635,1.236964777,0.2368286634,0.2463806584,-0.084696037715,-0.38513711235,0.0045
03:45:54,-2.11059769,1.51422729,-1.31173123,0.44944446,-0.27231572,-0.20873855,-8.51373867,32.598725370000004,-29.91294792,24.68076514,-2.744438327,1.225686554,0.2438652067999999,0.2402378368,-0.08450304543,-0.3775967947,0.0045
03:45:54,-2.104669535,1.5023739349999998,-1.299429345,0.43996819,-0.27013708,-0.204748825,-8.530442505,32.580272055,-29.93334488,24.66550921,-2.7316969905,1.214408331,0.2509017502,0.2340950152,-0.084310053145,-0.37005647705,0.0045
03:45:54,-2.09874138,1.49052058,-1.28712746,0.43049192,-0.26795844,-0.2007591,-8.54714634,32.56181874,-29.95374184,24.65025328,-2.718955654,1.203130108,0.2579382936,0.2279521936,-0.08411706086,-0.3625161594,0.0045
03:45:54,-2.092813225,1.478667225,-1.274825575,0.42101565,-0.2657798,-0.196769375,-8.563850174999999,32.543365425000005,-29.9741388,24.63499735,-2.7062143175,1.191851885,0.264974837,0.221809372,-0.083924068575,-0.3549758417499999,0.0045
03:45:54,-2.08688507,1.46681387,-1.26252369,0.41153938,-0.26360116,-0.19277965,-8.58055401,32.52491211,-29.99453576,24.61974142,-2.693472981,1.180573662,0.2720113804,0.2156665504,-0.08373107629,-0.3474355241,0.0045
03:45:54,-2.080956915,1.454960515,-1.250221805,0.40206311,-0.26142252,-0.188789925,-8.597257845,32.506458795,-30.01493272,24.60448549,-2.6807316445,1.169295439,0.2790479238,0.2095237288,-0.083538084005,-0.33989520645,0.0045
03:45:54,-2.07502876,1.4431071599999998,-1.23791992,0.39258684,-0.25924388,-0.1848002,-8.61396168,32.48800548,-30.03532968,24.58922956,-2.6679903080000003,1.158017216,0.2860844671999999,0.2033809072,-0.08334509172,-0.3323548887999999,0.0045
03:45:54,-2.069100605,1.431253805,-1.225618035,0.38311057,-0.25706524,-0.180810475,-8.630665515,32.469552165,-30.05572664,24.57397363,-2.6552489715000003,1.146738993,0.2931210106,0.1972380856,-0.083152099435,-0.32481457115,0.0045
03:45:54,-2.06317245,1.41940045,-1.21331615,0.3736343,-0.2548866,-0.17682075,-8.64736935,32.45109885,-30.0761236,24.5587177,-2.6425076350000003,1.13546077,0.300157554,0.191095264,-0.08295910715,-0.3172742535,0.0045
03:45:54,-2.057244295,1.407547095,-1.201014265,0.36415803,-0.25270796,-0.172831025,-8.664073185,32.432645535,-30.09652056,24.54346177,-2.6297662985,1.124182547,0.3071940974,0.1849524424,-0.082766114865,-0.30973393585,0.0045
03:45:54,-2.05131614,1.39569374,-1.18871238,0.35468176,-0.25052932,-0.1688412999999999,-8.680777019999999,32.414192220000004,-30.11691752,24.52820584,-2.617024962,1.112904324,0.3142306407999999,0.1788096208,-0.08257312258,-0.3021936182,0.0045
03:45:54,-2.045387985,1.3838403849999998,-1.176410495,0.34520549,-0.24835068,-0.1648515749999999,-8.697480855,32.395738905,-30.13731448,24.51294991,-2.6042836255,1.101626101,0.3212671842,0.1726667992,-0.082380130295,-0.29465330055,0.0045
03:45:54,-2.03945983,1.37198703,-1.16410861,0.33572922,-0.24617204,-0.1608618499999999,-8.71418469,32.37728559,-30.15771144,24.49769398,-2.591542289,1.090347878,0.3283037276,0.1665239776,-0.08218713801,-0.2871129829,0.0045
03:45:54,-2.033531675,1.360133675,-1.151806725,0.32625295,-0.2439934,-0.1568721249999999,-8.730888525,32.358832275,-30.1781084,24.48243805,-2.5788009525,1.079069655,0.3353402709999999,0.160381156,-0.081994145725,-0.27957266525,0.0045
03:45:54,-2.02760352,1.34828032,-1.13950484,0.31677668,-0.24181476,-0.1528823999999999,-8.747592359999999,32.34037896,-30.19850536,24.46718212,-2.566059616,1.067791432,0.3423768144,0.1542383344,-0.08180115344,-0.2720323476,0.0045
03:45:54,-2.021675365,1.3364269649999998,-1.127202955,0.3073004099999999,-0.23963612,-0.1488926749999999,-8.764296195,32.321925645,-30.21890232,24.45192619,-2.5533182795,1.056513209,0.3494133578,0.1480955128,-0.081608161155,-0.26449202995,0.0045
03:45:54,-2.01574721,1.3245736099999998,-1.11490107,0.29782414,-0.23745748,-0.1449029499999999,-8.78100003,32.30347233,-30.23929928,24.43667026,-2.540576943,1.045234986,0.3564499012,0.1419526912,-0.08141516887,-0.2569517123,0.0045
03:45:54,-2.009819055,1.312720255,-1.102599185,0.28834787,-0.23527884,-0.1409132249999999,-8.797703864999999,32.285019015,-30.25969624,24.42141433,-2.5278356065,1.033956763,0.3634864446,0.1358098696,-0.081222176585,-0.2494113946499999,0.0045
03:45:54,-2.0038909,1.3008669,-1.0902973,0.2788716,-0.2331002,-0.1369234999999999,-8.8144077,32.2665657,-30.2800932,24.4061584,-2.51509427,1.02267854,0.370522988,0.129667048,-0.0810291843,-0.241871077,0.0045
03:45:54,-1.997962745,1.289013545,-1.077995415,0.26939533,-0.23092156,-0.1329337749999999,-8.831111535,32.248112385,-30.30049016,24.39090247,-2.5023529335,1.011400317,0.3775595314,0.1235242264,-0.080836192015,-0.2343307593499999,0.0045
03:45:54,-1.99203459,1.27716019,-1.06569353,0.25991906,-0.22874292,-0.1289440499999999,-8.84781537,32.229659070000004,-30.32088712,24.37564654,-2.489611597,1.000122094,0.3845960748,0.1173814048,-0.08064319973,-0.2267904416999999,0.0045
03:45:54,-1.986106435,1.265306835,-1.053391645,0.25044279,-0.22656428,-0.1249543249999999,-8.864519204999999,32.211205755,-30.34128408,24.36039061,-2.4768702605,0.988843871,0.3916326182,0.1112385832,-0.080450207445,-0.21925012405,0.0045
03:45:54,-1.98017828,1.25345348,-1.04108976,0.24096652,-0.22438564,-0.1209645999999999,-8.88122304,32.19275244,-30.36168104,24.34513468,-2.464128924,0.977565648,0.3986691616,0.1050957616,-0.08025721516,-0.2117098063999999,0.0045
03:45:54,-1.974250125,1.241600125,-1.028787875,0.23149025,-0.222207,-0.1169748749999999,-8.897926875,32.174299125,-30.382078,24.32987875,-2.4513875875,0.966287425,0.405705705,0.09895294,-0.080064222875,-0.20416948875,0.0045
03:45:54,-1.96832197,1.22974677,-1.01648599,0.22201398,-0.22002836,-0.1129851499999999,-8.914630709999999,32.15584581,-30.40247496,24.31462282,-2.438646251,0.955009202,0.4127422483999999,0.0928101184,-0.07987123059,-0.1966291710999999,0.0045
03:45:54,-1.962393815,1.2178934149999998,-1.004184105,0.21253771,-0.21784972,-0.1089954249999999,-8.931334545,32.137392495,-30.42287192,24.29936689,-2.4259049145,0.943730979,0.4197787918,0.0866672968,-0.079678238305,-0.1890888534499999,0.0045
03:45:54,-1.95646566,1.20604006,-0.99188222,0.2030614399999999,-0.21567108,-0.1050056999999999,-8.94803838,32.11893918,-30.44326888,24.28411096,-2.4131635780000003,0.932452756,0.4268153352,0.0805244752,-0.07948524602,-0.1815485358,0.0045
03:45:54,-1.950537505,1.194186705,-0.979580335,0.19358517,-0.21349244,-0.1010159749999999,-8.964742215,32.100485865,-30.46366584,24.26885503,-2.4004222415000003,0.921174533,0.4338518785999999,0.0743816536,-0.079292253735,-0.1740082181499999,0.0045
03:45:54,-1.94460935,1.18233335,-0.96727845,0.1841089,-0.2113138,-0.0970262499999999,-8.981446049999999,32.08203255,-30.4840628,24.2535991,-2.387680905,0.90989631,0.440888422,0.068238832,-0.07909926145,-0.1664679005,0.0045
03:45:54,-1.938681195,1.170479995,-0.954976565,0.17463263,-0.20913516,-0.0930365249999999,-8.998149885,32.063579235,-30.50445976,24.23834317,-2.3749395685,0.898618087,0.4479249654,0.0620960104,-0.078906269165,-0.1589275828499999,0.0045
03:45:54,-1.93275304,1.15862664,-0.94267468,0.16515636,-0.20695652,-0.0890467999999999,-9.01485372,32.045125920000004,-30.52485672,24.22308724,-2.362198232,0.887339864,0.4549615087999999,0.0559531888,-0.07871327688,-0.1513872651999999,0.0045
03:45:54,-1.926824885,1.146773285,-0.930372795,0.15568009,-0.20477788,-0.0850570749999999,-9.031557555,32.026672605,-30.54525368,24.20783131,-2.3494568955,0.876061641,0.4619980522,0.0498103672,-0.078520284595,-0.14384694755,0.0045
03:45:54,-1.92089673,1.13491993,-0.91807091,0.1462038199999999,-0.20259924,-0.0810673499999999,-9.04826139,32.00821929,-30.56565064,24.19257538,-2.336715559,0.864783418,0.4690345956,0.0436675456,-0.07832729231,-0.1363066298999999,0.0045
03:45:54,-1.914968575,1.123066575,-0.905769025,0.1367275499999999,-0.2004206,-0.0770776249999999,-9.064965225,31.989765975,-30.5860476,24.17731945,-2.3239742225,0.853505195,0.476071139,0.037524724,-0.078134300025,-0.1287663122499999,0.0045
03:45:54,-1.90904042,1.11121322,-0.89346714,0.12725128,-0.19824196,-0.0730878999999999,-9.08166906,31.97131266,-30.60644456,24.16206352,-2.311232886,0.842226972,0.4831076824,0.0313819024,-0.07794130774,-0.1212259946,0.0045
03:45:54,-1.903112265,1.0993598649999998,-0.881165255,0.11777501,-0.1960633199999999,-0.0690981749999999,-9.098372895,31.952859345,-30.62684152,24.14680759,-2.2984915495,0.830948749,0.4901442258,0.0252390808,-0.077748315455,-0.1136856769499999,0.0045
03:45:54,-1.89718411,1.08750651,-0.8688633699999999,0.10829874,-0.19388468,-0.0651084499999999,-9.11507673,31.93440603,-30.64723848,24.13155166,-2.285750213,0.8196705259999999,0.4971807692,0.0190962592,-0.07755532317,-0.1061453592999999,0.0045
03:45:54,-1.891255955,1.075653155,-0.856561485,0.09882247,-0.19170604,-0.0611187249999999,-9.131780565,31.915952715,-30.66763544,24.11629573,-2.2730088765,0.808392303,0.5042173126,0.0129534376,-0.077362330885,-0.09860504165,0.0045
03:45:54,-1.8853278,1.0637998,-0.8442596,0.0893461999999999,-0.1895274,-0.0571289999999999,-9.1484844,31.8974994,-30.6880324,24.1010398,-2.26026754,0.79711408,0.511253856,0.006810616,-0.0771693386,-0.0910647239999999,0.0045
03:45:54,-1.879399645,1.051946445,-0.8319577149999999,0.0798699299999999,-0.18734876,-0.0531392749999999,-9.165188235,31.879046085,-30.70842936,24.08578387,-2.2475262035,0.7858358569999999,0.5182903994,0.0006677944,-0.076976346315,-0.0835244063499999,0.0045
03:45:54,-1.87347149,1.04009309,-0.81965583,0.07039366,-0.18517012,-0.0491495499999999,-9.18189207,31.86059277,-30.72882632,24.07052794,-2.234784867,0.774557634,0.5253269428,-0.0054750271999999,-0.07678335403,-0.0759840886999999,0.0045
03:45:54,-1.867543335,1.028239735,-0.807353945,0.06091739,-0.18299148,-0.0451598249999999,-9.198595905,31.842139455,-30.74922328,24.05527201,-2.2220435305,0.763279411,0.5323634862,-0.0116178487999999,-0.076590361745,-0.0684437710499999,0.0045
03:45:54,-1.86161518,1.01638638,-0.79505206,0.05144112,-0.18081284,-0.0411700999999999,-9.21529974,31.82368614,-30.76962024,24.04001608,-2.209302194,0.7520011879999999,0.5394000296,-0.0177606703999999,-0.07639736946,-0.0609034533999999,0.0045
03:45:54,-1.855687025,1.004533025,-0.782750175,0.04196485,-0.1786342,-0.0371803749999999,-9.232003575,31.805232825,-30.7900172,24.02476015,-2.1965608575,0.740722965,0.546436573,-0.0239034919999999,-0.076204377175,-0.0533631357499999,0.0045
03:45:54,-1.84975887,0.99267967,-0.7704482899999999,0.0324885799999999,-0.17645556,-0.0331906499999999,-9.24870741,31.78677951,-30.81041416,24.00950422,-2.183819521,0.729444742,0.5534731164,-0.0300463135999999,-0.07601138489,-0.0458228180999999,0.0045
03:45:54,-1.843830715,0.980826315,-0.758146405,0.0230123099999999,-0.17427692,-0.0292009249999999,-9.265411245,31.768326195,-30.83081112,23.99424829,-2.1710781845,0.718166519,0.5605096598,-0.0361891352,-0.075818392605,-0.0382825004499999,0.0045
03:45:54,-1.83790256,0.96897296,-0.7458445199999999,0.01353604,-0.17209828,-0.0252111999999999,-9.28211508,31.74987288,-30.85120808,23.97899236,-2.1583368480000003,0.706888296,0.5675462032,-0.0423319567999999,-0.07562540032,-0.0307421827999999,0.0045
03:45:54,-1.831974405,0.957119605,-0.7335426349999999,0.00405977,-0.16991964,-0.0212214749999999,-9.298818915,31.731419565,-30.87160504,23.96373643,-2.1455955115,0.695610073,0.5745827466,-0.0484747783999999,-0.075432408035,-0.02320186515,0.0045
03:45:54,-1.82604625,0.94526625,-0.72124075,-0.0054164999999999,-0.167741,-0.0172317499999999,-9.31552275,31.71296625,-30.892002,23.9484805,-2.1328541750000003,0.68433185,0.58161929,-0.0546175999999999,-0.07523941575,-0.0156615474999999,0.0045
03:45:54,-1.820118095,0.933412895,-0.7089388649999999,-0.01489277,-0.16556236,-0.0132420249999999,-9.332226585,31.694512935,-30.91239896,23.93322457,-2.1201128385,0.6730536269999999,0.5886558334,-0.0607604215999999,-0.075046423465,-0.0081212298499999,0.0045
03:45:54,-1.81418994,0.92155954,-0.69663698,-0.02436904,-0.16338372,-0.0092522999999999,-9.34893042,31.67605962,-30.93279592,23.91796864,-2.107371502,0.661775404,0.5956923768,-0.0669032431999999,-0.07485343118,-0.0005809121999999,0.0045
03:45:54,-1.808261785,0.909706185,-0.6843350949999999,-0.0338453099999999,-0.16120508,-0.0052625749999999,-9.365634255,31.657606305,-30.95319288,23.90271271,-2.0946301655,0.650497181,0.6027289202,-0.0730460647999999,-0.074660438895,0.00695940545,0.0045
03:45:54,-1.80233363,0.8978528299999999,-0.6720332099999999,-0.04332158,-0.15902644,-0.0012728499999999,-9.38233809,31.63915299,-30.97358984,23.88745678,-2.081888829,0.639218958,0.6097654636000001,-0.0791888863999999,-0.07446744661,0.0144997231,0.0045
03:45:54,-1.7964054749999998,0.885999475,-0.659731325,-0.0527978499999999,-0.1568478,0.002716875,-9.399041925,31.620699675,-30.9939868,23.87220085,-2.0691474925,0.6279407349999999,0.616802007,-0.0853317079999999,-0.074274454325,0.02204004075,0.0045
03:45:54,-1.79047732,0.8741461199999999,-0.6474294399999999,-0.06227412,-0.15466916,0.0067066,-9.41574576,31.60224636,-31.01438376,23.85694492,-2.056406156,0.616662512,0.6238385504,-0.0914745295999999,-0.07408146204,0.0295803584,0.0045
03:45:54,-1.7845491649999998,0.862292765,-0.635127555,-0.07175039,-0.15249052,0.010696325,-9.432449595,31.583793045,-31.03478072,23.84168899,-2.0436648195,0.605384289,0.6308750938000001,-0.0976173511999999,-0.073888469755,0.03712067605,0.0045
03:45:54,-1.77862101,0.8504394099999999,-0.6228256699999999,-0.0812266599999999,-0.15031188,0.01468605,-9.44915343,31.56533973,-31.05517768,23.82643306,-2.030923483,0.5941060659999999,0.6379116372,-0.1037601728,-0.07369547747,0.0446609937,0.0045
03:45:54,-1.7726928549999998,0.8385860549999999,-0.6105237849999999,-0.09070293,-0.14813324,0.018675775,-9.465857265,31.546886415,-31.07557464,23.81117713,-2.0181821465,0.582827843,0.6449481806,-0.1099029943999999,-0.073502485185,0.05220131135,0.0045
03:45:54,-1.7667647,0.8267327,-0.5982219,-0.1001791999999999,-0.1459546,0.0226655,-9.4825611,31.5284331,-31.0959716,23.7959212,-2.00544081,0.57154962,0.6519847240000001,-0.1160458159999999,-0.0733094929,0.059741629,0.0045
03:45:54,-1.760836545,0.8148793449999999,-0.5859200149999999,-0.10965547,-0.14377596,0.026655225,-9.499264935,31.509979785,-31.11636856,23.78066527,-1.9926994735,0.560271397,0.6590212674,-0.1221886375999999,-0.073116500615,0.06728194665,0.0045
03:45:54,-1.7549083899999998,0.80302599,-0.57361813,-0.1191317399999999,-0.14159732,0.03064495,-9.51596877,31.49152647,-31.13676552,23.76540934,-1.979958137,0.5489931739999999,0.6660578107999999,-0.1283314592,-0.07292350833,0.0748222643,0.0045
03:45:54,-1.748980235,0.7911726349999999,-0.5613162449999999,-0.12860801,-0.13941868,0.034634675,-9.532672605,31.473073155,-31.15716248,23.75015341,-1.9672168005,0.537714951,0.6730943542000001,-0.1344742807999999,-0.072730516045,0.08236258195,0.0045
03:45:54,-1.74305208,0.77931928,-0.5490143599999999,-0.13808428,-0.13724004,0.0386244,-9.54937644,31.45461984,-31.17755944,23.73489748,-1.954475464,0.526436728,0.6801308976,-0.1406171023999999,-0.07253752376,0.0899028996,0.0045
03:45:54,-1.737123925,0.767465925,-0.536712475,-0.1475605499999999,-0.1350614,0.042614125,-9.566080275,31.436166525,-31.1979564,23.71964155,-1.9417341275,0.5151585049999999,0.6871674409999999,-0.1467599239999999,-0.072344531475,0.09744321725,0.0045
03:45:54,-1.7311957699999998,0.7556125699999999,-0.5244105899999999,-0.15703682,-0.13288276,0.04660385,-9.58278411,31.41771321,-31.21835336,23.70438562,-1.928992791,0.503880282,0.6942039844000001,-0.1529027455999999,-0.07215153919,0.1049835349,0.0045
03:45:54,-1.725267615,0.743759215,-0.5121087049999999,-0.1665130899999999,-0.13070412,0.050593575,-9.599487945,31.399259895,-31.23875032,23.68912969,-1.9162514545,0.492602059,0.7012405278,-0.1590455671999999,-0.071958546905,0.11252385255,0.0045
03:45:54,-1.7193394599999998,0.7319058599999999,-0.4998068199999999,-0.17598936,-0.12852548,0.0545833,-9.61619178,31.38080658,-31.25914728,23.67387376,-1.903510118,0.4813238359999999,0.7082770711999999,-0.1651883887999999,-0.07176555462,0.1200641702,0.0045
03:45:54,-1.713411305,0.720052505,-0.4875049349999999,-0.18546563,-0.12634684,0.058573025,-9.632895615,31.362353265,-31.27954424,23.65861783,-1.8907687815,0.4700456129999999,0.7153136146,-0.1713312104,-0.071572562335,0.12760448785,0.0045
03:45:54,-1.7074831499999998,0.70819915,-0.4752030499999999,-0.1949419,-0.1241682,0.06256275,-9.64959945,31.34389995,-31.2999412,23.6433619,-1.878027445,0.45876739,0.722350158,-0.1774740319999999,-0.07137957005,0.1351448055,0.0045
03:45:54,-1.701554995,0.6963457949999999,-0.4629011649999999,-0.20441817,-0.12198956,0.066552475,-9.666303285,31.325446635,-31.32033816,23.62810597,-1.8652861085,0.4474891669999999,0.7293867014,-0.1836168535999999,-0.071186577765,0.14268512315,0.0045
03:45:54,-1.69562684,0.68449244,-0.4505992799999999,-0.2138944399999999,-0.11981092,0.0705422,-9.68300712,31.30699332,-31.34073512,23.61285004,-1.852544772,0.4362109439999999,0.7364232448000001,-0.1897596751999999,-0.07099358548,0.1502254408,0.0045
03:45:54,-1.689698685,0.6726390849999999,-0.4382973949999998,-0.22337071,-0.11763228,0.074531925,-9.699710955,31.288540005,-31.36113208,23.59759411,-1.8398034355,0.424932721,0.7434597882,-0.1959024968,-0.070800593195,0.15776575845,0.0045
03:45:54,-1.68377053,0.66078573,-0.4259955099999999,-0.2328469799999999,-0.11545364,0.07852165,-9.71641479,31.27008669,-31.38152904,23.58233818,-1.827062099,0.413654498,0.7504963316,-0.2020453183999999,-0.07060760091,0.1653060761,0.0045
03:45:54,-1.677842375,0.648932375,-0.4136936249999999,-0.24232325,-0.113275,0.082511375,-9.733118625,31.251633375,-31.401926,23.56708225,-1.8143207625,0.4023762749999999,0.7575328750000001,-0.2081881399999999,-0.070414608625,0.17284639375,0.0045
03:45:54,-1.67191422,0.6370790199999999,-0.4013917399999999,-0.25179952,-0.11109636,0.0865011,-9.74982246,31.23318006,-31.42232296,23.55182632,-1.801579426,0.3910980519999999,0.7645694184,-0.2143309615999999,-0.07022161634,0.1803867114,0.0045
03:45:54,-1.6659860649999998,0.625225665,-0.3890898549999999,-0.2612757899999999,-0.10891772,0.090490825,-9.766526294999998,31.214726745,-31.44271992,23.53657039,-1.7888380895,0.379819829,0.7716059618,-0.2204737832,-0.070028624055,0.18792702905,0.0045
03:45:54,-1.66005791,0.6133723099999999,-0.3767879699999998,-0.27075206,-0.10673908,0.09448055,-9.78323013,31.19627343,-31.46311688,23.52131446,-1.776096753,0.3685416059999999,0.7786425052000001,-0.2266166047999999,-0.06983563177,0.1954673467,0.0045
03:45:54,-1.654129755,0.601518955,-0.3644860849999999,-0.2802283299999999,-0.10456044,0.098470275,-9.799933965,31.177820115,-31.48351384,23.50605853,-1.7633554165,0.3572633829999999,0.7856790486,-0.2327594263999999,-0.069642639485,0.20300766435,0.0045
03:45:54,-1.6482016,0.5896656,-0.3521841999999999,-0.2897046,-0.1023818,0.10246,-9.8166378,31.1593668,-31.5039108,23.4908026,-1.75061408,0.3459851599999999,0.792715592,-0.2389022479999999,-0.0694496472,0.210547982,0.0045
03:45:54,-1.6422734449999998,0.577812245,-0.3398823149999999,-0.29918087,-0.10020316,0.106449725,-9.833341635,31.140913485,-31.52430776,23.47554667,-1.7378727435,0.334706937,0.7997521354000001,-0.2450450695999999,-0.069256654915,0.2180882996499999,0.0045
03:45:54,-1.63634529,0.56595889,-0.3275804299999998,-0.30865714,-0.09802452,0.11043945,-9.85004547,31.12246017,-31.54470472,23.46029074,-1.725131407,0.3234287139999999,0.8067886788,-0.2511878911999999,-0.06906366263,0.2256286173,0.0045
03:45:54,-1.630417135,0.5541055349999999,-0.3152785449999999,-0.31813341,-0.09584588,0.114429175,-9.866749305,31.104006855,-31.56510168,23.44503481,-1.7123900705,0.3121504909999999,0.8138252222,-0.2573307127999999,-0.068870670345,0.23316893495,0.0045
03:45:54,-1.62448898,0.54225218,-0.3029766599999999,-0.3276096799999999,-0.09366724,0.1184189,-9.88345314,31.08555354,-31.58549864,23.42977888,-1.699648734,0.300872268,0.8208617655999999,-0.2634735344,-0.06867767806,0.2407092526000001,0.0045
03:45:54,-1.618560825,0.530398825,-0.2906747749999998,-0.33708595,-0.0914886,0.122408625,-9.900156975,31.067100225,-31.6058956,23.41452295,-1.6869073975,0.2895940449999999,0.827898309,-0.269616356,-0.068484685775,0.24824957025,0.0045
03:45:54,-1.61263267,0.5185454700000001,-0.27837289,-0.34656222,-0.08930996,0.12639835,-9.91686081,31.04864691,-31.62629256,23.39926702,-1.674166061,0.2783158219999999,0.8349348524,-0.2757591776,-0.06829169349,0.2557898879,0.0045
03:45:54,-1.606704515,0.5066921149999999,-0.2660710049999999,-0.35603849,-0.08713132,0.130388075,-9.933564645,31.030193595,-31.64668952,23.38401109,-1.6614247245,0.2670375989999999,0.8419713957999999,-0.2819019991999999,-0.068098701205,0.2633302055500001,0.0045
03:45:54,-1.6007763599999998,0.4948387599999999,-0.2537691199999998,-0.36551476,-0.08495268,0.1343778,-9.95026848,31.01174028,-31.66708648,23.36875516,-1.648683388,0.255759376,0.8490079392000001,-0.2880448207999999,-0.06790570892,0.2708705232,0.0045
03:45:54,-1.594848205,0.482985405,-0.2414672349999997,-0.37499103,-0.08277404,0.138367525,-9.966972315,30.993286965,-31.68748344,23.35349923,-1.6359420515,0.2444811529999999,0.8560444826,-0.2941876423999999,-0.067712716635,0.27841084085,0.0045
03:45:54,-1.58892005,0.47113205,-0.2291653499999999,-0.3844673,-0.0805954,0.14235725,-9.98367615,30.97483365,-31.7078804,23.3382433,-1.623200715,0.23320293,0.8630810259999999,-0.3003304639999999,-0.06751972435,0.2859511585000001,0.0045
03:45:54,-1.582991895,0.459278695,-0.2168634649999998,-0.3939435699999999,-0.07841676,0.146346975,-10.000379985,30.956380335,-31.72827736,23.32298737,-1.6104593785,0.2219247069999999,0.8701175694000001,-0.3064732856,-0.067326732065,0.29349147615,0.0045
03:45:54,-1.5770637399999998,0.4474253399999999,-0.2045615799999998,-0.40341984,-0.07623812,0.1503367,-10.01708382,30.93792702,-31.74867432,23.30773144,-1.597718042,0.2106464839999999,0.8771541128,-0.3126161072,-0.06713373978,0.3010317938,0.0045
03:45:54,-1.571135585,0.4355719849999999,-0.1922596949999999,-0.41289611,-0.07405948,0.154326425,-10.033787655,30.919473705,-31.76907128,23.29247551,-1.5849767055,0.199368261,0.8841906561999999,-0.3187589288,-0.066940747495,0.3085721114500001,0.0045
03:45:54,-1.56520743,0.42371863,-0.1799578099999998,-0.42237238,-0.07188084,0.15831615,-10.05049149,30.90102039,-31.78946824,23.27721958,-1.572235369,0.1880900379999999,0.8912271996000001,-0.3249017504,-0.06674775521,0.3161124291,0.0045
03:45:54,-1.559279275,0.411865275,-0.1676559249999998,-0.43184865,-0.0697022,0.162305875,-10.067195325,30.882567075,-31.8098652,23.26196365,-1.5594940325,0.1768118149999999,0.898263743,-0.3310445719999999,-0.066554762925,0.32365274675,0.0045
03:45:54,-1.55335112,0.4000119199999998,-0.1553540399999997,-0.4413249199999999,-0.06752356,0.1662956,-10.08389916,30.86411376,-31.83026216,23.24670772,-1.546752696,0.165533592,0.9053002864,-0.3371873935999999,-0.06636177064,0.3311930644,0.0045
03:45:54,-1.547422965,0.3881585649999999,-0.1430521549999999,-0.45080119,-0.06534492,0.170285325,-10.100602995,30.845660445,-31.85065912,23.23145179,-1.5340113595,0.1542553689999999,0.9123368298,-0.3433302151999999,-0.066168778355,0.33873338205,0.0045
03:45:54,-1.54149481,0.3763052099999999,-0.1307502699999998,-0.4602774599999999,-0.06316628,0.17427505,-10.11730683,30.82720713,-31.87105608,23.21619586,-1.521270023,0.142977146,0.9193733732,-0.3494730367999999,-0.06597578607,0.3462736997,0.0045
03:45:54,-1.5355666549999998,0.364451855,-0.1184483849999997,-0.46975373,-0.06098764,0.178264775,-10.134010665,30.808753815,-31.89145304,23.20093993,-1.5085286865,0.1316989229999998,0.9264099166,-0.3556158584,-0.065782793785,0.35381401735,0.0045
03:45:54,-1.5296385,0.3525985,-0.1061464999999999,-0.47923,-0.058809,0.1822545,-10.1507145,30.7903005,-31.91185,23.185684,-1.49578735,0.1204206999999999,0.93344646,-0.36175868,-0.0655898015,0.361354335,0.0045
03:45:54,-1.523710345,0.3407451449999998,-0.0938446149999998,-0.48870627,-0.05663036,0.186244225,-10.167418335,30.771847185,-31.93224696,23.17042807,-1.4830460135,0.109142477,0.9404830034,-0.3679015016,-0.065396809215,0.3688946526500001,0.0045
03:45:54,-1.51778219,0.3288917899999999,-0.0815427299999997,-0.49818254,-0.05445172,0.19023395,-10.184122169999998,30.75339387,-31.95264392,23.15517214,-1.470304677,0.0978642539999998,0.9475195468,-0.3740443231999999,-0.06520381693,0.3764349703,0.0045
03:45:54,-1.5118540349999998,0.3170384349999999,-0.0692408449999999,-0.5076588099999999,-0.05227308,0.194223675,-10.200826005,30.734940555,-31.97304088,23.13991621,-1.4575633405,0.0865860309999999,0.9545560902,-0.3801871447999999,-0.065010824645,0.38397528795,0.0045
03:45:54,-1.50592588,0.30518508,-0.0569389599999998,-0.5171350800000001,-0.05009444,0.1982134,-10.21752984,30.71648724,-31.99343784,23.12466028,-1.444822004,0.075307808,0.9615926336,-0.3863299663999999,-0.06481783236,0.3915156056000001,0.0045
03:45:54,-1.499997725,0.293331725,-0.0446370749999998,-0.52661135,-0.0479158,0.202203125,-10.234233675,30.698033925,-32.0138348,23.10940435,-1.4320806675,0.0640295849999998,0.968629177,-0.3924727879999999,-0.064624840075,0.39905592325,0.0045
03:45:54,-1.49406957,0.2814783699999998,-0.0323351899999997,-0.53608762,-0.04573716,0.20619285,-10.25093751,30.67958061,-32.03423176,23.09414842,-1.419339331,0.0527513619999999,0.9756657204,-0.3986156096,-0.06443184779,0.4065962409,0.0045
03:45:54,-1.488141415,0.2696250149999999,-0.0200333049999998,-0.5455638900000002,-0.04355852,0.210182575,-10.267641345,30.661127295,-32.05462872,23.07889249,-1.4065979945,0.041473139,0.9827022638,-0.4047584312,-0.064238855505,0.4141365585500001,0.0045
03:45:54,-1.48221326,0.2577716599999999,-0.0077314199999998,-0.5550401600000001,-0.04137988,0.2141723,-10.28434518,30.64267398,-32.07502568,23.06363656,-1.393856658,0.0301949159999999,0.9897388072,-0.4109012528,-0.06404586322,0.4216768762,0.0045
03:45:54,-1.476285105,0.245918305,0.0045704650000002,-0.5645164300000001,-0.03920124,0.218162025,-10.301049015,30.624220665,-32.09542264,23.04838063,-1.3811153215,0.0189166929999999,0.9967753506,-0.4170440744,-0.063852870935,0.42921719385,0.0045
03:45:54,-1.4703569499999998,0.23406495,0.01687235,-0.5739927,-0.0370226,0.22215175,-10.31775285,30.60576735,-32.1158196,23.0331247,-1.368373985,0.0076384699999998,1.003811894,-0.4231868959999999,-0.06365987865,0.4367575115000001,0.0045
03:45:54,-1.464428795,0.2222115949999998,0.0291742350000001,-0.58346897,-0.03484396,0.226141475,-10.334456685,30.587314035,-32.13621656,23.01786877,-1.3556326485,-0.003639753,1.0108484374,-0.4293297175999999,-0.063466886365,0.44429782915,0.0045
03:45:54,-1.45850064,0.2103582399999999,0.0414761200000002,-0.5929452400000002,-0.03266532,0.2301312,-10.35116052,30.56886072,-32.15661352,23.00261284,-1.342891312,-0.014917976,1.0178849808,-0.4354725391999999,-0.06327389408,0.4518381468,0.0045
03:45:54,-1.452572485,0.1985048849999999,0.053778005,-0.6024215100000001,-0.03048668,0.234120925,-10.367864354999998,30.550407405,-32.17701048,22.98735691,-1.3301499755,-0.0261961990000001,1.0249215242,-0.4416153607999999,-0.063080901795,0.4593784644500001,0.0045
03:45:54,-1.4466443299999998,0.18665153,0.0660798900000001,-0.6118977800000001,-0.02830804,0.23811065,-10.38456819,30.53195409,-32.19740744,22.97210098,-1.317408639,-0.037474422,1.0319580676,-0.4477581824,-0.06288790951,0.4669187821,0.0045
03:45:54,-1.440716175,0.174798175,0.0783817750000002,-0.62137405,-0.0261294,0.242100375,-10.401272025,30.513500775,-32.2178044,22.95684505,-1.3046673025,-0.0487526449999999,1.038994611,-0.453901004,-0.062694917225,0.47445909975,0.0045
03:45:54,-1.43478802,0.1629448199999998,0.0906836600000002,-0.63085032,-0.02395076,0.2460901,-10.41797586,30.49504746,-32.23820136,22.94158912,-1.291925966,-0.0600308680000001,1.0460311544,-0.4600438256,-0.06250192494,0.4819994174000001,0.0045
03:45:54,-1.428859865,0.1510914649999999,0.1029855450000001,-0.6403265900000001,-0.02177212,0.250079825,-10.434679695,30.476594145,-32.25859832,22.92633319,-1.2791846295,-0.071309091,1.0530676978,-0.4661866471999999,-0.062308932655,0.48953973505,0.0045
03:45:54,-1.4229317099999998,0.1392381099999999,0.1152874300000001,-0.6498028600000001,-0.0195934799999999,0.2540695500000001,-10.45138353,30.45814083,-32.27899528,22.91107726,-1.266443293,-0.0825873139999999,1.0601042412,-0.4723294687999999,-0.06211594037,0.4970800527,0.0045
03:45:54,-1.417003555,0.127384755,0.1275893150000002,-0.65927913,-0.0174148399999999,0.258059275,-10.468087365,30.439687515,-32.29939224,22.89582133,-1.2537019565,-0.0938655370000001,1.0671407846,-0.4784722903999999,-0.061922948085,0.5046203703500001,0.0045
03:45:54,-1.4110754,0.1155314,0.1398912000000001,-0.6687554,-0.0152362,0.2620490000000001,-10.4847912,30.4212342,-32.3197892,22.8805654,-1.24096062,-0.10514376,1.074177328,-0.4846151119999999,-0.0617299558,0.512160688,0.0045
03:45:54,-1.405147245,0.1036780449999998,0.1521930850000001,-0.6782316700000002,-0.01305756,0.266038725,-10.501495035,30.402780885,-32.34018616,22.86530947,-1.2282192835,-0.1164219829999999,1.0812138714,-0.4907579336,-0.061536963515,0.5197010056500001,0.0045
03:45:54,-1.39921909,0.0918246899999999,0.1644949700000002,-0.6877079400000001,-0.01087892,0.2700284500000001,-10.51819887,30.38432757,-32.36058312,22.85005354,-1.215477947,-0.1277002060000001,1.0882504148,-0.4969007552,-0.06134397123,0.5272413233000001,0.0045
03:45:54,-1.393290935,0.0799713349999999,0.176796855,-0.6971842100000001,-0.00870028,0.274018175,-10.534902705,30.365874255,-32.38098008,22.83479761,-1.2027366105,-0.138978429,1.0952869582,-0.5030435768,-0.061150978945,0.53478164095,0.0045
03:45:54,-1.38736278,0.06811798,0.1890987400000001,-0.70666048,-0.0065216399999999,0.2780079000000001,-10.55160654,30.34742094,-32.40137704,22.81954168,-1.189995274,-0.1502566520000001,1.1023235016,-0.5091863984,-0.06095798666,0.5423219586000001,0.0045
03:45:54,-1.3814346249999998,0.056264625,0.2014006250000002,-0.71613675,-0.0043429999999999,0.281997625,-10.568310375,30.328967625,-32.421774,22.80428575,-1.1772539375,-0.161534875,1.109360045,-0.5153292199999999,-0.060764994375,0.5498622762500001,0.0045
03:45:54,-1.37550647,0.0444112699999998,0.2137025100000003,-0.7256130200000002,-0.00216436,0.2859873500000001,-10.58501421,30.31051431,-32.44217096,22.78902982,-1.164512601,-0.172813098,1.1163965884,-0.5214720415999999,-0.06057200209,0.5574025939,0.0045
03:45:54,-1.369578315,0.0325579149999999,0.2260043950000001,-0.7350892900000001,1.4279999999977644e-05,0.289977075,-10.601718044999998,30.292060995,-32.46256792,22.77377389,-1.1517712645,-0.1840913210000001,1.1234331318,-0.5276148632,-0.060379009805,0.5649429115500001,0.0045
03:45:54,-1.36365016,0.0207045599999999,0.2383062800000002,-0.7445655600000001,0.0021929199999999,0.2939668000000001,-10.61842188,30.27360768,-32.48296488,22.75851796,-1.139029928,-0.195369544,1.1304696752,-0.5337576848,-0.06018601752,0.5724832292,0.0045
03:45:54,-1.3577220049999998,0.008851205,0.2506081650000002,-0.75404183,0.0043715599999999,0.2979565250000001,-10.635125715,30.255154365,-32.50336184,22.74326203,-1.1262885915,-0.2066477669999999,1.1375062186,-0.5399005064,-0.059993025235,0.58002354685,0.0045
03:45:54,-1.35179385,-0.0030021499999999,0.2629100500000001,-0.7635181,0.0065502,0.3019462500000001,-10.65182955,30.23670105,-32.5237588,22.7280061,-1.113547255,-0.2179259900000001,1.144542762,-0.546043328,-0.05980003295,0.5875638645000001,0.0045
03:45:54,-1.345865695,-0.0148555050000001,0.2752119350000002,-0.7729943700000002,0.0087288399999999,0.3059359750000001,-10.668533385,30.218247735,-32.54415576,22.71275017,-1.1008059185,-0.229204213,1.1515793054,-0.5521861496,-0.059607040665,0.59510418215,0.0045
03:45:54,-1.33993754,-0.02670886,0.2875138200000002,-0.7824706400000001,0.0109074799999999,0.3099257000000001,-10.68523722,30.19979442,-32.56455272,22.69749424,-1.088064582,-0.2404824359999999,1.1586158488,-0.5583289711999999,-0.05941404838,0.6026444998,0.0045
03:45:54,-1.334009385,-0.038562215,0.2998157050000003,-0.7919469100000001,0.0130861199999999,0.3139154250000001,-10.701941055,30.181341105,-32.58494968,22.68223831,-1.0753232455,-0.2517606590000001,1.1656523922,-0.5644717927999999,-0.059221056095,0.61018481745,0.0045
03:45:54,-1.32808123,-0.0504155699999999,0.3121175900000001,-0.80142318,0.0152647599999999,0.3179051500000001,-10.71864489,30.16288779,-32.60534664,22.66698238,-1.062581909,-0.263038882,1.1726889356,-0.5706146143999999,-0.05902806381,0.6177251351000002,0.0045
03:45:54,-1.322153075,-0.0622689249999999,0.3244194750000002,-0.81089945,0.0174433999999999,0.3218948750000001,-10.735348725,30.144434475,-32.6257436,22.65172645,-1.0498405725,-0.2743171050000001,1.179725479,-0.576757436,-0.058835071525,0.6252654527500001,0.0045
03:45:54,-1.3162249199999998,-0.0741222800000001,0.3367213600000003,-0.8203757200000001,0.01962204,0.3258846000000001,-10.75205256,30.12598116,-32.64614056,22.63647052,-1.037099236,-0.2855953280000001,1.1867620224,-0.5829002576,-0.05864207924,0.6328057704000001,0.0045
03:45:54,-1.310296765,-0.085975635,0.3490232450000001,-0.8298519900000001,0.0218006799999999,0.3298743250000001,-10.768756395,30.107527845,-32.66653752,22.62121459,-1.0243578995,-0.296873551,1.1937985658,-0.5890430792,-0.058449086955,0.64034608805,0.0045
03:45:54,-1.30436861,-0.09782899,0.3613251300000002,-0.83932826,0.0239793199999999,0.3338640500000001,-10.785460229999998,30.08907453,-32.68693448,22.60595866,-1.011616563,-0.3081517740000001,1.2008351092,-0.5951859008,-0.05825609467,0.6478864057,0.0045
03:45:54,-1.298440455,-0.1096823449999999,0.3736270150000003,-0.84880453,0.0261579599999999,0.3378537750000001,-10.802164065,30.070621215,-32.70733144,22.59070273,-0.9988752265,-0.3194299970000001,1.2078716526,-0.6013287224,-0.058063102385,0.65542672335,0.0045
03:45:54,-1.2925122999999998,-0.1215356999999999,0.3859289000000001,-0.8582808000000002,0.0283365999999999,0.3418435000000001,-10.8188679,30.0521679,-32.7277284,22.5754468,-0.98613389,-0.33070822,1.214908196,-0.6074715439999999,-0.0578701101,0.6629670410000001,0.0045
03:45:54,-1.286584145,-0.1333890550000001,0.3982307850000002,-0.8677570700000001,0.03051524,0.3458332250000001,-10.835571734999998,30.033714585,-32.74812536,22.56019087,-0.9733925535,-0.3419864430000001,1.2219447394,-0.6136143655999999,-0.057677117815,0.6705073586500001,0.0045
03:45:54,-1.28065599,-0.14524241,0.4105326700000002,-0.8772333400000001,0.03269388,0.3498229500000001,-10.85227557,30.01526127,-32.76852232,22.54493494,-0.960651217,-0.353264666,1.2289812828,-0.6197571872,-0.05748412553,0.6780476763000001,0.0045
03:45:54,-1.274727835,-0.157095765,0.4228345550000003,-0.88670961,0.0348725199999999,0.3538126750000001,-10.868979405,29.996807955,-32.78891928,22.52967901,-0.9479098805,-0.364542889,1.2360178262,-0.6259000088,-0.057291133245,0.68558799395,0.0045
03:45:54,-1.26879968,-0.1689491199999999,0.4351364400000002,-0.89618588,0.0370511599999999,0.3578024000000001,-10.88568324,29.97835464,-32.80931624,22.51442308,-0.935168544,-0.3758211120000001,1.2430543696,-0.6320428304,-0.05709814096,0.6931283116,0.0045
03:45:54,-1.262871525,-0.1808024749999999,0.4474383250000002,-0.9056621500000002,0.0392297999999999,0.3617921250000001,-10.902387075,29.959901325,-32.8297132,22.49916715,-0.9224272075,-0.387099335,1.250090913,-0.638185652,-0.056905148675,0.70066862925,0.0045
03:45:54,-1.25694337,-0.19265583,0.4597402100000003,-0.91513842,0.0414084399999999,0.3657818500000001,-10.91909091,29.94144801,-32.85011016,22.48391122,-0.909685871,-0.3983775579999999,1.2571274564,-0.6443284736,-0.05671215639,0.7082089469000001,0.0045
03:45:54,-1.251015215,-0.204509185,0.4720420950000001,-0.92461469,0.04358708,0.3697715750000001,-10.935794745,29.922994695,-32.87050712,22.46865529,-0.8969445345,-0.4096557810000001,1.2641639998,-0.6504712951999999,-0.056519164105,0.7157492645500001,0.0045
03:45:54,-1.24508706,-0.21636254,0.4843439800000002,-0.93409096,0.04576572,0.3737613000000001,-10.95249858,29.90454138,-32.89090408,22.45339936,-0.884203198,-0.420934004,1.2712005432,-0.6566141167999999,-0.05632617182,0.7232895822000001,0.0045
03:45:54,-1.239158905,-0.2282158949999999,0.4966458650000003,-0.94356723,0.0479443599999999,0.3777510250000001,-10.969202414999998,29.886088065,-32.91130104,22.43814343,-0.8714618615,-0.4322122270000001,1.2782370866,-0.6627569383999999,-0.056133179535,0.73082989985,0.0045
03:45:54,-1.23323075,-0.2400692499999999,0.5089477500000001,-0.9530435000000002,0.0501229999999999,0.3817407500000001,-10.98590625,29.86763475,-32.931698,22.4228875,-0.8587205250000001,-0.4434904500000001,1.28527363,-0.66889976,-0.05594018725,0.7383702175,0.0045
03:45:54,-1.2273025949999998,-0.2519226050000001,0.5212496350000002,-0.96251977,0.0523016399999999,0.3857304750000001,-11.002610085,29.849181435,-32.95209496,22.40763157,-0.8459791885000001,-0.454768673,1.2923101734,-0.6750425816,-0.055747194965,0.7459105351500002,0.0045
03:45:54,-1.22137444,-0.26377596,0.5335515200000003,-0.97199604,0.0544802799999999,0.3897202,-11.019313919999998,29.83072812,-32.97249192,22.39237564,-0.8332378520000001,-0.4660468960000001,1.2993467168,-0.6811854032,-0.05555420268,0.7534508528000001,0.0045
03:45:54,-1.215446285,-0.275629315,0.5458534050000003,-0.98147231,0.05665892,0.3937099250000001,-11.036017755,29.812274805,-32.99288888,22.37711971,-0.8204965154999999,-0.4773251190000001,1.3063832602,-0.6873282248,-0.055361210395,0.7609911704500001,0.0045
03:45:54,-1.20951813,-0.2874826699999999,0.5581552900000002,-0.99094858,0.05883756,0.39769965,-11.05272159,29.79382149,-33.01328584,22.36186378,-0.8077551789999999,-0.488603342,1.3134198036,-0.6934710464,-0.05516821811,0.7685314881,0.0045
03:45:54,-1.203589975,-0.2993360249999999,0.5704571750000003,-1.00042485,0.0610161999999999,0.4016893750000001,-11.069425425,29.775368175,-33.0336828,22.34660785,-0.7950138425,-0.4998815650000001,1.320456347,-0.6996138679999999,-0.054975225825,0.77607180575,0.0045
03:45:54,-1.19766182,-0.31118938,0.5827590600000003,-1.00990112,0.0631948399999999,0.4056791,-11.08612926,29.75691486,-33.05407976,22.33135192,-0.782272506,-0.5111597880000001,1.3274928904,-0.7057566895999999,-0.05478223354,0.7836121234,0.0045
03:45:54,-1.191733665,-0.323042735,0.5950609450000002,-1.01937739,0.0653734799999999,0.4096688250000001,-11.102833095,29.738461545,-33.07447672,22.31609599,-0.7695311695,-0.522438011,1.3345294338,-0.7118995112,-0.054589241255,0.7911524410500002,0.0045
03:45:54,-1.18580551,-0.33489609,0.6073628300000002,-1.02885366,0.06755212,0.41365855,-11.11953693,29.72000823,-33.09487368,22.30084006,-0.756789833,-0.5337162340000001,1.3415659772,-0.7180423328,-0.05439624897,0.7986927587000001,0.0045
03:45:54,-1.179877355,-0.3467494449999999,0.6196647150000003,-1.0383299300000002,0.06973076,0.4176482750000001,-11.136240765,29.701554915,-33.11527064,22.28558413,-0.7440484965,-0.544994457,1.3486025206,-0.7241851544,-0.054203256685,0.8062330763500001,0.0045
03:45:54,-1.1739492,-0.3586027999999999,0.6319666000000002,-1.0478062,0.0719093999999999,0.421638,-11.1529446,29.6831016,-33.1356676,22.2703282,-0.7313071600000001,-0.5562726800000002,1.355639064,-0.730327976,-0.0540102644,0.813773394,0.0045
03:45:54,-1.168021045,-0.370456155,0.6442684850000002,-1.05728247,0.0740880399999999,0.4256277250000001,-11.169648435,29.664648285,-33.15606456,22.25507227,-0.7185658235000001,-0.5675509030000001,1.3626756074,-0.7364707976,-0.053817272115,0.82131371165,0.0045
03:45:54,-1.1620928899999998,-0.38230951,0.6565703700000003,-1.06675874,0.0762666799999999,0.42961745,-11.18635227,29.64619497,-33.17646152,22.23981634,-0.7058244870000001,-0.578829126,1.3697121508,-0.7426136191999999,-0.05362427983,0.8288540293,0.0045
03:45:54,-1.156164735,-0.394162865,0.6688722550000001,-1.07623501,0.0784453199999999,0.4336071750000001,-11.203056104999998,29.627741655,-33.19685848,22.22456041,-0.6930831505000001,-0.5901073490000002,1.3767486942,-0.7487564408,-0.053431287545,0.8363943469500001,0.0045
03:45:54,-1.15023658,-0.4060162199999999,0.6811741400000004,-1.0857112800000002,0.08062396,0.4375969,-11.21975994,29.60928834,-33.21725544,22.20930448,-0.6803418140000002,-0.6013855720000001,1.3837852376,-0.7548992623999999,-0.05323829526,0.8439346646000001,0.0045
03:45:54,-1.144308425,-0.4178695750000001,0.6934760250000003,-1.09518755,0.0828026,0.4415866250000001,-11.236463775,29.590835025,-33.2376524,22.19404855,-0.6676004775000002,-0.612663795,1.390821781,-0.7610420840000001,-0.053045302975,0.8514749822500001,0.0045
03:45:54,-1.13838027,-0.42972293,0.7057779100000001,-1.10466382,0.0849812399999999,0.44557635,-11.253167609999998,29.57238171,-33.25804936,22.17879262,-0.6548591410000002,-0.6239420180000002,1.3978583244,-0.7671849056,-0.05285231069,0.8590152999,0.0045
03:45:54,-1.132452115,-0.441576285,0.7180797950000004,-1.11414009,0.0871598799999999,0.4495660750000001,-11.269871445,29.553928395,-33.27844632,22.16353669,-0.6421178045000002,-0.6352202410000001,1.4048948678,-0.7733277271999999,-0.052659318405,0.86655561755,0.0045
03:45:54,-1.12652396,-0.4534296399999999,0.7303816800000003,-1.12361636,0.0893385199999999,0.4535558,-11.28657528,29.53547508,-33.29884328,22.14828076,-0.6293764679999998,-0.646498464,1.4119314112,-0.7794705488,-0.05246632612,0.8740959352000002,0.0045
03:45:54,-1.120595805,-0.4652829949999999,0.7426835650000001,-1.1330926300000002,0.0915171599999999,0.4575455250000001,-11.303279115,29.517021765,-33.31924024,22.13302483,-0.6166351314999998,-0.6577766870000001,1.4189679546,-0.7856133703999999,-0.052273333835,0.8816362528500001,0.0045
03:45:54,-1.11466765,-0.4771363499999999,0.7549854500000004,-1.1425689,0.0936958,0.46153525,-11.31998295,29.49856845,-33.3396372,22.1177689,-0.6038937949999998,-0.6690549100000001,1.426004498,-0.791756192,-0.05208034155,0.8891765705000001,0.0045
03:45:54,-1.108739495,-0.4889897049999998,0.7672873350000002,-1.15204517,0.09587444,0.4655249750000001,-11.336686785,29.480115135,-33.36003416,22.10251297,-0.5911524584999999,-0.680333133,1.4330410414,-0.7978990135999999,-0.051887349265,0.8967168881500001,0.0045
03:45:54,-1.10281134,-0.5008430599999998,0.7795892200000001,-1.16152144,0.0980530799999999,0.4695147,-11.35339062,29.46166182,-33.38043112,22.08725704,-0.5784111219999999,-0.6916113560000001,1.4400775848,-0.8040418352,-0.05169435698,0.9042572058,0.0045
03:45:54,-1.096883185,-0.5126964150000002,0.7918911050000004,-1.17099771,0.1002317199999999,0.4735044250000001,-11.370094454999998,29.443208505,-33.40082808,22.07200111,-0.5656697854999999,-0.702889579,1.4471141282,-0.8101846568,-0.051501364695,0.91179752345,0.0045
03:45:54,-1.09095503,-0.5245497700000001,0.8041929900000002,-1.18047398,0.1024103599999999,0.47749415,-11.386798289999998,29.42475519,-33.42122504,22.05674518,-0.5529284489999999,-0.7141678020000002,1.4541506716,-0.8163274783999999,-0.05130837241,0.9193378411000002,0.0045
03:45:54,-1.085026875,-0.5364031250000001,0.8164948750000005,-1.18995025,0.1045889999999999,0.4814838750000001,-11.403502125,29.406301875,-33.441622,22.04148925,-0.5401871125,-0.7254460250000001,1.461187215,-0.8224703,-0.051115380125,0.92687815875,0.0045
03:45:54,-1.07909872,-0.54825648,0.8287967600000004,-1.19942652,0.10676764,0.4854736,-11.42020596,29.38784856,-33.46201896,22.026233320000003,-0.527445776,-0.736724248,1.4682237584,-0.8286131215999999,-0.05092238784,0.9344184764,0.0045
03:45:54,-1.073170565,-0.560109835,0.8410986450000002,-1.20890279,0.10894628,0.4894633250000001,-11.436909794999998,29.369395245,-33.48241592,22.01097739,-0.5147044395,-0.7480024710000002,1.4752603018,-0.8347559432,-0.050729395555,0.94195879405,0.0045
03:45:54,-1.06724241,-0.57196319,0.8534005300000005,-1.2183790600000002,0.1111249199999999,0.49345305,-11.45361363,29.35094193,-33.50281288,21.99572146,-0.501963103,-0.7592806940000001,1.4822968452,-0.8408987647999999,-0.05053640327,0.9494991117,0.0045
03:45:54,-1.061314255,-0.5838165449999999,0.8657024150000003,-1.22785533,0.1133035599999999,0.4974427750000001,-11.470317465,29.332488615,-33.52320984,21.98046553,-0.4892217665,-0.7705589170000002,1.4893333886,-0.8470415864,-0.050343410985,0.95703942935,0.0045
03:45:54,-1.0553861,-0.5956698999999999,0.8780043000000002,-1.2373316,0.1154821999999999,0.5014325000000001,-11.4870213,29.3140353,-33.5436068,21.9652096,-0.47648043,-0.7818371399999999,1.496369932,-0.853184408,-0.0501504187,0.9645797470000002,0.0045
03:45:54,-1.049457945,-0.6075232549999998,0.8903061850000005,-1.24680787,0.1176608399999999,0.5054222250000001,-11.503725135,29.295581985,-33.56400376,21.94995367,-0.4637390935000001,-0.7931153630000001,1.5034064754,-0.8593272295999999,-0.049957426415,0.97212006465,0.0045
03:45:54,-1.04352979,-0.6193766099999998,0.9026080700000004,-1.25628414,0.11983948,0.5094119500000001,-11.52042897,29.27712867,-33.58440072,21.93469774,-0.4509977570000001,-0.8043935860000002,1.5104430188,-0.8654700512,-0.04976443413,0.9796603823,0.0045
03:45:54,-1.037601635,-0.6312299650000002,0.9149099550000002,-1.2657604100000002,0.12201812,0.5134016750000001,-11.537132805,29.258675355,-33.60479768,21.91944181,-0.4382564205000001,-0.8156718089999999,1.5174795622,-0.8716128727999999,-0.049571441845,0.98720069995,0.0045
03:45:54,-1.03167348,-0.6430833200000001,0.9272118400000005,-1.27523668,0.1241967599999999,0.5173914000000001,-11.55383664,29.24022204,-33.625194640000004,21.90418588,-0.4255150840000001,-0.8269500320000001,1.5245161056,-0.8777556944,-0.04937844956,0.9947410176,0.0045
03:45:54,-1.025745325,-0.6549366750000001,0.9395137250000004,-1.28471295,0.1263753999999999,0.5213811250000001,-11.570540475,29.221768725,-33.6455916,21.88892995,-0.4127737475000002,-0.8382282550000002,1.531552649,-0.8838985159999999,-0.049185457275,1.0022813352500002,0.0045
03:45:54,-1.01981717,-0.66679003,0.95181561,-1.29418922,0.1285540399999999,0.5253708500000001,-11.58724431,29.20331541,-33.66598856,21.873674020000003,-0.4000324110000002,-0.8495064779999999,1.5385891924,-0.8900413376,-0.04899246499,1.0098216529,0.0045
03:45:54,-1.013889015,-0.678643385,0.9641174950000004,-1.30366549,0.13073268,0.5293605750000001,-11.603948145,29.184862095,-33.68638552,21.85841809,-0.3872910745000002,-0.860784701,1.5456257358,-0.8961841591999999,-0.048799472705,1.01736197055,0.0045
03:45:54,-1.00796086,-0.6904967399999999,0.9764193800000004,-1.3131417600000002,0.13291132,0.5333503,-11.620651979999998,29.16640878,-33.70678248,21.84316216,-0.3745497379999998,-0.8720629240000002,1.5526622792,-0.9023269808,-0.04860648042,1.0249022882,0.0045
03:45:54,-1.002032705,-0.7023500949999999,0.988721265,-1.32261803,0.13508996,0.5373400250000001,-11.637355815,29.147955465,-33.72717944,21.82790623,-0.3618084014999998,-0.8833411469999999,1.5596988226,-0.9084698024,-0.048413488135,1.03244260585,0.0045
03:45:54,-0.99610455,-0.7142034499999999,1.0010231500000004,-1.3320943,0.1372685999999999,0.54132975,-11.65405965,29.12950215,-33.7475764,21.8126503,-0.3490670649999998,-0.89461937,1.566735366,-0.914612624,-0.04822049585,1.0399829235,0.0045
03:45:54,-0.990176395,-0.7260568049999998,1.0133250350000005,-1.34157057,0.1394472399999999,0.5453194750000001,-11.670763484999998,29.111048835,-33.76797336,21.79739437,-0.3363257284999998,-0.9058975930000002,1.5737719094,-0.9207554456,-0.048027503565,1.0475232411500002,0.0045
03:45:54,-0.98424824,-0.7379101600000002,1.0256269200000006,-1.35104684,0.1416258799999999,0.5493092000000002,-11.68746732,29.09259552,-33.78837032,21.78213844,-0.3235843919999999,-0.917175816,1.5808084528,-0.9268982672,-0.04783451128,1.0550635588,0.0045
03:45:54,-0.978320085,-0.7497635150000002,1.0379288050000004,-1.36052311,0.14380452,0.5532989250000001,-11.704171155,29.074142205,-33.80876728,21.76688251,-0.3108430554999999,-0.928454039,1.5878449962,-0.9330410888,-0.047641518995,1.06260387645,0.0045
03:45:54,-0.97239193,-0.7616168700000001,1.0502306900000002,-1.36999938,0.14598316,0.5572886500000002,-11.72087499,29.05568889,-33.82916424,21.75162658,-0.2981017189999999,-0.9397322620000002,1.5948815396,-0.9391839104,-0.04744852671,1.0701441941,0.0045
03:45:54,-0.966463775,-0.7734702250000001,1.0625325750000003,-1.37947565,0.1481617999999999,0.5612783750000001,-11.737578825,29.037235575,-33.8495612,21.73637065,-0.2853603824999999,-0.9510104850000004,1.601918083,-0.945326732,-0.047255534425,1.07768451175,0.0045
03:45:54,-0.96053562,-0.78532358,1.0748344600000004,-1.38895192,0.1503404399999999,0.5652681000000002,-11.75428266,29.01878226,-33.86995816,21.721114720000003,-0.272619046,-0.962288708,1.6089546264,-0.9514695536,-0.04706254214,1.0852248294,0.0045
03:45:54,-0.954607465,-0.797176935,1.0871363450000002,-1.3984281900000002,0.1525190799999999,0.5692578250000001,-11.770986495,29.000328945,-33.89035512,21.70585879,-0.2598777095,-0.973566931,1.6159911698,-0.9576123752,-0.046869549855,1.0927651470500002,0.0045
03:45:54,-0.94867931,-0.8090302899999999,1.0994382300000003,-1.40790446,0.1546977199999999,0.5732475500000002,-11.787690329999998,28.98187563,-33.91075208,21.69060286,-0.247136373,-0.9848451540000004,1.6230277132,-0.9637551968,-0.04667655757,1.1003054647,0.0045
03:45:54,-0.942751155,-0.8208836449999999,1.1117401150000004,-1.41738073,0.15687636,0.5772372750000001,-11.804394164999998,28.963422315,-33.93114904,21.67534693,-0.2343950365,-0.996123377,1.6300642566,-0.9698980184,-0.046483565285,1.10784578235,0.0045
03:45:55,-0.936823,-0.832737,1.124042,-1.426857,0.159055,0.581227,-11.821098,28.944969,-33.951546,21.660091,-0.2216537,-1.0074016,1.6371008,-0.97604084,-0.046290573,1.1153861,0.0045
03:45:55,-0.93026513,-0.82501275,1.126170785,-1.418861565,0.161100465,0.577562205,-11.8016337,28.941798265,-33.95784391,21.621531450000003,-0.2141577055,-0.99915189775,1.6325618283,-0.971202805155,-0.043129504435,1.1081796597,0.0045
03:45:55,-0.92370726,-0.8172885,1.12829957,-1.41086613,0.16314593,0.57389741,-11.7821694,28.93862753,-33.96414182,21.5829719,-0.206661711,-0.9909021955,1.6280228566,-0.96636477031,-0.03996843587,1.1009732194,0.0045
03:45:55,-0.91714939,-0.80956425,1.130428355,-1.402870695,0.165191395,0.570232615,-11.7627051,28.935456795,-33.97043973,21.54441235,-0.1991657165,-0.98265249325,1.6234838849,-0.961526735465,-0.036807367305,1.0937667791,0.0045
03:45:55,-0.91059152,-0.80184,1.13255714,-1.39487526,0.16723686,0.56656782,-11.7432408,28.93228606,-33.97673764,21.5058528,-0.191669722,-0.974402791,1.6189449132,-0.95668870062,-0.03364629874,1.0865603388,0.0045
03:45:55,-0.90403365,-0.79411575,1.134685925,-1.386879825,0.169282325,0.562903025,-11.7237765,28.929115325,-33.983035550000004,21.46729325,-0.1841737275,-0.96615308875,1.6144059415,-0.951850665775,-0.030485230175,1.0793538985,0.0045
03:45:55,-0.89747578,-0.7863914999999999,1.13681471,-1.37888439,0.17132779,0.5592382300000001,-11.7043122,28.92594459,-33.98933346,21.4287337,-0.176677733,-0.9579033865,1.6098669698,-0.94701263093,-0.02732416161,1.0721474582,0.0045
03:45:55,-0.89091791,-0.7786672499999999,1.138943495,-1.370888955,0.173373255,0.555573435,-11.6848479,28.922773855,-33.99563137,21.39017415,-0.1691817385,-0.94965368425,1.6053279981,-0.942174596085,-0.024163093045,1.0649410179,0.0045
03:45:55,-0.88436004,-0.7709429999999999,1.14107228,-1.36289352,0.17541872,0.5519086400000001,-11.665383599999998,28.91960312,-34.00192928,21.3516146,-0.161685744,-0.941403982,1.6007890264,-0.93733656124,-0.02100202448,1.0577345776,0.0045
03:45:55,-0.8778021699999999,-0.76321875,1.143201065,-1.354898085,0.177464185,0.548243845,-11.6459193,28.916432385,-34.00822719,21.313055050000003,-0.1541897495,-0.93315427975,1.5962500547,-0.932498526395,-0.0178409559149999,1.0505281373,0.0045
03:45:55,-0.8712443,-0.7554945,1.14532985,-1.34690265,0.17950965,0.5445790500000001,-11.626455,28.91326165,-34.0145251,21.2744955,-0.146693755,-0.9249045775,1.591711083,-0.92766049155,-0.0146798873499999,1.043321697,0.0045
03:45:55,-0.8646864299999999,-0.74777025,1.147458635,-1.338907215,0.181555115,0.540914255,-11.6069907,28.910090915,-34.02082301,21.23593595,-0.1391977605,-0.91665487525,1.5871721113,-0.922822456705,-0.0115188187849999,1.0361152567,0.0045
03:45:55,-0.8581285599999999,-0.740046,1.14958742,-1.33091178,0.18360058,0.5372494600000001,-11.5875264,28.90692018,-34.02712092,21.1973764,-0.131701766,-0.908405173,1.5826331396,-0.91798442186,-0.00835775022,1.0289088164,0.0045
03:45:55,-0.85157069,-0.73232175,1.151716205,-1.322916345,0.185646045,0.533584665,-11.5680621,28.903749445,-34.03341883,21.15881685,-0.1242057715,-0.9001554707499999,1.5780941679,-0.913146387015,-0.005196681655,1.0217023761,0.0045
03:45:55,-0.84501282,-0.7245975,1.15384499,-1.31492091,0.18769151,0.5299198700000001,-11.5485978,28.90057871,-34.03971674,21.1202573,-0.116709777,-0.8919057684999999,1.5735551962,-0.90830835217,-0.0020356130899999,1.0144959358,0.0045
03:45:55,-0.8384549499999999,-0.7168732499999999,1.155973775,-1.306925475,0.189736975,0.526255075,-11.5291335,28.897407975,-34.046014650000004,21.08169775,-0.1092137825,-0.8836560662499999,1.5690162245,-0.903470317325,0.001125455475,1.0072894955,0.0045
03:45:55,-0.83189708,-0.7091489999999999,1.15810256,-1.29893004,0.19178244,0.5225902800000001,-11.5096692,28.89423724,-34.05231256,21.0431382,-0.101717788,-0.8754063639999999,1.5644772528,-0.89863228248,0.00428652404,1.0000830552,0.0045
03:45:55,-0.82533921,-0.7014247499999999,1.160231345,-1.290934605,0.193827905,0.518925485,-11.4902049,28.891066505,-34.05861047,21.004578650000003,-0.0942217935,-0.86715666175,1.5599382811,-0.893794247635,0.007447592605,0.9928766149,0.0045
03:45:55,-0.8187813399999999,-0.6937004999999999,1.16236013,-1.28293917,0.19587337,0.5152606900000001,-11.4707406,28.88789577,-34.06490838,20.9660191,-0.0867257989999999,-0.8589069594999998,1.5553993094,-0.88895621279,0.01060866117,0.9856701746,0.0045
03:45:55,-0.81222347,-0.68597625,1.164488915,-1.274943735,0.197918835,0.511595895,-11.4512763,28.884725035,-34.07120629,20.92745955,-0.0792298045,-0.85065725725,1.5508603377,-0.884118177945,0.013769729735,0.9784637343,0.0045
03:45:55,-0.8056656,-0.678252,1.1666177,-1.2669483,0.1999642999999999,0.5079311000000001,-11.431812,28.8815543,-34.0775042,20.8889,-0.07173381,-0.8424075549999999,1.546321366,-0.8792801431,0.0169307983,0.971257294,0.0045
03:45:55,-0.79910773,-0.67052775,1.168746485,-1.258952865,0.202009765,0.504266305,-11.4123477,28.878383565,-34.08380211,20.85034045,-0.0642378154999999,-0.8341578527499999,1.5417823943,-0.874442108255,0.020091866865,0.9640508537,0.0045
03:45:55,-0.7925498599999999,-0.6628035,1.17087527,-1.25095743,0.20405523,0.5006015100000001,-11.3928834,28.87521283,-34.09010002,20.8117809,-0.056741821,-0.8259081504999999,1.5372434226,-0.86960407341,0.02325293543,0.9568444134,0.0045
03:45:55,-0.78599199,-0.65507925,1.173004055,-1.242961995,0.206100695,0.496936715,-11.3734191,28.872042095,-34.09639793,20.77322135,-0.0492458265,-0.8176584482499999,1.5327044509,-0.864766038565,0.026414003995,0.9496379731,0.0045
03:45:55,-0.7794341199999999,-0.6473549999999999,1.17513284,-1.2349665600000002,0.20814616,0.49327192,-11.3539548,28.86887136,-34.10269584,20.7346618,-0.0417498319999999,-0.8094087459999999,1.5281654792,-0.85992800372,0.02957507256,0.9424315328,0.0045
03:45:55,-0.7728762499999999,-0.63963075,1.177261625,-1.226971125,0.210191625,0.489607125,-11.3344905,28.865700625,-34.10899375,20.696102250000003,-0.0342538374999999,-0.8011590437499999,1.5236265075,-0.855089968875,0.032736141125,0.9352250925,0.0045
03:45:55,-0.76631838,-0.6319064999999999,1.17939041,-1.21897569,0.21223709,0.48594233,-11.3150262,28.86252989,-34.115291660000004,20.6575427,-0.026757843,-0.7929093414999999,1.5190875358,-0.85025193403,0.03589720969,0.9280186522,0.0045
03:45:55,-0.75976051,-0.6241822499999999,1.181519195,-1.210980255,0.2142825549999999,0.482277535,-11.2955619,28.859359155,-34.12158957,20.61898315,-0.0192618485,-0.7846596392499999,1.5145485641,-0.845413899185,0.039058278255,0.9208122119,0.0045
03:45:55,-0.7532026399999999,-0.616458,1.18364798,-1.20298482,0.21632802,0.47861274,-11.2760976,28.85618842,-34.12788748,20.5804236,-0.0117658539999999,-0.7764099369999999,1.5100095924,-0.84057586434,0.04221934682,0.9136057716,0.0045
03:45:55,-0.74664477,-0.60873375,1.185776765,-1.194989385,0.2183734849999999,0.474947945,-11.2566333,28.853017685,-34.13418539,20.54186405,-0.0042698595,-0.76816023475,1.5054706207,-0.835737829495,0.045380415385,0.9063993313,0.0045
03:45:55,-0.7400868999999999,-0.6010095,1.18790555,-1.18699395,0.22041895,0.47128315,-11.237169,28.84984695,-34.1404833,20.5033045,0.0032261349999999,-0.7599105325,1.500931649,-0.8308997946500001,0.04854148395,0.899192891,0.0045
03:45:55,-0.7335290299999999,-0.59328525,1.190034335,-1.178998515,0.222464415,0.467618355,-11.2177047,28.846676215,-34.14678121,20.46474495,0.0107221295,-0.7516608302499999,1.4963926773,-0.826061759805,0.051702552515,0.8919864507,0.0045
03:45:55,-0.72697116,-0.585561,1.19216312,-1.17100308,0.22450988,0.46395356,-11.1982404,28.84350548,-34.15307912,20.4261854,0.018218124,-0.743411128,1.4918537056,-0.8212237249600001,0.05486362108,0.8847800104000001,0.0045
03:45:55,-0.72041329,-0.5778367499999999,1.194291905,-1.163007645,0.226555345,0.460288765,-11.1787761,28.840334745,-34.15937703,20.387625850000003,0.0257141184999999,-0.7351614257499999,1.4873147339,-0.816385690115,0.058024689645,0.8775735701,0.0045
03:45:55,-0.71385542,-0.5701125,1.19642069,-1.15501221,0.22860081,0.45662397,-11.1593118,28.83716401,-34.16567494,20.3490663,0.0332101129999999,-0.7269117235,1.4827757622,-0.8115476552700001,0.06118575821,0.8703671298,0.0045
03:45:55,-0.7072975499999999,-0.5623882499999999,1.198549475,-1.147016775,0.230646275,0.452959175,-11.1398475,28.833993275,-34.17197285,20.31050675,0.0407061074999999,-0.7186620212499999,1.4782367905,-0.806709620425,0.064346826775,0.8631606895,0.0045
03:45:55,-0.70073968,-0.554664,1.20067826,-1.13902134,0.2326917399999999,0.44929438,-11.1203832,28.83082254,-34.178270760000004,20.2719472,0.048202102,-0.7104123189999999,1.4736978188,-0.80187158558,0.06750789534,0.8559542492000001,0.0045
03:45:55,-0.6941818099999999,-0.54693975,1.202807045,-1.131025905,0.234737205,0.445629585,-11.1009189,28.827651805,-34.18456867,20.23338765,0.0556980965,-0.7021626167499999,1.4691588471,-0.797033550735,0.070668963905,0.8487478089,0.0045
03:45:55,-0.6876239399999999,-0.5392155,1.20493583,-1.12303047,0.23678267,0.44196479,-11.0814546,28.82448107,-34.19086658,20.1948281,0.063194091,-0.6939129144999999,1.4646198754,-0.79219551589,0.07383003247,0.8415413686000001,0.0045
03:45:55,-0.68106607,-0.53149125,1.207064615,-1.115035035,0.238828135,0.438299995,-11.0619903,28.821310335,-34.19716449,20.15626855,0.0706900855,-0.6856632122499999,1.4600809037,-0.787357481045,0.076991101035,0.8343349283000001,0.0045
03:45:55,-0.6745082,-0.523767,1.2091934,-1.1070396,0.2408736,0.4346352,-11.042526,28.8181396,-34.2034624,20.117709,0.0781860799999999,-0.6774135099999999,1.455541932,-0.7825194462,0.0801521696,0.827128488,0.0045
03:45:55,-0.6679503299999999,-0.51604275,1.211322185,-1.099044165,0.242919065,0.430970405,-11.0230617,28.814968865,-34.20976031,20.079149450000003,0.0856820744999999,-0.66916380775,1.4510029603,-0.777681411355,0.083313238165,0.8199220477,0.0045
03:45:55,-0.66139246,-0.5083184999999999,1.21345097,-1.09104873,0.2449645299999999,0.42730561,-11.0035974,28.81179813,-34.21605822,20.0405899,0.093178069,-0.6609141054999998,1.4464639886,-0.77284337651,0.08647430673,0.8127156074,0.0045
03:45:55,-0.6548345899999999,-0.50059425,1.215579755,-1.083053295,0.2470099949999999,0.423640815,-10.9841331,28.808627395,-34.22235613,20.00203035,0.1006740635,-0.65266440325,1.4419250169,-0.768005341665,0.089635375295,0.8055091671000001,0.0045
03:45:55,-0.6482767199999999,-0.49287,1.21770854,-1.07505786,0.24905546,0.41997602,-10.9646688,28.80545666,-34.22865404,19.9634708,0.108170058,-0.6444147009999999,1.4373860452,-0.76316730682,0.09279644386,0.7983027268,0.0045
03:45:55,-0.64171885,-0.48514575,1.219837325,-1.067062425,0.251100925,0.416311225,-10.9452045,28.802285925,-34.23495195,19.92491125,0.1156660525,-0.63616499875,1.4328470735,-0.758329271975,0.095957512425,0.7910962865,0.0045
03:45:55,-0.63516098,-0.4774215,1.22196611,-1.05906699,0.25314639,0.41264643,-10.9257402,28.79911519,-34.24124986,19.8863517,0.123162047,-0.6279152964999999,1.4283081018,-0.75349123713,0.09911858099,0.7838898462,0.0045
03:45:55,-0.62860311,-0.4696972499999999,1.224094895,-1.051071555,0.2551918549999999,0.408981635,-10.9062759,28.795944455,-34.247547770000004,19.84779215,0.1306580415,-0.61966559425,1.4237691301,-0.748653202285,0.102279649555,0.7766834059000001,0.0045
03:45:55,-0.6220452399999999,-0.4619729999999999,1.22622368,-1.04307612,0.25723732,0.40531684,-10.8868116,28.79277372,-34.25384568,19.8092326,0.138154036,-0.6114158919999999,1.4192301584,-0.74381516744,0.10544071812,0.7694769656,0.0045
03:45:55,-0.6154873699999999,-0.45424875,1.228352465,-1.035080685,0.259282785,0.401652045,-10.8673473,28.789602985,-34.26014359,19.77067305,0.1456500305,-0.6031661897499999,1.4146911867,-0.738977132595,0.108601786685,0.7622705253000001,0.0045
03:45:55,-0.6089294999999999,-0.4465245,1.23048125,-1.02708525,0.26132825,0.39798725,-10.847883,28.78643225,-34.2664415,19.7321135,0.153146025,-0.5949164874999999,1.410152215,-0.73413909775,0.11176285525,0.7550640850000001,0.0045
03:45:55,-0.6023716299999999,-0.43880025,1.232610035,-1.019089815,0.263373715,0.394322455,-10.8284187,28.783261515,-34.27273941,19.69355395,0.1606420195,-0.5866667852499999,1.4056132433,-0.7293010629050001,0.114923923815,0.7478576447,0.0045
03:45:55,-0.59581376,-0.4310759999999999,1.23473882,-1.01109438,0.26541918,0.39065766,-10.8089544,28.78009078,-34.27903732,19.6549944,0.168138014,-0.5784170829999999,1.4010742716,-0.72446302806,0.11808499238,0.7406512044,0.0045
03:45:55,-0.58925589,-0.4233517499999999,1.236867605,-1.003098945,0.267464645,0.3869928650000001,-10.7894901,28.776920045,-34.28533523,19.61643485,0.1756340085,-0.57016738075,1.3965352999,-0.7196249932150001,0.121246060945,0.7334447641,0.0045
03:45:55,-0.5826980199999999,-0.4156275,1.23899639,-0.99510351,0.26951011,0.38332807,-10.7700258,28.77374931,-34.29163314,19.5778753,0.1831300029999999,-0.5619176785,1.3919963282,-0.71478695837,0.12440712951,0.7262383238000001,0.0045
03:45:55,-0.57614015,-0.40790325,1.241125175,-0.987108075,0.271555575,0.3796632750000001,-10.7505615,28.770578575,-34.29793105,19.53931575,0.1906259975,-0.5536679762499999,1.3874573565,-0.709948923525,0.127568198075,0.7190318835,0.0045
03:45:55,-0.5695822799999999,-0.400179,1.24325396,-0.97911264,0.2736010399999999,0.37599848,-10.7310972,28.76740784,-34.30422896,19.5007562,0.198121992,-0.545418274,1.3829183848,-0.7051108886799999,0.13072926664,0.7118254432,0.0045
03:45:55,-0.5630244099999999,-0.3924547499999999,1.245382745,-0.971117205,0.275646505,0.372333685,-10.7116329,28.764237105,-34.310526870000004,19.462196650000003,0.2056179865,-0.5371685717499999,1.3783794131,-0.700272853835,0.133890335205,0.7046190029,0.0045
03:45:55,-0.55646654,-0.3847305,1.24751153,-0.96312177,0.27769197,0.36866889,-10.6921686,28.76106637,-34.31682478,19.4236371,0.213113981,-0.5289188695,1.3738404414,-0.6954348189899999,0.13705140377,0.6974125626000001,0.0045
03:45:55,-0.54990867,-0.37700625,1.249640315,-0.955126335,0.279737435,0.365004095,-10.6727043,28.757895635,-34.32312269,19.38507755,0.2206099755,-0.5206691672499999,1.3693014697,-0.690596784145,0.140212472335,0.6902061223,0.0045
03:45:55,-0.5433507999999999,-0.369282,1.2517691,-0.9471309,0.2817829,0.3613393,-10.65324,28.7547249,-34.3294206,19.346518,0.22810597,-0.512419465,1.3647624980000002,-0.6857587493,0.1433735409,0.682999682,0.0045
03:45:55,-0.53679293,-0.36155775,1.253897885,-0.939135465,0.2838283649999999,0.357674505,-10.6337757,28.751554165,-34.33571851,19.30795845,0.2356019645,-0.5041697627499999,1.3602235263,-0.680920714455,0.146534609465,0.6757932417000001,0.0045
03:45:55,-0.5302350599999999,-0.3538334999999999,1.25602667,-0.93114003,0.28587383,0.35400971,-10.6143114,28.74838343,-34.34201642,19.2693989,0.243097959,-0.4959200604999999,1.3556845546,-0.67608267961,0.14969567803,0.6685868014,0.0045
03:45:55,-0.5236771899999999,-0.34610925,1.258155455,-0.923144595,0.287919295,0.350344915,-10.5948471,28.745212695,-34.34831433,19.23083935,0.2505939535,-0.4876703582499999,1.3511455829,-0.671244644765,0.152856746595,0.6613803611,0.0045
03:45:55,-0.5171193199999999,-0.338385,1.26028424,-0.91514916,0.28996476,0.34668012,-10.5753828,28.74204196,-34.35461224,19.1922798,0.258089948,-0.4794206559999999,1.3466066112,-0.66640660992,0.15601781516,0.6541739208,0.0045
03:45:55,-0.51056145,-0.3306607499999999,1.262413025,-0.907153725,0.2920102249999999,0.343015325,-10.5559185,28.738871225,-34.36091015,19.15372025,0.2655859425,-0.4711709537499999,1.3420676395,-0.661568575075,0.159178883725,0.6469674805000001,0.0045
03:45:55,-0.50400358,-0.3229364999999999,1.26454181,-0.89915829,0.29405569,0.33935053,-10.5364542,28.73570049,-34.36720806,19.1151607,0.273081937,-0.4629212514999999,1.3375286678,-0.65673054023,0.16233995229,0.6397610402,0.0045
03:45:55,-0.4974457099999999,-0.3152122499999999,1.266670595,-0.891162855,0.296101155,0.335685735,-10.5169899,28.732529755,-34.373505970000004,19.07660115,0.2805779315,-0.45467154925,1.3329896961,-0.651892505385,0.165501020855,0.6325545999,0.0045
03:45:55,-0.4908878399999999,-0.307488,1.26879938,-0.88316742,0.29814662,0.33202094,-10.4975256,28.72935902,-34.379803880000004,19.0380416,0.288073926,-0.446421847,1.3284507244,-0.64705447054,0.16866208942,0.6253481596,0.0045
03:45:55,-0.4843299699999999,-0.29976375,1.270928165,-0.875171985,0.300192085,0.328356145,-10.4780613,28.726188285,-34.38610179,18.99948205,0.2955699205,-0.43817214475,1.3239117527,-0.642216435695,0.171823157985,0.6181417193000001,0.0045
03:45:55,-0.4777720999999999,-0.2920395,1.27305695,-0.86717655,0.3022375499999999,0.32469135,-10.458597,28.72301755,-34.3923997,18.9609225,0.3030659149999999,-0.4299224425,1.319372781,-0.6373784008500001,0.17498422655,0.610935279,0.0045
03:45:55,-0.4712142299999999,-0.28431525,1.275185735,-0.859181115,0.304283015,0.321026555,-10.4391327,28.719846815,-34.39869761,18.92236295,0.3105619095,-0.4216727402499999,1.3148338093,-0.632540366005,0.178145295115,0.6037288387,0.0045
03:45:55,-0.4646563599999999,-0.276591,1.27731452,-0.8511856800000001,0.30632848,0.31736176,-10.4196684,28.71667608,-34.40499552,18.8838034,0.318057904,-0.4134230379999999,1.3102948376,-0.6277023311600001,0.18130636368,0.5965223984,0.0045
03:45:55,-0.4580984899999999,-0.26886675,1.279443305,-0.8431902450000001,0.308373945,0.313696965,-10.4002041,28.713505345,-34.41129343,18.845243850000003,0.3255538985,-0.4051733357499999,1.3057558659,-0.622864296315,0.184467432245,0.5893159581,0.0045
03:45:55,-0.4515406199999999,-0.2611424999999999,1.28157209,-0.8351948100000001,0.3104194099999999,0.31003217,-10.3807398,28.71033461,-34.41759134,18.8066843,0.333049893,-0.3969236334999999,1.3012168942,-0.6180262614700001,0.18762850081,0.5821095178,0.0045
03:45:55,-0.4449827499999999,-0.2534182499999999,1.283700875,-0.827199375,0.312464875,0.306367375,-10.3612755,28.707163875,-34.42388925,18.76812475,0.3405458875,-0.3886739312499999,1.2966779225,-0.6131882266249999,0.190789569375,0.5749030775,0.0045
03:45:55,-0.4384248799999999,-0.2456939999999999,1.28582966,-0.81920394,0.31451034,0.30270258,-10.3418112,28.70399314,-34.43018716,18.7295652,0.348041882,-0.3804242289999999,1.2921389508,-0.60835019178,0.19395063794,0.5676966372000001,0.0045
03:45:55,-0.4318670099999999,-0.2379697499999999,1.287958445,-0.811208505,0.316555805,0.299037785,-10.3223469,28.700822405,-34.43648507,18.69100565,0.3555378765,-0.3721745267499999,1.2875999791,-0.6035121569349999,0.197111706505,0.5604901969,0.0045
03:45:55,-0.42530914,-0.2302455,1.29008723,-0.80321307,0.31860127,0.29537299,-10.3028826,28.697651670000003,-34.442782980000004,18.6524461,0.363033871,-0.3639248244999999,1.2830610074,-0.59867412209,0.20027277507,0.5532837566000001,0.0045
03:45:55,-0.4187512699999999,-0.22252125,1.292216015,-0.795217635,0.3206467349999999,0.291708195,-10.2834183,28.694480935,-34.449080890000005,18.61388655,0.3705298655,-0.35567512225,1.2785220357,-0.5938360872449999,0.203433843635,0.5460773163,0.0045
03:45:55,-0.4121933999999999,-0.214797,1.2943448,-0.7872222,0.3226922,0.2880434,-10.263954,28.6913102,-34.4553788,18.575327,0.37802586,-0.34742542,1.273983064,-0.5889980524,0.2065949122,0.538870876,0.0045
03:45:55,-0.4056355299999999,-0.20707275,1.296473585,-0.779226765,0.324737665,0.284378605,-10.2444897,28.688139465000003,-34.46167671,18.53676745,0.3855218545,-0.33917571775,1.2694440923,-0.584160017555,0.209755980765,0.5316644357,0.0045
03:45:55,-0.3990776599999999,-0.1993485,1.29860237,-0.77123133,0.32678313,0.28071381,-10.2250254,28.68496873,-34.46797462,18.4982079,0.393017849,-0.3309260155,1.2649051206,-0.57932198271,0.21291704933,0.5244579954,0.0045
03:45:55,-0.3925197899999999,-0.19162425,1.300731155,-0.763235895,0.3288285949999999,0.277049015,-10.2055611,28.681797995,-34.47427253,18.45964835,0.4005138435,-0.32267631325,1.2603661489,-0.574483947865,0.216078117895,0.5172515551,0.0045
03:45:55,-0.3859619199999999,-0.1838999999999999,1.30285994,-0.75524046,0.3308740599999999,0.27338422,-10.1860968,28.678627260000003,-34.48057044,18.4210888,0.408009838,-0.3144266109999999,1.2558271772,-0.56964591302,0.21923918646,0.5100451148,0.0045
03:45:55,-0.3794040499999999,-0.1761757499999999,1.3049887249999998,-0.747245025,0.332919525,0.269719425,-10.1666325,28.675456525,-34.48686835,18.38252925,0.4155058325,-0.3061769087499999,1.2512882055,-0.564807878175,0.222400255025,0.5028386745,0.0045
03:45:55,-0.3728461799999999,-0.1684514999999999,1.30711751,-0.73924959,0.33496499,0.26605463,-10.1471682,28.67228579,-34.49316626,18.3439697,0.423001827,-0.2979272064999999,1.2467492338,-0.55996984333,0.22556132359,0.4956322342,0.0045
03:45:55,-0.3662883099999999,-0.16072725,1.309246295,-0.731254155,0.337010455,0.262389835,-10.1277039,28.669115055,-34.49946417,18.30541015,0.4304978215,-0.2896775042499999,1.2422102621,-0.555131808485,0.228722392155,0.4884257939,0.0045
