Timestamp,linacce_x,linacce_y,linacce_z,gyro_x,gyro_y,gyro_z,X-magnetometer,Y-magnetometer,Z-magnetometer,Yaw, worldXAccel,worldYAccel,worldZAccel,worldXgyro,worldYgyro,worldZgyro,Distance
09:51:46,0.452371,1.21909,-1.231613,-0.420113,0.009095,-0.1856,-27.138565,-6.922756,-9.042809,77.544914,-0.61781126,1.0690386,-1.2175336,-0.39421886,0.019697592,0.3124647,0.005
09:51:46,0.43856335,1.227329665,-1.21889545,-0.415318935,0.00873811,-0.1853017049999999,-27.124450925,-6.937187345,-9.047755285,77.6638217,-0.6213423497,1.0734289605,-1.213641764,-0.39075787785,0.02001322396,0.3092448774999999,0.005
09:51:46,0.4247557,1.23556933,-1.2061779,-0.41052487,0.00838122,-0.1850034099999999,-27.11033685,-6.95161869,-9.05270157,77.78272940000001,-0.6248734394,1.077819321,-1.209749928,-0.3872968957,0.02032885592,0.306025055,0.005
09:51:46,0.41094805,1.243808995,-1.19346035,-0.405730805,0.00802433,-0.1847051149999999,-27.096222775,-6.966050034999999,-9.057647855,77.9016371,-0.6284045291,1.0822096815,-1.2058580920000002,-0.38383591355,0.02064448788,0.3028052324999999,0.005
09:51:46,0.3971404,1.25204866,-1.1807428,-0.40093674,0.00766744,-0.18440682,-27.0821087,-6.98048138,-9.06259414,78.02054480000001,-0.6319356187999999,1.0866000420000002,-1.2019662560000002,-0.3803749314,0.02096011984,0.29958541,0.005
09:51:46,0.38333275,1.260288325,-1.16802525,-0.396142675,0.00731055,-0.184108525,-27.067994625,-6.994912725,-9.067540425,78.1394525,-0.6354667085,1.0909904025,-1.1980744200000002,-0.37691394925,0.0212757518,0.2963655874999999,0.005
09:51:46,0.3695251,1.26852799,-1.1553077,-0.39134861,0.00695366,-0.18381023,-27.05388055,-7.00934407,-9.07248671,78.2583602,-0.6389977982,1.095380763,-1.194182584,-0.3734529671,0.02159138376,0.293145765,0.005
09:51:46,0.35571745,1.276767655,-1.14259015,-0.386554545,0.00659677,-0.183511935,-27.039766475,-7.023775414999999,-9.077432995,78.3772679,-0.6425288879,1.0997711235,-1.190290748,-0.36999198495,0.02190701572,0.2899259425,0.005
09:51:46,0.3419098,1.28500732,-1.1298726,-0.38176048,0.00623988,-0.1832136399999999,-27.0256524,-7.03820676,-9.08237928,78.4961756,-0.6460599776,1.104161484,-1.186398912,-0.3665310028,0.02222264768,0.2867061199999999,0.005
09:51:46,0.32810215,1.293246985,-1.11715505,-0.376966415,0.00588299,-0.1829153449999999,-27.011538325,-7.052638105,-9.087325565,78.61508330000001,-0.6495910672999999,1.1085518445,-1.182507076,-0.36307002065,0.02253827964,0.2834862975,0.005
09:51:46,0.3142945,1.30148665,-1.1044375,-0.37217235,0.0055261,-0.1826170499999999,-26.99742425,-7.06706945,-9.09227185,78.733991,-0.653122157,1.112942205,-1.17861524,-0.3596090385,0.0228539116,0.2802664749999999,0.005
09:51:46,0.30048685,1.309726315,-1.09171995,-0.367378285,0.00516921,-0.182318755,-26.983310175,-7.081500794999999,-9.097218135,78.85289870000001,-0.6566532466999999,1.1173325655000002,-1.174723404,-0.35614805635,0.02316954356,0.2770466525,0.005
09:51:46,0.2866792,1.31796598,-1.0790024,-0.36258422,0.00481232,-0.18202046,-26.9691961,-7.09593214,-9.10216442,78.9718064,-0.6601843364,1.121722926,-1.170831568,-0.3526870742,0.02348517552,0.2738268299999999,0.005
09:51:46,0.27287155,1.326205645,-1.0662848500000002,-0.357790155,0.00445543,-0.181722165,-26.955082025,-7.110363485,-9.107110705,79.0907141,-0.6637154261,1.1261132865,-1.166939732,-0.34922609205,0.02380080748,0.2706070075,0.005
09:51:46,0.2590639,1.33444531,-1.0535673,-0.35299609,0.00409854,-0.18142387,-26.94096795,-7.12479483,-9.11205699,79.20962180000001,-0.6672465157999999,1.130503647,-1.163047896,-0.3457651099,0.02411643944,0.2673871849999999,0.005
09:51:46,0.24525625,1.342684975,-1.04084975,-0.348202025,0.00374165,-0.1811255749999999,-26.926853875,-7.139226175,-9.117003275,79.3285295,-0.6707776055,1.1348940075,-1.1591560600000002,-0.34230412775,0.0244320714,0.2641673624999999,0.005
09:51:46,0.2314486,1.35092464,-1.0281322,-0.34340796,0.00338476,-0.1808272799999999,-26.9127398,-7.153657519999999,-9.12194956,79.44743720000001,-0.6743086951999999,1.139284368,-1.1552642240000002,-0.3388431456,0.02474770336,0.26094754,0.005
09:51:46,0.21764095,1.359164305,-1.01541465,-0.338613895,0.00302787,-0.1805289849999999,-26.898625725,-7.168088865,-9.126895845,79.5663449,-0.6778397849,1.1436747285,-1.1513723880000002,-0.33538216345,0.02506333532,0.2577277175,0.005
09:51:46,0.2038333,1.36740397,-1.0026971,-0.33381983,0.00267098,-0.18023069,-26.88451165,-7.18252021,-9.13184213,79.6852526,-0.6813708746,1.148065089,-1.147480552,-0.3319211813,0.02537896728,0.254507895,0.005
09:51:46,0.19002565,1.375643635,-0.98997955,-0.329025765,0.00231409,-0.179932395,-26.870397575,-7.196951555,-9.136788415,79.8041603,-0.6849019642999999,1.1524554495,-1.143588716,-0.32846019915,0.02569459924,0.2512880724999999,0.005
09:51:46,0.176218,1.3838833,-0.977262,-0.3242317,0.0019572,-0.1796341,-26.8562835,-7.211382899999999,-9.1417347,79.923068,-0.688433054,1.15684581,-1.13969688,-0.324999217,0.0260102312,0.24806825,0.005
09:51:46,0.16241035,1.392122965,-0.96454445,-0.319437635,0.00160031,-0.179335805,-26.842169425,-7.225814245,-9.146680985,80.04197570000001,-0.6919641436999999,1.1612361705,-1.135805044,-0.32153823485,0.02632586316,0.2448484274999999,0.005
09:51:46,0.1486027,1.40036263,-0.9518269,-0.31464357,0.00124342,-0.1790375099999999,-26.82805535,-7.24024559,-9.15162727,80.1608834,-0.6954952334,1.165626531,-1.131913208,-0.3180772527,0.02664149512,0.2416286049999999,0.005
09:51:46,0.13479505,1.408602295,-0.93910935,-0.309849505,0.00088653,-0.1787392149999999,-26.813941275,-7.254676935,-9.156573555,80.27979110000001,-0.6990263231,1.1700168915,-1.128021372,-0.3146162705499999,0.02695712708,0.2384087824999999,0.005
09:51:46,0.1209874,1.41684196,-0.9263918,-0.30505544,0.0005296399999999,-0.1784409199999999,-26.7998272,-7.269108279999999,-9.16151984,80.3986988,-0.7025574128,1.174407252,-1.124129536,-0.3111552884,0.02727275904,0.2351889599999999,0.005
09:51:46,0.10717975,1.425081625,-0.91367425,-0.300261375,0.00017275,-0.178142625,-26.785713125,-7.283539624999999,-9.166466125,80.5176065,-0.7060885025,1.1787976125,-1.1202377,-0.30769430625,0.027588391,0.2319691374999999,0.005
09:51:46,0.0933721,1.43332129,-0.9009567,-0.29546731,-0.0001841399999999,-0.17784433,-26.77159905,-7.29797097,-9.17141241,80.63651420000001,-0.7096195921999999,1.183187973,-1.116345864,-0.3042333241,0.02790402296,0.2287493149999999,0.005
09:51:46,0.07956445,1.441560955,-0.88823915,-0.290673245,-0.0005410299999999,-0.177546035,-26.757484975,-7.312402315,-9.176358695,80.7554219,-0.7131506819,1.1875783335,-1.1124540280000002,-0.30077234195,0.02821965492,0.2255294924999999,0.005
09:51:46,0.0657568,1.44980062,-0.8755216,-0.28587918,-0.00089792,-0.17724774,-26.7433709,-7.32683366,-9.18130498,80.87432960000001,-0.7166817716,1.191968694,-1.1085621920000002,-0.2973113598,0.02853528688,0.2223096699999999,0.005
09:51:46,0.05194915,1.458040285,-0.86280405,-0.281085115,-0.00125481,-0.1769494449999999,-26.729256825,-7.341265004999999,-9.186251265,80.9932373,-0.7202128613,1.1963590545,-1.1046703560000002,-0.29385037765,0.02885091884,0.2190898475,0.005
09:51:46,0.0381415,1.46627995,-0.8500865,-0.27629105,-0.0016116999999999,-0.1766511499999999,-26.71514275,-7.35569635,-9.19119755,81.112145,-0.723743951,1.200749415,-1.10077852,-0.2903893955,0.0291665508,0.2158700249999999,0.005
09:51:46,0.02433385,1.474519615,-0.8373689500000001,-0.271496985,-0.0019685899999999,-0.1763528549999999,-26.701028675,-7.370127695,-9.196143835,81.2310527,-0.7272750406999999,1.2051397755000002,-1.096886684,-0.2869284133499999,0.02948218276,0.2126502024999999,0.005
09:51:46,0.0105262,1.48275928,-0.8246514,-0.26670292,-0.0023254799999999,-0.17605456,-26.6869146,-7.38455904,-9.20109012,81.3499604,-0.7308061304,1.209530136,-1.092994848,-0.2834674312,0.02979781472,0.2094303799999999,0.005
09:51:46,-0.0032814499999999,1.490998945,-0.81193385,-0.261908855,-0.00268237,-0.175756265,-26.672800525,-7.398990384999999,-9.206036405,81.46886810000001,-0.7343372201,1.2139204965,-1.089103012,-0.28000644905,0.03011344668,0.2062105574999999,0.005
09:51:46,-0.0170890999999999,1.49923861,-0.7992163000000001,-0.25711479,-0.00303926,-0.17545797,-26.65868645,-7.41342173,-9.21098269,81.5877758,-0.7378683098,1.218310857,-1.085211176,-0.2765454669,0.03042907864,0.2029907349999999,0.005
09:51:46,-0.0308967499999999,1.507478275,-0.78649875,-0.252320725,-0.0033961499999999,-0.175159675,-26.644572375,-7.427853075,-9.215928975,81.7066835,-0.7413993995,1.2227012175,-1.08131934,-0.27308448475,0.0307447106,0.1997709124999999,0.005
09:51:46,-0.0447043999999999,1.51571794,-0.7737812000000001,-0.24752666,-0.0037530399999999,-0.1748613799999999,-26.6304583,-7.44228442,-9.22087526,81.8255912,-0.7449304891999999,1.227091578,-1.077427504,-0.2696235026,0.03106034256,0.1965510899999999,0.005
09:51:46,-0.0585120499999999,1.523957605,-0.7610636500000001,-0.242732595,-0.0041099299999999,-0.1745630849999999,-26.616344225,-7.456715765,-9.225821545,81.9444989,-0.7484615789,1.2314819385,-1.073535668,-0.26616252045,0.03137597452,0.1933312674999999,0.005
09:51:46,-0.0723196999999999,1.53219727,-0.7483461,-0.23793853,-0.00446682,-0.17426479,-26.60223015,-7.471147109999999,-9.23076783,82.06340660000001,-0.7519926686,1.235872299,-1.069643832,-0.2627015383,0.03169160648,0.1901114449999999,0.005
09:51:46,-0.0861273499999999,1.540436935,-0.73562855,-0.233144465,-0.00482371,-0.173966495,-26.588116075,-7.485578455,-9.235714115,82.1823143,-0.7555237583,1.2402626595,-1.065751996,-0.2592405561499999,0.03200723844,0.1868916224999999,0.005
09:51:46,-0.0999349999999999,1.5486766,-0.7229110000000001,-0.2283504,-0.0051805999999999,-0.1736682,-26.574002,-7.5000098,-9.2406604,82.30122200000001,-0.759054848,1.24465302,-1.0618601600000002,-0.2557795739999999,0.0323228704,0.1836717999999999,0.005
09:51:46,-0.11374265,1.556916265,-0.71019345,-0.223556335,-0.0055374899999999,-0.173369905,-26.559887925,-7.514441144999999,-9.245606685,82.4201297,-0.7625859376999999,1.2490433805,-1.057968324,-0.25231859185,0.03263850236,0.1804519774999999,0.005
09:51:46,-0.1275502999999999,1.56515593,-0.6974759,-0.21876227,-0.0058943799999999,-0.17307161,-26.54577385,-7.528872489999999,-9.25055297,82.5390374,-0.7661170274,1.253433741,-1.054076488,-0.2488576096999999,0.03295413432,0.1772321549999999,0.005
09:51:46,-0.1413579499999999,1.573395595,-0.6847583500000001,-0.213968205,-0.00625127,-0.1727733149999999,-26.531659775,-7.543303835,-9.255499255,82.6579451,-0.7696481171,1.2578241015,-1.050184652,-0.24539662755,0.03326976628,0.1740123324999999,0.005
09:51:46,-0.1551655999999999,1.58163526,-0.6720408,-0.20917414,-0.00660816,-0.1724750199999999,-26.5175457,-7.55773518,-9.26044554,82.7768528,-0.7731792068,1.262214462,-1.046292816,-0.2419356453999999,0.03358539824,0.1707925099999999,0.005
09:51:46,-0.1689732499999999,1.589874925,-0.65932325,-0.204380075,-0.0069650499999999,-0.1721767249999999,-26.503431625,-7.572166525,-9.265391825,82.89576050000001,-0.7767102965,1.2666048225000002,-1.04240098,-0.23847466325,0.0339010302,0.1675726874999999,0.005
09:51:46,-0.1827808999999999,1.59811459,-0.6466057000000001,-0.19958601,-0.00732194,-0.17187843,-26.48931755,-7.586597869999999,-9.27033811,83.0146682,-0.7802413861999999,1.270995183,-1.038509144,-0.2350136810999999,0.03421666216,0.1643528649999999,0.005
09:51:46,-0.1965885499999999,1.606354255,-0.63388815,-0.194791945,-0.0076788299999999,-0.171580135,-26.475203475,-7.601029215,-9.275284395,83.13357590000001,-0.7837724759,1.2753855435,-1.034617308,-0.23155269895,0.03453229412,0.1611330424999999,0.005
09:51:46,-0.2103961999999999,1.61459392,-0.6211706,-0.18999788,-0.00803572,-0.17128184,-26.4610894,-7.61546056,-9.28023068,83.2524836,-0.7873035656,1.279775904,-1.030725472,-0.2280917167999999,0.03484792608,0.1579132199999999,0.005
09:51:46,-0.2242038499999999,1.622833585,-0.60845305,-0.185203815,-0.00839261,-0.170983545,-26.446975325,-7.629891905,-9.285176965,83.3713913,-0.7908346553,1.2841662645,-1.026833636,-0.22463073465,0.03516355804,0.1546933974999999,0.005
09:51:46,-0.2380115,1.63107325,-0.5957355,-0.18040975,-0.0087494999999999,-0.1706852499999999,-26.43286125,-7.644323249999999,-9.29012325,83.49029900000001,-0.794365745,1.288556625,-1.0229418,-0.2211697524999999,0.03547919,0.1514735749999999,0.005
09:51:46,-0.2518191499999999,1.639312915,-0.58301795,-0.175615685,-0.00910639,-0.1703869549999999,-26.418747175,-7.658754594999999,-9.295069535,83.6092067,-0.7978968347,1.2929469855,-1.019049964,-0.21770877035,0.03579482196,0.1482537524999999,0.005
09:51:46,-0.2656268,1.6475525800000002,-0.5703004,-0.17082162,-0.00946328,-0.17008866,-26.4046331,-7.67318594,-9.30001582,83.72811440000001,-0.8014279244,1.297337346,-1.015158128,-0.2142477881999999,0.03611045392,0.1450339299999999,0.005
09:51:46,-0.2794344499999999,1.655792245,-0.55758285,-0.166027555,-0.00982017,-0.169790365,-26.390519025,-7.687617285,-9.304962105,83.8470221,-0.8049590141,1.3017277065,-1.0112662920000002,-0.21078680605,0.03642608588,0.1418141074999999,0.005
09:51:46,-0.2932420999999999,1.66403191,-0.5448653,-0.16123349,-0.01017706,-0.16949207,-26.37640495,-7.70204863,-9.30990839,83.9659298,-0.8084901038,1.306118067,-1.007374456,-0.2073258238999999,0.03674171784,0.1385942849999999,0.005
09:51:46,-0.3070497499999999,1.672271575,-0.53214775,-0.156439425,-0.0105339499999999,-0.169193775,-26.362290875,-7.716479974999999,-9.314854675,84.0848375,-0.8120211935,1.3105084275,-1.00348262,-0.20386484175,0.0370573498,0.1353744624999999,0.005
09:51:46,-0.3208573999999999,1.68051124,-0.5194302,-0.15164536,-0.01089084,-0.16889548,-26.3481768,-7.73091132,-9.31980096,84.2037452,-0.8155522832,1.314898788,-0.999590784,-0.2004038595999999,0.03737298176,0.1321546399999999,0.005
09:51:46,-0.3346650499999999,1.688750905,-0.50671265,-0.146851295,-0.01124773,-0.1685971849999999,-26.334062725,-7.745342665,-9.324747245,84.32265290000001,-0.8190833729,1.3192891485,-0.995698948,-0.19694287745,0.03768861372,0.1289348174999999,0.005
09:51:46,-0.3484726999999999,1.69699057,-0.4939951,-0.14205723,-0.01160462,-0.1682988899999999,-26.31994865,-7.75977401,-9.32969353,84.4415606,-0.8226144626,1.3236795090000002,-0.991807112,-0.1934818952999999,0.03800424568,0.1257149949999999,0.005
09:51:46,-0.36228035,1.705230235,-0.48127755,-0.137263165,-0.01196151,-0.1680005949999999,-26.305834575,-7.774205354999999,-9.334639815,84.5604683,-0.8261455523,1.3280698695000002,-0.987915276,-0.19002091315,0.03831987764,0.1224951724999999,0.005
09:51:46,-0.3760879999999999,1.7134699,-0.46856,-0.1324691,-0.0123183999999999,-0.1677023,-26.2917205,-7.7886367,-9.3395861,84.679376,-0.8296766419999999,1.33246023,-0.98402344,-0.1865599309999999,0.0386355096,0.1192753499999999,0.005
09:51:46,-0.38989565,1.721709565,-0.45584245,-0.127675035,-0.01267529,-0.167404005,-26.277606425,-7.803068045,-9.344532385,84.7982837,-0.8332077317,1.3368505905,-0.980131604,-0.18309894885,0.03895114156,0.1160555274999999,0.005
09:51:46,-0.4037032999999999,1.72994923,-0.4431249,-0.12288097,-0.0130321799999999,-0.16710571,-26.26349235,-7.81749939,-9.34947867,84.91719140000001,-0.8367388214,1.341240951,-0.976239768,-0.1796379666999999,0.03926677352,0.1128357049999999,0.005
09:51:46,-0.41751095,1.738188895,-0.4304073499999999,-0.118086905,-0.01338907,-0.166807415,-26.249378275,-7.831930735,-9.354424955,85.0360991,-0.8402699111,1.3456313115,-0.972347932,-0.17617698455,0.03958240548,0.1096158824999999,0.005
09:51:46,-0.4313185999999999,1.74642856,-0.4176898,-0.11329284,-0.01374596,-0.1665091199999999,-26.2352642,-7.84636208,-9.35937124,85.15500680000001,-0.8438010008,1.350021672,-0.968456096,-0.1727160023999999,0.03989803744,0.1063960599999999,0.005
09:51:46,-0.4451262499999999,1.754668225,-0.40497225,-0.108498775,-0.0141028499999999,-0.1662108249999999,-26.221150125,-7.860793425,-9.364317525,85.2739145,-0.8473320904999999,1.3544120325,-0.96456426,-0.1692550202499999,0.0402136694,0.1031762374999999,0.005
09:51:46,-0.4589338999999999,1.76290789,-0.3922546999999999,-0.10370471,-0.01445974,-0.16591253,-26.20703605,-7.87522477,-9.36926381,85.3928222,-0.8508631802,1.358802393,-0.960672424,-0.1657940380999999,0.04052930136,0.0999564149999999,0.005
09:51:46,-0.4727415499999999,1.771147555,-0.37953715,-0.098910645,-0.0148166299999999,-0.165614235,-26.192921975,-7.889656114999999,-9.374210095,85.5117299,-0.8543942699,1.3631927535,-0.956780588,-0.1623330559499999,0.04084493332,0.0967365924999999,0.005
09:51:46,-0.4865491999999999,1.77938722,-0.3668196,-0.09411658,-0.01517352,-0.16531594,-26.1788079,-7.904087459999999,-9.37915638,85.6306376,-0.8579253596,1.367583114,-0.952888752,-0.1588720737999999,0.04116056528,0.0935167699999999,0.005
09:51:46,-0.50035685,1.787626885,-0.3541020499999999,-0.089322515,-0.01553041,-0.165017645,-26.164693825,-7.918518805,-9.384102665,85.74954530000001,-0.8614564493,1.3719734745,-0.948996916,-0.1554110916499999,0.04147619724,0.0902969474999999,0.005
09:51:46,-0.5141644999999999,1.79586655,-0.3413845,-0.08452845,-0.0158873,-0.16471935,-26.15057975,-7.93295015,-9.38904895,85.868453,-0.8649875389999999,1.376363835,-0.94510508,-0.1519501094999999,0.0417918292,0.0870771249999999,0.005
09:51:46,-0.5279721499999999,1.804106215,-0.32866695,-0.079734385,-0.01624419,-0.1644210549999999,-26.136465675,-7.947381495,-9.393995235,85.98736070000001,-0.8685186287,1.3807541955,-0.941213244,-0.1484891273499999,0.04210746116,0.0838573024999999,0.005
09:51:46,-0.5417798,1.81234588,-0.3159494,-0.07494032,-0.0166010799999999,-0.1641227599999999,-26.1223516,-7.96181284,-9.39894152,86.1062684,-0.8720497184,1.3851445560000002,-0.937321408,-0.1450281451999999,0.04242309312,0.0806374799999999,0.005
09:51:46,-0.55558745,1.820585545,-0.3032318499999999,-0.070146255,-0.01695797,-0.1638244649999999,-26.108237525,-7.976244185,-9.403887805,86.2251761,-0.8755808081,1.3895349165000002,-0.933429572,-0.14156716305,0.04273872508,0.0774176574999999,0.005
09:51:46,-0.5693950999999999,1.82882521,-0.2905143,-0.06535219,-0.01731486,-0.16352617,-26.09412345,-7.99067553,-9.40883409,86.3440838,-0.8791118978,1.393925277,-0.929537736,-0.1381061809,0.04305435704,0.0741978349999999,0.005
09:51:46,-0.5832027499999999,1.837064875,-0.27779675,-0.060558125,-0.01767175,-0.163227875,-26.080009375,-8.005106875,-9.413780375,86.4629915,-0.8826429874999999,1.3983156375,-0.9256459,-0.1346451987499999,0.043369989,0.0709780124999999,0.005
09:51:46,-0.5970103999999998,1.84530454,-0.2650791999999999,-0.05576406,-0.01802864,-0.16292958,-26.0658953,-8.01953822,-9.41872666,86.58189920000001,-0.8861740772,1.402705998,-0.921754064,-0.1311842165999999,0.04368562096,0.0677581899999999,0.005
09:51:46,-0.6108180499999998,1.853544205,-0.25236165,-0.050969995,-0.0183855299999999,-0.162631285,-26.051781225,-8.033969565,-9.423672945,86.7008069,-0.8897051669,1.4070963585,-0.917862228,-0.12772323445,0.04400125292,0.0645383674999999,0.005
09:51:46,-0.6246257,1.86178387,-0.2396441,-0.04617593,-0.01874242,-0.1623329899999999,-26.03766715,-8.04840091,-9.42861923,86.8197146,-0.8932362566000001,1.411486719,-0.913970392,-0.1242622522999999,0.04431688488,0.0613185449999999,0.005
09:51:46,-0.6384333499999999,1.870023535,-0.2269265499999999,-0.041381865,-0.01909931,-0.1620346949999999,-26.023553075,-8.062832255,-9.433565515,86.9386223,-0.8967673463,1.4158770795,-0.910078556,-0.1208012701499999,0.04463251684,0.0580987224999999,0.005
09:51:46,-0.6522409999999998,1.8782632,-0.2142090000000001,-0.0365878,-0.0194562,-0.1617364,-26.009439,-8.0772636,-9.4385118,87.05753,-0.9002984359999999,1.42026744,-0.90618672,-0.1173402879999999,0.0449481488,0.0548788999999999,0.005
09:51:46,-0.6660486499999998,1.886502865,-0.20149145,-0.0317937350000001,-0.01981309,-0.161438105,-25.995324925,-8.091694945,-9.443458085,87.17643770000001,-0.9038295257,1.4246578005,-0.902294884,-0.11387930585,0.04526378076,0.0516590774999999,0.005
09:51:46,-0.6798563,1.89474253,-0.1887738999999999,-0.02699967,-0.0201699799999999,-0.16113981,-25.98121085,-8.106126289999999,-9.44840437,87.2953454,-0.9073606154,1.429048161,-0.898403048,-0.1104183236999999,0.04557941272,0.0484392549999999,0.005
09:51:46,-0.6936639499999999,1.902982195,-0.17605635,-0.022205605,-0.02052687,-0.160841515,-25.967096775,-8.120557634999999,-9.453350655,87.4142531,-0.9108917051,1.4334385215,-0.894511212,-0.1069573415499999,0.04589504468,0.0452194324999999,0.005
09:51:46,-0.7074715999999999,1.91122186,-0.1633388,-0.01741154,-0.02088376,-0.16054322,-25.9529827,-8.13498898,-9.45829694,87.5331608,-0.9144227948,1.437828882,-0.8906193760000001,-0.1034963593999999,0.04621067664,0.0419996099999999,0.005
09:51:46,-0.7212792499999998,1.919461525,-0.1506212499999999,-0.0126174750000001,-0.02124065,-0.1602449249999999,-25.938868625,-8.149420325,-9.463243225,87.6520685,-0.9179538845,1.4422192425,-0.8867275400000001,-0.10003537725,0.0465263086,0.0387797874999999,0.005
09:51:46,-0.7350868999999998,1.92770119,-0.1379037,-0.00782341,-0.02159754,-0.1599466299999999,-25.92475455,-8.16385167,-9.46818951,87.7709762,-0.9214849742,1.4466096030000002,-0.882835704,-0.0965743950999999,0.04684194056,0.0355599649999999,0.005
09:51:46,-0.7488945499999999,1.935940855,-0.12518615,-0.003029345,-0.0219544299999999,-0.159648335,-25.910640475,-8.178283015,-9.473135795,87.8898839,-0.9250160639,1.4509999635000002,-0.878943868,-0.0931134129499999,0.04715757252,0.0323401424999999,0.005
09:51:46,-0.7627021999999999,1.94418052,-0.1124685999999999,0.0017647199999999,-0.02231132,-0.15935004,-25.8965264,-8.19271436,-9.47808208,88.0087916,-0.9285471536,1.455390324,-0.875052032,-0.0896524307999999,0.04747320448,0.0291203199999999,0.005
09:51:46,-0.7765098499999998,1.952420185,-0.09975105,0.0065587849999999,-0.02266821,-0.159051745,-25.882412325,-8.207145705,-9.483028365,88.1276993,-0.9320782433,1.4597806845,-0.8711601959999999,-0.08619144865,0.04778883644,0.0259004974999999,0.005
09:51:46,-0.7903174999999998,1.96065985,-0.0870334999999999,0.0113528499999999,-0.0230251,-0.15875345,-25.86829825,-8.22157705,-9.48797465,88.246607,-0.935609333,1.464171045,-0.86726836,-0.0827304664999999,0.0481044684,0.0226806749999999,0.005
09:51:46,-0.80412515,1.968899515,-0.0743159499999999,0.0161469149999999,-0.02338199,-0.158455155,-25.854184175,-8.236008394999999,-9.492920935,88.3655147,-0.9391404227,1.4685614055,-0.863376524,-0.0792694843499999,0.04842010036,0.0194608524999999,0.005
09:51:46,-0.8179327999999999,1.97713918,-0.0615984,0.0209409799999999,-0.02373888,-0.1581568599999999,-25.8400701,-8.25043974,-9.49786722,88.4844224,-0.9426715124,1.472951766,-0.859484688,-0.0758085021999999,0.04873573232,0.0162410299999999,0.005
09:51:46,-0.8317404499999999,1.985378845,-0.0488808499999999,0.0257350449999999,-0.02409577,-0.157858565,-25.825956025,-8.264871085,-9.502813505,88.60333010000001,-0.9462026021,1.4773421265,-0.855592852,-0.07234752005,0.04905136428,0.0130212074999999,0.005
09:51:46,-0.8455480999999998,1.99361851,-0.0361632999999999,0.0305291099999999,-0.02445266,-0.15756027,-25.81184195,-8.27930243,-9.50775979,88.7222378,-0.9497336918,1.481732487,-0.851701016,-0.0688865378999999,0.04936699624,0.0098013849999999,0.005
09:51:46,-0.85935575,2.001858175,-0.02344575,0.0353231749999999,-0.02480955,-0.157261975,-25.797727875,-8.293733775,-9.512706075,88.8411455,-0.9532647815,1.4861228475,-0.84780918,-0.0654255557499999,0.0496826282,0.0065815624999999,0.005
09:51:46,-0.8731633999999999,2.01009784,-0.0107281999999999,0.0401172399999998,-0.02516644,-0.15696368,-25.7836138,-8.30816512,-9.51765236,88.9600532,-0.9567958712,1.490513208,-0.8439173440000001,-0.0619645735999999,0.04999826016,0.0033617399999999,0.005
09:51:46,-0.8869710499999999,2.018337505,0.0019893500000001,0.0449113049999999,-0.02552333,-0.156665385,-25.769499725,-8.322596465,-9.522598645,89.0789609,-0.9603269609,1.4949035685,-0.8400255080000001,-0.0585035914499999,0.05031389212,0.0001419174999999,0.005
09:51:46,-0.9007786999999998,2.02657717,0.0147068999999999,0.0497053699999999,-0.02588022,-0.15636709,-25.75538565,-8.33702781,-9.52754493,89.1978686,-0.9638580506,1.499293929,-0.836133672,-0.0550426092999999,0.05062952408,-0.003077905,0.005
09:51:46,-0.9145863499999998,2.034816835,0.02742445,0.0544994349999999,-0.02623711,-0.1560687949999999,-25.741271575,-8.351459155,-9.532491215,89.3167763,-0.9673891403,1.5036842895,-0.832241836,-0.0515816271499999,0.05094515604,-0.0062977275,0.005
09:51:46,-0.928394,2.0430565,0.0401420000000001,0.0592934999999998,-0.026594,-0.1557704999999999,-25.7271575,-8.365890499999999,-9.5374375,89.43568400000001,-0.97092023,1.5080746500000002,-0.82835,-0.0481206449999999,0.051260788,-0.00951755,0.005
09:51:46,-0.94220165,2.051296165,0.0528595499999999,0.0640875649999999,-0.02695089,-0.155472205,-25.713043425,-8.380321845,-9.542383785,89.5545917,-0.9744513197,1.5124650105000002,-0.8244581639999999,-0.0446596628499999,0.05157641996,-0.0127373725,0.005
09:51:46,-0.9560092999999998,2.05953583,0.0655771,0.0688816299999999,-0.02730778,-0.15517391,-25.69892935,-8.39475319,-9.54733007,89.6734994,-0.9779824094,1.516855371,-0.820566328,-0.0411986806999999,0.05189205192,-0.015957195,0.005
09:51:46,-0.9698169499999998,2.067775495,0.0782946500000001,0.0736756949999999,-0.02766467,-0.154875615,-25.684815275,-8.409184535,-9.552276355,89.7924071,-0.9815134991,1.5212457315,-0.816674492,-0.0377376985499999,0.05220768388,-0.0191770175,0.005
09:51:46,-0.9836246,2.07601516,0.0910121999999999,0.0784697599999998,-0.02802156,-0.15457732,-25.6707012,-8.42361588,-9.55722264,89.9113148,-0.9850445888,1.525636092,-0.812782656,-0.0342767163999999,0.05252331584,-0.02239684,0.005
09:51:46,-0.99743225,2.084254825,0.10372975,0.0832638249999999,-0.02837845,-0.154279025,-25.656587125,-8.438047225,-9.562168925,90.03022250000001,-0.9885756785,1.5300264525,-0.80889082,-0.0308157342499999,0.0528389478,-0.0256166625,0.005
09:51:46,-1.0112399,2.09249449,0.1164473000000001,0.0880578899999999,-0.02873534,-0.1539807299999999,-25.64247305,-8.45247857,-9.56711521,90.1491302,-0.9921067682,1.534416813,-0.804998984,-0.0273547520999999,0.05315457976,-0.028836485,0.005
09:51:46,-1.0250475499999998,2.100734155,0.12916485,0.0928519549999999,-0.02909223,-0.153682435,-25.628358975,-8.466909915,-9.572061495,90.2680379,-0.9956378579,1.5388071735,-0.801107148,-0.0238937699499999,0.05347021172,-0.0320563075,0.005
09:51:46,-1.0388551999999998,2.10897382,0.1418824,0.0976460199999999,-0.02944912,-0.15338414,-25.6142449,-8.48134126,-9.57700778,90.3869456,-0.9991689476,1.543197534,-0.7972153120000001,-0.0204327877999999,0.05378584368,-0.03527613,0.005
09:51:46,-1.05266285,2.117213485,0.1545999500000001,0.1024400849999999,-0.02980601,-0.153085845,-25.600130825,-8.495772604999999,-9.581954065,90.5058533,-1.0027000373,1.5475878945,-0.7933234760000001,-0.0169718056499999,0.05410147564,-0.0384959525,0.005
09:51:46,-1.0664705,2.12545315,0.1673175,0.1072341499999998,-0.0301629,-0.15278755,-25.58601675,-8.51020395,-9.58690035,90.624761,-1.006231127,1.551978255,-0.78943164,-0.0135108234999999,0.0544171076,-0.041715775,0.005
09:51:46,-1.0802781499999998,2.133692815,0.18003505,0.1120282149999998,-0.03051979,-0.152489255,-25.571902675,-8.524635295,-9.591846635,90.7436687,-1.0097622167,1.5563686155,-0.785539804,-0.0100498413499999,0.05473273956,-0.0449355975,0.005
09:51:46,-1.0940857999999998,2.14193248,0.1927526000000001,0.1168222799999998,-0.03087668,-0.15219096,-25.5577886,-8.53906664,-9.59679292,90.8625764,-1.0132933064,1.560758976,-0.781647968,-0.0065888591999999,0.05504837152,-0.04815542,0.005
09:51:46,-1.10789345,2.150172145,0.20547015,0.1216163449999999,-0.03123357,-0.1518926649999999,-25.543674525,-8.553497985,-9.601739205,90.9814841,-1.0168243961,1.5651493365,-0.7777561319999999,-0.0031278770499999,0.05536400348,-0.0513752425,0.005
09:51:46,-1.1217011,2.15841181,0.2181877000000001,0.1264104099999999,-0.03159046,-0.1515943699999999,-25.52956045,-8.56792933,-9.60668549,91.1003918,-1.0203554858,1.5695396970000002,-0.773864296,0.0003331051,0.05567963544,-0.054595065,0.005
09:51:46,-1.1355087499999998,2.166651475,0.2309052499999999,0.1312044749999999,-0.03194735,-0.1512960749999999,-25.515446375,-8.582360675,-9.611631775,91.2192995,-1.0238865755,1.5739300575,-0.76997246,0.00379408725,0.0559952674,-0.0578148875,0.005
09:51:46,-1.1493163999999998,2.17489114,0.2436228,0.1359985399999999,-0.03230424,-0.15099778,-25.5013323,-8.59679202,-9.61657806,91.3382072,-1.0274176652,1.578320418,-0.766080624,0.0072550694,0.05631089936,-0.06103471,0.005
09:51:46,-1.16312405,2.183130805,0.2563403500000001,0.1407926049999998,-0.03266113,-0.150699485,-25.487218225,-8.611223365,-9.621524345,91.4571149,-1.0309487549,1.5827107785,-0.762188788,0.01071605155,0.05662653132,-0.0642545325,0.005
09:51:46,-1.1769317,2.19137047,0.2690578999999999,0.1455866699999998,-0.03301802,-0.15040119,-25.47310415,-8.62565471,-9.62647063,91.5760226,-1.0344798446,1.587101139,-0.758296952,0.0141770337,0.05694216328,-0.067474355,0.005
09:51:46,-1.19073935,2.199610135,0.28177545,0.1503807349999998,-0.03337491,-0.150102895,-25.458990075,-8.640086055,-9.631416915,91.6949303,-1.0380109343,1.5914914995,-0.754405116,0.01763801585,0.05725779524,-0.0706941775,0.005
09:51:46,-1.2045469999999998,2.2078498,0.2944930000000001,0.1551747999999999,-0.0337318,-0.1498045999999999,-25.444876,-8.6545174,-9.6363632,91.813838,-1.041542024,1.59588186,-0.7505132800000001,0.021098998,0.0575734272,-0.073914,0.005
09:51:46,-1.2183546499999998,2.216089465,0.3072105499999999,0.1599688649999999,-0.03408869,-0.149506305,-25.430761925,-8.668948745,-9.641309485,91.9327457,-1.0450731137,1.6002722205,-0.746621444,0.02455998015,0.05788905916,-0.0771338225,0.005
09:51:46,-1.2321623,2.22432913,0.3199281,0.1647629299999999,-0.03444558,-0.14920801,-25.41664785,-8.68338009,-9.64625577,92.0516534,-1.0486042034,1.604662581,-0.742729608,0.0280209623,0.05820469112,-0.080353645,0.005
09:51:46,-1.24596995,2.232568795,0.3326456500000001,0.1695569949999999,-0.03480247,-0.148909715,-25.402533775,-8.697811435,-9.651202055,92.1705611,-1.0521352931,1.6090529415,-0.738837772,0.03148194445,0.05852032308,-0.0835734675,0.005
09:51:46,-1.2597775999999998,2.24080846,0.3453632,0.1743510599999999,-0.03515936,-0.14861142,-25.3884197,-8.71224278,-9.65614834,92.2894688,-1.0556663828,1.613443302,-0.7349459359999999,0.0349429266,0.05883595504,-0.08679329,0.005
09:51:46,-1.2735852499999998,2.249048125,0.35808075,0.1791451249999998,-0.03551625,-0.148313125,-25.374305625,-8.726674125,-9.661094625,92.4083765,-1.0591974725,1.6178336625,-0.7310540999999999,0.03840390875,0.059151587,-0.0900131125,0.005
09:51:46,-1.2873929,2.2572877900000003,0.3707983000000001,0.1839391899999998,-0.03587314,-0.14801483,-25.36019155,-8.74110547,-9.66604091,92.5272842,-1.0627285622,1.622224023,-0.727162264,0.0418648909,0.05946721896,-0.093232935,0.005
09:51:46,-1.30120055,2.265527455,0.38351585,0.1887332549999998,-0.03623003,-0.1477165349999999,-25.346077475,-8.755536815,-9.670987195,92.6461919,-1.0662596519,1.6266143835000002,-0.723270428,0.04532587305,0.05978285092,-0.0964527575,0.005
09:51:46,-1.3150081999999998,2.27376712,0.3962334,0.1935273199999999,-0.03658692,-0.1474182399999999,-25.3319634,-8.76996816,-9.67593348,92.7650996,-1.0697907416,1.6310047440000002,-0.719378592,0.0487868552,0.06009848288,-0.09967258,0.005
09:51:46,-1.3288158499999998,2.282006785,0.4089509500000001,0.1983213849999999,-0.03694381,-0.147119945,-25.317849325,-8.784399505,-9.680879765,92.8840073,-1.0733218313,1.6353951045,-0.715486756,0.05224783735,0.06041411484,-0.1028924025,0.005
09:51:46,-1.3426234999999995,2.29024645,0.4216685,0.2031154499999999,-0.0373007,-0.14682165,-25.303735250000003,-8.79883085,-9.68582605,93.002915,-1.076852921,1.639785465,-0.71159492,0.0557088195,0.0607297468,-0.106112225,0.005
09:51:46,-1.35643115,2.298486115,0.4343860500000001,0.2079095149999999,-0.03765759,-0.146523355,-25.289621175,-8.813262195,-9.690772335,93.1218227,-1.0803840107,1.6441758255,-0.7077030839999999,0.05916980165,0.06104537876,-0.1093320475,0.005
09:51:46,-1.3702388,2.30672578,0.4471036000000001,0.2127035799999998,-0.03801448,-0.14622506,-25.2755071,-8.82769354,-9.69571862,93.2407304,-1.0839151004,1.648566186,-0.703811248,0.0626307838,0.06136101072,-0.11255187,0.005
09:51:46,-1.3840464499999998,2.3149654450000003,0.45982115,0.2174976449999998,-0.03837137,-0.1459267649999999,-25.261393025,-8.842124885,-9.700664905,93.3596381,-1.0874461901,1.6529565465,-0.699919412,0.06609176595,0.06167664268,-0.1157716925,0.005
09:51:46,-1.3978540999999998,2.32320511,0.4725387000000001,0.2222917099999998,-0.03872826,-0.1456284699999999,-25.24727895,-8.856556229999999,-9.70561119,93.4785458,-1.0909772798,1.657346907,-0.696027576,0.0695527481,0.06199227464,-0.118991515,0.005
09:51:46,-1.41166175,2.331444775,0.4852562500000001,0.2270857749999998,-0.03908515,-0.145330175,-25.233164875,-8.870987575000001,-9.710557475,93.5974535,-1.0945083695,1.6617372675,-0.69213574,0.07301373025,0.0623079066,-0.1222113375,0.005
09:51:46,-1.4254694,2.33968444,0.4979738,0.2318798399999999,-0.03944204,-0.14503188,-25.2190508,-8.88541892,-9.71550376,93.7163612,-1.0980394592,1.666127628,-0.688243904,0.0764747124,0.06262353856,-0.12543116,0.005
09:51:46,-1.4392770499999998,2.347924105,0.5106913500000001,0.2366739049999999,-0.03979893,-0.144733585,-25.204936725,-8.899850265,-9.720450045,93.8352689,-1.1015705489,1.6705179885,-0.6843520679999999,0.07993569455,0.06293917052,-0.1286509825,0.005
09:51:46,-1.4530846999999998,2.35616377,0.5234089000000002,0.2414679699999999,-0.04015582,-0.14443529,-25.19082265,-8.91428161,-9.72539633,93.9541766,-1.1051016386,1.674908349,-0.6804602319999999,0.0833966767,0.06325480248,-0.1318708050000001,0.005
09:51:46,-1.4668923499999995,2.364403435,0.53612645,0.2462620349999999,-0.04051271,-0.144136995,-25.176708575,-8.928712955,-9.730342615,94.0730843,-1.1086327283,1.6792987095,-0.676568396,0.08685765885,0.06357043444,-0.1350906275,0.005
09:51:46,-1.4807,2.3726431000000003,0.5488440000000001,0.2510560999999998,-0.0408696,-0.1438386999999999,-25.1625945,-8.9431443,-9.7352889,94.191992,-1.112163818,1.68368907,-0.67267656,0.090318641,0.0638860664,-0.13831045,0.005
09:51:46,-1.49450765,2.380882765,0.5615615500000002,0.2558501649999998,-0.04122649,-0.1435404049999999,-25.148480425,-8.957575645,-9.740235185,94.3108997,-1.1156949077,1.6880794305000002,-0.668784724,0.09377962315,0.06420169836,-0.1415302725,0.005
09:51:46,-1.5083152999999998,2.38912243,0.5742791,0.2606442299999998,-0.04158338,-0.1432421099999999,-25.13436635,-8.97200699,-9.74518147,94.4298074,-1.1192259974,1.6924697910000002,-0.664892888,0.0972406053,0.06451733032,-0.144750095,0.005
09:51:46,-1.5221229499999998,2.397362095,0.5869966500000001,0.2654382949999999,-0.04194027,-0.142943815,-25.120252275,-8.986438334999999,-9.750127755,94.5487151,-1.1227570871,1.6968601515,-0.6610010519999999,0.10070158745,0.06483296228,-0.1479699175,0.005
09:51:46,-1.5359306,2.40560176,0.5997142,0.2702323599999999,-0.04229716,-0.14264552,-25.1061382,-9.000869680000001,-9.75507404,94.6676228,-1.1262881768000002,1.701250512,-0.6571092159999999,0.1041625696,0.06514859424,-0.15118974,0.005
09:51:46,-1.5497382499999997,2.413841425,0.61243175,0.2750264249999999,-0.04265405,-0.142347225,-25.092024125,-9.015301025,-9.760020325,94.7865305,-1.1298192665,1.7056408725,-0.65321738,0.1076235517499999,0.0654642262,-0.1544095625000001,0.005
09:51:46,-1.5635459,2.42208109,0.6251493000000001,0.2798204899999999,-0.04301094,-0.14204893,-25.07791005,-9.02973237,-9.76496661,94.9054382,-1.1333503562,1.710031233,-0.649325544,0.1110845339,0.06577985816,-0.157629385,0.005
09:51:46,-1.57735355,2.4303207550000003,0.63786685,0.2846145549999998,-0.04336783,-0.1417506349999999,-25.063795975,-9.044163715,-9.769912895,95.0243459,-1.1368814458999998,1.7144215935,-0.645433708,0.11454551605,0.06609549012,-0.1608492075000001,0.005
09:51:46,-1.5911612,2.43856042,0.6505844000000001,0.2894086199999998,-0.04372472,-0.14145234,-25.0496819,-9.05859506,-9.77485918,95.1432536,-1.1404125356,1.718811954,-0.641541872,0.1180064982,0.06641112208,-0.16406903,0.005
09:51:46,-1.60496885,2.446800085,0.6633019500000001,0.2942026849999998,-0.04408161,-0.141154045,-25.035567825,-9.073026405,-9.779805465,95.2621613,-1.1439436253,1.7232023145,-0.6376500359999999,0.12146748035,0.06672675404,-0.1672888525,0.005
09:51:46,-1.6187764999999998,2.45503975,0.6760195,0.2989967499999998,-0.0444385,-0.14085575,-25.02145375,-9.08745775,-9.78475175,95.381069,-1.147474715,1.727592675,-0.6337581999999999,0.1249284625,0.067042386,-0.170508675,0.005
09:51:46,-1.6325841499999998,2.463279415,0.6887370500000001,0.3037908149999999,-0.04479539,-0.140557455,-25.007339675,-9.101889095,-9.789698035,95.4999767,-1.1510058047,1.7319830355,-0.629866364,0.12838944465,0.06735801796,-0.1737284975,0.005
09:51:46,-1.6463917999999995,2.47151908,0.7014546000000002,0.3085848799999999,-0.04515228,-0.14025916,-24.9932256,-9.11632044,-9.79464432,95.6188844,-1.1545368944,1.736373396,-0.625974528,0.1318504268000001,0.06767364992,-0.1769483200000001,0.005
09:51:46,-1.6601994499999997,2.479758745,0.71417215,0.3133789449999999,-0.04550917,-0.139960865,-24.979111525,-9.130751785,-9.799590605,95.7377921,-1.1580679841,1.7407637565,-0.622082692,0.13531140895,0.06798928188,-0.1801681425,0.005
09:51:46,-1.6740070999999996,2.4879984100000003,0.7268897000000001,0.3181730099999999,-0.04586606,-0.1396625699999999,-24.96499745,-9.14518313,-9.80453689,95.8566998,-1.1615990738,1.7451541170000002,-0.618190856,0.1387723911,0.06830491384,-0.1833879650000001,0.005
09:51:46,-1.68781475,2.496238075,0.7396072500000002,0.3229670749999998,-0.04622295,-0.1393642749999999,-24.950883375,-9.159614475,-9.809483175,95.9756075,-1.1651301635,1.7495444775000002,-0.6142990199999999,0.14223337325,0.0686205458,-0.1866077875,0.005
09:51:46,-1.7016224,2.50447774,0.7523248,0.3277611399999998,-0.04657984,-0.1390659799999999,-24.9367693,-9.17404582,-9.81442946,96.0945152,-1.1686612532,1.7539348380000002,-0.6104071839999999,0.1456943554,0.06893617776,-0.1898276100000001,0.005
09:51:46,-1.71543005,2.512717405,0.7650423500000001,0.3325552049999998,-0.04693673,-0.138767685,-24.922655225,-9.188477165,-9.819375745,96.2134229,-1.1721923429,1.7583251985,-0.606515348,0.14915533755,0.06925180972,-0.1930474325,0.005
09:51:46,-1.7292377,2.52095707,0.7777599000000002,0.3373492699999998,-0.04729362,-0.13846939,-24.90854115,-9.20290851,-9.82432203,96.3323306,-1.1757234326,1.762715559,-0.602623512,0.1526163197,0.06956744168,-0.196267255,0.005
09:51:46,-1.7430453499999998,2.529196735,0.7904774500000002,0.3421433349999999,-0.04765051,-0.138171095,-24.894427075,-9.217339855,-9.829268315,96.4512383,-1.1792545223,1.7671059195,-0.598731676,0.15607730185,0.06988307364,-0.1994870775000001,0.005
09:51:46,-1.7568529999999998,2.5374364,0.8031949999999999,0.3469373999999999,-0.0480074,-0.1378728,-24.880313,-9.2317712,-9.8342146,96.570146,-1.182785612,1.77149628,-0.5948398399999999,0.159538284,0.0701987056,-0.2027069,0.005
09:51:46,-1.7706606499999995,2.5456760650000003,0.81591255,0.3517314649999999,-0.04836429,-0.1375745049999999,-24.866198925,-9.246202545,-9.839160885,96.6890537,-1.1863167017,1.7758866405,-0.5909480039999999,0.1629992661500001,0.07051433756,-0.2059267225,0.005
09:51:46,-1.7844682999999997,2.55391573,0.8286301,0.3565255299999998,-0.04872118,-0.13727621,-24.85208485,-9.26063389,-9.84410717,96.8079614,-1.1898477914,1.780277001,-0.5870561679999999,0.1664602483,0.07082996952,-0.2091465450000001,0.005
09:51:46,-1.7982759499999996,2.562155395,0.8413476500000001,0.3613195949999998,-0.04907807,-0.136977915,-24.837970775,-9.275065235,-9.849053455,96.9268691,-1.1933788811,1.7846673615,-0.583164332,0.16992123045,0.07114560148,-0.2123663675000001,0.005
09:51:46,-1.8120836,2.57039506,0.8540652000000002,0.3661136599999998,-0.04943496,-0.13667962,-24.8238567,-9.28949658,-9.85399974,97.0457768,-1.1969099708,1.789057722,-0.579272496,0.1733822126,0.07146123344,-0.21558619,0.005
09:51:46,-1.82589125,2.578634725,0.8667827500000003,0.3709077249999998,-0.04979185,-0.136381325,-24.809742625,-9.303927925,-9.858946025,97.1646845,-1.2004410605,1.7934480825,-0.57538066,0.17684319475,0.0717768654,-0.2188060125,0.005
09:51:46,-1.8396989,2.58687439,0.8795002999999999,0.3757017899999998,-0.05014874,-0.13608303,-24.79562855,-9.31835927,-9.86389231,97.2835922,-1.2039721502,1.797838443,-0.5714888239999999,0.1803041769,0.07209249736,-0.2220258350000001,0.005
09:51:46,-1.85350655,2.595114055,0.89221785,0.3804958549999999,-0.05050563,-0.135784735,-24.781514475,-9.332790615,-9.868838595,97.4024999,-1.2075032399,1.8022288035,-0.5675969879999999,0.18376515905,0.07240812932,-0.2252456575,0.005
09:51:46,-1.8673142,2.6033537200000003,0.9049354,0.3852899199999999,-0.05086252,-0.1354864399999999,-24.7674004,-9.34722196,-9.87378488,97.5214076,-1.2110343296,1.806619164,-0.5637051519999999,0.1872261412,0.07272376128,-0.22846548,0.005
09:51:46,-1.88112185,2.611593385,0.91765295,0.3900839849999999,-0.05121941,-0.1351881449999999,-24.753286325,-9.361653305,-9.878731165,97.6403153,-1.2145654193,1.8110095245,-0.559813316,0.1906871233500001,0.07303939324,-0.2316853025000001,0.005
09:51:46,-1.8949295,2.61983305,0.9303705000000002,0.3948780499999998,-0.0515763,-0.1348898499999999,-24.739172250000003,-9.37608465,-9.88367745,97.759223,-1.218096509,1.815399885,-0.55592148,0.1941481055,0.0733550252,-0.2349051250000001,0.005
09:51:46,-1.90873715,2.628072715,0.9430880500000004,0.3996721149999998,-0.05193319,-0.134591555,-24.725058175,-9.390515995,-9.888623735,97.8781307,-1.2216275987,1.8197902455,-0.552029644,0.19760908765,0.07367065716,-0.2381249475,0.005
09:51:46,-1.9225448,2.63631238,0.9558056,0.4044661799999998,-0.05229008,-0.13429326,-24.710944100000003,-9.40494734,-9.89357002,97.9970384,-1.2251586884,1.824180606,-0.5481378079999999,0.2010700698,0.07398628912,-0.24134477,0.005
09:51:46,-1.93635245,2.644552045,0.96852315,0.4092602449999998,-0.05264697,-0.133994965,-24.696830025,-9.419378685,-9.898516305,98.1159461,-1.2286897781,1.8285709665,-0.5442459719999999,0.20453105195,0.07430192108,-0.2445645925000001,0.005
09:51:46,-1.9501601,2.65279171,0.9812407,0.4140543099999998,-0.05300386,-0.13369667,-24.68271595,-9.43381003,-9.90346259,98.2348538,-1.2322208678,1.832961327,-0.5403541359999999,0.2079920341,0.07461755304,-0.2477844150000001,0.005
09:51:46,-1.96396775,2.6610313750000003,0.9939582500000002,0.4188483749999999,-0.05336075,-0.1333983749999999,-24.668601875,-9.448241375,-9.908408875,98.3537615,-1.2357519575,1.8373516875,-0.5364623,0.21145301625,0.074933185,-0.2510042375,0.005
09:51:46,-1.9777754,2.66927104,1.0066758000000002,0.4236424399999999,-0.05371764,-0.13310008,-24.6544878,-9.46267272,-9.91335516,98.4726692,-1.2392830471999998,1.841742048,-0.532570464,0.2149139984,0.07524881696,-0.2542240600000001,0.005
09:51:46,-1.99158305,2.677510705,1.0193933500000003,0.4284365049999998,-0.05407453,-0.132801785,-24.640373725,-9.477104065,-9.918301445,98.5915769,-1.2428141369,1.8461324085,-0.528678628,0.2183749805500001,0.07556444892,-0.2574438825000001,0.005
09:51:46,-2.0053907,2.68575037,1.0321109,0.4332305699999998,-0.05443142,-0.13250349,-24.62625965,-9.49153541,-9.92324773,98.7104846,-1.2463452266,1.850522769,-0.5247867919999999,0.2218359627,0.07588008088,-0.2606637050000001,0.005
09:51:46,-2.01919835,2.693990035,1.04482845,0.4380246349999998,-0.05478831,-0.132205195,-24.612145575,-9.505966755,-9.928194015,98.8293923,-1.2498763163,1.8549131295,-0.5208949559999999,0.22529694485,0.07619571284,-0.2638835275,0.005
09:51:46,-2.033006,2.7022297,1.057546,0.4428186999999998,-0.0551452,-0.1319069,-24.5980315,-9.5203981,-9.9331403,98.9483,-1.253407406,1.85930349,-0.5170031199999999,0.228757927,0.0765113448,-0.2671033500000001,0.005
09:51:46,-2.0468136500000003,2.710469365,1.0702635500000002,0.4476127649999998,-0.05550209,-0.131608605,-24.583917425000003,-9.534829445,-9.938086585,99.0672077,-1.2569384957,1.8636938505,-0.513111284,0.23221890915,0.07682697676,-0.2703231725000001,0.005
09:51:46,-2.0606213,2.7187090300000003,1.0829811000000005,0.4524068299999998,-0.0558589799999999,-0.1313103099999999,-24.56980335,-9.54926079,-9.94303287,99.1861154,-1.2604695854,1.868084211,-0.509219448,0.2356798913,0.07714260872,-0.273542995,0.005
09:51:46,-2.07442895,2.726948695,1.0956986500000003,0.4572008949999999,-0.05621587,-0.1310120149999999,-24.555689275,-9.563692135,-9.947979155,99.3050231,-1.2640006751,1.8724745715,-0.505327612,0.23914087345,0.07745824068,-0.2767628175,0.005
09:51:46,-2.0882366,2.73518836,1.1084162,0.4619949599999999,-0.05657276,-0.1307137199999999,-24.5415752,-9.57812348,-9.95292544,99.4239308,-1.2675317648,1.876864932,-0.5014357759999999,0.2426018556,0.07777387264,-0.2799826400000001,0.005
09:51:46,-2.10204425,2.743428025,1.12113375,0.4667890249999998,-0.05692965,-0.130415425,-24.527461125,-9.592554825,-9.957871725,99.5428385,-1.2710628545,1.8812552925,-0.4975439399999999,0.2460628377500001,0.0780895046,-0.2832024625000001,0.005
09:51:46,-2.1158519,2.75166769,1.1338513,0.4715830899999998,-0.05728654,-0.13011713,-24.51334705,-9.60698617,-9.96281801,99.6617462,-1.2745939441999998,1.885645653,-0.4936521039999999,0.2495238199,0.07840513656,-0.286422285,0.005
09:51:46,-2.12965955,2.759907355,1.1465688500000002,0.4763771549999998,-0.05764343,-0.129818835,-24.499232975,-9.621417515,-9.967764295,99.7806539,-1.2781250339,1.8900360135,-0.4897602679999999,0.25298480205,0.07872076852,-0.2896421075000001,0.005
09:51:46,-2.1434672,2.76814702,1.1592864000000005,0.4811712199999998,-0.05800032,-0.12952054,-24.4851189,-9.63584886,-9.97271058,99.8995616,-1.2816561236,1.894426374,-0.4858684319999999,0.2564457842,0.07903640048,-0.2928619300000001,0.005
09:51:46,-2.15727485,2.7763866850000003,1.1720039500000003,0.4859652849999998,-0.05835721,-0.1292222449999999,-24.471004825,-9.650280205,-9.977656865,100.0184693,-1.2851872133,1.8988167345,-0.481976596,0.25990676635,0.07935203244,-0.2960817525000001,0.005
09:51:46,-2.1710825,2.78462635,1.1847215,0.4907593499999998,-0.0587141,-0.12892395,-24.45689075,-9.66471155,-9.98260315,100.137377,-1.288718303,1.903207095,-0.4780847599999999,0.2633677485,0.0796676644,-0.299301575,0.005
09:51:46,-2.18489015,2.792866015,1.19743905,0.4955534149999999,-0.05907099,-0.128625655,-24.442776675,-9.679142895,-9.987549435,100.2562847,-1.2922493927,1.9075974555,-0.4741929239999999,0.26682873065,0.07998329636,-0.3025213975000001,0.005
09:51:46,-2.1986978,2.80110568,1.2101566,0.5003474799999998,-0.05942788,-0.12832736,-24.428662600000003,-9.69357424,-9.99249572,100.3751924,-1.2957804824,1.911987816,-0.4703010879999999,0.2702897128000001,0.08029892832,-0.3057412200000001,0.005
09:51:46,-2.21250545,2.809345345,1.2228741500000002,0.5051415449999999,-0.05978477,-0.128029065,-24.414548525,-9.708005585,-9.997442005,100.4941001,-1.2993115721,1.9163781765,-0.4664092519999999,0.2737506949500001,0.08061456028,-0.3089610425,0.005
09:51:46,-2.2263131,2.81758501,1.2355917000000003,0.5099356099999999,-0.06014166,-0.12773077,-24.40043445,-9.72243693,-10.00238829,100.6130078,-1.3028426618,1.920768537,-0.4625174159999999,0.2772116771000001,0.08093019224,-0.3121808650000001,0.005
09:51:46,-2.24012075,2.825824675,1.24830925,0.5147296749999999,-0.06049855,-0.127432475,-24.386320375,-9.736868275,-10.007334575,100.7319155,-1.3063737515,1.9251588975,-0.4586255799999998,0.28067265925,0.0812458242,-0.3154006875000001,0.005
09:51:46,-2.2539284,2.8340643400000003,1.2610268,0.5195237399999999,-0.06085544,-0.1271341799999999,-24.3722063,-9.75129962,-10.01228086,100.8508232,-1.3099048411999998,1.929549258,-0.4547337439999999,0.2841336414,0.08156145616,-0.3186205100000001,0.005
09:51:46,-2.26773605,2.842304005,1.27374435,0.5243178049999999,-0.06121233,-0.1268358849999999,-24.358092225,-9.765730965,-10.017227145,100.9697309,-1.3134359309,1.9339396185,-0.4508419079999999,0.28759462355,0.08187708812,-0.3218403325,0.005
09:51:46,-2.2815437,2.85054367,1.2864619000000002,0.5291118699999999,-0.06156922,-0.1265375899999999,-24.34397815,-9.78016231,-10.02217343,101.0886386,-1.3169670206,1.938329979,-0.4469500719999999,0.2910556057,0.08219272008,-0.3250601550000001,0.005
09:51:46,-2.29535135,2.858783335,1.2991794500000002,0.5339059349999999,-0.06192611,-0.126239295,-24.329864075,-9.794593655,-10.027119715,101.2075463,-1.3204981103,1.9427203395,-0.4430582359999999,0.29451658785,0.08250835204,-0.3282799775000001,0.005
09:51:47,-2.309159,2.867023,1.311897,0.5387,-0.062283,-0.125941,-24.31575,-9.809025,-10.032066,101.326454,-1.3240292,1.9471107,-0.4391664,0.29797757,0.082823984,-0.3314998,0.005
09:51:47,-2.2901914100000003,2.8503714,1.30155343,0.53459841,-0.06316191,-0.1228887749999999,-24.27219144,-9.82378328,-10.021291235,101.27402258,-1.31552469725,1.9332505477,-0.440849046,0.29706213458,0.08191306578,-0.32802392975,0.005
09:51:47,-2.2712238200000003,2.8337198,1.2912098600000002,0.53049682,-0.06404082,-0.11983655,-24.228632880000003,-9.83854156,-10.01051647,101.22159116,-1.3070201945,1.9193903954,-0.442531692,0.29614669916,0.08100214756,-0.3245480595,0.005
09:51:47,-2.25225623,2.8170682,1.28086629,0.52639523,-0.06491973,-0.116784325,-24.18507432,-9.85329984,-9.999741705,101.16915974,-1.29851569175,1.9055302431,-0.444214338,0.29523126374,0.08009122934,-0.32107218925,0.005
09:51:47,-2.23328864,2.8004166,1.27052272,0.52229364,-0.0657986399999999,-0.1137321,-24.14151576,-9.86805812,-9.98896694,101.11672832,-1.290011189,1.8916700908,-0.445896984,0.29431582832,0.07918031112,-0.317596319,0.005
09:51:47,-2.21432105,2.7837650000000003,1.26017915,0.5181920499999999,-0.06667755,-0.110679875,-24.0979572,-9.8828164,-9.978192175,101.0642969,-1.28150668625,1.8778099385,-0.44757963,0.2934003929,0.0782693929,-0.31412044875,0.005
09:51:47,-2.19535346,2.7671134,1.24983558,0.5140904599999999,-0.06755646,-0.1076276499999999,-24.05439864,-9.89757468,-9.96741741,101.01186548,-1.2730021835,1.8639497862,-0.449262276,0.29248495748,0.07735847468,-0.3106445785,0.005
09:51:47,-2.1763858700000003,2.7504618,1.2394920100000002,0.5099888699999999,-0.06843537,-0.104575425,-24.01084008,-9.91233296,-9.956642645,100.95943406,-1.26449768075,1.8500896339,-0.450944922,0.29156952206,0.07644755646,-0.30716870825,0.005
09:51:47,-2.1574182800000004,2.7338102,1.22914844,0.5058872799999999,-0.0693142799999999,-0.1015232,-23.96728152,-9.92709124,-9.94586788,100.90700264,-1.255993178,1.8362294816,-0.452627568,0.29065408664,0.07553663824,-0.303692838,0.005
09:51:47,-2.13845069,2.7171586000000003,1.21880487,0.50178569,-0.07019319,-0.098470975,-23.923722960000003,-9.94184952,-9.935093115,100.85457122,-1.24748867525,1.8223693293,-0.454310214,0.28973865122,0.07462572002,-0.30021696775,0.005
09:51:47,-2.1194831,2.700507,1.2084613000000002,0.4976840999999999,-0.0710721,-0.09541875,-23.8801644,-9.9566078,-9.92431835,100.8021398,-1.2389841725,1.808509177,-0.45599286,0.2888232158,0.0737148018,-0.2967410975,0.005
09:51:47,-2.10051551,2.6838554,1.19811773,0.49358251,-0.07195101,-0.092366525,-23.83660584,-9.97136608,-9.913543585,100.74970838,-1.23047966975,1.7946490247,-0.457675506,0.28790778038,0.07280388358,-0.29326522725,0.005
09:51:47,-2.08154792,2.6672038,1.18777416,0.48948092,-0.0728299199999999,-0.0893143,-23.79304728,-9.98612436,-9.90276882,100.69727696,-1.221975167,1.7807888724,-0.459358152,0.28699234496,0.07189296536,-0.289789357,0.005
09:51:47,-2.0625803300000003,2.6505522,1.1774305900000002,0.4853793299999999,-0.07370883,-0.086262075,-23.74948872,-10.00088264,-9.891994055,100.64484554,-1.21347066425,1.7669287201,-0.461040798,0.28607690954,0.07098204714,-0.28631348675,0.005
09:51:47,-2.0436127400000004,2.6339006,1.16708702,0.4812777399999999,-0.07458774,-0.08320985,-23.70593016,-10.01564092,-9.88121929,100.59241412,-1.2049661615,1.7530685678000002,-0.462723444,0.28516147412,0.07007112892,-0.2828376165,0.005
09:51:47,-2.02464515,2.617249,1.15674345,0.4771761499999999,-0.07546665,-0.080157625,-23.6623716,-10.0303992,-9.870444525,100.5399827,-1.19646165875,1.7392084155,-0.46440609,0.2842460387,0.0691602107,-0.27936174625,0.005
09:51:47,-2.00567756,2.6005974000000003,1.14639988,0.47307456,-0.0763455599999999,-0.0771053999999999,-23.618813040000003,-10.04515748,-9.85966976,100.48755128,-1.187957156,1.7253482632,-0.466088736,0.28333060328,0.06824929248,-0.275885876,0.005
09:51:47,-1.98670997,2.5839458,1.13605631,0.4689729699999999,-0.07722447,-0.074053175,-23.57525448,-10.05991576,-9.848894995,100.43511986,-1.17945265325,1.7114881109,-0.467771382,0.28241516786,0.06733837426,-0.27241000575,0.005
09:51:47,-1.96774238,2.5672942,1.12571274,0.4648713799999999,-0.07810338,-0.07100095,-23.53169592,-10.07467404,-9.83812023,100.38268844,-1.1709481505,1.6976279586,-0.469454028,0.28149973244,0.06642745604,-0.2689341355,0.005
09:51:47,-1.9487747900000003,2.5506426,1.11536917,0.4607697899999999,-0.07898229,-0.0679487249999999,-23.48813736,-10.08943232,-9.827345465,100.33025702,-1.16244364775,1.6837678063,-0.471136674,0.28058429702,0.06551653782,-0.26545826525,0.005
09:51:47,-1.9298072,2.5339910000000003,1.1050256,0.4566681999999999,-0.0798612,-0.0648965,-23.4445788,-10.1041906,-9.8165707,100.2778256,-1.153939145,1.6699076540000002,-0.47281932,0.2796688616,0.0646056196,-0.261982395,0.005
09:51:47,-1.91083961,2.5173394,1.09468203,0.45256661,-0.08074011,-0.061844275,-23.40102024,-10.11894888,-9.805795935,100.22539418,-1.14543464225,1.6560475017,-0.474501966,0.27875342618,0.06369470138,-0.25850652475,0.005
09:51:47,-1.89187202,2.5006878,1.08433846,0.44846502,-0.08161902,-0.05879205,-23.35746168,-10.13370716,-9.79502117,100.17296276,-1.1369301395,1.6421873494,-0.476184612,0.27783799076,0.06278378316,-0.2550306545,0.005
09:51:47,-1.87290443,2.4840362,1.07399489,0.4443634299999999,-0.08249793,-0.0557398249999999,-23.313903120000003,-10.14846544,-9.784246405,100.12053134,-1.12842563675,1.6283271971000002,-0.477867258,0.27692255534,0.06187286494,-0.25155478425,0.005
09:51:47,-1.8539368400000005,2.4673846,1.0636513200000002,0.4402618399999999,-0.08337684,-0.0526876,-23.27034456,-10.16322372,-9.77347164,100.06809992,-1.119921134,1.6144670448,-0.479549904,0.27600711992,0.06096194672,-0.248078914,0.005
09:51:47,-1.8349692500000003,2.450733,1.05330775,0.4361602499999999,-0.0842557499999999,-0.0496353749999999,-23.226786,-10.177982,-9.762696875,100.0156685,-1.11141663125,1.6006068925,-0.48123255,0.2750916845,0.0600510285,-0.24460304375,0.005
09:51:47,-1.81600166,2.4340814,1.04296418,0.43205866,-0.08513466,-0.04658315,-23.18322744,-10.19274028,-9.75192211,99.96323708,-1.1029121285,1.5867467402000002,-0.482915196,0.27417624908,0.05914011028,-0.2411271735,0.005
09:51:47,-1.79703407,2.4174298000000003,1.0326206100000002,0.4279570699999999,-0.08601357,-0.043530925,-23.13966888,-10.20749856,-9.741147345,99.91080566,-1.09440762575,1.5728865879,-0.484597842,0.27326081366,0.05822919206,-0.23765130325,0.005
09:51:47,-1.77806648,2.4007782,1.02227704,0.4238554799999999,-0.08689248,-0.0404786999999999,-23.09611032,-10.22225684,-9.73037258,99.85837424,-1.085903123,1.5590264356,-0.486280488,0.27234537824,0.05731827384,-0.234175433,0.005
09:51:47,-1.7590988900000002,2.3841266,1.0119334700000002,0.4197538899999999,-0.08777139,-0.037426475,-23.05255176,-10.23701512,-9.719597815,99.80594282,-1.07739862025,1.5451662833000002,-0.487963134,0.27142994282,0.05640735562,-0.23069956275,0.005
09:51:47,-1.7401313000000005,2.367475,1.0015899,0.4156523,-0.0886503,-0.0343742499999999,-23.008993200000003,-10.2517734,-9.70882305,99.7535114,-1.0688941175,1.531306131,-0.48964578,0.2705145074,0.0554964374,-0.2272236925,0.005
09:51:47,-1.7211637100000003,2.3508234000000003,0.99124633,0.41155071,-0.08952921,-0.031322025,-22.96543464,-10.26653168,-9.698048285,99.70107998,-1.06038961475,1.5174459787,-0.491328426,0.26959907198,0.05458551918,-0.22374782225,0.005
09:51:47,-1.7021961200000002,2.3341718,0.98090276,0.40744912,-0.09040812,-0.0282697999999999,-22.92187608,-10.28128996,-9.68727352,99.64864856,-1.051885112,1.5035858264000002,-0.493011072,0.26868363656,0.05367460096,-0.220271952,0.005
09:51:47,-1.68322853,2.3175202,0.97055919,0.40334753,-0.0912870299999999,-0.0252175749999999,-22.87831752,-10.29604824,-9.676498755,99.59621714,-1.04338060925,1.4897256741000002,-0.494693718,0.26776820114,0.05276368274,-0.21679608175,0.005
09:51:47,-1.66426094,2.3008686000000003,0.96021562,0.3992459399999999,-0.09216594,-0.02216535,-22.83475896,-10.31080652,-9.66572399,99.54378572,-1.0348761065,1.4758655218,-0.496376364,0.26685276572,0.05185276452,-0.2133202115,0.005
09:51:47,-1.6452933500000002,2.284217,0.94987205,0.39514435,-0.09304485,-0.0191131249999999,-22.7912004,-10.3255648,-9.654949225,99.4913543,-1.02637160375,1.4620053695000002,-0.49805901,0.2659373303,0.0509418463,-0.20984434125,0.005
09:51:47,-1.6263257600000005,2.2675654,0.93952848,0.3910427599999999,-0.09392376,-0.0160609,-22.74764184,-10.34032308,-9.64417446,99.43892288,-1.017867101,1.4481452172,-0.499741656,0.26502189488,0.05003092808,-0.206368471,0.005
09:51:47,-1.6073581700000004,2.2509138,0.92918491,0.3869411699999999,-0.09480267,-0.0130086749999999,-22.704083280000003,-10.35508136,-9.633399695,99.38649146,-1.00936259825,1.4342850649,-0.501424302,0.26410645946,0.04912000986,-0.20289260075,0.005
09:51:47,-1.5883905800000002,2.2342622,0.9188413400000002,0.3828395799999999,-0.0956815799999999,-0.0099564499999999,-22.66052472,-10.36983964,-9.62262493,99.33406004,-1.0008580955,1.4204249126,-0.503106948,0.26319102404,0.04820909164,-0.1994167305,0.005
09:51:47,-1.56942299,2.2176106,0.90849777,0.3787379899999999,-0.09656049,-0.006904225,-22.61696616,-10.38459792,-9.611850165,99.28162862,-0.99235359275,1.4065647603000002,-0.504789594,0.26227558862,0.04729817342,-0.19594086025,0.005
09:51:47,-1.5504554000000002,2.200959,0.8981542000000001,0.3746364,-0.0974394,-0.0038519999999999,-22.5734076,-10.3993562,-9.6010754,99.2291972,-0.98384909,1.392704608,-0.50647224,0.2613601532,0.0463872552,-0.19246499,0.005
09:51:47,-1.5314878100000002,2.1843074,0.8878106300000002,0.37053481,-0.0983183099999999,-0.000799775,-22.52984904,-10.41411448,-9.590300635,99.17676578,-0.97534458725,1.3788444557,-0.508154886,0.26044471778,0.04547633698,-0.18898911975,0.005
09:51:47,-1.5125202200000003,2.1676558000000004,0.8774670600000001,0.36643322,-0.09919722,0.0022524499999999,-22.48629048,-10.42887276,-9.57952587,99.12433436,-0.9668400845,1.3649843034,-0.509837532,0.25952928236,0.04456541876,-0.1855132495,0.005
09:51:47,-1.4935526300000002,2.1510042,0.8671234900000001,0.36233163,-0.10007613,0.005304675,-22.44273192,-10.44363104,-9.568751105,99.07190294,-0.95833558175,1.3511241511,-0.511520178,0.25861384694,0.04365450054,-0.18203737925,0.005
09:51:47,-1.4745850400000002,2.1343526,0.8567799200000001,0.3582300399999999,-0.10095504,0.0083569,-22.39917336,-10.45838932,-9.55797634,99.01947152,-0.949831079,1.3372639988,-0.5132028240000001,0.25769841152,0.04274358232,-0.178561509,0.005
09:51:47,-1.45561745,2.1177010000000003,0.8464363500000001,0.35412845,-0.10183395,0.0114091249999999,-22.3556148,-10.4731476,-9.547201575,98.9670401,-0.94132657625,1.3234038465000002,-0.5148854700000001,0.2567829761,0.0418326641,-0.17508563875,0.005
09:51:47,-1.4366498600000002,2.1010494,0.8360927800000001,0.3500268599999999,-0.1027128599999999,0.01446135,-22.31205624,-10.48790588,-9.53642681,98.91460868,-0.9328220735,1.3095436942000005,-0.516568116,0.25586754068,0.04092174588,-0.1716097685,0.005
09:51:47,-1.4176822700000002,2.0843978,0.8257492100000001,0.3459252699999999,-0.10359177,0.017513575,-22.26849768,-10.50266416,-9.525652045,98.86217726,-0.92431757075,1.2956835419,-0.518250762,0.25495210526,0.04001082766,-0.16813389825,0.005
09:51:47,-1.3987146800000003,2.0677462,0.81540564,0.3418236799999999,-0.10447068,0.0205657999999999,-22.22493912,-10.51742244,-9.51487728,98.80974584,-0.915813068,1.2818233896,-0.519933408,0.25403666984,0.03909990944,-0.164658028,0.005
09:51:47,-1.3797470900000002,2.0510946,0.8050620700000001,0.33772209,-0.1053495899999999,0.023618025,-22.18138056,-10.53218072,-9.504102515,98.75731442,-0.90730856525,1.2679632373,-0.521616054,0.25312123442,0.03818899122,-0.16118215775,0.005
09:51:47,-1.3607795000000005,2.034443,0.7947185000000001,0.3336205,-0.1062285,0.02667025,-22.137822,-10.546939,-9.49332775,98.704883,-0.8988040625,1.254103085,-0.5232987,0.252205799,0.037278073,-0.1577062875,0.005
09:51:47,-1.34181191,2.0177914,0.7843749300000001,0.32951891,-0.10710741,0.0297224749999999,-22.09426344,-10.56169728,-9.482552985,98.65245158,-0.8902995597500001,1.2402429327000002,-0.524981346,0.25129036358,0.03636715478,-0.15423041725,0.005
09:51:47,-1.3228443200000002,2.0011398,0.7740313600000001,0.32541732,-0.10798632,0.0327746999999999,-22.05070488,-10.57645556,-9.47177822,98.60002016,-0.8817950569999999,1.2263827804000005,-0.526663992,0.25037492816,0.03545623656,-0.150754547,0.005
09:51:47,-1.3038767300000005,1.9844882,0.7636877900000001,0.3213157299999999,-0.10886523,0.035826925,-22.00714632,-10.59121384,-9.461003455,98.54758874,-0.87329055425,1.2125226281,-0.528346638,0.24945949274,0.03454531834,-0.14727867675,0.005
09:51:47,-1.28490914,1.9678366,0.7533442200000001,0.31721414,-0.1097441399999999,0.03887915,-21.96358776,-10.60597212,-9.45022869,98.49515732,-0.8647860515,1.1986624758,-0.530029284,0.24854405732,0.03363440012,-0.1438028065,0.005
09:51:47,-1.2659415500000002,1.951185,0.7430006500000002,0.31311255,-0.11062305,0.0419313749999999,-21.9200292,-10.6207304,-9.439453925,98.4427259,-0.85628154875,1.1848023235,-0.53171193,0.2476286219,0.0327234819,-0.14032693625,0.005
09:51:47,-1.2469739600000005,1.9345334000000003,0.7326570800000001,0.3090109599999999,-0.11150196,0.0449836,-21.87647064,-10.63548868,-9.42867916,98.39029448,-0.847777046,1.1709421712,-0.5333945760000001,0.24671318648,0.03181256368,-0.136851066,0.005
09:51:47,-1.22800637,1.9178818,0.7223135100000001,0.3049093699999999,-0.11238087,0.048035825,-21.83291208,-10.65024696,-9.417904395,98.33786306,-0.83927254325,1.1570820189000002,-0.535077222,0.24579775106,0.03090164546,-0.13337519575,0.005
09:51:47,-1.2090387800000002,1.9012302,0.7119699400000001,0.3008077799999999,-0.11325978,0.0510880499999999,-21.78935352,-10.66500524,-9.40712963,98.28543164,-0.8307680405,1.1432218666000002,-0.536759868,0.24488231564,0.02999072724,-0.1298993255,0.005
09:51:47,-1.1900711900000005,1.8845786,0.70162637,0.29670619,-0.11413869,0.054140275,-21.74579496,-10.67976352,-9.396354865,98.23300022,-0.82226353775,1.1293617143,-0.538442514,0.24396688022,0.02907980902,-0.12642345525,0.005
09:51:47,-1.1711036,1.867927,0.6912828000000001,0.2926046,-0.1150176,0.0571925,-21.7022364,-10.6945218,-9.3855801,98.1805688,-0.813759035,1.1155015620000002,-0.54012516,0.2430514448,0.0281688908,-0.122947585,0.005
09:51:47,-1.1521360100000002,1.8512754,0.6809392300000001,0.28850301,-0.11589651,0.060244725,-21.65867784,-10.70928008,-9.374805335,98.12813738,-0.80525453225,1.1016414097,-0.541807806,0.24213600938,0.02725797258,-0.11947171475,0.005
09:51:47,-1.1331684200000005,1.8346238,0.6705956600000001,0.2844014199999999,-0.1167754199999999,0.0632969499999999,-21.61511928,-10.72403836,-9.36403057,98.07570596,-0.7967500295,1.0877812574,-0.543490452,0.24122057396,0.02634705436,-0.1159958445,0.005
09:51:47,-1.11420083,1.8179722000000005,0.6602520900000001,0.2802998299999999,-0.11765433,0.066349175,-21.57156072,-10.73879664,-9.353255805,98.02327454,-0.78824552675,1.0739211051000002,-0.545173098,0.24030513854,0.02543613614,-0.11251997425,0.005
09:51:47,-1.0952332400000002,1.8013206000000002,0.6499085200000001,0.27619824,-0.11853324,0.0694014,-21.52800216,-10.75355492,-9.34248104,97.97084312,-0.779741024,1.0600609528000002,-0.546855744,0.23938970312,0.02452521792,-0.109044104,0.005
09:51:47,-1.0762656500000003,1.784669,0.6395649500000001,0.27209665,-0.11941215,0.072453625,-21.4844436,-10.7683132,-9.331706275,97.9184117,-0.77123652125,1.0462008005,-0.54853839,0.2384742677,0.0236142997,-0.1055682337499999,0.005
09:51:47,-1.0572980600000002,1.7680174000000002,0.62922138,0.26799506,-0.12029106,0.07550585,-21.44088504,-10.78307148,-9.32093151,97.86598028,-0.7627320185,1.0323406482000002,-0.550221036,0.23755883228,0.02270338148,-0.1020923635,0.005
09:51:47,-1.0383304700000002,1.7513658,0.6188778100000001,0.2638934699999999,-0.1211699699999999,0.078558075,-21.39732648,-10.79782976,-9.310156745,97.81354886,-0.75422751575,1.0184804959,-0.5519036820000001,0.23664339686,0.02179246326,-0.0986164932499999,0.005
09:51:47,-1.0193628800000003,1.7347142000000002,0.6085342400000001,0.25979188,-0.12204888,0.0816103,-21.35376792,-10.81258804,-9.29938198,97.76111744,-0.745723013,1.0046203436,-0.553586328,0.23572796144,0.02088154504,-0.095140623,0.005
09:51:47,-1.0003952900000002,1.7180626,0.5981906700000001,0.25569029,-0.12292779,0.0846625249999999,-21.31020936,-10.82734632,-9.288607215,97.70868602,-0.73721851025,0.9907601913,-0.555268974,0.23481252602,0.01997062682,-0.09166475275,0.005
09:51:47,-0.9814277000000002,1.7014110000000002,0.5878471000000001,0.2515887,-0.1238066999999999,0.08771475,-21.2666508,-10.8421046,-9.27783245,97.6562546,-0.7287140075,0.976900039,-0.55695162,0.2338970906,0.0190597086,-0.0881888825,0.005
09:51:47,-0.9624601100000004,1.6847594,0.5775035300000001,0.24748711,-0.12468561,0.090766975,-21.22309224,-10.85686288,-9.267057685,97.60382318,-0.72020950475,0.9630398867000002,-0.558634266,0.23298165518,0.01814879038,-0.08471301225,0.005
09:51:47,-0.9434925200000002,1.6681078000000005,0.5671599600000001,0.2433855199999999,-0.1255645199999999,0.0938191999999999,-21.17953368,-10.87162116,-9.25628292,97.55139176,-0.711705002,0.9491797344,-0.560316912,0.23206621976,0.01723787216,-0.0812371419999999,0.005
09:51:47,-0.9245249300000002,1.6514562000000002,0.55681639,0.2392839299999999,-0.12644343,0.096871425,-21.13597512,-10.88637944,-9.245508155,97.49896034,-0.70320049925,0.9353195821000002,-0.561999558,0.23115078434,0.01632695394,-0.07776127175,0.005
09:51:47,-0.9055573400000004,1.6348046000000005,0.5464728200000001,0.23518234,-0.12732234,0.09992365,-21.09241656,-10.90113772,-9.23473339,97.44652892,-0.6946959965,0.9214594298,-0.563682204,0.23023534892,0.0154160357199999,-0.0742854015,0.005
09:51:47,-0.8865897500000002,1.6181530000000002,0.5361292500000001,0.23108075,-0.12820125,0.102975875,-21.048858,-10.915896,-9.223958625,97.3940975,-0.68619149375,0.9075992775,-0.56536485,0.2293199135,0.0145051174999999,-0.07080953125,0.005
09:51:47,-0.8676221600000003,1.6015014,0.5257856800000001,0.22697916,-0.12908016,0.1060281,-21.00529944,-10.93065428,-9.21318386,97.34166608,-0.677686991,0.8937391252000002,-0.567047496,0.22840447808,0.0135941992799999,-0.0673336609999999,0.005
09:51:47,-0.8486545700000003,1.5848498000000002,0.5154421100000001,0.2228775699999999,-0.12995907,0.109080325,-20.96174088,-10.94541256,-9.202409095,97.28923466,-0.66918248825,0.8798789729000001,-0.568730142,0.22748904266,0.0126832810599999,-0.0638577907499999,0.005
09:51:47,-0.8296869800000002,1.5681982,0.5050985400000001,0.2187759799999999,-0.13083798,0.11213255,-20.91818232,-10.96017084,-9.19163433,97.23680324,-0.6606779855,0.8660188206000001,-0.5704127880000001,0.22657360724,0.0117723628399999,-0.0603819205,0.005
09:51:47,-0.8107193900000003,1.5515466000000002,0.4947549700000001,0.21467439,-0.13171689,0.1151847749999999,-20.87462376,-10.97492912,-9.180859565,97.18437182,-0.65217348275,0.8521586683000002,-0.572095434,0.22565817182,0.01086144462,-0.05690605025,0.005
09:51:47,-0.7917518000000001,1.534895,0.4844114000000001,0.2105728,-0.1325957999999999,0.118237,-20.8310652,-10.9896874,-9.1700848,97.1319404,-0.64366898,0.838298516,-0.5737780800000001,0.2247427364,0.0099505264,-0.0534301799999999,0.005
09:51:47,-0.7727842100000002,1.5182434000000002,0.4740678300000001,0.20647121,-0.13347471,0.121289225,-20.78750664,-11.00444568,-9.159310035,97.07950898,-0.63516447725,0.8244383637000001,-0.575460726,0.22382730098,0.00903960818,-0.0499543097499999,0.005
09:51:47,-0.7538166200000003,1.5015918,0.4637242600000001,0.2023696199999999,-0.13435362,0.1243414499999999,-20.74394808,-11.01920396,-9.14853527,97.02707756,-0.6266599745,0.8105782114000002,-0.577143372,0.22291186556,0.00812868996,-0.0464784395,0.005
09:51:47,-0.7348490300000001,1.4849402000000005,0.4533806900000001,0.1982680299999999,-0.13523253,0.127393675,-20.70038952,-11.03396224,-9.137760505,96.97464614,-0.61815547175,0.7967180591,-0.578826018,0.22199643014,0.00721777174,-0.04300256925,0.005
09:51:47,-0.7158814400000002,1.4682886000000002,0.44303712,0.19416644,-0.13611144,0.1304458999999999,-20.65683096,-11.04872052,-9.12698574,96.92221472,-0.609650969,0.7828579068000001,-0.580508664,0.22108099472,0.00630685352,-0.039526699,0.005
09:51:47,-0.6969138500000003,1.4516370000000005,0.4326935500000001,0.19006485,-0.13699035,0.133498125,-20.6132724,-11.0634788,-9.116210975,96.8697833,-0.60114646625,0.7689977545000002,-0.58219131,0.2201655593,0.0053959353,-0.0360508287499999,0.005
09:51:47,-0.6779462600000001,1.4349854000000002,0.4223499800000001,0.18596326,-0.13786926,0.13655035,-20.56971384,-11.07823708,-9.10543621,96.81735188,-0.5926419635,0.7551376022,-0.583873956,0.21925012388,0.00448501708,-0.0325749584999999,0.005
09:51:47,-0.6589786700000002,1.4183338,0.4120064100000001,0.1818616699999999,-0.13874817,0.1396025749999999,-20.52615528,-11.09299536,-9.094661445,96.76492046,-0.58413746075,0.7412774499000001,-0.585556602,0.21833468846,0.0035740988599999,-0.02909908825,0.005
09:51:47,-0.6400110800000003,1.4016822000000002,0.4016628400000001,0.17776008,-0.13962708,0.1426548,-20.48259672,-11.10775364,-9.08388668,96.71248904,-0.575632958,0.7274172976000002,-0.587239248,0.21741925304,0.0026631806399999,-0.025623218,0.005
09:51:47,-0.6210434900000001,1.3850306,0.3913192700000001,0.17365849,-0.14050599,0.145707025,-20.43903816,-11.12251192,-9.073111915,96.66005762,-0.56712845525,0.7135571453,-0.5889218940000001,0.21650381762,0.0017522624199999,-0.0221473477499999,0.005
09:51:47,-0.6020759000000002,1.3683790000000002,0.3809757000000001,0.1695569,-0.1413849,0.1487592499999999,-20.3954796,-11.1372702,-9.06233715,96.6076262,-0.5586239525,0.6996969930000001,-0.59060454,0.2155883822,0.0008413441999999,-0.0186714774999999,0.005
09:51:47,-0.5831083100000003,1.3517274,0.37063213,0.16545531,-0.14226381,0.151811475,-20.35192104,-11.15202848,-9.051562385,96.55519478,-0.55011944975,0.6858368407000002,-0.5922871860000001,0.21467294678,-6.957402000000446e-05,-0.01519560725,0.005
09:51:47,-0.5641407200000002,1.3350758000000005,0.3602885600000001,0.1613537199999999,-0.14314272,0.1548637,-20.30836248,-11.16678676,-9.04078762,96.50276336,-0.541614947,0.6719766884000002,-0.593969832,0.21375751136,-0.00098049224,-0.011719737,0.005
09:51:47,-0.5451731300000002,1.3184242000000002,0.3499449900000001,0.15725213,-0.14402163,0.1579159249999999,-20.26480392,-11.18154504,-9.030012855,96.45033194,-0.53311044425,0.6581165361000001,-0.595652478,0.21284207594,-0.0018914104599999,-0.0082438667499999,0.005
09:51:47,-0.5262055400000003,1.3017726000000005,0.3396014200000001,0.15315054,-0.14490054,0.16096815,-20.22124536,-11.19630332,-9.01923809,96.39790052,-0.5246059415,0.6442563838000002,-0.597335124,0.21192664052,-0.0028023286799999,-0.0047679964999999,0.005
09:51:47,-0.5072379500000002,1.2851210000000002,0.3292578500000001,0.14904895,-0.14577945,0.164020375,-20.1776868,-11.2110616,-9.008463325,96.3454691,-0.51610143875,0.6303962315000002,-0.59901777,0.2110112051,-0.0037132468999999,-0.00129212625,0.005
09:51:47,-0.4882703600000002,1.2684694000000003,0.3189142800000001,0.1449473599999999,-0.14665836,0.1670726,-20.134128240000003,-11.22581988,-8.99768856,96.29303768,-0.507596936,0.6165360792000001,-0.600700416,0.21009576968,-0.0046241651199999,0.0021837439999999,0.005
09:51:47,-0.4693027700000003,1.2518178000000002,0.3085707100000001,0.1408457699999999,-0.14753727,0.170124825,-20.09056968,-11.24057816,-8.986913795,96.24060626,-0.4990924332499999,0.6026759269000002,-0.602383062,0.20918033426,-0.0055350833399999,0.00565961425,0.005
09:51:47,-0.4503351800000001,1.2351662,0.29822714,0.13674418,-0.14841618,0.17317705,-20.04701112,-11.25533644,-8.97613903,96.18817484,-0.4905879305,0.5888157746000002,-0.604065708,0.20826489884,-0.0064460015599999,0.0091354845,0.005
09:51:47,-0.4313675900000002,1.2185146000000002,0.2878835700000002,0.13264259,-0.14929509,0.176229275,-20.00345256,-11.27009472,-8.965364265,96.13574342,-0.48208342775,0.5749556223000001,-0.605748354,0.20734946342,-0.0073569197799999,0.01261135475,0.005
09:51:47,-0.4124000000000003,1.201863,0.2775400000000001,0.128541,-0.150174,0.1792815,-19.959894,-11.284853,-8.9545895,96.083312,-0.473578925,0.5610954700000002,-0.607431,0.206434028,-0.008267838,0.0160872249999999,0.005
09:51:47,-0.3934324100000002,1.1852114000000002,0.26719643,0.1244394099999999,-0.1510529099999999,0.1823337249999999,-19.91633544,-11.29961128,-8.943814735,96.03088058,-0.4650744222499999,0.5472353177000002,-0.609113646,0.20551859258,-0.00917875622,0.0195630952499999,0.005
09:51:47,-0.3744648200000002,1.1685598,0.2568528600000002,0.1203378199999999,-0.15193182,0.18538595,-19.87277688,-11.31436956,-8.93303997,95.97844916,-0.4565699195,0.5333751654000001,-0.6107962920000001,0.20460315716,-0.01008967444,0.0230389655,0.005
09:51:47,-0.3554972300000003,1.1519082000000005,0.2465092900000001,0.11623623,-0.15281073,0.188438175,-19.82921832,-11.32912784,-8.922265205,95.92601774,-0.44806541675,0.5195150131000001,-0.612478938,0.20368772174,-0.01100059266,0.02651483575,0.005
09:51:47,-0.3365296400000002,1.1352566000000002,0.23616572,0.11213464,-0.15368964,0.1914903999999999,-19.78565976,-11.34388612,-8.91149044,95.87358632,-0.4395609139999999,0.5056548608000002,-0.614161584,0.20277228632,-0.01191151088,0.0299907059999999,0.005
09:51:47,-0.3175620500000002,1.1186050000000003,0.2258221500000001,0.10803305,-0.15456855,0.194542625,-19.7421012,-11.3586444,-8.900715675,95.8211549,-0.43105641125,0.4917947085,-0.61584423,0.2018568509,-0.0128224291,0.0334665762499999,0.005
09:51:47,-0.2985944600000003,1.1019534000000002,0.2154785800000001,0.1039314599999999,-0.15544746,0.19759485,-19.69854264,-11.37340268,-8.88994091,95.76872348,-0.4225519085,0.4779345562000001,-0.617526876,0.20094141548,-0.01373334732,0.0369424465,0.005
09:51:47,-0.2796268700000004,1.0853018,0.20513501,0.0998298699999999,-0.15632637,0.2006470749999999,-19.65498408,-11.38816096,-8.879166145,95.71629206,-0.41404740575,0.4640744039000002,-0.619209522,0.20002598006,-0.0146442655399999,0.04041831675,0.005
09:51:47,-0.26065928,1.0686502000000002,0.1947914400000001,0.09572828,-0.15720528,0.2036993,-19.61142552,-11.40291924,-8.86839138,95.66386064,-0.4055429029999999,0.4502142516,-0.620892168,0.19911054464,-0.0155551837599999,0.043894187,0.005
09:51:47,-0.2416916900000001,1.0519986,0.18444787,0.09162669,-0.1580841899999999,0.206751525,-19.56786696,-11.41767752,-8.857616615,95.61142922,-0.39703840025,0.4363540993000001,-0.622574814,0.19819510922,-0.0164661019799999,0.0473700572499999,0.005
09:51:47,-0.2227241000000002,1.0353470000000002,0.1741043000000002,0.0875251,-0.1589631,0.2098037499999999,-19.5243084,-11.4324358,-8.84684185,95.5589978,-0.3885338975,0.4224939470000002,-0.62425746,0.1972796738,-0.0173770201999999,0.0508459275,0.005
09:51:47,-0.2037565100000002,1.0186954,0.1637607300000001,0.0834235099999999,-0.15984201,0.212855975,-19.48074984,-11.44719408,-8.836067085,95.50656638,-0.3800293947499999,0.4086337947,-0.625940106,0.19636423838,-0.0182879384199999,0.05432179775,0.005
09:51:47,-0.1847889200000003,1.0020438000000005,0.15341716,0.0793219199999999,-0.16072092,0.2159082,-19.43719128,-11.46195236,-8.825292319999999,95.45413496,-0.371524892,0.3947736424000001,-0.6276227520000001,0.19544880296,-0.0191988566399999,0.057797668,0.005
09:51:47,-0.1658213300000004,0.9853922000000002,0.1430735900000002,0.07522033,-0.16159983,0.218960425,-19.39363272,-11.47671064,-8.814517555,95.40170354,-0.36302038925,0.3809134901000002,-0.6293053980000001,0.19453336754,-0.02010977486,0.0612735382499999,0.005
09:51:47,-0.14685374,0.9687406000000004,0.1327300200000001,0.07111874,-0.16247874,0.22201265,-19.35007416,-11.49146892,-8.80374279,95.34927212,-0.3545158865,0.3670533378,-0.630988044,0.19361793212,-0.02102069308,0.0647494085,0.005
09:51:47,-0.1278861500000001,0.9520890000000002,0.12238645,0.06701715,-0.16335765,0.225064875,-19.3065156,-11.5062272,-8.792968025,95.2968407,-0.3460113837499999,0.3531931855000001,-0.6326706900000001,0.1927024967,-0.0219316113,0.06822527875,0.005
09:51:47,-0.1089185600000002,0.9354374000000004,0.1120428800000001,0.0629155599999999,-0.16423656,0.2281171,-19.26295704,-11.52098548,-8.78219326,95.24440928,-0.337506881,0.3393330332000002,-0.634353336,0.19178706128,-0.02284252952,0.071701149,0.005
09:51:47,-0.0899509700000003,0.9187858000000002,0.1016993100000001,0.0588139699999999,-0.16511547,0.231169325,-19.21939848,-11.53574376,-8.771418494999999,95.19197786,-0.32900237825,0.3254728809000002,-0.636035982,0.19087162586,-0.02375344774,0.0751770192499999,0.005
09:51:47,-0.0709833800000003,0.9021342,0.09135574,0.05471238,-0.16599438,0.23422155,-19.17583992,-11.55050204,-8.76064373,95.13954644,-0.3204978755000001,0.3116127286000001,-0.637718628,0.18995619044,-0.02466436596,0.0786528894999999,0.005
09:51:47,-0.0520157900000004,0.8854826000000002,0.0810121700000001,0.05061079,-0.16687329,0.237273775,-19.13228136,-11.56526032,-8.749868965,95.08711502,-0.3119933727499999,0.2977525763000002,-0.639401274,0.18904075502,-0.02557528418,0.08212875975,0.005
09:51:47,-0.0330482,0.8688310000000001,0.0706686,0.0465092,-0.1677522,0.240326,-19.0887228,-11.5800186,-8.7390942,95.0346836,-0.30348887,0.2838924240000002,-0.64108392,0.1881253196,-0.0264862024,0.08560463,0.005
09:51:47,-0.0140806100000001,0.8521794000000003,0.06032503,0.0424076099999999,-0.16863111,0.2433782249999999,-19.04516424,-11.59477688,-8.728319435,94.98225218,-0.2949843672500001,0.2700322717000001,-0.642766566,0.18720988418,-0.0273971206199999,0.08908050025,0.005
09:51:47,0.0048869799999997,0.8355278000000004,0.0499814600000001,0.03830602,-0.16951002,0.24643045,-19.00160568,-11.60953516,-8.71754467,94.92982076,-0.2864798644999999,0.2561721194000002,-0.644449212,0.18629444876,-0.0283080388399999,0.0925563704999999,0.005
09:51:47,0.0238545699999996,0.8188762,0.03963789,0.03420443,-0.17038893,0.249482675,-18.95804712,-11.62429344,-8.706769905,94.87738934,-0.27797536175,0.2423119671000002,-0.6461318580000001,0.18537901334,-0.0292189570599999,0.09603224075,0.005
09:51:47,0.0428221599999996,0.8022246000000002,0.0292943200000002,0.0301028399999999,-0.17126784,0.2525349,-18.91448856,-11.63905172,-8.69599514,94.82495792,-0.2694708589999999,0.2284518148000001,-0.6478145040000001,0.18446357792,-0.0301298752799999,0.099508111,0.005
09:51:47,0.0617897499999995,0.7855730000000003,0.0189507500000001,0.0260012499999999,-0.17214675,0.255587125,-18.87093,-11.65381,-8.685220375,94.7725265,-0.26096635625,0.2145916625000001,-0.64949715,0.1835481425,-0.0310407934999999,0.10298398125,0.005
09:51:47,0.0807573399999999,0.7689214000000004,0.00860718,0.0218996599999999,-0.17302566,0.25863935,-18.82737144,-11.66856828,-8.67444561,94.72009508,-0.2524618535,0.2007315102000002,-0.6511797960000001,0.18263270708,-0.03195171172,0.1064598514999999,0.005
09:51:47,0.0997249299999998,0.7522698000000001,-0.0017363899999998,0.01779807,-0.17390457,0.2616915749999999,-18.78381288,-11.68332656,-8.663670845,94.66766366,-0.2439573507499999,0.1868713579000001,-0.652862442,0.18171727166,-0.03286262994,0.1099357217499999,0.005
09:51:47,0.1186925199999997,0.7356182000000002,-0.0120799599999998,0.01369648,-0.17478348,0.2647438,-18.74025432,-11.69808484,-8.65289608,94.61523224,-0.235452848,0.1730112056000001,-0.654545088,0.18080183624,-0.03377354816,0.113411592,0.005
09:51:47,0.1376601099999996,0.7189666000000003,-0.0224235299999999,0.00959489,-0.17566239,0.267796025,-18.69669576,-11.71284312,-8.642121315,94.56280082,-0.22694834525,0.1591510533000002,-0.656227734,0.17988640082,-0.03468446638,0.11688746225,0.005
09:51:47,0.1566276999999996,0.702315,-0.0327670999999998,0.0054933,-0.1765412999999999,0.27084825,-18.6531372,-11.7276014,-8.63134655,94.5103694,-0.2184438424999999,0.145290901,-0.65791038,0.1789709654,-0.0355953846,0.1203633325,0.005
09:51:47,0.1755952899999999,0.6856634000000001,-0.0431106699999999,0.00139171,-0.17742021,0.273900475,-18.60957864,-11.74235968,-8.620571785,94.45793798,-0.20993933975,0.1314307487000001,-0.659593026,0.17805552998,-0.03650630282,0.1238392027499999,0.005
09:51:47,0.1945628799999998,0.6690118000000003,-0.0534542399999999,-0.0027098799999999,-0.17829912,0.2769527,-18.56602008,-11.75711796,-8.60979702,94.40550656,-0.2014348370000001,0.1175705964000002,-0.661275672,0.17714009456,-0.03741722104,0.127315073,0.005
09:51:47,0.2135304699999998,0.6523602000000004,-0.0637978099999998,-0.00681147,-0.17917803,0.2800049249999999,-18.52246152,-11.77187624,-8.599022255,94.35307514,-0.1929303342499999,0.1037104441,-0.662958318,0.17622465914,-0.03832813926,0.13079094325,0.005
09:51:47,0.2324980599999997,0.6357086000000001,-0.0741413799999999,-0.01091306,-0.18005694,0.28305715,-18.47890296,-11.78663452,-8.58824749,94.30064372,-0.1844258315,0.0898502918000001,-0.6646409640000001,0.17530922372,-0.03923905748,0.1342668135,0.005
09:51:47,0.2514656499999996,0.6190570000000002,-0.0844849499999997,-0.01501465,-0.18093585,0.286109375,-18.4353444,-11.8013928,-8.577472725,94.2482123,-0.1759213287499998,0.0759901395000002,-0.6663236100000001,0.1743937883,-0.0401499757,0.1377426837499999,0.005
09:51:47,0.2704332399999996,0.6024054000000003,-0.0948285199999998,-0.01911624,-0.18181476,0.2891616,-18.39178584,-11.81615108,-8.566697959999999,94.19578088,-0.1674168259999999,0.0621299872,-0.668006256,0.17347835288,-0.0410608939199999,0.141218554,0.005
09:51:47,0.2894008299999999,0.5857538000000004,-0.1051720899999999,-0.0232178299999999,-0.18269367,0.292213825,-18.34822728,-11.83090936,-8.555923195,94.14334946,-0.15891232325,0.0482698349000001,-0.6696889020000001,0.17256291746,-0.0419718121399999,0.14469442425,0.005
09:51:47,0.3083684199999998,0.5691022000000001,-0.1155156599999998,-0.0273194199999999,-0.1835725799999999,0.2952660499999999,-18.30466872,-11.84566764,-8.54514843,94.09091804,-0.1504078204999999,0.0344096826000002,-0.671371548,0.17164748204,-0.0428827303599999,0.1481702945,0.005
09:51:47,0.3273360099999998,0.5524506000000002,-0.1258592299999998,-0.0314210099999999,-0.18445149,0.2983182749999999,-18.26111016,-11.86042592,-8.534373665,94.03848662,-0.1419033177499999,0.0205495303,-0.673054194,0.17073204662,-0.04379364858,0.15164616475,0.005
09:51:47,0.3463035999999997,0.5357990000000004,-0.1362027999999999,-0.0355225999999999,-0.1853304,0.3013705,-18.2175516,-11.8751842,-8.5235989,93.9860552,-0.133398815,0.0066893780000001,-0.67473684,0.1698166112,-0.0447045668,0.155122035,0.005
09:51:47,0.3652711899999996,0.5191474,-0.1465463699999998,-0.0396241899999999,-0.18620931,0.304422725,-18.17399304,-11.88994248,-8.512824134999999,93.93362378,-0.1248943122499999,-0.0071707742999997,-0.676419486,0.16890117578,-0.04561548502,0.15859790525,0.005
09:51:47,0.3842387799999995,0.5024958000000002,-0.1568899399999999,-0.0437257799999999,-0.18708822,0.30747495,-18.13043448,-11.90470076,-8.50204937,93.88119236,-0.1163898095,-0.0210309265999997,-0.678102132,0.16798574036,-0.04652640324,0.1620737755,0.005
09:51:47,0.4032063699999999,0.4858442000000003,-0.1672335099999999,-0.04782737,-0.18796713,0.310527175,-18.08687592,-11.91945904,-8.491274605,93.82876094,-0.10788530675,-0.0348910788999998,-0.679784778,0.16707030494,-0.04743732146,0.16554964575,0.005
09:51:47,0.4221739599999998,0.4691926000000004,-0.1775770799999998,-0.05192896,-0.18884604,0.3135793999999999,-18.04331736,-11.93421732,-8.48049984,93.77632952,-0.0993808039999999,-0.0487512311999998,-0.681467424,0.16615486952,-0.04834823968,0.169025516,0.005
09:51:47,0.4411415499999997,0.4525410000000001,-0.1879206499999999,-0.05603055,-0.18972495,0.3166316249999999,-17.9997588,-11.9489756,-8.469725075,93.7238981,-0.09087630125,-0.0626113834999997,-0.68315007,0.1652394341,-0.0492591579,0.17250138625,0.005
09:51:47,0.4601091399999997,0.4358894000000002,-0.19826422,-0.06013214,-0.19060386,0.31968385,-17.95620024,-11.96373388,-8.45895031,93.67146668,-0.0823717985,-0.0764715357999996,-0.6848327160000001,0.16432399868,-0.05017007612,0.1759772564999999,0.005
09:51:47,0.4790767299999996,0.4192378000000003,-0.2086077899999998,-0.0642337299999999,-0.19148277,0.322736075,-17.91264168,-11.97849216,-8.448175545,93.61903526,-0.0738672957499999,-0.0903316881,-0.686515362,0.16340856326,-0.05108099434,0.17945312675,0.005
09:51:47,0.4980443199999995,0.4025862000000004,-0.2189513599999999,-0.0683353199999999,-0.19236168,0.3257883,-17.86908312,-11.99325044,-8.437400779999999,93.56660384,-0.065362793,-0.1041918403999999,-0.6881980080000001,0.16249312784,-0.05199191256,0.1829289969999999,0.005
09:51:47,0.5170119099999999,0.3859346000000001,-0.2292949299999997,-0.0724369099999999,-0.19324059,0.328840525,-17.825524559999998,-12.00800872,-8.426626015,93.51417242,-0.0568582902499998,-0.1180519926999998,-0.689880654,0.16157769242,-0.05290283078,0.18640486725,0.005
09:51:47,0.5359794999999998,0.3692830000000002,-0.2396384999999998,-0.0765384999999999,-0.1941195,0.3318927499999999,-17.781966,-12.022767,-8.41585125,93.461741,-0.0483537874999999,-0.1319121449999998,-0.6915633000000001,0.160662257,-0.053813749,0.1898807375,0.005
09:51:47,0.5549470899999998,0.3526314000000004,-0.2499820699999999,-0.0806400899999999,-0.19499841,0.334944975,-17.73840744,-12.03752528,-8.405076485,93.40930958,-0.03984928475,-0.1457722972999997,-0.693245946,0.15974682158,-0.05472466722,0.1933566077499999,0.005
09:51:47,0.5739146799999997,0.3359798,-0.2603256399999998,-0.0847416799999999,-0.19587732,0.3379972,-17.69484888,-12.05228356,-8.39430172,93.35687816,-0.0313447819999999,-0.1596324495999996,-0.694928592,0.15883138616,-0.05563558544,0.196832478,0.005
09:51:47,0.5928822699999996,0.3193282000000002,-0.2706692099999999,-0.08884327,-0.19675623,0.341049425,-17.65129032,-12.06704184,-8.383526955,93.30444674,-0.0228402792499999,-0.1734926019,-0.696611238,0.15791595074,-0.05654650366,0.20030834825,0.005
09:51:47,0.6118498599999995,0.3026766000000003,-0.2810127799999999,-0.09294486,-0.19763514,0.34410165,-17.60773176,-12.08180012,-8.37275219,93.25201532,-0.0143357765,-0.1873527541999999,-0.698293884,0.15700051532,-0.05745742188,0.2037842185,0.005
09:51:47,0.6308174499999999,0.2860250000000004,-0.2913563499999998,-0.09704645,-0.19851405,0.347153875,-17.5641732,-12.0965584,-8.361977425,93.1995839,-0.0058312737499999,-0.2012129064999999,-0.69997653,0.1560850799,-0.0583683401,0.20726008875,0.005
09:51:47,0.6497850399999998,0.2693734000000001,-0.3016999199999999,-0.10114804,-0.19939296,0.3502060999999999,-17.520614639999998,-12.11131668,-8.35120266,93.14715248,0.0026732289999999,-0.2150730587999998,-0.701659176,0.15516964448,-0.05927925832,0.2107359589999999,0.005
09:51:47,0.6687526299999997,0.2527218000000002,-0.31204349,-0.1052496299999999,-0.20027187,0.353258325,-17.47705608,-12.12607496,-8.340427895,93.09472106,0.0111777317499999,-0.2289332110999997,-0.7033418220000001,0.15425420906,-0.0601901765399999,0.21421182925,0.005
09:51:47,0.6877202199999997,0.2360702000000003,-0.3223870599999998,-0.1093512199999999,-0.20115078,0.35631055,-17.43349752,-12.14083324,-8.32965313,93.04228964,0.0196822345,-0.2427933633999996,-0.705024468,0.15333877364,-0.0611010947599999,0.2176876995,0.005
09:51:47,0.7066878099999996,0.2194186000000004,-0.3327306299999999,-0.1134528099999999,-0.20202969,0.359362775,-17.38993896,-12.15559152,-8.318878365,92.98985822,0.0281867372499999,-0.2566535156999996,-0.7067071140000001,0.15242333822,-0.0620120129799999,0.2211635697499999,0.005
09:51:47,0.7256554,0.2027670000000001,-0.3430741999999998,-0.1175543999999999,-0.2029086,0.362415,-17.3463804,-12.1703498,-8.308103599999999,92.9374268,0.0366912400000001,-0.270513668,-0.70838976,0.1515079028,-0.0629229311999999,0.22463944,0.005
09:51:47,0.7446229899999999,0.1861154000000002,-0.3534177699999998,-0.1216559899999999,-0.20378751,0.3654672249999999,-17.30282184,-12.18510808,-8.297328835,92.88499538,0.04519574275,-0.2843738202999999,-0.7100724060000001,0.15059246738,-0.0638338494199999,0.2281153102499999,0.005
09:51:47,0.7635905799999998,0.1694638000000004,-0.3637613399999999,-0.1257575799999999,-0.20466642,0.3685194499999999,-17.25926328,-12.19986636,-8.28655407,92.83256396,0.0537002454999999,-0.2982339725999998,-0.711755052,0.14967703196,-0.0647447676399999,0.2315911805,0.005
09:51:47,0.7825581699999997,0.1528122,-0.3741049099999998,-0.12985917,-0.20554533,0.371571675,-17.215704719999998,-12.21462464,-8.275779305,92.78013254,0.0622047482500001,-0.3120941248999997,-0.713437698,0.14876159654,-0.06565568586,0.23506705075,0.005
09:51:47,0.8015257599999996,0.1361606000000002,-0.3844484799999998,-0.13396076,-0.20642424,0.3746239,-17.17214616,-12.22938292,-8.26500454,92.72770112,0.070709251,-0.3259542771999997,-0.715120344,0.14784616112,-0.06656660408,0.2385429209999999,0.005
09:51:47,0.8204933499999996,0.1195090000000003,-0.3947920499999999,-0.13806235,-0.20730315,0.377676125,-17.1285876,-12.2441412,-8.254229774999999,92.6752697,0.0792137537499999,-0.3398144294999996,-0.71680299,0.1469307257,-0.0674775223,0.24201879125,0.005
09:51:47,0.8394609399999999,0.1028574000000004,-0.4051356199999998,-0.14216394,-0.20818206,0.38072835,-17.08502904,-12.25889948,-8.24345501,92.62283828,0.0877182565,-0.3536745818,-0.718485636,0.14601529028,-0.06838844052,0.2454946615,0.005
09:51:47,0.8584285299999999,0.0862058000000001,-0.4154791899999999,-0.1462655299999999,-0.20906097,0.383780575,-17.04147048,-12.27365776,-8.232680245,92.57040686,0.09622275925,-0.3675347340999999,-0.720168282,0.14509985486,-0.06929935874,0.24897053175,0.005
09:51:47,0.8773961199999998,0.0695542000000002,-0.4258227599999999,-0.1503671199999999,-0.20993988,0.3868328,-16.99791192,-12.28841604,-8.22190548,92.51797544,0.1047272619999999,-0.3813948863999998,-0.7218509280000001,0.14418441944,-0.07021027696,0.252446402,0.005
09:51:47,0.8963637099999997,0.0529026000000003,-0.4361663299999998,-0.1544687099999999,-0.21081879,0.389885025,-16.95435336,-12.30317432,-8.211130715,92.46554402,0.11323176475,-0.3952550386999998,-0.723533574,0.14326898402,-0.07112119518,0.2559222722499999,0.005
09:51:47,0.9153312999999996,0.0362510000000004,-0.4465098999999999,-0.1585702999999999,-0.2116977,0.39293725,-16.910794799999998,-12.3179326,-8.200355949999999,92.4131126,0.1217362675,-0.4091151909999997,-0.7252162200000001,0.1423535486,-0.0720321134,0.2593981425,0.005
09:51:47,0.9342988899999995,0.0195994000000001,-0.45685347,-0.1626718899999999,-0.21257661,0.395989475,-16.86723624,-12.33269088,-8.189581185,92.36068118,0.1302407702499999,-0.4229753432999996,-0.726898866,0.14143811318,-0.07294303162,0.26287401275,0.005
09:51:47,0.95326648,0.0029478000000002,-0.4671970399999998,-0.1667734799999999,-0.21345552,0.3990417,-16.82367768,-12.34744916,-8.178806419999999,92.30824976,0.138745273,-0.4368354956,-0.7285815120000001,0.14052267776,-0.07385394984,0.266349883,0.005
09:51:47,0.9722340699999998,-0.0137037999999996,-0.4775406099999999,-0.17087507,-0.21433443,0.4020939250000001,-16.78011912,-12.36220744,-8.168031655,92.25581834,0.1472497757499999,-0.4506956478999999,-0.730264158,0.13960724234,-0.07476486806,0.26982575325,0.005
09:51:47,0.9912016599999998,-0.0303553999999999,-0.4878841799999998,-0.17497666,-0.21521334,0.40514615,-16.73656056,-12.37696572,-8.15725689,92.20338692,0.1557542785000001,-0.4645558001999998,-0.731946804,0.13869180692,-0.07567578628,0.2733016235,0.005
09:51:47,1.0101692499999997,-0.0470069999999998,-0.4982277499999998,-0.17907825,-0.21609225,0.408198375,-16.693002,-12.391724,-8.146482125,92.1509555,0.16425878125,-0.4784159524999998,-0.73362945,0.1377763715,-0.0765867045,0.27677749375,0.005
09:51:47,1.0291368399999996,-0.0636585999999996,-0.5085713199999999,-0.1831798399999999,-0.21697116,0.4112506,-16.64944344,-12.40648228,-8.13570736,92.09852408,0.1727632839999999,-0.4922761047999997,-0.735312096,0.13686093608,-0.07749762272,0.280253364,0.005
09:51:47,1.0481044299999995,-0.0803101999999995,-0.5189148899999998,-0.1872814299999999,-0.21785007,0.414302825,-16.605884879999998,-12.42124056,-8.124932595,92.04609266,0.1812677867500001,-0.5061362570999997,-0.736994742,0.13594550066,-0.07840854094,0.2837292342499999,0.005
09:51:47,1.06707202,-0.0969617999999998,-0.5292584599999999,-0.1913830199999999,-0.21872898,0.41735505,-16.56232632,-12.43599884,-8.11415783,91.99366124,0.1897722895,-0.5199964094,-0.738677388,0.13503006524,-0.07931945916,0.2872051045,0.005
09:51:47,1.0860396099999998,-0.1136133999999997,-0.53960203,-0.1954846099999999,-0.21960789,0.4204072750000001,-16.51876776,-12.45075712,-8.103383065,91.94122982,0.1982767922499999,-0.5338565617,-0.7403600340000001,0.13411462982,-0.08023037738,0.29068097475,0.005
09:51:47,1.1050071999999995,-0.1302649999999996,-0.5499455999999998,-0.1995861999999999,-0.2204868,0.4234595,-16.4752092,-12.4655154,-8.0926083,91.8887984,0.2067812950000001,-0.5477167139999999,-0.74204268,0.1331991944,-0.0811412956,0.294156845,0.005
09:51:47,1.1239747899999997,-0.1469165999999995,-0.5602891699999999,-0.2036877899999999,-0.22136571,0.426511725,-16.43165064,-12.48027368,-8.081833535,91.83636698,0.21528579775,-0.5615768662999998,-0.7437253260000001,0.13228375898,-0.08205221382,0.29763271525,0.005
09:51:47,1.1429423799999996,-0.1635681999999998,-0.57063274,-0.2077893799999999,-0.22224462,0.42956395,-16.38809208,-12.49503196,-8.07105877,91.78393556,0.2237903004999999,-0.5754370185999997,-0.745407972,0.13136832356,-0.08296313204,0.3011085854999999,0.005
09:51:47,1.1619099699999995,-0.1802197999999997,-0.5809763099999998,-0.21189097,-0.22312353,0.432616175,-16.34453352,-12.50979024,-8.060284005,91.73150414,0.23229480325,-0.5892971708999997,-0.7470906180000001,0.13045288814,-0.08387405026,0.30458445575,0.005
09:51:47,1.18087756,-0.1968713999999995,-0.5913198799999999,-0.21599256,-0.22400244,0.4356684,-16.300974959999998,-12.52454852,-8.049509239999999,91.67907272,0.240799306,-0.6031573231999996,-0.748773264,0.12953745272,-0.08478496848,0.308060326,0.005
09:51:47,1.1998451499999998,-0.2135229999999999,-0.60166345,-0.22009415,-0.22488135,0.438720625,-16.2574164,-12.5393068,-8.038734475,91.6266413,0.2493038087499999,-0.6170174755,-0.75045591,0.1286220173,-0.0856958866999999,0.31153619625,0.005
09:51:47,1.2188127399999995,-0.2301745999999997,-0.6120070199999998,-0.2241957399999999,-0.22576026,0.44177285,-16.21385784,-12.55406508,-8.02795971,91.57420988,0.2578083115,-0.6308776277999999,-0.752138556,0.12770658188,-0.0866068049199999,0.3150120665,0.005
09:51:47,1.2377803299999997,-0.2468261999999996,-0.6223505899999999,-0.2282973299999999,-0.22663917,0.444825075,-16.170299280000002,-12.56882336,-8.017184945,91.52177846,0.26631281425,-0.6447377800999998,-0.753821202,0.12679114646,-0.0875177231399999,0.31848793675,0.005
09:51:47,1.2567479199999996,-0.2634777999999995,-0.6326941599999998,-0.2323989199999999,-0.22751808,0.4478773,-16.12674072,-12.58358164,-8.00641018,91.46934704,0.2748173170000001,-0.6585979323999998,-0.755503848,0.12587571104,-0.0884286413599999,0.321963807,0.005
09:51:47,1.2757155099999995,-0.2801293999999998,-0.6430377299999999,-0.2365005099999999,-0.22839699,0.450929525,-16.08318216,-12.59833992,-7.995635415,91.41691562,0.28332181975,-0.6724580846999997,-0.757186494,0.12496027562,-0.0893395595799999,0.32543967725,0.005
09:51:47,1.2946831,-0.2967809999999997,-0.6533812999999999,-0.2406020999999999,-0.2292759,0.4539817500000001,-16.0396236,-12.6130982,-7.98486065,91.3644842,0.2918263224999999,-0.6863182369999996,-0.75886914,0.1240448402,-0.0902504777999999,0.3289155474999999,0.005
09:51:47,1.3136506899999998,-0.3134325999999996,-0.6637248699999998,-0.2447036899999999,-0.23015481,0.457033975,-15.99606504,-12.62785648,-7.974085884999999,91.31205278,0.3003308252500001,-0.7001783893,-0.760551786,0.12312940478,-0.09116139602,0.33239141775,0.005
09:51:47,1.3326182799999997,-0.3300841999999995,-0.6740684399999999,-0.24880528,-0.23103372,0.4600862,-15.95250648,-12.64261476,-7.96331112,91.25962136,0.308835328,-0.7140385415999999,-0.7622344320000001,0.12221396936,-0.09207231424,0.335867288,0.005
09:51:47,1.3515858699999996,-0.3467357999999998,-0.68441201,-0.25290687,-0.23191263,0.463138425,-15.90894792,-12.65737304,-7.952536354999999,91.20718994,0.3173398307499999,-0.7278986938999998,-0.763917078,0.12129853394,-0.09298323246,0.33934315825,0.005
09:51:47,1.3705534599999996,-0.3633873999999997,-0.6947555799999998,-0.25700846,-0.23279154,0.46619065,-15.86538936,-12.67213132,-7.94176159,91.15475852,0.3258443335000001,-0.7417588461999998,-0.7655997240000001,0.12038309852,-0.09389415068,0.3428190285,0.005
09:51:47,1.38952105,-0.3800389999999995,-0.7050991499999997,-0.26111005,-0.23367045,0.469242875,-15.8218308,-12.6868896,-7.930986825,91.1023271,0.33434883625,-0.7556189984999997,-0.76728237,0.1194676631,-0.0948050689,0.3462948987499999,0.005
09:51:47,1.4084886399999998,-0.3966905999999999,-0.71544272,-0.2652116399999999,-0.23454936,0.4722951000000001,-15.77827224,-12.70164788,-7.920212059999999,91.04989568,0.3428533389999999,-0.7694791507999996,-0.7689650160000001,0.11855222768,-0.09571598712,0.349770769,0.005
09:51:47,1.4274562299999998,-0.4133421999999997,-0.7257862899999998,-0.2693132299999999,-0.23542827,0.475347325,-15.73471368,-12.71640616,-7.909437295,90.99746426,0.35135784175,-0.7833393031,-0.770647662,0.11763679226,-0.09662690534,0.35324663925,0.005
09:51:47,1.4464238199999997,-0.4299937999999996,-0.7361298599999997,-0.2734148199999999,-0.23630718,0.47839955,-15.69115512,-12.73116444,-7.898662529999999,90.94503284,0.3598623445,-0.7971994553999999,-0.772330308,0.11672135684,-0.09753782356,0.3567225095,0.005
09:51:47,1.4653914099999996,-0.4466453999999995,-0.74647343,-0.2775164099999999,-0.23718609,0.481451775,-15.647596559999998,-12.74592272,-7.887887764999999,90.89260142,0.3683668472500001,-0.8110596076999999,-0.774012954,0.11580592142,-0.09844874178,0.36019837975,0.005
09:51:48,1.484359,-0.463297,-0.756817,-0.281618,-0.238065,0.484504,-15.604038,-12.760681,-7.877113,90.84017,0.37687135,-0.82491976,-0.7756956,0.114890486,-0.09935966,0.36367425,0.005
09:51:48,1.48189113,-0.466421885,-0.75639695,-0.2777614399999999,-0.234789055,0.48241059,-15.588232225,-12.78335131,-7.852700844999999,90.99918498,0.37516952264,-0.8266419722,-0.7716645012500001,0.11622634357,-0.0968766917,0.3587360417499999,0.005
09:51:48,1.47942326,-0.46954677,-0.7559769,-0.2739048799999999,-0.23151311,0.48031718,-15.57242645,-12.80602162,-7.82828869,91.15819996,0.37346769528,-0.8283641844,-0.7676334025,0.11756220114,-0.0943937234,0.3537978335,0.005
09:51:48,1.47695539,-0.472671655,-0.75555685,-0.2700483199999999,-0.228237165,0.47822377,-15.556620675,-12.82869193,-7.803876535,91.31721494,0.37176586792,-0.8300863966,-0.76360230375,0.11889805871,-0.0919107551,0.3488596252499999,0.005
09:51:48,1.47448752,-0.47579654,-0.7551367999999999,-0.26619176,-0.22496122,0.47613036,-15.5408149,-12.85136224,-7.779464379999999,91.47622992,0.37006404056,-0.8318086088,-0.7595712050000001,0.12023391628,-0.0894277868,0.343921417,0.005
09:51:48,1.47201965,-0.478921425,-0.7547167499999999,-0.2623352,-0.221685275,0.47403695,-15.525009125,-12.87403255,-7.755052225,91.6352449,0.3683622132,-0.833530821,-0.75554010625,0.12156977385,-0.0869448185,0.33898320875,0.005
09:51:48,1.46955178,-0.48204631,-0.7542966999999999,-0.25847864,-0.21840933,0.47194354,-15.50920335,-12.89670286,-7.73064007,91.79425988,0.36666038584,-0.8352530332,-0.7515090075,0.12290563142,-0.0844618502,0.3340450004999999,0.005
09:51:48,1.46708391,-0.485171195,-0.7538766499999999,-0.25462208,-0.215133385,0.46985013,-15.493397575,-12.91937317,-7.706227914999999,91.95327486,0.36495855848,-0.8369752454,-0.7474779087500001,0.12424148899,-0.0819788819,0.32910679225,0.005
09:51:48,1.46461604,-0.48829608,-0.7534565999999999,-0.2507655199999999,-0.21185744,0.46775672,-15.4775918,-12.94204348,-7.681815759999999,92.11228984,0.36325673112,-0.8386974576,-0.74344681,0.12557734656,-0.0794959136,0.324168584,0.005
09:51:48,1.46214817,-0.491420965,-0.7530365499999999,-0.2469089599999999,-0.208581495,0.46566331,-15.461786025,-12.96471379,-7.657403605,92.27130482,0.36155490376,-0.8404196698,-0.73941571125,0.12691320413,-0.0770129453,0.3192303757499999,0.005
09:51:48,1.4596803,-0.49454585,-0.7526165,-0.2430523999999999,-0.20530555,0.4635699,-15.44598025,-12.9873841,-7.63299145,92.4303198,0.3598530763999999,-0.842141882,-0.7353846125000001,0.1282490617,-0.074529977,0.3142921675,0.005
09:51:48,1.45721243,-0.497670735,-0.75219645,-0.23919584,-0.202029605,0.46147649,-15.430174475,-13.01005441,-7.608579294999999,92.58933478,0.35815124904,-0.8438640942,-0.73135351375,0.12958491927,-0.0720470087,0.30935395925,0.005
09:51:48,1.45474456,-0.50079562,-0.7517764,-0.2353392799999999,-0.19875366,0.45938308,-15.4143687,-13.03272472,-7.58416714,92.74834976,0.35644942168,-0.8455863064,-0.727322415,0.13092077684,-0.0695640404,0.3044157509999999,0.005
09:51:48,1.45227669,-0.503920505,-0.75135635,-0.2314827199999999,-0.195477715,0.45728967,-15.398562924999998,-13.05539503,-7.559754985,92.90736474,0.3547475943199999,-0.8473085186,-0.7232913162500001,0.13225663441,-0.0670810721,0.29947754275,0.005
09:51:48,1.44980882,-0.50704539,-0.7509363,-0.2276261599999999,-0.19220177,0.45519626,-15.38275715,-13.07806534,-7.535342829999999,93.06637972,0.35304576696,-0.8490307308,-0.7192602175,0.13359249198,-0.0645981038,0.2945393344999999,0.005
09:51:48,1.44734095,-0.510170275,-0.75051625,-0.2237695999999999,-0.188925825,0.45310285,-15.366951375,-13.10073565,-7.510930675,93.2253947,0.3513439396,-0.850752943,-0.7152291187500001,0.13492834955,-0.0621151355,0.28960112625,0.005
09:51:48,1.44487308,-0.51329516,-0.7500962,-0.2199130399999999,-0.18564988,0.45100944,-15.3511456,-13.12340596,-7.48651852,93.38440968,0.3496421122399999,-0.8524751552,-0.7111980200000001,0.13626420712,-0.0596321672,0.284662918,0.005
09:51:48,1.44240521,-0.516420045,-0.74967615,-0.21605648,-0.182373935,0.44891603,-15.335339824999998,-13.14607627,-7.462106364999999,93.54342466,0.34794028488,-0.8541973674,-0.70716692125,0.13760006469,-0.0571491989,0.2797247097499999,0.005
09:51:48,1.43993734,-0.51954493,-0.7492561,-0.21219992,-0.1790979899999999,0.44682262,-15.31953405,-13.16874658,-7.43769421,93.70243964,0.34623845752,-0.8559195796,-0.7031358225000001,0.13893592226,-0.0546662306,0.2747865015,0.005
09:51:48,1.43746947,-0.522669815,-0.74883605,-0.2083433599999999,-0.1758220449999999,0.44472921,-15.303728275,-13.19141689,-7.413282055,93.86145462,0.34453663016,-0.8576417918,-0.6991047237500001,0.14027177983,-0.0521832623,0.26984829325,0.005
09:51:48,1.4350016,-0.5257947000000001,-0.748416,-0.2044867999999999,-0.1725460999999999,0.4426357999999999,-15.2879225,-13.2140872,-7.388869899999999,94.0204696,0.3428348028,-0.859364004,-0.695073625,0.1416076373999999,-0.049700294,0.264910085,0.005
09:51:48,1.43253373,-0.528919585,-0.74799595,-0.2006302399999999,-0.1692701549999999,0.44054239,-15.272116725,-13.23675751,-7.364457744999999,94.17948458,0.34113297544,-0.8610862162,-0.6910425262500001,0.14294349497,-0.0472173257,0.25997187675,0.005
09:51:48,1.43006586,-0.53204447,-0.7475759,-0.1967736799999999,-0.1659942099999999,0.43844898,-15.25631095,-13.25942782,-7.34004559,94.33849956,0.3394311480799999,-0.8628084283999999,-0.6870114275000001,0.14427935254,-0.0447343574,0.2550336685,0.005
09:51:48,1.42759799,-0.535169355,-0.74715585,-0.1929171199999999,-0.162718265,0.4363555699999999,-15.240505175,-13.28209813,-7.315633435,94.49751454,0.33772932072,-0.8645306406,-0.68298032875,0.14561521011,-0.0422513891,0.2500954602499999,0.005
09:51:48,1.42513012,-0.53829424,-0.7467358,-0.18906056,-0.15944232,0.43426216,-15.2246994,-13.30476844,-7.291221279999999,94.65652952,0.33602749336,-0.8662528528,-0.6789492300000001,0.14695106768,-0.0397684208,0.245157252,0.005
09:51:48,1.42266225,-0.541419125,-0.7463157499999999,-0.1852039999999999,-0.156166375,0.43216875,-15.208893625,-13.32743875,-7.266809125,94.8155445,0.334325666,-0.867975065,-0.67491813125,0.14828692525,-0.0372854525,0.24021904375,0.005
09:51:48,1.42019438,-0.54454401,-0.7458956999999999,-0.1813474399999999,-0.15289043,0.43007534,-15.19308785,-13.35010906,-7.24239697,94.97455948,0.33262383864,-0.8696972772,-0.6708870325,0.14962278282,-0.0348024842,0.2352808355,0.005
09:51:48,1.41772651,-0.547668895,-0.7454756499999999,-0.1774908799999999,-0.149614485,0.42798193,-15.177282075,-13.37277937,-7.217984814999999,95.13357446,0.33092201128,-0.8714194894,-0.6668559337500001,0.15095864039,-0.0323195159,0.23034262725,0.005
09:51:48,1.41525864,-0.55079378,-0.7450555999999999,-0.1736343199999999,-0.14633854,0.42588852,-15.1614763,-13.39544968,-7.193572659999999,95.29258944,0.3292201839199999,-0.8731417016,-0.662824835,0.15229449796,-0.0298365476,0.225404419,0.005
09:51:48,1.41279077,-0.553918665,-0.7446355499999999,-0.1697777599999999,-0.143062595,0.42379511,-15.145670525,-13.41811999,-7.169160505,95.45160442,0.32751835656,-0.8748639138,-0.65879373625,0.15363035553,-0.0273535793,0.22046621075,0.005
09:51:48,1.4103229,-0.5570435499999999,-0.7442154999999999,-0.1659212,-0.13978665,0.4217016999999999,-15.12986475,-13.4407903,-7.14474835,95.6106194,0.3258165292,-0.876586126,-0.6547626375000001,0.1549662131,-0.024870611,0.2155280024999999,0.005
09:51:48,1.40785503,-0.560168435,-0.74379545,-0.1620646399999999,-0.136510705,0.41960829,-15.114058975,-13.46346061,-7.120336195,95.76963438,0.32411470184,-0.8783083382,-0.65073153875,0.15630207067,-0.0223876427,0.21058979425,0.005
09:51:48,1.40538716,-0.56329332,-0.7433754,-0.1582080799999999,-0.13323476,0.41751488,-15.098253199999998,-13.48613092,-7.09592404,95.92864936,0.32241287448,-0.8800305504,-0.64670044,0.15763792824,-0.0199046744,0.205651586,0.005
09:51:48,1.40291929,-0.566418205,-0.74295535,-0.1543515199999999,-0.129958815,0.4154214699999999,-15.082447425,-13.50880123,-7.071511885,96.08766434,0.32071104712,-0.8817527626,-0.6426693412500001,0.15897378581,-0.0174217061,0.20071337775,0.005
09:51:48,1.40045142,-0.56954309,-0.7425353,-0.1504949599999999,-0.12668287,0.41332806,-15.06664165,-13.53147154,-7.047099729999999,96.24667932,0.3190092197599999,-0.8834749748,-0.6386382425,0.16030964338,-0.0149387378,0.1957751695,0.005
09:51:48,1.39798355,-0.572667975,-0.74211525,-0.1466383999999999,-0.1234069249999999,0.41123465,-15.050835875,-13.55414185,-7.022687575,96.4056943,0.3173073924,-0.8851971869999999,-0.63460714375,0.16164550095,-0.0124557695,0.19083696125,0.005
09:51:48,1.39551568,-0.57579286,-0.7416952,-0.1427818399999999,-0.12013098,0.4091412399999999,-15.0350301,-13.57681216,-6.99827542,96.56470928,0.31560556504,-0.8869193992,-0.630576045,0.16298135852,-0.0099728012,0.185898753,0.005
09:51:48,1.39304781,-0.578917745,-0.74127515,-0.1389252799999999,-0.116855035,0.40704783,-15.019224325,-13.59948247,-6.973863264999999,96.72372426,0.31390373768,-0.8886416114,-0.62654494625,0.16431721609,-0.0074898329,0.18096054475,0.005
09:51:48,1.39057994,-0.58204263,-0.7408551,-0.1350687199999999,-0.11357909,0.40495442,-15.00341855,-13.62215278,-6.94945111,96.88273924,0.31220191032,-0.8903638236,-0.6225138475,0.16565307366,-0.0050068646,0.1760223365,0.005
09:51:48,1.38811207,-0.585167515,-0.74043505,-0.1312121599999999,-0.1103031449999999,0.4028610099999999,-14.987612775,-13.64482309,-6.925038955,97.04175422,0.31050008296,-0.8920860358,-0.61848274875,0.16698893123,-0.0025238963,0.17108412825,0.005
09:51:48,1.3856442,-0.5882924,-0.740015,-0.1273555999999999,-0.1070271999999999,0.4007676,-14.971807,-13.6674934,-6.9006268,97.2007692,0.3087982555999999,-0.893808248,-0.61445165,0.1683247888,-4.092800000000951e-05,0.16614592,0.005
09:51:48,1.38317633,-0.591417285,-0.73959495,-0.1234990399999999,-0.1037512549999999,0.39867419,-14.956001225,-13.69016371,-6.876214644999999,97.35978418,0.30709642824,-0.8955304601999999,-0.61042055125,0.16966064637,0.0024420403,0.16120771175,0.005
09:51:48,1.38070846,-0.59454217,-0.7391749,-0.1196424799999999,-0.1004753099999999,0.3965807799999999,-14.94019545,-13.71283402,-6.85180249,97.51879916,0.30539460088,-0.8972526724,-0.6063894525,0.17099650394,0.0049250086,0.1562695035,0.005
09:51:48,1.37824059,-0.5976670550000001,-0.73875485,-0.1157859199999999,-0.0971993649999999,0.39448737,-14.924389675,-13.73550433,-6.827390335,97.67781414,0.30369277352,-0.8989748846,-0.60235835375,0.17233236151,0.0074079769,0.15133129525,0.005
09:51:48,1.37577272,-0.60079194,-0.7383348,-0.1119293599999999,-0.0939234199999999,0.39239396,-14.9085839,-13.75817464,-6.80297818,97.83682912,0.30199094616,-0.9006970968,-0.5983272550000001,0.17366821908,0.0098909452,0.146393087,0.005
09:51:48,1.37330485,-0.603916825,-0.73791475,-0.1080727999999999,-0.090647475,0.3903005499999999,-14.892778125,-13.78084495,-6.778566025,97.9958441,0.3002891188,-0.902419309,-0.59429615625,0.17500407665,0.0123739135,0.14145487875,0.005
09:51:48,1.37083698,-0.60704171,-0.7374947,-0.1042162399999999,-0.08737153,0.38820714,-14.87697235,-13.80351526,-6.75415387,98.15485908,0.29858729144,-0.9041415212,-0.5902650575,0.17633993422,0.0148568818,0.1365166705,0.005
09:51:48,1.36836911,-0.610166595,-0.7370746499999999,-0.1003596799999999,-0.084095585,0.38611373,-14.861166575,-13.82618557,-6.729741714999999,98.31387406,0.29688546408,-0.9058637334,-0.5862339587500001,0.17767579179,0.0173398501,0.13157846225,0.005
09:51:48,1.36590124,-0.61329148,-0.7366545999999999,-0.0965031199999999,-0.08081964,0.3840203199999999,-14.8453608,-13.84885588,-6.705329559999999,98.47288904,0.29518363672,-0.9075859456,-0.58220286,0.17901164936,0.0198228183999999,0.126640254,0.005
09:51:48,1.36343337,-0.616416365,-0.7362345499999999,-0.0926465599999999,-0.077543695,0.38192691,-14.829555025,-13.87152619,-6.680917405,98.63190402,0.29348180936,-0.9093081578,-0.57817176125,0.18034750693,0.0223057866999999,0.12170204575,0.005
09:51:48,1.3609655,-0.6195412499999999,-0.7358145,-0.0887899999999999,-0.07426775,0.3798335,-14.81374925,-13.8941965,-6.65650525,98.790919,0.291779982,-0.91103037,-0.5741406625000001,0.1816833645,0.0247887549999999,0.1167638375,0.005
09:51:48,1.35849763,-0.622666135,-0.73539445,-0.0849334399999999,-0.0709918049999999,0.37774009,-14.797943475,-13.91686681,-6.632093095,98.94993398,0.29007815464,-0.9127525822,-0.57010956375,0.18301922207,0.0272717233,0.11182562925,0.005
09:51:48,1.35602976,-0.62579102,-0.7349744,-0.0810768799999999,-0.0677158599999999,0.37564668,-14.7821377,-13.93953712,-6.60768094,99.10894896,0.28837632728,-0.9144747944,-0.566078465,0.18435507964,0.0297546916,0.106887421,0.005
09:51:48,1.35356189,-0.6289159049999999,-0.73455435,-0.0772203199999999,-0.0644399149999999,0.37355327,-14.766331925,-13.96220743,-6.583268785,99.26796394,0.28667449992,-0.9161970066,-0.5620473662500001,0.18569093721,0.0322376599,0.10194921275,0.005
09:51:48,1.35109402,-0.63204079,-0.7341343,-0.0733637599999999,-0.0611639699999999,0.37145986,-14.75052615,-13.98487774,-6.558856629999999,99.42697892,0.28497267256,-0.9179192188,-0.5580162675,0.18702679478,0.0347206282,0.0970110045,0.005
09:51:48,1.34862615,-0.635165675,-0.73371425,-0.0695071999999999,-0.0578880249999999,0.36936645,-14.734720375,-14.00754805,-6.534444475,99.5859939,0.2832708452,-0.919641431,-0.55398516875,0.18836265235,0.0372035965,0.09207279625,0.005
09:51:48,1.34615828,-0.63829056,-0.7332942,-0.0656506399999999,-0.0546120799999999,0.36727304,-14.7189146,-14.03021836,-6.51003232,99.74500888,0.28156901784,-0.9213636432,-0.5499540700000001,0.18969850992,0.0396865648,0.087134588,0.005
09:51:48,1.34369041,-0.641415445,-0.73287415,-0.0617940799999999,-0.0513361349999999,0.36517963,-14.703108825,-14.05288867,-6.485620164999999,99.90402386,0.2798671904799999,-0.9230858554,-0.54592297125,0.19103436749,0.0421695331,0.0821963797499999,0.005
09:51:48,1.34122254,-0.64454033,-0.7324541,-0.0579375199999999,-0.04806019,0.36308622,-14.68730305,-14.07555898,-6.46120801,100.06303884,0.27816536312,-0.9248080676,-0.5418918725,0.19237022506,0.0446525014,0.0772581715,0.005
09:51:48,1.33875467,-0.647665215,-0.73203405,-0.0540809599999999,-0.044784245,0.36099281,-14.671497275,-14.09822929,-6.436795855,100.22205382,0.27646353576,-0.9265302798,-0.5378607737500001,0.19370608263,0.0471354697,0.07231996325,0.005
09:51:48,1.3362868,-0.6507901,-0.731614,-0.0502243999999999,-0.0415083,0.3588994,-14.6556915,-14.1208996,-6.4123837,100.3810688,0.2747617084,-0.928252492,-0.533829675,0.1950419401999999,0.049618438,0.0673817549999999,0.005
09:51:48,1.33381893,-0.653914985,-0.73119395,-0.0463678399999999,-0.0382323549999999,0.35680599,-14.639885725,-14.14356991,-6.387971544999999,100.54008378,0.27305988104,-0.9299747042,-0.52979857625,0.19637779777,0.0521014063,0.06244354675,0.005
09:51:48,1.33135106,-0.65703987,-0.7307739,-0.0425112799999999,-0.0349564099999999,0.35471258,-14.62407995,-14.16624022,-6.36355939,100.69909876,0.27135805368,-0.9316969164,-0.5257674775000001,0.19771365534,0.0545843746,0.0575053385,0.005
09:51:48,1.32888319,-0.660164755,-0.73035385,-0.0386547199999999,-0.0316804649999999,0.35261917,-14.608274175,-14.18891053,-6.339147235,100.85811374,0.2696562263199999,-0.9334191286,-0.52173637875,0.19904951291,0.0570673429,0.05256713025,0.005
09:51:48,1.32641532,-0.66328964,-0.7299338,-0.0347981599999999,-0.0284045199999999,0.35052576,-14.5924684,-14.21158084,-6.31473508,101.01712872,0.26795439896,-0.9351413408,-0.51770528,0.20038537048,0.0595503112,0.047628922,0.005
09:51:48,1.32394745,-0.666414525,-0.72951375,-0.0309415999999999,-0.0251285749999999,0.34843235,-14.576662625,-14.23425115,-6.290322925,101.1761437,0.2662525716,-0.936863553,-0.5136741812500001,0.20172122805,0.0620332794999999,0.04269071375,0.005
09:51:48,1.32147958,-0.66953941,-0.7290937,-0.0270850399999999,-0.0218526299999999,0.34633894,-14.56085685,-14.25692146,-6.26591077,101.33515868,0.26455074424,-0.9385857652,-0.5096430825,0.20305708562,0.0645162478,0.0377525055,0.005
09:51:48,1.31901171,-0.672664295,-0.72867365,-0.0232284799999999,-0.0185766849999999,0.34424553,-14.545051075,-14.27959177,-6.241498614999999,101.49417366,0.26284891688,-0.9403079774,-0.50561198375,0.20439294319,0.0669992161,0.03281429725,0.005
09:51:48,1.31654384,-0.67578918,-0.7282536,-0.0193719199999999,-0.0153007399999999,0.34215212,-14.5292453,-14.30226208,-6.21708646,101.65318864,0.26114708952,-0.9420301896,-0.5015808850000001,0.20572880076,0.0694821844,0.027876089,0.005
09:51:48,1.31407597,-0.678914065,-0.7278335499999999,-0.0155153599999999,-0.0120247949999999,0.34005871,-14.513439525,-14.32493239,-6.192674305,101.81220362,0.2594452621599999,-0.9437524018,-0.49754978625,0.20706465833,0.0719651526999999,0.02293788075,0.005
09:51:48,1.3116081,-0.6820389499999999,-0.7274134999999999,-0.0116587999999999,-0.0087488499999999,0.3379653,-14.49763375,-14.3476027,-6.16826215,101.9712186,0.2577434348,-0.945474614,-0.4935186875,0.2084005159,0.0744481209999999,0.0179996725,0.005
09:51:48,1.30914023,-0.685163835,-0.72699345,-0.0078022399999999,-0.005472905,0.3358718899999999,-14.481827975,-14.37027301,-6.143849995,102.13023358,0.25604160744,-0.9471968262,-0.48948758875,0.20973637347,0.0769310892999999,0.01306146425,0.005
09:51:48,1.30667236,-0.68828872,-0.7265734,-0.0039456799999999,-0.0021969599999999,0.33377848,-14.4660222,-14.39294332,-6.11943784,102.28924856,0.25433978008,-0.9489190384,-0.48545649,0.21107223104,0.0794140575999999,0.008123256,0.005
09:51:48,1.30420449,-0.6914136049999999,-0.72615335,-8.911999999994258e-05,0.001078985,0.33168507,-14.450216425,-14.41561363,-6.095025685,102.44826354,0.25263795272,-0.9506412506,-0.48142539125,0.21240808861,0.0818970258999999,0.00318504775,0.005
09:51:48,1.30173662,-0.69453849,-0.7257333,0.00376744,0.00435493,0.3295916599999999,-14.43441065,-14.43828394,-6.070613529999999,102.60727852,0.25093612536,-0.9523634628,-0.4773942925,0.21374394618,0.0843799941999999,-0.0017531604999999,0.005
09:51:48,1.29926875,-0.697663375,-0.72531325,0.007624,0.007630875,0.32749825,-14.418604875,-14.46095425,-6.046201375,102.7662935,0.249234298,-0.954085675,-0.47336319375,0.21507980375,0.0868629624999999,-0.0066913687499999,0.005
09:51:48,1.29680088,-0.7007882599999999,-0.7248932,0.01148056,0.01090682,0.32540484,-14.4027991,-14.48362456,-6.02178922,102.92530848,0.24753247064,-0.9558078872,-0.469332095,0.21641566132,0.0893459307999999,-0.011629577,0.005
09:51:48,1.29433301,-0.703913145,-0.72447315,0.01533712,0.014182765,0.3233114299999999,-14.386993325,-14.50629487,-5.997377065,103.08432346,0.2458306432799999,-0.9575300994,-0.46530099625,0.21775151889,0.0918288990999999,-0.0165677852499999,0.005
09:51:48,1.29186514,-0.70703803,-0.7240531,0.01919368,0.01745871,0.32121802,-14.37118755,-14.52896518,-5.97296491,103.24333844,0.24412881592,-0.9592523116,-0.4612698975,0.21908737646,0.0943118673999999,-0.0215059934999999,0.005
09:51:48,1.28939727,-0.710162915,-0.72363305,0.02305024,0.020734655,0.31912461,-14.355381775,-14.55163549,-5.948552755,103.40235342,0.24242698856,-0.9609745238,-0.45723879875,0.22042323403,0.0967948356999999,-0.0264442017499999,0.005
09:51:48,1.2869294,-0.7132878,-0.723213,0.0269068,0.0240106,0.3170311999999999,-14.339576,-14.5743058,-5.924140599999999,103.5613684,0.2407251611999999,-0.962696736,-0.4532077,0.2217590916,0.0992778039999999,-0.0313824099999999,0.005
09:51:48,1.28446153,-0.716412685,-0.72279295,0.03076336,0.027286545,0.31493779,-14.323770225,-14.59697611,-5.899728445,103.72038338,0.23902333384,-0.9644189482,-0.44917660125,0.22309494917,0.1017607723,-0.0363206182499999,0.005
09:51:48,1.28199366,-0.71953757,-0.7223729,0.03461992,0.03056249,0.31284438,-14.30796445,-14.61964642,-5.87531629,103.87939836,0.23732150648,-0.9661411604,-0.4451455025,0.22443080674,0.1042437406,-0.0412588264999999,0.005
09:51:48,1.27952579,-0.722662455,-0.72195285,0.03847648,0.033838435,0.3107509699999999,-14.292158675,-14.64231673,-5.850904135,104.03841334,0.2356196791199999,-0.9678633726,-0.44111440375,0.22576666431,0.1067267089,-0.0461970347499999,0.005
09:51:48,1.27705792,-0.72578734,-0.7215328,0.04233304,0.03711438,0.30865756,-14.2763529,-14.66498704,-5.82649198,104.19742832,0.23391785176,-0.9695855848,-0.437083305,0.22710252188,0.1092096772,-0.0511352429999999,0.005
09:51:48,1.27459005,-0.728912225,-0.72111275,0.0461896,0.040390325,0.30656415,-14.260547125,-14.68765735,-5.802079825,104.3564433,0.2322160244,-0.971307797,-0.43305220625,0.22843837945,0.1116926455,-0.0560734512499999,0.005
09:51:48,1.27212218,-0.73203711,-0.7206927,0.05004616,0.04366627,0.3044707399999999,-14.24474135,-14.71032766,-5.77766767,104.51545828,0.2305141970399999,-0.9730300092,-0.4290211075,0.22977423702,0.1141756138,-0.0610116594999999,0.005
09:51:48,1.26965431,-0.7351619949999999,-0.72027265,0.05390272,0.046942215,0.30237733,-14.228935575,-14.73299797,-5.753255514999999,104.67447326,0.22881236968,-0.9747522214,-0.42499000875,0.23111009459,0.1166585821,-0.0659498677499999,0.005
09:51:48,1.26718644,-0.73828688,-0.7198526,0.05775928,0.05021816,0.30028392,-14.2131298,-14.75566828,-5.72884336,104.83348824,0.22711054232,-0.9764744336,-0.4209589100000001,0.23244595216,0.1191415504,-0.0708880759999999,0.005
09:51:48,1.26471857,-0.7414117650000001,-0.71943255,0.06161584,0.053494105,0.2981905099999999,-14.197324025,-14.77833859,-5.704431205,104.99250322,0.2254087149599999,-0.9781966458,-0.41692781125,0.23378180973,0.1216245187,-0.0758262842499999,0.005
09:51:48,1.2622507,-0.7445366499999999,-0.7190125,0.0654724,0.0567700499999999,0.2960971,-14.18151825,-14.8010089,-5.68001905,105.1515182,0.2237068876,-0.979918858,-0.4128967125,0.2351176673,0.124107487,-0.0807644924999999,0.005
09:51:48,1.25978283,-0.747661535,-0.71859245,0.06932896,0.0600459949999999,0.29400369,-14.165712475,-14.82367921,-5.655606895,105.31053318,0.22200506024,-0.9816410702,-0.40886561375,0.23645352487,0.1265904553,-0.0857027007499999,0.005
09:51:48,1.25731496,-0.75078642,-0.7181724,0.07318552,0.06332194,0.2919102799999999,-14.1499067,-14.84634952,-5.63119474,105.46954816,0.22030323288,-0.9833632824,-0.404834515,0.23778938244,0.1290734236,-0.0906409089999999,0.005
