Timestamp,linacce_x,linacce_y,linacce_z,gyro_x,gyro_y,gyro_z,X-magnetometer,Y-magnetometer,Z-magnetometer,Yaw, worldXAccel,worldYAccel,worldZAccel,worldXgyro,worldYgyro,worldZgyro,Distance
09:47:15,-1.000305,1.029084,-1.388615,0.633516,0.472522,0.342812,31.475113,-24.36108,-25.943306,-89.9128,-1.7353435,1.031767,1.4274038,0.66278565,0.50791204,-0.029785672,0.005
09:47:15,-0.99448511,1.03206346,-1.386061505,0.6296115,0.47123293,0.341613485,31.487840945,-24.391626495,-25.910372115,-89.98750472500001,-1.7293931097,1.0350282395,1.4265533665,0.659179143635,0.50635553695,-0.0284696434399999,0.005
09:47:15,-0.98866522,1.0350429200000002,-1.38350801,0.625707,0.46994386,0.34041497,31.50056889,-24.42217299,-25.87743823,-90.06220945,-1.7234427194,1.038289479,1.425702933,0.65557263727,0.5047990339,-0.02715361488,0.005
09:47:15,-0.98284533,1.03802238,-1.380954515,0.6218024999999999,0.46865479,0.339216455,31.513296835,-24.452719485000003,-25.844504345,-90.136914175,-1.7174923291,1.0415507185,1.4248524995,0.651966130905,0.50324253085,-0.02583758632,0.005
09:47:15,-0.97702544,1.04100184,-1.37840102,0.617898,0.46736572,0.33801794,31.52602478,-24.48326598,-25.81157046,-90.2116189,-1.7115419388,1.0448119580000002,1.424002066,0.64835962454,0.5016860278,-0.02452155776,0.005
09:47:15,-0.97120555,1.0439813,-1.375847525,0.6139935,0.46607665,0.336819425,31.538752725,-24.513812475,-25.778636575,-90.286323625,-1.7055915485,1.0480731975000002,1.4231516325,0.644753118175,0.50012952475,-0.0232055291999999,0.005
09:47:15,-0.96538566,1.0469607600000002,-1.3732940299999998,0.610089,0.46478758,0.33562091,31.55148067,-24.54435897,-25.74570269,-90.36102835,-1.6996411582,1.0513344370000002,1.422301199,0.64114661181,0.4985730217,-0.02188950064,0.005
09:47:15,-0.95956577,1.04994022,-1.370740535,0.6061845,0.46349851,0.334422395,31.564208615,-24.574905465,-25.712768805,-90.435733075,-1.6936907679,1.0545956765000002,1.4214507655,0.6375401054450001,0.49701651865,-0.02057347208,0.005
09:47:15,-0.95374588,1.05291968,-1.36818704,0.6022799999999999,0.4622094399999999,0.33322388,31.57693656,-24.60545196,-25.67983492,-90.5104378,-1.6877403776,1.0578569160000002,1.420600332,0.63393359908,0.4954600156,-0.01925744352,0.005
09:47:15,-0.94792599,1.0558991400000002,-1.365633545,0.5983755,0.46092037,0.332025365,31.589664505,-24.635998455000003,-25.646901035,-90.585142525,-1.6817899873,1.0611181555,1.4197498985,0.630327092715,0.49390351255,-0.01794141496,0.005
09:47:15,-0.9421061,1.0588786,-1.36308005,0.594471,0.4596313,0.33082685,31.60239245,-24.66654495,-25.61396715,-90.65984725,-1.675839597,1.064379395,1.418899465,0.62672058635,0.4923470095,-0.0166253864,0.005
09:47:15,-0.93628621,1.06185806,-1.360526555,0.5905665,0.45834223,0.329628335,31.615120395,-24.697091445,-25.581033265,-90.734551975,-1.6698892067,1.0676406345,1.4180490315,0.623114079985,0.49079050645,-0.01530935784,0.005
09:47:15,-0.93046632,1.0648375200000002,-1.35797306,0.586662,0.45705316,0.32842982,31.62784834,-24.72763794,-25.54809938,-90.8092567,-1.6639388164,1.070901874,1.417198598,0.61950757362,0.4892340034,-0.01399332928,0.005
09:47:15,-0.92464643,1.06781698,-1.355419565,0.5827574999999999,0.45576409,0.327231305,31.640576285,-24.758184435,-25.515165495,-90.883961425,-1.6579884261,1.0741631135,1.4163481645,0.615901067255,0.48767750035,-0.01267730072,0.005
09:47:15,-0.91882654,1.07079644,-1.35286607,0.578853,0.45447502,0.32603279,31.65330423,-24.78873093,-25.48223161,-90.95866615,-1.6520380358,1.077424353,1.415497731,0.61229456089,0.4861209973,-0.01136127216,0.005
09:47:15,-0.91300665,1.0737759,-1.350312575,0.5749485,0.45318595,0.324834275,31.666032175,-24.819277425000003,-25.449297725,-91.033370875,-1.6460876455,1.0806855925,1.4146472975,0.608688054525,0.48456449425,-0.0100452436,0.005
09:47:15,-0.90718676,1.0767553600000002,-1.34775908,0.571044,0.45189688,0.32363576,31.67876012,-24.84982392,-25.41636384,-91.1080756,-1.6401372552,1.083946832,1.413796864,0.60508154816,0.4830079912,-0.00872921504,0.005
09:47:15,-0.90136687,1.07973482,-1.345205585,0.5671395,0.45060781,0.322437245,31.691488065,-24.880370415,-25.383429955,-91.182780325,-1.6341868649,1.0872080715,1.4129464305,0.601475041795,0.48145148815,-0.00741318648,0.005
09:47:15,-0.89554698,1.08271428,-1.34265209,0.5632349999999999,0.44931874,0.32123873,31.70421601,-24.91091691,-25.35049607,-91.25748505,-1.6282364746,1.090469311,1.412095997,0.59786853543,0.4798949851,-0.00609715792,0.005
09:47:15,-0.88972709,1.0856937400000002,-1.340098595,0.5593305,0.44802967,0.320040215,31.716943955,-24.941463405,-25.317562185,-91.332189775,-1.6222860843,1.0937305505,1.4112455635,0.594262029065,0.47833848205,-0.00478112936,0.005
09:47:15,-0.8839072,1.0886732,-1.3375451,0.555426,0.4467406,0.3188417,31.7296719,-24.9720099,-25.2846283,-91.4068945,-1.616335694,1.09699179,1.41039513,0.5906555227,0.476781979,-0.0034651008,0.005
09:47:15,-0.87808731,1.09165266,-1.334991605,0.5515215,0.44545153,0.317643185,31.742399845,-25.002556395000003,-25.251694415,-91.481599225,-1.6103853037,1.1002530295,1.4095446965,0.587049016335,0.47522547595,-0.00214907224,0.005
09:47:15,-0.87226742,1.09463212,-1.33243811,0.547617,0.44416246,0.31644467,31.75512779,-25.03310289,-25.21876053,-91.55630395,-1.6044349134,1.1035142690000002,1.408694263,0.58344250997,0.4736689729,-0.00083304368,0.005
09:47:15,-0.8664475300000001,1.09761158,-1.329884615,0.5437124999999999,0.44287339,0.315246155,31.767855735,-25.063649385,-25.185826645,-91.631008675,-1.5984845231,1.1067755085000002,1.4078438295,0.579836003605,0.47211246985,0.0004829848799999,0.005
09:47:15,-0.86062764,1.10059104,-1.32733112,0.539808,0.44158432,0.31404764,31.78058368,-25.09419588,-25.15289276,-91.7057134,-1.5925341328,1.1100367480000002,1.406993396,0.5762294972399999,0.4705559668,0.0017990134399999,0.005
09:47:15,-0.85480775,1.1035705,-1.3247776249999998,0.5359035,0.44029525,0.312849125,31.793311625,-25.124742375,-25.119958875,-91.780418125,-1.5865837425,1.1132979875000002,1.4061429625,0.572622990875,0.46899946375,0.0031150419999999,0.005
09:47:15,-0.84898786,1.1065499600000002,-1.32222413,0.531999,0.43900618,0.31165061,31.80603957,-25.15528887,-25.08702499,-91.85512285,-1.5806333522,1.116559227,1.405292529,0.56901648451,0.4674429607,0.00443107056,0.005
09:47:15,-0.84316797,1.10952942,-1.319670635,0.5280945,0.43771711,0.310452095,31.818767515,-25.185835365000003,-25.054091105,-91.929827575,-1.5746829619,1.1198204665,1.4044420955,0.565409978145,0.46588645765,0.0057470991199999,0.005
09:47:15,-0.83734808,1.11250888,-1.31711714,0.5241899999999999,0.43642804,0.30925358,31.83149546,-25.21638186,-25.02115722,-92.0045323,-1.5687325716,1.123081706,1.403591662,0.56180347178,0.4643299546,0.0070631276799999,0.005
09:47:15,-0.83152819,1.1154883400000002,-1.314563645,0.5202855,0.43513897,0.308055065,31.844223405,-25.246928355,-24.988223335,-92.079237025,-1.5627821813,1.1263429455,1.4027412285,0.558196965415,0.46277345155,0.0083791562399999,0.005
09:47:15,-0.8257083000000001,1.1184678,-1.31201015,0.516381,0.4338499,0.30685655,31.85695135,-25.27747485,-24.95528945,-92.15394175,-1.556831791,1.129604185,1.401890795,0.55459045905,0.4612169485,0.0096951847999999,0.005
09:47:15,-0.81988841,1.12144726,-1.309456655,0.5124765,0.43256083,0.305658035,31.869679295,-25.308021345,-24.922355565,-92.228646475,-1.5508814007,1.1328654245,1.4010403615,0.550983952685,0.45966044545,0.0110112133599999,0.005
09:47:15,-0.81406852,1.12442672,-1.30690316,0.508572,0.43127176,0.30445952,31.88240724,-25.33856784,-24.88942168,-92.3033512,-1.5449310104,1.136126664,1.400189928,0.54737744632,0.4581039424,0.0123272419199999,0.005
09:47:15,-0.80824863,1.12740618,-1.304349665,0.5046675,0.42998269,0.303261005,31.895135185,-25.369114335000003,-24.856487795,-92.378055925,-1.5389806201,1.1393879035,1.3993394945,0.543770939955,0.45654743935,0.0136432704799999,0.005
09:47:15,-0.8024287400000001,1.13038564,-1.30179617,0.500763,0.42869362,0.30206249,31.90786313,-25.39966083,-24.82355391,-92.45276065,-1.5330302298,1.142649143,1.398489061,0.54016443359,0.4549909363,0.0149592990399999,0.005
09:47:15,-0.79660885,1.1333651,-1.299242675,0.4968585,0.42740455,0.300863975,31.920591075,-25.430207325,-24.790620025,-92.527465375,-1.5270798395,1.1459103825,1.3976386275,0.5365579272250001,0.45343443325,0.0162753275999999,0.005
09:47:15,-0.79078896,1.1363445600000002,-1.29668918,0.492954,0.42611548,0.29966546,31.93331902,-25.46075382,-24.75768614,-92.6021701,-1.5211294492,1.149171622,1.396788194,0.53295142086,0.4518779302,0.0175913561599999,0.005
09:47:15,-0.78496907,1.13932402,-1.294135685,0.4890495,0.42482641,0.298466945,31.946046965,-25.491300315,-24.724752255,-92.676874825,-1.5151790589,1.1524328615,1.3959377605,0.529344914495,0.45032142715,0.0189073847199999,0.005
09:47:15,-0.77914918,1.14230348,-1.29158219,0.485145,0.42353734,0.29726843,31.95877491,-25.52184681,-24.69181837,-92.75157955,-1.5092286686,1.155694101,1.395087327,0.5257384081300001,0.4487649241,0.0202234132799999,0.005
09:47:15,-0.7733292900000001,1.14528294,-1.289028695,0.4812404999999999,0.42224827,0.296069915,31.971502855,-25.552393305,-24.658884485,-92.826284275,-1.5032782782999998,1.1589553405000002,1.3942368935,0.522131901765,0.44720842105,0.0215394418399999,0.005
09:47:15,-0.7675094,1.1482624,-1.2864752,0.477336,0.4209592,0.2948714,31.9842308,-25.5829398,-24.6259506,-92.900989,-1.497327888,1.1622165800000002,1.39338646,0.5185253954,0.445651918,0.0228554703999999,0.005
09:47:15,-0.7616895100000001,1.15124186,-1.283921705,0.4734315,0.41967013,0.293672885,31.996958745,-25.613486295,-24.593016715,-92.975693725,-1.4913774976999998,1.1654778195,1.3925360265,0.514918889035,0.44409541495,0.0241714989599999,0.005
09:47:15,-0.75586962,1.15422132,-1.28136821,0.469527,0.4183810599999999,0.29247437,32.00968669,-25.64403279,-24.56008283,-93.05039845,-1.4854271074,1.168739059,1.391685593,0.51131238267,0.4425389119,0.0254875275199999,0.005
09:47:15,-0.75004973,1.1572007800000002,-1.278814715,0.4656225,0.4170919899999999,0.291275855,32.022414635,-25.674579285,-24.527148945,-93.125103175,-1.4794767170999998,1.1720002985,1.3908351595,0.507705876305,0.44098240885,0.0268035560799999,0.005
09:47:15,-0.74422984,1.16018024,-1.27626122,0.4617179999999999,0.41580292,0.29007734,32.03514258,-25.705125780000003,-24.49421506,-93.1998079,-1.4735263268,1.175261538,1.389984726,0.50409936994,0.4394259058,0.0281195846399999,0.005
09:47:15,-0.7384099500000001,1.1631597,-1.273707725,0.4578135,0.41451385,0.288878825,32.047870525,-25.735672275,-24.461281175,-93.274512625,-1.4675759364999998,1.1785227775,1.3891342925,0.500492863575,0.43786940275,0.0294356131999999,0.005
09:47:15,-0.73259006,1.1661391600000002,-1.27115423,0.453909,0.41322478,0.28768031,32.06059847,-25.76621877,-24.42834729,-93.34921735,-1.4616255462,1.181784017,1.388283859,0.4968863572099999,0.4363128997,0.0307516417599999,0.005
09:47:15,-0.72677017,1.16911862,-1.268600735,0.4500045,0.41193571,0.286481795,32.073326415,-25.796765265,-24.395413405,-93.423922075,-1.4556751559,1.1850452565,1.3874334255,0.493279850845,0.43475639665,0.0320676703199999,0.005
09:47:15,-0.72095028,1.17209808,-1.26604724,0.4461,0.41064664,0.28528328,32.08605436,-25.82731176,-24.36247952,-93.4986268,-1.4497247656,1.188306496,1.386582992,0.48967334448,0.4331998936,0.0333836988799999,0.005
09:47:15,-0.71513039,1.1750775400000002,-1.263493745,0.4421954999999999,0.40935757,0.284084765,32.098782305,-25.857858255,-24.329545635,-93.573331525,-1.4437743753,1.1915677355,1.3857325585,0.486066838115,0.43164339055,0.0346997274399999,0.005
09:47:15,-0.7093105,1.178057,-1.26094025,0.438291,0.4080685,0.28288625,32.11151025,-25.88840475,-24.29661175,-93.64803625,-1.437823985,1.194828975,1.384882125,0.48246033175,0.4300868875,0.0360157559999999,0.005
09:47:15,-0.70349061,1.18103646,-1.258386755,0.4343865,0.40677943,0.281687735,32.124238195000004,-25.918951245,-24.263677865,-93.722740975,-1.4318735947,1.1980902145,1.3840316915,0.478853825385,0.42853038445,0.03733178456,0.005
09:47:15,-0.6976707200000001,1.18401592,-1.25583326,0.430482,0.40549036,0.28048922,32.13696614,-25.94949774,-24.23074398,-93.7974457,-1.4259232044,1.201351454,1.383181258,0.47524731902,0.4269738814,0.03864781312,0.005
09:47:15,-0.69185083,1.1869953800000002,-1.253279765,0.4265775,0.40420129,0.279290705,32.149694085,-25.980044235,-24.197810095,-93.872150425,-1.4199728141,1.2046126935,1.3823308245,0.471640812655,0.42541737835,0.0399638416799999,0.005
09:47:15,-0.68603094,1.18997484,-1.25072627,0.4226729999999999,0.40291222,0.27809219,32.16242203,-26.01059073,-24.16487621,-93.94685515,-1.4140224238,1.207873933,1.381480391,0.46803430629,0.4238608753,0.0412798702399999,0.005
09:47:15,-0.68021105,1.1929543,-1.248172775,0.4187685,0.40162315,0.276893675,32.175149975000004,-26.041137225,-24.131942325,-94.021559875,-1.4080720335,1.2111351725,1.3806299575,0.464427799925,0.42230437225,0.0425958987999999,0.005
09:47:15,-0.6743911600000001,1.19593376,-1.24561928,0.414864,0.40033408,0.27569516,32.18787792,-26.071683720000003,-24.09900844,-94.0962646,-1.4021216432,1.214396412,1.379779524,0.46082129356,0.4207478692,0.0439119273599999,0.005
09:47:15,-0.66857127,1.19891322,-1.243065785,0.4109595,0.39904501,0.274496645,32.200605865,-26.102230215,-24.066074555,-94.170969325,-1.3961712529,1.2176576515000002,1.3789290905,0.4572147871949999,0.41919136615,0.0452279559199999,0.005
09:47:15,-0.66275138,1.20189268,-1.24051229,0.407055,0.39775594,0.27329813,32.21333381,-26.13277671,-24.03314067,-94.24567405,-1.3902208626,1.2209188910000002,1.378078657,0.45360828083,0.4176348631,0.0465439844799999,0.005
09:47:15,-0.6569314900000001,1.20487214,-1.237958795,0.4031504999999999,0.39646687,0.272099615,32.226061755,-26.163323205,-24.000206785,-94.320378775,-1.3842704723,1.2241801305,1.3772282235,0.450001774465,0.41607836005,0.0478600130399999,0.005
09:47:15,-0.6511116,1.2078516,-1.2354053,0.399246,0.3951778,0.2709011,32.2387897,-26.1938697,-23.9672729,-94.3950835,-1.378320082,1.22744137,1.37637779,0.4463952680999999,0.414521857,0.0491760415999999,0.005
09:47:15,-0.64529171,1.21083106,-1.232851805,0.3953415,0.39388873,0.269702585,32.251517645,-26.224416195,-23.934339015,-94.469788225,-1.3723696917,1.2307026095,1.3755273565,0.442788761735,0.41296535395,0.0504920701599999,0.005
09:47:15,-0.63947182,1.21381052,-1.23029831,0.391437,0.39259966,0.26850407,32.26424559,-26.254962690000003,-23.90140513,-94.54449295,-1.3664193014,1.233963849,1.374676923,0.43918225537,0.4114088509,0.0518080987199999,0.005
09:47:15,-0.6336519300000001,1.2167899800000002,-1.227744815,0.3875325,0.39131059,0.267305555,32.276973535,-26.285509185,-23.868471245,-94.619197675,-1.3604689111,1.2372250885,1.3738264895,0.435575749005,0.40985234785,0.0531241272799999,0.005
09:47:15,-0.62783204,1.21976944,-1.22519132,0.3836279999999999,0.39002152,0.26610704,32.28970148,-26.31605568,-23.83553736,-94.6939024,-1.3545185208,1.240486328,1.372976056,0.43196924264,0.4082958448,0.0544401558399999,0.005
09:47:15,-0.62201215,1.2227489,-1.222637825,0.3797235,0.38873245,0.264908525,32.302429425,-26.346602175,-23.802603475,-94.768607125,-1.3485681305,1.2437475675,1.3721256225,0.428362736275,0.40673934175,0.0557561843999999,0.005
09:47:15,-0.61619226,1.2257283600000002,-1.22008433,0.375819,0.38744338,0.26371001,32.31515737,-26.37714867,-23.76966959,-94.84331185,-1.3426177402,1.247008807,1.371275189,0.42475622991,0.4051828387,0.0570722129599999,0.005
09:47:15,-0.6103723700000001,1.22870782,-1.217530835,0.3719145,0.38615431,0.262511495,32.327885315,-26.407695165,-23.736735705,-94.918016575,-1.3366673499,1.2502700465,1.3704247555,0.421149723545,0.40362633565,0.0583882415199999,0.005
09:47:15,-0.6045524800000001,1.23168728,-1.21497734,0.36801,0.38486524,0.26131298,32.34061326,-26.438241660000003,-23.70380182,-94.9927213,-1.3307169596,1.253531286,1.369574322,0.41754321718,0.4020698326,0.0597042700799999,0.005
09:47:15,-0.59873259,1.23466674,-1.212423845,0.3641055,0.38357617,0.260114465,32.353341205,-26.468788155,-23.670867935,-95.067426025,-1.3247665693,1.2567925255,1.3687238885,0.413936710815,0.40051332955,0.0610202986399999,0.005
09:47:15,-0.5929127000000001,1.2376462,-1.20987035,0.360201,0.3822871,0.25891595,32.36606915,-26.49933465,-23.63793405,-95.14213075,-1.318816179,1.260053765,1.367873455,0.41033020445,0.3989568265,0.0623363271999999,0.005
09:47:15,-0.58709281,1.24062566,-1.207316855,0.3562965,0.38099803,0.257717435,32.378797095,-26.529881145,-23.605000165,-95.216835475,-1.3128657887,1.2633150045,1.3670230215,0.406723698085,0.39740032345,0.0636523557599999,0.005
09:47:15,-0.58127292,1.24360512,-1.20476336,0.352392,0.37970896,0.25651892,32.39152504,-26.56042764,-23.57206628,-95.2915402,-1.3069153984,1.266576244,1.366172588,0.40311719172,0.3958438204,0.0649683843199999,0.005
09:47:15,-0.57545303,1.24658458,-1.202209865,0.3484875,0.37841989,0.255320405,32.404252985,-26.590974135,-23.539132395,-95.366244925,-1.3009650081,1.2698374835,1.3653221545,0.399510685355,0.39428731735,0.0662844128799999,0.005
09:47:15,-0.5696331400000001,1.24956404,-1.19965637,0.344583,0.37713082,0.25412189,32.41698093,-26.621520630000003,-23.50619851,-95.44094965,-1.2950146178,1.273098723,1.364471721,0.39590417899,0.3927308143,0.0676004414399999,0.005
09:47:15,-0.56381325,1.2525435,-1.197102875,0.3406785,0.37584175,0.252923375,32.429708875,-26.652067125,-23.473264625,-95.515654375,-1.2890642275,1.2763599625,1.3636212875,0.392297672625,0.39117431125,0.06891647,0.005
09:47:15,-0.55799336,1.25552296,-1.19454938,0.336774,0.3745526799999999,0.25172486,32.44243682,-26.68261362,-23.44033074,-95.5903591,-1.2831138372,1.279621202,1.362770854,0.38869116626,0.3896178082,0.0702324985599999,0.005
09:47:15,-0.55217347,1.25850242,-1.191995885,0.3328695,0.3732636099999999,0.250526345,32.455164765,-26.713160115,-23.407396855,-95.665063825,-1.2771634469,1.2828824415,1.3619204205,0.385084659895,0.38806130515,0.0715485271199999,0.005
09:47:15,-0.5463535800000001,1.26148188,-1.18944239,0.328965,0.3719745399999999,0.24932783,32.46789271,-26.74370661,-23.37446297,-95.73976855,-1.2712130566,1.286143681,1.361069987,0.38147815353,0.3865048021,0.0728645556799999,0.005
09:47:15,-0.5405336900000001,1.26446134,-1.186888895,0.3250605,0.37068547,0.248129315,32.480620655,-26.774253105,-23.341529085,-95.814473275,-1.2652626663,1.2894049205,1.3602195535,0.377871647165,0.38494829905,0.0741805842399999,0.005
09:47:15,-0.5347138,1.2674408,-1.1843354,0.321156,0.3693964,0.2469308,32.4933486,-26.804799600000003,-23.3085952,-95.889178,-1.259312276,1.29266616,1.35936912,0.3742651408,0.383391796,0.0754966127999999,0.005
09:47:15,-0.5288939100000001,1.27042026,-1.181781905,0.3172515,0.36810733,0.245732285,32.506076545,-26.835346095,-23.275661315,-95.963882725,-1.2533618857,1.2959273995,1.3585186865,0.370658634435,0.38183529295,0.0768126413599999,0.005
09:47:15,-0.52307402,1.27339972,-1.17922841,0.313347,0.36681826,0.2445337699999999,32.51880449,-26.86589259,-23.24272743,-96.03858745,-1.2474114954,1.299188639,1.357668253,0.36705212807,0.3802787899,0.0781286699199999,0.005
09:47:15,-0.51725413,1.2763791800000002,-1.176674915,0.3094425,0.36552919,0.243335255,32.531532435,-26.896439085,-23.209793545,-96.113292175,-1.2414611051,1.3024498785,1.3568178195,0.363445621705,0.37872228685,0.0794446984799999,0.005
09:47:15,-0.51143424,1.27935864,-1.17412142,0.305538,0.36424012,0.24213674,32.54426038,-26.92698558,-23.17685966,-96.1879969,-1.2355107148,1.305711118,1.355967386,0.35983911534,0.3771657838,0.08076072704,0.005
09:47:15,-0.5056143500000001,1.2823381,-1.171567925,0.3016335,0.36295105,0.240938225,32.556988325,-26.957532075000003,-23.143925775,-96.262701625,-1.2295603245,1.3089723575,1.3551169525,0.356232608975,0.37560928075,0.0820767555999999,0.005
09:47:15,-0.49979446,1.28531756,-1.16901443,0.297729,0.36166198,0.23973971,32.56971627,-26.988078570000003,-23.11099189,-96.33740635,-1.2236099342,1.312233597,1.354266519,0.35262610261,0.3740527777,0.0833927841599999,0.005
09:47:15,-0.49397457,1.28829702,-1.166460935,0.2938245,0.36037291,0.2385411949999999,32.582444215,-27.018625065,-23.078058005,-96.412111075,-1.2176595439,1.3154948365,1.3534160855,0.349019596245,0.37249627465,0.0847088127199999,0.005
09:47:15,-0.48815468,1.29127648,-1.16390744,0.28992,0.35908384,0.23734268,32.59517216,-27.04917156,-23.04512412,-96.4868158,-1.2117091536,1.318756076,1.352565652,0.34541308988,0.3709397716,0.0860248412799999,0.005
09:47:15,-0.48233479,1.29425594,-1.161353945,0.2860155,0.35779477,0.236144165,32.607900105,-27.079718055,-23.012190235,-96.561520525,-1.2057587633,1.3220173155,1.3517152185,0.341806583515,0.36938326855,0.0873408698399999,0.005
09:47:15,-0.4765149000000001,1.2972354,-1.15880045,0.282111,0.3565057,0.23494565,32.62062805,-27.11026455,-22.97925635,-96.63622525,-1.199808373,1.325278555,1.350864785,0.33820007715,0.3678267655,0.0886568983999999,0.005
09:47:15,-0.47069501,1.30021486,-1.156246955,0.2782065,0.35521663,0.233747135,32.633355995,-27.140811045,-22.946322465,-96.710929975,-1.1938579827,1.3285397945,1.3500143515,0.334593570785,0.36627026245,0.0899729269599999,0.005
09:47:15,-0.4648751200000001,1.30319432,-1.15369346,0.274302,0.35392756,0.2325486199999999,32.64608394,-27.17135754,-22.91338858,-96.7856347,-1.1879075924,1.3318010340000002,1.349163918,0.33098706442,0.3647137594,0.0912889555199999,0.005
09:47:15,-0.45905523,1.30617378,-1.151139965,0.2703975,0.35263849,0.231350105,32.658811885,-27.201904035,-22.880454695,-96.860339425,-1.1819572021,1.3350622735,1.3483134845,0.327380558055,0.36315725635,0.0926049840799999,0.005
09:47:15,-0.4532353400000001,1.30915324,-1.14858647,0.266493,0.35134942,0.23015159,32.67153983,-27.23245053,-22.84752081,-96.93504415,-1.1760068118,1.338323513,1.347463051,0.32377405169,0.3616007533,0.0939210126399999,0.005
09:47:15,-0.44741545,1.3121327,-1.146032975,0.2625885,0.35006035,0.228953075,32.684267775,-27.262997025,-22.814586925,-97.009748875,-1.1700564215,1.3415847525,1.3466126175,0.320167545325,0.36004425025,0.0952370412,0.005
09:47:15,-0.4415955600000001,1.31511216,-1.14347948,0.258684,0.34877128,0.22775456,32.69699572,-27.29354352,-22.78165304,-97.0844536,-1.1641060312,1.344845992,1.345762184,0.31656103896,0.3584877472,0.0965530697599999,0.005
09:47:15,-0.43577567,1.31809162,-1.140925985,0.2547795,0.34748221,0.2265560449999999,32.709723665,-27.324090015000003,-22.748719155,-97.159158325,-1.1581556409,1.3481072315,1.3449117505,0.312954532595,0.35693124415,0.0978690983199999,0.005
09:47:15,-0.42995578,1.32107108,-1.13837249,0.250875,0.34619314,0.22535753,32.72245161,-27.35463651,-22.71578527,-97.23386305,-1.1522052506,1.351368471,1.344061317,0.30934802623,0.3553747411,0.0991851268799999,0.005
09:47:15,-0.42413589,1.32405054,-1.135818995,0.2469705,0.34490407,0.224159015,32.735179555,-27.385183005,-22.682851385,-97.308567775,-1.1462548603,1.3546297105,1.3432108835,0.305741519865,0.35381823805,0.1005011554399999,0.005
09:47:15,-0.418316,1.3270300000000002,-1.1332655,0.243066,0.343615,0.2229605,32.7479075,-27.4157295,-22.6499175,-97.3832725,-1.14030447,1.35789095,1.34236045,0.3021350135,0.352261735,0.1018171839999999,0.005
09:47:15,-0.4124961100000001,1.33000946,-1.130712005,0.2391615,0.34232593,0.221761985,32.760635445,-27.446275995,-22.616983615,-97.457977225,-1.1343540797,1.3611521895,1.3415100165,0.298528507135,0.35070523195,0.1031332125599999,0.005
09:47:15,-0.40667622,1.33298892,-1.12815851,0.235257,0.34103686,0.2205634699999999,32.77336339,-27.47682249,-22.58404973,-97.53268195,-1.1284036894,1.364413429,1.340659583,0.29492200077,0.3491487289,0.10444924112,0.005
09:47:15,-0.4008563300000001,1.3359683800000002,-1.125605015,0.2313525,0.33974779,0.219364955,32.786091335,-27.507368985,-22.551115845,-97.607386675,-1.1224532991,1.3676746685,1.3398091495,0.291315494405,0.34759222585,0.1057652696799999,0.005
09:47:15,-0.39503644,1.33894784,-1.12305152,0.227448,0.33845872,0.21816644,32.798819280000004,-27.53791548,-22.51818196,-97.6820914,-1.1165029088,1.370935908,1.338958716,0.28770898804,0.3460357228,0.10708129824,0.005
09:47:15,-0.3892165500000001,1.3419273,-1.120498025,0.2235435,0.33716965,0.216967925,32.811547225,-27.568461975,-22.485248075,-97.756796125,-1.1105525185,1.3741971475,1.3381082825,0.284102481675,0.34447921975,0.1083973267999999,0.005
09:47:15,-0.38339666,1.34490676,-1.11794453,0.219639,0.33588058,0.21576941,32.82427517,-27.59900847,-22.45231419,-97.83150085,-1.1046021282,1.377458387,1.337257849,0.28049597531,0.3429227167,0.1097133553599999,0.005
09:47:15,-0.37757677,1.34788622,-1.115391035,0.2157345,0.33459151,0.214570895,32.837003115,-27.629554965,-22.419380305,-97.906205575,-1.0986517379,1.3807196265,1.3364074155,0.276889468945,0.34136621365,0.1110293839199999,0.005
09:47:15,-0.37175688,1.35086568,-1.11283754,0.21183,0.33330244,0.21337238,32.84973106,-27.66010146,-22.38644642,-97.9809103,-1.0927013475999998,1.383980866,1.335556982,0.27328296258,0.3398097106,0.1123454124799999,0.005
09:47:15,-0.36593699,1.35384514,-1.110284045,0.2079255,0.33201337,0.212173865,32.862459005,-27.690647955000003,-22.353512535,-98.055615025,-1.0867509573,1.3872421055,1.3347065485,0.2696764562149999,0.33825320755,0.1136614410399999,0.005
09:47:15,-0.3601171000000001,1.3568246,-1.10773055,0.204021,0.3307242999999999,0.21097535,32.87518695,-27.72119445,-22.32057865,-98.13031975,-1.0808005669999998,1.390503345,1.333856115,0.26606994985,0.3366967045,0.1149774695999999,0.005
09:47:15,-0.35429721,1.35980406,-1.105177055,0.2001165,0.3294352299999999,0.209776835,32.887914895,-27.751740945,-22.287644765,-98.205024475,-1.0748501767,1.3937645845,1.3330056815,0.262463443485,0.33514020145,0.11629349816,0.005
09:47:15,-0.3484773200000001,1.36278352,-1.10262356,0.196212,0.3281461599999999,0.20857832,32.90064284,-27.78228744,-22.25471088,-98.2797292,-1.0688997863999998,1.397025824,1.332155248,0.25885693712,0.3335836984,0.1176095267199999,0.005
09:47:15,-0.34265743,1.36576298,-1.100070065,0.1923075,0.3268570899999999,0.207379805,32.913370785,-27.812833935,-22.221776995,-98.354433925,-1.0629493961,1.4002870635,1.3313048145000002,0.255250430755,0.33202719535,0.1189255552799999,0.005
09:47:15,-0.3368375400000001,1.36874244,-1.09751657,0.188403,0.3255680199999999,0.20618129,32.92609873,-27.84338043,-22.18884311,-98.42913865,-1.0569990057999998,1.403548303,1.330454381,0.25164392439,0.3304706923,0.1202415838399999,0.005
09:47:15,-0.33101765,1.3717219,-1.094963075,0.1844985,0.3242789499999999,0.204982775,32.938826675,-27.873926925,-22.155909225,-98.503843375,-1.0510486155,1.4068095425,1.3296039475,0.248037418025,0.32891418925,0.1215576123999999,0.005
09:47:15,-0.3251977600000001,1.37470136,-1.09240958,0.180594,0.32298988,0.20378426,32.95155462,-27.90447342,-22.12297534,-98.5785481,-1.0450982251999998,1.410070782,1.328753514,0.2444309116599999,0.3273576862,0.1228736409599999,0.005
09:47:15,-0.31937787,1.37768082,-1.089856085,0.1766895,0.32170081,0.202585745,32.964282565,-27.935019915,-22.090041455,-98.653252825,-1.0391478349,1.4133320215,1.3279030805,0.240824405295,0.32580118315,0.1241896695199999,0.005
09:47:15,-0.31355798,1.38066028,-1.08730259,0.172785,0.32041174,0.20138723,32.97701051,-27.96556641,-22.05710757,-98.72795755,-1.0331974445999998,1.416593261,1.327052647,0.23721789893,0.3242446801,0.12550569808,0.005
09:47:15,-0.3077380900000001,1.38363974,-1.084749095,0.1688805,0.31912267,0.200188715,32.989738455,-27.996112905,-22.024173685,-98.802662275,-1.0272470543,1.4198545005,1.3262022135,0.233611392565,0.32268817705,0.1268217266399999,0.005
09:47:15,-0.3019182,1.3866192000000002,-1.0821956,0.164976,0.3178336,0.1989902,33.0024664,-28.0266594,-21.9912398,-98.877367,-1.021296664,1.42311574,1.32535178,0.2300048861999999,0.321131674,0.1281377551999999,0.005
09:47:15,-0.2960983100000001,1.38959866,-1.079642105,0.1610715,0.31654453,0.197791685,33.015194345,-28.057205895000003,-21.958305915,-98.952071725,-1.0153462737,1.4263769795,1.3245013465,0.226398379835,0.31957517095,0.12945378376,0.005
09:47:15,-0.29027842,1.39257812,-1.07708861,0.157167,0.31525546,0.19659317,33.02792229,-28.08775239,-21.92537203,-99.02677645,-1.0093958834,1.429638219,1.323650913,0.22279187347,0.3180186679,0.1307698123199999,0.005
09:47:15,-0.2844585300000001,1.39555758,-1.074535115,0.1532625,0.31396639,0.195394655,33.040650235,-28.118298885,-21.892438145,-99.101481175,-1.0034454931,1.4328994585,1.3228004795,0.2191853671049999,0.31646216485,0.1320858408799999,0.005
09:47:15,-0.27863864,1.39853704,-1.07198162,0.149358,0.31267732,0.19419614,33.05337818,-28.14884538,-21.85950426,-99.1761859,-0.9974951028,1.436160698,1.321950046,0.21557886074,0.3149056618,0.13340186944,0.005
09:47:15,-0.2728187500000001,1.4015165,-1.069428125,0.1454535,0.31138825,0.192997625,33.066106125,-28.179391875,-21.826570375,-99.250890625,-0.9915447125,1.4394219375,1.3210996125,0.211972354375,0.31334915875,0.134717898,0.005
09:47:15,-0.26699886,1.40449596,-1.06687463,0.141549,0.31009918,0.19179911,33.07883407,-28.20993837,-21.79363649,-99.32559535,-0.9855943222,1.442683177,1.3202491790000002,0.20836584801,0.3117926557,0.1360339265599999,0.005
09:47:15,-0.2611789700000001,1.40747542,-1.064321135,0.1376445,0.30881011,0.190600595,33.091562015,-28.240484865000003,-21.760702605,-99.400300075,-0.9796439319,1.4459444165,1.3193987455,0.2047593416449999,0.31023615265,0.1373499551199999,0.005
09:47:15,-0.25535908,1.41045488,-1.06176764,0.13374,0.30752104,0.18940208,33.10428996,-28.27103136,-21.72776872,-99.4750048,-0.9736935416,1.449205656,1.318548312,0.20115283528,0.3086796496,0.13866598368,0.005
09:47:15,-0.24953919,1.41343434,-1.059214145,0.1298355,0.30623197,0.188203565,33.117017905,-28.301577855,-21.694834835,-99.549709525,-0.9677431513,1.4524668955,1.3176978785,0.197546328915,0.30712314655,0.1399820122399999,0.005
09:47:15,-0.2437193,1.4164138,-1.05666065,0.125931,0.3049429,0.18700505,33.12974585,-28.33212435,-21.66190095,-99.62441425,-0.961792761,1.455728135,1.316847445,0.1939398225499999,0.3055666435,0.1412980407999999,0.005
09:47:15,-0.23789941,1.41939326,-1.054107155,0.1220265,0.30365383,0.185806535,33.142473795,-28.362670845,-21.628967065,-99.699118975,-0.9558423707,1.4589893745,1.3159970115,0.190333316185,0.30401014045,0.1426140693599999,0.005
09:47:15,-0.2320795200000001,1.42237272,-1.05155366,0.118122,0.30236476,0.18460802,33.15520174,-28.39321734,-21.59603318,-99.7738237,-0.9498919804,1.462250614,1.315146578,0.18672680982,0.3024536374,0.14393009792,0.005
09:47:15,-0.22625963,1.42535218,-1.049000165,0.1142175,0.30107569,0.183409505,33.167929685,-28.423763835000003,-21.563099295,-99.848528425,-0.9439415901,1.4655118535,1.3142961445,0.183120303455,0.30089713435,0.1452461264799999,0.005
09:47:15,-0.2204397400000001,1.42833164,-1.04644667,0.110313,0.29978662,0.18221099,33.18065763,-28.45431033,-21.53016541,-99.92323315,-0.9379911998,1.468773093,1.313445711,0.1795137970899999,0.2993406313,0.1465621550399999,0.005
09:47:15,-0.21461985,1.4313111,-1.043893175,0.1064085,0.29849755,0.181012475,33.193385575,-28.484856825,-21.497231525,-99.997937875,-0.9320408095,1.4720343325,1.3125952775,0.175907290725,0.29778412825,0.1478781836,0.005
09:47:15,-0.2087999600000001,1.43429056,-1.04133968,0.102504,0.29720848,0.17981396,33.20611352,-28.51540332,-21.46429764,-100.0726426,-0.9260904192,1.475295572,1.311744844,0.17230078436,0.2962276252,0.14919421216,0.005
09:47:15,-0.20298007,1.43727002,-1.038786185,0.0985995,0.29591941,0.178615445,33.218841465,-28.545949815,-21.431363755,-100.147347325,-0.9201400289,1.4785568115,1.3108944105,0.1686942779949999,0.29467112215,0.1505102407199999,0.005
09:47:15,-0.1971601800000001,1.44024948,-1.03623269,0.094695,0.29463034,0.17741693,33.23156941,-28.576496310000003,-21.39842987,-100.22205205,-0.9141896386,1.481818051,1.310043977,0.16508777163,0.2931146191,0.1518262692799999,0.005
09:47:15,-0.19134029,1.44322894,-1.033679195,0.0907905,0.29334127,0.176218415,33.244297355,-28.607042805,-21.365495985,-100.296756775,-0.9082392483,1.4850792905,1.3091935435000002,0.1614812652649999,0.29155811605,0.15314229784,0.005
09:47:15,-0.1855204,1.4462084,-1.0311257,0.086886,0.2920522,0.1750199,33.2570253,-28.6375893,-21.3325621,-100.3714615,-0.902288858,1.48834053,1.30834311,0.1578747589,0.290001613,0.1544583263999999,0.005
09:47:15,-0.1797005100000001,1.44918786,-1.028572205,0.0829815,0.29076313,0.173821385,33.269753245,-28.668135795,-21.299628215,-100.446166225,-0.8963384677,1.4916017695,1.3074926765,0.1542682525349999,0.28844510995,0.1557743549599999,0.005
09:47:15,-0.17388062,1.45216732,-1.02601871,0.079077,0.28947406,0.17262287,33.28248119,-28.69868229,-21.26669433,-100.52087095,-0.8903880774,1.494863009,1.306642243,0.1506617461699999,0.2868886069,0.15709038352,0.005
09:47:15,-0.1680607300000001,1.45514678,-1.023465215,0.0751725,0.28818499,0.171424355,33.295209135,-28.729228785,-21.233760445,-100.595575675,-0.8844376871,1.4981242485,1.3057918095,0.147055239805,0.28533210385,0.15840641208,0.005
09:47:15,-0.16224084,1.45812624,-1.02091172,0.071268,0.2868959199999999,0.17022584,33.30793708,-28.75977528,-21.20082656,-100.6702804,-0.8784872968,1.501385488,1.3049413760000002,0.1434487334399999,0.2837756008,0.1597224406399999,0.005
09:47:15,-0.1564209500000001,1.4611057,-1.018358225,0.0673635,0.2856068499999999,0.169027325,33.320665025,-28.790321775,-21.167892675,-100.744985125,-0.8725369065,1.5046467275,1.3040909425,0.139842227075,0.28221909775,0.1610384691999999,0.005
09:47:15,-0.15060106,1.46408516,-1.0158047300000002,0.063459,0.2843177799999999,0.16782881,33.33339297,-28.82086827,-21.13495879,-100.81968985,-0.8665865162,1.507907967,1.303240509,0.13623572071,0.2806625947,0.16235449776,0.005
09:47:15,-0.1447811700000001,1.46706462,-1.013251235,0.0595545,0.2830287099999999,0.166630295,33.346120915,-28.851414765,-21.102024905,-100.894394575,-0.8606361259,1.5111692065,1.3023900755,0.1326292143449999,0.27910609165,0.1636705263199999,0.005
09:47:15,-0.13896128,1.47004408,-1.01069774,0.05565,0.2817396399999999,0.16543178,33.35884886,-28.88196126,-21.06909102,-100.9690993,-0.8546857356,1.514430446,1.301539642,0.12902270798,0.2775495886,0.1649865548799999,0.005
09:47:15,-0.1331413900000001,1.47302354,-1.008144245,0.0517455,0.2804505699999999,0.164233265,33.371576805,-28.912507755,-21.036157135,-101.043804025,-0.8487353453,1.5176916855,1.3006892085,0.125416201615,0.27599308555,0.1663025834399999,0.005
09:47:15,-0.1273215000000001,1.476003,-1.00559075,0.047841,0.2791615,0.16303475,33.38430475,-28.943054250000003,-21.00322325,-101.11850875,-0.842784955,1.520952925,1.299838775,0.1218096952499999,0.2744365825,0.167618612,0.005
09:47:15,-0.12150161,1.47898246,-1.003037255,0.0439365,0.27787243,0.161836235,33.397032695,-28.973600745,-20.970289365,-101.193213475,-0.8368345647,1.5242141645,1.2989883415,0.118203188885,0.27288007945,0.1689346405599999,0.005
09:47:15,-0.1156817200000001,1.48196192,-1.00048376,0.040032,0.27658336,0.16063772,33.40976064,-29.00414724,-20.93735548,-101.2679182,-0.8308841744,1.527475404,1.2981379080000002,0.1145966825199999,0.2713235764,0.1702506691199999,0.005
09:47:15,-0.10986183,1.48494138,-0.997930265,0.0361275,0.27529429,0.159439205,33.422488585,-29.034693735,-20.904421595,-101.342622925,-0.8249337841,1.5307366435,1.2972874745,0.1109901761549999,0.26976707335,0.17156669768,0.005
09:47:15,-0.1040419400000001,1.48792084,-0.99537677,0.032223,0.27400522,0.15824069,33.43521653,-29.06524023,-20.87148771,-101.41732765,-0.8189833938,1.533997883,1.296437041,0.10738366979,0.2682105703,0.1728827262399999,0.005
09:47:15,-0.09822205,1.4909003,-0.992823275,0.0283185,0.27271615,0.157042175,33.447944475,-29.095786725,-20.838553825,-101.492032375,-0.8130330035,1.5372591225,1.2955866075,0.1037771634249999,0.26665406725,0.1741987547999999,0.005
09:47:15,-0.0924021600000001,1.49387976,-0.99026978,0.024414,0.27142708,0.15584366,33.46067242,-29.12633322,-20.80561994,-101.5667371,-0.8070826132,1.540520362,1.294736174,0.1001706570599999,0.2650975642,0.1755147833599999,0.005
09:47:15,-0.08658227,1.49685922,-0.987716285,0.0205095,0.27013801,0.154645145,33.473400365,-29.156879715,-20.772686055,-101.641441825,-0.8011322229,1.5437816015,1.2938857405000002,0.096564150695,0.26354106115,0.17683081192,0.005
09:47:15,-0.0807623800000001,1.49983868,-0.98516279,0.016605,0.26884894,0.15344663,33.48612831,-29.18742621,-20.73975217,-101.71614655,-0.7951818326,1.547042841,1.293035307,0.0929576443299999,0.2619845581,0.1781468404799999,0.005
09:47:15,-0.07494249,1.50281814,-0.982609295,0.0127005,0.26755987,0.152248115,33.498856255,-29.217972705,-20.706818285,-101.790851275,-0.7892314423,1.5503040805,1.2921848735,0.089351137965,0.26042805505,0.1794628690399999,0.005
09:47:15,-0.0691226,1.5057976,-0.9800558,0.008796,0.2662708,0.1510496,33.5115842,-29.2485192,-20.6738844,-101.865556,-0.783281052,1.55356532,1.29133444,0.0857446316,0.258871552,0.1807788976,0.005
09:47:15,-0.0633027100000001,1.50877706,-0.977502305,0.0048915,0.26498173,0.149851085,33.524312145,-29.279065695,-20.640950515,-101.940260725,-0.7773306617,1.5568265595000002,1.2904840065,0.0821381252349999,0.25731504895,0.1820949261599999,0.005
09:47:15,-0.05748282,1.51175652,-0.97494881,0.000987,0.26369266,0.14865257,33.53704009,-29.309612190000003,-20.60801663,-102.01496545,-0.7713802714,1.560087799,1.289633573,0.07853161887,0.2557585459,0.1834109547199999,0.005
09:47:15,-0.0516629300000001,1.51473598,-0.972395315,-0.0029174999999999,0.26240359,0.147454055,33.549768035,-29.340158685,-20.575082745,-102.089670175,-0.7654298811,1.5633490385,1.2887831395,0.074925112505,0.25420204285,0.1847269832799999,0.005
09:47:15,-0.04584304,1.51771544,-0.96984182,-0.0068219999999999,0.26111452,0.14625554,33.56249598,-29.37070518,-20.54214886,-102.1643749,-0.7594794908,1.566610278,1.287932706,0.0713186061399999,0.2526455398,0.18604301184,0.005
09:47:15,-0.0400231500000001,1.5206949,-0.967288325,-0.0107264999999999,0.25982545,0.145057025,33.575223925,-29.401251675,-20.509214975,-102.239079625,-0.7535291005,1.5698715175,1.2870822725000002,0.067712099775,0.25108903675,0.1873590403999999,0.005
09:47:15,-0.03420326,1.52367436,-0.96473483,-0.0146309999999999,0.25853638,0.14385851,33.58795187,-29.43179817,-20.47628109,-102.31378435,-0.7475787102,1.573132757,1.286231839,0.06410559341,0.2495325337,0.1886750689599999,0.005
09:47:15,-0.0283833700000001,1.52665382,-0.962181335,-0.0185354999999999,0.25724731,0.142659995,33.600679815,-29.462344665000003,-20.443347205,-102.388489075,-0.7416283199,1.5763939965,1.2853814055,0.0604990870449999,0.24797603065,0.1899910975199999,0.005
09:47:15,-0.02256348,1.52963328,-0.95962784,-0.0224399999999999,0.25595824,0.14146148,33.61340776,-29.49289116,-20.41041332,-102.4631938,-0.7356779296,1.579655236,1.284530972,0.05689258068,0.2464195276,0.19130712608,0.005
09:47:15,-0.0167435900000001,1.53261274,-0.957074345,-0.0263444999999999,0.25466917,0.140262965,33.626135705,-29.523437655,-20.377479435,-102.537898525,-0.7297275393,1.5829164755,1.2836805385,0.0532860743149999,0.24486302455,0.1926231546399999,0.005
09:47:15,-0.0109237,1.5355922,-0.95452085,-0.0302489999999999,0.2533801,0.13906445,33.63886365,-29.55398415,-20.34454555,-102.61260325,-0.723777149,1.5861777149999998,1.2828301050000002,0.0496795679499999,0.2433065215,0.1939391831999999,0.005
09:47:15,-0.00510381,1.53857166,-0.951967355,-0.0341534999999999,0.25209103,0.137865935,33.651591595,-29.584530645,-20.311611665,-102.687307975,-0.7178267587,1.5894389544999998,1.2819796715,0.046073061585,0.24175001845,0.19525521176,0.005
09:47:15,0.0007160799999998,1.5415511199999998,-0.94941386,-0.0380579999999999,0.25080196,0.13666742,33.66431954,-29.61507714,-20.27867778,-102.7620127,-0.7118763684,1.5927001939999998,1.281129238,0.0424665552199999,0.2401935154,0.1965712403199999,0.005
09:47:15,0.0065359699999998,1.54453058,-0.946860365,-0.0419624999999999,0.24951289,0.135468905,33.677047485,-29.645623635,-20.245743895,-102.836717425,-0.7059259781,1.5959614335,1.2802788045,0.0388600488549999,0.23863701235,0.1978872688799999,0.005
09:47:15,0.0123558599999999,1.54751004,-0.94430687,-0.0458669999999999,0.2482238199999999,0.13427039,33.68977543,-29.676170130000003,-20.21281001,-102.91142215,-0.6999755878,1.599222673,1.279428371,0.03525354249,0.2370805093,0.1992032974399999,0.005
09:47:15,0.0181757499999999,1.5504895,-0.941753375,-0.0497714999999999,0.24693475,0.133071875,33.702503375,-29.706716625,-20.179876125,-102.986126875,-0.6940251975,1.6024839125,1.2785779375000002,0.0316470361249999,0.23552400625,0.200519326,0.005
09:47:15,0.0239956399999998,1.55346896,-0.93919988,-0.0536759999999999,0.24564568,0.13187336,33.71523132,-29.73726312,-20.14694224,-103.0608316,-0.6880748072,1.605745152,1.277727504,0.02804052976,0.2339675032,0.2018353545599999,0.005
09:47:15,0.0298155299999998,1.55644842,-0.936646385,-0.0575804999999999,0.24435661,0.130674845,33.727959265,-29.767809615,-20.114008355,-103.135536325,-0.6821244169,1.6090063915,1.2768770705,0.024434023395,0.23241100015,0.2031513831199999,0.005
09:47:15,0.0356354199999999,1.55942788,-0.93409289,-0.0614849999999999,0.24306754,0.12947633,33.74068721,-29.79835611,-20.08107447,-103.21024105,-0.6761740266,1.612267631,1.2760266370000002,0.0208275170299999,0.2308544971,0.20446741168,0.005
09:47:15,0.0414553099999999,1.56240734,-0.931539395,-0.0653894999999999,0.24177847,0.128277815,33.753415155,-29.828902605000003,-20.048140585,-103.284945775,-0.6702236363,1.6155288705,1.2751762035,0.017221010665,0.22929799405,0.2057834402399999,0.005
09:47:15,0.0472751999999998,1.5653868,-0.9289859,-0.0692939999999999,0.2404894,0.1270793,33.7661431,-29.8594491,-20.0152067,-103.3596505,-0.664273246,1.61879011,1.27432577,0.0136145042999999,0.227741491,0.2070994687999999,0.005
09:47:15,0.0530950899999997,1.56836626,-0.926432405,-0.0731984999999999,0.23920033,0.125880785,33.778871045,-29.889995595,-19.982272815,-103.434355225,-0.6583228557,1.6220513495,1.2734753365,0.0100079979349999,0.22618498795,0.2084154973599999,0.005
09:47:15,0.0589149799999999,1.57134572,-0.92387891,-0.0771029999999999,0.2379112599999999,0.12468227,33.79159899,-29.92054209,-19.94933893,-103.50905995,-0.6523724654,1.625312589,1.272624903,0.00640149157,0.2246284849,0.20973152592,0.005
09:47:15,0.0647348699999998,1.57432518,-0.921325415,-0.0810074999999999,0.2366221899999999,0.123483755,33.804326935,-29.951088585,-19.916405045,-103.583764675,-0.6464220751,1.6285738285,1.2717744695000002,0.0027949852049999,0.22307198185,0.2110475544799999,0.005
09:47:15,0.0705547599999998,1.57730464,-0.91877192,-0.0849119999999999,0.23533312,0.1222852399999999,33.81705488,-29.98163508,-19.88347116,-103.6584694,-0.6404716848,1.631835068,1.270924036,-0.00081152116,0.2215154788,0.2123635830399999,0.005
09:47:15,0.0763746499999999,1.5802841,-0.916218425,-0.0888164999999999,0.23404405,0.121086725,33.829782825,-30.012181575,-19.850537275,-103.733174125,-0.6345212945,1.6350963075,1.2700736025,-0.0044180275249999,0.21995897575,0.2136796115999999,0.005
09:47:15,0.0821945399999999,1.58326356,-0.91366493,-0.0927209999999999,0.23275498,0.11988821,33.84251077,-30.042728070000003,-19.81760339,-103.80787885,-0.6285709042000001,1.638357547,1.269223169,-0.00802453389,0.2184024727,0.2149956401599999,0.005
09:47:15,0.0880144299999998,1.58624302,-0.911111435,-0.0966254999999999,0.23146591,0.118689695,33.855238715,-30.073274565,-19.784669505,-103.882583575,-0.6226205139000001,1.6416187865,1.2683727355,-0.011631040255,0.21684596965,0.2163116687199999,0.005
09:47:15,0.0938343199999998,1.58922248,-0.90855794,-0.1005299999999999,0.23017684,0.11749118,33.86796666,-30.10382106,-19.75173562,-103.9572883,-0.6166701236000001,1.644880026,1.2675223020000002,-0.0152375466199999,0.2152894666,0.2176276972799999,0.005
09:47:15,0.0996542099999999,1.5922019399999998,-0.906004445,-0.1044344999999999,0.22888777,0.1162926649999999,33.880694605,-30.134367555,-19.718801735,-104.031993025,-0.6107197333000001,1.6481412655,1.2666718685,-0.018844052985,0.21373296355,0.21894372584,0.005
09:47:15,0.1054740999999999,1.5951814,-0.90345095,-0.1083389999999999,0.2275987,0.11509415,33.89342255,-30.16491405,-19.68586785,-104.10669775,-0.6047693430000001,1.651402505,1.265821435,-0.0224505593499999,0.2121764605,0.2202597544,0.005
09:47:15,0.1112939899999998,1.59816086,-0.900897455,-0.1122434999999999,0.2263096299999999,0.113895635,33.906150495,-30.195460545000003,-19.652933965,-104.181402475,-0.5988189527000001,1.6546637445,1.2649710015000002,-0.0260570657149999,0.21061995745,0.2215757829599999,0.005
09:47:15,0.1171138799999997,1.6011403199999998,-0.89834396,-0.1161479999999999,0.2250205599999999,0.1126971199999999,33.91887844,-30.22600704,-19.62000008,-104.2561072,-0.5928685624000001,1.657924984,1.264120568,-0.02966357208,0.2090634544,0.2228918115199999,0.005
09:47:15,0.1229337699999999,1.60411978,-0.895790465,-0.1200524999999999,0.22373149,0.111498605,33.931606385,-30.256553535,-19.587066195,-104.330811925,-0.5869181721000001,1.6611862235,1.2632701345,-0.0332700784449999,0.20750695135,0.22420784008,0.005
09:47:15,0.1287536599999998,1.60709924,-0.89323697,-0.1239569999999999,0.2224424199999999,0.1103000899999999,33.94433433,-30.28710003,-19.55413231,-104.40551665,-0.5809677818000001,1.664447463,1.262419701,-0.03687658481,0.2059504483,0.2255238686399999,0.005
09:47:15,0.1345735499999998,1.6100787,-0.8906834750000001,-0.1278614999999999,0.2211533499999999,0.109101575,33.957062275,-30.317646525,-19.521198425,-104.480221375,-0.5750173915000001,1.6677087025,1.2615692675,-0.040483091175,0.20439394525,0.2268398971999999,0.005
09:47:15,0.1403934399999999,1.61305816,-0.8881299800000001,-0.1317659999999999,0.2198642799999999,0.10790306,33.96979022,-30.34819302,-19.48826454,-104.5549261,-0.5690670012000001,1.670969942,1.2607188340000002,-0.0440895975399999,0.2028374422,0.22815592576,0.005
09:47:15,0.1462133299999999,1.61603762,-0.8855764850000001,-0.1356704999999999,0.21857521,0.1067045449999999,33.982518165,-30.378739515,-19.455330655,-104.629630825,-0.5631166109000001,1.6742311815,1.2598684005,-0.047696103905,0.20128093915,0.22947195432,0.005
09:47:15,0.1520332199999998,1.61901708,-0.8830229900000001,-0.1395749999999999,0.21728614,0.10550603,33.99524611,-30.40928601,-19.42239677,-104.70433555,-0.5571662206000001,1.677492421,1.259017967,-0.05130261027,0.1997244361,0.2307879828799999,0.005
09:47:15,0.1578531099999998,1.62199654,-0.880469495,-0.1434794999999999,0.21599707,0.1043075149999999,34.007974055,-30.439832505,-19.389462885,-104.779040275,-0.5512158303000001,1.6807536605,1.2581675335,-0.0549091166349999,0.19816793305,0.2321040114399999,0.005
09:47:16,0.163673,1.624976,-0.877916,-0.147384,0.214708,0.103109,34.020702,-30.470379,-19.356529,-104.853745,-0.54526544,1.6840149,1.2573171,-0.058515623,0.19661143,0.23342004,0.005
09:47:16,0.1626681,1.622508275,-0.87116696,-0.1412529249999999,0.210771535,0.103034425,34.018849775,-30.473103115,-19.33761367,-104.87043735,-0.54073456715,1.681342694,1.254352012,-0.054309096635,0.19258796855,0.2263700488,0.005
09:47:16,0.1616632,1.62004055,-0.8644179200000001,-0.13512185,0.20683507,0.10295985,34.01699755,-30.47582723,-19.31869834,-104.8871297,-0.5362036943,1.678670488,1.2513869240000002,-0.05010257027,0.1885645071,0.2193200576,0.005
09:47:16,0.1606583,1.617572825,-0.8576688800000001,-0.1289907749999999,0.202898605,0.102885275,34.015145325,-30.478551345,-19.29978301,-104.90382205,-0.5316728214499999,1.675998282,1.248421836,-0.045896043905,0.18454104565,0.2122700664,0.005
09:47:16,0.1596534,1.6151051,-0.85091984,-0.1228596999999999,0.19896214,0.1028107,34.0132931,-30.481275460000003,-19.28086768,-104.9205144,-0.5271419486,1.673326076,1.245456748,-0.04168951754,0.1805175842,0.2052200752,0.005
09:47:16,0.1586485,1.612637375,-0.8441708,-0.1167286249999999,0.195025675,0.102736125,34.011440875,-30.483999575,-19.26195235,-104.93720675,-0.52261107575,1.67065387,1.24249166,-0.037482991175,0.17649412275,0.198170084,0.005
09:47:16,0.1576436,1.61016965,-0.83742176,-0.1105975499999999,0.19108921,0.10266155,34.00958865,-30.48672369,-19.24303702,-104.9538991,-0.5180802029,1.667981664,1.2395265720000002,-0.03327646481,0.1724706613,0.1911200928,0.005
09:47:16,0.1566387,1.607701925,-0.83067272,-0.1044664749999999,0.187152745,0.102586975,34.007736425,-30.489447805,-19.22412169,-104.97059145,-0.51354933005,1.665309458,1.236561484,-0.029069938445,0.16844719985,0.1840701016,0.005
09:47:16,0.1556338,1.6052342,-0.82392368,-0.0983353999999999,0.18321628,0.1025124,34.0058842,-30.49217192,-19.20520636,-104.9872838,-0.5090184571999999,1.662637252,1.233596396,-0.02486341208,0.1644237384,0.1770201103999999,0.005
09:47:16,0.1546289,1.602766475,-0.8171746400000001,-0.0922043249999999,0.179279815,0.102437825,34.004031975,-30.494896035,-19.18629103,-105.00397615,-0.50448758435,1.659965046,1.230631308,-0.020656885715,0.16040027695,0.1699701192,0.005
09:47:16,0.153624,1.60029875,-0.8104256000000001,-0.0860732499999999,0.17534335,0.10236325,34.00217975,-30.49762015,-19.1673757,-105.0206685,-0.4999567115,1.65729284,1.22766622,-0.01645035935,0.1563768155,0.162920128,0.005
09:47:16,0.1526191,1.597831025,-0.80367656,-0.0799421749999999,0.171406885,0.102288675,34.000327525,-30.500344265000003,-19.14846037,-105.03736085,-0.49542583865,1.654620634,1.224701132,-0.012243832985,0.15235335405,0.1558701368,0.005
09:47:16,0.1516142,1.5953633,-0.79692752,-0.0738110999999999,0.16747042,0.1022141,33.9984753,-30.50306838,-19.12954504,-105.0540532,-0.4908949657999999,1.651948428,1.221736044,-0.00803730662,0.1483298926,0.1488201456,0.005
09:47:16,0.1506093,1.592895575,-0.79017848,-0.0676800249999999,0.163533955,0.102139525,33.996623075,-30.505792495,-19.11062971,-105.07074555,-0.48636409295,1.649276222,1.2187709560000002,-0.0038307802549999,0.14430643115,0.1417701544,0.005
09:47:16,0.1496044,1.59042785,-0.78342944,-0.0615489499999999,0.15959749,0.10206495,33.99477085,-30.50851661,-19.09171438,-105.0874379,-0.4818332200999999,1.646604016,1.215805868,0.0003757461099999,0.1402829697,0.1347201632,0.005
09:47:16,0.1485995,1.587960125,-0.7766804,-0.0554178749999999,0.155661025,0.101990375,33.992918625,-30.511240725,-19.07279905,-105.10413025,-0.47730234725,1.64393181,1.21284078,0.0045822724749999,0.13625950825,0.127670172,0.005
09:47:16,0.1475946,1.5854924,-0.7699313600000001,-0.0492867999999999,0.15172456,0.1019158,33.9910664,-30.51396484,-19.05388372,-105.1208226,-0.4727714744,1.641259604,1.209875692,0.00878879884,0.1322360468,0.1206201808,0.005
09:47:16,0.1465897,1.583024675,-0.7631823200000001,-0.0431557249999999,0.147788095,0.101841225,33.989214175,-30.516688955,-19.03496839,-105.13751495,-0.4682406015499999,1.638587398,1.2069106040000002,0.012995325205,0.12821258535,0.1135701896,0.005
09:47:16,0.1455848,1.58055695,-0.75643328,-0.0370246499999999,0.14385163,0.10176665,33.98736195,-30.51941307,-19.01605306,-105.1542073,-0.4637097287,1.635915192,1.203945516,0.0172018515699999,0.1241891239,0.1065201984,0.005
09:47:16,0.1445799,1.578089225,-0.74968424,-0.0308935749999999,0.139915165,0.101692075,33.985509725,-30.522137185,-18.99713773,-105.17089965,-0.4591788558499999,1.633242986,1.200980428,0.021408377935,0.12016566245,0.0994702072,0.005
09:47:16,0.143575,1.5756215,-0.7429352,-0.0247624999999999,0.1359787,0.1016175,33.9836575,-30.5248613,-18.9782224,-105.187592,-0.454647983,1.63057078,1.19801534,0.0256149043,0.116142201,0.092420216,0.005
09:47:16,0.1425701,1.573153775,-0.73618616,-0.0186314249999999,0.132042235,0.101542925,33.981805275,-30.527585415,-18.95930707,-105.20428435,-0.45011711015,1.627898574,1.195050252,0.0298214306649999,0.11211873955,0.0853702248,0.005
09:47:16,0.1415652,1.57068605,-0.72943712,-0.0125003499999999,0.12810577,0.10146835,33.97995305,-30.53030953,-18.94039174,-105.2209767,-0.4455862373,1.625226368,1.192085164,0.03402795703,0.1080952781,0.0783202336,0.005
09:47:16,0.1405603,1.568218325,-0.7226880800000001,-0.0063692749999999,0.124169305,0.101393775,33.978100825,-30.533033645,-18.92147641,-105.23766905,-0.44105536445,1.622554162,1.189120076,0.038234483395,0.10407181665,0.0712702424,0.005
09:47:16,0.1395554,1.5657506,-0.7159390400000001,-0.0002381999999999,0.12023284,0.1013192,33.9762486,-30.53575776,-18.90256108,-105.2543614,-0.4365244915999999,1.619881956,1.1861549880000002,0.0424410097599999,0.1000483552,0.0642202512,0.005
09:47:16,0.1385505,1.563282875,-0.70919,0.005892875,0.116296375,0.101244625,33.974396375,-30.538481875,-18.88364575,-105.27105375,-0.43199361875,1.61720975,1.1831899,0.046647536125,0.09602489375,0.05717026,0.005
09:47:16,0.1375456,1.56081515,-0.70244096,0.01202395,0.11235991,0.10117005,33.97254415,-30.54120599,-18.86473042,-105.2877461,-0.4274627459,1.614537544,1.180224812,0.05085406249,0.0920014323,0.0501202688,0.005
09:47:16,0.1365407,1.558347425,-0.69569192,0.018155025,0.108423445,0.101095475,33.970691925,-30.543930105,-18.84581509,-105.30443845,-0.42293187305,1.611865338,1.177259724,0.055060588855,0.08797797085,0.0430702776,0.005
09:47:16,0.1355358,1.5558797,-0.68894288,0.0242861,0.10448698,0.1010209,33.968839700000004,-30.54665422,-18.82689976,-105.3211308,-0.4184010002,1.609193132,1.1742946360000002,0.05926711522,0.0839545094,0.0360202864,0.005
09:47:16,0.1345309,1.553411975,-0.68219384,0.030417175,0.100550515,0.100946325,33.966987475,-30.549378335,-18.80798443,-105.33782315,-0.4138701273499999,1.606520926,1.171329548,0.063473641585,0.07993104795,0.0289702952,0.005
09:47:16,0.133526,1.55094425,-0.6754448000000001,0.03654825,0.09661405,0.10087175,33.96513525,-30.55210245,-18.7890691,-105.3545155,-0.4093392544999999,1.60384872,1.16836446,0.06768016795,0.0759075865,0.021920304,0.005
09:47:16,0.1325211,1.548476525,-0.6686957600000001,0.042679325,0.092677585,0.100797175,33.963283025,-30.554826565,-18.77015377,-105.37120785,-0.40480838165,1.601176514,1.165399372,0.071886694315,0.07188412505,0.0148703128,0.005
09:47:16,0.1315162,1.5460088,-0.66194672,0.0488104,0.08874112,0.1007226,33.9614308,-30.55755068,-18.75123844,-105.3879002,-0.4002775088,1.598504308,1.1624342840000002,0.07609322068,0.0678606636,0.0078203216,0.005
09:47:16,0.1305113,1.543541075,-0.65519768,0.054941475,0.084804655,0.100648025,33.959578575,-30.560274795,-18.73232311,-105.40459255,-0.39574663595,1.595832102,1.159469196,0.080299747045,0.06383720215,0.0007703304,0.005
09:47:16,0.1295064,1.54107335,-0.64844864,0.06107255,0.08086819,0.10057345,33.95772635,-30.56299891,-18.71340778,-105.4212849,-0.3912157630999999,1.593159896,1.156504108,0.08450627341,0.0598137407,-0.0062796607999999,0.005
09:47:16,0.1285015,1.538605625,-0.6416996,0.067203625,0.076931725,0.100498875,33.955874125,-30.565723025,-18.69449245,-105.43797725,-0.3866848902499999,1.59048769,1.15353902,0.088712799775,0.05579027925,-0.0133296519999999,0.005
09:47:16,0.1274966,1.5361379,-0.63495056,0.0733347,0.07299526,0.1004243,33.9540219,-30.56844714,-18.67557712,-105.4546696,-0.3821540174,1.587815484,1.150573932,0.09291932614,0.0517668178,-0.0203796431999999,0.005
09:47:16,0.1264917,1.533670175,-0.6282015200000001,0.079465775,0.069058795,0.100349725,33.952169675,-30.571171255,-18.65666179,-105.47136195,-0.37762314455,1.585143278,1.147608844,0.097125852505,0.04774335635,-0.0274296343999999,0.005
09:47:16,0.1254868,1.53120245,-0.6214524800000001,0.08559685,0.06512233,0.10027515,33.95031745,-30.57389537,-18.63774646,-105.4880543,-0.3730922717,1.582471072,1.144643756,0.10133237887,0.0437198949,-0.0344796256,0.005
09:47:16,0.1244819,1.528734725,-0.61470344,0.091727925,0.061185865,0.100200575,33.948465225,-30.576619485,-18.61883113,-105.50474665,-0.36856139885,1.579798866,1.141678668,0.105538905235,0.03969643345,-0.0415296168,0.005
09:47:16,0.123477,1.526267,-0.6079544000000001,0.097859,0.0572494,0.100126,33.946613,-30.5793436,-18.5999158,-105.521439,-0.3640305259999999,1.57712666,1.13871358,0.1097454316,0.035672972,-0.0485796079999999,0.005
09:47:16,0.1224721,1.523799275,-0.60120536,0.103990075,0.053312935,0.100051425,33.944760775,-30.582067715,-18.58100047,-105.53813135,-0.35949965315,1.574454454,1.135748492,0.113951957965,0.03164951055,-0.0556295991999999,0.005
09:47:16,0.1214672,1.52133155,-0.59445632,0.11012115,0.04937647,0.09997685,33.94290855,-30.58479183,-18.56208514,-105.5548237,-0.3549687803,1.571782248,1.132783404,0.11815848433,0.0276260491,-0.0626795903999999,0.005
09:47:16,0.1204623,1.518863825,-0.58770728,0.116252225,0.045440005,0.099902275,33.941056325,-30.587515945,-18.54316981,-105.57151605,-0.35043790745,1.569110042,1.1298183160000002,0.122365010695,0.02360258765,-0.0697295815999999,0.005
09:47:16,0.1194574,1.5163961,-0.5809582400000001,0.1223833,0.04150354,0.0998277,33.9392041,-30.59024006,-18.52425448,-105.5882084,-0.3459070346,1.566437836,1.126853228,0.12657153706,0.0195791262,-0.0767795727999999,0.005
09:47:16,0.1184525,1.513928375,-0.5742092000000001,0.128514375,0.037567075,0.099753125,33.937351875,-30.592964175,-18.50533915,-105.60490075,-0.3413761617499999,1.56376563,1.12388814,0.1307780634249999,0.01555566475,-0.0838295639999999,0.005
09:47:16,0.1174476,1.51146065,-0.56746016,0.13464545,0.03363061,0.09967855,33.935499650000004,-30.59568829,-18.48642382,-105.6215931,-0.3368452889,1.561093424,1.120923052,0.13498458979,0.0115322033,-0.0908795551999999,0.005
09:47:16,0.1164427,1.508992925,-0.5607111200000001,0.140776525,0.029694145,0.099603975,33.933647425000004,-30.598412405,-18.46750849,-105.63828545,-0.33231441605,1.558421218,1.117957964,0.139191116155,0.00750874185,-0.0979295463999999,0.005
09:47:16,0.1154378,1.5065252,-0.55396208,0.1469076,0.02575768,0.0995294,33.9317952,-30.60113652,-18.44859316,-105.6549778,-0.3277835431999999,1.555749012,1.114992876,0.1433976425199999,0.0034852804,-0.1049795375999999,0.005
09:47:16,0.1144329,1.504057475,-0.54721304,0.153038675,0.021821215,0.099454825,33.929942975,-30.603860635,-18.42967783,-105.67167015,-0.32325267035,1.553076806,1.112027788,0.147604168885,-0.0005381810499999,-0.1120295288,0.005
09:47:16,0.113428,1.50158975,-0.540464,0.15916975,0.01788475,0.09938025,33.92809075,-30.60658475,-18.4107625,-105.6883625,-0.3187217974999999,1.5504046,1.1090627,0.15181069525,-0.0045616424999999,-0.11907952,0.005
09:47:16,0.1124231,1.499122025,-0.5337149600000001,0.165300825,0.013948285,0.099305675,33.926238525,-30.609308865,-18.39184717,-105.70505485,-0.31419092465,1.547732394,1.106097612,0.156017221615,-0.0085851039499999,-0.1261295112,0.005
09:47:16,0.1114182,1.4966543,-0.5269659200000001,0.1714319,0.01001182,0.0992311,33.9243863,-30.61203298,-18.37293184,-105.7217472,-0.3096600518,1.545060188,1.103132524,0.16022374798,-0.0126085653999999,-0.1331795023999999,0.005
09:47:16,0.1104133,1.494186575,-0.52021688,0.177562975,0.006075355,0.099156525,33.922534075,-30.614757095,-18.35401651,-105.73843955,-0.30512917895,1.542387982,1.100167436,0.164430274345,-0.0166320268499999,-0.1402294935999999,0.005
09:47:16,0.1094084,1.49171885,-0.5134678400000001,0.18369405,0.00213889,0.09908195,33.92068185,-30.61748121,-18.33510118,-105.7551319,-0.3005983061,1.539715776,1.0972023480000002,0.16863680071,-0.0206554882999999,-0.1472794847999999,0.005
09:47:16,0.1084035,1.489251125,-0.5067188,0.189825125,-0.0017975749999999,0.099007375,33.918829625,-30.620205325,-18.31618585,-105.77182425,-0.2960674332499999,1.53704357,1.09423726,0.172843327075,-0.0246789497499999,-0.1543294759999999,0.005
09:47:16,0.1073986,1.4867834,-0.49996976,0.1959562,-0.0057340399999999,0.0989328,33.9169774,-30.62292944,-18.29727052,-105.7885166,-0.2915365604,1.534371364,1.091272172,0.17704985344,-0.0287024111999999,-0.1613794671999999,0.005
09:47:16,0.1063937,1.484315675,-0.49322072,0.202087275,-0.0096705049999999,0.098858225,33.915125175,-30.625653555,-18.27835519,-105.80520895,-0.28700568755,1.531699158,1.088307084,0.181256379805,-0.0327258726499999,-0.1684294583999999,0.005
09:47:16,0.1053888,1.48184795,-0.4864716800000001,0.20821835,-0.0136069699999999,0.09878365,33.91327295,-30.62837767,-18.25943986,-105.8219013,-0.2824748146999999,1.529026952,1.085341996,0.18546290617,-0.0367493340999999,-0.1754794495999999,0.005
09:47:16,0.1043839,1.479380225,-0.47972264,0.214349425,-0.0175434349999999,0.098709075,33.911420725,-30.631101785,-18.24052453,-105.83859365,-0.27794394185,1.526354746,1.082376908,0.189669432535,-0.0407727955499999,-0.1825294408,0.005
09:47:16,0.103379,1.4769125,-0.4729736,0.2204805,-0.0214798999999999,0.0986345,33.9095685,-30.6338259,-18.2216092,-105.855286,-0.273413069,1.52368254,1.07941182,0.1938759588999999,-0.0447962569999999,-0.189579432,0.005
09:47:16,0.1023741,1.474444775,-0.46622456,0.226611575,-0.0254163649999999,0.098559925,33.907716275,-30.636550015,-18.20269387,-105.87197835,-0.26888219615,1.521010334,1.076446732,0.198082485265,-0.0488197184499999,-0.1966294232,0.005
09:47:16,0.1013691999999999,1.47197705,-0.4594755200000001,0.23274265,-0.0293528299999999,0.09848535,33.90586405,-30.63927413,-18.18377854,-105.8886707,-0.2643513233,1.518338128,1.073481644,0.20228901163,-0.0528431798999999,-0.2036794143999999,0.005
09:47:16,0.1003643,1.469509325,-0.45272648,0.238873725,-0.0332892949999999,0.098410775,33.904011825,-30.641998245,-18.16486321,-105.90536305,-0.2598204504499999,1.515665922,1.070516556,0.2064955379949999,-0.05686664135,-0.2107294055999999,0.005
09:47:16,0.0993594,1.4670416,-0.44597744,0.2450048,-0.03722576,0.0983362,33.902159600000005,-30.64472236,-18.14594788,-105.9220554,-0.2552895776,1.512993716,1.067551468,0.21070206436,-0.0608901027999999,-0.2177793967999999,0.005
09:47:16,0.0983545,1.464573875,-0.4392284000000001,0.251135875,-0.041162225,0.098261625,33.900307375000004,-30.647446475,-18.12703255,-105.93874775,-0.25075870475,1.51032151,1.0645863800000002,0.214908590725,-0.0649135642499999,-0.2248293879999999,0.005
09:47:16,0.0973496,1.46210615,-0.43247936,0.2572669500000001,-0.04509869,0.09818705,33.898455150000004,-30.65017059,-18.10811722,-105.9554401,-0.2462278318999999,1.507649304,1.061621292,0.2191151170899999,-0.0689370256999999,-0.2318793791999999,0.005
09:47:16,0.0963447,1.459638425,-0.42573032,0.2633980250000001,-0.049035155,0.098112475,33.896602925,-30.652894705,-18.08920189,-105.97213245,-0.24169695905,1.504977098,1.058656204,0.223321643455,-0.07296048715,-0.2389293703999999,0.005
09:47:16,0.0953398,1.4571707,-0.41898128,0.2695291000000001,-0.05297162,0.0980379,33.8947507,-30.65561882,-18.07028656,-105.9888248,-0.2371660861999999,1.502304892,1.055691116,0.22752816982,-0.0769839485999999,-0.2459793615999999,0.005
09:47:16,0.0943349,1.454702975,-0.4122322400000001,0.275660175,-0.056908085,0.097963325,33.892898475,-30.658342935,-18.05137123,-106.00551715,-0.2326352133499999,1.499632686,1.052726028,0.2317346961849999,-0.0810074100499999,-0.2530293527999999,0.005
09:47:16,0.09333,1.45223525,-0.4054832,0.28179125,-0.06084455,0.09788875,33.89104625,-30.66106705,-18.0324559,-106.0222095,-0.2281043405,1.49696048,1.04976094,0.23594122255,-0.0850308714999999,-0.260079344,0.005
09:47:16,0.0923251,1.449767525,-0.39873416,0.287922325,-0.064781015,0.097814175,33.889194025,-30.663791165,-18.01354057,-106.03890185,-0.2235734676499999,1.494288274,1.046795852,0.240147748915,-0.08905433295,-0.2671293352,0.005
09:47:16,0.0913202,1.4472998,-0.3919851200000001,0.2940534,-0.06871748,0.0977396,33.8873418,-30.66651528,-17.994625239999998,-106.0555942,-0.2190425948,1.491616068,1.043830764,0.2443542752799999,-0.0930777944,-0.2741793263999999,0.005
09:47:16,0.0903153,1.444832075,-0.38523608,0.300184475,-0.072653945,0.097665025,33.885489575,-30.669239395,-17.97570991,-106.07228655,-0.2145117219499999,1.488943862,1.040865676,0.248560801645,-0.0971012558499999,-0.2812293176,0.005
09:47:16,0.0893104,1.44236435,-0.37848704,0.3063155500000001,-0.07659041,0.09759045,33.88363735,-30.67196351,-17.95679458,-106.0889789,-0.2099808490999999,1.486271656,1.037900588,0.25276732801,-0.1011247172999999,-0.2882793087999999,0.005
09:47:16,0.0883055,1.439896625,-0.371738,0.3124466250000001,-0.080526875,0.097515875,33.881785125,-30.674687625,-17.937879249999998,-106.10567125,-0.20544997625,1.48359945,1.0349355,0.256973854375,-0.1051481787499999,-0.2953292999999999,0.005
09:47:16,0.0873005999999999,1.4374289,-0.36498896,0.3185777000000001,-0.08446334,0.0974413,33.8799329,-30.67741174,-17.91896392,-106.1223636,-0.2009191033999999,1.480927244,1.0319704120000002,0.26118038074,-0.1091716402,-0.3023792912,0.005
09:47:16,0.0862957,1.434961175,-0.35823992,0.324708775,-0.088399805,0.097366725,33.878080675,-30.680135855,-17.900048589999997,-106.13905595,-0.19638823055,1.478255038,1.029005324,0.265386907105,-0.1131951016499999,-0.3094292823999999,0.005
09:47:16,0.0852908,1.43249345,-0.35149088,0.33083985,-0.09233627,0.09729215,33.87622845,-30.68285997,-17.88113326,-106.1557483,-0.1918573577,1.475582832,1.026040236,0.26959343347,-0.1172185630999999,-0.3164792736,0.005
09:47:16,0.0842859,1.430025725,-0.3447418400000001,0.336970925,-0.096272735,0.097217575,33.874376225,-30.685584085,-17.86221793,-106.17244065,-0.1873264848499999,1.472910626,1.023075148,0.273799959835,-0.1212420245499999,-0.3235292647999999,0.005
09:47:16,0.083281,1.427558,-0.3379928000000001,0.343102,-0.1002092,0.097143,33.872524,-30.6883082,-17.843302599999998,-106.189133,-0.182795612,1.47023842,1.02011006,0.2780064862,-0.125265486,-0.330579256,0.005
09:47:16,0.0822760999999999,1.425090275,-0.3312437600000001,0.3492330750000001,-0.104145665,0.097068425,33.870671775,-30.691032315,-17.82438727,-106.20582535,-0.1782647391499999,1.467566214,1.017144972,0.282213012565,-0.12928894745,-0.3376292471999999,0.005
09:47:16,0.0812712,1.42262255,-0.32449472,0.3553641500000001,-0.10808213,0.09699385,33.868819550000005,-30.69375643,-17.80547194,-106.2225177,-0.1737338662999999,1.464894008,1.014179884,0.28641953893,-0.1333124088999999,-0.3446792384,0.005
09:47:16,0.0802663,1.420154825,-0.31774568,0.3614952250000001,-0.112018595,0.096919275,33.866967325000005,-30.696480545,-17.786556609999998,-106.23921005,-0.16920299345,1.462221802,1.011214796,0.290626065295,-0.1373358703499999,-0.3517292295999999,0.005
09:47:16,0.0792614,1.4176871,-0.31099664,0.3676263000000001,-0.11595506,0.0968447,33.865115100000004,-30.69920466,-17.76764128,-106.2559024,-0.1646721205999999,1.459549596,1.008249708,0.29483259166,-0.1413593317999999,-0.3587792207999999,0.005
09:47:16,0.0782564999999999,1.415219375,-0.3042476,0.373757375,-0.119891525,0.096770125,33.863262875000004,-30.701928775,-17.74872595,-106.27259475,-0.16014124775,1.45687739,1.00528462,0.299039118025,-0.14538279325,-0.3658292119999999,0.005
09:47:16,0.0772515999999999,1.41275165,-0.2974985600000001,0.37988845,-0.12382799,0.09669555,33.86141065,-30.70465289,-17.72981062,-106.2892871,-0.1556103748999999,1.454205184,1.002319532,0.30324564439,-0.1494062547,-0.3728792031999999,0.005
09:47:16,0.0762467,1.410283925,-0.2907495200000001,0.3860195250000001,-0.127764455,0.096620975,33.859558425,-30.707377005,-17.71089529,-106.30597945,-0.1510795020499999,1.451532978,0.999354444,0.307452170755,-0.1534297161499999,-0.3799291944,0.005
09:47:16,0.0752418,1.4078162,-0.2840004800000001,0.3921506000000001,-0.13170092,0.0965464,33.8577062,-30.71010112,-17.691979959999998,-106.3226718,-0.1465486292,1.448860772,0.996389356,0.31165869712,-0.1574531775999999,-0.3869791855999999,0.005
09:47:16,0.0742369,1.405348475,-0.27725144,0.3982816750000001,-0.135637385,0.096471825,33.855853975,-30.712825235,-17.67306463,-106.33936415,-0.1420177563499999,1.446188566,0.993424268,0.315865223485,-0.1614766390499999,-0.3940291768,0.005
09:47:16,0.0732319999999999,1.40288075,-0.2705024,0.4044127500000001,-0.13957385,0.09639725,33.85400175,-30.71554935,-17.6541493,-106.3560565,-0.1374868835,1.4435163599999998,0.99045918,0.32007174985,-0.1655001005,-0.4010791679999999,0.005
09:47:16,0.0722270999999999,1.400413025,-0.26375336,0.4105438250000001,-0.143510315,0.096322675,33.852149525,-30.718273465,-17.635233969999998,-106.37274885,-0.1329560106499999,1.440844154,0.987494092,0.324278276215,-0.1695235619499999,-0.4081291592,0.005
09:47:16,0.0712222,1.3979453,-0.25700432,0.4166749,-0.14744678,0.0962481,33.8502973,-30.72099758,-17.61631864,-106.3894412,-0.1284251377999999,1.438171948,0.984529004,0.32848480258,-0.1735470233999999,-0.4151791503999999,0.005
09:47:16,0.0702173,1.395477575,-0.2502552800000001,0.422805975,-0.151383245,0.096173525,33.848445075,-30.723721695,-17.59740331,-106.40613355,-0.12389426495,1.435499742,0.981563916,0.332691328945,-0.1775704848499999,-0.4222291415999999,0.005
09:47:16,0.0692124,1.39300985,-0.2435062400000001,0.42893705,-0.15531971,0.09609895,33.84659285,-30.72644581,-17.57848798,-106.4228259,-0.1193633920999999,1.432827536,0.978598828,0.33689785531,-0.1815939463,-0.4292791327999999,0.005
09:47:16,0.0682074999999999,1.390542125,-0.2367572000000001,0.4350681250000001,-0.159256175,0.096024375,33.844740625,-30.729169925,-17.55957265,-106.43951825,-0.1148325192499999,1.4301553299999998,0.97563374,0.341104381675,-0.18561740775,-0.4363291239999999,0.005
09:47:16,0.0672026,1.3880744,-0.23000816,0.4411992000000001,-0.16319264,0.0959498,33.8428884,-30.73189404,-17.54065732,-106.4562106,-0.1103016463999999,1.427483124,0.972668652,0.34531090804,-0.1896408691999999,-0.4433791151999999,0.005
09:47:16,0.0661977,1.385606675,-0.22325912,0.4473302750000001,-0.167129105,0.095875225,33.841036175,-30.734618155,-17.52174199,-106.47290295,-0.1057707735499999,1.424810918,0.969703564,0.349517434405,-0.1936643306499999,-0.4504291063999999,0.005
09:47:16,0.0651928,1.38313895,-0.21651008,0.4534613500000001,-0.17106557,0.09580065,33.83918395,-30.73734227,-17.50282666,-106.4895953,-0.1012399007,1.422138712,0.966738476,0.35372396077,-0.1976877920999999,-0.4574790976,0.005
09:47:16,0.0641878999999999,1.380671225,-0.20976104,0.4595924250000001,-0.175002035,0.095726075,33.837331725,-30.740066385,-17.483911329999998,-106.50628765,-0.0967090278499999,1.419466506,0.963773388,0.357930487135,-0.20171125355,-0.4645290887999999,0.005
09:47:16,0.0631829999999999,1.3782035,-0.203012,0.4657235,-0.1789385,0.0956515,33.835479500000005,-30.7427905,-17.464996,-106.52298,-0.0921781549999999,1.4167942999999998,0.9608083,0.3621370135,-0.2057347149999999,-0.47157908,0.005
09:47:16,0.0621781,1.375735775,-0.1962629600000001,0.471854575,-0.182874965,0.095576925,33.833627275000005,-30.745514615,-17.44608067,-106.53967235,-0.08764728215,1.414122094,0.957843212,0.366343539865,-0.2097581764499999,-0.4786290711999999,0.005
09:47:16,0.0611732,1.37326805,-0.1895139200000001,0.4779856500000001,-0.18681143,0.09550235,33.831775050000005,-30.74823873,-17.42716534,-106.5563647,-0.0831164092999999,1.411449888,0.954878124,0.37055006623,-0.2137816378999999,-0.4856790624,0.005
09:47:16,0.0601682999999999,1.370800325,-0.1827648800000001,0.4841167250000001,-0.190747895,0.0954277749999999,33.829922825000004,-30.750962845,-17.40825001,-106.57305705,-0.07858553645,1.408777682,0.951913036,0.374756592595,-0.21780509935,-0.4927290535999999,0.005
09:47:16,0.0591633999999999,1.3683326,-0.17601584,0.4902478000000001,-0.19468436,0.0953532,33.828070600000004,-30.75368696,-17.389334679999997,-106.5897494,-0.0740546635999999,1.406105476,0.948947948,0.37896311896,-0.2218285608,-0.4997790447999999,0.005
09:47:16,0.0581584999999999,1.365864875,-0.1692668,0.4963788750000001,-0.198620825,0.095278625,33.826218375,-30.756411075,-17.37041935,-106.60644175,-0.0695237907499999,1.4034332699999998,0.94598286,0.383169645325,-0.2258520222499999,-0.5068290359999998,0.005
09:47:16,0.0571536,1.36339715,-0.16251776,0.5025099500000001,-0.20255729,0.09520405,33.82436615,-30.75913519,-17.35150402,-106.6231341,-0.0649929179,1.400761064,0.943017772,0.38737617169,-0.2298754836999999,-0.5138790272,0.005
09:47:16,0.0561486999999999,1.360929425,-0.15576872,0.5086410250000001,-0.206493755,0.095129475,33.822513925,-30.761859305,-17.332588689999998,-106.63982645,-0.0604620450499999,1.398088858,0.940052684,0.391582698055,-0.2338989451499999,-0.5209290183999999,0.005
09:47:16,0.0551437999999999,1.3584617,-0.1490196800000001,0.5147721000000001,-0.21043022,0.0950549,33.8206617,-30.76458342,-17.31367336,-106.6565188,-0.0559311721999999,1.395416652,0.937087596,0.39578922442,-0.2379224066,-0.5279790095999999,0.005
09:47:16,0.0541388999999999,1.355993975,-0.1422706400000001,0.520903175,-0.214366685,0.094980325,33.818809475,-30.767307535,-17.29475803,-106.67321115,-0.0514002993499999,1.392744446,0.934122508,0.399995750785,-0.2419458680499999,-0.5350290008,0.005
09:47:16,0.0531339999999999,1.35352625,-0.1355216000000001,0.5270342500000001,-0.21830315,0.09490575,33.81695725,-30.77003165,-17.2758427,-106.6899035,-0.0468694264999999,1.3900722399999998,0.93115742,0.40420227715,-0.2459693294999999,-0.542078992,0.005
09:47:16,0.0521291,1.351058525,-0.12877256,0.5331653250000001,-0.222239615,0.094831175,33.815105025,-30.772755765,-17.25692737,-106.70659585,-0.0423385536499999,1.387400034,0.928192332,0.408408803515,-0.2499927909499999,-0.5491289831999999,0.005
09:47:16,0.0511241999999999,1.3485908,-0.12202352,0.5392964000000001,-0.22617608,0.0947566,33.8132528,-30.77547988,-17.23801204,-106.7232882,-0.0378076807999999,1.384727828,0.925227244,0.41261532988,-0.2540162523999999,-0.5561789743999999,0.005
09:47:16,0.0501192999999999,1.346123075,-0.11527448,0.5454274750000001,-0.230112545,0.094682025,33.811400575,-30.778203995,-17.21909671,-106.73998055,-0.0332768079499999,1.382055622,0.922262156,0.416821856245,-0.25803971385,-0.5632289656,0.005
09:47:16,0.0491143999999999,1.34365535,-0.10852544,0.5515585500000001,-0.23404901,0.09460745,33.80954835,-30.78092811,-17.20018138,-106.7566729,-0.0287459351,1.379383416,0.919297068,0.42102838261,-0.2620631753,-0.5702789568,0.005
09:47:16,0.0481094999999999,1.341187625,-0.1017764000000001,0.5576896250000001,-0.237985475,0.094532875,33.807696125,-30.783652225,-17.181266049999998,-106.77336525,-0.02421506225,1.37671121,0.91633198,0.425234908975,-0.26608663675,-0.5773289479999999,0.005
09:47:16,0.0471045999999999,1.3387199,-0.0950273600000001,0.5638207000000001,-0.24192194,0.0944583,33.8058439,-30.78637634,-17.16235072,-106.7900576,-0.0196841893999999,1.374039004,0.913366892,0.42944143534,-0.2701100982,-0.5843789391999998,0.005
09:47:16,0.0460996999999999,1.336252175,-0.0882783200000001,0.5699517750000002,-0.245858405,0.094383725,33.803991675,-30.789100455,-17.14343539,-106.80674995,-0.0151533165499999,1.371366798,0.910401804,0.433647961705,-0.2741335596499999,-0.5914289304,0.005
09:47:16,0.0450947999999999,1.33378445,-0.08152928,0.5760828500000001,-0.24979487,0.09430915,33.80213945,-30.79182457,-17.12452006,-106.8234423,-0.0106224436999999,1.368694592,0.907436716,0.43785448807,-0.2781570210999999,-0.5984789215999999,0.005
09:47:16,0.0440898999999999,1.331316725,-0.07478024,0.5822139250000001,-0.253731335,0.094234575,33.800287225000005,-30.794548685,-17.10560473,-106.84013465,-0.00609157085,1.366022386,0.904471628,0.442061014435,-0.2821804825499999,-0.6055289127999999,0.005
09:47:16,0.0430849999999999,1.328849,-0.0680312,0.5883450000000001,-0.2576678,0.09416,33.798435000000005,-30.7972728,-17.0866894,-106.856827,-0.001560698,1.36335018,0.90150654,0.4462675408,-0.2862039439999999,-0.612578904,0.005
09:47:16,0.0420800999999999,1.326381275,-0.06128216,0.5944760750000001,-0.261604265,0.094085425,33.796582775000005,-30.799996915,-17.06777407,-106.87351935,0.00297017485,1.360677974,0.898541452,0.450474067165,-0.2902274054499999,-0.6196288952,0.005
09:47:16,0.0410751999999999,1.32391355,-0.0545331200000001,0.6006071500000001,-0.26554073,0.0940108499999999,33.794730550000004,-30.80272103,-17.04885874,-106.8902117,0.0075010477,1.358005768,0.8955763640000001,0.45468059353,-0.2942508669,-0.6266788863999999,0.005
09:47:16,0.0400702999999999,1.321445825,-0.0477840800000001,0.6067382250000001,-0.269477195,0.093936275,33.792878325000004,-30.805445145,-17.02994341,-106.90690405,0.01203192055,1.355333562,0.892611276,0.458887119895,-0.29827432835,-0.6337288775999999,0.005
09:47:16,0.0390653999999999,1.3189781,-0.0410350400000001,0.6128693000000001,-0.27341366,0.0938616999999999,33.7910261,-30.80816926,-17.01102808,-106.9235964,0.0165627933999999,1.352661356,0.8896461880000001,0.46309364626,-0.3022977898,-0.6407788688,0.005
09:47:16,0.0380605,1.316510375,-0.034286,0.6190003750000002,-0.277350125,0.093787125,33.789173875,-30.810893375,-16.99211275,-106.94028875,0.0210936662499999,1.34998915,0.8866811000000001,0.467300172625,-0.30632125125,-0.64782886,0.005
09:47:16,0.0370555999999999,1.31404265,-0.02753696,0.6251314500000001,-0.28128659,0.09371255,33.78732165,-30.81361749,-16.973197419999998,-106.9569811,0.0256245391,1.347316944,0.883716012,0.47150669899,-0.3103447126999999,-0.6548788511999999,0.005
09:47:16,0.0360506999999999,1.311574925,-0.02078792,0.6312625250000001,-0.285223055,0.093637975,33.785469425,-30.816341605,-16.95428209,-106.97367345,0.03015541195,1.344644738,0.880750924,0.475713225355,-0.3143681741499999,-0.6619288423999998,0.005
09:47:16,0.0350457999999999,1.3091072,-0.01403888,0.6373936000000001,-0.28915952,0.0935633999999999,33.7836172,-30.81906572,-16.93536676,-106.9903658,0.0346862848,1.341972532,0.877785836,0.47991975172,-0.3183916355999999,-0.6689788336,0.005
09:47:16,0.0340408999999999,1.306639475,-0.0072898400000001,0.6435246750000001,-0.293095985,0.093488825,33.781764975,-30.821789835,-16.91645143,-107.00705815,0.03921715765,1.339300326,0.8748207480000001,0.484126278085,-0.3224150970499999,-0.6760288247999999,0.005
09:47:16,0.0330359999999999,1.30417175,-0.0005408000000001,0.6496557500000001,-0.29703245,0.09341425,33.77991275,-30.82451395,-16.8975361,-107.0237505,0.0437480304999999,1.33662812,0.87185566,0.48833280445,-0.3264385584999999,-0.6830788159999999,0.005
09:47:16,0.0320310999999999,1.301704025,0.0062082399999998,0.6557868250000001,-0.300968915,0.093339675,33.778060525,-30.827238065,-16.878620769999998,-107.04044285,0.04827890335,1.333955914,0.868890572,0.492539330815,-0.3304620199499999,-0.6901288072,0.005
09:47:16,0.0310261999999999,1.2992363,0.0129572799999999,0.6619179000000002,-0.30490538,0.0932651,33.7762083,-30.82996218,-16.85970544,-107.0571352,0.0528097762,1.331283708,0.865925484,0.49674585718,-0.3344854813999999,-0.6971787984,0.005
09:47:16,0.0300213,1.296768575,0.0197063199999999,0.6680489750000002,-0.308841845,0.093190525,33.774356075,-30.832686295,-16.84079011,-107.07382755,0.05734064905,1.328611502,0.8629603960000001,0.500952383545,-0.33850894285,-0.7042287895999999,0.005
09:47:16,0.0290163999999999,1.29430085,0.0264553599999999,0.6741800500000001,-0.31277831,0.09311595,33.77250385,-30.83541041,-16.821874779999998,-107.0905199,0.0618715219,1.325939296,0.859995308,0.50515890991,-0.3425324043,-0.7112787807999998,0.005
09:47:16,0.0280114999999999,1.291833125,0.0332043999999999,0.6803111250000001,-0.316714775,0.093041375,33.770651625,-30.838134525,-16.80295945,-107.10721225,0.0664023947499999,1.32326709,0.8570302200000001,0.509365436275,-0.3465558657499999,-0.718328772,0.005
09:47:16,0.0270065999999999,1.2893654,0.0399534399999998,0.6864422000000001,-0.32065124,0.0929668,33.7687994,-30.84085864,-16.78404412,-107.1239046,0.0709332676,1.320594884,0.8540651320000001,0.51357196264,-0.3505793271999999,-0.7253787631999999,0.005
09:47:16,0.0260016999999999,1.286897675,0.0467024799999998,0.6925732750000001,-0.324587705,0.092892225,33.766947175000006,-30.843582755,-16.76512879,-107.14059695,0.07546414045,1.317922678,0.8511000440000001,0.517778489005,-0.3546027886499999,-0.7324287543999999,0.005
09:47:16,0.0249967999999999,1.28442995,0.0534515199999998,0.6987043500000001,-0.32852417,0.09281765,33.765094950000005,-30.84630687,-16.74621346,-107.1572893,0.0799950133,1.315250472,0.848134956,0.52198501537,-0.3586262500999999,-0.7394787455999998,0.005
09:47:16,0.0239918999999999,1.281962225,0.0602005599999999,0.7048354250000001,-0.332460635,0.092743075,33.763242725000005,-30.849030985,-16.72729813,-107.17398165,0.08452588615,1.312578266,0.845169868,0.526191541735,-0.3626497115499999,-0.7465287368,0.005
09:47:16,0.0229869999999999,1.2794945,0.0669495999999999,0.7109665000000002,-0.3363971,0.0926685,33.761390500000005,-30.8517551,-16.7083828,-107.190674,0.0890567589999999,1.30990606,0.8422047800000001,0.5303980681,-0.3666731729999999,-0.7535787279999999,0.005
09:47:16,0.0219820999999999,1.277026775,0.0736986399999999,0.7170975750000002,-0.340333565,0.092593925,33.759538275000004,-30.854479215,-16.68946747,-107.20736635,0.09358763185,1.307233854,0.839239692,0.534604594465,-0.3706966344499999,-0.7606287191999999,0.005
09:47:16,0.0209771999999999,1.27455905,0.0804476799999999,0.7232286500000001,-0.34427003,0.09251935,33.757686050000004,-30.85720333,-16.670552139999998,-107.2240587,0.0981185047,1.304561648,0.836274604,0.53881112083,-0.3747200959,-0.7676787104,0.005
09:47:16,0.0199723,1.272091325,0.0871967199999999,0.7293597250000001,-0.348206495,0.0924447749999999,33.755833825,-30.859927445,-16.65163681,-107.24075105,0.10264937755,1.301889442,0.833309516,0.543017647195,-0.37874355735,-0.7747287016,0.005
09:47:16,0.0189673999999999,1.2696236,0.0939457599999998,0.7354908000000001,-0.35214296,0.0923702,33.7539816,-30.86265156,-16.63272148,-107.2574434,0.1071802504,1.299217236,0.8303444280000001,0.54722417356,-0.3827670187999999,-0.7817786927999999,0.005
09:47:16,0.0179624999999999,1.267155875,0.1006947999999998,0.7416218750000001,-0.356079425,0.0922956249999999,33.752129375,-30.865375675,-16.61380615,-107.27413575,0.1117111232499999,1.29654503,0.82737934,0.551430699925,-0.3867904802499999,-0.7888286840000001,0.005
09:47:16,0.0169575999999999,1.26468815,0.1074438399999999,0.7477529500000001,-0.36001589,0.09222105,33.75027715,-30.86809979,-16.59489082,-107.2908281,0.1162419961,1.293872824,0.824414252,0.55563722629,-0.3908139416999999,-0.7958786752,0.005
09:47:16,0.0159526999999999,1.262220425,0.1141928799999999,0.7538840250000002,-0.363952355,0.0921464749999999,33.748424925,-30.870823905,-16.57597549,-107.30752045,0.12077286895,1.291200618,0.821449164,0.559843752655,-0.3948374031499999,-0.8029286663999999,0.005
09:47:16,0.0149477999999999,1.2597527,0.1209419199999999,0.7600151000000002,-0.36788882,0.0920719,33.7465727,-30.87354802,-16.55706016,-107.3242128,0.1253037418,1.288528412,0.8184840760000001,0.56405027902,-0.3988608645999999,-0.8099786575999999,0.005
09:47:16,0.0139428999999999,1.257284975,0.1276909599999999,0.7661461750000002,-0.371825285,0.0919973249999999,33.744720475,-30.876272135,-16.53814483,-107.34090515,0.12983461465,1.285856206,0.815518988,0.568256805385,-0.4028843260499999,-0.8170286488,0.005
09:47:16,0.0129379999999999,1.25481725,0.13444,0.7722772500000001,-0.37576175,0.09192275,33.74286825,-30.87899625,-16.5192295,-107.3575975,0.1343654875,1.283184,0.8125539,0.57246333175,-0.4069077874999999,-0.82407864,0.005
09:47:16,0.0119330999999999,1.252349525,0.1411890399999998,0.7784083250000001,-0.379698215,0.091848175,33.741016025,-30.881720365,-16.50031417,-107.37428985,0.1388963603499999,1.280511794,0.8095888120000001,0.576669858115,-0.41093124895,-0.8311286311999999,0.005
09:47:16,0.0109281999999999,1.2498818,0.1479380799999999,0.7845394000000001,-0.38363468,0.0917736,33.7391638,-30.88444448,-16.48139884,-107.3909822,0.1434272332,1.277839588,0.806623724,0.58087638448,-0.4149547104,-0.8381786224000001,0.005
09:47:16,0.0099232999999999,1.247414075,0.1546871199999998,0.7906704750000001,-0.387571145,0.0916990249999999,33.737311575,-30.887168595,-16.46248351,-107.40767455,0.14795810605,1.2751673819999998,0.803658636,0.585082910845,-0.4189781718499999,-0.8452286136,0.005
09:47:16,0.0089183999999999,1.24494635,0.1614361599999999,0.7968015500000001,-0.39150761,0.09162445,33.73545935,-30.88989271,-16.44356818,-107.4243669,0.1524889789,1.272495176,0.800693548,0.58928943721,-0.4230016332999999,-0.8522786048,0.005
09:47:16,0.0079134999999999,1.242478625,0.1681851999999998,0.8029326250000002,-0.395444075,0.091549875,33.733607125000006,-30.892616825,-16.42465285,-107.44105925,0.15701985175,1.26982297,0.7977284600000001,0.593495963575,-0.4270250947499999,-0.8593285959999999,0.005
09:47:16,0.0069085999999999,1.2400109,0.1749342399999999,0.8090637000000002,-0.39938054,0.0914753,33.731754900000006,-30.89534094,-16.40573752,-107.4577516,0.1615507245999999,1.267150764,0.794763372,0.59770248994,-0.4310485561999999,-0.8663785872,0.005
09:47:16,0.0059036999999999,1.237543175,0.18168328,0.8151947750000001,-0.403317005,0.091400725,33.729902675000005,-30.898065055,-16.38682219,-107.47444395,0.16608159745,1.264478558,0.791798284,0.601909016305,-0.4350720176499999,-0.8734285784,0.005
09:47:16,0.0048987999999999,1.23507545,0.1884323199999998,0.8213258500000001,-0.40725347,0.09132615,33.728050450000005,-30.90078917,-16.367906859999998,-107.4911363,0.1706124703,1.2618063519999998,0.788833196,0.60611554267,-0.4390954790999999,-0.8804785695999999,0.005
09:47:16,0.0038938999999999,1.232607725,0.1951813599999999,0.8274569250000001,-0.411189935,0.091251575,33.726198225000005,-30.903513285,-16.34899153,-107.50782865,0.17514334315,1.259134146,0.7858681080000001,0.610322069035,-0.4431189405499999,-0.8875285607999999,0.005
09:47:16,0.0028889999999999,1.23014,0.2019303999999998,0.8335880000000001,-0.4151264,0.091177,33.724346000000004,-30.9062374,-16.3300762,-107.524521,0.179674216,1.25646194,0.78290302,0.6145285954,-0.447142402,-0.894578552,0.005
09:47:16,0.0018840999999999,1.227672275,0.2086794399999999,0.8397190750000001,-0.419062865,0.091102425,33.722493775000004,-30.908961515,-16.31116087,-107.54121335,0.1842050888499999,1.253789734,0.7799379320000001,0.618735121765,-0.45116586345,-0.9016285432,0.005
09:47:16,0.0008791999999999,1.22520455,0.2154284799999998,0.8458501500000002,-0.42299933,0.09102785,33.72064155,-30.91168563,-16.29224554,-107.5579057,0.1887359617,1.251117528,0.7769728440000001,0.62294164813,-0.4551893248999999,-0.9086785344,0.005
09:47:16,-0.0001257,1.222736825,0.2221775199999999,0.8519812250000002,-0.426935795,0.090953275,33.718789325,-30.914409745,-16.27333021,-107.57459805,0.19326683455,1.2484453219999998,0.774007756,0.627148174495,-0.4592127863499999,-0.9157285256,0.005
09:47:16,-0.0011306,1.2202691,0.22892656,0.8581123000000002,-0.43087226,0.0908786999999999,33.7169371,-30.91713386,-16.25441488,-107.5912904,0.1977977074,1.2457731159999998,0.771042668,0.63135470086,-0.4632362477999999,-0.9227785168,0.005
09:47:16,-0.0021355,1.217801375,0.2356755999999998,0.864243375,-0.434808725,0.090804125,33.715084875,-30.919857975,-16.23549955,-107.60798275,0.20232858025,1.24310091,0.76807758,0.635561227225,-0.4672597092499999,-0.929828508,0.005
09:47:16,-0.0031404,1.21533365,0.2424246399999999,0.8703744500000001,-0.43874519,0.0907295499999999,33.71323265,-30.92258209,-16.21658422,-107.6246751,0.2068594530999999,1.240428704,0.7651124920000001,0.63976775359,-0.4712831706999999,-0.9368784992,0.005
09:47:16,-0.0041453,1.212865925,0.2491736799999998,0.8765055250000002,-0.442681655,0.090654975,33.711380425,-30.925306205,-16.19766889,-107.64136745,0.21139032595,1.237756498,0.762147404,0.643974279955,-0.4753066321499999,-0.9439284904,0.005
09:47:16,-0.0051502,1.2103982,0.2559227199999999,0.8826366000000001,-0.44661812,0.0905803999999999,33.7095282,-30.92803032,-16.17875356,-107.6580598,0.2159211988,1.2350842919999998,0.759182316,0.64818080632,-0.4793300935999999,-0.9509784816,0.005
09:47:16,-0.0061551,1.207930475,0.2626717599999998,0.8887676750000002,-0.450554585,0.090505825,33.707675975,-30.930754435,-16.15983823,-107.67475215,0.22045207165,1.232412086,0.756217228,0.652387332685,-0.4833535550499999,-0.9580284728,0.005
09:47:16,-0.00716,1.20546275,0.2694207999999999,0.8948987500000001,-0.45449105,0.0904312499999999,33.70582375,-30.93347855,-16.1409229,-107.6914445,0.2249829445,1.22973988,0.7532521400000001,0.65659385905,-0.4873770165,-0.965078464,0.005
09:47:16,-0.0081649,1.202995025,0.27616984,0.9010298250000002,-0.458427515,0.090356675,33.703971525,-30.936202665,-16.12200757,-107.70813685,0.2295138173499999,1.227067674,0.750287052,0.660800385415,-0.4914004779499999,-0.9721284552,0.005
09:47:16,-0.0091698,1.2005273,0.2829188799999999,0.9071609,-0.46236398,0.0902820999999999,33.7021193,-30.93892678,-16.10309224,-107.7248292,0.2340446902,1.224395468,0.7473219640000001,0.66500691178,-0.4954239393999999,-0.9791784464,0.005
09:47:16,-0.0101747,1.198059575,0.2896679199999999,0.913291975,-0.466300445,0.090207525,33.700267075000006,-30.941650895,-16.08417691,-107.74152155,0.23857556305,1.2217232619999998,0.744356876,0.669213438145,-0.4994474008499999,-0.9862284376,0.005
09:47:16,-0.0111796,1.19559185,0.2964169599999998,0.9194230500000002,-0.47023691,0.0901329499999999,33.698414850000006,-30.94437501,-16.06526158,-107.7582139,0.2431064359,1.219051056,0.741391788,0.67341996451,-0.5034708622999999,-0.9932784288,0.005
09:47:16,-0.0121845,1.193124125,0.3031659999999999,0.925554125,-0.474173375,0.090058375,33.696562625000006,-30.947099125,-16.04634625,-107.77490625,0.24763730875,1.21637885,0.7384267,0.677626490875,-0.5074943237499999,-1.00032842,0.005
09:47:16,-0.0131894,1.1906564,0.3099150399999998,0.9316852000000002,-0.47810984,0.0899838,33.694710400000005,-30.94982324,-16.02743092,-107.7915986,0.2521681816,1.213706644,0.735461612,0.68183301724,-0.5115177851999999,-1.0073784112,0.005
09:47:16,-0.0141943,1.188188675,0.3166640799999999,0.937816275,-0.482046305,0.089909225,33.692858175000005,-30.952547355,-16.008515590000002,-107.80829095,0.2566990544500001,1.211034438,0.732496524,0.686039543605,-0.5155412466499999,-1.0144284024,0.005
09:47:16,-0.0151992,1.18572095,0.32341312,0.9439473500000002,-0.48598277,0.0898346499999999,33.691005950000005,-30.95527147,-15.98960026,-107.8249833,0.2612299273,1.2083622319999998,0.729531436,0.69024606997,-0.5195647080999999,-1.0214783936,0.005
09:47:16,-0.0162041,1.183253225,0.3301621599999998,0.950078425,-0.489919235,0.089760075,33.689153725000004,-30.957995585,-15.97068493,-107.84167565,0.26576080015,1.205690026,0.726566348,0.694452596335,-0.52358816955,-1.0285283848,0.005
09:47:16,-0.017209,1.1807855,0.3369111999999999,0.9562095000000002,-0.4938557,0.0896855,33.687301500000004,-30.9607197,-15.9517696,-107.858368,0.270291673,1.20301782,0.72360126,0.6986591227,-0.527611631,-1.035578376,0.005
09:47:16,-0.0182139,1.178317775,0.3436602399999998,0.9623405750000004,-0.497792165,0.089610925,33.685449275,-30.963443815,-15.93285427,-107.87506035,0.27482254585,1.200345614,0.7206361720000001,0.702865649065,-0.53163509245,-1.0426283672,0.005
09:47:16,-0.0192188,1.17585005,0.3504092799999999,0.96847165,-0.50172863,0.0895363499999999,33.68359705,-30.96616793,-15.91393894,-107.8917527,0.2793534187000001,1.197673408,0.717671084,0.70707217543,-0.5356585539,-1.0496783584,0.005
09:47:16,-0.0202237,1.173382325,0.3571583199999998,0.9746027250000002,-0.505665095,0.089461775,33.681744825,-30.968892045,-15.89502361,-107.90844505,0.28388429155,1.1950012019999998,0.7147059960000001,0.711278701795,-0.5396820153499999,-1.0567283496,0.005
09:47:16,-0.0212286,1.1709146,0.3639073599999999,0.9807338,-0.50960156,0.0893872,33.6798926,-30.97161616,-15.87610828,-107.9251374,0.2884151644,1.192328996,0.711740908,0.71548522816,-0.5437054767999999,-1.0637783408,0.005
09:47:16,-0.0222335,1.168446875,0.3706564,0.9868648750000002,-0.513538025,0.0893126249999999,33.678040375,-30.974340275,-15.85719295,-107.94182975,0.29294603725,1.18965679,0.7087758200000001,0.719691754525,-0.5477289382499999,-1.070828332,0.005
09:47:16,-0.0232384,1.16597915,0.3774054399999998,0.99299595,-0.51747449,0.08923805,33.67618815,-30.97706439,-15.83827762,-107.9585221,0.2974769101,1.186984584,0.705810732,0.72389828089,-0.5517523996999999,-1.0778783232,0.005
09:47:16,-0.0242433,1.163511425,0.3841544799999999,0.9991270250000002,-0.521410955,0.0891634749999999,33.674335925,-30.979788505,-15.81936229,-107.97521445,0.3020077829500001,1.184312378,0.702845644,0.728104807255,-0.5557758611499999,-1.0849283144,0.005
09:47:16,-0.0252482,1.1610437,0.3909035199999998,1.0052581,-0.52534742,0.0890889,33.6724837,-30.98251262,-15.80044696,-107.9919068,0.3065386558,1.1816401719999998,0.699880556,0.73231133362,-0.5597993226,-1.0919783056,0.005
09:47:16,-0.0262531,1.158575975,0.3976525599999999,1.011389175,-0.529283885,0.0890143249999999,33.670631475,-30.985236735,-15.78153163,-108.00859915,0.31106952865,1.178967966,0.696915468,0.736517859985,-0.56382278405,-1.0990282968,0.005
09:47:16,-0.027258,1.15610825,0.4044015999999998,1.0175202500000002,-0.53322035,0.08893975,33.66877925,-30.98796085,-15.7626163,-108.0252915,0.3156004015,1.17629576,0.69395038,0.74072438635,-0.5678462455,-1.106078288,0.005
09:47:16,-0.0282629,1.153640525,0.4111506399999999,1.023651325,-0.537156815,0.0888651749999999,33.66692702500001,-30.990684965,-15.74370097,-108.04198385,0.32013127435,1.173623554,0.690985292,0.744930912715,-0.57186970695,-1.1131282792,0.005
09:47:16,-0.0292678,1.1511728,0.41789968,1.0297824000000002,-0.54109328,0.0887906,33.665074800000006,-30.99340908,-15.72478564,-108.0586762,0.3246621472000001,1.170951348,0.6880202040000001,0.74913743908,-0.5758931683999999,-1.1201782703999998,0.005
09:47:16,-0.0302727,1.148705075,0.4246487199999998,1.035913475,-0.545029745,0.0887160249999999,33.663222575000006,-30.996133195,-15.70587031,-108.07536855,0.32919302005,1.1682791419999998,0.685055116,0.753343965445,-0.5799166298499999,-1.1272282616,0.005
09:47:16,-0.0312776,1.14623735,0.4313977599999999,1.0420445500000002,-0.54896621,0.08864145,33.661370350000006,-30.99885731,-15.68695498,-108.0920609,0.3337238929,1.165606936,0.6820900280000001,0.75755049181,-0.5839400912999999,-1.1342782528,0.005
09:47:16,-0.0322825,1.143769625,0.4381467999999998,1.048175625,-0.552902675,0.0885668749999999,33.659518125000005,-31.001581425,-15.66803965,-108.10875325,0.33825476575,1.16293473,0.67912494,0.7617570181750001,-0.5879635527499999,-1.141328244,0.005
09:47:16,-0.0332874,1.1413019,0.4448958399999999,1.0543067000000002,-0.55683914,0.0884923,33.657665900000005,-31.00430554,-15.64912432,-108.1254456,0.3427856386,1.160262524,0.6761598520000001,0.76596354454,-0.5919870141999999,-1.1483782352,0.005
09:47:16,-0.0342923,1.138834175,0.4516448799999998,1.0604377750000002,-0.560775605,0.0884177249999999,33.655813675000005,-31.007029655,-15.63020899,-108.14213795,0.34731651145,1.157590318,0.673194764,0.770170070905,-0.59601047565,-1.1554282264,0.005
09:47:16,-0.0352972,1.13636645,0.4583939199999999,1.06656885,-0.56471207,0.08834315,33.653961450000004,-31.00975377,-15.61129366,-108.1588303,0.3518473843,1.1549181119999998,0.670229676,0.7743765972700001,-0.6000339371,-1.1624782176,0.005
09:47:16,-0.0363021,1.133898725,0.4651429599999997,1.0726999250000002,-0.568648535,0.0882685749999999,33.652109225000004,-31.012477885,-15.59237833,-108.17552265,0.35637825715,1.152245906,0.667264588,0.778583123635,-0.60405739855,-1.1695282088,0.005
09:47:17,-0.037307,1.131431,0.471892,1.078831,-0.572585,0.088194,33.650257,-31.015202,-15.573463,-108.192215,0.36090913,1.1495737,0.6642995,0.78278965,-0.60808086,-1.1765782,0.005
09:47:17,-0.034311215,1.1144149600000002,0.462311365,1.074835945,-0.56898412,0.089312615,33.68381104,-30.978670855,-15.57886301,-108.170688275,0.3556762587,1.1317249905,0.6520951805,0.78100364835,-0.60431349755,-1.1713466878,0.005
09:47:17,-0.03131543,1.09739892,0.4527307299999999,1.0708408900000002,-0.5653832400000001,0.09043123,33.71736508,-30.94213971,-15.58426302,-108.14916155,0.3504433874,1.113876281,0.639890861,0.7792176467,-0.6005461351,-1.1661151756,0.005
09:47:17,-0.028319645,1.0803828800000002,0.4431500949999999,1.066845835,-0.56178236,0.0915498449999999,33.750919120000006,-30.905608565,-15.58966303,-108.127634825,0.3452105161,1.0960275715,0.6276865415,0.77743164505,-0.5967787726499999,-1.1608836634,0.005
09:47:17,-0.02532386,1.06336684,0.4335694599999999,1.06285078,-0.55818148,0.09266846,33.784473160000005,-30.86907742,-15.59506304,-108.1061081,0.3399776448,1.078178862,0.615482222,0.7756456434,-0.5930114101999999,-1.1556521512,0.005
09:47:17,-0.022328075,1.0463508,0.423988825,1.058855725,-0.5545806,0.093787075,33.8180272,-30.832546275,-15.60046305,-108.084581375,0.3347447735,1.0603301525,0.6032779025,0.77385964175,-0.5892440477499999,-1.150420639,0.005
09:47:17,-0.01933229,1.02933476,0.4144081899999999,1.05486067,-0.5509797200000001,0.09490569,33.85158124,-30.79601513,-15.60586306,-108.06305465,0.3295119022,1.042481443,0.591073583,0.7720736401,-0.5854766853,-1.1451891268,0.005
09:47:17,-0.016336505,1.01231872,0.404827555,1.0508656150000002,-0.54737884,0.0960243049999999,33.88513528,-30.759483985,-15.61126307,-108.041527925,0.3242790309,1.0246327334999998,0.5788692635,0.77028763845,-0.58170932285,-1.1399576146,0.005
09:47:17,-0.01334072,0.99530268,0.39524692,1.04687056,-0.54377796,0.09714292,33.918689320000006,-30.72295284,-15.61666308,-108.0200012,0.3190461596,1.006784024,0.566664944,0.7685016368,-0.5779419603999999,-1.1347261024,0.005
09:47:17,-0.010344935,0.97828664,0.385666285,1.042875505,-0.54017708,0.098261535,33.952243360000004,-30.686421695,-15.62206309,-107.998474475,0.3138132883,0.9889353145,0.5544606245,0.76671563515,-0.5741745979499999,-1.1294945902,0.005
09:47:17,-0.00734915,0.9612706,0.37608565,1.0388804500000002,-0.5365762000000001,0.09938015,33.9857974,-30.64989055,-15.6274631,-107.97694775,0.308580417,0.971086605,0.542256305,0.7649296335,-0.5704072354999999,-1.124263078,0.005
09:47:17,-0.004353365,0.94425456,0.366505015,1.034885395,-0.53297532,0.1004987649999999,34.01935144,-30.613359405,-15.63286311,-107.955421025,0.3033475457,0.9532378955,0.5300519855000001,0.76314363185,-0.56663987305,-1.1190315658,0.005
09:47:17,-0.00135758,0.92723852,0.35692438,1.03089034,-0.52937444,0.10161738,34.05290548000001,-30.57682826,-15.63826312,-107.9338943,0.2981146744,0.935389186,0.517847666,0.7613576302,-0.5628725106,-1.1138000536,0.005
09:47:17,0.0016382049999999,0.91022248,0.347343745,1.0268952850000002,-0.52577356,0.102735995,34.086459520000005,-30.540297115,-15.64366313,-107.912367575,0.2928818031,0.9175404765,0.5056433465000001,0.75957162855,-0.5591051481499999,-1.1085685414,0.005
09:47:17,0.0046339899999999,0.89320644,0.33776311,1.02290023,-0.5221726800000001,0.10385461,34.120013560000004,-30.50376597,-15.64906314,-107.89084085,0.2876489318,0.899691767,0.4934390270000001,0.7577856269,-0.5553377856999999,-1.1033370292,0.005
09:47:17,0.0076297749999999,0.8761904,0.328182475,1.018905175,-0.5185718,0.104973225,34.1535676,-30.467234825,-15.65446315,-107.869314125,0.2824160605,0.8818430574999999,0.4812347075000001,0.75599962525,-0.5515704232499999,-1.098105517,0.005
09:47:17,0.0106255599999999,0.8591743600000001,0.31860184,1.01491012,-0.51497092,0.1060918399999999,34.18712164,-30.43070368,-15.65986316,-107.8477874,0.2771831892,0.8639943479999999,0.4690303880000001,0.7542136236,-0.5478030608,-1.0928740048,0.005
09:47:17,0.0136213449999999,0.84215832,0.3090212049999999,1.010915065,-0.51137004,0.107210455,34.22067568000001,-30.394172535,-15.66526317,-107.826260675,0.2719503179,0.8461456384999999,0.4568260685,0.75242762195,-0.54403569835,-1.0876424926,0.005
09:47:17,0.0166171299999999,0.8251422800000001,0.29944057,1.00692001,-0.50776916,0.10832907,34.254229720000005,-30.35764139,-15.67066318,-107.80473395,0.2667174466,0.828296929,0.444621749,0.7506416203,-0.5402683359,-1.0824109804,0.005
09:47:17,0.0196129149999999,0.8081262400000001,0.289859935,1.002924955,-0.50416828,0.1094476849999999,34.28778376,-30.321110245,-15.67606319,-107.783207225,0.2614845753,0.8104482194999999,0.4324174295,0.74885561865,-0.5365009734499999,-1.0771794682,0.005
09:47:17,0.0226086999999999,0.7911102000000001,0.2802793,0.9989299,-0.5005674,0.1105662999999999,34.3213378,-30.2845791,-15.6814632,-107.7616805,0.256251704,0.7925995099999998,0.42021311,0.747069617,-0.5327336109999999,-1.071947956,0.005
09:47:17,0.0256044849999999,0.7740941600000001,0.270698665,0.994934845,-0.49696652,0.111684915,34.35489184,-30.248047955,-15.68686321,-107.740153775,0.2510188327,0.7747508004999999,0.4080087905,0.74528361535,-0.52896624855,-1.0667164438,0.005
09:47:17,0.0286002699999999,0.7570781200000001,0.26111803,0.99093979,-0.49336564,0.11280353,34.388445880000006,-30.21151681,-15.69226322,-107.71862705,0.2457859614,0.7569020909999999,0.395804471,0.7434976137,-0.5251988861,-1.0614849316,0.005
09:47:17,0.0315960549999999,0.7400620800000001,0.251537395,0.986944735,-0.48976476,0.113922145,34.421999920000005,-30.174985665,-15.69766323,-107.697100325,0.2405530901,0.7390533814999999,0.3836001515,0.74171161205,-0.52143152365,-1.0562534194,0.005
09:47:17,0.0345918399999999,0.7230460400000001,0.24195676,0.98294968,-0.48616388,0.1150407599999999,34.45555396,-30.13845452,-15.70306324,-107.6755736,0.2353202188,0.7212046719999999,0.371395832,0.7399256104,-0.5176641611999999,-1.0510219072,0.005
09:47:17,0.0375876249999999,0.7060300000000002,0.232376125,0.978954625,-0.482563,0.116159375,34.489108,-30.101923375,-15.70846325,-107.654046875,0.2300873475,0.7033559624999999,0.3591915125,0.73813960875,-0.5138967987499999,-1.045790395,0.005
09:47:17,0.0405834099999999,0.68901396,0.22279549,0.97495957,-0.47896212,0.11727799,34.52266204,-30.06539223,-15.71386326,-107.63252015,0.2248544762,0.6855072529999999,0.346987193,0.7363536071,-0.5101294363,-1.0405588828,0.005
09:47:17,0.0435791949999999,0.6719979200000001,0.213214855,0.970964515,-0.47536124,0.118396605,34.556216080000006,-30.028861085,-15.71926327,-107.610993425,0.2196216049,0.6676585435,0.3347828735000001,0.73456760545,-0.50636207385,-1.0353273706,0.005
09:47:17,0.0465749799999999,0.65498188,0.20363422,0.96696946,-0.47176036,0.11951522,34.589770120000004,-29.99232994,-15.72466328,-107.5894667,0.2143887336,0.6498098339999999,0.3225785540000001,0.7327816038,-0.5025947114,-1.0300958584,0.005
09:47:17,0.0495707649999999,0.6379658400000001,0.194053585,0.962974405,-0.46815948,0.120633835,34.62332416,-29.955798795,-15.73006329,-107.567939975,0.2091558623,0.6319611244999999,0.3103742345,0.73099560215,-0.4988273489499999,-1.0248643462,0.005
09:47:17,0.0525665499999999,0.6209498000000001,0.18447295,0.95897935,-0.4645586,0.12175245,34.6568782,-29.91926765,-15.7354633,-107.54641325,0.203922991,0.6141124149999999,0.298169915,0.7292096005,-0.4950599864999999,-1.019632834,0.005
09:47:17,0.0555623349999999,0.6039337600000001,0.174892315,0.954984295,-0.46095772,0.122871065,34.69043224000001,-29.882736505,-15.74086331,-107.524886525,0.1986901197,0.5962637054999999,0.2859655955,0.72742359885,-0.4912926240499999,-1.0144013218,0.005
09:47:17,0.0585581199999999,0.5869177200000001,0.16531168,0.95098924,-0.45735684,0.1239896799999999,34.723986280000005,-29.84620536,-15.74626332,-107.5033598,0.1934572484,0.5784149959999999,0.273761276,0.7256375972,-0.4875252616,-1.0091698096,0.005
09:47:17,0.0615539049999999,0.5699016800000001,0.155731045,0.946994185,-0.45375596,0.125108295,34.757540320000004,-29.809674215,-15.75166333,-107.481833075,0.1882243771,0.5605662865,0.2615569565,0.72385159555,-0.4837578991499999,-1.0039382974,0.005
09:47:17,0.0645496899999999,0.5528856400000001,0.14615041,0.94299913,-0.45015508,0.12622691,34.79109436,-29.77314307,-15.75706334,-107.46030635,0.1829915058,0.5427175769999999,0.249352637,0.7220655939,-0.4799905366999999,-0.9987067852,0.005
09:47:17,0.067545475,0.5358696000000001,0.136569775,0.939004075,-0.4465542,0.127345525,34.8246484,-29.736611925,-15.76246335,-107.438779625,0.1777586345,0.5248688675,0.2371483175,0.72027959225,-0.4762231742499999,-0.993475273,0.005
09:47:17,0.07054126,0.51885356,0.12698914,0.93500902,-0.44295332,0.12846414,34.85820244000001,-29.70008078,-15.76786336,-107.4172529,0.1725257632,0.5070201579999999,0.224943998,0.7184935906000001,-0.4724558117999999,-0.9882437608,0.005
09:47:17,0.073537045,0.50183752,0.117408505,0.931013965,-0.43935244,0.129582755,34.891756480000005,-29.663549635,-15.77326337,-107.395726175,0.1672928919,0.4891714484999999,0.2127396785,0.71670758895,-0.46868844935,-0.9830122486,0.005
09:47:17,0.0765328299999999,0.4848214800000001,0.10782787,0.92701891,-0.43575156,0.1307013699999999,34.925310520000004,-29.62701849,-15.77866338,-107.37419945,0.1620600206,0.4713227389999999,0.200535359,0.7149215873,-0.4649210868999999,-0.9777807364,0.005
09:47:17,0.0795286149999999,0.4678054400000001,0.098247235,0.923023855,-0.43215068,0.131819985,34.95886456,-29.590487345,-15.78406339,-107.352672725,0.1568271493,0.4534740294999999,0.1883310395,0.71313558565,-0.4611537244499999,-0.9725492242,0.005
09:47:17,0.0825243999999999,0.4507894000000001,0.0886666,0.9190288,-0.4285498,0.1329386,34.9924186,-29.5539562,-15.7894634,-107.331146,0.151594278,0.4356253199999998,0.17612672,0.711349584,-0.4573863619999999,-0.967317712,0.005
09:47:17,0.0855201849999999,0.4337733600000001,0.079085965,0.915033745,-0.42494892,0.134057215,35.025972640000006,-29.517425055,-15.79486341,-107.309619275,0.1463614067,0.4177766104999999,0.1639224005,0.7095635823499999,-0.4536189995499999,-0.9620861998,0.005
09:47:17,0.0885159699999999,0.4167573200000001,0.06950533,0.91103869,-0.42134804,0.13517583,35.059526680000005,-29.48089391,-15.80026342,-107.28809255,0.1411285354,0.3999279009999998,0.151718081,0.7077775807,-0.4498516371,-0.9568546876,0.005
09:47:17,0.0915117549999999,0.3997412800000001,0.059924695,0.907043635,-0.41774716,0.136294445,35.09308072,-29.444362765,-15.80566343,-107.266565825,0.1358956641,0.3820791914999999,0.1395137615,0.70599157905,-0.4460842746499999,-0.9516231754,0.005
09:47:17,0.0945075399999999,0.3827252400000001,0.05034406,0.90304858,-0.41414628,0.13741306,35.12663476,-29.40783162,-15.81106344,-107.2450391,0.1306627928,0.3642304819999998,0.127309442,0.7042055774,-0.4423169121999999,-0.9463916632,0.005
09:47:17,0.0975033249999999,0.3657092,0.040763425,0.899053525,-0.4105454,0.138531675,35.1601888,-29.371300475,-15.81646345,-107.223512375,0.1254299215,0.3463817724999999,0.1151051225,0.70241957575,-0.4385495497499999,-0.941160151,0.005
09:47:17,0.1004991099999999,0.34869316,0.03118279,0.89505847,-0.40694452,0.13965029,35.193742840000006,-29.33476933,-15.82186346,-107.20198565,0.1201970502,0.3285330629999998,0.102900803,0.7006335741,-0.4347821872999999,-0.9359286388,0.005
09:47:17,0.1034948949999999,0.33167712,0.021602155,0.8910634150000001,-0.40334364,0.140768905,35.227296880000004,-29.298238185,-15.82726347,-107.180458925,0.1149641789,0.3106843534999999,0.0906964835,0.6988475724500001,-0.43101482485,-0.9306971266,0.005
09:47:17,0.1064906799999999,0.31466108,0.01202152,0.88706836,-0.39974276,0.14188752,35.26085092,-29.26170704,-15.83266348,-107.1589322,0.1097313076,0.2928356439999999,0.078492164,0.6970615708,-0.4272474623999999,-0.9254656144,0.005
09:47:17,0.1094864649999999,0.2976450400000001,0.002440885,0.883073305,-0.39614188,0.143006135,35.29440496,-29.225175895,-15.83806349,-107.137405475,0.1044984363,0.2749869344999999,0.0662878445,0.69527556915,-0.4234800999499999,-0.9202341022,0.005
09:47:17,0.1124822499999999,0.2806290000000001,-0.0071397499999999,0.8790782500000001,-0.392541,0.14412475,35.32795900000001,-29.18864475,-15.8434635,-107.11587875,0.099265565,0.2571382249999999,0.054083525,0.6934895675,-0.4197127374999999,-0.91500259,0.005
09:47:17,0.1154780349999999,0.2636129600000001,-0.0167203849999999,0.8750831950000001,-0.38894012,0.145243365,35.361513040000006,-29.152113605,-15.84886351,-107.094352025,0.0940326937,0.2392895154999998,0.0418792055,0.69170356585,-0.4159453750499999,-0.9097710778,0.005
09:47:17,0.1184738199999999,0.2465969200000001,-0.0263010199999999,0.8710881400000001,-0.3853392399999999,0.14636198,35.395067080000004,-29.11558246,-15.85426352,-107.0728253,0.0887998224,0.2214408059999999,0.029674886,0.6899175641999999,-0.4121780126,-0.9045395656,0.005
09:47:17,0.1214696049999999,0.2295808800000001,-0.0358816549999999,0.867093085,-0.38173836,0.147480595,35.42862112,-29.079051315,-15.85966353,-107.051298575,0.0835669511,0.2035920964999998,0.0174705665,0.68813156255,-0.40841065015,-0.8993080534,0.005
09:47:17,0.1244653899999999,0.2125648400000001,-0.0454622899999999,0.8630980300000001,-0.37813748,0.14859921,35.46217516,-29.04252017,-15.86506354,-107.02977185,0.0783340798,0.1857433869999999,0.0052662470000001,0.6863455609,-0.4046432876999999,-0.8940765412,0.005
09:47:17,0.1274611749999999,0.1955488,-0.0550429249999999,0.8591029750000001,-0.3745366,0.149717825,35.49572920000001,-29.005989025,-15.87046355,-107.008245125,0.0731012085,0.1678946774999998,-0.0069380724999998,0.68455955925,-0.4008759252499999,-0.8888450290000001,0.005
09:47:17,0.1304569599999999,0.17853276,-0.0646235599999999,0.85510792,-0.3709357199999999,0.15083644,35.529283240000005,-28.96945788,-15.87586356,-106.9867184,0.0678683372,0.1500459679999999,-0.0191423919999998,0.6827735576,-0.3971085627999999,-0.8836135168,0.005
09:47:17,0.1334527449999999,0.16151672,-0.0742041949999999,0.851112865,-0.36733484,0.151955055,35.562837280000004,-28.932926735,-15.88126357,-106.965191675,0.0626354659,0.1321972584999999,-0.0313467114999999,0.68098755595,-0.39334120035,-0.8783820046,0.005
09:47:17,0.1364485299999999,0.14450068,-0.0837848299999999,0.8471178100000001,-0.36373396,0.15307367,35.59639132,-28.89639559,-15.88666358,-106.94366495,0.0574025946,0.1143485489999998,-0.0435510309999999,0.6792015543000001,-0.3895738379,-0.8731504924,0.005
09:47:17,0.1394443149999999,0.12748464,-0.0933654649999999,0.843122755,-0.36013308,0.1541922849999999,35.62994536,-28.859864445,-15.89206359,-106.922138225,0.0521697233,0.0964998394999998,-0.0557553504999999,0.67741555265,-0.3858064754499999,-0.8679189802,0.005
09:47:17,0.1424400999999999,0.1104686000000001,-0.1029460999999999,0.8391277,-0.3565321999999999,0.1553109,35.663499400000006,-28.8233333,-15.8974636,-106.9006115,0.046936852,0.0786511299999999,-0.0679596699999999,0.675629551,-0.3820391129999999,-0.8626874680000001,0.005
09:47:17,0.1454358849999999,0.09345256,-0.1125267349999999,0.8351326450000001,-0.35293132,0.156429515,35.697053440000005,-28.786802155,-15.90286361,-106.879084775,0.0417039807,0.0608024204999999,-0.0801639894999999,0.67384354935,-0.3782717505499999,-0.8574559558,0.005
09:47:17,0.1484316699999999,0.0764365200000001,-0.1221073699999999,0.83113759,-0.34933044,0.15754813,35.73060748,-28.75027101,-15.90826362,-106.85755805,0.0364711094,0.0429537109999997,-0.0923683089999999,0.6720575477,-0.3745043881,-0.8522244436,0.005
09:47:17,0.1514274549999999,0.05942048,-0.131688005,0.8271425350000001,-0.34572956,0.158666745,35.76416152,-28.713739865,-15.91366363,-106.836031325,0.0312382381,0.0251050014999998,-0.1045726284999999,0.6702715460499999,-0.37073702565,-0.8469929314,0.005
09:47:17,0.1544232399999999,0.0424044400000001,-0.1412686399999999,0.82314748,-0.3421286799999999,0.15978536,35.79771556,-28.67720872,-15.91906364,-106.8145046,0.0260053668,0.0072562919999998,-0.1167769479999999,0.6684855444,-0.3669696631999999,-0.8417614192,0.005
09:47:17,0.1574190249999999,0.0253884000000002,-0.1508492749999999,0.819152425,-0.3385278,0.160903975,35.831269600000006,-28.640677575,-15.92446365,-106.792977875,0.0207724955,-0.0105924175,-0.1289812674999999,0.66669954275,-0.3632023007499999,-0.8365299070000001,0.005
09:47:17,0.1604148099999999,0.00837236,-0.1604299099999999,0.8151573700000001,-0.33492692,0.16202259,35.864823640000004,-28.60414643,-15.92986366,-106.77145115,0.0155396242,-0.028441127,-0.1411855869999999,0.6649135411,-0.3594349382999999,-0.8312983948,0.005
09:47:17,0.1634105949999999,-0.0086436799999998,-0.1700105449999999,0.811162315,-0.33132604,0.163141205,35.89837768,-28.567615285,-15.93526367,-106.749924425,0.0103067529,-0.0462898365000001,-0.1533899064999999,0.66312753945,-0.35566757585,-0.8260668826,0.005
09:47:17,0.1664063799999999,-0.0256597199999999,-0.1795911799999999,0.80716726,-0.3277251599999999,0.16425982,35.93193172,-28.53108414,-15.94066368,-106.7283977,0.0050738816,-0.0641385460000001,-0.1655942259999999,0.6613415378,-0.3519002133999999,-0.8208353704,0.005
09:47:17,0.1694021649999999,-0.0426757599999998,-0.1891718149999999,0.8031722050000001,-0.32412428,0.165378435,35.96548576000001,-28.494552995,-15.94606369,-106.706870975,-0.0001589896999999,-0.0819872555,-0.1777985454999999,0.6595555361500001,-0.3481328509499999,-0.8156038582,0.005
09:47:17,0.1723979499999999,-0.0596917999999999,-0.1987524499999999,0.79917715,-0.3205234,0.16649705,35.999039800000006,-28.45802185,-15.9514637,-106.68534425,-0.0053918609999999,-0.099835965,-0.1900028649999999,0.6577695345,-0.3443654885,-0.8103723460000001,0.005
09:47:17,0.1753937349999999,-0.0767078399999998,-0.2083330849999999,0.795182095,-0.31692252,0.167615665,36.03259384,-28.421490705,-15.95686371,-106.663817525,-0.0106247322999999,-0.1176846745000002,-0.2022071844999999,0.65598353285,-0.3405981260499999,-0.8051408338,0.005
09:47:17,0.1783895199999999,-0.0937238799999999,-0.2179137199999999,0.7911870400000001,-0.31332164,0.16873428,36.06614788,-28.38495956,-15.96226372,-106.6422908,-0.0158576035999999,-0.1355333840000001,-0.2144115039999999,0.6541975312,-0.3368307635999999,-0.7999093216000001,0.005
09:47:17,0.1813853049999999,-0.1107399199999998,-0.2274943549999999,0.787191985,-0.30972076,0.169852895,36.09970192,-28.348428415,-15.96766373,-106.620764075,-0.0210904748999999,-0.1533820935000001,-0.2266158234999999,0.65241152955,-0.3330634011499999,-0.7946778094,0.005
09:47:17,0.1843810899999999,-0.12775596,-0.2370749899999999,0.78319693,-0.30611988,0.17097151,36.13325596000001,-28.31189727,-15.97306374,-106.59923735,-0.0263233461999999,-0.171230803,-0.2388201429999999,0.6506255279,-0.3292960386999999,-0.7894462972,0.005
09:47:17,0.1873768749999999,-0.1447719999999999,-0.2466556249999999,0.779201875,-0.302519,0.1720901249999999,36.166810000000005,-28.275366125,-15.97846375,-106.577710625,-0.0315562174999999,-0.1890795125000002,-0.2510244624999999,0.64883952625,-0.32552867625,-0.7842147850000001,0.005
09:47:17,0.1903726599999999,-0.1617880399999998,-0.2562362599999999,0.77520682,-0.29891812,0.17320874,36.20036404,-28.23883498,-15.98386376,-106.5561839,-0.0367890887999999,-0.2069282220000001,-0.2632287819999999,0.6470535246,-0.3217613137999999,-0.7789832728,0.005
09:47:17,0.1933684449999999,-0.1788040799999999,-0.2658168949999999,0.7712117650000001,-0.29531724,0.174327355,36.23391808,-28.202303835,-15.98926377,-106.534657175,-0.0420219600999999,-0.2247769315000001,-0.2754331014999999,0.64526752295,-0.3179939513499999,-0.7737517606,0.005
09:47:17,0.1963642299999999,-0.1958201199999998,-0.2753975299999999,0.76721671,-0.29171636,0.17544597,36.26747212,-28.16577269,-15.99466378,-106.51313045,-0.0472548313999999,-0.242625641,-0.2876374209999999,0.6434815213,-0.3142265889,-0.7685202484,0.005
09:47:17,0.1993600149999999,-0.2128361599999999,-0.2849781649999999,0.763221655,-0.28811548,0.176564585,36.301026160000006,-28.129241545,-16.00006379,-106.491603725,-0.0524877026999999,-0.2604743505000002,-0.2998417404999999,0.64169551965,-0.3104592264499999,-0.7632887362,0.005
09:47:17,0.2023557999999999,-0.2298521999999998,-0.2945587999999999,0.7592266000000001,-0.2845146,0.1776831999999999,36.334580200000005,-28.0927104,-16.0054638,-106.470077,-0.0577205739999999,-0.2783230600000002,-0.3120460599999999,0.6399095180000001,-0.306691864,-0.7580572240000001,0.005
09:47:17,0.2053515849999999,-0.2468682399999999,-0.3041394349999999,0.755231545,-0.28091372,0.178801815,36.36813424,-28.056179255,-16.01086381,-106.448550275,-0.0629534452999999,-0.2961717695000001,-0.3242503794999999,0.63812351635,-0.3029245015499999,-0.7528257118,0.005
09:47:17,0.2083473699999999,-0.2638842799999998,-0.3137200699999999,0.75123649,-0.27731284,0.17992043,36.40168828,-28.01964811,-16.01626382,-106.42702355,-0.0681863165999999,-0.3140204790000001,-0.3364546989999999,0.6363375147,-0.2991571390999999,-0.7475941996,0.005
09:47:17,0.2113431549999999,-0.28090032,-0.3233007049999999,0.7472414350000001,-0.27371196,0.181039045,36.43524232,-27.983116965,-16.02166383,-106.405496825,-0.0734191878999999,-0.3318691885,-0.3486590185,0.63455151305,-0.29538977665,-0.7423626874,0.005
09:47:17,0.2143389399999999,-0.2979163599999999,-0.3328813399999999,0.74324638,-0.27011108,0.18215766,36.468796360000006,-27.94658582,-16.02706384,-106.3839701,-0.0786520591999999,-0.3497178980000002,-0.3608633379999999,0.6327655114,-0.2916224141999999,-0.7371311752,0.005
09:47:17,0.2173347249999999,-0.3149324,-0.342461975,0.739251325,-0.2665102,0.183276275,36.502350400000005,-27.910054675,-16.03246385,-106.362443375,-0.0838849304999999,-0.3675666075000001,-0.3730676575,0.63097950975,-0.28785505175,-0.7318996630000001,0.005
09:47:17,0.2203305099999999,-0.3319484399999999,-0.3520426099999999,0.73525627,-0.26290932,0.18439489,36.53590444,-27.87352353,-16.03786386,-106.34091665,-0.0891178017999999,-0.3854153170000001,-0.3852719769999999,0.6291935081,-0.2840876892999999,-0.7266681508,0.005
09:47:17,0.2233262949999999,-0.3489644799999998,-0.3616232449999998,0.731261215,-0.25930844,0.185513505,36.56945848,-27.836992385,-16.04326387,-106.319389925,-0.0943506730999999,-0.4032640265,-0.3974762964999998,0.62740750645,-0.2803203268499999,-0.7214366386,0.005
09:47:17,0.2263220799999999,-0.3659805199999999,-0.3712038799999999,0.72726616,-0.25570756,0.18663212,36.60301252000001,-27.80046124,-16.04866388,-106.2978632,-0.0995835443999999,-0.4211127360000002,-0.4096806159999999,0.6256215048,-0.2765529644,-0.7162051264,0.005
09:47:17,0.2293178649999999,-0.3829965599999998,-0.3807845149999999,0.723271105,-0.2521066799999999,0.187750735,36.636566560000006,-27.763930095,-16.054063890000002,-106.276336475,-0.1048164156999999,-0.4389614455000001,-0.4218849354999998,0.62383550315,-0.2727856019499999,-0.7109736142,0.005
09:47:17,0.2323136499999999,-0.4000125999999999,-0.3903651499999999,0.71927605,-0.2485058,0.18886935,36.6701206,-27.72739895,-16.0594639,-106.25480975,-0.1100492869999999,-0.4568101550000001,-0.4340892549999999,0.6220495015,-0.2690182395,-0.7057421020000001,0.005
09:47:17,0.2353094349999999,-0.4170286399999998,-0.3999457849999999,0.7152809950000001,-0.2449049199999999,0.189987965,36.70367464,-27.690867805,-16.06486391,-106.233283025,-0.1152821582999999,-0.4746588645,-0.4462935744999998,0.6202634998500001,-0.2652508770499999,-0.7005105898,0.005
09:47:17,0.2383052199999999,-0.4340446799999999,-0.4095264199999999,0.71128594,-0.24130404,0.19110658,36.73722868,-27.65433666,-16.070263920000002,-106.2117563,-0.1205150295999999,-0.4925075740000002,-0.4584978939999999,0.6184774982,-0.2614835145999999,-0.6952790776,0.005
09:47:17,0.2413010049999999,-0.4510607199999998,-0.4191070549999999,0.707290885,-0.2377031599999999,0.192225195,36.77078272,-27.617805515,-16.07566393,-106.190229575,-0.1257479008999999,-0.5103562835000002,-0.4707022134999998,0.61669149655,-0.25771615215,-0.6900475654,0.005
09:47:17,0.2442967899999999,-0.46807676,-0.4286876899999999,0.7032958300000001,-0.23410228,0.19334381,36.804336760000005,-27.58127437,-16.08106394,-106.16870285,-0.1309807721999999,-0.5282049930000001,-0.4829065329999999,0.6149054949,-0.2539487896999999,-0.6848160532,0.005
09:47:17,0.2472925749999999,-0.4850927999999999,-0.4382683249999999,0.699300775,-0.2305013999999999,0.194462425,36.8378908,-27.544743225,-16.08646395,-106.147176125,-0.1362136434999999,-0.5460537025000001,-0.4951108524999998,0.61311949325,-0.25018142725,-0.6795845410000001,0.005
09:47:17,0.25028836,-0.50210884,-0.4478489599999999,0.69530572,-0.22690052,0.19558104,36.87144484,-27.50821208,-16.09186396,-106.1256494,-0.1414465147999999,-0.563902412,-0.507315172,0.6113334916,-0.2464140647999999,-0.6743530288,0.005
09:47:17,0.2532841449999999,-0.5191248799999999,-0.4574295949999999,0.691310665,-0.2232996399999999,0.196699655,36.90499888,-27.471680935,-16.09726397,-106.104122675,-0.1466793860999999,-0.5817511215000002,-0.5195194914999999,0.60954748995,-0.2426467023499999,-0.6691215166000001,0.005
09:47:17,0.25627993,-0.5361409199999998,-0.4670102299999998,0.68731561,-0.21969876,0.19781827,36.93855292000001,-27.43514979,-16.10266398,-106.08259595,-0.1519122573999999,-0.5995998310000001,-0.531723811,0.6077614883,-0.2388793399,-0.6638900044,0.005
09:47:17,0.2592757149999999,-0.5531569599999999,-0.4765908649999999,0.683320555,-0.2160978799999999,0.198936885,36.972106960000005,-27.398618645,-16.10806399,-106.061069225,-0.1571451286999999,-0.6174485405000001,-0.5439281304999999,0.60597548665,-0.2351119774499999,-0.6586584922000001,0.005
