Timestamp,linacce_x,linacce_y,linacce_z,gyro_x,gyro_y,gyro_z,X-magnetometer,Y-magnetometer,Z-magnetometer,Yaw, worldXAccel,worldYAccel,worldZAccel,worldXgyro,worldYgyro,worldZgyro,Distance
10:03:06,0.214799,0.412839,-1.336037,1.005887,-0.02803,-0.276245,31.39049,-21.477478,-30.444695,-82.546234,-0.746943,0.36424997,0.024284288,0.5414276,-0.06935854,-0.736552,0.006
10:03:06,0.215564765,0.411598635,-1.33912372,1.00407058,-0.028120555,-0.27429541,31.40055955,-21.49675805,-30.42458033,-82.49654468,-0.750629707,0.36349618405,0.02148476731,0.5408743485,-0.06921155857,-0.73564470735,0.006
10:03:06,0.21633053,0.41035827,-1.34221044,1.00225416,-0.02821111,-0.27234582,31.4106291,-21.516038100000003,-30.40446566,-82.44685536,-0.754316414,0.3627423981,0.01868524662,0.540321097,-0.06906457714,-0.7347374147,0.006
10:03:06,0.217096295,0.409117905,-1.34529716,1.00043774,-0.028301665,-0.27039623,31.42069865,-21.53531815,-30.38435099,-82.39716604,-0.758003121,0.36198861215,0.01588572593,0.5397678455,-0.06891759571,-0.73383012205,0.006
10:03:06,0.21786206,0.40787754,-1.34838388,0.99862132,-0.02839222,-0.26844664,31.4307682,-21.5545982,-30.36423632,-82.34747672,-0.7616898280000001,0.3612348261999999,0.01308620524,0.539214594,-0.06877061428,-0.7329228294,0.006
10:03:06,0.218627825,0.406637175,-1.3514706,0.9968049,-0.028482775,-0.26649705,31.44083775,-21.57387825,-30.34412165,-82.2977874,-0.765376535,0.36048104025,0.01028668455,0.5386613425,-0.0686236328499999,-0.73201553675,0.006
10:03:06,0.21939359,0.40539681,-1.3545573199999998,0.99498848,-0.02857333,-0.26454746,31.4509073,-21.5931583,-30.32400698,-82.24809807999999,-0.769063242,0.3597272542999999,0.00748716386,0.538108091,-0.0684766514199999,-0.7311082441,0.006
10:03:06,0.220159355,0.404156445,-1.3576440399999998,0.99317206,-0.028663885,-0.26259787,31.46097685,-21.61243835,-30.30389231,-82.19840875999999,-0.772749949,0.35897346835,0.00468764317,0.5375548395,-0.06832966999,-0.73020095145,0.006
10:03:06,0.22092512,0.40291608,-1.3607307599999998,0.99135564,-0.02875444,-0.26064828,31.4710464,-21.6317184,-30.28377764,-82.14871944,-0.776436656,0.3582196823999999,0.00188812248,0.537001588,-0.06818268856,-0.7292936588,0.006
10:03:06,0.221690885,0.401675715,-1.36381748,0.98953922,-0.028844995,-0.25869869,31.48111595,-21.650998450000003,-30.26366297,-82.09903012,-0.7801233630000001,0.35746589645,-0.00091139821,0.5364483365,-0.06803570713,-0.72838636615,0.006
10:03:06,0.2224566499999999,0.40043535,-1.3669042,0.9877228,-0.02893555,-0.2567491,31.4911855,-21.6702785,-30.2435483,-82.0493408,-0.78381007,0.3567121104999999,-0.0037109188999999,0.535895085,-0.0678887257,-0.7274790735,0.006
10:03:06,0.2232224149999999,0.399194985,-1.36999092,0.98590638,-0.029026105,-0.25479951,31.50125505,-21.68955855,-30.22343363,-81.99965148,-0.787496777,0.35595832455,-0.00651043959,0.5353418335,-0.06774174427,-0.72657178085,0.006
10:03:06,0.2239881799999999,0.39795462,-1.37307764,0.98408996,-0.02911666,-0.25284992,31.5113246,-21.7088386,-30.20331896,-81.94996216,-0.791183484,0.3552045385999999,-0.00930996028,0.534788582,-0.06759476284,-0.7256644882,0.006
10:03:06,0.2247539449999999,0.396714255,-1.37616436,0.98227354,-0.0292072149999999,-0.25090033,31.52139415,-21.728118650000003,-30.18320429,-81.90027284,-0.794870191,0.35445075265,-0.01210948097,0.5342353305,-0.0674477814099999,-0.72475719555,0.006
10:03:06,0.2255197099999999,0.39547389,-1.37925108,0.98045712,-0.02929777,-0.24895074,31.5314637,-21.7473987,-30.16308962,-81.85058352,-0.798556898,0.3536969667,-0.0149090016599999,0.533682079,-0.0673007999799999,-0.7238499029,0.006
10:03:06,0.2262854749999999,0.394233525,-1.3823378,0.9786407,-0.029388325,-0.24700115,31.54153325,-21.76667875,-30.14297495,-81.8008942,-0.802243605,0.35294318075,-0.01770852235,0.5331288275,-0.06715381855,-0.72294261025,0.006
10:03:06,0.22705124,0.39299316,-1.38542452,0.97682428,-0.02947888,-0.24505156,31.5516028,-21.7859588,-30.12286028,-81.75120488,-0.805930312,0.3521893948,-0.02050804304,0.532575576,-0.06700683712,-0.7220353176,0.006
10:03:06,0.227817005,0.391752795,-1.38851124,0.97500786,-0.0295694349999999,-0.24310197,31.56167235,-21.80523885,-30.10274561,-81.70151556,-0.809617019,0.3514356088499999,-0.02330756373,0.5320223245,-0.06685985569,-0.72112802495,0.006
10:03:06,0.22858277,0.39051243,-1.39159796,0.97319144,-0.02965999,-0.24115238,31.5717419,-21.8245189,-30.08263094,-81.65182623999999,-0.813303726,0.3506818229,-0.02610708442,0.531469073,-0.06671287426,-0.7202207322999999,0.006
10:03:06,0.229348535,0.389272065,-1.39468468,0.97137502,-0.029750545,-0.23920279,31.58181145,-21.84379895,-30.06251627,-81.60213691999999,-0.816990433,0.3499280369499999,-0.0289066051099999,0.5309158215,-0.06656589283,-0.7193134396499999,0.006
10:03:06,0.2301143,0.3880317,-1.3977714,0.9695586,-0.0298411,-0.2372532,31.591881,-21.863079000000003,-30.0424016,-81.5524476,-0.82067714,0.349174251,-0.0317061258,0.53036257,-0.0664189114,-0.7184061469999999,0.006
10:03:06,0.230880065,0.386791335,-1.40085812,0.96774218,-0.029931655,-0.23530361,31.60195055,-21.88235905,-30.02228693,-81.50275828,-0.824363847,0.3484204650499999,-0.03450564649,0.5298093185,-0.06627192997,-0.7174988543499999,0.006
10:03:06,0.23164583,0.38555097,-1.40394484,0.96592576,-0.03002221,-0.23335402,31.6120201,-21.9016391,-30.00217226,-81.45306896,-0.828050554,0.3476666791,-0.03730516718,0.529256067,-0.0661249485399999,-0.7165915616999999,0.006
10:03:06,0.232411595,0.384310605,-1.4070315599999998,0.96410934,-0.030112765,-0.23140443,31.62208965,-21.92091915,-29.98205759,-81.40337964,-0.831737261,0.3469128931499999,-0.04010468787,0.5287028155,-0.06597796711,-0.7156842690499999,0.006
10:03:06,0.23317736,0.38307024,-1.4101182799999998,0.96229292,-0.03020332,-0.22945484,31.6321592,-21.9401992,-29.96194292,-81.35369032,-0.835423968,0.3461591072,-0.04290420856,0.528149564,-0.06583098568,-0.7147769763999999,0.006
10:03:06,0.233943125,0.381829875,-1.413205,0.9604765,-0.0302938749999999,-0.22750525,31.64222875,-21.95947925,-29.94182825,-81.304001,-0.839110675,0.34540532125,-0.04570372925,0.5275963125,-0.06568400425,-0.71386968375,0.006
10:03:06,0.23470889,0.38058951,-1.41629172,0.95866008,-0.03038443,-0.22555566,31.6522983,-21.9787593,-29.92171358,-81.25431168,-0.842797382,0.3446515353,-0.04850324994,0.527043061,-0.06553702282,-0.7129623911,0.006
10:03:06,0.2354746549999999,0.379349145,-1.41937844,0.95684366,-0.030474985,-0.22360607,31.66236785,-21.998039350000003,-29.90159891,-81.20462236,-0.846484089,0.34389774935,-0.0513027706299999,0.5264898095,-0.06539004139,-0.71205509845,0.006
10:03:06,0.23624042,0.37810878,-1.42246516,0.95502724,-0.03056554,-0.22165648,31.6724374,-22.0173194,-29.88148424,-81.15493304,-0.850170796,0.3431439634,-0.0541022913199999,0.525936558,-0.06524305996,-0.7111478058,0.006
10:03:06,0.2370061849999999,0.376868415,-1.42555188,0.95321082,-0.030656095,-0.21970689,31.68250695,-22.03659945,-29.86136957,-81.10524372,-0.853857503,0.34239017745,-0.05690181201,0.5253833065,-0.06509607853,-0.71024051315,0.006
10:03:06,0.2377719499999999,0.37562805,-1.4286386,0.9513944,-0.03074665,-0.2177573,31.6925765,-22.0558795,-29.8412549,-81.05555439999999,-0.85754421,0.3416363914999999,-0.0597013327,0.524830055,-0.0649490970999999,-0.7093332205,0.006
10:03:06,0.2385377149999999,0.374387685,-1.43172532,0.94957798,-0.030837205,-0.21580771,31.70264605,-22.07515955,-29.82114023,-81.00586507999999,-0.861230917,0.34088260555,-0.06250085339,0.5242768035,-0.06480211567,-0.70842592785,0.006
10:03:06,0.2393034799999999,0.37314732,-1.43481204,0.94776156,-0.03092776,-0.21385812,31.7127156,-22.0944396,-29.80102556,-80.95617576,-0.864917624,0.3401288195999999,-0.06530037408,0.523723552,-0.06465513424,-0.7075186352,0.006
10:03:06,0.240069245,0.371906955,-1.43789876,0.94594514,-0.031018315,-0.21190853,31.72278515,-22.11371965,-29.78091089,-80.90648644,-0.868604331,0.33937503365,-0.06809989477,0.5231703005,-0.06450815281,-0.70661134255,0.006
10:03:06,0.24083501,0.37066659,-1.44098548,0.94412872,-0.03110887,-0.20995894,31.7328547,-22.132999700000003,-29.76079622,-80.85679712,-0.872291038,0.3386212476999999,-0.07089941546,0.522617049,-0.06436117138,-0.7057040499,0.006
10:03:06,0.241600775,0.369426225,-1.4440722,0.9423123,-0.031199425,-0.20800935,31.74292425,-22.15227975,-29.74068155,-80.8071078,-0.875977745,0.33786746175,-0.07369893615,0.5220637975,-0.06421418995,-0.70479675725,0.006
10:03:06,0.24236654,0.36818586,-1.44715892,0.94049588,-0.03128998,-0.20605976,31.7529938,-22.1715598,-29.72056688,-80.75741848,-0.879664452,0.3371136757999999,-0.07649845684,0.521510546,-0.06406720852,-0.7038894646,0.006
10:03:06,0.243132305,0.366945495,-1.45024564,0.93867946,-0.031380535,-0.20411017,31.76306335,-22.19083985,-29.70045221,-80.70772916,-0.883351159,0.33635988985,-0.07929797753,0.5209572945000001,-0.06392022709,-0.70298217195,0.006
10:03:06,0.24389807,0.36570513,-1.45333236,0.93686304,-0.03147109,-0.20216058,31.7731329,-22.2101199,-29.68033754,-80.65803984,-0.887037866,0.3356061039,-0.08209749822,0.520404043,-0.06377324566,-0.7020748793,0.006
10:03:06,0.244663835,0.364464765,-1.45641908,0.93504662,-0.031561645,-0.20021099,31.78320245,-22.22939995,-29.66022287,-80.60835052,-0.890724573,0.33485231795,-0.08489701891,0.5198507915,-0.06362626423,-0.70116758665,0.006
10:03:06,0.2454296,0.3632244,-1.4595058,0.9332302,-0.0316522,-0.1982614,31.793272,-22.24868,-29.6401082,-80.5586612,-0.89441128,0.334098532,-0.0876965396,0.51929754,-0.0634792828,-0.700260294,0.006
10:03:06,0.246195365,0.361984035,-1.4625925199999998,0.93141378,-0.031742755,-0.19631181,31.80334155,-22.26796005,-29.61999353,-80.50897188,-0.898097987,0.33334474605,-0.09049606029,0.5187442885,-0.06333230137,-0.69935300135,0.006
10:03:06,0.24696113,0.36074367,-1.46567924,0.92959736,-0.03183331,-0.19436222,31.8134111,-22.2872401,-29.59987886,-80.45928255999999,-0.901784694,0.3325909601,-0.09329558098,0.518191037,-0.06318531994,-0.6984457087,0.006
10:03:06,0.247726895,0.359503305,-1.46876596,0.92778094,-0.031923865,-0.19241263,31.82348065,-22.30652015,-29.57976419,-80.40959323999999,-0.905471401,0.3318371741499999,-0.09609510167,0.5176377855,-0.06303833851,-0.69753841605,0.006
10:03:06,0.2484926599999999,0.35826294,-1.47185268,0.92596452,-0.03201442,-0.19046304,31.8335502,-22.3258002,-29.55964952,-80.35990392,-0.909158108,0.3310833882,-0.09889462236,0.517084534,-0.06289135708,-0.6966311234,0.006
10:03:06,0.249258425,0.357022575,-1.4749394,0.9241481,-0.032104975,-0.18851345,31.84361975,-22.34508025,-29.53953485,-80.3102146,-0.912844815,0.3303296022499999,-0.10169414305,0.5165312825,-0.06274437565,-0.69572383075,0.006
10:03:06,0.25002419,0.35578221,-1.47802612,0.92233168,-0.03219553,-0.18656386,31.8536893,-22.3643603,-29.51942018,-80.26052528,-0.916531522,0.3295758163,-0.10449366374,0.515978031,-0.0625973942199999,-0.6948165381,0.006
10:03:06,0.250789955,0.354541845,-1.48111284,0.92051526,-0.032286085,-0.18461427,31.86375885,-22.38364035,-29.49930551,-80.21083596,-0.920218229,0.3288220303499999,-0.10729318443,0.5154247795,-0.06245041279,-0.69390924545,0.006
10:03:06,0.25155572,0.35330148,-1.48419956,0.91869884,-0.03237664,-0.18266468,31.8738284,-22.4029204,-29.47919084,-80.16114664,-0.923904936,0.3280682444,-0.11009270512,0.514871528,-0.0623034313599999,-0.6930019528,0.006
10:03:06,0.252321485,0.352061115,-1.48728628,0.91688242,-0.032467195,-0.18071509,31.88389795,-22.42220045,-29.45907617,-80.11145732,-0.927591643,0.3273144584499999,-0.11289222581,0.5143182765,-0.0621564499299999,-0.69209466015,0.006
10:03:06,0.25308725,0.35082075,-1.490373,0.915066,-0.0325577499999999,-0.1787655,31.8939675,-22.4414805,-29.4389615,-80.061768,-0.93127835,0.3265606725,-0.1156917465,0.513765025,-0.0620094685,-0.6911873675,0.006
10:03:06,0.253853015,0.349580385,-1.49345972,0.91324958,-0.032648305,-0.17681591,31.90403705,-22.46076055,-29.41884683,-80.01207868,-0.934965057,0.32580688655,-0.11849126719,0.5132117735,-0.06186248707,-0.69028007485,0.006
10:03:06,0.25461878,0.34834002,-1.49654644,0.91143316,-0.03273886,-0.17486632,31.9141066,-22.4800406,-29.39873216,-79.96238936,-0.938651764,0.3250531006,-0.12129078788,0.512658522,-0.06171550564,-0.6893727822,0.006
10:03:06,0.2553845449999999,0.347099655,-1.49963316,0.90961674,-0.032829415,-0.17291673,31.92417615,-22.49932065,-29.37861749,-79.91270004,-0.942338471,0.32429931465,-0.12409030857,0.5121052705,-0.0615685242099999,-0.68846548955,0.006
10:03:06,0.25615031,0.34585929,-1.50271988,0.90780032,-0.03291997,-0.17096714,31.9342457,-22.5186007,-29.35850282,-79.86301071999999,-0.946025178,0.3235455287,-0.1268898292599999,0.511552019,-0.06142154278,-0.6875581969,0.006
10:03:06,0.256916075,0.344618925,-1.5058066,0.9059839,-0.033010525,-0.16901755,31.94431525,-22.53788075,-29.33838815,-79.81332139999999,-0.949711885,0.32279174275,-0.1296893499499999,0.5109987675,-0.06127456135,-0.68665090425,0.006
10:03:06,0.25768184,0.34337856,-1.50889332,0.90416748,-0.03310108,-0.16706796,31.9543848,-22.5571608,-29.31827348,-79.76363208,-0.953398592,0.3220379567999999,-0.1324888706399999,0.510445516,-0.06112757992,-0.6857436116,0.006
10:03:06,0.2584476049999999,0.342138195,-1.51198004,0.90235106,-0.033191635,-0.16511837,31.96445435,-22.57644085,-29.29815881,-79.71394276,-0.957085299,0.32128417085,-0.1352883913299999,0.5098922645,-0.0609805984899999,-0.68483631895,0.006
10:03:06,0.25921337,0.34089783,-1.5150667599999998,0.9005346399999999,-0.03328219,-0.16316878,31.9745239,-22.5957209,-29.27804414,-79.66425344,-0.960772006,0.3205303848999999,-0.1380879120199999,0.509339013,-0.06083361706,-0.6839290263,0.006
10:03:06,0.259979135,0.339657465,-1.51815348,0.89871822,-0.033372745,-0.16121919,31.98459345,-22.61500095,-29.25792947,-79.61456412,-0.964458713,0.31977659895,-0.1408874327099999,0.5087857615,-0.06068663563,-0.68302173365,0.006
10:03:06,0.2607449,0.3384171,-1.5212402,0.8969018,-0.0334633,-0.1592696,31.994663,-22.634281,-29.2378148,-79.5648748,-0.96814542,0.3190228129999999,-0.1436869533999999,0.50823251,-0.0605396542,-0.682114441,0.006
10:03:06,0.261510665,0.337176735,-1.52432692,0.89508538,-0.033553855,-0.15732001,32.00473255,-22.65356105,-29.21770013,-79.51518548,-0.971832127,0.31826902705,-0.1464864740899999,0.5076792585,-0.06039267277,-0.68120714835,0.006
10:03:06,0.26227643,0.33593637,-1.52741364,0.89326896,-0.03364441,-0.15537042,32.0148021,-22.6728411,-29.19758546,-79.46549616,-0.975518834,0.3175152410999999,-0.14928599478,0.507126007,-0.06024569134,-0.6802998557,0.006
10:03:06,0.263042195,0.334696005,-1.53050036,0.89145254,-0.033734965,-0.15342083,32.02487165,-22.69212115,-29.17747079,-79.41580684,-0.979205541,0.31676145515,-0.15208551547,0.5065727555,-0.06009870991,-0.67939256305,0.006
10:03:06,0.26380796,0.33345564,-1.53358708,0.88963612,-0.03382552,-0.15147124,32.0349412,-22.7114012,-29.15735612,-79.36611752,-0.982892248,0.3160076692,-0.15488503616,0.506019504,-0.05995172848,-0.6784852704,0.006
10:03:06,0.264573725,0.332215275,-1.5366738,0.8878197,-0.033916075,-0.14952165,32.04501075,-22.73068125,-29.13724145,-79.31642819999999,-0.986578955,0.31525388325,-0.15768455685,0.5054662525,-0.0598047470499999,-0.67757797775,0.006
10:03:06,0.26533949,0.33097491,-1.53976052,0.88600328,-0.03400663,-0.14757206,32.0550803,-22.7499613,-29.11712678,-79.26673887999999,-0.990265662,0.3145000973,-0.16048407754,0.504913001,-0.05965776562,-0.6766706851,0.006
10:03:06,0.266105255,0.329734545,-1.54284724,0.88418686,-0.034097185,-0.14562247,32.06514985,-22.76924135,-29.09701211,-79.21704955999999,-0.993952369,0.31374631135,-0.16328359823,0.5043597495,-0.05951078419,-0.67576339245,0.006
10:03:06,0.26687102,0.32849418,-1.54593396,0.88237044,-0.03418774,-0.14367288,32.0752194,-22.7885214,-29.07689744,-79.16736024,-0.997639076,0.3129925254,-0.16608311892,0.503806498,-0.05936380276,-0.6748560997999999,0.006
10:03:06,0.267636785,0.327253815,-1.54902068,0.8805540199999999,-0.034278295,-0.14172329,32.08528895,-22.80780145,-29.05678277,-79.11767092,-1.001325783,0.3122387394499999,-0.16888263961,0.5032532465,-0.05921682133,-0.6739488071499999,0.006
10:03:06,0.26840255,0.32601345,-1.5521074,0.8787376,-0.03436885,-0.1397737,32.0953585,-22.8270815,-29.0366681,-79.0679816,-1.00501249,0.3114849535,-0.1716821603,0.502699995,-0.0590698399,-0.6730415144999999,0.006
10:03:06,0.269168315,0.324773085,-1.55519412,0.87692118,-0.034459405,-0.13782411,32.10542805,-22.84636155,-29.01655343,-79.01829228,-1.008699197,0.3107311675499999,-0.17448168099,0.5021467435,-0.05892285847,-0.6721342218499999,0.006
10:03:06,0.2699340799999999,0.32353272,-1.55828084,0.8751047599999999,-0.03454996,-0.13587452,32.1154976,-22.8656416,-28.99643876,-78.96860296,-1.012385904,0.3099773816,-0.17728120168,0.501593492,-0.05877587704,-0.6712269291999999,0.006
10:03:06,0.270699845,0.322292355,-1.56136756,0.87328834,-0.034640515,-0.13392493,32.12556715,-22.88492165,-28.97632409,-78.91891364,-1.016072611,0.3092235956499999,-0.18008072237,0.5010402405,-0.0586288956099999,-0.6703196365499999,0.006
10:03:06,0.27146561,0.32105199,-1.56445428,0.87147192,-0.03473107,-0.13197534,32.1356367,-22.9042017,-28.95620942,-78.86922432,-1.019759318,0.3084698097,-0.18288024306,0.500486989,-0.05848191418,-0.6694123438999999,0.006
10:03:06,0.272231375,0.319811625,-1.567541,0.8696555,-0.034821625,-0.13002575,32.14570625,-22.92348175,-28.93609475,-78.819535,-1.023446025,0.3077160237499999,-0.18567976375,0.4999337375,-0.05833493275,-0.6685050512499999,0.006
10:03:06,0.2729971399999999,0.31857126,-1.57062772,0.86783908,-0.03491218,-0.12807616,32.1557758,-22.9427618,-28.91598008,-78.76984568,-1.027132732,0.3069622378,-0.18847928444,0.499380486,-0.05818795132,-0.6675977585999999,0.006
10:03:06,0.273762905,0.317330895,-1.57371444,0.86602266,-0.035002735,-0.12612657,32.16584535,-22.96204185,-28.89586541,-78.72015635999999,-1.030819439,0.30620845185,-0.19127880513,0.4988272345,-0.05804096989,-0.6666904659499999,0.006
10:03:06,0.27452867,0.31609053,-1.57680116,0.86420624,-0.03509329,-0.12417698,32.1759149,-22.9813219,-28.87575074,-78.67046703999999,-1.034506146,0.3054546659,-0.19407832582,0.498273983,-0.05789398846,-0.6657831732999999,0.006
10:03:06,0.275294435,0.314850165,-1.57988788,0.86238982,-0.035183845,-0.12222739,32.18598445,-23.00060195,-28.85563607,-78.62077771999999,-1.038192853,0.30470087995,-0.19687784651,0.4977207315,-0.05774700703,-0.6648758806499999,0.006
10:03:06,0.2760602,0.3136098,-1.5829746,0.8605734,-0.0352744,-0.1202778,32.196054000000004,-23.019882,-28.8355214,-78.5710884,-1.04187956,0.303947094,-0.1996773672,0.49716748,-0.0576000256,-0.6639685879999999,0.006
10:03:06,0.276825965,0.312369435,-1.58606132,0.85875698,-0.035364955,-0.11832821,32.20612355,-23.03916205,-28.81540673,-78.52139908,-1.045566267,0.30319330805,-0.20247688789,0.4966142285,-0.05745304417,-0.66306129535,0.006
10:03:06,0.27759173,0.31112907,-1.58914804,0.85694056,-0.03545551,-0.11637862,32.2161931,-23.0584421,-28.79529206,-78.47170976,-1.049252974,0.3024395220999999,-0.20527640858,0.496060977,-0.05730606274,-0.6621540027,0.006
10:03:06,0.278357495,0.309888705,-1.59223476,0.85512414,-0.035546065,-0.11442903,32.22626265,-23.07772215,-28.77517739,-78.42202044,-1.052939681,0.30168573615,-0.20807592927,0.4955077255,-0.05715908131,-0.66124671005,0.006
10:03:06,0.27912326,0.30864834,-1.59532148,0.85330772,-0.03563662,-0.11247944,32.2363322,-23.0970022,-28.75506272,-78.37233112,-1.056626388,0.3009319501999999,-0.21087544996,0.494954474,-0.05701209988,-0.6603394174,0.006
10:03:06,0.279889025,0.307407975,-1.5984082,0.8514913,-0.035727175,-0.11052985,32.246401750000004,-23.11628225,-28.73494805,-78.3226418,-1.060313095,0.30017816425,-0.21367497065,0.4944012224999999,-0.05686511845,-0.65943212475,0.006
10:03:06,0.28065479,0.30616761,-1.60149492,0.84967488,-0.03581773,-0.10858026,32.2564713,-23.1355623,-28.71483338,-78.27295248,-1.063999802,0.2994243782999999,-0.21647449134,0.493847971,-0.05671813702,-0.6585248321,0.006
10:03:06,0.2814205549999999,0.304927245,-1.60458164,0.84785846,-0.035908285,-0.10663067,32.26654085,-23.15484235,-28.69471871,-78.22326316,-1.067686509,0.29867059235,-0.21927401203,0.4932947195,-0.05657115559,-0.65761753945,0.006
10:03:06,0.28218632,0.30368688,-1.60766836,0.8460420399999999,-0.03599884,-0.10468108,32.2766104,-23.1741224,-28.67460404,-78.17357383999999,-1.071373216,0.2979168063999999,-0.22207353272,0.4927414679999999,-0.05642417416,-0.6567102468,0.006
10:03:06,0.282952085,0.302446515,-1.61075508,0.84422562,-0.036089395,-0.10273149,32.28667995,-23.19340245,-28.65448937,-78.12388451999999,-1.075059923,0.29716302045,-0.22487305341,0.4921882165,-0.05627719273,-0.65580295415,0.006
10:03:06,0.28371785,0.30120615,-1.6138418,0.8424092,-0.03617995,-0.1007819,32.296749500000004,-23.2126825,-28.6343747,-78.07419519999999,-1.07874663,0.2964092345,-0.2276725741,0.491634965,-0.0561302112999999,-0.6548956615,0.006
10:03:06,0.2844836149999999,0.299965785,-1.61692852,0.8405927799999999,-0.036270505,-0.09883231,32.30681905,-23.23196255,-28.61426003,-78.02450587999999,-1.082433337,0.29565544855,-0.23047209479,0.4910817134999999,-0.05598322987,-0.65398836885,0.006
10:03:06,0.28524938,0.29872542,-1.62001524,0.83877636,-0.03636106,-0.09688272,32.3168886,-23.2512426,-28.59414536,-77.97481656,-1.086120044,0.2949016625999999,-0.23327161548,0.490528462,-0.05583624844,-0.6530810762,0.006
10:03:06,0.286015145,0.297485055,-1.62310196,0.83695994,-0.036451615,-0.09493313,32.32695815,-23.27052265,-28.57403069,-77.92512724,-1.089806751,0.29414787665,-0.23607113617,0.4899752105,-0.05568926701,-0.65217378355,0.006
10:03:06,0.28678091,0.29624469,-1.62618868,0.83514352,-0.03654217,-0.09298354,32.3370277,-23.2898027,-28.55391602,-77.87543792,-1.093493458,0.2933940907,-0.23887065686,0.4894219589999999,-0.05554228558,-0.6512664909,0.006
10:03:06,0.287546675,0.295004325,-1.6292754,0.8333271,-0.036632725,-0.09103395,32.347097250000004,-23.30908275,-28.53380135,-77.8257486,-1.097180165,0.2926403047499999,-0.24167017755,0.4888687075,-0.05539530415,-0.65035919825,0.006
10:03:06,0.28831244,0.29376396,-1.63236212,0.8315106800000001,-0.03672328,-0.08908436,32.3571668,-23.3283628,-28.51368668,-77.77605928,-1.100866872,0.2918865188,-0.24446969824,0.488315456,-0.05524832272,-0.6494519056,0.006
10:03:06,0.289078205,0.292523595,-1.63544884,0.82969426,-0.036813835,-0.08713477,32.36723635,-23.34764285,-28.49357201,-77.72636996,-1.104553579,0.2911327328499999,-0.24726921893,0.4877622044999999,-0.05510134129,-0.64854461295,0.006
10:03:06,0.28984397,0.29128323,-1.63853556,0.82787784,-0.03690439,-0.08518518,32.3773059,-23.3669229,-28.47345734,-77.67668064,-1.108240286,0.2903789469,-0.25006873962,0.487208953,-0.05495435986,-0.6476373203,0.006
10:03:06,0.290609735,0.290042865,-1.64162228,0.82606142,-0.036994945,-0.08323559,32.38737545,-23.38620295,-28.45334267,-77.62699132,-1.111926993,0.2896251609499999,-0.25286826031,0.4866557015,-0.05480737843,-0.64673002765,0.006
10:03:06,0.2913755,0.2888025,-1.644709,0.824245,-0.0370855,-0.081286,32.397445000000005,-23.405483,-28.433228,-77.577302,-1.1156137,0.288871375,-0.255667781,0.4861024499999999,-0.054660397,-0.645822735,0.006
10:03:06,0.292141265,0.287562135,-1.64779572,0.82242858,-0.037176055,-0.07933641,32.40751455,-23.42476305,-28.41311333,-77.52761267999999,-1.119300407,0.2881175890499999,-0.25846730169,0.4855491985,-0.05451341557,-0.64491544235,0.006
10:03:06,0.29290703,0.28632177,-1.65088244,0.82061216,-0.03726661,-0.07738682,32.4175841,-23.4440431,-28.39299866,-77.47792335999999,-1.1229871139999998,0.2873638031,-0.26126682238,0.484995947,-0.05436643414,-0.6440081497,0.006
10:03:06,0.293672795,0.285081405,-1.65396916,0.81879574,-0.037357165,-0.07543723,32.42765365,-23.46332315,-28.37288399,-77.42823403999999,-1.126673821,0.28661001715,-0.26406634307,0.4844426954999999,-0.05421945271,-0.64310085705,0.006
10:03:06,0.29443856,0.28384104,-1.65705588,0.81697932,-0.03744772,-0.07348764,32.4377232,-23.4826032,-28.35276932,-77.37854472,-1.130360528,0.2858562312,-0.26686586376,0.483889444,-0.05407247128,-0.6421935644,0.006
10:03:06,0.295204325,0.282600675,-1.6601426,0.8151629,-0.037538275,-0.07153805,32.44779275,-23.50188325,-28.33265465,-77.3288554,-1.134047235,0.2851024452499999,-0.26966538445,0.4833361925,-0.05392548985,-0.64128627175,0.006
10:03:06,0.2959700899999999,0.28136031,-1.66322932,0.81334648,-0.03762883,-0.06958846,32.4578623,-23.5211633,-28.31253998,-77.27916608,-1.137733942,0.2843486593,-0.27246490514,0.4827829409999999,-0.05377850842,-0.6403789791,0.006
10:03:06,0.296735855,0.280119945,-1.66631604,0.8115300599999999,-0.037719385,-0.06763887,32.46793185,-23.54044335,-28.29242531,-77.22947676,-1.141420649,0.28359487335,-0.27526442583,0.4822296895,-0.05363152699,-0.63947168645,0.006
10:03:06,0.29750162,0.27887958,-1.66940276,0.80971364,-0.03780994,-0.06568928,32.478001400000004,-23.5597234,-28.27231064,-77.17978744,-1.145107356,0.2828410873999999,-0.27806394652,0.481676438,-0.05348454556,-0.6385643938,0.006
10:03:06,0.298267385,0.277639215,-1.67248948,0.80789722,-0.037900495,-0.06373969,32.48807095,-23.57900345,-28.25219597,-77.13009812,-1.148794063,0.28208730145,-0.28086346721,0.4811231864999999,-0.05333756413,-0.63765710115,0.006
10:03:06,0.2990331499999999,0.27639885,-1.6755762,0.8060807999999999,-0.03799105,-0.0617901,32.4981405,-23.5982835,-28.2320813,-77.0804088,-1.15248077,0.2813335154999999,-0.2836629879,0.480569935,-0.0531905827,-0.6367498085,0.006
10:03:06,0.299798915,0.275158485,-1.67866292,0.80426438,-0.038081605,-0.05984051,32.50821005,-23.61756355,-28.21196663,-77.03071948,-1.156167477,0.28057972955,-0.28646250859,0.4800166835,-0.05304360127,-0.63584251585,0.006
10:03:06,0.30056468,0.27391812,-1.68174964,0.80244796,-0.03817216,-0.05789092,32.5182796,-23.6368436,-28.19185196,-76.98103015999999,-1.1598541839999998,0.2798259436,-0.28926202928,0.4794634319999999,-0.05289661984,-0.6349352232,0.006
10:03:06,0.301330445,0.272677755,-1.68483636,0.80063154,-0.038262715,-0.05594133,32.528349150000004,-23.65612365,-28.17173729,-76.93134083999999,-1.163540891,0.27907215765,-0.29206154997,0.4789101805,-0.05274963841,-0.63402793055,0.006
10:03:06,0.30209621,0.27143739,-1.68792308,0.79881512,-0.03835327,-0.05399174,32.5384187,-23.6754037,-28.15162262,-76.88165151999999,-1.167227598,0.2783183716999999,-0.29486107066,0.478356929,-0.05260265698,-0.6331206379,0.006
10:03:06,0.302861975,0.270197025,-1.6910098,0.7969987000000001,-0.038443825,-0.05204215,32.54848825,-23.69468375,-28.13150795,-76.83196219999999,-1.170914305,0.27756458575,-0.29766059135,0.4778036774999999,-0.05245567555,-0.63221334525,0.006
10:03:06,0.30362774,0.26895666,-1.69409652,0.79518228,-0.03853438,-0.05009256,32.5585578,-23.7139638,-28.11139328,-76.78227288,-1.174601012,0.2768107998,-0.30046011204,0.477250426,-0.05230869412,-0.6313060526,0.006
10:03:06,0.304393505,0.267716295,-1.69718324,0.79336586,-0.038624935,-0.04814297,32.56862735,-23.73324385,-28.09127861,-76.73258356,-1.178287719,0.27605701385,-0.30325963273,0.4766971745,-0.05216171269,-0.6303987599499999,0.006
10:03:06,0.30515927,0.26647593,-1.70026996,0.79154944,-0.03871549,-0.04619338,32.578696900000004,-23.7525239,-28.07116394,-76.68289424,-1.181974426,0.2753032278999999,-0.30605915342,0.4761439229999999,-0.05201473126,-0.6294914672999999,0.006
10:03:06,0.305925035,0.265235565,-1.70335668,0.78973302,-0.038806045,-0.04424379,32.58876645,-23.77180395,-28.05104927,-76.63320492,-1.185661133,0.27454944195,-0.30885867411,0.4755906715,-0.05186774983,-0.6285841746499999,0.006
10:03:06,0.3066908,0.2639952,-1.7064434,0.7879166,-0.0388966,-0.0422942,32.598836,-23.791084,-28.0309346,-76.5835156,-1.18934784,0.273795656,-0.3116581948,0.47503742,-0.0517207684,-0.6276768819999999,0.006
10:03:06,0.307456565,0.262754835,-1.70953012,0.78610018,-0.038987155,-0.04034461,32.60890555,-23.81036405,-28.01081993,-76.53382628,-1.193034547,0.2730418700499999,-0.31445771549,0.4744841684999999,-0.05157378697,-0.6267695893499999,0.006
10:03:06,0.30822233,0.26151447,-1.71261684,0.78428376,-0.03907771,-0.03839502,32.6189751,-23.8296441,-27.99070526,-76.48413696,-1.1967212539999998,0.2722880841,-0.31725723618,0.473930917,-0.05142680554,-0.6258622966999999,0.006
10:03:06,0.308988095,0.260274105,-1.71570356,0.78246734,-0.039168265,-0.03644543,32.629044650000004,-23.84892415,-27.97059059,-76.43444764,-1.200407961,0.2715342981499999,-0.32005675687,0.4733776655,-0.05127982411,-0.6249550040499999,0.006
10:03:06,0.30975386,0.25903374,-1.71879028,0.78065092,-0.03925882,-0.03449584,32.6391142,-23.8682042,-27.95047592,-76.38475831999999,-1.204094668,0.2707805122,-0.32285627756,0.4728244139999999,-0.05113284268,-0.6240477113999999,0.006
10:03:06,0.3105196249999999,0.257793375,-1.721877,0.7788345,-0.039349375,-0.03254625,32.64918375,-23.88748425,-27.93036125,-76.33506899999999,-1.207781375,0.27002672625,-0.32565579825,0.4722711625,-0.05098586125,-0.62314041875,0.006
10:03:06,0.31128539,0.2565530099999999,-1.72496372,0.7770180799999999,-0.03943993,-0.03059666,32.6592533,-23.9067643,-27.91024658,-76.28537967999999,-1.211468082,0.2692729403,-0.32845531894,0.471717911,-0.05083887982,-0.6222331261,0.006
10:03:06,0.312051155,0.255312645,-1.72805044,0.77520166,-0.039530485,-0.02864707,32.66932285,-23.92604435,-27.89013191,-76.23569035999999,-1.215154789,0.2685191543499999,-0.33125483963,0.4711646594999999,-0.05069189839,-0.62132583345,0.006
10:03:06,0.31281692,0.25407228,-1.73113716,0.77338524,-0.03962104,-0.02669748,32.679392400000005,-23.9453244,-27.87001724,-76.18600104,-1.218841496,0.2677653684,-0.33405436032,0.470611408,-0.05054491696,-0.6204185408,0.006
10:03:06,0.3135826849999999,0.252831915,-1.73422388,0.7715688199999999,-0.039711595,-0.02474789,32.68946195,-23.96460445,-27.84990257,-76.13631172,-1.222528203,0.26701158245,-0.33685388101,0.4700581565,-0.05039793553,-0.61951124815,0.006
10:03:06,0.31434845,0.25159155,-1.7373106,0.7697524,-0.03980215,-0.0227983,32.6995315,-23.9838845,-27.8297879,-76.0866224,-1.22621491,0.2662577965,-0.3396534017,0.469504905,-0.0502509541,-0.6186039555,0.006
10:03:06,0.315114215,0.250351185,-1.74039732,0.76793598,-0.039892705,-0.02084871,32.70960105,-24.00316455,-27.80967323,-76.03693308,-1.229901617,0.2655040105499999,-0.34245292239,0.4689516535,-0.05010397267,-0.61769666285,0.006
10:03:06,0.31587998,0.24911082,-1.74348404,0.76611956,-0.03998326,-0.01889912,32.7196706,-24.0224446,-27.78955856,-75.98724376,-1.2335883239999998,0.2647502246,-0.34525244308,0.468398402,-0.04995699124,-0.6167893702,0.006
10:03:06,0.316645745,0.247870455,-1.74657076,0.76430314,-0.040073815,-0.01694953,32.729740150000005,-24.04172465,-27.76944389,-75.93755444,-1.237275031,0.26399643865,-0.34805196377,0.4678451505,-0.04981000981,-0.61588207755,0.006
10:03:06,0.31741151,0.24663009,-1.74965748,0.7624867200000001,-0.04016437,-0.01499994,32.7398097,-24.0610047,-27.74932922,-75.88786512,-1.240961738,0.2632426526999999,-0.35085148446,0.467291899,-0.04966302838,-0.6149747849,0.006
10:03:06,0.318177275,0.245389725,-1.7527442,0.7606703,-0.040254925,-0.01305035,32.74987925,-24.08028475,-27.72921455,-75.83817579999999,-1.244648445,0.26248886675,-0.35365100515,0.4667386475,-0.04951604695,-0.61406749225,0.006
10:03:06,0.31894304,0.24414936,-1.75583092,0.75885388,-0.04034548,-0.01110076,32.759948800000004,-24.0995648,-27.70909988,-75.78848647999999,-1.248335152,0.2617350807999999,-0.35645052584,0.466185396,-0.04936906552,-0.6131601996,0.006
10:03:06,0.319708805,0.242908995,-1.75891764,0.75703746,-0.040436035,-0.00915117,32.77001835,-24.11884485,-27.68898521,-75.73879715999999,-1.252021859,0.26098129485,-0.35925004653,0.4656321445,-0.04922208409,-0.61225290695,0.006
10:03:06,0.32047457,0.24166863,-1.76200436,0.75522104,-0.04052659,-0.00720158,32.7800879,-24.1381249,-27.66887054,-75.68910783999999,-1.255708566,0.2602275089,-0.36204956722,0.465078893,-0.04907510266,-0.6113456143,0.006
10:03:06,0.321240335,0.240428265,-1.76509108,0.75340462,-0.040617145,-0.00525199,32.79015745,-24.15740495,-27.64875587,-75.63941851999999,-1.259395273,0.25947372295,-0.36484908791,0.4645256415,-0.04892812123,-0.61043832165,0.006
10:03:06,0.3220061,0.2391879,-1.7681778,0.7515882,-0.0407077,-0.0033024,32.800227,-24.176685,-27.6286412,-75.5897292,-1.26308198,0.2587199369999999,-0.3676486086,0.46397239,-0.0487811398,-0.609531029,0.006
10:03:06,0.322771865,0.237947535,-1.77126452,0.74977178,-0.040798255,-0.00135281,32.810296550000004,-24.19596505,-27.60852653,-75.54003988,-1.266768687,0.25796615105,-0.37044812929,0.4634191385,-0.04863415837,-0.60862373635,0.006
10:03:06,0.32353763,0.23670717,-1.77435124,0.74795536,-0.04088881,0.0005967799999999,32.8203661,-24.2152451,-27.58841186,-75.49035056,-1.2704553939999998,0.2572123651,-0.37324764998,0.462865887,-0.04848717694,-0.6077164437,0.006
10:03:06,0.324303395,0.235466805,-1.77743796,0.74613894,-0.040979365,0.0025463699999999,32.83043565,-24.23452515,-27.56829719,-75.44066124,-1.2741421009999998,0.25645857915,-0.37604717067,0.4623126354999999,-0.04834019551,-0.60680915105,0.006
10:03:06,0.3250691599999999,0.23422644,-1.78052468,0.74432252,-0.04106992,0.0044959599999999,32.8405052,-24.2538052,-27.54818252,-75.39097192,-1.277828808,0.2557047931999999,-0.37884669136,0.461759384,-0.04819321408,-0.6059018584,0.006
10:03:06,0.325834925,0.232986075,-1.7836114,0.7425061,-0.041160475,0.0064455499999999,32.85057475,-24.27308525,-27.52806785,-75.3412826,-1.281515515,0.25495100725,-0.38164621205,0.4612061325,-0.04804623265,-0.60499456575,0.006
10:03:06,0.32660069,0.23174571,-1.78669812,0.74068968,-0.04125103,0.0083951399999999,32.860644300000004,-24.2923653,-27.50795318,-75.29159328,-1.285202222,0.2541972213,-0.38444573274,0.4606528809999999,-0.04789925122,-0.6040872731,0.006
10:03:06,0.327366455,0.230505345,-1.78978484,0.7388732600000001,-0.041341585,0.0103447299999999,32.87071385,-24.31164535,-27.48783851,-75.24190396,-1.288888929,0.2534434353499999,-0.38724525343,0.4600996295,-0.04775226979,-0.60317998045,0.006
10:03:06,0.32813222,0.22926498,-1.79287156,0.7370568399999999,-0.04143214,0.0122943199999999,32.8807834,-24.3309254,-27.46772384,-75.19221463999999,-1.292575636,0.2526896494,-0.39004477412,0.459546378,-0.04760528836,-0.6022726878,0.006
10:03:06,0.328897985,0.228024615,-1.79595828,0.73524042,-0.041522695,0.0142439099999999,32.89085295,-24.35020545,-27.44760917,-75.14252531999999,-1.296262343,0.2519358634499999,-0.39284429481,0.4589931264999999,-0.04745830693,-0.60136539515,0.006
10:03:06,0.32966375,0.22678425,-1.799045,0.7334240000000001,-0.04161325,0.0161934999999999,32.9009225,-24.3694855,-27.4274945,-75.09283599999999,-1.29994905,0.2511820775,-0.3956438155,0.458439875,-0.0473113255,-0.6004581025,0.006
10:03:06,0.330429515,0.225543885,-1.80213172,0.7316075799999999,-0.041703805,0.0181430899999999,32.910992050000004,-24.38876555,-27.40737983,-75.04314667999999,-1.303635757,0.25042829155,-0.39844333619,0.4578866235,-0.04716434407,-0.59955080985,0.006
10:03:06,0.33119528,0.22430352,-1.80521844,0.72979116,-0.04179436,0.0200926799999999,32.9210616,-24.4080456,-27.38726516,-74.99345736,-1.307322464,0.2496745055999999,-0.40124285688,0.4573333719999999,-0.04701736264,-0.5986435172,0.006
10:03:06,0.331961045,0.223063155,-1.80830516,0.7279747400000001,-0.041884915,0.0220422699999999,32.93113115,-24.42732565,-27.36715049,-74.94376804,-1.3110091709999998,0.2489207196499999,-0.40404237757,0.4567801204999999,-0.04687038121,-0.59773622455,0.006
10:03:06,0.33272681,0.22182279,-1.81139188,0.72615832,-0.04197547,0.0239918599999999,32.9412007,-24.4466057,-27.34703582,-74.89407872,-1.314695878,0.2481669336999999,-0.40684189826,0.456226869,-0.04672339978,-0.5968289319,0.006
10:03:06,0.333492575,0.220582425,-1.8144786,0.7243419,-0.042066025,0.0259414499999999,32.95127025,-24.46588575,-27.32692115,-74.8443894,-1.318382585,0.2474131477499999,-0.40964141895,0.4556736174999999,-0.04657641835,-0.59592163925,0.006
10:03:06,0.33425834,0.21934206,-1.81756532,0.72252548,-0.04215658,0.0278910399999999,32.961339800000005,-24.4851658,-27.30680648,-74.79470008,-1.322069292,0.2466593617999999,-0.41244093964,0.4551203659999999,-0.04642943692,-0.5950143466,0.006
10:03:06,0.335024105,0.218101695,-1.82065204,0.72070906,-0.042247135,0.0298406299999999,32.97140935,-24.50444585,-27.28669181,-74.74501076,-1.325755999,0.24590557585,-0.41524046033,0.4545671145,-0.04628245549,-0.59410705395,0.006
10:03:06,0.33578987,0.21686133,-1.82373876,0.71889264,-0.04233769,0.0317902199999999,32.9814789,-24.5237259,-27.26657714,-74.69532144,-1.329442706,0.2451517898999999,-0.41803998102,0.4540138629999999,-0.04613547406,-0.5931997613,0.006
10:03:06,0.336555635,0.215620965,-1.82682548,0.71707622,-0.042428245,0.0337398099999999,32.99154845,-24.54300595,-27.24646247,-74.64563211999999,-1.333129413,0.24439800395,-0.42083950171,0.4534606114999999,-0.04598849263,-0.59229246865,0.006
10:03:06,0.3373214,0.2143806,-1.8299122,0.7152598,-0.0425188,0.0356893999999999,33.001618,-24.562286,-27.2263478,-74.59594279999999,-1.33681612,0.2436442179999999,-0.4236390224,0.45290736,-0.0458415112,-0.591385176,0.006
10:03:06,0.338087165,0.213140235,-1.83299892,0.71344338,-0.042609355,0.0376389899999999,33.011687550000005,-24.58156605,-27.20623313,-74.54625347999999,-1.340502827,0.24289043205,-0.42643854309,0.4523541084999999,-0.04569452977,-0.59047788335,0.006
10:03:06,0.33885293,0.21189987,-1.83608564,0.71162696,-0.04269991,0.0395885799999999,33.0217571,-24.6008461,-27.18611846,-74.49656415999999,-1.344189534,0.2421366460999999,-0.42923806378,0.4518008569999999,-0.04554754834,-0.5895705907,0.006
10:03:06,0.3396186949999999,0.210659505,-1.83917236,0.70981054,-0.042790465,0.0415381699999999,33.03182665,-24.62012615,-27.16600379,-74.44687483999999,-1.3478762409999998,0.24138286015,-0.43203758447,0.4512476055,-0.04540056691,-0.58866329805,0.006
10:03:06,0.34038446,0.20941914,-1.84225908,0.70799412,-0.04288102,0.0434877599999999,33.041896200000004,-24.6394062,-27.14588912,-74.39718552,-1.351562948,0.2406290742,-0.43483710516,0.4506943539999999,-0.04525358548,-0.5877560054,0.006
10:03:06,0.341150225,0.208178775,-1.8453458,0.7061777,-0.042971575,0.0454373499999999,33.05196575,-24.65868625,-27.12577445,-74.3474962,-1.355249655,0.2398752882499999,-0.43763662585,0.4501411024999999,-0.04510660405,-0.58684871275,0.006
10:03:06,0.34191599,0.20693841,-1.84843252,0.7043612800000001,-0.04306213,0.0473869399999999,33.062035300000005,-24.6779663,-27.10565978,-74.29780688,-1.358936362,0.2391215022999999,-0.44043614654,0.449587851,-0.04495962262,-0.5859414200999999,0.006
10:03:06,0.342681755,0.205698045,-1.85151924,0.7025448599999999,-0.043152685,0.0493365299999999,33.07210485,-24.69724635,-27.08554511,-74.24811756,-1.362623069,0.2383677163499999,-0.44323566723,0.4490345994999999,-0.04481264119,-0.5850341274499999,0.006
10:03:06,0.34344752,0.20445768,-1.85460596,0.70072844,-0.04324324,0.0512861199999999,33.0821744,-24.7165264,-27.06543044,-74.19842824,-1.366309776,0.2376139303999999,-0.44603518792,0.4484813479999999,-0.04466565976,-0.5841268347999999,0.006
10:03:06,0.344213285,0.203217315,-1.85769268,0.6989120200000001,-0.043333795,0.0532357099999999,33.092243950000004,-24.73580645,-27.04531577,-74.14873892,-1.369996483,0.2368601444499999,-0.44883470861,0.4479280965,-0.04451867833,-0.5832195421499999,0.006
10:03:06,0.34497905,0.20197695,-1.8607794,0.6970956,-0.04342435,0.0551852999999999,33.1023135,-24.7550865,-27.0252011,-74.0990496,-1.37368319,0.2361063584999999,-0.4516342293,0.4473748449999999,-0.0443716969,-0.5823122494999999,0.006
10:03:06,0.345744815,0.200736585,-1.86386612,0.69527918,-0.043514905,0.0571348899999999,33.112383050000005,-24.77436655,-27.00508643,-74.04936028,-1.377369897,0.2353525725499999,-0.45443374999,0.4468215934999999,-0.04422471547,-0.5814049568499999,0.006
10:03:06,0.34651058,0.19949622,-1.86695284,0.6934627600000001,-0.04360546,0.0590844799999999,33.1224526,-24.7936466,-26.98497176,-73.99967095999999,-1.381056604,0.2345987865999999,-0.45723327068,0.446268342,-0.04407773404,-0.5804976641999999,0.006
10:03:06,0.347276345,0.198255855,-1.87003956,0.69164634,-0.043696015,0.0610340699999999,33.13252215,-24.81292665,-26.96485709,-73.94998163999999,-1.3847433109999998,0.23384500065,-0.46003279137,0.4457150904999999,-0.04393075261,-0.5795903715499999,0.006
10:03:06,0.3480421099999999,0.19701549,-1.87312628,0.68982992,-0.04378657,0.06298366,33.142591700000004,-24.8322067,-26.94474242,-73.90029231999999,-1.388430018,0.2330912147,-0.46283231206,0.4451618389999999,-0.04378377118,-0.5786830788999999,0.006
10:03:06,0.348807875,0.195775125,-1.876213,0.6880135000000001,-0.043877125,0.06493325,33.15266125,-24.85148675,-26.92462775,-73.85060299999999,-1.392116725,0.23233742875,-0.46563183275,0.4446085875,-0.04363678975,-0.5777757862499999,0.006
10:03:06,0.34957364,0.19453476,-1.87929972,0.68619708,-0.04396768,0.06688284,33.162730800000006,-24.8707668,-26.90451308,-73.80091368,-1.395803432,0.2315836428,-0.46843135344,0.4440553359999999,-0.04348980832,-0.5768684935999999,0.006
10:03:06,0.350339405,0.193294395,-1.88238644,0.68438066,-0.044058235,0.06883243,33.17280035,-24.89004685,-26.88439841,-73.75122436,-1.399490139,0.23082985685,-0.47123087413,0.4435020844999999,-0.04334282689,-0.5759612009499999,0.006
10:03:06,0.3511051699999999,0.19205403,-1.88547316,0.68256424,-0.04414879,0.07078202,33.1828699,-24.9093269,-26.86428374,-73.70153504,-1.403176846,0.2300760708999999,-0.47403039482,0.442948833,-0.04319584546,-0.5750539082999999,0.006
10:03:06,0.351870935,0.190813665,-1.88855988,0.68074782,-0.044239345,0.07273161,33.192939450000004,-24.92860695,-26.84416907,-73.65184572,-1.406863553,0.2293222849499999,-0.47682991551,0.4423955814999999,-0.04304886403,-0.5741466156499999,0.006
10:03:06,0.3526367,0.1895733,-1.8916466,0.6789314,-0.0443299,0.0746811999999999,33.203009,-24.947887,-26.8240544,-73.6021564,-1.41055026,0.2285684989999999,-0.4796294362,0.4418423299999999,-0.0429018826,-0.5732393229999999,0.006
10:03:06,0.353402465,0.188332935,-1.89473332,0.67711498,-0.044420455,0.0766307899999999,33.213078550000006,-24.96716705,-26.80393973,-73.55246708,-1.414236967,0.2278147130499999,-0.48242895689,0.4412890785,-0.04275490117,-0.5723320303499999,0.006
10:03:06,0.35416823,0.18709257,-1.89782004,0.67529856,-0.04451101,0.0785803799999999,33.2231481,-24.9864471,-26.78382506,-73.50277775999999,-1.417923674,0.2270609270999999,-0.48522847758,0.4407358269999999,-0.04260791974,-0.5714247376999999,0.006
10:03:06,0.354933995,0.185852205,-1.90090676,0.67348214,-0.044601565,0.0805299699999999,33.23321765,-25.00572715,-26.76371039,-73.45308843999999,-1.4216103809999998,0.2263071411499999,-0.48802799827,0.4401825754999999,-0.04246093831,-0.5705174450499999,0.006
10:03:06,0.35569976,0.18461184,-1.90399348,0.67166572,-0.04469212,0.0824795599999999,33.243287200000005,-25.0250072,-26.74359572,-73.40339911999999,-1.425297088,0.2255533551999999,-0.49082751896,0.439629324,-0.04231395688,-0.5696101523999999,0.006
10:03:06,0.356465525,0.183371475,-1.9070802,0.6698493000000001,-0.044782675,0.0844291499999999,33.25335675,-25.04428725,-26.72348105,-73.35370979999999,-1.428983795,0.2247995692499999,-0.49362703965,0.4390760724999999,-0.04216697545,-0.5687028597499999,0.006
10:03:06,0.35723129,0.18213111,-1.91016692,0.6680328799999999,-0.04487323,0.0863787399999999,33.2634263,-25.0635673,-26.70336638,-73.30402047999999,-1.432670502,0.2240457833,-0.49642656034,0.4385228209999999,-0.04201999402,-0.5677955671,0.006
10:03:06,0.357997055,0.180890745,-1.91325364,0.66621646,-0.044963785,0.0883283299999999,33.27349585,-25.08284735,-26.68325171,-73.25433115999999,-1.436357209,0.22329199735,-0.49922608103,0.4379695695,-0.04187301259,-0.56688827445,0.006
10:03:06,0.35876282,0.17965038,-1.91634036,0.6644000400000001,-0.04505434,0.0902779199999999,33.2835654,-25.1021274,-26.66313704,-73.20464184,-1.440043916,0.2225382114,-0.50202560172,0.4374163179999999,-0.04172603116,-0.5659809818,0.006
10:03:06,0.359528585,0.178410015,-1.91942708,0.66258362,-0.045144895,0.0922275099999999,33.293634950000005,-25.12140745,-26.64302237,-73.15495252,-1.443730623,0.22178442545,-0.50482512241,0.4368630664999999,-0.04157904973,-0.56507368915,0.006
10:03:06,0.36029435,0.17716965,-1.9225138,0.6607672,-0.04523545,0.0941770999999999,33.3037045,-25.1406875,-26.6229077,-73.1052632,-1.44741733,0.2210306395,-0.5076246431,0.436309815,-0.0414320683,-0.5641663965,0.006
10:03:06,0.361060115,0.175929285,-1.92560052,0.6589507800000001,-0.045326005,0.0961266899999999,33.31377405,-25.15996755,-26.60279303,-73.05557388,-1.451104037,0.2202768535499999,-0.51042416379,0.4357565634999999,-0.04128508687,-0.56325910385,0.006
10:03:06,0.36182588,0.17468892,-1.92868724,0.65713436,-0.04541656,0.0980762799999999,33.323843600000004,-25.1792476,-26.58267836,-73.00588456,-1.454790744,0.2195230675999999,-0.51322368448,0.4352033119999999,-0.04113810544,-0.5623518112,0.006
10:03:06,0.3625916449999999,0.173448555,-1.93177396,0.65531794,-0.045507115,0.1000258699999999,33.33391315,-25.19852765,-26.56256369,-72.95619524,-1.4584774509999998,0.2187692816499999,-0.51602320517,0.4346500605,-0.04099112401,-0.56144451855,0.006
10:03:06,0.36335741,0.17220819,-1.93486068,0.6535015200000001,-0.04559767,0.1019754599999999,33.343982700000005,-25.2178077,-26.54244902,-72.90650592,-1.462164158,0.2180154956999999,-0.51882272586,0.434096809,-0.04084414258,-0.5605372259,0.006
10:03:06,0.364123175,0.170967825,-1.9379474,0.6516851,-0.045688225,0.1039250499999999,33.35405225,-25.23708775,-26.52233435,-72.85681659999999,-1.465850865,0.2172617097499999,-0.52162224655,0.4335435574999999,-0.04069716115,-0.55962993325,0.006
10:03:06,0.36488894,0.16972746,-1.94103412,0.64986868,-0.04577878,0.1058746399999999,33.3641218,-25.2563678,-26.50221968,-72.80712727999999,-1.469537572,0.2165079237999999,-0.52442176724,0.432990306,-0.04055017972,-0.5587226406,0.006
10:03:06,0.3656547049999999,0.168487095,-1.94412084,0.64805226,-0.045869335,0.1078242299999999,33.374191350000004,-25.27564785,-26.48210501,-72.75743795999999,-1.473224279,0.2157541378499999,-0.52722128793,0.4324370545,-0.04040319829,-0.55781534795,0.006
10:03:06,0.36642047,0.16724673,-1.94720756,0.64623584,-0.04595989,0.1097738199999999,33.3842609,-25.2949279,-26.46199034,-72.70774863999999,-1.476910986,0.2150003518999999,-0.53002080862,0.4318838029999999,-0.04025621686,-0.5569080553,0.006
10:03:06,0.367186235,0.166006365,-1.95029428,0.64441942,-0.046050445,0.1117234099999999,33.394330450000005,-25.31420795,-26.44187567,-72.65805931999999,-1.480597693,0.21424656595,-0.53282032931,0.4313305515,-0.04010923543,-0.55600076265,0.006
10:03:07,0.367952,0.164766,-1.953381,0.642603,-0.046141,0.113673,33.4044,-25.333488,-26.421761,-72.60837,-1.4842844,0.21349278,-0.53561985,0.4307773,-0.039962254,-0.55509347,0.006
10:03:07,0.357063335,0.14501398,-1.906822795,0.64203304,-0.046071755,0.111228025,33.417723785,-25.331993215,-26.384214155,-72.82798869999999,-1.472956036,0.1896851211,-0.56180418875,0.4305703961,-0.03926753048,-0.55248602077,0.006
10:03:07,0.34617467,0.12526196,-1.86026459,0.6414630800000001,-0.04600251,0.1087830499999999,33.431047570000004,-25.33049843,-26.34666731,-73.04760739999999,-1.461627672,0.1658774622,-0.5879885275,0.4303634922,-0.03857280696,-0.54987857154,0.006
10:03:07,0.335286005,0.10550994,-1.813706385,0.64089312,-0.045933265,0.106338075,33.444371355,-25.329003645,-26.309120465,-73.26722609999999,-1.450299308,0.1420698033,-0.61417286625,0.4301565883,-0.03787808344,-0.54727112231,0.006
10:03:07,0.32439734,0.0857579199999999,-1.76714818,0.64032316,-0.04586402,0.1038931,33.457695140000006,-25.32750886,-26.27157362,-73.4868448,-1.438970944,0.1182621443999999,-0.640357205,0.4299496844,-0.03718335992,-0.54466367308,0.006
10:03:07,0.313508675,0.0660058999999999,-1.720589975,0.6397532,-0.045794775,0.101448125,33.471018925,-25.326014075,-26.234026775,-73.7064635,-1.42764258,0.0944544854999999,-0.66654154375,0.4297427805,-0.0364886364,-0.54205622385,0.006
10:03:07,0.30262001,0.0462538799999999,-1.67403177,0.63918324,-0.04572553,0.09900315,33.48434271,-25.32451929,-26.19647993,-73.9260822,-1.416314216,0.0706468265999999,-0.6927258825,0.4295358766,-0.03579391288,-0.53944877462,0.006
10:03:07,0.291731345,0.0265018599999999,-1.627473565,0.6386132800000001,-0.045656285,0.096558175,33.497666495000004,-25.323024505,-26.158933085,-74.1457009,-1.404985852,0.0468391676999999,-0.71891022125,0.4293289727,-0.03509918936,-0.53684132539,0.006
10:03:07,0.28084268,0.0067498399999999,-1.58091536,0.6380433200000001,-0.04558704,0.0941132,33.51099028,-25.32152972,-26.12138624,-74.36531959999999,-1.393657488,0.0230315087999999,-0.7450945600000001,0.4291220688,-0.03440446584,-0.53423387616,0.006
10:03:07,0.269954015,-0.01300218,-1.534357155,0.63747336,-0.045517795,0.0916682249999999,33.524314065000006,-25.320034935,-26.083839395,-74.58493829999999,-1.382329124,-0.0007761501,-0.77127889875,0.4289151649,-0.03370974232,-0.53162642693,0.006
10:03:07,0.25906535,-0.0327542,-1.4877989500000002,0.6369034,-0.04544855,0.08922325,33.53763785,-25.31854015,-26.04629255,-74.80455699999999,-1.37100076,-0.024583809,-0.7974632375,0.428708261,-0.0330150188,-0.5290189777,0.006
10:03:07,0.248176685,-0.05250622,-1.441240745,0.63633344,-0.045379305,0.086778275,33.550961635,-25.317045365,-26.008745705,-75.0241757,-1.359672396,-0.0483914678999999,-0.82364757625,0.4285013571,-0.03232029528,-0.52641152847,0.006
10:03:07,0.23728802,-0.07225824,-1.39468254,0.63576348,-0.04531006,0.0843333,33.564285420000004,-25.31555058,-25.97119886,-75.2437944,-1.348344032,-0.0721991268,-0.849831915,0.4282944532,-0.03162557176,-0.5238040792399999,0.006
10:03:07,0.226399355,-0.09201026,-1.348124335,0.6351935200000001,-0.045240815,0.081888325,33.577609205,-25.314055795,-25.933652015,-75.4634131,-1.3370156679999998,-0.0960067857,-0.87601625375,0.4280875493,-0.03093084824,-0.5211966300099999,0.006
10:03:07,0.21551069,-0.11176228,-1.30156613,0.6346235600000001,-0.04517157,0.07944335,33.59093299,-25.31256101,-25.89610517,-75.6830318,-1.325687304,-0.1198144446,-0.9022005925,0.4278806454,-0.03023612472,-0.5185891807799999,0.006
10:03:07,0.204622025,-0.1315143,-1.255007925,0.6340536,-0.045102325,0.076998375,33.604256775,-25.311066225,-25.858558325,-75.9026505,-1.31435894,-0.1436221035,-0.92838493125,0.4276737415,-0.0295414012,-0.5159817315499999,0.006
10:03:07,0.19373336,-0.15126632,-1.20844972,0.63348364,-0.04503308,0.0745533999999999,33.61758056,-25.30957144,-25.82101148,-76.12226919999999,-1.3030305759999998,-0.1674297624,-0.95456927,0.4274668376,-0.02884667768,-0.51337428232,0.006
10:03:07,0.182844695,-0.17101834,-1.1618915150000002,0.63291368,-0.044963835,0.072108425,33.630904345000005,-25.308076655,-25.783464635,-76.34188789999999,-1.291702212,-0.1912374213,-0.98075360875,0.4272599337,-0.02815195416,-0.5107668330899999,0.006
10:03:07,0.17195603,-0.19077036,-1.11533331,0.63234372,-0.04489459,0.06966345,33.64422813,-25.30658187,-25.74591779,-76.5615066,-1.280373848,-0.2150450802,-1.0069379475,0.4270530298,-0.02745723064,-0.50815938386,0.006
10:03:07,0.161067365,-0.21052238,-1.068775105,0.6317737600000001,-0.044825345,0.067218475,33.657551915,-25.305087085,-25.708370945,-76.7811253,-1.2690454839999998,-0.2388527391,-1.03312228625,0.4268461259,-0.02676250712,-0.50555193463,0.006
10:03:07,0.1501787,-0.2302744,-1.0222169,0.6312038,-0.0447561,0.0647735,33.6708757,-25.3035923,-25.6708241,-77.000744,-1.25771712,-0.262660398,-1.059306625,0.426639222,-0.0260677836,-0.5029444854,0.006
10:03:07,0.139290035,-0.2500264200000001,-0.975658695,0.63063384,-0.044686855,0.062328525,33.684199485,-25.302097515,-25.633277255,-77.2203627,-1.246388756,-0.2864680569,-1.08549096375,0.4264323181,-0.02537306008,-0.50033703617,0.006
10:03:07,0.12840137,-0.26977844,-0.9291004900000002,0.63006388,-0.04461761,0.05988355,33.697523270000005,-25.30060273,-25.59573041,-77.4399814,-1.2350603919999998,-0.3102757157999999,-1.1116753025,0.4262254142,-0.02467833656,-0.4977295869399999,0.006
10:03:07,0.117512705,-0.28953046,-0.882542285,0.62949392,-0.044548365,0.057438575,33.710847055,-25.299107945,-25.558183565,-77.65960009999999,-1.223732028,-0.3340833747,-1.13785964125,0.4260185103,-0.02398361304,-0.49512213771,0.006
10:03:07,0.10662404,-0.30928248,-0.83598408,0.6289239600000001,-0.04447912,0.0549936,33.72417084,-25.29761316,-25.52063672,-77.87921879999999,-1.212403664,-0.3578910336,-1.16404398,0.4258116064,-0.02328888952,-0.49251468848,0.006
10:03:07,0.095735375,-0.3290345,-0.789425875,0.6283540000000001,-0.044409875,0.052548625,33.737494625000004,-25.296118375,-25.483089875,-78.0988375,-1.2010752999999998,-0.3816986925,-1.19022831875,0.4256047025,-0.022594166,-0.48990723925,0.006
10:03:07,0.08484671,-0.3487865200000001,-0.7428676700000001,0.62778404,-0.04434063,0.05010365,33.75081841,-25.29462359,-25.44554303,-78.3184562,-1.189746936,-0.4055063514000001,-1.2164126575,0.4253977986,-0.02189944248,-0.48729979002,0.006
10:03:07,0.073958045,-0.3685385400000001,-0.6963094650000001,0.62721408,-0.044271385,0.047658675,33.764142195000005,-25.293128805,-25.407996185,-78.5380749,-1.178418572,-0.4293140103,-1.24259699625,0.4251908947,-0.02120471896,-0.48469234079,0.006
10:03:07,0.06306938,-0.38829056,-0.6497512600000002,0.62664412,-0.04420214,0.0452136999999999,33.77746598,-25.29163402,-25.37044934,-78.7576936,-1.167090208,-0.4531216692,-1.268781335,0.4249839908,-0.02050999544,-0.48208489156,0.006
10:03:07,0.052180715,-0.40804258,-0.603193055,0.62607416,-0.044132895,0.042768725,33.790789765,-25.290139235,-25.332902495,-78.9773123,-1.155761844,-0.4769293281,-1.2949656737500002,0.4247770869,-0.01981527192,-0.47947744233,0.006
10:03:07,0.04129205,-0.4277946000000001,-0.55663485,0.6255042000000001,-0.04406365,0.04032375,33.804113550000004,-25.28864445,-25.29535565,-79.19693099999999,-1.14443348,-0.500736987,-1.3211500125,0.424570183,-0.0191205484,-0.4768699931,0.006
10:03:07,0.030403385,-0.4475466200000001,-0.510076645,0.6249342400000001,-0.043994405,0.037878775,33.817437335,-25.287149665,-25.257808805,-79.41654969999999,-1.133105116,-0.5245446459,-1.34733435125,0.4243632791,-0.01842582488,-0.47426254387,0.006
10:03:07,0.01951472,-0.4672986400000001,-0.4635184400000001,0.62436428,-0.04392516,0.0354338,33.83076112,-25.28565488,-25.22026196,-79.6361684,-1.121776752,-0.5483523048000001,-1.37351869,0.4241563752,-0.01773110136,-0.47165509464,0.006
10:03:07,0.008626055,-0.4870506600000001,-0.4169602350000001,0.62379432,-0.043855915,0.032988825,33.844084905,-25.284160095,-25.182715115,-79.8557871,-1.110448388,-0.5721599637000001,-1.39970302875,0.4239494713,-0.01703637784,-0.46904764541,0.006
10:03:07,-0.0022626099999999,-0.5068026800000001,-0.3704020300000001,0.62322436,-0.04378667,0.0305438499999999,33.85740869,-25.28266531,-25.14516827,-80.0754058,-1.099120024,-0.5959676226000001,-1.4258873675,0.4237425674,-0.01634165432,-0.46644019618,0.006
10:03:07,-0.0131512749999999,-0.5265547000000002,-0.3238438250000002,0.6226544,-0.043717425,0.0280988749999999,33.870732475000004,-25.281170525,-25.107621425,-80.2950245,-1.08779166,-0.6197752814999999,-1.45207170625,0.4235356635,-0.0156469308,-0.46383274695,0.006
10:03:07,-0.0240399399999999,-0.5463067200000001,-0.27728562,0.6220844400000001,-0.04364818,0.0256539,33.88405626,-25.27967574,-25.07007458,-80.5146432,-1.076463296,-0.6435829404,-1.4782560450000002,0.4233287596,-0.01495220728,-0.46122529772,0.006
10:03:07,-0.0349286049999999,-0.5660587400000001,-0.230727415,0.6215144800000001,-0.043578935,0.023208925,33.897380045,-25.278180955,-25.032527735,-80.73426189999999,-1.065134932,-0.6673905993,-1.50444038375,0.4231218557,-0.01425748376,-0.45861784849,0.006
10:03:07,-0.0458172699999999,-0.5858107600000001,-0.18416921,0.62094452,-0.04350969,0.02076395,33.91070383,-25.27668617,-24.99498089,-80.95388059999999,-1.053806568,-0.6911982582,-1.5306247225,0.4229149518,-0.01356276024,-0.45601039926,0.006
10:03:07,-0.0567059349999999,-0.6055627800000001,-0.1376110050000001,0.62037456,-0.043440445,0.018318975,33.924027615,-25.275191385,-24.957434045,-81.1734993,-1.042478204,-0.7150059171,-1.55680906125,0.4227080479,-0.01286803672,-0.45340295003,0.006
10:03:07,-0.0675945999999999,-0.6253148000000002,-0.0910528000000001,0.6198046,-0.0433712,0.015874,33.937351400000004,-25.2736966,-24.9198872,-81.393118,-1.03114984,-0.7388135760000001,-1.5829934,0.422501144,-0.0121733132,-0.4507955007999999,0.006
10:03:07,-0.0784832649999999,-0.6450668200000002,-0.0444945950000001,0.6192346400000001,-0.043301955,0.0134290249999999,33.950675185,-25.272201815,-24.882340355,-81.6127367,-1.019821476,-0.7626212349000001,-1.60917773875,0.4222942401,-0.01147858968,-0.4481880515699999,0.006
10:03:07,-0.0893719299999999,-0.6648188400000001,0.0020636099999999,0.6186646800000001,-0.04323271,0.01098405,33.96399897,-25.27070703,-24.84479351,-81.8323554,-1.008493112,-0.7864288938000001,-1.6353620775,0.4220873362,-0.01078386616,-0.4455806023399999,0.006
10:03:07,-0.1002605949999999,-0.6845708600000001,0.0486218149999999,0.61809472,-0.043163465,0.008539075,33.977322755,-25.269212245,-24.807246665,-82.0519741,-0.997164748,-0.8102365527000002,-1.66154641625,0.4218804323,-0.01008914264,-0.44297315311,0.006
10:03:07,-0.1111492599999999,-0.7043228800000001,0.0951800199999997,0.61752476,-0.04309422,0.0060941,33.99064654,-25.26771746,-24.76969982,-82.2715928,-0.985836384,-0.8340442116,-1.687730755,0.4216735284,-0.00939441912,-0.44036570388,0.006
10:03:07,-0.1220379249999999,-0.7240749000000001,0.1417382249999998,0.6169548,-0.043024975,0.003649125,34.003970325000004,-25.266222675,-24.732152975,-82.49121149999999,-0.97450802,-0.8578518705,-1.71391509375,0.4214666245,-0.0086996956,-0.43775825465,0.006
10:03:07,-0.1329265899999999,-0.7438269200000002,0.18829643,0.61638484,-0.04295573,0.00120415,34.01729411,-25.26472789,-24.69460613,-82.7108302,-0.963179656,-0.8816595294,-1.7400994325,0.4212597206,-0.0080049720799999,-0.43515080542,0.006
10:03:07,-0.1438152549999999,-0.7635789400000002,0.2348546349999998,0.6158148800000001,-0.042886485,-0.001240825,34.030617895,-25.263233105,-24.657059285,-82.9304489,-0.951851292,-0.9054671883,-1.76628377125,0.4210528167,-0.00731024856,-0.43254335619,0.006
10:03:07,-0.1547039199999999,-0.7833309600000001,0.28141284,0.6152449200000001,-0.04281724,-0.0036857999999999,34.04394168,-25.26173832,-24.61951244,-83.1500676,-0.940522928,-0.9292748472,-1.79246811,0.4208459128,-0.00661552504,-0.42993590696,0.006
10:03:07,-0.1655925849999999,-0.8030829800000001,0.3279710449999997,0.61467496,-0.042747995,-0.0061307749999999,34.057265465,-25.260243535,-24.581965595,-83.3696863,-0.929194564,-0.9530825061,-1.81865244875,0.4206390089,-0.0059208015199999,-0.42732845773,0.006
10:03:07,-0.1764812499999999,-0.8228350000000001,0.3745292499999999,0.614105,-0.04267875,-0.0085757499999999,34.07058925,-25.25874875,-24.54441875,-83.589305,-0.9178662,-0.976890165,-1.8448367875,0.420432105,-0.005226078,-0.4247210085,0.006
10:03:07,-0.1873699149999999,-0.8425870200000001,0.4210874549999996,0.61353504,-0.042609505,-0.0110207249999999,34.083913035,-25.257253965,-24.506871905,-83.8089237,-0.906537836,-1.0006978239000002,-1.87102112625,0.4202252011,-0.0045313544799999,-0.42211355927,0.006
10:03:07,-0.1982585799999999,-0.8623390400000002,0.4676456599999998,0.61296508,-0.04254026,-0.0134656999999999,34.09723682,-25.25575918,-24.46932506,-84.02854239999999,-0.8952094719999999,-1.0245054828000002,-1.897205465,0.4200182972,-0.00383663096,-0.41950611004,0.006
10:03:07,-0.2091472449999999,-0.88209106,0.514203865,0.6123951200000001,-0.042471015,-0.0159106749999999,34.110560605,-25.254264395,-24.431778215,-84.2481611,-0.883881108,-1.0483131417,-1.92338980375,0.4198113933,-0.00314190744,-0.41689866081,0.006
10:03:07,-0.2200359099999999,-0.90184308,0.5607620699999998,0.6118251600000001,-0.04240177,-0.01835565,34.12388439,-25.25276961,-24.39423137,-84.4677798,-0.8725527439999999,-1.0721208006,-1.9495741425,0.4196044894,-0.0024471839199999,-0.41429121158,0.006
10:03:07,-0.2309245749999999,-0.9215951000000002,0.607320275,0.6112552,-0.042332525,-0.0208006249999999,34.137208175,-25.251274825,-24.356684525,-84.6873985,-0.8612243799999999,-1.0959284595,-1.97575848125,0.4193975855,-0.0017524604,-0.41168376235,0.006
10:03:07,-0.2418132399999999,-0.94134712,0.6538784799999997,0.61068524,-0.04226328,-0.0232456,34.15053196,-25.24978004,-24.31913768,-84.9070172,-0.849896016,-1.1197361184,-2.00194282,0.4191906816,-0.00105773688,-0.40907631312,0.006
10:03:07,-0.2527019049999999,-0.9610991400000002,0.7004366849999999,0.61011528,-0.042194035,-0.0256905749999999,34.163855745,-25.248285255,-24.281590835,-85.1266359,-0.8385676519999999,-1.1435437773,-2.0281271587500003,0.4189837777,-0.0003630133599999,-0.40646886389,0.006
10:03:07,-0.2635905699999999,-0.98085116,0.7469948900000001,0.6095453200000001,-0.04212479,-0.0281355499999999,34.177179530000004,-25.24679047,-24.24404399,-85.3462546,-0.8272392879999999,-1.1673514362,-2.0543114975,0.4187768738,0.0003317101599999,-0.40386141466,0.006
10:03:07,-0.2744792349999999,-1.00060318,0.7935530949999998,0.6089753600000001,-0.042055545,-0.0305805249999999,34.190503315,-25.245295685,-24.206497145,-85.56587329999999,-0.8159109239999999,-1.1911590951000002,-2.08049583625,0.4185699699,0.00102643368,-0.40125396543,0.006
10:03:07,-0.2853678999999999,-1.0203552000000002,0.8401113,0.6084054000000001,-0.0419863,-0.0330254999999999,34.2038271,-25.2438009,-24.1689503,-85.785492,-0.80458256,-1.214966754,-2.106680175,0.418363066,0.0017211572,-0.3986465162,0.006
10:03:07,-0.2962565649999999,-1.04010722,0.8866695049999997,0.60783544,-0.041917055,-0.035470475,34.217150885,-25.242306115,-24.131403455,-86.0051107,-0.7932541959999999,-1.2387744129,-2.13286451375,0.4181561621,0.0024158807199999,-0.39603906697,0.006
10:03:07,-0.3071452299999999,-1.0598592400000002,0.93322771,0.60726548,-0.04184781,-0.0379154499999999,34.23047467,-25.24081133,-24.09385661,-86.2247294,-0.7819258319999999,-1.2625820718,-2.1590488525,0.4179492582,0.00311060424,-0.39343161774,0.006
10:03:07,-0.3180338949999999,-1.07961126,0.9797859149999996,0.60669552,-0.041778565,-0.040360425,34.243798455000004,-25.239316545,-24.056309765,-86.4443481,-0.770597468,-1.2863897307,-2.18523319125,0.4177423543,0.0038053277599999,-0.39082416851,0.006
10:03:07,-0.3289225599999999,-1.0993632800000002,1.02634412,0.6061255600000001,-0.04170932,-0.0428053999999999,34.25712224,-25.23782176,-24.01876292,-86.6639668,-0.7592691039999999,-1.3101973896,-2.2114175300000003,0.4175354504,0.00450005128,-0.38821671928,0.006
10:03:07,-0.3398112249999999,-1.1191153000000005,1.072902325,0.6055556000000001,-0.041640075,-0.0452503749999999,34.270446025,-25.236326975,-23.981216075,-86.8835855,-0.7479407399999999,-1.3340050485,-2.23760186875,0.4173285465,0.0051947748,-0.38560927005,0.006
10:03:07,-0.3506998899999999,-1.13886732,1.1194605299999998,0.60498564,-0.04157083,-0.04769535,34.28376981,-25.23483219,-23.94366923,-87.1032042,-0.736612376,-1.3578127074000002,-2.2637862075,0.4171216426,0.0058894983199999,-0.38300182082,0.006
10:03:07,-0.3615885549999999,-1.1586193400000002,1.166018735,0.60441568,-0.041501585,-0.0501403249999999,34.297093595,-25.233337405,-23.906122385,-87.32282289999999,-0.7252840119999999,-1.3816203663000002,-2.28997054625,0.4169147387,0.00658422184,-0.38039437159,0.006
10:03:07,-0.3724772199999999,-1.17837136,1.2125769399999995,0.60384572,-0.04143234,-0.0525853,34.310417380000004,-25.23184262,-23.86857554,-87.54244159999999,-0.7139556479999999,-1.4054280252000002,-2.316154885,0.4167078348,0.0072789453599999,-0.37778692236,0.006
10:03:07,-0.3833658849999999,-1.1981233800000002,1.259135145,0.60327576,-0.041363095,-0.0550302749999999,34.323741165,-25.230347835,-23.831028695,-87.7620603,-0.702627284,-1.4292356841,-2.34233922375,0.4165009309,0.00797366888,-0.37517947313,0.006
10:03:07,-0.3942545499999999,-1.2178754000000005,1.3056933499999996,0.6027058000000001,-0.04129385,-0.05747525,34.33706495,-25.22885305,-23.79348185,-87.981679,-0.6912989199999999,-1.453043343,-2.3685235625,0.416294027,0.0086683924,-0.3725720239,0.006
10:03:07,-0.4051432149999999,-1.23762742,1.3522515549999998,0.6021358400000001,-0.041224605,-0.0599202249999999,34.350388735,-25.227358265,-23.755935005,-88.2012977,-0.6799705559999999,-1.4768510019,-2.3947079012500003,0.4160871231,0.0093631159199999,-0.36996457467,0.006
10:03:07,-0.4160318799999998,-1.2573794400000002,1.39880976,0.60156588,-0.04115536,-0.0623651999999999,34.36371252,-25.22586348,-23.71838816,-88.4209164,-0.6686421919999999,-1.5006586608,-2.42089224,0.4158802192,0.01005783944,-0.36735712544,0.006
10:03:07,-0.4269205449999999,-1.27713146,1.4453679649999998,0.60099592,-0.041086115,-0.064810175,34.377036305,-25.224368695,-23.680841315,-88.6405351,-0.6573138279999999,-1.5244663197,-2.44707657875,0.4156733153,0.01075256296,-0.36474967621,0.006
10:03:07,-0.4378092099999999,-1.2968834800000002,1.49192617,0.60042596,-0.04101687,-0.0672551499999999,34.39036009,-25.22287391,-23.64329447,-88.8601538,-0.6459854639999999,-1.5482739786000002,-2.4732609175,0.4154664114,0.0114472864799999,-0.36214222698,0.006
10:03:07,-0.4486978749999998,-1.3166355000000003,1.5384843749999997,0.5998560000000001,-0.040947625,-0.069700125,34.403683875,-25.221379125,-23.605747625,-89.07977249999999,-0.6346570999999999,-1.5720816375000002,-2.49944525625,0.4152595075,0.01214201,-0.35953477775,0.006
10:03:07,-0.4595865399999999,-1.3363875200000002,1.58504258,0.5992860400000001,-0.04087838,-0.0721450999999999,34.41700766,-25.21988434,-23.56820078,-89.2993912,-0.6233287359999999,-1.5958892964,-2.525629595,0.4150526036,0.01283673352,-0.35692732852,0.006
10:03:07,-0.4704752049999999,-1.3561395400000005,1.631600785,0.5987160800000001,-0.040809135,-0.0745900749999999,34.430331445,-25.218389555,-23.530653935,-89.5190099,-0.6120003719999999,-1.6196969553,-2.55181393375,0.4148456997,0.01353145704,-0.35431987929,0.006
10:03:07,-0.4813638699999998,-1.37589156,1.6781589899999998,0.59814612,-0.04073989,-0.07703505,34.44365523,-25.21689477,-23.49310709,-89.7386286,-0.6006720079999999,-1.6435046142,-2.5779982725000004,0.4146387958,0.01422618056,-0.35171243006,0.006
10:03:07,-0.4922525349999999,-1.3956435800000002,1.724717195,0.59757616,-0.040670645,-0.0794800249999999,34.456979015,-25.215399985,-23.455560245,-89.9582473,-0.5893436439999999,-1.6673122731,-2.60418261125,0.4144318919,0.0149209040799999,-0.34910498083,0.006
10:03:07,-0.5031412,-1.4153956000000003,1.7712753999999995,0.5970062,-0.0406014,-0.081925,34.4703028,-25.2139052,-23.4180134,-90.177866,-0.5780152799999999,-1.691119932,-2.63036695,0.414224988,0.0156156276,-0.3464975316,0.006
10:03:07,-0.5140298649999999,-1.4351476200000002,1.817833605,0.5964362400000001,-0.040532155,-0.0843699749999999,34.483626585,-25.212410415,-23.380466555,-90.3974847,-0.5666869159999999,-1.7149275909,-2.65655128875,0.4140180841,0.01631035112,-0.34389008237,0.006
10:03:07,-0.5249185299999999,-1.4548996400000005,1.86439181,0.5958662800000001,-0.04046291,-0.08681495,34.49695037,-25.21091563,-23.34291971,-90.6171034,-0.555358552,-1.7387352498000002,-2.6827356275000005,0.4138111802,0.01700507464,-0.34128263314,0.006
10:03:07,-0.5358071949999998,-1.47465166,1.910950015,0.5952963200000001,-0.040393665,-0.0892599249999999,34.510274155,-25.209420845,-23.305372865,-90.8367221,-0.5440301879999999,-1.7625429087000002,-2.70891996625,0.4136042763,0.01769979816,-0.33867518391,0.006
10:03:07,-0.5466958599999998,-1.4944036800000002,1.95750822,0.59472636,-0.04032442,-0.0917048999999999,34.52359794,-25.20792606,-23.26782602,-91.0563408,-0.5327018239999999,-1.7863505676000002,-2.735104305,0.4133973724,0.0183945216799999,-0.33606773468,0.006
10:03:07,-0.557584525,-1.5141557,2.0040664249999995,0.5941564,-0.040255175,-0.094149875,34.536921725,-25.206431275,-23.230279175,-91.2759595,-0.52137346,-1.8101582265,-2.7612886437500004,0.4131904685,0.0190892452,-0.33346028545,0.006
10:03:07,-0.56847319,-1.5339077200000002,2.05062463,0.59358644,-0.04018593,-0.0965948499999999,34.55024551,-25.20493649,-23.19273233,-91.4955782,-0.5100450959999999,-1.8339658854000005,-2.7874729825,0.4129835646,0.01978396872,-0.33085283622,0.006
10:03:07,-0.5793618549999999,-1.5536597400000005,2.097182835,0.5930164800000001,-0.040116685,-0.099039825,34.563569295,-25.203441705,-23.155185485,-91.7151969,-0.4987167319999999,-1.8577735443000003,-2.81365732125,0.4127766607,0.02047869224,-0.32824538699,0.006
10:03:07,-0.5902505199999999,-1.5734117600000002,2.143741039999999,0.5924465200000001,-0.04004744,-0.1014847999999999,34.57689308,-25.20194692,-23.11763864,-91.9348156,-0.4873883679999999,-1.8815812032,-2.8398416600000003,0.4125697568,0.02117341576,-0.32563793776,0.006
10:03:07,-0.6011391849999999,-1.5931637800000005,2.1902992449999994,0.59187656,-0.039978195,-0.103929775,34.590216865,-25.200452135,-23.080091795,-92.1544343,-0.4760600039999998,-1.9053888621,-2.8660259987500005,0.4123628529,0.02186813928,-0.32303048853,0.006
10:03:07,-0.6120278499999998,-1.6129158,2.23685745,0.5913066,-0.03990895,-0.1063747499999999,34.60354065,-25.19895735,-23.04254495,-92.374053,-0.4647316399999999,-1.929196521,-2.8922103375,0.412155949,0.0225628628,-0.3204230393,0.006
10:03:07,-0.6229165149999998,-1.6326678200000002,2.283415655,0.59073664,-0.039839705,-0.1088197249999999,34.616864435,-25.197462565,-23.004998105,-92.5936717,-0.4534032759999999,-1.9530041799,-2.91839467625,0.4119490451,0.0232575863199999,-0.31781559007,0.006
10:03:07,-0.6338051799999997,-1.6524198400000003,2.32997386,0.59016668,-0.03977046,-0.1112647,34.63018822,-25.19596778,-22.96745126,-92.8132904,-0.4420749119999998,-1.9768118388,-2.9445790150000004,0.4117421412,0.02395230984,-0.31520814084,0.006
10:03:07,-0.6446938449999999,-1.6721718600000002,2.3765320649999992,0.5895967200000001,-0.039701215,-0.1137096749999999,34.643512005,-25.194472995,-22.929904415,-93.0329091,-0.4307465479999999,-2.0006194977,-2.97076335375,0.4115352373,0.02464703336,-0.31260069161,0.006
10:03:07,-0.6555825099999999,-1.6919238800000005,2.4230902699999994,0.5890267600000001,-0.03963197,-0.11615465,34.65683579,-25.19297821,-22.89235757,-93.2525278,-0.4194181839999999,-2.0244271566,-2.9969476925,0.4113283334,0.0253417568799999,-0.30999324238,0.006
10:03:07,-0.6664711749999999,-1.7116759,2.469648475,0.5884568,-0.039562725,-0.1185996249999999,34.670159575,-25.191483425,-22.854810725,-93.4721465,-0.4080898199999998,-2.0482348155,-3.0231320312500003,0.4111214295,0.0260364804,-0.30738579315,0.006
10:03:07,-0.6773598399999998,-1.7314279200000002,2.51620668,0.58788684,-0.03949348,-0.1210445999999999,34.68348336,-25.18998864,-22.81726388,-93.6917652,-0.3967614559999999,-2.0720424744,-3.04931637,0.4109145255999999,0.02673120392,-0.30477834392,0.006
10:03:07,-0.6882485049999998,-1.7511799400000003,2.562764885,0.58731688,-0.039424235,-0.1234895749999999,34.696807145,-25.188493855,-22.779717035,-93.9113839,-0.385433092,-2.0958501333,-3.07550070875,0.4107076216999999,0.0274259274399999,-0.30217089469,0.006
10:03:07,-0.6991371699999998,-1.7709319600000002,2.6093230899999997,0.5867469200000001,-0.03935499,-0.1259345499999999,34.71013093,-25.18699907,-22.74217019,-94.1310026,-0.3741047279999998,-2.1196577922,-3.1016850475,0.4105007177999999,0.02812065096,-0.29956344546,0.006
10:03:07,-0.7100258349999997,-1.7906839800000005,2.6558812949999995,0.5861769600000001,-0.039285745,-0.128379525,34.723454715,-25.185504285,-22.704623345,-94.3506213,-0.3627763639999999,-2.1434654511,-3.1278693862500004,0.4102938138999999,0.02881537448,-0.29695599623,0.006
10:03:07,-0.7209144999999999,-1.810436,2.7024395,0.585607,-0.0392165,-0.1308244999999999,34.7367785,-25.1840095,-22.6670765,-94.57024,-0.351448,-2.16727311,-3.154053725,0.4100869099999999,0.029510098,-0.294348547,0.006
10:03:07,-0.7318031649999999,-1.83018802,2.748997705,0.58503704,-0.039147255,-0.133269475,34.750102285,-25.182514715,-22.629529655,-94.7898587,-0.3401196359999998,-2.1910807689,-3.18023806375,0.4098800060999999,0.03020482152,-0.29174109777,0.006
10:03:07,-0.7426918299999998,-1.84994004,2.795555909999999,0.58446708,-0.03907801,-0.13571445,34.76342607,-25.18101993,-22.59198281,-95.0094774,-0.3287912719999999,-2.2148884278,-3.2064224025000003,0.4096731021999999,0.03089954504,-0.28913364854,0.006
10:03:07,-0.7535804949999998,-1.8696920600000004,2.8421141149999998,0.58389712,-0.039008765,-0.1381594249999999,34.776749855,-25.179525145,-22.554435965,-95.2290961,-0.317462908,-2.2386960867,-3.23260674125,0.4094661983,0.03159426856,-0.28652619931,0.006
10:03:07,-0.7644691599999998,-1.8894440800000003,2.8886723199999995,0.5833271600000001,-0.03893952,-0.1406044,34.79007364,-25.17803036,-22.51688912,-95.4487148,-0.3061345439999998,-2.2625037456,-3.25879108,0.4092592944,0.0322889920799999,-0.28391875008,0.006
10:03:07,-0.7753578249999997,-1.9091961,2.935230525,0.5827572000000001,-0.038870275,-0.143049375,34.803397425,-25.176535575,-22.479342275,-95.6683335,-0.2948061799999999,-2.2863114045,-3.28497541875,0.4090523905,0.0329837156,-0.28131130085,0.006
10:03:07,-0.7862464899999999,-1.92894812,2.98178873,0.5821872400000001,-0.03880103,-0.1454943499999999,34.81672121,-25.17504079,-22.44179543,-95.8879522,-0.283477816,-2.3101190634,-3.3111597575000005,0.4088454866,0.03367843912,-0.27870385162,0.006
10:03:07,-0.7971351549999999,-1.9487001400000004,3.028346934999999,0.58161728,-0.038731785,-0.1479393249999999,34.830044995,-25.173546005,-22.404248585,-96.1075709,-0.2721494519999998,-2.3339267223,-3.33734409625,0.4086385827,0.0343731626399999,-0.27609640239,0.006
10:03:07,-0.8080238199999998,-1.96845216,3.07490514,0.58104732,-0.03866254,-0.1503843,34.84336878,-25.17205122,-22.36670174,-96.3271896,-0.2608210879999999,-2.3577343812,-3.363528435,0.4084316788,0.03506788616,-0.27348895316,0.006
10:03:07,-0.8189124849999998,-1.98820418,3.121463345,0.58047736,-0.038593295,-0.1528292749999999,34.856692565,-25.170556435,-22.329154895,-96.5468083,-0.249492724,-2.3815420401,-3.3897127737500004,0.4082247749,0.03576260968,-0.27088150393,0.006
10:03:07,-0.8298011499999998,-2.0079562,3.16802155,0.5799074000000001,-0.03852405,-0.1552742499999999,34.87001635,-25.16906165,-22.29160805,-96.766427,-0.2381643599999998,-2.405349699,-3.4158971125,0.408017871,0.0364573332,-0.2682740547,0.006
10:03:07,-0.8406898149999997,-2.02770822,3.214579755,0.5793374400000001,-0.038454805,-0.157719225,34.883340135,-25.167566865,-22.254061205,-96.9860457,-0.2268359959999999,-2.4291573579,-3.44208145125,0.4078109671,0.03715205672,-0.26566660547,0.006
10:03:07,-0.8515784799999999,-2.04746024,3.2611379599999992,0.57876748,-0.03838556,-0.1601642,34.89666392,-25.16607208,-22.21651436,-97.2056644,-0.215507632,-2.4529650168,-3.46826579,0.4076040632,0.03784678024,-0.26305915624,0.006
10:03:07,-0.8624671449999999,-2.06721226,3.3076961649999994,0.57819752,-0.038316315,-0.1626091749999999,34.909987705,-25.164577295,-22.178967515,-97.4252831,-0.2041792679999998,-2.4767726757,-3.4944501287500005,0.4073971593,0.03854150376,-0.26045170701,0.006
10:03:07,-0.8733558099999998,-2.08696428,3.35425437,0.57762756,-0.03824707,-0.1650541499999999,34.92331149,-25.16308251,-22.14142067,-97.6449018,-0.1928509039999999,-2.5005803346,-3.5206344675,0.4071902554,0.03923622728,-0.25784425778,0.006
10:03:07,-0.8842444749999998,-2.1067163,3.400812575,0.5770576000000001,-0.038177825,-0.167499125,34.936635275,-25.161587725,-22.103873825,-97.8645205,-0.1815225399999998,-2.5243879935,-3.54681880625,0.4069833515,0.0399309508,-0.25523680855,0.006
10:03:07,-0.8951331399999998,-2.12646832,3.44737078,0.5764876400000001,-0.03810858,-0.1699440999999999,34.94995906,-25.16009294,-22.06632698,-98.0841392,-0.1701941759999998,-2.5481956524,-3.5730031450000004,0.4067764476,0.04062567432,-0.25262935932,0.006
10:03:07,-0.9060218049999996,-2.14622034,3.4939289849999997,0.5759176800000001,-0.038039335,-0.1723890749999999,34.963282845,-25.158598155,-22.028780135,-98.3037579,-0.1588658119999999,-2.5720033113,-3.59918748375,0.4065695437,0.04132039784,-0.25002191009,0.006
10:03:07,-0.9169104699999996,-2.16597236,3.5404871899999995,0.57534772,-0.03797009,-0.17483405,34.97660663,-25.15710337,-21.99123329,-98.5233766,-0.1475374479999998,-2.5958109702,-3.6253718225,0.4063626398,0.04201512136,-0.24741446086,0.006
10:03:07,-0.927799135,-2.18572438,3.587045395,0.57477776,-0.037900845,-0.177279025,34.989930415,-25.155608585,-21.953686445,-98.7429953,-0.1362090839999998,-2.6196186291,-3.65155616125,0.4061557359,0.04270984488,-0.24480701163,0.006
10:03:07,-0.9386878,-2.2054764,3.6336036,0.5742078,-0.0378316,-0.1797239999999999,35.0032542,-25.1541138,-21.9161396,-98.962614,-0.1248807199999999,-2.643426288,-3.677740500000001,0.405948832,0.0434045684,-0.2421995624,0.006
10:03:07,-0.9495764649999998,-2.22522842,3.680161804999999,0.5736378400000001,-0.037762355,-0.1821689749999999,35.016577985,-25.152619015,-21.878592755,-99.1822327,-0.1135523559999998,-2.6672339469,-3.70392483875,0.4057419281,0.04409929192,-0.23959211317,0.006
10:03:07,-0.9604651299999998,-2.24498044,3.7267200099999993,0.5730678800000001,-0.03769311,-0.18461395,35.02990177,-25.15112423,-21.84104591,-99.4018514,-0.1022239919999998,-2.6910416058,-3.7301091775,0.4055350242,0.04479401544,-0.23698466394,0.006
10:03:07,-0.9713537949999996,-2.2647324600000003,3.773278215,0.57249792,-0.037623865,-0.1870589249999999,35.043225555,-25.149629445,-21.803499065,-99.6214701,-0.0908956279999999,-2.7148492647,-3.75629351625,0.4053281203,0.04548873896,-0.23437721471,0.006
10:03:07,-0.9822424599999996,-2.28448448,3.81983642,0.57192796,-0.03755462,-0.1895038999999999,35.05654934,-25.14813466,-21.765952220000003,-99.8410888,-0.0795672639999998,-2.7386569236,-3.782477855,0.4051212164,0.04618346248,-0.23176976548,0.006
10:03:07,-0.993131125,-2.3042365,3.866394625,0.571358,-0.037485375,-0.191948875,35.069873125,-25.146639875,-21.728405375,-100.0607075,-0.0682388999999998,-2.7624645825,-3.80866219375,0.4049143125,0.046878186,-0.22916231625,0.006
10:03:07,-1.00401979,-2.32398852,3.912952829999999,0.57078804,-0.03741613,-0.19439385,35.08319691,-25.14514509,-21.69085853,-100.2803262,-0.0569105359999999,-2.7862722414,-3.8348465325,0.4047074086,0.04757290952,-0.22655486702,0.006
10:03:07,-1.0149084549999998,-2.34374054,3.9595110349999993,0.5702180800000001,-0.037346885,-0.1968388249999999,35.096520695,-25.143650305,-21.653311685,-100.4999449,-0.0455821719999998,-2.8100799003,-3.861030871250001,0.4045005047,0.04826763304,-0.22394741779,0.006
10:03:07,-1.0257971199999998,-2.36349256,4.00606924,0.5696481200000001,-0.03727764,-0.1992837999999999,35.10984448,-25.14215552,-21.61576484,-100.7195636,-0.0342538079999998,-2.8338875592,-3.88721521,0.4042936008,0.04896235656,-0.22133996856,0.006
10:03:07,-1.0366857849999995,-2.38324458,4.052627445,0.5690781600000001,-0.037208395,-0.201728775,35.123168265,-25.140660735,-21.578217995000003,-100.9391823,-0.0229254439999999,-2.8576952181,-3.91339954875,0.4040866969,0.04965708008,-0.21873251933,0.006
10:03:07,-1.0475744499999995,-2.4029966000000003,4.09918565,0.5685082,-0.03713915,-0.2041737499999999,35.13649205,-25.13916595,-21.54067115,-101.158801,-0.0115970799999998,-2.881502877,-3.9395838875,0.403879793,0.0503518036,-0.2161250701,0.006
10:03:07,-1.0584631149999997,-2.42274862,4.145743854999999,0.56793824,-0.037069905,-0.2066187249999999,35.149815835,-25.137671165,-21.503124305,-101.3784197,-0.0002687159999998,-2.9053105359,-3.96576822625,0.4036728891,0.05104652712,-0.21351762087,0.006
10:03:07,-1.06935178,-2.44250064,4.192302059999999,0.5673682800000001,-0.03700066,-0.2090637,35.163139619999995,-25.13617638,-21.46557746,-101.5980384,0.011059648,-2.9291181948,-3.991952565,0.4034659852,0.05174125064,-0.21091017164,0.006
10:03:07,-1.0802404449999998,-2.46225266,4.238860265,0.5667983200000001,-0.036931415,-0.211508675,35.176463405,-25.134681595,-21.428030615,-101.8176571,0.0223880120000001,-2.9529258537,-4.01813690375,0.4032590813,0.05243597416,-0.20830272241,0.006
10:03:07,-1.0911291099999998,-2.48200468,4.28541847,0.5662283600000001,-0.03686217,-0.2139536499999999,35.18978719,-25.13318681,-21.39048377,-102.0372758,0.0337163760000001,-2.9767335126,-4.044321242500001,0.4030521774,0.05313069768,-0.20569527318,0.006
10:03:07,-1.1020177749999998,-2.5017567,4.331976675,0.5656584,-0.036792925,-0.2163986249999999,35.203110975,-25.131692025,-21.352936925,-102.2568945,0.04504474,-3.0005411715,-4.07050558125,0.4028452735,0.0538254212,-0.20308782395,0.006
10:03:07,-1.1129064399999995,-2.52150872,4.378534879999999,0.56508844,-0.03672368,-0.2188436,35.21643476,-25.13019724,-21.31539008,-102.4765132,0.0563731040000001,-3.0243488304,-4.09668992,0.4026383696,0.05452014472,-0.20048037472,0.006
10:03:07,-1.1237951049999997,-2.54126074,4.425093084999999,0.56451848,-0.036654435,-0.2212885749999999,35.229758545,-25.128702455,-21.277843235,-102.6961319,0.0677014680000001,-3.0481564893,-4.1228742587500005,0.4024314657,0.05521486824,-0.19787292549,0.006
10:03:07,-1.13468377,-2.56101276,4.47165129,0.5639485200000001,-0.03658519,-0.2237335499999999,35.24308233,-25.12720767,-21.24029639,-102.9157506,0.079029832,-3.0719641482,-4.1490585975,0.4022245618,0.05590959176,-0.19526547626,0.006
10:03:07,-1.1455724349999998,-2.58076478,4.518209495,0.5633785600000001,-0.036515945,-0.226178525,35.256406115,-25.125712885,-21.202749545,-103.1353693,0.0903581960000001,-3.0957718071,-4.17524293625,0.4020176579,0.05660431528,-0.19265802703,0.006
10:03:07,-1.1564610999999998,-2.6005168000000003,4.564767699999999,0.5628086000000001,-0.0364467,-0.2286235,35.2697299,-25.1242181,-21.1652027,-103.354988,0.10168656,-3.119579466,-4.201427275,0.401810754,0.0572990388,-0.1900505778,0.006
10:03:07,-1.1673497649999998,-2.62026882,4.611325904999999,0.56223864,-0.036377455,-0.2310684749999999,35.283053685,-25.122723315,-21.127655855,-103.5746067,0.113014924,-3.1433871249,-4.22761161375,0.4016038501,0.05799376232,-0.18744312857,0.006
10:03:07,-1.1782384299999995,-2.64002084,4.65788411,0.56166868,-0.03630821,-0.2335134499999999,35.29637747,-25.12122853,-21.09010901,-103.7942254,0.1243432880000001,-3.1671947838,-4.2537959525,0.4013969462,0.05868848584,-0.18483567934,0.006
10:03:07,-1.1891270949999997,-2.65977286,4.704442315,0.56109872,-0.036238965,-0.235958425,35.309701255,-25.119733745,-21.052562165,-104.0138441,0.1356716520000001,-3.1910024427,-4.27998029125,0.4011900423,0.05938320936,-0.18222823011,0.006
10:03:07,-1.2000157599999997,-2.67952488,4.75100052,0.5605287600000001,-0.03616972,-0.2384033999999999,35.32302504,-25.11823896,-21.01501532,-104.2334628,0.1470000160000002,-3.2148101016,-4.3061646300000005,0.4009831384,0.06007793288,-0.17962078088,0.006
10:03:07,-1.2109044249999998,-2.6992769,4.797558724999999,0.5599588000000001,-0.036100475,-0.2408483749999999,35.336348825,-25.116744175,-20.977468475,-104.4530815,0.1583283800000001,-3.2386177605,-4.33234896875,0.4007762345,0.0607726564,-0.17701333165,0.006
10:03:07,-1.2217930899999998,-2.71902892,4.844116929999999,0.55938884,-0.03603123,-0.24329335,35.34967261,-25.11524939,-20.93992163,-104.6727002,0.169656744,-3.2624254194,-4.3585333075,0.4005693306,0.06146737992,-0.17440588242,0.006
10:03:07,-1.2326817549999998,-2.7387809400000003,4.890675135,0.55881888,-0.035961985,-0.245738325,35.362996395,-25.113754605,-20.902374785,-104.8923189,0.1809851080000002,-3.2862330783,-4.38471764625,0.4003624267,0.06216210344,-0.17179843319,0.006
10:03:07,-1.2435704199999995,-2.75853296,4.93723334,0.55824892,-0.03589274,-0.2481832999999999,35.37632018,-25.11225982,-20.86482794,-105.1119376,0.1923134720000001,-3.3100407372,-4.410901985,0.4001555228,0.06285682696,-0.16919098396,0.006
10:03:07,-1.2544590849999997,-2.77828498,4.983791545,0.5576789600000001,-0.035823495,-0.2506282749999999,35.389643965,-25.110765035,-20.827281095,-105.3315563,0.203641836,-3.3338483961,-4.43708632375,0.3999486189,0.06355155048,-0.16658353473,0.006
10:03:07,-1.2653477499999997,-2.7980370000000003,5.030349749999999,0.5571090000000001,-0.03575425,-0.25307325,35.402967749999995,-25.10927025,-20.78973425,-105.551175,0.2149702000000002,-3.357656055,-4.4632706625,0.399741715,0.064246274,-0.1639760855,0.006
10:03:07,-1.2762364149999998,-2.81778902,5.076907954999999,0.5565390400000001,-0.035685005,-0.255518225,35.416291535,-25.107775465,-20.752187405,-105.7707937,0.2262985640000001,-3.3814637139,-4.4894550012500005,0.3995348111,0.06494099752,-0.16136863627,0.006
10:03:07,-1.2871250799999998,-2.83754104,5.12346616,0.55596908,-0.0356157599999999,-0.2579631999999999,35.42961532,-25.10628068,-20.71464056,-105.9904124,0.237626928,-3.4052713728,-4.51563934,0.3993279072,0.06563572104,-0.15876118704,0.006
10:03:07,-1.2980137449999998,-2.85729306,5.170024365,0.55539912,-0.035546515,-0.260408175,35.442939105,-25.104785895,-20.677093715,-106.2100311,0.2489552920000002,-3.4290790317,-4.54182367875,0.3991210033,0.06633044456,-0.15615373781,0.006
10:03:07,-1.3089024099999995,-2.8770450800000003,5.21658257,0.55482916,-0.03547727,-0.26285315,35.45626289,-25.10329111,-20.63954687,-106.4296498,0.2602836560000001,-3.4528866906,-4.5680080175,0.3989140994,0.06702516808,-0.15354628858,0.006
10:03:07,-1.3197910749999997,-2.8967971,5.263140774999999,0.5542592000000001,-0.035408025,-0.2652981249999999,35.469586674999995,-25.101796325,-20.602000025,-106.6492685,0.27161202,-3.4766943495,-4.59419235625,0.3987071955,0.0677198916,-0.15093883935,0.006
10:03:07,-1.3306797399999997,-2.91654912,5.309698979999999,0.5536892400000001,-0.03533878,-0.2677431,35.48291046,-25.10030154,-20.56445318,-106.8688872,0.2829403840000002,-3.5005020084,-4.620376695,0.3985002916,0.06841461512,-0.14833139012,0.006
10:03:07,-1.341568405,-2.9363011400000003,5.356257185,0.55311928,-0.035269535,-0.2701880749999999,35.496234245,-25.098806755,-20.526906335,-107.0885059,0.2942687480000001,-3.5243096673,-4.64656103375,0.3982933877,0.06910933864,-0.14572394089,0.006
10:03:07,-1.3524570699999998,-2.95605316,5.40281539,0.55254932,-0.03520029,-0.2726330499999999,35.50955803,-25.09731197,-20.48935949,-107.3081246,0.305597112,-3.5481173262,-4.6727453725,0.3980864838,0.06980406216,-0.14311649166,0.006
10:03:07,-1.3633457349999998,-2.97580518,5.449373594999999,0.55197936,-0.035131045,-0.275078025,35.522881815,-25.095817185,-20.451812645,-107.5277433,0.3169254760000002,-3.5719249851,-4.69892971125,0.3978795799,0.07049878568,-0.14050904243,0.006
10:03:07,-1.3742343999999995,-2.9955572000000004,5.495931799999999,0.5514094,-0.0350618,-0.2775229999999999,35.536205599999995,-25.0943224,-20.414265800000003,-107.747362,0.3282538400000001,-3.595732644,-4.72511405,0.397672676,0.0711935092,-0.1379015932,0.006
10:03:07,-1.3851230649999997,-3.01530922,5.542490004999999,0.5508394400000001,-0.034992555,-0.2799679749999999,35.549529385,-25.092827615,-20.376718955,-107.9669807,0.339582204,-3.6195403029,-4.75129838875,0.3974657721,0.07188823272,-0.13529414397,0.006
10:03:07,-1.3960117299999997,-3.03506124,5.58904821,0.5502694800000001,-0.03492331,-0.28241295,35.56285317,-25.09133283,-20.33917211,-108.1865994,0.3509105680000002,-3.6433479618,-4.7774827275,0.3972588682,0.07258295624,-0.13268669474,0.006
10:03:07,-1.4069003949999996,-3.05481326,5.635606415,0.5496995200000001,-0.034854065,-0.2848579249999999,35.576176955,-25.089838045,-20.301625265,-108.4062181,0.3622389320000001,-3.6671556207,-4.80366706625,0.3970519643,0.07327767976,-0.13007924551,0.006
10:03:07,-1.4177890599999998,-3.0745652800000003,5.682164619999999,0.54912956,-0.03478482,-0.2873029,35.58950074,-25.08834326,-20.26407842,-108.6258368,0.373567296,-3.6909632796,-4.829851405,0.3968450604,0.07397240328,-0.12747179628,0.006
10:03:07,-1.4286777249999998,-3.0943173,5.728722824999999,0.5485596,-0.034715575,-0.289747875,35.602824525,-25.086848475,-20.226531575000003,-108.8454555,0.3848956600000002,-3.7147709385,-4.85603574375,0.3966381565,0.0746671268,-0.12486434705,0.006
10:03:07,-1.4395663899999998,-3.11406932,5.77528103,0.5479896400000001,-0.03464633,-0.2921928499999999,35.61614831,-25.08535369,-20.18898473,-109.0650742,0.3962240240000001,-3.7385785974,-4.8822200825,0.3964312526,0.07536185032,-0.12225689782,0.006
10:03:07,-1.4504550549999995,-3.1338213400000003,5.821839235,0.5474196800000001,-0.034577085,-0.294637825,35.629472095,-25.083858905,-20.151437885,-109.2846929,0.407552388,-3.7623862563,-4.90840442125,0.3962243487,0.07605657384,-0.11964944859,0.006
10:03:07,-1.4613437199999997,-3.15357336,5.86839744,0.5468497200000001,-0.03450784,-0.2970828,35.642795879999994,-25.08236412,-20.11389104,-109.5043116,0.4188807520000002,-3.7861939152,-4.93458876,0.3960174448,0.07675129736,-0.11704199936,0.006
10:03:07,-1.4722323849999996,-3.17332538,5.914955644999999,0.54627976,-0.034438595,-0.2995277749999999,35.656119665,-25.080869335,-20.076344195,-109.7239303,0.4302091160000001,-3.8100015741,-4.96077309875,0.3958105409,0.07744602088,-0.11443455013,0.006
10:03:07,-1.4831210499999998,-3.1930774,5.961513849999999,0.5457098,-0.03436935,-0.30197275,35.66944345,-25.07937455,-20.038797350000003,-109.943549,0.44153748,-3.833809233,-4.9869574375,0.395603637,0.0781407444,-0.1118271009,0.006
10:03:07,-1.4940097149999998,-3.2128294200000003,6.008072055,0.54513984,-0.034300105,-0.304417725,35.682767235,-25.077879765,-20.001250505,-110.1631677,0.4528658440000002,-3.8576168919,-5.01314177625,0.3953967331,0.07883546792,-0.10921965167,0.006
10:03:07,-1.5048983799999998,-3.23258144,6.05463026,0.5445698800000001,-0.03423086,-0.3068626999999999,35.69609102,-25.07638498,-19.96370366,-110.3827864,0.4641942080000001,-3.8814245508,-5.039326115,0.3951898292,0.07953019144,-0.10661220244,0.006
10:03:07,-1.5157870449999995,-3.25233346,6.101188465,0.5439999200000001,-0.034161615,-0.309307675,35.709414804999994,-25.074890195,-19.926156815,-110.6024051,0.475522572,-3.9052322097,-5.06551045375,0.3949829253,0.08022491496,-0.10400475321,0.006
10:03:07,-1.5266757099999997,-3.2720854800000003,6.14774667,0.5434299600000001,-0.03409237,-0.3117526499999999,35.72273859,-25.07339541,-19.88860997,-110.8220238,0.4868509360000002,-3.9290398686,-5.0916947925,0.3947760214,0.08091963848,-0.10139730398,0.006
10:03:07,-1.5375643749999997,-3.2918375,6.194304875,0.54286,-0.034023125,-0.3141976249999999,35.736062375,-25.071900625,-19.851063125,-111.0416425,0.4981793000000001,-3.9528475275,-5.11787913125,0.3945691175,0.081614362,-0.09878985475,0.006
10:03:07,-1.5484530399999998,-3.31158952,6.240863079999999,0.54229004,-0.03395388,-0.3166426,35.74938616,-25.07040584,-19.81351628,-111.2612612,0.509507664,-3.9766551864,-5.14406347,0.3943622136,0.08230908552,-0.09618240552,0.006
10:03:07,-1.5593417049999998,-3.3313415400000004,6.287421284999999,0.54172008,-0.0338846349999999,-0.3190875749999999,35.762709945,-25.068911055,-19.775969435,-111.4808799,0.5208360280000002,-4.0004628453,-5.17024780875,0.3941553097,0.08300380904,-0.09357495629,0.006
10:03:07,-1.5702303699999998,-3.35109356,6.333979489999999,0.5411501200000001,-0.03381539,-0.32153255,35.776033729999995,-25.06741627,-19.73842259,-111.7004986,0.5321643920000003,-4.0242705042,-5.1964321475,0.3939484058,0.08369853256,-0.09096750706,0.006
10:03:07,-1.5811190349999995,-3.37084558,6.380537694999999,0.5405801600000001,-0.033746145,-0.323977525,35.789357515,-25.065921485,-19.700875745,-111.9201173,0.543492756,-4.0480781631,-5.22261648625,0.3937415019,0.08439325608,-0.08836005783,0.006
10:03:07,-1.5920076999999997,-3.3905976,6.427095899999999,0.5400102,-0.0336769,-0.3264224999999999,35.8026813,-25.0644267,-19.6633289,-112.139736,0.5548211200000002,-4.071885822,-5.248800825,0.393534598,0.0850879796,-0.0857526086,0.006
10:03:07,-1.6028963649999997,-3.4103496200000003,6.473654105,0.53944024,-0.033607655,-0.328867475,35.816005085,-25.062931915,-19.625782055,-112.3593547,0.5661494840000003,-4.0956934809,-5.27498516375,0.3933276941,0.08578270312,-0.08314515937,0.006
10:03:07,-1.6137850299999996,-3.43010164,6.52021231,0.53887028,-0.03353841,-0.33131245,35.82932887,-25.06143713,-19.58823521,-112.5789734,0.577477848,-4.1195011398,-5.3011695025,0.3931207902,0.08647742664,-0.08053771014,0.006
10:03:07,-1.6246736949999998,-3.44985366,6.566770515,0.53830032,-0.033469165,-0.3337574249999999,35.842652654999995,-25.059942345,-19.550688365,-112.7985921,0.5888062120000002,-4.1433087987,-5.32735384125,0.3929138863,0.08717215016,-0.07793026091,0.006
10:03:07,-1.6355623599999995,-3.4696056800000004,6.61332872,0.5377303600000001,-0.03339992,-0.3362024,35.85597644,-25.05844756,-19.51314152,-113.0182108,0.6001345760000003,-4.1671164576,-5.35353818,0.3927069824,0.08786687368,-0.0753228116800001,0.006
10:03:07,-1.6464510249999995,-3.4893577,6.659886924999999,0.5371604000000001,-0.033330675,-0.338647375,35.869300225,-25.056952775000003,-19.475594675,-113.2378295,0.61146294,-4.1909241165,-5.37972251875,0.3925000785,0.0885615972,-0.0727153624500001,0.006
10:03:07,-1.65733969,-3.50910972,6.706445129999999,0.5365904400000001,-0.03326143,-0.3410923499999999,35.88262401,-25.05545799,-19.43804783,-113.4574482,0.6227913040000002,-4.2147317754,-5.4059068575,0.3922931746,0.08925632072,-0.0701079132200001,0.006
10:03:07,-1.668228355,-3.5288617400000004,6.753003334999999,0.53602048,-0.033192185,-0.343537325,35.895947795,-25.053963205,-19.400500985,-113.6770669,0.6341196680000003,-4.2385394343,-5.43209119625,0.3920862707,0.08995104424,-0.06750046399,0.006
10:03:07,-1.6791170199999998,-3.5486137600000003,6.799561539999999,0.53545052,-0.03312294,-0.3459822999999999,35.909271579999995,-25.05246842,-19.36295414,-113.8966856,0.645448032,-4.2623470932,-5.458275535,0.3918793668,0.09064576776,-0.06489301476,0.006
10:03:07,-1.6900056849999998,-3.56836578,6.846119744999999,0.5348805600000001,-0.033053695,-0.3484272749999999,35.922595365,-25.050973635,-19.325407295,-114.1163043,0.6567763960000002,-4.2861547521,-5.48445987375,0.3916724629,0.09134049128,-0.06228556553,0.006
10:03:07,-1.7008943499999998,-3.5881178,6.89267795,0.5343106000000001,-0.03298445,-0.35087225,35.93591915,-25.04947885,-19.28786045,-114.335923,0.6681047600000003,-4.309962411,-5.5106442125,0.391465559,0.0920352148,-0.0596781163,0.006
10:03:07,-1.7117830149999995,-3.60786982,6.939236155,0.5337406400000001,-0.032915205,-0.3533172249999999,35.949242935,-25.047984065,-19.250313605,-114.5555417,0.679433124,-4.3337700699,-5.53682855125,0.3912586551,0.09272993832,-0.05707066707,0.006
10:03:07,-1.7226716799999997,-3.62762184,6.98579436,0.53317068,-0.03284596,-0.3557621999999999,35.96256672,-25.04648928,-19.21276676,-114.7751604,0.6907614880000001,-4.3575777288,-5.56301289,0.3910517512,0.09342466184,-0.05446321784,0.006
10:03:07,-1.7335603449999997,-3.64737386,7.032352565,0.53260072,-0.032776715,-0.358207175,35.975890504999995,-25.044994495,-19.175219915,-114.9947791,0.7020898520000003,-4.3813853877,-5.58919722875,0.3908448473,0.09411938536,-0.05185576861,0.006
10:03:07,-1.7444490099999996,-3.66712588,7.07891077,0.53203076,-0.03270747,-0.3606521499999999,35.98921429,-25.043499710000003,-19.13767307,-115.2143978,0.713418216,-4.4051930466,-5.6153815675,0.3906379434,0.09481410888,-0.04924831938,0.006
10:03:07,-1.7553376749999996,-3.6868779,7.125468974999999,0.5314608000000001,-0.032638225,-0.363097125,36.002538075,-25.042004925,-19.100126225,-115.4340165,0.7247465800000001,-4.4290007055,-5.64156590625,0.3904310395,0.0955088324,-0.04664087015,0.006
10:03:07,-1.7662263399999996,-3.70662992,7.172027179999999,0.5308908400000001,-0.03256898,-0.3655421,36.015861859999994,-25.04051014,-19.062579380000003,-115.6536352,0.7360749440000003,-4.4528083644,-5.667750245,0.3902241356,0.09620355592,-0.04403342092,0.006
10:03:07,-1.7771150049999995,-3.72638194,7.218585384999999,0.5303208800000001,-0.032499735,-0.3679870749999999,36.029185645,-25.039015355,-19.025032535,-115.8732539,0.747403308,-4.4766160233,-5.69393458375,0.3900172317,0.09689827944,-0.04142597169,0.006
10:03:07,-1.7880036699999995,-3.74613396,7.265143589999999,0.52975092,-0.03243049,-0.37043205,36.04250943,-25.03752057,-18.98748569,-116.0928726,0.7587316720000001,-4.5004236822,-5.7201189225,0.3898103278,0.09759300296,-0.03881852246,0.006
10:03:07,-1.798892335,-3.76588598,7.311701794999999,0.52918096,-0.032361245,-0.372877025,36.055833215,-25.036025785,-18.949938845,-116.3124913,0.7700600360000003,-4.5242313411,-5.74630326125,0.3896034239,0.09828772648,-0.03621107323,0.006
10:03:08,-1.809781,-3.785638,7.35826,0.528611,-0.032292,-0.375322,36.069157,-25.034531,-18.912392,-116.53211,0.7813884,-4.548039,-5.7724876,0.38939652,0.09898245,-0.033603624,0.006
10:03:08,-1.799370375,-3.77064911,7.30775431,0.52621929,-0.029586015,-0.37318065,36.093777685,-25.002611365,-18.943034395,-116.30020915,0.7646584165,-4.530114437,-5.7475275265,0.3879379225,0.10103793945,-0.03289970478,0.006
10:03:08,-1.78895975,-3.75566022,7.257248619999999,0.5238275800000001,-0.02688003,-0.3710393,36.11839837,-24.97069173,-18.97367679,-116.0683083,0.747928433,-4.512189874000001,-5.722567453,0.386479325,0.1030934289,-0.0321957855599999,0.006
10:03:08,-1.778549125,-3.74067133,7.20674293,0.52143587,-0.024174045,-0.36889795,36.143019055,-24.938772095,-19.004319185,-115.83640745,0.7311984495,-4.494265311,-5.6976073795,0.3850207275,0.10514891835,-0.03149186634,0.006
10:03:08,-1.7681385,-3.72568244,7.156237239999999,0.5190441600000001,-0.02146806,-0.3667566,36.16763974,-24.90685246,-19.03496158,-115.6045066,0.714468466,-4.476340748,-5.672647306,0.38356213,0.1072044078,-0.03078794712,0.006
10:03:08,-1.757727875,-3.71069355,7.10573155,0.51665245,-0.018762075,-0.36461525,36.192260425,-24.874932825,-19.065603975,-115.37260575,0.6977384824999999,-4.458416185,-5.6476872325,0.3821035325,0.10925989725,-0.0300840278999999,0.006
10:03:08,-1.74731725,-3.69570466,7.055225859999999,0.5142607400000001,-0.01605609,-0.3624739,36.21688111,-24.84301319,-19.09624637,-115.1407049,0.681008499,-4.440491622000001,-5.622727159,0.380644935,0.1113153867,-0.02938010868,0.006
10:03:08,-1.736906625,-3.68071577,7.00472017,0.5118690300000001,-0.013350105,-0.36033255,36.241501795,-24.811093555000003,-19.126888765,-114.90880405,0.6642785154999999,-4.422567059,-5.5977670855,0.3791863375,0.11337087615,-0.0286761894599999,0.006
10:03:08,-1.726496,-3.66572688,6.954214479999999,0.50947732,-0.01064412,-0.3581912,36.26612248,-24.77917392,-19.15753116,-114.6769032,0.647548532,-4.404642496,-5.572807012,0.37772774,0.1154263656,-0.02797227024,0.006
10:03:08,-1.716085375,-3.65073799,6.90370879,0.5070856100000001,-0.0079381349999999,-0.35604985,36.290743165,-24.747254285,-19.188173555,-114.44500235,0.6308185485,-4.386717933,-5.5478469385,0.3762691425,0.11748185505,-0.0272683510199999,0.006
10:03:08,-1.70567475,-3.6357491,6.8532031,0.5046939,-0.0052321499999999,-0.3539085,36.31536385,-24.715334650000003,-19.21881595,-114.2131015,0.614088565,-4.368793370000001,-5.522886865,0.374810545,0.1195373445,-0.0265644318,0.006
10:03:08,-1.695264125,-3.62076021,6.80269741,0.5023021900000001,-0.002526165,-0.35176715,36.339984535,-24.683415015,-19.249458345,-113.98120065,0.5973585815,-4.350868807,-5.497926791499999,0.3733519475,0.12159283395,-0.0258605125799999,0.006
10:03:08,-1.6848535,-3.60577132,6.75219172,0.49991048,0.0001798199999999,-0.3496258,36.36460522,-24.65149538,-19.28010074,-113.7492998,0.580628598,-4.332944244,-5.472966718,0.37189335,0.1236483234,-0.02515659336,0.006
10:03:08,-1.674442875,-3.59078243,6.701686029999999,0.49751877,0.0028858049999999,-0.34748445,36.389225905,-24.619575745,-19.310743135,-113.51739895,0.5638986145,-4.315019681,-5.4480066445,0.3704347525,0.12570381285,-0.02445267414,0.006
10:03:08,-1.66403225,-3.5757935400000003,6.65118034,0.49512706,0.0055917899999999,-0.3453431,36.41384659,-24.58765611,-19.34138553,-113.2854981,0.547168631,-4.2970951180000005,-5.423046571,0.368976155,0.1277593023,-0.0237487549199999,0.006
10:03:08,-1.653621625,-3.56080465,6.60067465,0.49273535,0.008297775,-0.3432017499999999,36.438467275,-24.555736475,-19.372027925,-113.05359725,0.5304386475,-4.279170555,-5.3980864975,0.3675175575,0.12981479175,-0.0230448357,0.006
10:03:08,-1.643211,-3.54581576,6.55016896,0.4903436400000001,0.01100376,-0.3410604,36.46308796,-24.52381684,-19.40267032,-112.8216964,0.5137086639999999,-4.261245992,-5.373126424,0.36605896,0.1318702812,-0.02234091648,0.006
10:03:08,-1.632800375,-3.5308268700000003,6.499663269999999,0.48795193,0.013709745,-0.33891905,36.487708645,-24.491897205,-19.433312715,-112.58979555,0.4969786805,-4.243321429,-5.3481663505,0.3646003625,0.13392577065,-0.02163699726,0.006
10:03:08,-1.62238975,-3.51583798,6.44915758,0.48556022,0.01641573,-0.3367777,36.51232933,-24.45997757,-19.46395511,-112.3578947,0.480248697,-4.2253968660000005,-5.323206277,0.363141765,0.1359812601,-0.0209330780399999,0.006
10:03:08,-1.6119791250000002,-3.50084909,6.39865189,0.48316851,0.019121715,-0.3346363499999999,36.536950015,-24.428057935,-19.494597505,-112.12599385,0.4635187134999999,-4.207472303,-5.2982462035,0.3616831675,0.13803674955,-0.02022915882,0.006
10:03:08,-1.6015685000000002,-3.4858602,6.3481462,0.4807768,0.0218277,-0.332495,36.5615707,-24.3961383,-19.5252399,-111.894093,0.4467887299999999,-4.18954774,-5.27328613,0.36022457,0.140092239,-0.0195252396,0.006
10:03:08,-1.5911578750000002,-3.47087131,6.29764051,0.47838509,0.024533685,-0.33035365,36.586191385,-24.364218665000003,-19.555882295,-111.66219215,0.4300587465,-4.171623177,-5.2483260565,0.3587659725,0.14214772845,-0.01882132038,0.006
10:03:08,-1.5807472500000002,-3.45588242,6.247134819999999,0.47599338,0.02723967,-0.3282123,36.61081207,-24.33229903,-19.58652469,-111.4302913,0.413328763,-4.1536986140000005,-5.223365983,0.357307375,0.1442032179,-0.0181174011599999,0.006
10:03:08,-1.5703366250000002,-3.44089353,6.19662913,0.47360167,0.029945655,-0.3260709499999999,36.635432755,-24.300379395,-19.617167085,-111.19839045,0.3965987795,-4.135774051,-5.1984059095,0.3558487775,0.14625870735,-0.01741348194,0.006
10:03:08,-1.559926,-3.42590464,6.14612344,0.47120996,0.0326516399999999,-0.3239296,36.66005344,-24.26845976,-19.64780948,-110.9664896,0.379868796,-4.117849488,-5.173445836,0.35439018,0.1483141968,-0.0167095627199999,0.006
10:03:08,-1.549515375,-3.41091575,6.09561775,0.46881825,0.035357625,-0.32178825,36.684674125,-24.236540125,-19.678451875,-110.73458875,0.3631388124999999,-4.099924925,-5.1484857625,0.3529315825,0.15036968625,-0.0160056435,0.006
10:03:08,-1.53910475,-3.39592686,6.045112059999999,0.46642654,0.03806361,-0.3196469,36.70929481,-24.20462049,-19.70909427,-110.5026879,0.346408829,-4.0820003620000005,-5.123525689,0.351472985,0.1524251757,-0.0153017242799999,0.006
10:03:08,-1.528694125,-3.38093797,5.99460637,0.46403483,0.040769595,-0.31750555,36.733915495,-24.172700855,-19.739736665,-110.27078705,0.3296788455,-4.064075799,-5.0985656155,0.3500143875,0.15448066515,-0.01459780506,0.006
10:03:08,-1.5182835,-3.36594908,5.94410068,0.4616431200000001,0.04347558,-0.3153642,36.75853618,-24.14078122,-19.77037906,-110.0388862,0.312948862,-4.046151236,-5.073605542,0.34855579,0.1565361546,-0.0138938858399999,0.006
10:03:08,-1.507872875,-3.35096019,5.89359499,0.45925141,0.046181565,-0.31322285,36.783156865,-24.108861585,-19.801021455,-109.80698535,0.2962188785,-4.028226673,-5.0486454685,0.3470971925,0.15859164405,-0.01318996662,0.006
10:03:08,-1.49746225,-3.3359713,5.8430893,0.4568597,0.04888755,-0.3110815,36.80777755,-24.07694195,-19.83166385,-109.5750845,0.2794888949999999,-4.0103021100000005,-5.023685395,0.345638595,0.1606471335,-0.0124860473999999,0.006
10:03:08,-1.487051625,-3.32098241,5.792583609999999,0.45446799,0.051593535,-0.3089401499999999,36.832398235,-24.045022315,-19.862306245,-109.34318365,0.2627589114999999,-3.992377547,-4.9987253215,0.3441799975,0.16270262295,-0.01178212818,0.006
10:03:08,-1.476641,-3.30599352,5.74207792,0.45207628,0.05429952,-0.3067988,36.85701892,-24.013102680000003,-19.89294864,-109.1112828,0.2460289279999999,-3.974452984,-4.973765247999999,0.3427214,0.1647581124,-0.0110782089599999,0.006
10:03:08,-1.466230375,-3.29100463,5.69157223,0.44968457,0.057005505,-0.30465745,36.881639605,-23.981183045,-19.923591035,-108.87938195,0.2292989445,-3.956528421,-4.9488051745,0.3412628025,0.16681360185,-0.0103742897399999,0.006
10:03:08,-1.45581975,-3.27601574,5.64106654,0.44729286,0.05971149,-0.3025161,36.90626029,-23.94926341,-19.95423343,-108.6474811,0.212568961,-3.938603858,-4.923845101,0.339804205,0.1688690913,-0.0096703705199999,0.006
10:03:08,-1.445409125,-3.26102685,5.59056085,0.4449011500000001,0.062417475,-0.30037475,36.930880975,-23.917343775000003,-19.984875825,-108.41558025,0.1958389775,-3.920679295,-4.8988850275,0.3383456075,0.17092458075,-0.0089664512999999,0.006
10:03:08,-1.4349985,-3.24603796,5.54005516,0.44250944,0.06512346,-0.2982334,36.95550166,-23.88542414,-20.01551822,-108.1836794,0.179108994,-3.902754732,-4.873924954,0.33688701,0.1729800702,-0.00826253208,0.006
10:03:08,-1.424587875,-3.23104907,5.48954947,0.44011773,0.067829445,-0.29609205,36.980122345,-23.853504505,-20.046160615,-107.95177855,0.1623790105,-3.884830169,-4.8489648805,0.3354284125,0.17503555965,-0.0075586128599999,0.006
10:03:08,-1.41417725,-3.21606018,5.43904378,0.43772602,0.07053543,-0.2939507,37.00474303,-23.82158487,-20.07680301,-107.7198777,0.1456490269999999,-3.866905606,-4.824004807,0.333969815,0.1770910491,-0.0068546936399999,0.006
10:03:08,-1.403766625,-3.20107129,5.38853809,0.43533431,0.073241415,-0.2918093499999999,37.029363715,-23.789665235,-20.107445405,-107.48797685,0.1289190434999999,-3.848981043,-4.7990447335,0.3325112175,0.17914653855,-0.0061507744199999,0.006
10:03:08,-1.393356,-3.1860824,5.3380324,0.4329426,0.0759474,-0.289668,37.0539844,-23.7577456,-20.1380878,-107.256076,0.1121890599999999,-3.83105648,-4.77408466,0.33105262,0.181202028,-0.0054468552,0.006
10:03:08,-1.382945375,-3.17109351,5.28752671,0.43055089,0.078653385,-0.28752665,37.078605085,-23.725825965,-20.168730195,-107.02417515,0.0954590764999999,-3.813131917,-4.7491245865,0.3295940225,0.18325751745,-0.0047429359799999,0.006
10:03:08,-1.37253475,-3.15610462,5.23702102,0.4281591800000001,0.08135937,-0.2853853,37.10322577,-23.69390633,-20.19937259,-106.7922743,0.0787290929999999,-3.795207354,-4.724164513,0.328135425,0.1853130069,-0.00403901676,0.006
10:03:08,-1.362124125,-3.14111573,5.18651533,0.42576747,0.084065355,-0.28324395,37.127846455,-23.661986695,-20.230014985,-106.56037345,0.0619991094999999,-3.777282791,-4.6992044395,0.3266768275,0.18736849635,-0.0033350975399999,0.006
10:03:08,-1.3517135000000002,-3.12612684,5.13600964,0.42337576,0.08677134,-0.2811026,37.15246714,-23.63006706,-20.26065738,-106.3284726,0.0452691259999999,-3.759358228,-4.674244366,0.32521823,0.1894239858,-0.00263117832,0.006
10:03:08,-1.3413028750000002,-3.11113795,5.08550395,0.42098405,0.089477325,-0.27896125,37.177087825,-23.598147425,-20.291299775,-106.09657175,0.0285391425,-3.741433665,-4.6492842925,0.3237596325,0.19147947525,-0.0019272591,0.006
10:03:08,-1.3308922500000002,-3.09614906,5.03499826,0.41859234,0.09218331,-0.2768199,37.20170851,-23.56622779,-20.32194217,-105.8646709,0.011809159,-3.723509102,-4.624324219,0.322301035,0.1935349647,-0.00122333988,0.006
10:03:08,-1.3204816250000002,-3.08116017,4.9844925700000005,0.41620063,0.094889295,-0.2746785499999999,37.226329195,-23.534308155,-20.352584565,-105.63277005,-0.0049208244999999,-3.705584539,-4.5993641455,0.3208424375,0.19559045415,-0.0005194206599999,0.006
10:03:08,-1.3100710000000002,-3.06617128,4.93398688,0.41380892,0.0975952799999999,-0.2725372,37.25094988,-23.50238852,-20.38322696,-105.4008692,-0.0216508079999999,-3.687659976,-4.574404072,0.31938384,0.1976459436,0.00018449856,0.006
10:03:08,-1.2996603750000002,-3.05118239,4.88348119,0.41141721,0.100301265,-0.27039585,37.275570565,-23.470468885000003,-20.413869355,-105.16896835,-0.0383807915,-3.669735413,-4.5494439985,0.3179252425,0.19970143305,0.00088841778,0.006
10:03:08,-1.2892497500000002,-3.0361935,4.8329755,0.4090255,0.10300725,-0.2682545,37.30019125,-23.43854925,-20.44451175,-104.9370675,-0.055110775,-3.65181085,-4.524483925,0.316466645,0.2017569225,0.0015923369999999,0.006
10:03:08,-1.2788391250000002,-3.02120461,4.78246981,0.40663379,0.105713235,-0.26611315,37.324811935,-23.406629615,-20.475154145,-104.70516665,-0.0718407585,-3.633886287,-4.499523851499999,0.3150080475,0.20381241195,0.00229625622,0.006
10:03:08,-1.2684285000000002,-3.00621572,4.73196412,0.40424208,0.10841922,-0.2639718,37.34943262,-23.37470998,-20.50579654,-104.4732658,-0.088570742,-3.615961724,-4.474563778,0.31354945,0.2058679014,0.00300017544,0.006
10:03:08,-1.2580178750000002,-2.99122683,4.68145843,0.40185037,0.111125205,-0.26183045,37.374053305,-23.342790345,-20.536438935,-104.24136495,-0.1053007255,-3.598037161,-4.449603704499999,0.3120908525,0.20792339085,0.00370409466,0.006
10:03:08,-1.2476072500000002,-2.97623794,4.63095274,0.3994586600000001,0.11383119,-0.2596891,37.39867399,-23.31087071,-20.56708133,-104.0094641,-0.122030709,-3.5801125980000004,-4.424643631,0.310632255,0.2099788803,0.0044080138799999,0.006
10:03:08,-1.2371966250000002,-2.96124905,4.58044705,0.39706695,0.116537175,-0.25754775,37.423294675,-23.278951075,-20.597723725,-103.77756325,-0.1387606925,-3.562188035,-4.3996835575,0.3091736575,0.21203436975,0.0051119331,0.006
10:03:08,-1.2267860000000002,-2.94626016,4.5299413600000005,0.39467524,0.11924316,-0.2554064,37.44791536,-23.24703144,-20.62836612,-103.5456624,-0.155490676,-3.544263472,-4.374723484,0.30771506,0.2140898592,0.00581585232,0.006
10:03:08,-1.216375375,-2.93127127,4.47943567,0.39228353,0.121949145,-0.25326505,37.472536045,-23.215111805,-20.659008515,-103.31376155,-0.1722206594999999,-3.526338909,-4.3497634105,0.3062564625,0.21614534865,0.00651977154,0.006
10:03:08,-1.20596475,-2.91628238,4.42892998,0.38989182,0.12465513,-0.2511237,37.49715673,-23.18319217,-20.68965091,-103.0818607,-0.1889506429999999,-3.5084143460000004,-4.324803337,0.304797865,0.2182008381,0.0072236907599999,0.006
10:03:08,-1.195554125,-2.90129349,4.37842429,0.38750011,0.127361115,-0.24898235,37.521777415,-23.151272535,-20.720293305,-102.84995985,-0.2056806265,-3.490489783,-4.2998432635,0.3033392675,0.22025632755,0.00792760998,0.006
10:03:08,-1.1851435,-2.8863046,4.3279186,0.3851084,0.1300671,-0.246841,37.5463981,-23.119352900000003,-20.7509357,-102.618059,-0.22241061,-3.47256522,-4.27488319,0.30188067,0.222311817,0.0086315292,0.006
10:03:08,-1.174732875,-2.87131571,4.277412910000001,0.3827166900000001,0.132773085,-0.24469965,37.571018785,-23.087433265,-20.781578095,-102.38615815,-0.2391405934999999,-3.454640657,-4.2499231165,0.3004220725,0.22436730645,0.00933544842,0.006
10:03:08,-1.16432225,-2.85632682,4.22690722,0.38032498,0.13547907,-0.2425583,37.59563947,-23.05551363,-20.81222049,-102.1542573,-0.255870577,-3.4367160940000003,-4.224963043,0.298963475,0.2264227959,0.0100393676399999,0.006
10:03:08,-1.153911625,-2.84133793,4.17640153,0.37793327,0.138185055,-0.24041695,37.620260155,-23.023593995,-20.842862885,-101.92235645,-0.2726005604999999,-3.418791531,-4.2000029695,0.2975048775,0.22847828535,0.01074328686,0.006
10:03:08,-1.143501,-2.82634904,4.12589584,0.37554156,0.14089104,-0.2382756,37.64488084,-22.99167436,-20.87350528,-101.6904556,-0.289330544,-3.400866968,-4.175042896,0.29604628,0.2305337748,0.01144720608,0.006
10:03:08,-1.133090375,-2.81136015,4.0753901500000005,0.37314985,0.143597025,-0.23613425,37.669501525,-22.959754725,-20.904147675,-101.45855475,-0.3060605275000001,-3.382942405,-4.1500828225,0.2945876825,0.23258926425,0.0121511253,0.006
10:03:08,-1.12267975,-2.79637126,4.02488446,0.37075814,0.14630301,-0.2339929,37.69412221,-22.92783509,-20.93479007,-101.2266539,-0.322790511,-3.3650178420000003,-4.125122749,0.293129085,0.2346447537,0.01285504452,0.006
10:03:08,-1.112269125,-2.78138237,3.97437877,0.36836643,0.149008995,-0.23185155,37.718742895,-22.895915455,-20.965432465,-100.99475305,-0.3395204945000001,-3.347093279,-4.1001626755,0.2916704875,0.23670024315,0.0135589637399999,0.006
10:03:08,-1.1018585,-2.76639348,3.92387308,0.3659747200000001,0.15171498,-0.2297102,37.74336358,-22.86399582,-20.99607486,-100.7628522,-0.356250478,-3.329168716,-4.075202602,0.29021189,0.2387557326,0.01426288296,0.006
10:03:08,-1.091447875,-2.75140459,3.87336739,0.36358301,0.154420965,-0.22756885,37.767984265,-22.832076185,-21.026717255,-100.53095135,-0.3729804615000001,-3.311244153,-4.0502425285,0.2887532925,0.24081122205,0.01496680218,0.006
10:03:08,-1.08103725,-2.7364157,3.8228617,0.3611913,0.15712695,-0.2254275,37.79260495,-22.80015655,-21.05735965,-100.2990505,-0.3897104449999999,-3.2933195900000003,-4.025282455,0.287294695,0.2428667115,0.0156707214,0.006
10:03:08,-1.070626625,-2.72142681,3.77235601,0.35879959,0.159832935,-0.22328615,37.817225635,-22.768236915000003,-21.088002045,-100.06714965,-0.4064404285,-3.275395027,-4.0003223815,0.2858360975,0.24492220095,0.01637464062,0.006
10:03:08,-1.060216,-2.70643792,3.72185032,0.35640788,0.16253892,-0.2211448,37.84184632,-22.73631728,-21.11864444,-99.8352488,-0.4231704119999999,-3.257470464,-3.975362308,0.2843775,0.2469776904,0.01707855984,0.006
10:03:08,-1.049805375,-2.69144903,3.67134463,0.3540161700000001,0.165244905,-0.21900345,37.866467005,-22.704397645,-21.149286835,-99.60334795,-0.4399003955,-3.239545901,-3.9504022345,0.2829189025,0.24903317985,0.01778247906,0.006
10:03:08,-1.03939475,-2.67646014,3.62083894,0.35162446,0.16795089,-0.2168621,37.89108769,-22.672478010000003,-21.17992923,-99.3714471,-0.4566303789999999,-3.2216213380000003,-3.925442161,0.281460305,0.2510886693,0.01848639828,0.006
10:03:08,-1.028984125,-2.66147125,3.57033325,0.3492327500000001,0.1706568749999999,-0.21472075,37.915708375,-22.640558375,-21.210571625,-99.13954625,-0.4733603625,-3.203696775,-3.9004820875,0.2800017075,0.25314415875,0.0191903174999999,0.006
10:03:08,-1.0185735,-2.6464823600000003,3.5198275600000004,0.34684104,0.17336286,-0.2125794,37.94032906,-22.60863874,-21.24121402,-98.9076454,-0.4900903460000001,-3.185772212,-3.875522014,0.27854311,0.2551996482,0.01989423672,0.006
10:03:08,-1.008162875,-2.63149347,3.4693218700000004,0.34444933,0.176068845,-0.21043805,37.964949745,-22.576719105,-21.271856415,-98.67574455,-0.5068203295,-3.167847649,-3.8505619405,0.2770845125,0.25725513765,0.02059815594,0.006
10:03:08,-0.99775225,-2.61650458,3.4188161800000003,0.34205762,0.17877483,-0.2082967,37.98957043,-22.54479947,-21.30249881,-98.4438437,-0.5235503130000001,-3.1499230860000003,-3.825601867,0.275625915,0.2593106270999999,0.02130207516,0.006
10:03:08,-0.987341625,-2.6015156900000003,3.3683104900000003,0.33966591,0.181480815,-0.20615535,38.014191115,-22.512879835,-21.333141205,-98.21194285,-0.5402802965,-3.131998523,-3.8006417935,0.2741673175,0.2613661165499999,0.0220059943799999,0.006
10:03:08,-0.976931,-2.5865268,3.3178048,0.3372742000000001,0.1841868,-0.204014,38.0388118,-22.4809602,-21.3637836,-97.980042,-0.5570102800000001,-3.11407396,-3.77568172,0.27270872,0.263421606,0.0227099136,0.006
10:03:08,-0.966520375,-2.57153791,3.2672991100000006,0.33488249,0.186892785,-0.20187265,38.063432485,-22.449040565,-21.394425995,-97.74814115,-0.5737402635,-3.096149397,-3.7507216465,0.2712501225,0.26547709545,0.02341383282,0.006
10:03:08,-0.95610975,-2.5565490200000003,3.21679342,0.33249078,0.18959877,-0.1997313,38.08805317,-22.417120930000003,-21.42506839,-97.5162403,-0.5904702470000001,-3.078224834,-3.725761573,0.269791525,0.2675325849,0.02411775204,0.006
10:03:08,-0.945699125,-2.54156013,3.1662877300000005,0.33009907,0.192304755,-0.19758995,38.112673855,-22.385201295,-21.455710785,-97.28433945,-0.6072002304999999,-3.060300271,-3.7008014995,0.2683329275,0.26958807435,0.02482167126,0.006
10:03:08,-0.9352885,-2.52657124,3.11578204,0.32770736,0.19501074,-0.1954486,38.13729454,-22.35328166,-21.48635318,-97.0524386,-0.623930214,-3.042375708,-3.675841426,0.26687433,0.2716435638,0.02552559048,0.006
10:03:08,-0.924877875,-2.51158235,3.0652763500000004,0.32531565,0.197716725,-0.19330725,38.161915225,-22.321362025,-21.516995575,-96.82053775,-0.6406601974999999,-3.024451145,-3.6508813525,0.2654157325,0.27369905325,0.0262295097,0.006
10:03:08,-0.91446725,-2.49659346,3.01477066,0.32292394,0.20042271,-0.1911659,38.18653591,-22.28944239,-21.54763797,-96.5886369,-0.657390181,-3.006526582,-3.625921279,0.263957135,0.2757545427,0.02693342892,0.006
10:03:08,-0.904056625,-2.48160457,2.9642649700000003,0.3205322300000001,0.203128695,-0.18902455,38.211156595,-22.257522755,-21.578280365,-96.35673605,-0.6741201645000001,-2.988602019,-3.6009612055,0.2624985375,0.27781003215,0.02763734814,0.006
10:03:08,-0.8936460000000002,-2.46661568,2.9137592800000007,0.31814052,0.20583468,-0.1868832,38.23577728,-22.22560312,-21.60892276,-96.1248352,-0.690850148,-2.970677456,-3.576001132,0.26103994,0.2798655216,0.02834126736,0.006
10:03:08,-0.8832353750000002,-2.45162679,2.86325359,0.31574881,0.208540665,-0.18474185,38.260397965,-22.193683485,-21.639565155,-95.89293435,-0.7075801315000001,-2.952752893,-3.5510410585,0.2595813425,0.28192101105,0.02904518658,0.006
10:03:08,-0.8728247500000001,-2.4366379,2.8127479000000006,0.3133571,0.21124665,-0.1826005,38.28501865,-22.16176385,-21.67020755,-95.6610335,-0.724310115,-2.93482833,-3.526080985,0.258122745,0.2839765005,0.0297491057999999,0.006
10:03:08,-0.8624141250000001,-2.42164901,2.76224221,0.31096539,0.213952635,-0.18045915,38.309639335,-22.129844215,-21.700849945,-95.42913265,-0.7410400985000001,-2.916903767,-3.5011209115,0.2566641475,0.28603198995,0.0304530250199999,0.006
10:03:08,-0.8520035000000001,-2.40666012,2.7117365200000005,0.3085736800000001,0.21665862,-0.1783178,38.33426002,-22.09792458,-21.73149234,-95.1972318,-0.757770082,-2.898979204,-3.476160838,0.25520555,0.2880874794,0.0311569442399999,0.006
10:03:08,-0.8415928750000001,-2.39167123,2.66123083,0.30618197,0.219364605,-0.17617645,38.358880705,-22.066004945,-21.762134735,-94.96533095,-0.7745000655000001,-2.881054641,-3.4512007645,0.2537469525,0.29014296885,0.03186086346,0.006
10:03:08,-0.8311822500000001,-2.37668234,2.6107251400000004,0.3037902600000001,0.22207059,-0.1740351,38.38350139,-22.03408531,-21.79277713,-94.7334301,-0.7912300489999999,-2.863130078,-3.426240691,0.252288355,0.2921984583,0.03256478268,0.006
10:03:08,-0.8207716250000001,-2.36169345,2.56021945,0.30139855,0.224776575,-0.17189375,38.408122075,-22.002165675,-21.823419525,-94.50152925,-0.8079600325,-2.845205515,-3.4012806175,0.2508297575,0.29425394775,0.0332687019,0.006
10:03:08,-0.8103610000000001,-2.34670456,2.5097137600000003,0.29900684,0.22748256,-0.1697524,38.43274276,-21.97024604,-21.85406192,-94.2696284,-0.8246900159999999,-2.827280952,-3.376320544,0.24937116,0.2963094372,0.03397262112,0.006
10:03:08,-0.7999503750000001,-2.33171567,2.4592080700000007,0.29661513,0.230188545,-0.16761105,38.457363445,-21.938326405,-21.884704315,-94.03772755,-0.8414199995,-2.8093563890000004,-3.3513604705,0.2479125625,0.29836492665,0.03467654034,0.006
10:03:08,-0.7895397500000001,-2.31672678,2.4087023800000003,0.29422342,0.23289453,-0.1654697,38.48198413,-21.90640677,-21.91534671,-93.8058267,-0.8581499830000001,-2.791431826,-3.326400397,0.246453965,0.3004204161,0.03538045956,0.006
10:03:08,-0.7791291250000001,-2.30173789,2.3581966900000007,0.2918317100000001,0.235600515,-0.16332835,38.506604815,-21.874487135000003,-21.945989105,-93.57392585,-0.8748799665,-2.773507263,-3.3014403235,0.2449953675,0.30247590555,0.0360843787799999,0.006
10:03:08,-0.7687185000000001,-2.286749,2.307691,0.28944,0.2383065,-0.161187,38.5312255,-21.8425675,-21.9766315,-93.342025,-0.8916099500000001,-2.7555827,-3.27648025,0.24353677,0.304531395,0.036788298,0.006
10:03:08,-0.7583078750000001,-2.27176011,2.257185310000001,0.28704829,0.241012485,-0.15904565,38.555846185,-21.810647865,-22.007273895,-93.11012415,-0.9083399335,-2.7376581370000004,-3.2515201765,0.2420781725,0.30658688445,0.03749221722,0.006
10:03:08,-0.7478972500000001,-2.25677122,2.20667962,0.28465658,0.24371847,-0.1569043,38.58046687,-21.77872823,-22.03791629,-92.8782233,-0.925069917,-2.719733574,-3.226560103,0.240619575,0.3086423739,0.03819613644,0.006
10:03:08,-0.7374866250000001,-2.24178233,2.1561739300000005,0.28226487,0.246424455,-0.15476295,38.605087555,-21.746808595,-22.068558685,-92.64632245,-0.9417999005,-2.701809011,-3.2016000295,0.2391609775,0.31069786335,0.03890005566,0.006
