Timestamp,linacce_x,linacce_y,linacce_z,gyro_x,gyro_y,gyro_z,X-magnetometer,Y-magnetometer,Z-magnetometer,Yaw, worldXAccel,worldYAccel,worldZAccel,worldXgyro,worldYgyro,worldZgyro,Distance
10:06:18,0.982649,-0.103541,-0.725667,-0.310884,0.480141,-0.053587,31.830334,-25.431038,-28.172676,-93.486855,0.124076664,-0.37459594,-0.7652439,-0.16730538,0.50632423,0.5550095,0.006
10:06:18,0.975307015,-0.0962625799999999,-0.72454891,-0.306457475,0.475650555,-0.054497875,31.832988705,-25.412823810000003,-28.18120696,-93.33614909,0.11922107803,-0.3659612913,-0.7564926905,-0.16539595795,0.502119855,0.54849664285,0.006
10:06:18,0.96796503,-0.0889841599999999,-0.7234308199999999,-0.30203095,0.4711601099999999,-0.05540875,31.83564341,-25.39460962,-28.18973792,-93.18544318,0.11436549206,-0.3573266426,-0.7477414809999999,-0.1634865359,0.49791548,0.5419837857,0.006
10:06:18,0.960623045,-0.08170574,-0.72231273,-0.297604425,0.466669665,-0.056319625,31.838298115,-25.37639543,-28.19826888,-93.03473727,0.10950990609,-0.3486919939,-0.7389902715,-0.16157711385,0.493711105,0.53547092855,0.006
10:06:18,0.95328106,-0.0744273199999999,-0.72119464,-0.2931779,0.46217922,-0.0572305,31.84095282,-25.35818124,-28.20679984,-92.88403136,0.10465432012,-0.3400573452,-0.730239062,-0.1596676918,0.48950673,0.5289580714000001,0.006
10:06:18,0.945939075,-0.0671488999999999,-0.7200765499999999,-0.288751375,0.457688775,-0.058141375,31.843607525,-25.33996705,-28.2153308,-92.73332545,0.09979873415,-0.3314226965,-0.7214878524999999,-0.15775826975,0.485302355,0.52244521425,0.006
10:06:18,0.93859709,-0.0598704799999999,-0.71895846,-0.28432485,0.45319833,-0.05905225,31.84626223,-25.32175286,-28.22386176,-92.58261954,0.0949431481799999,-0.3227880478,-0.712736643,-0.1558488477,0.48109798,0.5159323571000001,0.006
10:06:18,0.931255105,-0.0525920599999999,-0.71784037,-0.279898325,0.448707885,-0.059963125,31.848916935,-25.30353867,-28.23239272,-92.43191363,0.09008756221,-0.3141533991,-0.7039854335,-0.15393942565,0.476893605,0.50941949995,0.006
10:06:18,0.92391312,-0.0453136399999999,-0.7167222799999999,-0.2754718,0.4442174399999999,-0.060874,31.85157164,-25.28532448,-28.24092368,-92.28120772,0.08523197624,-0.3055187504,-0.695234224,-0.1520300036,0.47268923,0.5029066428000001,0.006
10:06:18,0.916571135,-0.0380352199999999,-0.71560419,-0.271045275,0.439726995,-0.061784875,31.854226345,-25.26711029,-28.24945464,-92.13050181,0.08037639027,-0.2968841017,-0.6864830144999999,-0.15012058155,0.468484855,0.49639378565,0.006
10:06:18,0.90922915,-0.0307567999999999,-0.7144860999999999,-0.26661875,0.43523655,-0.06269575,31.85688105,-25.2488961,-28.2579856,-91.9797959,0.0755208043,-0.288249453,-0.677731805,-0.1482111595,0.46428048,0.4898809285,0.006
10:06:18,0.901887165,-0.0234783799999999,-0.7133680099999999,-0.262192225,0.430746105,-0.063606625,31.859535755,-25.23068191,-28.26651656,-91.82908999,0.07066521833,-0.2796148043,-0.6689805955,-0.14630173745,0.460076105,0.48336807135,0.006
10:06:18,0.8945451799999999,-0.0161999599999999,-0.71224992,-0.2577657,0.42625566,-0.0645175,31.86219046,-25.21246772,-28.27504752,-91.67838408,0.06580963236,-0.2709801556,-0.6602293859999999,-0.1443923154,0.45587173,0.4768552142,0.006
10:06:18,0.887203195,-0.0089215399999999,-0.7111318299999999,-0.253339175,0.4217652149999999,-0.065428375,31.864845165,-25.19425353,-28.28357848,-91.52767817,0.06095404639,-0.2623455069,-0.6514781765,-0.14248289335,0.451667355,0.47034235705,0.006
10:06:18,0.8798612100000001,-0.0016431199999999,-0.71001374,-0.24891265,0.41727477,-0.06633925,31.86749987,-25.176039340000003,-28.29210944,-91.37697226,0.0560984604199999,-0.2537108582,-0.642726967,-0.1405734713,0.44746298,0.4638294999,0.006
10:06:18,0.872519225,0.0056353,-0.70889565,-0.244486125,0.412784325,-0.067250125,31.870154575,-25.15782515,-28.3006404,-91.22626635,0.05124287445,-0.2450762095,-0.6339757575,-0.13866404925,0.443258605,0.45731664275,0.006
10:06:18,0.86517724,0.01291372,-0.7077775599999999,-0.2400595999999999,0.40829388,-0.068161,31.87280928,-25.13961096,-28.30917136,-91.07556044,0.04638728848,-0.2364415608,-0.6252245479999999,-0.1367546272,0.43905423,0.4508037856,0.006
10:06:18,0.857835255,0.02019214,-0.70665947,-0.235633075,0.403803435,-0.069071875,31.875463985,-25.12139677,-28.31770232,-90.92485453,0.0415317025099999,-0.2278069121,-0.6164733385,-0.13484520515,0.434849855,0.44429092845,0.006
10:06:18,0.85049327,0.02747056,-0.70554138,-0.23120655,0.39931299,-0.06998275,31.87811869,-25.10318258,-28.32623328,-90.77414862,0.03667611654,-0.2191722634,-0.607722129,-0.1329357831,0.43064548,0.4377780713,0.006
10:06:18,0.843151285,0.03474898,-0.7044232899999999,-0.226780025,0.394822545,-0.070893625,31.880773395,-25.08496839,-28.33476424,-90.62344271,0.0318205305699999,-0.2105376147,-0.5989709194999999,-0.13102636105,0.426441105,0.4312652141500001,0.006
10:06:18,0.8358093,0.0420274,-0.7033052,-0.2223534999999999,0.3903321,-0.0718045,31.8834281,-25.0667542,-28.3432952,-90.4727368,0.0269649446,-0.201902966,-0.59021971,-0.129116939,0.42223673,0.424752357,0.006
10:06:18,0.828467315,0.04930582,-0.70218711,-0.217926975,0.385841655,-0.072715375,31.886082805,-25.04854001,-28.35182616,-90.32203089,0.0221093586299999,-0.1932683173,-0.5814685005,-0.12720751695,0.418032355,0.4182394998500001,0.006
10:06:18,0.82112533,0.05658424,-0.7010690199999999,-0.21350045,0.38135121,-0.07362625,31.88873751,-25.03032582,-28.36035712,-90.17132498,0.01725377266,-0.1846336686,-0.572717291,-0.1252980949,0.41382798,0.4117266427,0.006
10:06:18,0.813783345,0.06386266,-0.69995093,-0.209073925,0.376860765,-0.074537125,31.891392215,-25.01211163,-28.36888808,-90.02061907000001,0.0123981866899999,-0.1759990199,-0.5639660814999999,-0.12338867285,0.409623605,0.40521378555,0.006
10:06:18,0.80644136,0.07114108,-0.6988328399999999,-0.2046474,0.37237032,-0.075448,31.89404692,-24.99389744,-28.37741904,-89.86991316000001,0.0075426007199999,-0.1673643712,-0.555214872,-0.1214792508,0.40541923,0.3987009284,0.006
10:06:18,0.799099375,0.0784195,-0.6977147499999999,-0.200220875,0.367879875,-0.076358875,31.896701625,-24.97568325,-28.38595,-89.71920725000001,0.0026870147499999,-0.1587297225,-0.5464636624999999,-0.11956982875,0.401214855,0.39218807125,0.006
10:06:18,0.79175739,0.08569792,-0.69659666,-0.19579435,0.36338943,-0.07726975,31.89935633,-24.95746906,-28.39448096,-89.56850134000001,-0.0021685712199999,-0.1500950738,-0.5377124529999999,-0.1176604067,0.39701048,0.3856752141,0.006
10:06:18,0.7844154050000001,0.09297634,-0.6954785699999999,-0.191367825,0.358898985,-0.078180625,31.902011035,-24.93925487,-28.40301192,-89.41779543000001,-0.00702415719,-0.1414604251,-0.5289612435,-0.11575098465,0.392806105,0.37916235695,0.006
10:06:18,0.77707342,0.10025476,-0.69436048,-0.1869413,0.35440854,-0.0790915,31.90466574,-24.92104068,-28.41154288,-89.26708952,-0.01187974316,-0.1328257763999999,-0.520210034,-0.1138415626,0.38860173,0.3726494998,0.006
10:06:18,0.769731435,0.10753318,-0.69324239,-0.182514775,0.349918095,-0.080002375,31.907320445,-24.90282649,-28.42007384,-89.11638361,-0.01673532913,-0.1241911277,-0.5114588245,-0.11193214055,0.384397355,0.36613664265,0.006
10:06:18,0.76238945,0.1148116,-0.6921242999999999,-0.17808825,0.34542765,-0.08091325,31.90997515,-24.8846123,-28.4286048,-88.9656777,-0.0215909150999999,-0.1155564789999999,-0.5027076149999999,-0.1100227185,0.38019298,0.3596237855,0.006
10:06:18,0.755047465,0.12209002,-0.69100621,-0.173661725,0.340937205,-0.081824125,31.912629855,-24.86639811,-28.43713576,-88.81497179,-0.02644650107,-0.1069218303,-0.4939564055,-0.10811329645,0.3759886050000001,0.35311092835,0.006
10:06:18,0.74770548,0.12936844,-0.68988812,-0.1692352,0.33644676,-0.082735,31.91528456,-24.84818392,-28.44566672,-88.66426588,-0.03130208704,-0.0982871816,-0.4852051959999999,-0.1062038744,0.37178423,0.3465980712000001,0.006
10:06:18,0.740363495,0.13664686,-0.6887700299999999,-0.164808675,0.331956315,-0.083645875,31.917939265,-24.82996973,-28.45419768,-88.51355997,-0.03615767301,-0.0896525328999999,-0.4764539864999999,-0.10429445235,0.367579855,0.34008521405,0.006
10:06:18,0.73302151,0.14392528,-0.68765194,-0.16038215,0.32746587,-0.08455675,31.92059397,-24.81175554,-28.46272864,-88.36285406,-0.04101325898,-0.0810178842,-0.4677027769999999,-0.1023850303,0.3633754800000001,0.3335723569000001,0.006
10:06:18,0.725679525,0.1512037,-0.68653385,-0.155955625,0.322975425,-0.085467625,31.923248675,-24.79354135,-28.4712596,-88.21214815,-0.04586884495,-0.0723832354999999,-0.4589515674999999,-0.10047560825,0.359171105,0.32705949975,0.006
10:06:18,0.71833754,0.15848212,-0.6854157599999999,-0.1515291,0.31848498,-0.0863785,31.92590338,-24.77532716,-28.47979056,-88.06144224,-0.05072443092,-0.0637485868,-0.4502003579999999,-0.0985661862,0.35496673,0.3205466426,0.006
10:06:18,0.710995555,0.16576054,-0.68429767,-0.147102575,0.313994535,-0.087289375,31.928558085,-24.75711297,-28.48832152,-87.91073633,-0.05558001689,-0.0551139380999999,-0.4414491484999999,-0.09665676415,0.3507623550000001,0.31403378545,0.006
10:06:18,0.70365357,0.17303896,-0.68317958,-0.14267605,0.30950409,-0.08820025,31.93121279,-24.73889878,-28.49685248,-87.76003042,-0.06043560286,-0.0464792894,-0.4326979389999999,-0.0947473421,0.34655798,0.3075209283,0.006
10:06:18,0.696311585,0.18031738,-0.6820614899999999,-0.138249525,0.305013645,-0.089111125,31.933867495,-24.72068459,-28.50538344,-87.60932451000001,-0.06529118883,-0.0378446406999999,-0.4239467294999999,-0.09283792005,0.342353605,0.30100807115,0.006
10:06:18,0.6889696000000001,0.1875958,-0.6809434,-0.133823,0.3005232,-0.090022,31.9365222,-24.7024704,-28.5139144,-87.45861860000001,-0.0701467748,-0.029209992,-0.4151955199999999,-0.090928498,0.3381492300000001,0.294495214,0.006
10:06:18,0.681627615,0.19487422,-0.6798253099999999,-0.129396475,0.296032755,-0.090932875,31.939176905,-24.68425621,-28.52244536,-87.30791269000001,-0.07500236077,-0.0205753432999999,-0.4064443104999999,-0.08901907595,0.333944855,0.28798235685,0.006
10:06:18,0.67428563,0.20215264,-0.6787072199999999,-0.12496995,0.29154231,-0.09184375,31.94183161,-24.66604202,-28.53097632,-87.15720678000001,-0.07985794674,-0.0119406945999999,-0.3976931009999999,-0.0871096539,0.32974048,0.2814694997,0.006
10:06:18,0.666943645,0.20943106,-0.67758913,-0.120543425,0.287051865,-0.092754625,31.944486315,-24.64782783,-28.53950728,-87.00650087000001,-0.08471353271,-0.0033060458999999,-0.3889418914999999,-0.08520023185,0.3255361050000001,0.2749566425500001,0.006
10:06:18,0.6596016600000001,0.21670948,-0.6764710399999999,-0.1161169,0.28256142,-0.0936655,31.94714102,-24.62961364,-28.54803824,-86.85579496,-0.08956911868,0.0053286028,-0.3801906819999999,-0.0832908098,0.32133173,0.2684437854000001,0.006
10:06:18,0.652259675,0.2239879,-0.67535295,-0.111690375,0.278070975,-0.094576375,31.949795725,-24.61139945,-28.5565692,-86.70508905,-0.09442470465,0.0139632514999999,-0.3714394724999999,-0.08138138775,0.317127355,0.26193092825,0.006
10:06:18,0.64491769,0.23126632,-0.67423486,-0.10726385,0.27358053,-0.09548725,31.95245043,-24.59318526,-28.56510016,-86.55438314,-0.09928029062,0.0225979002,-0.3626882629999999,-0.0794719657,0.3129229800000001,0.2554180711,0.006
10:06:18,0.6375757049999999,0.23854474,-0.6731167699999999,-0.102837325,0.269090085,-0.096398125,31.955105135,-24.57497107,-28.57363112,-86.40367723,-0.10413587659,0.0312325488999999,-0.3539370534999999,-0.07756254365,0.308718605,0.24890521395,0.006
10:06:18,0.63023372,0.24582316,-0.67199868,-0.0984108,0.26459964,-0.097309,31.95775984,-24.55675688,-28.58216208,-86.25297132,-0.10899146256,0.0398671976,-0.3451858439999999,-0.0756531216,0.30451423,0.2423923568,0.006
10:06:18,0.6228917350000001,0.25310158,-0.67088059,-0.093984275,0.260109195,-0.098219875,31.960414545,-24.53854269,-28.59069304,-86.10226541,-0.11384704853,0.0485018463,-0.3364346344999999,-0.07374369955,0.300309855,0.23587949965,0.006
10:06:18,0.61554975,0.26038,-0.6697624999999999,-0.08955775,0.25561875,-0.09913075,31.96306925,-24.5203285,-28.599224,-85.9515595,-0.1187026345,0.057136495,-0.3276834249999999,-0.0718342775,0.29610548,0.2293666425,0.006
10:06:18,0.608207765,0.26765842,-0.66864441,-0.085131225,0.251128305,-0.100041625,31.965723955,-24.50211431,-28.60775496,-85.80085359,-0.12355822047,0.0657711437,-0.3189322154999999,-0.06992485545,0.291901105,0.22285378535,0.006
10:06:18,0.60086578,0.27493684,-0.6675263199999999,-0.0807047,0.24663786,-0.1009525,31.96837866,-24.48390012,-28.61628592,-85.65014768,-0.12841380644,0.0744057924,-0.3101810059999999,-0.0680154334,0.28769673,0.2163409282,0.006
10:06:18,0.5935237950000001,0.28221526,-0.6664082299999999,-0.076278175,0.242147415,-0.101863375,31.971033365,-24.46568593,-28.62481688,-85.49944177,-0.13326939241,0.0830404411,-0.3014297964999999,-0.06610601135,0.283492355,0.20982807105,0.006
10:06:18,0.58618181,0.28949368,-0.66529014,-0.07185165,0.23765697,-0.10277425,31.97368807,-24.44747174,-28.63334784,-85.34873586,-0.13812497838,0.0916750898,-0.2926785869999999,-0.0641965893,0.27928798,0.2033152139,0.006
10:06:18,0.578839825,0.2967721,-0.6641720499999999,-0.067425125,0.233166525,-0.103685125,31.976342775,-24.42925755,-28.6418788,-85.19802995,-0.14298056435,0.1003097385,-0.2839273774999999,-0.06228716725,0.275083605,0.19680235675,0.006
10:06:18,0.57149784,0.30405052,-0.6630539599999999,-0.0629986,0.22867608,-0.104596,31.97899748,-24.41104336,-28.65040976,-85.04732404,-0.14783615032,0.1089443872,-0.2751761679999999,-0.0603777452,0.27087923,0.1902894996,0.006
10:06:18,0.5641558550000001,0.31132894,-0.66193587,-0.058572075,0.224185635,-0.105506875,31.981652185,-24.39282917,-28.65894072,-84.89661813000001,-0.15269173629,0.1175790359,-0.2664249584999999,-0.05846832315,0.266674855,0.18377664245,0.006
10:06:18,0.55681387,0.31860736,-0.6608177799999999,-0.0541455499999999,0.21969519,-0.10641775,31.98430689,-24.37461498,-28.66747168,-84.74591222000001,-0.15754732226,0.1262136846,-0.2576737489999999,-0.0565589011,0.26247048,0.1772637853,0.006
10:06:18,0.549471885,0.32588578,-0.65969969,-0.049719025,0.215204745,-0.107328625,31.986961595,-24.35640079,-28.67600264,-84.59520631000001,-0.16240290823,0.1348483333,-0.2489225394999998,-0.05464947905,0.258266105,0.17075092815,0.006
10:06:18,0.5421298999999999,0.3331642,-0.6585816,-0.0452925,0.2107143,-0.1082395,31.9896163,-24.3381866,-28.6845336,-84.44450040000001,-0.1672584942,0.143482982,-0.2401713299999999,-0.052740057,0.25406173,0.164238071,0.006
10:06:18,0.534787915,0.34044262,-0.6574635099999999,-0.040865975,0.206223855,-0.109150375,31.992271005,-24.31997241,-28.69306456,-84.29379449000001,-0.17211408017,0.1521176307,-0.2314201204999999,-0.0508306349499999,0.249857355,0.15772521385,0.006
10:06:18,0.5274459300000001,0.34772104,-0.65634542,-0.0364394499999999,0.20173341,-0.11006125,31.99492571,-24.30175822,-28.70159552,-84.14308858000001,-0.17696966614,0.1607522793999999,-0.2226689109999999,-0.0489212129,0.24565298,0.1512123567,0.006
10:06:18,0.520103945,0.35499946,-0.65522733,-0.032012925,0.197242965,-0.110972125,31.997580415,-24.28354403,-28.71012648,-83.99238267,-0.18182525211,0.1693869281,-0.2139177014999999,-0.04701179085,0.241448605,0.14469949955,0.006
10:06:18,0.51276196,0.36227788,-0.6541092399999999,-0.0275864,0.19275252,-0.111883,32.00023512,-24.26532984,-28.71865744,-83.84167676,-0.18668083808,0.1780215768,-0.2051664919999999,-0.0451023688,0.23724423,0.1381866424,0.006
10:06:18,0.505419975,0.3695563,-0.65299115,-0.0231598749999999,0.188262075,-0.112793875,32.002889825,-24.24711565,-28.7271884,-83.69097085,-0.19153642405,0.1866562255,-0.1964152824999999,-0.04319294675,0.233039855,0.13167378525,0.006
10:06:18,0.49807799,0.37683472,-0.65187306,-0.01873335,0.18377163,-0.11370475,32.00554453,-24.22890146,-28.73571936,-83.54026494,-0.19639201002,0.1952908742,-0.1876640729999998,-0.0412835246999999,0.22883548,0.1251609281,0.006
10:06:18,0.490736005,0.3841131400000001,-0.6507549699999999,-0.014306825,0.179281185,-0.114615625,32.008199235,-24.21068727,-28.74425032,-83.38955903,-0.20124759599,0.2039255229,-0.1789128634999999,-0.0393741026499999,0.224631105,0.11864807095,0.006
10:06:18,0.48339402,0.3913915600000001,-0.64963688,-0.0098803,0.17479074,-0.1155265,32.01085394,-24.19247308,-28.75278128,-83.23885312,-0.20610318196,0.2125601716,-0.1701616539999999,-0.0374646805999999,0.22042673,0.1121352138,0.006
10:06:18,0.476052035,0.3986699800000001,-0.64851879,-0.0054537749999999,0.170300295,-0.116437375,32.013508645,-24.17425889,-28.76131224,-83.08814721,-0.21095876793,0.2211948202999999,-0.1614104444999999,-0.0355552585499999,0.216222355,0.10562235665,0.006
10:06:18,0.46871005,0.4059484000000001,-0.6474006999999999,-0.00102725,0.16580985,-0.11734825,32.01616335,-24.1560447,-28.7698432,-82.9374413,-0.2158143539,0.229829469,-0.1526592349999999,-0.0336458365,0.21201798,0.0991094995,0.006
10:06:18,0.461368065,0.4132268200000001,-0.64628261,0.0033992749999999,0.161319405,-0.1182591249999999,32.018818055,-24.13783051,-28.77837416,-82.78673539,-0.22066993987,0.2384641177,-0.1439080254999999,-0.03173641445,0.207813605,0.09259664235,0.006
10:06:18,0.45402608,0.4205052400000001,-0.6451645199999999,0.0078257999999999,0.15682896,-0.11917,32.02147276,-24.11961632,-28.78690512,-82.63602948,-0.22552552584,0.2470987664,-0.1351568159999999,-0.0298269924,0.20360923,0.0860837852,0.006
10:06:18,0.446684095,0.42778366,-0.64404643,0.012252325,0.152338515,-0.120080875,32.024127465,-24.10140213,-28.79543608,-82.48532357,-0.23038111181,0.2557334151000001,-0.1264056064999998,-0.02791757035,0.199404855,0.07957092805,0.006
10:06:18,0.43934211,0.43506208,-0.64292834,0.0166788499999999,0.14784807,-0.12099175,32.02678217,-24.08318794,-28.80396704,-82.33461766,-0.23523669778,0.2643680638,-0.1176543969999999,-0.0260081483,0.19520048,0.0730580709,0.006
10:06:18,0.432000125,0.4423405,-0.6418102499999999,0.0211053749999999,0.143357625,-0.121902625,32.029436875,-24.06497375,-28.812498,-82.18391175000001,-0.24009228375,0.2730027125,-0.1089031874999999,-0.02409872625,0.190996105,0.06654521375,0.006
10:06:18,0.42465814,0.44961892,-0.64069216,0.0255318999999999,0.13886718,-0.1228134999999999,32.03209158,-24.04675956,-28.82102896,-82.03320584000001,-0.24494786972,0.2816373612,-0.1001519779999998,-0.0221893042,0.18679173,0.0600323566,0.006
10:06:18,0.4173161549999999,0.45689734,-0.63957407,0.029958425,0.134376735,-0.123724375,32.034746285,-24.02854537,-28.82955992,-81.88249993000001,-0.24980345569,0.2902720099,-0.0914007684999999,-0.02027988215,0.182587355,0.05351949945,0.006
10:06:18,0.40997417,0.46417576,-0.6384559799999999,0.0343849499999999,0.12988629,-0.12463525,32.03740099,-24.01033118,-28.83809088,-81.73179402000001,-0.25465904166,0.2989066586,-0.0826495589999999,-0.0183704601,0.17838298,0.0470066423,0.006
10:06:18,0.402632185,0.47145418,-0.63733789,0.0388114749999999,0.125395845,-0.125546125,32.040055695,-23.99211699,-28.84662184,-81.58108811,-0.25951462763,0.3075413073,-0.0738983494999999,-0.0164610380499999,0.174178605,0.04049378515,0.006
10:06:18,0.3952902,0.4787326,-0.6362197999999999,0.043238,0.1209054,-0.126457,32.0427104,-23.9739028,-28.8551528,-81.4303822,-0.2643702136,0.316175956,-0.0651471399999998,-0.0145516159999999,0.16997423,0.033980928,0.006
10:06:18,0.387948215,0.48601102,-0.6351017099999999,0.0476645249999999,0.116414955,-0.127367875,32.045365105,-23.95568861,-28.86368376,-81.27967629,-0.26922579957,0.3248106047,-0.0563959304999999,-0.0126421939499999,0.165769855,0.02746807085,0.006
10:06:18,0.38060623,0.4932894400000001,-0.63398362,0.0520910499999999,0.11192451,-0.12827875,32.04801981,-23.93747442,-28.87221472,-81.12897038,-0.27408138554,0.3334452534,-0.0476447209999999,-0.0107327718999999,0.16156548,0.0209552137,0.006
10:06:18,0.373264245,0.5005678600000001,-0.6328655299999999,0.0565175749999999,0.107434065,-0.129189625,32.050674515,-23.91926023,-28.88074568,-80.97826447,-0.27893697151,0.3420799021,-0.0388935114999998,-0.0088233498499999,0.157361105,0.01444235655,0.006
10:06:18,0.36592226,0.5078462800000001,-0.6317474399999999,0.0609441,0.10294362,-0.1301005,32.05332922,-23.90104604,-28.88927664,-80.82755856,-0.28379255748,0.3507145508000001,-0.0301423019999999,-0.0069139277999999,0.15315673,0.0079294994,0.006
10:06:18,0.358580275,0.5151247000000001,-0.63062935,0.0653706249999999,0.098453175,-0.131011375,32.055983925,-23.88283185,-28.8978076,-80.67685265,-0.28864814345,0.3593491995,-0.0213910924999999,-0.0050045057499999,0.148952355,0.00141664225,0.006
10:06:18,0.35123829,0.5224031200000001,-0.6295112599999999,0.0697971499999999,0.09396273,-0.13192225,32.05863863,-23.86461766,-28.90633856,-80.52614674,-0.29350372942,0.3679838482,-0.0126398829999998,-0.0030950837,0.14474798,-0.0050962148999998,0.006
10:06:18,0.343896305,0.5296815400000001,-0.62839317,0.0742236749999999,0.089472285,-0.132833125,32.061293335,-23.84640347,-28.91486952,-80.37544083,-0.29835931539,0.3766184969,-0.0038886734999998,-0.00118566165,0.140543605,-0.0116090720499999,0.006
10:06:18,0.3365543200000001,0.53695996,-0.62727508,0.0786502,0.08498184,-0.133744,32.06394804,-23.82818928,-28.92340048,-80.22473492,-0.30321490136,0.3852531456,0.004862536,0.0007237603999999,0.13633923,-0.0181219291999998,0.006
10:06:18,0.329212335,0.54423838,-0.6261569899999999,0.0830767249999999,0.080491395,-0.134654875,32.066602745,-23.80997509,-28.93193144,-80.07402901,-0.30807048733,0.3938877943,0.0136137455,0.0026331824499999,0.132134855,-0.0246347863499999,0.006
10:06:18,0.3218703499999999,0.5515168,-0.6250389,0.0875032499999999,0.07600095,-0.13556575,32.06925745,-23.7917609,-28.9404624,-79.9233231,-0.3129260733,0.402522443,0.0223649550000001,0.0045426044999999,0.12793048,-0.0311476434999999,0.006
10:06:18,0.314528365,0.55879522,-0.62392081,0.0919297749999999,0.071510505,-0.136476625,32.071912155,-23.77354671,-28.94899336,-79.77261719,-0.31778165927,0.4111570917000001,0.0311161645000001,0.0064520265499999,0.123726105,-0.0376605006499999,0.006
10:06:18,0.30718638,0.56607364,-0.6228027199999999,0.0963563,0.06702006,-0.1373875,32.07456686,-23.75533252,-28.95752432,-79.62191128,-0.32263724524,0.4197917404,0.039867374,0.0083614485999999,0.11952173,-0.0441733577999999,0.006
10:06:18,0.299844395,0.57335206,-0.62168463,0.1007828249999999,0.062529615,-0.138298375,32.077221565,-23.73711833,-28.96605528,-79.47120537,-0.32749283121,0.4284263891,0.0486185835000001,0.01027087065,0.115317355,-0.0506862149499999,0.006
10:06:18,0.29250241,0.5806304800000001,-0.62056654,0.1052093499999999,0.05803917,-0.13920925,32.07987627,-23.71890414,-28.97458624,-79.32049946000001,-0.33234841718,0.4370610378,0.0573697930000001,0.0121802927,0.11111298,-0.0571990720999999,0.006
10:06:18,0.285160425,0.5879089000000001,-0.6194484499999999,0.109635875,0.053548725,-0.140120125,32.082530975,-23.70068995,-28.9831172,-79.16979355000001,-0.33720400315,0.4456956865000001,0.0661210025,0.01408971475,0.106908605,-0.0637119292499999,0.006
10:06:18,0.27781844,0.5951873200000001,-0.61833036,0.1140623999999999,0.04905828,-0.141031,32.08518568,-23.68247576,-28.99164816,-79.01908764000001,-0.34205958912,0.4543303352,0.074872212,0.0159991368,0.10270423,-0.0702247863999999,0.006
10:06:18,0.270476455,0.6024657400000001,-0.61721227,0.1184889249999999,0.044567835,-0.141941875,32.087840385,-23.66426157,-29.00017912,-78.86838173000001,-0.34691517509,0.4629649839,0.0836234215000001,0.01790855885,0.098499855,-0.0767376435499999,0.006
10:06:18,0.26313447,0.6097441600000001,-0.6160941799999999,0.1229154499999999,0.04007739,-0.14285275,32.09049509,-23.64604738,-29.00871008,-78.71767582000001,-0.35177076106,0.4715996326000001,0.0923746310000001,0.0198179809,0.09429548,-0.0832505006999999,0.006
10:06:18,0.255792485,0.6170225800000001,-0.61497609,0.127341975,0.035586945,-0.143763625,32.093149795,-23.62783319,-29.01724104,-78.56696991,-0.35662634703,0.4802342813,0.1011258405,0.02172740295,0.090091105,-0.0897633578499998,0.006
10:06:18,0.2484505,0.6243010000000001,-0.613858,0.1317684999999999,0.0310965,-0.1446745,32.0958045,-23.609619,-29.025772,-78.416264,-0.361481933,0.48886893,0.1098770500000001,0.023636825,0.08588673,-0.0962762149999999,0.006
10:06:18,0.241108515,0.6315794200000001,-0.6127399099999999,0.1361950249999999,0.026606055,-0.145585375,32.098459205,-23.59140481,-29.03430296,-78.26555809,-0.36633751897,0.4975035787,0.1186282595000001,0.02554624705,0.081682355,-0.1027890721499998,0.006
10:06:18,0.23376653,0.6388578400000001,-0.61162182,0.1406215499999999,0.02211561,-0.14649625,32.10111391,-23.57319062,-29.04283392,-78.11485218,-0.37119310494,0.5061382274000001,0.127379469,0.0274556690999999,0.07747798,-0.1093019292999999,0.006
10:06:18,0.2264245449999999,0.6461362600000001,-0.6105037299999999,0.145048075,0.017625165,-0.147407125,32.103768615,-23.55497643,-29.05136488,-77.96414627,-0.37604869091,0.5147728761000001,0.1361306785000001,0.0293650911499999,0.073273605,-0.1158147864499999,0.006
10:06:18,0.21908256,0.6534146800000001,-0.60938564,0.1494745999999999,0.0131347200000001,-0.148318,32.10642332,-23.53676224,-29.05989584,-77.81344036,-0.38090427688,0.5234075248000001,0.1448818880000001,0.0312745131999999,0.06906923,-0.1223276435999999,0.006
10:06:18,0.211740575,0.6606931,-0.60826755,0.1539011249999999,0.008644275,-0.149228875,32.109078025,-23.51854805,-29.0684268,-77.66273445,-0.38575986285,0.5320421735,0.1536330975000001,0.0331839352499999,0.064864855,-0.1288405007499999,0.006
10:06:18,0.20439859,0.66797152,-0.6071494599999999,0.15832765,0.00415383,-0.15013975,32.11173273,-23.50033386,-29.07695776,-77.51202854,-0.39061544882,0.5406768222,0.162384307,0.0350933572999999,0.06066048,-0.1353533578999999,0.006
10:06:18,0.197056605,0.67524994,-0.60603137,0.162754175,-0.0003366149999999,-0.151050625,32.114387435,-23.48211967,-29.08548872,-77.36132263,-0.39547103479,0.5493114709,0.1711355165000001,0.03700277935,0.056456105,-0.1418662150499999,0.006
10:06:18,0.18971462,0.6825283600000001,-0.60491328,0.1671806999999999,-0.0048270599999999,-0.1519615,32.11704214,-23.46390548,-29.09401968,-77.21061672,-0.4003266207600001,0.5579461196,0.1798867260000001,0.0389122014,0.05225173,-0.1483790721999999,0.006
10:06:18,0.182372635,0.6898067800000001,-0.6037951899999999,0.1716072249999999,-0.0093175049999999,-0.152872375,32.119696845,-23.44569129,-29.10255064,-77.05991081,-0.40518220673,0.5665807683000001,0.1886379355,0.04082162345,0.048047355,-0.1548919293499999,0.006
10:06:18,0.17503065,0.6970852000000001,-0.6026771,0.17603375,-0.0138079499999999,-0.15378325,32.12235155,-23.4274771,-29.1110816,-76.9092049,-0.4100377927,0.5752154170000001,0.1973891450000001,0.0427310455,0.04384298,-0.1614047864999999,0.006
10:06:18,0.167688665,0.7043636200000001,-0.6015590099999999,0.180460275,-0.0182983949999999,-0.154694125,32.125006255,-23.40926291,-29.11961256,-76.75849899,-0.41489337867,0.5838500657000001,0.2061403545000001,0.04464046755,0.039638605,-0.1679176436499999,0.006
10:06:18,0.16034668,0.7116420400000001,-0.6004409199999999,0.1848867999999999,-0.0227888399999999,-0.155605,32.12766096,-23.39104872,-29.12814352,-76.60779308000001,-0.41974896464,0.5924847144000001,0.2148915640000001,0.0465498896,0.03543423,-0.1744305007999999,0.006
10:06:18,0.153004695,0.7189204600000001,-0.59932283,0.1893133249999999,-0.0272792849999999,-0.156515875,32.130315665,-23.37283453,-29.13667448,-76.45708717,-0.4246045506100001,0.6011193631,0.2236427735000001,0.04845931165,0.031229855,-0.1809433579499999,0.006
10:06:18,0.14566271,0.7261988800000001,-0.5982047399999999,0.19373985,-0.0317697299999998,-0.15742675,32.13297037,-23.35462034,-29.14520544,-76.30638126,-0.4294601365800001,0.6097540118,0.2323939830000001,0.0503687337,0.02702548,-0.1874562150999998,0.006
10:06:18,0.138320725,0.7334773000000001,-0.5970866499999999,0.1981663749999999,-0.0362601749999999,-0.158337625,32.135625075,-23.33640615,-29.1537364,-76.15567535,-0.43431572255,0.6183886605,0.2411451925000001,0.05227815575,0.022821105,-0.1939690722499999,0.006
10:06:18,0.1309787399999999,0.7407557200000001,-0.59596856,0.2025929,-0.0407506199999999,-0.1592485,32.13827978,-23.31819196,-29.16226736,-76.00496944,-0.43917130852,0.6270233091999999,0.249896402,0.0541875778,0.01861673,-0.2004819293999999,0.006
10:06:18,0.123636755,0.7480341400000001,-0.5948504699999999,0.2070194249999999,-0.0452410649999999,-0.160159375,32.140934485,-23.29997777,-29.17079832,-75.85426353,-0.44402689449,0.6356579578999999,0.2586476115,0.0560969998499999,0.014412355,-0.2069947865499999,0.006
10:06:18,0.1162947699999999,0.7553125600000001,-0.59373238,0.2114459499999999,-0.0497315099999999,-0.16107025,32.14358919,-23.28176358,-29.17932928,-75.70355762,-0.44888248046,0.6442926066000001,0.2673988210000002,0.0580064218999999,0.01020798,-0.2135076436999999,0.006
10:06:18,0.108952785,0.7625909800000001,-0.59261429,0.215872475,-0.0542219549999998,-0.161981125,32.146243895,-23.26354939,-29.18786024,-75.55285171,-0.4537380664300001,0.6529272553000001,0.2761500305000002,0.0599158439499999,0.006003605,-0.2200205008499999,0.006
10:06:18,0.1016108,0.7698694,-0.5914961999999999,0.2202989999999999,-0.0587123999999999,-0.162892,32.1488986,-23.2453352,-29.1963912,-75.4021458,-0.4585936524,0.661561904,0.2849012400000001,0.0618252659999999,0.00179923,-0.2265333579999999,0.006
10:06:18,0.094268815,0.77714782,-0.59037811,0.2247255249999999,-0.0632028449999999,-0.163802875,32.151553305,-23.22712101,-29.20492216,-75.25143989,-0.46344923837,0.6701965527,0.2936524495000001,0.06373468805,-0.0024051449999998,-0.2330462151499999,0.006
10:06:18,0.08692683,0.78442624,-0.58926002,0.22915205,-0.0676932899999999,-0.16471375,32.15420801,-23.20890682,-29.21345312,-75.10073398,-0.46830482434,0.6788312014,0.3024036590000001,0.0656441101,-0.0066095199999999,-0.2395590722999999,0.006
10:06:18,0.079584845,0.7917046600000001,-0.5881419299999999,0.2335785749999999,-0.0721837349999999,-0.165624625,32.156862715,-23.19069263,-29.22198408,-74.95002807,-0.47316041031,0.6874658500999999,0.3111548685,0.06755353215,-0.0108138949999999,-0.2460719294499999,0.006
10:06:18,0.07224286,0.7989830800000001,-0.58702384,0.2380051,-0.0766741799999998,-0.1665355,32.15951742,-23.17247844,-29.23051504,-74.79932216,-0.4780159962800001,0.6961004987999999,0.319906078,0.0694629542,-0.0150182699999998,-0.2525847865999999,0.006
10:06:18,0.064900875,0.8062615000000001,-0.58590575,0.2424316249999999,-0.0811646249999999,-0.167446375,32.162172125,-23.15426425,-29.239046,-74.64861625,-0.4828715822500001,0.7047351475000001,0.3286572875000002,0.07137237625,-0.0192226449999999,-0.2590976437499999,0.006
10:06:18,0.05755889,0.8135399200000001,-0.5847876599999999,0.2468581499999999,-0.0856550699999998,-0.16835725,32.16482683,-23.13605006,-29.24757696,-74.49791034,-0.48772716822,0.7133697962000001,0.3374084970000002,0.0732817983,-0.0234270199999999,-0.2656105008999999,0.006
10:06:18,0.050216905,0.8208183400000001,-0.58366957,0.251284675,-0.0901455149999999,-0.169268125,32.167481535,-23.11783587,-29.25610792,-74.34720443,-0.49258275419,0.7220044449,0.3461597065000001,0.07519122035,-0.0276313949999998,-0.2721233580499999,0.006
10:06:18,0.04287492,0.8280967600000001,-0.58255148,0.2557111999999999,-0.0946359599999999,-0.170179,32.17013624,-23.09962168,-29.26463888,-74.19649852,-0.49743834016,0.7306390936,0.3549109160000001,0.0771006424,-0.0318357699999999,-0.2786362151999999,0.006
10:06:18,0.0355329349999999,0.8353751800000001,-0.5814333899999999,0.2601377249999999,-0.0991264049999998,-0.171089875,32.172790945,-23.08140749,-29.27316984,-74.04579261,-0.5022939261300001,0.7392737423,0.3636621255000001,0.07901006445,-0.0360401449999999,-0.28514907235,0.006
10:06:18,0.02819095,0.8426536000000001,-0.5803153,0.26456425,-0.1036168499999999,-0.17200075,32.17544565,-23.0631933,-29.2817008,-73.89508670000001,-0.5071495121,0.747908391,0.372413335,0.0809194865,-0.0402445199999998,-0.2916619294999999,0.006
10:06:18,0.0208489649999999,0.8499320200000001,-0.57919721,0.2689907749999999,-0.1081072949999998,-0.172911625,32.178100355,-23.04497911,-29.29023176,-73.74438079000001,-0.5120050980699999,0.7565430396999999,0.3811645445,0.08282890855,-0.0444488949999999,-0.2981747866499999,0.006
10:06:18,0.01350698,0.8572104400000001,-0.57807912,0.2734172999999999,-0.1125977399999999,-0.1738225,32.18075506,-23.02676492,-29.29876272,-73.59367488000001,-0.5168606840400001,0.7651776884000001,0.3899157540000002,0.0847383306,-0.0486532699999999,-0.3046876437999999,0.006
10:06:18,0.006164995,0.8644888600000001,-0.57696103,0.277843825,-0.1170881849999999,-0.174733375,32.183409765,-23.00855073,-29.30729368,-73.44296897000001,-0.52171627001,0.7738123371000001,0.3986669635000002,0.08664775265,-0.0528576449999999,-0.3112005009499999,0.006
10:06:18,-0.0011769899999999,0.8717672800000001,-0.5758429399999999,0.2822703499999999,-0.1215786299999998,-0.17564425,32.18606447,-22.99033654,-29.31582464,-73.29226306000001,-0.5265718559800001,0.7824469858,0.4074181730000001,0.0885571747,-0.0570620199999999,-0.3177133580999999,0.006
10:06:18,-0.0085189749999999,0.8790457000000002,-0.57472485,0.286696875,-0.1260690749999999,-0.176555125,32.188719175,-22.97212235,-29.3243556,-73.14155715,-0.53142744195,0.7910816345,0.4161693825000001,0.09046659675,-0.0612663949999999,-0.3242262152499999,0.006
10:06:18,-0.0158609599999999,0.8863241200000002,-0.57360676,0.2911234,-0.1305595199999998,-0.177466,32.19137388,-22.95390816,-29.33288656,-72.99085124,-0.5362830279200002,0.7997162832,0.4249205920000001,0.0923760188,-0.0654707699999999,-0.3307390723999999,0.006
10:06:18,-0.0232029449999998,0.8936025400000001,-0.5724886699999999,0.2955499249999999,-0.1350499649999999,-0.178376875,32.194028585,-22.93569397,-29.34141752,-72.84014533,-0.5411386138900001,0.8083509319,0.4336718015,0.09428544085,-0.0696751449999999,-0.3372519295499999,0.006
10:06:18,-0.0305449299999999,0.9008809600000002,-0.57137058,0.29997645,-0.1395404099999999,-0.17928775,32.19668329,-22.91747978,-29.34994848,-72.68943942,-0.54599419986,0.8169855805999999,0.442423011,0.0961948629,-0.0738795199999999,-0.3437647866999999,0.006
10:06:18,-0.0378869149999999,0.9081593800000002,-0.5702524899999999,0.3044029749999999,-0.1440308549999998,-0.180198625,32.199337995,-22.89926559,-29.35847944,-72.53873351,-0.5508497858300001,0.8256202293000001,0.4511742205000002,0.09810428495,-0.0780838949999999,-0.3502776438499999,0.006
10:06:18,-0.0452289,0.9154378000000002,-0.5691343999999999,0.3088294999999999,-0.1485212999999999,-0.1811095,32.2019927,-22.8810514,-29.3670104,-72.3880276,-0.5557053718,0.8342548780000001,0.4599254300000002,0.100013707,-0.0822882699999999,-0.3567905009999998,0.006
10:06:18,-0.052570885,0.9227162200000002,-0.56801631,0.313256025,-0.1530117449999998,-0.1820203749999999,32.204647405,-22.86283721,-29.37554136,-72.23732169,-0.5605609577700001,0.8428895267000001,0.4686766395000001,0.10192312905,-0.0864926449999999,-0.3633033581499999,0.006
10:06:18,-0.0599128699999998,0.9299946400000002,-0.5668982199999999,0.3176825499999999,-0.1575021899999999,-0.18293125,32.20730211,-22.84462302,-29.38407232,-72.08661578,-0.56541654374,0.8515241754,0.4774278490000001,0.1038325511,-0.0906970199999999,-0.3698162153,0.006
10:06:18,-0.0672548549999999,0.9372730600000002,-0.5657801299999999,0.322109075,-0.1619926349999998,-0.183842125,32.209956815,-22.82640883,-29.39260328,-71.93590987,-0.57027212971,0.8601588241,0.4861790585000001,0.10574197315,-0.0949013949999999,-0.3763290724499999,0.006
10:06:18,-0.07459684,0.9445514800000002,-0.56466204,0.3265356,-0.1664830799999998,-0.184753,32.21261152,-22.80819464,-29.40113424,-71.78520396,-0.5751277156800001,0.8687934728,0.494930268,0.1076513952,-0.0991057699999998,-0.3828419295999999,0.006
10:06:18,-0.081938825,0.9518299,-0.5635439499999999,0.3309621249999999,-0.1709735249999999,-0.185663875,32.215266225,-22.78998045,-29.4096652,-71.63449805,-0.57998330165,0.8774281214999999,0.5036814775000003,0.10956081725,-0.1033101449999999,-0.3893547867499999,0.006
10:06:18,-0.0892808099999998,0.95910832,-0.5624258599999999,0.33538865,-0.1754639699999998,-0.1865747499999999,32.21792093,-22.77176626,-29.41819616,-71.48379214,-0.5848388876200001,0.8860627702000001,0.5124326870000002,0.1114702393,-0.1075145199999999,-0.3958676438999999,0.006
10:06:18,-0.0966227949999999,0.96638674,-0.56130777,0.3398151749999999,-0.1799544149999999,-0.187485625,32.220575635,-22.75355207,-29.42672712,-71.33308623,-0.58969447359,0.8946974189000001,0.5211838965000002,0.11337966135,-0.1117188949999998,-0.4023805010499999,0.006
10:06:18,-0.1039647799999999,0.97366516,-0.5601896799999999,0.3442416999999999,-0.1844448599999998,-0.1883965,32.22323034,-22.73533788,-29.43525808,-71.18238032,-0.59455005956,0.9033320676,0.5299351060000002,0.1152890833999999,-0.1159232699999999,-0.4088933581999999,0.006
10:06:18,-0.111306765,0.98094358,-0.55907159,0.348668225,-0.1889353049999999,-0.189307375,32.225885045,-22.71712369,-29.44378904,-71.03167441,-0.5994056455300001,0.9119667163,0.5386863155000001,0.1171985054499999,-0.1201276449999999,-0.4154062153499999,0.006
10:06:18,-0.1186487499999998,0.988222,-0.5579535,0.3530947499999999,-0.1934257499999999,-0.19021825,32.22853975,-22.6989095,-29.45232,-70.8809685,-0.6042612315,0.920601365,0.5474375250000001,0.1191079274999999,-0.1243320199999998,-0.4219190724999999,0.006
10:06:18,-0.1259907349999999,0.99550042,-0.5568354099999999,0.3575212749999999,-0.1979161949999998,-0.191129125,32.231194455,-22.68069531,-29.46085096,-70.73026259,-0.6091168174700001,0.9292360137,0.5561887345000001,0.1210173495499999,-0.1285363949999999,-0.4284319296499999,0.006
10:06:18,-0.1333327199999999,1.00277884,-0.55571732,0.3619478,-0.2024066399999999,-0.19204,32.23384916,-22.66248112,-29.46938192,-70.57955668,-0.61397240344,0.9378706624,0.5649399440000002,0.1229267715999999,-0.1327407699999999,-0.4349447867999999,0.006
10:06:18,-0.140674705,1.01005726,-0.55459923,0.3663743249999999,-0.2068970849999998,-0.192950875,32.236503865,-22.64426693,-29.47791288,-70.42885077,-0.6188279894100002,0.9465053111,0.5736911535000002,0.1248361936499999,-0.1369451449999998,-0.4414576439499998,0.006
10:06:18,-0.14801669,1.01733568,-0.5534811399999999,0.37080085,-0.2113875299999999,-0.19386175,32.23915857,-22.62605274,-29.48644384,-70.27814486,-0.6236835753800001,0.9551399598,0.5824423630000002,0.1267456156999999,-0.1411495199999999,-0.4479705011,0.006
10:06:18,-0.1553586749999999,1.0246141,-0.55236305,0.375227375,-0.2158779749999999,-0.194772625,32.241813275,-22.60783855,-29.4949748,-70.12743895,-0.62853916135,0.9637746085,0.5911935725000002,0.1286550377499999,-0.1453538949999999,-0.4544833582499999,0.006
10:06:18,-0.1627006599999999,1.03189252,-0.55124496,0.3796538999999999,-0.2203684199999998,-0.1956835,32.24446798,-22.58962436,-29.50350576,-69.97673304,-0.6333947473200001,0.9724092572,0.5999447820000001,0.1305644597999999,-0.1495582699999998,-0.4609962153999999,0.006
10:06:18,-0.170042645,1.03917094,-0.5501268699999999,0.384080425,-0.2248588649999999,-0.196594375,32.247122685,-22.57141017,-29.51203672,-69.82602713,-0.63825033329,0.9810439059,0.6086959915000001,0.13247388185,-0.1537626449999999,-0.4675090725499998,0.006
10:06:18,-0.17738463,1.04644936,-0.54900878,0.3885069499999999,-0.2293493099999998,-0.19750525,32.24977739,-22.55319598,-29.52056768,-69.67532122,-0.6431059192600002,0.9896785546,0.6174472010000001,0.1343833039,-0.1579670199999999,-0.4740219297,0.006
10:06:18,-0.1847266149999998,1.05372778,-0.54789069,0.3929334749999999,-0.2338397549999999,-0.198416125,32.252432095,-22.53498179,-29.52909864,-69.52461531,-0.6479615052300001,0.9983132033,0.6261984105000002,0.13629272595,-0.1621713949999998,-0.4805347868499999,0.006
10:06:18,-0.1920685999999999,1.0610062,-0.5467725999999999,0.39736,-0.2383301999999998,-0.199327,32.2550868,-22.5167676,-29.5376296,-69.3739094,-0.6528170912,1.006947852,0.6349496200000002,0.138202148,-0.1663757699999999,-0.4870476439999999,0.006
10:06:18,-0.1994105849999999,1.06828462,-0.54565451,0.4017865249999999,-0.2428206449999998,-0.200237875,32.257741505,-22.49855341,-29.54616056,-69.22320349,-0.6576726771700001,1.0155825007,0.6437008295000002,0.14011157005,-0.1705801449999999,-0.4935605011499998,0.006
10:06:18,-0.20675257,1.07556304,-0.54453642,0.4062130499999999,-0.2473110899999999,-0.20114875,32.26039621,-22.48033922,-29.55469152,-69.07249758,-0.66252826314,1.0242171494,0.6524520390000002,0.1420209921,-0.1747845199999999,-0.5000733583,0.006
10:06:18,-0.2140945549999998,1.08284146,-0.54341833,0.410639575,-0.2518015349999998,-0.202059625,32.263050915,-22.46212503,-29.56322248,-68.92179167,-0.6673838491100001,1.0328517981,0.6612032485000001,0.14393041415,-0.1789888949999999,-0.5065862154499999,0.006
10:06:18,-0.2214365399999999,1.09011988,-0.54230024,0.4150660999999999,-0.2562919799999999,-0.2029705,32.26570562,-22.44391084,-29.57175344,-68.77108576,-0.6722394350800001,1.0414864468,0.6699544580000001,0.1458398362,-0.1831932699999999,-0.5130990725999999,0.006
10:06:18,-0.2287785249999999,1.0973983,-0.5411821499999999,0.419492625,-0.2607824249999999,-0.203881375,32.268360325,-22.42569665,-29.5802844,-68.62037985,-0.67709502105,1.0501210955,0.6787056675,0.14774925825,-0.1873976449999999,-0.5196119297499998,0.006
10:06:18,-0.23612051,1.10467672,-0.54006406,0.4239191499999999,-0.2652728699999998,-0.20479225,32.27101503,-22.40748246,-29.58881536,-68.46967394,-0.6819506070200001,1.0587557442,0.6874568770000002,0.1496586803,-0.1916020199999999,-0.5261247869,0.006
10:06:18,-0.243462495,1.11195514,-0.53894597,0.4283456749999999,-0.2697633149999999,-0.205703125,32.273669735,-22.38926827,-29.59734632,-68.31896803000001,-0.68680619299,1.0673903929,0.6962080865000002,0.15156810235,-0.1958063949999999,-0.5326376440499999,0.006
10:06:18,-0.2508044799999999,1.11923356,-0.5378278799999999,0.4327722,-0.2742537599999998,-0.206614,32.27632444,-22.37105408,-29.60587728,-68.16826212000001,-0.6916617789600001,1.0760250416,0.7049592960000002,0.1534775244,-0.2000107699999999,-0.5391505011999999,0.006
10:06:18,-0.2581464649999999,1.12651198,-0.53670979,0.4371987249999999,-0.2787442049999999,-0.207524875,32.278979145,-22.35283989,-29.61440824,-68.01755621000001,-0.69651736493,1.0846596903,0.7137105055000001,0.15538694645,-0.2042151449999999,-0.54566335835,0.006
10:06:18,-0.26548845,1.1337904,-0.5355916999999999,0.4416252499999999,-0.2832346499999998,-0.20843575,32.28163385,-22.3346257,-29.6229392,-67.8668503,-0.7013729509,1.093294339,0.7224617150000001,0.1572963685,-0.2084195199999999,-0.5521762155,0.006
10:06:18,-0.272830435,1.14106882,-0.5344736099999999,0.446051775,-0.2877250949999998,-0.209346625,32.284288555,-22.31641151,-29.63147016,-67.71614439,-0.7062285368700001,1.1019289877,0.7312129245000001,0.15920579055,-0.2126238949999999,-0.5586890726499999,0.006
10:06:18,-0.2801724199999998,1.14834724,-0.53335552,0.4504782999999999,-0.2922155399999999,-0.2102574999999999,32.28694326,-22.29819732,-29.64000112,-67.56543848,-0.71108412284,1.1105636364,0.7399641340000003,0.1611152126,-0.2168282699999999,-0.5652019297999998,0.006
10:06:18,-0.2875144049999999,1.15562566,-0.5322374299999999,0.454904825,-0.2967059849999998,-0.211168375,32.289597965,-22.27998313,-29.64853208,-67.41473257,-0.7159397088100001,1.1191982851,0.7487153435000002,0.16302463465,-0.2210326449999999,-0.57171478695,0.006
10:06:18,-0.2948563899999999,1.16290408,-0.5311193399999999,0.4593313499999999,-0.3011964299999999,-0.21207925,32.29225267,-22.26176894,-29.65706304,-67.26402666,-0.72079529478,1.1278329338,0.7574665530000002,0.1649340567,-0.2252370199999999,-0.5782276440999999,0.006
10:06:18,-0.302198375,1.1701825,-0.53000125,0.4637578749999999,-0.3056868749999998,-0.212990125,32.294907375,-22.24355475,-29.665594,-67.11332075,-0.7256508807500002,1.1364675825,0.7662177625000002,0.16684347875,-0.2294413949999999,-0.5847405012499999,0.006
10:06:18,-0.3095403599999998,1.17746092,-0.5288831599999999,0.4681844,-0.3101773199999999,-0.213901,32.29756208,-22.22534056,-29.67412496,-66.96261484,-0.7305064667200001,1.1451022312,0.7749689720000001,0.1687529008,-0.2336457699999999,-0.5912533583999998,0.006
10:06:18,-0.3168823449999999,1.18473934,-0.52776507,0.4726109249999999,-0.3146677649999999,-0.2148118749999999,32.300216785,-22.20712637,-29.68265592,-66.81190893,-0.73536205269,1.1537368799,0.7837201815000001,0.17066232285,-0.2378501449999999,-0.59776621555,0.006
10:06:18,-0.3242243299999999,1.19201776,-0.52664698,0.4770374499999999,-0.3191582099999998,-0.21572275,32.30287149,-22.18891218,-29.69118688,-66.66120302,-0.7402176386600001,1.1623715286,0.7924713910000001,0.1725717449,-0.2420545199999999,-0.6042790726999999,0.006
10:06:18,-0.331566315,1.1992961800000002,-0.5255288899999999,0.481463975,-0.3236486549999999,-0.216633625,32.305526195,-22.17069799,-29.69971784,-66.51049711,-0.74507322463,1.1710061773,0.8012226005000003,0.17448116695,-0.2462588949999998,-0.6107919298499999,0.006
10:06:18,-0.3389083,1.2065746000000002,-0.5244108,0.4858904999999999,-0.3281390999999998,-0.2175445,32.3081809,-22.1524838,-29.7082488,-66.3597912,-0.7499288106000002,1.179640826,0.8099738100000002,0.176390589,-0.2504632699999999,-0.617304787,0.006
10:06:18,-0.3462502849999999,1.2138530200000002,-0.52329271,0.4903170249999999,-0.3326295449999999,-0.218455375,32.310835605,-22.13426961,-29.71677976,-66.20908529,-0.7547843965700001,1.1882754747,0.8187250195000002,0.1783000110499999,-0.2546676449999999,-0.62381764415,0.006
10:06:18,-0.3535922699999999,1.2211314400000002,-0.5221746199999999,0.49474355,-0.3371199899999998,-0.2193662499999999,32.31349031,-22.11605542,-29.72531072,-66.05837938,-0.75963998254,1.1969101234,0.8274762290000002,0.1802094330999999,-0.2588720199999998,-0.6303305012999999,0.006
10:06:18,-0.360934255,1.2284098600000002,-0.52105653,0.4991700749999999,-0.3416104349999998,-0.220277125,32.316145015,-22.09784123,-29.73384168,-65.90767347,-0.7644955685100001,1.2055447721,0.8362274385000001,0.1821188551499999,-0.2630763949999999,-0.6368433584499998,0.006
10:06:18,-0.36827624,1.2356882800000002,-0.51993844,0.5035966000000001,-0.3461008799999999,-0.221188,32.31879972,-22.07962704,-29.74237264,-65.75696755999999,-0.76935115448,1.2141794208,0.8449786480000001,0.1840282771999999,-0.2672807699999999,-0.6433562156,0.006
10:06:18,-0.3756182249999998,1.2429667000000002,-0.5188203499999999,0.508023125,-0.3505913249999998,-0.222098875,32.321454425,-22.06141285,-29.7509036,-65.60626165,-0.7742067404500002,1.2228140695,0.8537298575000001,0.18593769925,-0.2714851449999999,-0.6498690727499999,0.006
10:06:18,-0.3829602099999999,1.2502451200000002,-0.51770226,0.51244965,-0.3550817699999999,-0.22300975,32.32410913,-22.04319866,-29.75943456,-65.45555574,-0.7790623264200001,1.2314487182,0.8624810670000003,0.1878471213,-0.2756895199999999,-0.6563819298999999,0.006
10:06:18,-0.3903021949999999,1.2575235400000002,-0.51658417,0.5168761749999999,-0.3595722149999998,-0.2239206249999999,32.326763835,-22.02498447,-29.76796552,-65.30484983,-0.78391791239,1.2400833669,0.8712322765000002,0.18975654335,-0.2798938949999999,-0.6628947870499998,0.006
10:06:18,-0.39764418,1.2648019600000002,-0.5154660799999999,0.5213026999999999,-0.3640626599999998,-0.2248315,32.32941854,-22.00677028,-29.77649648,-65.15414392,-0.7887734983600001,1.2487180156,0.8799834860000002,0.1916659654,-0.2840982699999999,-0.6694076442,0.006
10:06:18,-0.4049861649999998,1.2720803800000002,-0.51434799,0.5257292249999999,-0.3685531049999999,-0.225742375,32.332073245,-21.98855609,-29.78502744,-65.00343801,-0.79362908433,1.2573526643,0.8887346955000002,0.19357538745,-0.2883026449999999,-0.6759205013499999,0.006
10:06:18,-0.4123281499999999,1.2793588000000002,-0.5132299,0.53015575,-0.3730435499999998,-0.22665325,32.33472795,-21.9703419,-29.7935584,-64.8527321,-0.7984846703000001,1.265987313,0.8974859050000001,0.1954848095,-0.2925070199999999,-0.6824333584999999,0.006
10:06:18,-0.4196701349999999,1.2866372200000002,-0.51211181,0.534582275,-0.3775339949999999,-0.227564125,32.337382655,-21.95212771,-29.80208936,-64.70202619,-0.80334025627,1.2746219617,0.9062371145,0.19739423155,-0.2967113949999999,-0.6889462156499998,0.006
10:06:18,-0.42701212,1.2939156400000005,-0.51099372,0.5390088,-0.3820244399999998,-0.2284749999999999,32.34003736,-21.93391352,-29.81062032,-64.55132028,-0.8081958422400002,1.2832566104,0.914988324,0.1993036536,-0.3009157699999999,-0.6954590728,0.006
10:06:18,-0.434354105,1.3011940600000005,-0.50987563,0.5434353249999999,-0.3865148849999998,-0.229385875,32.342692065,-21.91569933,-29.81915128,-64.40061437,-0.8130514282100001,1.2918912591,0.9237395335000004,0.20121307565,-0.3051201449999999,-0.7019719299499999,0.006
10:06:18,-0.4416960899999999,1.3084724800000005,-0.50875754,0.5478618499999999,-0.3910053299999999,-0.23029675,32.34534677,-21.89748514,-29.82768224,-64.24990846,-0.81790701418,1.3005259078,0.9324907430000002,0.2031224977,-0.3093245199999999,-0.7084847870999998,0.006
10:06:18,-0.4490380749999999,1.3157509000000005,-0.50763945,0.552288375,-0.3954957749999998,-0.231207625,32.348001475,-21.87927095,-29.8362132,-64.09920255,-0.8227626001500001,1.3091605565,0.9412419525000002,0.20503191975,-0.3135288949999999,-0.71499764425,0.006
10:06:18,-0.45638006,1.3230293200000005,-0.5065213599999999,0.5567149,-0.3999862199999999,-0.2321185,32.35065618,-21.86105676,-29.84474416,-63.94849664,-0.82761818612,1.3177952052000002,0.9499931620000002,0.2069413418,-0.3177332699999999,-0.7215105014,0.006
10:06:18,-0.463722045,1.3303077400000003,-0.50540327,0.561141425,-0.4044766649999998,-0.233029375,32.353310885,-21.84284257,-29.85327512,-63.79779073,-0.8324737720900002,1.3264298539,0.9587443715,0.20885076385,-0.3219376449999999,-0.7280233585499999,0.006
10:06:18,-0.4710640299999998,1.3375861600000003,-0.5042851799999999,0.5655679499999999,-0.4089671099999998,-0.23394025,32.35596559,-21.82462838,-29.86180608,-63.64708482,-0.8373293580600001,1.3350645026,0.967495581,0.2107601859,-0.3261420199999999,-0.7345362156999998,0.006
10:06:18,-0.4784060149999999,1.3448645800000003,-0.5031670899999999,0.5699944749999999,-0.4134575549999998,-0.234851125,32.358620295,-21.80641419,-29.87033704,-63.49637891,-0.84218494403,1.3436991513,0.9762467905000004,0.21266960795,-0.3303463949999999,-0.74104907285,0.006
10:06:19,-0.485748,1.352143,-0.502049,0.574421,-0.417948,-0.235762,32.361275,-21.7882,-29.878868,-63.345673,-0.84704053,1.3523338,0.984998,0.21457903,-0.33455077,-0.74756193,0.006
10:06:19,-0.47766056,1.329474265,-0.50102941,0.573851035,-0.4148371799999999,-0.232464745,32.379529525,-21.790099645,-29.841720325,-63.526394835,-0.84136462765,1.3289754965,0.9646870975,0.21673108585,-0.33193838775,-0.7448315542,0.006
10:06:19,-0.46957312,1.30680553,-0.5000098199999999,0.57328107,-0.41172636,-0.22916749,32.39778405,-21.79199929,-29.80457265,-63.70711667,-0.8356887253,1.305617193,0.944376195,0.2188831417,-0.3293260055,-0.7421011784,0.006
10:06:19,-0.46148568,1.284136795,-0.49899023,0.572711105,-0.40861554,-0.225870235,32.416038575,-21.793898935,-29.767424975,-63.887838505,-0.83001282295,1.2822588895,0.9240652925,0.22103519755,-0.32671362325,-0.7393708026,0.006
10:06:19,-0.45339824,1.26146806,-0.4979706399999999,0.5721411399999999,-0.40550472,-0.22257298,32.4342931,-21.79579858,-29.7302773,-64.06856034,-0.8243369206,1.258900586,0.90375439,0.2231872534,-0.324101241,-0.7366404268000001,0.006
10:06:19,-0.4453108,1.238799325,-0.4969510499999999,0.571571175,-0.4023938999999999,-0.219275725,32.452547625,-21.797698225,-29.693129625,-64.249282175,-0.81866101825,1.2355422825,0.8834434875,0.22533930925,-0.32148885875,-0.7339100510000001,0.006
10:06:19,-0.43722336,1.21613059,-0.49593146,0.5710012099999999,-0.39928308,-0.21597847,32.47080215,-21.79959787,-29.65598195,-64.43000401,-0.8129851159,1.212183979,0.863132585,0.2274913651,-0.3188764765,-0.7311796752,0.006
10:06:19,-0.42913592,1.193461855,-0.49491187,0.570431245,-0.39617226,-0.212681215,32.489056675,-21.801497515,-29.618834275,-64.610725845,-0.80730921355,1.1888256755,0.8428216825,0.22964342095,-0.31626409425,-0.7284492994,0.006
10:06:19,-0.42104848,1.17079312,-0.4938922799999999,0.5698612799999999,-0.39306144,-0.20938396,32.5073112,-21.80339716,-29.5816866,-64.79144768,-0.8016333112,1.165467372,0.82251078,0.2317954768,-0.3136517119999999,-0.7257189236,0.006
10:06:19,-0.41296104,1.148124385,-0.4928726899999999,0.569291315,-0.3899506199999999,-0.206086705,32.525565725,-21.805296805,-29.544538925,-64.972169515,-0.79595740885,1.1421090685,0.8021998775,0.23394753265,-0.31103932975,-0.7229885478,0.006
10:06:19,-0.4048736,1.12545565,-0.4918531,0.56872135,-0.3868398,-0.2027894499999999,32.54382025,-21.80719645,-29.50739125,-65.15289135,-0.7902815065000001,1.118750765,0.781888975,0.2360995885,-0.3084269475,-0.7202581720000001,0.006
10:06:19,-0.39678616,1.102786915,-0.49083351,0.568151385,-0.38372898,-0.1994921949999999,32.562074775,-21.809096095,-29.470243575,-65.333613185,-0.78460560415,1.0953924615,0.7615780725,0.23825164435,-0.30581456525,-0.7175277962000001,0.006
10:06:19,-0.38869872,1.08011818,-0.4898139199999999,0.56758142,-0.38061816,-0.1961949399999999,32.5803293,-21.81099574,-29.4330959,-65.51433502,-0.7789297018,1.072034158,0.74126717,0.2404037002,-0.303202183,-0.7147974204,0.006
10:06:19,-0.38061128,1.057449445,-0.4887943299999999,0.5670114549999999,-0.3775073399999999,-0.1928976849999999,32.598583825,-21.812895385,-29.395948225,-65.695056855,-0.7732537994500001,1.0486758545,0.7209562675000001,0.24255575605,-0.3005898007499999,-0.7120670446,0.006
10:06:19,-0.37252384,1.0347807100000002,-0.48777474,0.56644149,-0.37439652,-0.18960043,32.61683835,-21.81479503,-29.35880055,-65.87577869,-0.7675778971,1.025317551,0.700645365,0.2447078119,-0.2979774185,-0.7093366688,0.006
10:06:19,-0.3644364,1.012111975,-0.4867551499999999,0.5658715249999999,-0.3712857,-0.186303175,32.635092875,-21.816694675,-29.321652875,-66.056500525,-0.76190199475,1.0019592475,0.6803344625000001,0.24685986775,-0.29536503625,-0.706606293,0.006
10:06:19,-0.35634896,0.9894432400000002,-0.4857355599999999,0.56530156,-0.36817488,-0.18300592,32.6533474,-21.81859432,-29.2845052,-66.23722236,-0.7562260924,0.978600944,0.66002356,0.2490119236,-0.292752654,-0.7038759172000001,0.006
10:06:19,-0.34826152,0.966774505,-0.48471597,0.5647315949999999,-0.3650640599999999,-0.179708665,32.671601925,-21.820493965,-29.247357525,-66.417944195,-0.75055019005,0.9552426405,0.6397126575000001,0.25116397945,-0.29014027175,-0.7011455414000001,0.006
10:06:19,-0.34017408,0.9441057700000002,-0.48369638,0.56416163,-0.36195324,-0.17641141,32.68985645,-21.82239361,-29.21020985,-66.59866603,-0.7448742877000001,0.931884337,0.6194017549999999,0.2533160353,-0.2875278895,-0.6984151656,0.006
10:06:19,-0.33208664,0.921437035,-0.4826767899999999,0.5635916649999999,-0.35884242,-0.173114155,32.708110975,-21.824293255,-29.173062175,-66.779387865,-0.73919838535,0.9085260335,0.5990908525,0.25546809115,-0.28491550725,-0.6956847898,0.006
10:06:19,-0.3239992,0.8987683000000002,-0.4816571999999999,0.5630217,-0.3557316,-0.1698169,32.7263655,-21.8261929,-29.1359145,-66.9601097,-0.733522483,0.88516773,0.5787799499999999,0.257620147,-0.282303125,-0.692954414,0.006
10:06:19,-0.31591176,0.8760995650000001,-0.48063761,0.562451735,-0.3526207799999999,-0.166519645,32.744620025,-21.828092545,-29.098766825,-67.140831535,-0.7278465806500001,0.8618094265,0.5584690475,0.25977220285,-0.27969074275,-0.6902240382,0.006
10:06:19,-0.30782432,0.8534308300000002,-0.47961802,0.56188177,-0.34950996,-0.16322239,32.76287455,-21.82999219,-29.06161915,-67.32155337,-0.7221706783,0.838451123,0.5381581449999999,0.2619242587,-0.2770783605,-0.6874936624000001,0.006
10:06:19,-0.29973688,0.8307620950000001,-0.4785984299999999,0.561311805,-0.34639914,-0.159925135,32.781129075,-21.831891835,-29.024471475,-67.502275205,-0.71649477595,0.8150928195,0.5178472425,0.26407631455,-0.27446597825,-0.6847632866000001,0.006
10:06:19,-0.29164944,0.8080933600000001,-0.4775788399999999,0.5607418399999999,-0.34328832,-0.15662788,32.7993836,-21.83379148,-28.9873238,-67.68299704,-0.7108188736000001,0.791734516,0.49753634,0.2662283704,-0.271853596,-0.6820329108000001,0.006
10:06:19,-0.283562,0.7854246250000001,-0.47655925,0.560171875,-0.3401775,-0.153330625,32.817638125,-21.835691125,-28.950176125,-67.863718875,-0.70514297125,0.7683762125,0.4772254375,0.2683804262499999,-0.26924121375,-0.679302535,0.006
10:06:19,-0.27547456,0.7627558900000001,-0.47553966,0.5596019099999999,-0.33706668,-0.15003337,32.83589265,-21.83759077,-28.91302845,-68.04444071,-0.6994670689,0.745017909,0.456914535,0.2705324820999999,-0.2666288315,-0.6765721592,0.006
10:06:19,-0.26738712,0.7400871550000001,-0.4745200699999999,0.559031945,-0.33395586,-0.146736115,32.854147175,-21.839490415,-28.875880775,-68.225162545,-0.6937911665500001,0.7216596055000001,0.4366036325,0.2726845379499999,-0.26401644925,-0.6738417834,0.006
10:06:19,-0.25929968,0.7174184200000001,-0.4735004799999999,0.5584619799999999,-0.33084504,-0.14343886,32.8724017,-21.84139006,-28.8387331,-68.40588438,-0.6881152642,0.6983013020000001,0.41629273,0.2748365938,-0.261404067,-0.6711114076,0.006
10:06:19,-0.25121224,0.6947496850000001,-0.47248089,0.557892015,-0.3277342199999999,-0.140141605,32.890656225,-21.843289705,-28.801585425,-68.586606215,-0.68243936185,0.6749429985000001,0.3959818275,0.27698864965,-0.25879168475,-0.6683810318000001,0.006
10:06:19,-0.2431248,0.6720809500000001,-0.4714612999999999,0.55732205,-0.3246234,-0.13684435,32.90891075,-21.84518935,-28.76443775,-68.76732805,-0.6767634595,0.651584695,0.375670925,0.2791407055,-0.2561793025,-0.6656506560000001,0.006
10:06:19,-0.23503736,0.6494122150000001,-0.4704417099999999,0.556752085,-0.32151258,-0.133547095,32.927165275,-21.847088995,-28.727290075,-68.948049885,-0.67108755715,0.6282263915,0.3553600225,0.28129276135,-0.25356692025,-0.6629202802,0.006
10:06:19,-0.22694992,0.6267434800000001,-0.4694221199999999,0.55618212,-0.31840176,-0.13024984,32.9454198,-21.84898864,-28.6901424,-69.12877172,-0.6654116548,0.604868088,0.33504912,0.2834448172,-0.250954538,-0.6601899044,0.006
10:06:19,-0.21886248,0.6040747450000001,-0.46840253,0.5556121549999999,-0.31529094,-0.126952585,32.963674325,-21.850888285,-28.652994725,-69.309493555,-0.65973575245,0.5815097845,0.3147382175,0.28559687305,-0.24834215575,-0.6574595286,0.006
10:06:19,-0.21077504,0.5814060100000001,-0.4673829399999999,0.55504219,-0.31218012,-0.12365533,32.98192885,-21.85278793,-28.61584705,-69.49021539,-0.6540598501,0.558151481,0.2944273149999999,0.2877489289,-0.2457297735,-0.6547291528000001,0.006
10:06:19,-0.2026876,0.5587372750000001,-0.4663633499999999,0.5544722249999999,-0.3090693,-0.120358075,33.000183375,-21.854687575,-28.578699375,-69.670937225,-0.64838394775,0.5347931775,0.2741164124999999,0.28990098475,-0.24311739125,-0.6519987770000001,0.006
10:06:19,-0.19460016,0.5360685400000001,-0.46534376,0.55390226,-0.30595848,-0.11706082,33.0184379,-21.85658722,-28.5415517,-69.85165906,-0.6427080454,0.511434874,0.2538055099999999,0.2920530406,-0.240505009,-0.6492684012000001,0.006
10:06:19,-0.18651272,0.5133998050000002,-0.46432417,0.5533322949999999,-0.3028476599999999,-0.113763565,33.036692425,-21.858486865,-28.504404025,-70.032380895,-0.63703214305,0.4880765705,0.2334946074999999,0.29420509645,-0.23789262675,-0.6465380254,0.006
10:06:19,-0.17842528,0.4907310700000001,-0.4633045799999999,0.55276233,-0.29973684,-0.1104663099999999,33.05494695,-21.86038651,-28.46725635,-70.21310273,-0.6313562407000001,0.4647182670000001,0.2131837049999999,0.2963571523,-0.2352802445,-0.6438076496,0.006
10:06:19,-0.17033784,0.4680623350000001,-0.4622849899999999,0.552192365,-0.29662602,-0.1071690549999999,33.073201475,-21.862286155,-28.430108675,-70.393824565,-0.62568033835,0.4413599635,0.1928728024999999,0.29850920815,-0.23266786225,-0.6410772738,0.006
10:06:19,-0.1622504,0.4453936000000001,-0.4612654,0.5516224,-0.2935152,-0.1038717999999999,33.091456,-21.8641858,-28.392961,-70.5745464,-0.6200044360000001,0.41800166,0.1725618999999999,0.300661264,-0.23005548,-0.638346898,0.006
10:06:19,-0.15416296,0.4227248650000001,-0.46024581,0.551052435,-0.29040438,-0.1005745449999999,33.109710525,-21.866085445,-28.355813325,-70.755268235,-0.6143285336500001,0.3946433565,0.1522509974999999,0.30281331985,-0.22744309775,-0.6356165222000001,0.006
10:06:19,-0.14607552,0.4000561300000002,-0.4592262199999999,0.55048247,-0.28729356,-0.0972772899999999,33.12796505,-21.86798509,-28.31866565,-70.93599007,-0.6086526313,0.371285053,0.1319400949999999,0.3049653757,-0.2248307155,-0.6328861464000001,0.006
10:06:19,-0.13798808,0.3773873950000002,-0.4582066299999999,0.549912505,-0.28418274,-0.0939800349999999,33.146219575,-21.869884735,-28.281517975,-71.116711905,-0.6029767289500001,0.3479267495,0.1116291924999999,0.30711743155,-0.22221833325,-0.6301557706,0.006
10:06:19,-0.12990064,0.3547186600000002,-0.45718704,0.5493425399999999,-0.28107192,-0.0906827799999999,33.1644741,-21.87178438,-28.2443703,-71.29743374,-0.5973008266000001,0.324568446,0.0913182899999999,0.3092694874,-0.219605951,-0.6274253948,0.006
10:06:19,-0.1218132,0.3320499250000002,-0.45616745,0.548772575,-0.2779610999999999,-0.0873855249999999,33.182728625,-21.873684025,-28.207222625,-71.478155575,-0.59162492425,0.3012101425,0.0710073874999999,0.31142154325,-0.21699356875,-0.624695019,0.006
10:06:19,-0.11372576,0.3093811900000001,-0.4551478599999999,0.5482026099999999,-0.27485028,-0.0840882699999999,33.20098315,-21.87558367,-28.17007495,-71.65887741,-0.5859490219000001,0.277851839,0.0506964849999999,0.3135735991,-0.2143811865,-0.6219646432,0.006
10:06:19,-0.10563832,0.2867124550000002,-0.45412827,0.547632645,-0.27173946,-0.080791015,33.219237675,-21.877483315,-28.132927275,-71.839599245,-0.58027311955,0.2544935355,0.0303855824999998,0.31572565495,-0.21176880425,-0.6192342674,0.006
10:06:19,-0.09755088,0.2640437200000001,-0.45310868,0.54706268,-0.26862864,-0.07749376,33.2374922,-21.87938296,-28.0957796,-72.02032108,-0.5745972172,0.2311352319999999,0.01007468,0.3178777108,-0.209156422,-0.6165038916000001,0.006
10:06:19,-0.08946344,0.2413749850000002,-0.4520890899999999,0.546492715,-0.26551782,-0.074196505,33.255746725,-21.881282605,-28.058631925,-72.201042915,-0.5689213148500001,0.2077769284999999,-0.0102362225,0.32002976665,-0.20654403975,-0.6137735158000001,0.006
10:06:19,-0.081376,0.2187062500000001,-0.4510694999999999,0.54592275,-0.262407,-0.07089925,33.27400125,-21.88318225,-28.02148425,-72.38176475,-0.5632454125,0.1844186249999999,-0.030547125,0.3221818225,-0.2039316575,-0.61104314,0.006
10:06:19,-0.07328856,0.1960375150000002,-0.4500499099999999,0.545352785,-0.25929618,-0.067601995,33.292255775,-21.885081895,-27.984336575,-72.562486585,-0.55756951015,0.1610603214999999,-0.0508580275000001,0.32433387835,-0.20131927525,-0.6083127642,0.006
10:06:19,-0.06520112,0.1733687800000001,-0.44903032,0.54478282,-0.25618536,-0.06430474,33.3105103,-21.88698154,-27.9471889,-72.74320842,-0.5518936078000001,0.1377020179999999,-0.07116893,0.3264859342,-0.198706893,-0.6055823884,0.006
10:06:19,-0.05711368,0.1507000450000002,-0.4480107299999999,0.5442128549999999,-0.2530745399999999,-0.061007485,33.328764825,-21.888881185,-27.910041225,-72.923930255,-0.54621770545,0.1143437144999999,-0.0914798325000001,0.32863799005,-0.19609451075,-0.6028520126000001,0.006
10:06:19,-0.04902624,0.1280313100000001,-0.4469911399999999,0.54364289,-0.24996372,-0.0577102299999999,33.34701935,-21.89078083,-27.87289355,-73.10465209,-0.5405418031,0.0909854110000001,-0.111790735,0.3307900459,-0.1934821285,-0.6001216368000001,0.006
10:06:19,-0.0409388,0.1053625750000002,-0.44597155,0.5430729249999999,-0.2468529,-0.0544129749999999,33.365273875,-21.892680475,-27.835745875,-73.285373925,-0.5348659007500001,0.0676271075000001,-0.1321016375000001,0.33294210175,-0.19086974625,-0.5973912610000001,0.006
10:06:19,-0.03285136,0.0826938400000001,-0.44495196,0.54250296,-0.24374208,-0.0511157199999999,33.3835284,-21.89458012,-27.7985982,-73.46609576,-0.5291899984,0.0442688040000001,-0.15241254,0.3350941576,-0.188257364,-0.5946608852,0.006
10:06:19,-0.02476392,0.0600251050000002,-0.4439323699999999,0.541932995,-0.2406312599999999,-0.0478184649999999,33.401782925,-21.896479765,-27.761450525,-73.646817595,-0.52351409605,0.0209105005,-0.1727234425000001,0.33724621345,-0.18564498175,-0.5919305094,0.006
10:06:19,-0.01667648,0.0373563700000001,-0.4429127799999999,0.54136303,-0.23752044,-0.0445212099999999,33.42003745,-21.89837941,-27.72430285,-73.82753943,-0.5178381937000001,-0.0024478029999999,-0.193034345,0.3393982693,-0.1830325995,-0.5892001336,0.006
10:06:19,-0.00858904,0.0146876350000002,-0.44189319,0.540793065,-0.2344096199999999,-0.0412239549999999,33.438291975,-21.900279055,-27.687155175,-74.008261265,-0.51216229135,-0.0258061064999999,-0.2133452475000001,0.3415503251499999,-0.18042021725,-0.5864697578,0.006
10:06:19,-0.0005016,-0.0079810999999998,-0.4408736,0.5402231,-0.2312988,-0.0379266999999999,33.4565465,-21.9021787,-27.6500075,-74.1889831,-0.506486389,-0.0491644099999999,-0.23365615,0.3437023809999999,-0.177807835,-0.5837393820000001,0.006
10:06:19,0.0075858399999999,-0.0306498349999997,-0.4398540099999999,0.539653135,-0.2281879799999999,-0.0346294449999999,33.474801025,-21.904078345,-27.612859825,-74.369704935,-0.50081048665,-0.0725227134999999,-0.2539670525000002,0.3458544368499999,-0.17519545275,-0.5810090062000001,0.006
10:06:19,0.0156732799999999,-0.0533185699999998,-0.4388344199999999,0.53908317,-0.22507716,-0.0313321899999999,33.49305555,-21.90597799,-27.57571215,-74.55042677,-0.4951345843,-0.0958810169999999,-0.2742779550000001,0.3480064926999999,-0.1725830705,-0.5782786304,0.006
10:06:19,0.02376072,-0.0759873049999997,-0.43781483,0.538513205,-0.2219663399999999,-0.0280349349999999,33.511310075,-21.907877635,-27.538564475,-74.731148605,-0.48945868195,-0.1192393204999999,-0.2945888575000002,0.3501585485499999,-0.16997068825,-0.5755482546,0.006
10:06:19,0.0318481599999999,-0.0986560399999998,-0.43679524,0.5379432399999999,-0.21885552,-0.0247376799999999,33.5295646,-21.90977728,-27.5014168,-74.91187044,-0.4837827796,-0.1425976239999999,-0.3148997600000001,0.3523106043999999,-0.167358306,-0.5728178788,0.006
10:06:19,0.0399355999999999,-0.1213247749999999,-0.4357756499999999,0.537373275,-0.2157447,-0.0214404249999999,33.547819125,-21.911676925,-27.464269125,-75.092592275,-0.47810687725,-0.1659559275,-0.3352106625,0.3544626602499999,-0.16474592375,-0.5700875030000001,0.006
10:06:19,0.0480230399999999,-0.1439935099999998,-0.43475606,0.53680331,-0.21263388,-0.0181431699999999,33.56607365,-21.91357657,-27.42712145,-75.27331411,-0.4724309749,-0.189314231,-0.3555215650000001,0.3566147160999999,-0.1621335415,-0.5673571272,0.006
10:06:19,0.0561104799999999,-0.1666622449999999,-0.43373647,0.536233345,-0.20952306,-0.0148459149999999,33.584328175,-21.915476215,-27.389973775,-75.454035945,-0.46675507255,-0.2126725345,-0.3758324675,0.3587667719499999,-0.15952115925,-0.5646267514000001,0.006
10:06:19,0.0641979199999999,-0.1893309799999998,-0.4327168799999999,0.53566338,-0.20641224,-0.0115486599999999,33.6025827,-21.91737586,-27.3528261,-75.63475778,-0.4610791702,-0.236030838,-0.3961433700000001,0.3609188277999999,-0.156908777,-0.5618963756,0.006
10:06:19,0.0722853599999999,-0.2119997149999999,-0.4316972899999999,0.535093415,-0.20330142,-0.0082514049999999,33.620837225,-21.919275505,-27.315678425,-75.815479615,-0.45540326785,-0.2593891415,-0.4164542725,0.3630708836499999,-0.15429639475,-0.5591659998,0.006
10:06:19,0.0803727999999999,-0.2346684499999998,-0.4306776999999999,0.53452345,-0.2001906,-0.0049541499999999,33.63909175,-21.92117515,-27.27853075,-75.99620145,-0.4497273655,-0.282747445,-0.4367651750000001,0.3652229394999999,-0.1516840125,-0.556435624,0.006
10:06:19,0.0884602399999999,-0.2573371849999999,-0.42965811,0.533953485,-0.19707978,-0.0016568949999999,33.657346275,-21.923074795,-27.241383075,-76.176923285,-0.44405146315,-0.3061057485,-0.4570760775,0.3673749953499999,-0.14907163025,-0.5537052482,0.006
10:06:19,0.0965476799999999,-0.2800059199999998,-0.4286385199999999,0.53338352,-0.19396896,0.00164036,33.6756008,-21.92497444,-27.2042354,-76.35764512,-0.4383755608,-0.329464052,-0.4773869800000001,0.3695270511999999,-0.146459248,-0.5509748724000001,0.006
10:06:19,0.1046351199999999,-0.3026746549999999,-0.4276189299999999,0.5328135549999999,-0.19085814,0.004937615,33.693855325,-21.926874085,-27.167087725,-76.538366955,-0.43269965845,-0.3528223555000001,-0.4976978825,0.3716791070499999,-0.14384686575,-0.5482444966000001,0.006
10:06:19,0.1127225599999999,-0.3253433899999998,-0.42659934,0.53224359,-0.18774732,0.00823487,33.71210985,-21.92877373,-27.12994005,-76.71908879,-0.4270237561,-0.3761806590000001,-0.5180087850000001,0.3738311628999999,-0.1412344835,-0.5455141208000001,0.006
10:06:19,0.1208099999999999,-0.3480121249999999,-0.42557975,0.5316736249999999,-0.1846365,0.011532125,33.730364375,-21.930673375,-27.092792375,-76.899810625,-0.42134785375,-0.3995389624999999,-0.5383196875,0.3759832187499999,-0.13862210125,-0.542783745,0.006
10:06:19,0.1288974399999999,-0.3706808599999998,-0.4245601599999999,0.53110366,-0.18152568,0.01482938,33.7486189,-21.93257302,-27.0556447,-77.08053246,-0.4156719514000001,-0.4228972659999999,-0.5586305900000001,0.3781352745999999,-0.136009719,-0.5400533692,0.006
10:06:19,0.1369848799999999,-0.3933495949999999,-0.42354057,0.530533695,-0.17841486,0.018126635,33.766873425,-21.934472665,-27.018497025,-77.261254295,-0.40999604905,-0.4462555694999999,-0.5789414925,0.3802873304499999,-0.13339733675,-0.5373229934,0.006
10:06:19,0.1450723199999999,-0.4160183299999997,-0.42252098,0.52996373,-0.17530404,0.02142389,33.78512795,-21.93637231,-26.98134935,-77.44197613,-0.4043201467,-0.4696138729999999,-0.5992523950000002,0.3824393862999999,-0.1307849545,-0.5345926176,0.006
10:06:19,0.1531597599999999,-0.4386870649999999,-0.42150139,0.529393765,-0.17219322,0.024721145,33.803382475,-21.938271955,-26.944201675,-77.622697965,-0.39864424435,-0.4929721764999999,-0.6195632975,0.3845914421499999,-0.12817257225,-0.5318622418000001,0.006
10:06:19,0.1612471999999999,-0.4613557999999997,-0.4204817999999999,0.5288238,-0.1690824,0.0280184,33.821637,-21.9401716,-26.907054,-77.8034198,-0.3929683420000001,-0.5163304799999999,-0.6398742000000002,0.3867434979999999,-0.12556019,-0.5291318660000001,0.006
10:06:19,0.1693346399999999,-0.4840245349999998,-0.4194622099999999,0.528253835,-0.16597158,0.031315655,33.839891525,-21.942071245,-26.869906325,-77.984141635,-0.38729243965,-0.5396887834999999,-0.6601851025000001,0.3888955538499999,-0.12294780775,-0.5264014902,0.006
10:06:19,0.1774220799999999,-0.5066932699999998,-0.41844262,0.5276838699999999,-0.16286076,0.03461291,33.85814605,-21.94397089,-26.83275865,-78.16486347,-0.3816165373,-0.563047087,-0.6804960050000002,0.3910476096999999,-0.1203354255,-0.5236711144,0.006
10:06:19,0.1855095199999999,-0.5293620049999999,-0.41742303,0.527113905,-0.1597499399999999,0.037910165,33.876400575,-21.945870535,-26.795610975,-78.345585305,-0.3759406349500001,-0.5864053905,-0.7008069075000001,0.3931996655499999,-0.11772304325,-0.5209407386,0.006
10:06:19,0.1935969599999999,-0.5520307399999997,-0.4164034399999999,0.5265439399999999,-0.15663912,0.04120742,33.8946551,-21.94777018,-26.7584633,-78.52630714,-0.3702647326,-0.609763694,-0.7211178100000002,0.3953517213999999,-0.115110661,-0.5182103628000001,0.006
10:06:19,0.2016843999999999,-0.5746994749999998,-0.41538385,0.525973975,-0.1535283,0.044504675,33.912909625,-21.949669825,-26.721315625,-78.707028975,-0.36458883025,-0.6331219975,-0.7414287125000001,0.3975037772499999,-0.11249827875,-0.515479987,0.006
10:06:19,0.20977184,-0.5973682099999997,-0.41436426,0.52540401,-0.15041748,0.04780193,33.93116415,-21.95156947,-26.68416795,-78.88775081,-0.3589129279,-0.656480301,-0.7617396150000002,0.3996558330999999,-0.1098858965,-0.5127496112000001,0.006
10:06:19,0.2178592799999999,-0.6200369449999998,-0.4133446699999999,0.524834045,-0.1473066599999999,0.051099185,33.949418675,-21.953469115,-26.647020275,-79.068472645,-0.3532370255500001,-0.6798386044999998,-0.7820505175000001,0.4018078889499999,-0.10727351425,-0.5100192354,0.006
10:06:19,0.22594672,-0.6427056799999997,-0.41232508,0.52426408,-0.14419584,0.05439644,33.9676732,-21.95536876,-26.6098726,-79.24919448,-0.3475611232,-0.703196908,-0.8023614200000002,0.4039599447999999,-0.104661132,-0.5072888596,0.006
10:06:19,0.2340341599999999,-0.6653744149999998,-0.41130549,0.523694115,-0.14108502,0.057693695,33.985927725,-21.957268405,-26.572724925,-79.429916315,-0.34188522085,-0.7265552114999998,-0.8226723225000001,0.4061120006499999,-0.10204874975,-0.5045584838,0.006
10:06:19,0.2421216,-0.6880431499999997,-0.4102859,0.52312415,-0.1379742,0.06099095,34.00418225,-21.95916805,-26.53557725,-79.61063815,-0.3362093185,-0.749913515,-0.8429832250000002,0.4082640564999999,-0.0994363675,-0.501828108,0.006
10:06:19,0.2502090399999999,-0.7107118849999996,-0.4092663099999999,0.522554185,-0.1348633799999999,0.064288205,34.022436775,-21.961067695,-26.498429575,-79.791359985,-0.3305334161500001,-0.7732718184999998,-0.8632941275000001,0.41041611235,-0.09682398525,-0.4990977322,0.006
10:06:19,0.25829648,-0.7333806199999999,-0.4082467199999999,0.52198422,-0.13175256,0.06758546,34.0406913,-21.96296734,-26.4612819,-79.97208182,-0.3248575138,-0.796630122,-0.8836050300000002,0.4125681682,-0.094211603,-0.4963673564,0.006
10:06:19,0.2663839199999999,-0.7560493549999998,-0.40722713,0.5214142549999999,-0.12864174,0.070882715,34.058945825,-21.964866985,-26.424134225,-80.152803655,-0.31918161145,-0.8199884254999998,-0.9039159325,0.41472022405,-0.09159922075,-0.4936369806,0.006
10:06:19,0.27447136,-0.7787180899999997,-0.40620754,0.52084429,-0.12553092,0.07417997,34.07720035,-21.96676663,-26.38698655,-80.33352549,-0.3135057091000001,-0.8433467290000001,-0.9242268350000002,0.4168722799,-0.0889868385,-0.4909066048,0.006
10:06:19,0.2825587999999999,-0.8013868249999996,-0.4051879499999999,0.5202743249999999,-0.1224200999999999,0.077477225,34.095454875,-21.968666275,-26.349838875,-80.514247325,-0.30782980675,-0.8667050324999999,-0.9445377375,0.41902433575,-0.08637445625,-0.488176229,0.006
10:06:19,0.2906462399999999,-0.8240555599999999,-0.40416836,0.51970436,-0.11930928,0.08077448,34.1137094,-21.97056592,-26.3126912,-80.69496916,-0.3021539044,-0.8900633360000001,-0.96484864,0.4211763916,-0.083762074,-0.4854458532,0.006
10:06:19,0.2987336799999999,-0.8467242949999998,-0.40314877,0.519134395,-0.11619846,0.084071735,34.131963925,-21.972465565,-26.275543525,-80.875690995,-0.2964780020500001,-0.9134216395,-0.9851595425000002,0.42332844745,-0.08114969175,-0.4827154774,0.006
10:06:19,0.3068211199999999,-0.8693930299999997,-0.40212918,0.51856443,-0.1130876399999999,0.08736899,34.15021845,-21.97436521,-26.23839585,-81.05641283,-0.2908020997,-0.936779943,-1.005470445,0.4254805033,-0.0785373095,-0.4799851016,0.006
10:06:19,0.3149085599999999,-0.892061765,-0.4011095899999999,0.517994465,-0.10997682,0.090666245,34.168472975,-21.976264855,-26.201248175,-81.237134665,-0.2851261973500001,-0.9601382465,-1.0257813475000002,0.42763255915,-0.07592492725,-0.4772547258,0.006
10:06:19,0.3229959999999999,-0.9147305,-0.4000899999999999,0.5174245,-0.106866,0.0939635,34.1867275,-21.9781645,-26.1641005,-81.4178565,-0.279450295,-0.98349655,-1.04609225,0.429784615,-0.073312545,-0.47452435,0.006
10:06:19,0.3310834399999999,-0.9373992349999998,-0.39907041,0.516854535,-0.10375518,0.097260755,34.204982025,-21.980064145,-26.126952825,-81.598578335,-0.27377439265,-1.0068548535,-1.0664031525,0.43193667085,-0.07070016275,-0.4717939742,0.006
10:06:19,0.3391708799999999,-0.9600679699999995,-0.3980508199999999,0.5162845699999999,-0.1006443599999999,0.10055801,34.22323655,-21.98196379,-26.08980515,-81.77930017,-0.2680984903000001,-1.0302131570000002,-1.0867140550000003,0.4340887267,-0.0680877805,-0.4690635984,0.006
10:06:19,0.3472583199999999,-0.982736705,-0.3970312299999999,0.515714605,-0.09753354,0.103855265,34.241491075,-21.983863435,-26.052657475,-81.960022005,-0.26242258795,-1.0535714605,-1.1070249575000002,0.43624078255,-0.06547539825,-0.4663332226,0.006
10:06:19,0.3553457599999999,-1.00540544,-0.39601164,0.5151446399999999,-0.09442272,0.10715252,34.2597456,-21.98576308,-26.0155098,-82.14074384,-0.2567466856,-1.0769297640000002,-1.12733586,0.4383928384,-0.062863016,-0.4636028468,0.006
10:06:19,0.3634331999999999,-1.0280741749999998,-0.39499205,0.514574675,-0.0913119,0.110449775,34.278000125,-21.987662725,-25.978362125,-82.321465675,-0.2510707832500001,-1.1002880675,-1.1476467625,0.44054489425,-0.06025063375,-0.460872471,0.006
10:06:19,0.3715206399999999,-1.0507429099999996,-0.3939724599999999,0.51400471,-0.0882010799999999,0.11374703,34.29625465,-21.98956237,-25.94121445,-82.50218751,-0.2453948809,-1.1236463710000002,-1.1679576650000003,0.4426969501,-0.0576382515,-0.4581420952,0.006
10:06:19,0.3796080799999999,-1.073411645,-0.39295287,0.513434745,-0.08509026,0.117044285,34.314509175,-21.991462015,-25.904066775,-82.682909345,-0.23971897855,-1.1470046745,-1.1882685675000002,0.44484900595,-0.05502586925,-0.4554117194,0.006
10:06:19,0.3876955199999999,-1.09608038,-0.39193328,0.51286478,-0.08197944,0.12034154,34.3327637,-21.99336166,-25.8669191,-82.86363118,-0.2340430762000001,-1.1703629779999998,-1.20857947,0.4470010618,-0.052413487,-0.4526813436,0.006
10:06:19,0.3957829599999999,-1.1187491149999995,-0.39091369,0.512294815,-0.07886862,0.123638795,34.351018225,-21.995261305,-25.829771425,-83.044353015,-0.22836717385,-1.1937212815,-1.2288903725,0.44915311765,-0.04980110475,-0.4499509678,0.006
10:06:19,0.4038703999999999,-1.1414178499999996,-0.3898940999999999,0.51172485,-0.0757577999999999,0.12693605,34.36927275,-21.99716095,-25.79262375,-83.22507485,-0.2226912715000001,-1.2170795849999998,-1.2492012750000003,0.4513051735,-0.0471887225,-0.447220592,0.006
10:06:19,0.4119578399999999,-1.164086585,-0.3888745099999999,0.511154885,-0.07264698,0.130233305,34.387527275,-21.999060595,-25.755476075,-83.405796685,-0.21701536915,-1.2404378885,-1.2695121775000002,0.45345722935,-0.04457634025,-0.4444902162,0.006
10:06:19,0.4200452799999999,-1.1867553199999998,-0.38785492,0.51058492,-0.06953616,0.13353056,34.4057818,-22.00096024,-25.7183284,-83.58651852,-0.2113394668,-1.2637961919999998,-1.28982308,0.4556092852,-0.041963958,-0.4417598404,0.006
10:06:19,0.4281327199999999,-1.2094240549999995,-0.38683533,0.5100149549999999,-0.06642534,0.136827815,34.424036325,-22.002859885,-25.681180725,-83.767240355,-0.2056635644500001,-1.2871544955,-1.3101339825,0.45776134105,-0.03935157575,-0.4390294646,0.006
10:06:19,0.4362201599999999,-1.2320927899999996,-0.3858157399999999,0.50944499,-0.0633145199999999,0.14012507,34.44229085,-22.00475953,-25.64403305,-83.94796219,-0.1999876621,-1.3105127989999998,-1.3304448850000004,0.4599133969,-0.0367391935,-0.4362990888,0.006
10:06:19,0.4443075999999999,-1.254761525,-0.38479615,0.508875025,-0.0602037,0.143422325,34.460545375,-22.006659175,-25.606885375,-84.128684025,-0.19431175975,-1.3338711025,-1.3507557875000002,0.46206545275,-0.03412681125,-0.433568713,0.006
10:06:19,0.4523950399999999,-1.2774302599999998,-0.38377656,0.50830506,-0.05709288,0.14671958,34.4787999,-22.00855882,-25.5697377,-84.30940586,-0.1886358574000001,-1.357229406,-1.37106669,0.4642175086,-0.031514429,-0.4308383372,0.006
10:06:19,0.4604824799999999,-1.3000989949999997,-0.38275697,0.507735095,-0.05398206,0.150016835,34.497054425,-22.010458465,-25.532590025,-84.490127695,-0.18295995505,-1.3805877095,-1.3913775925,0.4663695644499999,-0.02890204675,-0.4281079614,0.006
10:06:19,0.4685699199999999,-1.3227677299999996,-0.3817373799999999,0.50716513,-0.0508712399999999,0.15331409,34.51530895,-22.01235811,-25.49544235,-84.67084953,-0.1772840527,-1.403946013,-1.4116884950000004,0.4685216202999999,-0.0262896645,-0.4253775856,0.006
10:06:19,0.47665736,-1.345436465,-0.3807177899999999,0.506595165,-0.04776042,0.156611345,34.533563475,-22.014257755,-25.458294675,-84.851571365,-0.1716081503500001,-1.4273043165,-1.4319993975000005,0.4706736761499999,-0.02367728225,-0.4226472098,0.006
10:06:19,0.4847447999999999,-1.3681051999999998,-0.3796982,0.5060252,-0.0446496,0.1599086,34.551818,-22.0161574,-25.421147,-85.0322932,-0.165932248,-1.45066262,-1.4523103000000002,0.4728257319999999,-0.0210649,-0.419916834,0.006
10:06:19,0.49283224,-1.3907739349999997,-0.3786786099999999,0.505455235,-0.04153878,0.163205855,34.570072525,-22.018057045,-25.383999325,-85.213015035,-0.16025634565,-1.4740209235,-1.4726212025,0.4749777878499999,-0.01845251775,-0.4171864582,0.006
10:06:19,0.50091968,-1.4134426699999996,-0.3776590199999999,0.5048852699999999,-0.0384279599999999,0.16650311,34.588327050000004,-22.01995669,-25.34685165,-85.39373687,-0.1545804433000001,-1.497379227,-1.4929321050000004,0.4771298436999999,-0.0158401355,-0.4144560824,0.006
10:06:19,0.5090071199999999,-1.436111405,-0.37663943,0.504315305,-0.03531714,0.169800365,34.606581575,-22.021856335,-25.309703975,-85.574458705,-0.14890454095,-1.5207375305000002,-1.5132430075000003,0.4792818995499999,-0.01322775325,-0.4117257066,0.006
10:06:19,0.5170945599999999,-1.4587801399999998,-0.37561984,0.50374534,-0.03220632,0.17309762,34.6248361,-22.02375598,-25.2725563,-85.75518054,-0.1432286386000001,-1.544095834,-1.5335539100000002,0.4814339553999999,-0.010615371,-0.4089953308,0.006
10:06:19,0.5251819999999998,-1.4814488749999997,-0.3746002499999999,0.503175375,-0.0290954999999999,0.176394875,34.643090625,-22.025655625,-25.235408625,-85.935902375,-0.13755273625,-1.5674541375000002,-1.5538648125,0.4835860112499999,-0.00800298875,-0.406264955,0.006
10:06:19,0.53326944,-1.5041176099999995,-0.37358066,0.50260541,-0.0259846799999999,0.17969213,34.66134515,-22.02755527,-25.19826095,-86.11662421,-0.1318768339,-1.590812441,-1.5741757150000004,0.4857380670999999,-0.0053906065,-0.4035345792,0.006
10:06:19,0.5413568799999999,-1.526786345,-0.3725610699999999,0.502035445,-0.02287386,0.182989385,34.679599675,-22.029454915,-25.161113275,-86.297346045,-0.1262009315500001,-1.6141707445000002,-1.5944866175000003,0.4878901229499999,-0.00277822425,-0.4008042034,0.006
10:06:19,0.5494443199999999,-1.5494550799999998,-0.37154148,0.50146548,-0.01976304,0.18628664,34.6978542,-22.03135456,-25.1239656,-86.47806788,-0.1205250292,-1.637529048,-1.6147975200000002,0.4900421787999999,-0.000165842,-0.3980738276,0.006
10:06:19,0.5575317599999998,-1.5721238149999996,-0.37052189,0.500895515,-0.0166522199999999,0.189583895,34.716108725,-22.033254205,-25.086817925,-86.658789715,-0.11484912685,-1.6608873514999998,-1.6351084225,0.4921942346499999,0.0024465402499999,-0.3953434518,0.006
10:06:19,0.5656191999999998,-1.59479255,-0.3695022999999999,0.50032555,-0.0135414,0.19288115,34.73436325,-22.03515385,-25.04967025,-86.83951155,-0.1091732245000001,-1.684245655,-1.655419325,0.4943462904999999,0.0050589224999999,-0.392613076,0.006
10:06:19,0.5737066399999999,-1.617461285,-0.36848271,0.499755585,-0.01043058,0.196178405,34.752617775,-22.037053495,-25.012522575,-87.020233385,-0.10349732215,-1.7076039584999998,-1.6757302275000003,0.4964983463499999,0.0076713047499999,-0.3898827002,0.006
10:06:19,0.5817940799999999,-1.6401300199999995,-0.36746312,0.49918562,-0.00731976,0.19947566,34.7708723,-22.03895314,-24.9753749,-87.20095522,-0.0978214198,-1.730962262,-1.6960411300000002,0.4986504021999999,0.0102836869999999,-0.3871523244,0.006
10:06:19,0.5898815199999998,-1.6627987549999996,-0.3664435299999999,0.498615655,-0.0042089399999999,0.202772915,34.789126825,-22.040852785,-24.938227225,-87.381677055,-0.0921455174500001,-1.7543205654999998,-1.7163520325,0.5008024580499999,0.0128960692499999,-0.3844219486,0.006
10:06:19,0.5979689599999998,-1.68546749,-0.36542394,0.49804569,-0.00109812,0.20607017,34.80738135,-22.04275243,-24.90107955,-87.56239889,-0.0864696151,-1.777678869,-1.736662935,0.5029545139,0.0155084514999999,-0.3816915728,0.006
10:06:19,0.6060563999999999,-1.7081362249999998,-0.36440435,0.497475725,0.0020126999999999,0.209367425,34.825635875,-22.044652075,-24.863931875,-87.743120725,-0.0807937127500001,-1.8010371724999998,-1.7569738375000004,0.5051065697499999,0.0181208337499999,-0.378961197,0.006
10:06:19,0.6141438399999999,-1.7308049599999995,-0.36338476,0.49690576,0.0051235199999999,0.21266468,34.8438904,-22.04655172,-24.8267842,-87.92384256,-0.0751178104000001,-1.824395476,-1.7772847400000005,0.5072586256,0.020733216,-0.3762308212,0.006
10:06:19,0.6222312799999998,-1.7534736949999996,-0.36236517,0.496335795,0.00823434,0.215961935,34.862144925,-22.048451365,-24.789636525,-88.104564395,-0.06944190805,-1.8477537795,-1.7975956425,0.5094106814499999,0.0233455982499999,-0.3735004454,0.006
10:06:19,0.6303187199999998,-1.77614243,-0.3613455799999999,0.4957658299999999,0.0113451599999999,0.21925919,34.88039945,-22.05035101,-24.75248885,-88.28528623,-0.0637660057000001,-1.871112083,-1.817906545,0.5115627373,0.0259579804999999,-0.3707700696,0.006
10:06:19,0.63840616,-1.7988111649999998,-0.36032599,0.495195865,0.0144559799999999,0.222556445,34.898653975,-22.052250655,-24.715341175,-88.466008065,-0.05809010335,-1.8944703865,-1.8382174475000004,0.5137147931499999,0.0285703627499999,-0.3680396938,0.006
10:06:19,0.6464935999999999,-1.8214799,-0.3593063999999999,0.4946259,0.0175667999999999,0.2258537,34.9169085,-22.0541503,-24.6781935,-88.6467299,-0.052414201,-1.91782869,-1.8585283500000005,0.515866849,0.0311827449999999,-0.365309318,0.006
10:06:19,0.6545810399999998,-1.844148635,-0.3582868099999999,0.494055935,0.02067762,0.229150955,34.935163025,-22.056049945,-24.641045825,-88.827451735,-0.0467382986500001,-1.9411869935,-1.8788392525,0.5180189048499999,0.0337951272499999,-0.3625789422,0.006
10:06:19,0.6626684799999998,-1.86681737,-0.35726722,0.49348597,0.0237884399999999,0.23244821,34.95341755,-22.05794959,-24.60389815,-89.00817357,-0.0410623963,-1.964545297,-1.899150155,0.5201709607,0.0364075094999999,-0.3598485664,0.006
10:06:19,0.67075592,-1.889486105,-0.35624763,0.492916005,0.0268992599999999,0.235745465,34.971672075,-22.059849235,-24.566750475,-89.188895405,-0.03538649395,-1.9879036005,-1.9194610575000004,0.5223230165499999,0.0390198917499999,-0.3571181906,0.006
10:06:19,0.6788433599999999,-1.91215484,-0.3552280399999999,0.49234604,0.0300100799999999,0.23904272,34.989926600000004,-22.06174888,-24.5296028,-89.36961724,-0.0297105916000001,-2.0112619040000004,-1.9397719600000003,0.5244750724,0.0416322739999999,-0.3543878148,0.006
10:06:19,0.6869307999999998,-1.934823575,-0.35420845,0.491776075,0.0331209,0.242339975,35.008181125,-22.063648525,-24.492455125,-89.550339075,-0.02403468925,-2.0346202075,-1.9600828625,0.5266271282499999,0.0442446562499999,-0.351657439,0.006
10:06:19,0.6950182399999998,-1.95749231,-0.35318886,0.49120611,0.0362317199999999,0.24563723,35.02643565,-22.06554817,-24.45530745,-89.73106091,-0.0183587869,-2.057978511,-1.980393765,0.5287791841,0.0468570384999999,-0.3489270632,0.006
10:06:19,0.70310568,-1.980161045,-0.35216927,0.4906361449999999,0.0393425399999999,0.248934485,35.044690175,-22.067447815,-24.418159775,-89.911782745,-0.0126828845500001,-2.0813368145,-2.0007046675000004,0.5309312399499999,0.0494694207499999,-0.3461966874,0.006
10:06:19,0.7111931199999999,-2.00282978,-0.35114968,0.49006618,0.0424533599999999,0.25223174,35.0629447,-22.06934746,-24.3810121,-90.09250458,-0.0070069822,-2.1046951180000004,-2.0210155700000003,0.5330832958,0.0520818029999999,-0.3434663116,0.006
10:06:19,0.7192805599999998,-2.025498515,-0.3501300899999999,0.489496215,0.04556418,0.255528995,35.081199225,-22.071247105,-24.343864425,-90.273226415,-0.0013310798500001,-2.1280534215,-2.0413264725,0.5352353516499999,0.0546941852499999,-0.3407359358,0.006
10:06:19,0.7273679999999998,-2.04816725,-0.3491105,0.48892625,0.0486749999999999,0.25882625,35.09945375,-22.07314675,-24.30671675,-90.45394825,0.0043448224999999,-2.151411725,-2.061637375,0.5373874074999999,0.0573065674999999,-0.33800556,0.006
10:06:19,0.73545544,-2.0708359849999995,-0.34809091,0.488356285,0.0517858199999999,0.262123505,35.117708275,-22.075046395,-24.269569075,-90.634670085,0.0100207248499999,-2.1747700285,-2.0819482775000004,0.5395394633499999,0.0599189497499999,-0.3352751842,0.006
10:06:19,0.7435428799999999,-2.0935047199999994,-0.3470713199999999,0.48778632,0.05489664,0.26542076,35.1359628,-22.07694604,-24.2324214,-90.81539192,0.0156966271999998,-2.198128332,-2.1022591800000003,0.5416915191999999,0.0625313319999999,-0.3325448084,0.006
10:06:19,0.7516303199999999,-2.1161734549999998,-0.34605173,0.487216355,0.05800746,0.268718015,35.154217325,-22.078845685,-24.195273725,-90.996113755,0.0213725295499999,-2.2214866355,-2.1225700825,0.5438435750499999,0.0651437142499999,-0.3298144326,0.006
10:06:19,0.7597177599999998,-2.13884219,-0.34503214,0.48664639,0.0611182799999999,0.27201527,35.17247185,-22.08074533,-24.15812605,-91.17683559,0.0270484318999999,-2.244844939,-2.142880985,0.5459956308999999,0.0677560964999999,-0.3270840568,0.006
10:06:19,0.7678052,-2.161510925,-0.34401255,0.486076425,0.0642290999999999,0.275312525,35.190726375,-22.082644975,-24.120978375,-91.357557425,0.0327243342499998,-2.2682032425000003,-2.1631918875000005,0.5481476867499999,0.0703684787499999,-0.324353681,0.006
10:06:19,0.7758926399999999,-2.18417966,-0.34299296,0.48550646,0.06733992,0.27860978,35.2089809,-22.08454462,-24.0838307,-91.53827926,0.0384002365999999,-2.291561546,-2.1835027900000004,0.5502997425999999,0.0729808609999999,-0.3216233052,0.006
10:06:19,0.7839800799999999,-2.206848395,-0.3419733699999999,0.484936495,0.07045074,0.281907035,35.227235425,-22.086444265,-24.046683025,-91.719001095,0.0440761389499999,-2.3149198495,-2.2038136925000003,0.5524517984499999,0.0755932432499999,-0.3188929294,0.006
10:06:19,0.7920675199999998,-2.22951713,-0.34095378,0.48436653,0.0735615599999999,0.28520429,35.24548995,-22.08834391,-24.00953535,-91.89972293,0.0497520412999998,-2.338278153,-2.224124595,0.5546038542999999,0.0782056254999999,-0.3161625536,0.006
10:06:19,0.80015496,-2.2521858649999995,-0.3399341899999999,0.483796565,0.0766723799999999,0.288501545,35.263744475,-22.090243555,-23.972387675,-92.080444765,0.0554279436499999,-2.3616364565000003,-2.2444354975000005,0.5567559101499999,0.0808180077499999,-0.3134321778,0.006
10:06:19,0.8082423999999999,-2.2748545999999994,-0.3389145999999999,0.4832266,0.0797832,0.2917988,35.281999,-22.0921432,-23.93524,-92.2611666,0.0611038459999998,-2.38499476,-2.2647464000000004,0.5589079659999999,0.0834303899999999,-0.310701802,0.006
10:06:19,0.8163298399999999,-2.297523335,-0.33789501,0.482656635,0.08289402,0.295096055,35.300253525,-22.094042845,-23.898092325,-92.441888435,0.0667797483499998,-2.4083530635,-2.2850573025000003,0.5610600218499999,0.0860427722499999,-0.3079714262,0.006
10:06:19,0.8244172799999998,-2.32019207,-0.33687542,0.48208667,0.0860048399999999,0.29839331,35.31850805,-22.09594249,-23.86094465,-92.62261027,0.0724556506999999,-2.431711367,-2.305368205,0.5632120776999999,0.0886551544999999,-0.3052410504,0.006
10:06:19,0.8325047199999998,-2.342860805,-0.3358558299999999,0.481516705,0.0891156599999999,0.301690565,35.336762575,-22.097842135,-23.823796975,-92.803332105,0.0781315530499998,-2.4550696705000004,-2.3256791075,0.5653641335499999,0.0912675367499999,-0.3025106746,0.006
10:06:19,0.8405921599999999,-2.36552954,-0.33483624,0.48094674,0.09222648,0.30498782,35.3550171,-22.09974178,-23.7866493,-92.98405394,0.0838074553999999,-2.478427974,-2.3459900100000004,0.5675161893999999,0.0938799189999999,-0.2997802988,0.006
10:06:19,0.8486795999999999,-2.388198275,-0.33381665,0.480376775,0.0953372999999999,0.308285075,35.373271625,-22.101641425,-23.749501625,-93.164775775,0.0894833577499999,-2.5017862775,-2.3663009125000003,0.5696682452499999,0.0964923012499999,-0.297049923,0.006
10:06:19,0.8567670399999998,-2.41086701,-0.33279706,0.47980681,0.09844812,0.31158233,35.39152615,-22.10354107,-23.71235395,-93.34549761,0.0951592600999998,-2.525144581,-2.386611815,0.5718203010999999,0.0991046834999999,-0.2943195472,0.006
10:06:19,0.8648544799999998,-2.4335357449999995,-0.33177747,0.4792368449999999,0.1015589399999999,0.314879585,35.409780675,-22.105440715,-23.675206275,-93.526219445,0.1008351624499999,-2.5485028845000004,-2.4069227175,0.5739723569499999,0.1017170657499999,-0.2915891714,0.006
10:06:19,0.8729419199999999,-2.45620448,-0.3307578799999999,0.47866688,0.1046697599999999,0.31817684,35.428035200000004,-22.10734036,-23.6380586,-93.70694128,0.1065110647999999,-2.571861188,-2.4272336200000004,0.5761244127999999,0.1043294479999999,-0.2888587956,0.006
10:06:19,0.8810293599999999,-2.478873215,-0.32973829,0.478096915,0.10778058,0.321474095,35.446289725,-22.109240005,-23.600910925,-93.887663115,0.1121869671499998,-2.5952194915,-2.4475445225000003,0.5782764686499999,0.1069418302499999,-0.2861284198,0.006
10:06:19,0.8891167999999998,-2.50154195,-0.3287187,0.47752695,0.1108913999999999,0.32477135,35.46454425,-22.11113965,-23.56376325,-94.06838495,0.1178628694999999,-2.618577795,-2.467855425,0.5804285244999999,0.1095542124999999,-0.283398044,0.006
10:06:19,0.8972042399999998,-2.524210685,-0.3276991099999999,0.476956985,0.1140022199999999,0.328068605,35.482798775,-22.113039295,-23.526615575,-94.249106785,0.1235387718499999,-2.6419360985,-2.4881663275,0.5825805803499999,0.1121665947499999,-0.2806676682,0.006
10:06:19,0.90529168,-2.54687942,-0.32667952,0.47638702,0.11711304,0.33136586,35.5010533,-22.11493894,-23.4894679,-94.42982862,0.1292146741999998,-2.665294402,-2.5084772300000004,0.5847326361999999,0.1147789769999999,-0.2779372924,0.006
10:06:19,0.91337912,-2.569548155,-0.32565993,0.475817055,0.1202238599999999,0.334663115,35.519307825,-22.116838585,-23.452320225,-94.610550455,0.1348905765499999,-2.6886527055,-2.5287881325000003,0.5868846920499999,0.1173913592499999,-0.2752069166,0.006
10:06:19,0.9214665599999998,-2.59221689,-0.3246403399999999,0.47524709,0.12333468,0.33796037,35.53756235,-22.11873823,-23.41517255,-94.79127229,0.1405664788999998,-2.712011009,-2.549099035,0.5890367478999999,0.1200037414999999,-0.2724765408,0.006
10:06:19,0.9295539999999998,-2.6148856249999994,-0.32362075,0.474677125,0.1264455,0.341257625,35.555816875,-22.120637875,-23.378024875,-94.971994125,0.1462423812499999,-2.7353693125,-2.5694099375,0.5911888037499999,0.1226161237499999,-0.269746165,0.006
10:06:19,0.93764144,-2.6375543599999998,-0.32260116,0.4741071599999999,0.1295563199999999,0.34455488,35.5740714,-22.12253752,-23.3408772,-95.15271596,0.1519182835999999,-2.758727616,-2.5897208400000005,0.5933408595999999,0.1252285059999999,-0.2670157892,0.006
10:06:19,0.94572888,-2.660223095,-0.32158157,0.473537195,0.13266714,0.347852135,35.592325925,-22.124437165,-23.303729525,-95.333437795,0.1575941859499999,-2.7820859195,-2.6100317425000004,0.5954929154499999,0.1278408882499999,-0.2642854134,0.006
10:06:19,0.9538163199999998,-2.68289183,-0.32056198,0.47296723,0.1357779599999999,0.35114939,35.61058045,-22.12633681,-23.26658185,-95.51415963,0.1632700882999999,-2.8054442229999994,-2.6303426450000003,0.5976449712999999,0.1304532704999999,-0.2615550376,0.006
10:06:19,0.9619037599999998,-2.705560565,-0.3195423899999999,0.472397265,0.1388887799999999,0.354446645,35.628834975000004,-22.128236455,-23.229434175,-95.694881465,0.1689459906499998,-2.8288025265,-2.6506535475,0.5997970271499999,0.1330656527499999,-0.2588246618,0.006
10:06:19,0.9699912,-2.7282293,-0.3185228,0.4718273,0.1419996,0.3577439,35.6470895,-22.1301361,-23.1922865,-95.8756033,0.1746218929999999,-2.85216083,-2.6709644500000005,0.6019490829999999,0.1356780349999999,-0.256094286,0.006
10:06:19,0.97807864,-2.750898035,-0.31750321,0.471257335,0.1451104199999999,0.361041155,35.665344025,-22.132035745,-23.155138825,-96.056325135,0.1802977953499999,-2.8755191335,-2.6912753525000004,0.6041011388499999,0.1382904172499999,-0.2533639102,0.006
10:06:19,0.9861660799999998,-2.7735667699999995,-0.3164836199999999,0.47068737,0.14822124,0.36433841,35.68359855,-22.13393539,-23.11799115,-96.23704697,0.1859736976999998,-2.8988774369999994,-2.7115862550000003,0.6062531946999999,0.1409027994999999,-0.2506335344,0.006
10:06:19,0.9942535199999998,-2.7962355050000003,-0.31546403,0.470117405,0.15133206,0.367635665,35.701853075,-22.135835035,-23.080843475,-96.417768805,0.1916496000499999,-2.9222357405,-2.7318971575,0.6084052505499999,0.1435151817499999,-0.2479031586,0.006
10:06:19,1.00234096,-2.81890424,-0.31444444,0.46954744,0.1544428799999999,0.37093292,35.7201076,-22.13773468,-23.0436958,-96.59849064,0.1973255023999999,-2.945594044,-2.7522080600000005,0.6105573063999999,0.1461275639999999,-0.2451727828,0.006
10:06:19,1.0104284,-2.841572975,-0.31342485,0.468977475,0.1575537,0.374230175,35.738362125,-22.139634325,-23.006548125,-96.779212475,0.2030014047499998,-2.9689523475,-2.7725189625000004,0.61270936225,0.1487399462499999,-0.242442407,0.006
10:06:19,1.0185158399999998,-2.86424171,-0.31240526,0.46840751,0.1606645199999999,0.37752743,35.75661665,-22.14153397,-22.96940045,-96.95993431,0.2086773071,-2.9923106509999995,-2.7928298650000003,0.6148614181,0.1513523284999999,-0.2397120312,0.006
10:06:19,1.0266032799999998,-2.886910445,-0.3113856699999999,0.467837545,0.1637753399999999,0.380824685,35.774871175,-22.143433615,-22.932252775,-97.140656145,0.2143532094499999,-3.0156689545,-2.8131407675,0.61701347395,0.1539647107499999,-0.2369816554,0.006
10:06:19,1.03469072,-2.90957918,-0.31036608,0.46726758,0.16688616,0.38412194,35.7931257,-22.14533326,-22.8951051,-97.32137798,0.2200291117999998,-3.039027258,-2.8334516700000005,0.6191655298,0.1565770929999999,-0.2342512796,0.006
10:06:19,1.04277816,-2.932247915,-0.30934649,0.466697615,0.1699969799999999,0.387419195,35.811380225,-22.147232905,-22.857957425,-97.502099815,0.22570501415,-3.0623855615,-2.8537625725000004,0.62131758565,0.1591894752499999,-0.2315209038,0.006
10:06:19,1.0508655999999998,-2.9549166499999995,-0.3083268999999999,0.46612765,0.1731078,0.39071645,35.829634750000004,-22.14913255,-22.82080975,-97.68282165,0.2313809164999999,-3.0857438649999995,-2.8740734750000003,0.6234696415,0.1618018574999999,-0.228790528,0.006
10:06:19,1.0589530399999998,-2.9775853850000003,-0.30730731,0.465557685,0.17621862,0.394013705,35.847889275,-22.151032195,-22.783662075,-97.863543485,0.2370568188499998,-3.1091021685,-2.8943843775,0.62562169735,0.1644142397499999,-0.2260601522000001,0.006
10:06:19,1.0670404799999995,-3.00025412,-0.30628772,0.46498772,0.1793294399999999,0.39731096,35.8661438,-22.15293184,-22.7465144,-98.04426532,0.2427327212,-3.132460472,-2.91469528,0.6277737532,0.1670266219999999,-0.2233297764,0.006
10:06:19,1.07512792,-3.022922855,-0.3052681299999999,0.464417755,0.18244026,0.400608215,35.884398325,-22.154831485,-22.709366725,-98.224987155,0.2484086235499999,-3.1558187755,-2.9350061825000004,0.62992580905,0.16963900425,-0.2205994006,0.006
10:06:19,1.0832153599999998,-3.04559159,-0.30424854,0.46384779,0.1855510799999999,0.40390547,35.90265285,-22.15673113,-22.67221905,-98.40570899,0.2540845258999998,-3.179177079,-2.9553170850000003,0.6320778648999998,0.1722513864999999,-0.2178690248,0.006
10:06:19,1.0913027999999998,-3.068260325,-0.30322895,0.463277825,0.1886618999999999,0.407202725,35.920907375,-22.158630775,-22.635071375,-98.586430825,0.2597604282499998,-3.2025353825,-2.9756279875,0.63422992075,0.1748637687499999,-0.215138649,0.006
10:06:19,1.0993902399999995,-3.09092906,-0.30220936,0.46270786,0.19177272,0.41049998,35.9391619,-22.16053042,-22.5979237,-98.76715266,0.2654363305999999,-3.225893686,-2.99593889,0.6363819765999998,0.1774761509999999,-0.2124082732,0.006
10:06:19,1.10747768,-3.113597795,-0.30118977,0.462137895,0.1948835399999999,0.413797235,35.957416425,-22.162430065,-22.560776025,-98.947874495,0.2711122329499998,-3.2492519894999994,-3.0162497925,0.63853403245,0.1800885332499999,-0.2096778974000001,0.006
10:06:19,1.11556512,-3.1362665300000003,-0.3001701799999999,0.46156793,0.1979943599999999,0.41709449,35.97567095,-22.16432971,-22.52362835,-99.12859633,0.2767881352999998,-3.272610293,-3.0365606950000004,0.6406860882999998,0.1827009155,-0.2069475216,0.006
10:06:19,1.1236525599999998,-3.158935265,-0.29915059,0.460997965,0.20110518,0.420391745,35.993925475,-22.166229355,-22.486480675,-99.309318165,0.2824640376499999,-3.2959685965,-3.0568715975000007,0.64283814415,0.1853132977499999,-0.2042171458,0.006
10:06:20,1.13174,-3.181604,-0.298131,0.460428,0.204216,0.423689,36.01218,-22.168129,-22.449333,-99.49004,0.28813994,-3.3193269,-3.0771825,0.6449902,0.18792568,-0.20148677,0.006
10:06:20,1.131888705,-3.15942189,-0.2861608149999999,0.45890988,0.20543582,0.422783455,36.055045505,-22.12882415,-22.47022816,-99.424860725,0.2986550523,-3.2960925515,-3.06071036435,0.6433849591999999,0.1892399075,-0.1993250867,0.006
10:06:20,1.13203741,-3.1372397800000003,-0.27419063,0.45739176,0.20665564,0.4218779099999999,36.09791101,-22.0895193,-22.49112332,-99.35968145,0.3091701645999999,-3.272858203,-3.0442382287000003,0.6417797183999999,0.190554135,-0.1971634034,0.006
10:06:20,1.132186115,-3.11505767,-0.2622204449999999,0.45587364,0.20787546,0.4209723649999999,36.140776515,-22.05021445,-22.51201848,-99.294502175,0.3196852769,-3.2496238545,-3.0277660930500003,0.6401744776,0.1918683625,-0.1950017201,0.006
10:06:20,1.13233482,-3.09287556,-0.25025026,0.45435552,0.20909528,0.42006682,36.18364202,-22.0109096,-22.53291364,-99.2293229,0.3302003892,-3.2263895060000003,-3.0112939574,0.6385692368,0.19318259,-0.1928400368,0.006
10:06:20,1.132483525,-3.0706934500000003,-0.2382800749999999,0.4528374,0.2103151,0.419161275,36.226507525,-21.97160475,-22.5538088,-99.164143625,0.3407155014999999,-3.2031551575,-2.99482182175,0.636963996,0.1944968175,-0.1906783535,0.006
10:06:20,1.13263223,-3.04851134,-0.2263098899999999,0.45131928,0.21153492,0.41825573,36.26937303,-21.9322999,-22.57470396,-99.09896435,0.3512306138,-3.179920809,-2.9783496861,0.6353587552,0.195811045,-0.1885166702,0.006
10:06:20,1.132780935,-3.02632923,-0.214339705,0.44980116,0.21275474,0.417350185,36.312238535,-21.89299505,-22.59559912,-99.033785075,0.3617457261,-3.1566864605,-2.96187755045,0.6337535143999999,0.1971252725,-0.1863549869,0.006
10:06:20,1.13292964,-3.0041471200000003,-0.2023695199999999,0.44828304,0.21397456,0.41644464,36.35510404,-21.8536902,-22.61649428,-98.9686058,0.3722608384,-3.133452112,-2.9454054148,0.6321482735999999,0.1984395,-0.1841933036,0.006
10:06:20,1.133078345,-2.98196501,-0.190399335,0.44676492,0.21519438,0.4155390949999999,36.397969545,-21.81438535,-22.63738944,-98.903426525,0.3827759507,-3.1102177635,-2.92893327915,0.6305430328,0.1997537275,-0.1820316203,0.006
10:06:20,1.13322705,-2.9597829,-0.1784291499999999,0.4452468,0.2164142,0.4146335499999999,36.44083505,-21.7750805,-22.6582846,-98.83824725,0.393291063,-3.086983415,-2.9124611435000003,0.628937792,0.201067955,-0.179869937,0.006
10:06:20,1.133375755,-2.9376007900000003,-0.166458965,0.44372868,0.21763402,0.4137280049999999,36.483700555,-21.73577565,-22.67917976,-98.773067975,0.4038061752999999,-3.0637490665,-2.8959890078500004,0.6273325512,0.2023821825,-0.1777082537,0.006
10:06:20,1.13352446,-2.91541868,-0.15448878,0.44221056,0.21885384,0.41282246,36.52656606,-21.6964708,-22.70007492,-98.7078887,0.4143212876,-3.0405147180000003,-2.8795168722,0.6257273104,0.20369641,-0.1755465704,0.006
10:06:20,1.133673165,-2.89323657,-0.142518595,0.44069244,0.22007366,0.411916915,36.569431565,-21.65716595,-22.72097008,-98.642709425,0.4248363999,-3.0172803695,-2.86304473655,0.6241220695999999,0.2050106375,-0.1733848871,0.006
10:06:20,1.13382187,-2.87105446,-0.1305484099999999,0.43917432,0.22129348,0.41101137,36.61229707,-21.6178611,-22.74186524,-98.57753015,0.4353515122,-2.994046021,-2.8465726009,0.6225168287999999,0.206324865,-0.1712232038,0.006
10:06:20,1.133970575,-2.84887235,-0.1185782249999999,0.4376562,0.2225133,0.410105825,36.655162575,-21.57855625,-22.7627604,-98.512350875,0.4458666245,-2.9708116725,-2.83010046525,0.620911588,0.2076390925,-0.1690615205,0.006
10:06:20,1.13411928,-2.82669024,-0.1066080399999999,0.43613808,0.22373312,0.4092002799999999,36.69802808,-21.5392514,-22.78365556,-98.4471716,0.4563817368,-2.947577324,-2.8136283296,0.6193063472,0.20895332,-0.1668998372,0.006
10:06:20,1.134267985,-2.8045081300000003,-0.0946378549999999,0.43461996,0.22495294,0.4082947349999999,36.740893585,-21.49994655,-22.80455072,-98.381992325,0.4668968490999999,-2.9243429755,-2.7971561939500003,0.6177011064,0.2102675475,-0.1647381539,0.006
10:06:20,1.13441669,-2.78232602,-0.08266767,0.43310184,0.22617276,0.4073891899999999,36.78375909,-21.4606417,-22.82544588,-98.31681305,0.4774119614,-2.901108627,-2.7806840583000003,0.6160958656,0.211581775,-0.1625764706,0.006
10:06:20,1.134565395,-2.76014391,-0.0706974849999999,0.43158372,0.22739258,0.406483645,36.826624595,-21.42133685,-22.84634104,-98.251633775,0.4879270737,-2.8778742785,-2.7642119226500004,0.6144906247999999,0.2128960025,-0.1604147873,0.006
10:06:20,1.1347141,-2.7379618,-0.0587272999999999,0.4300656,0.2286124,0.4055781,36.8694901,-21.382032,-22.8672362,-98.1864545,0.498442186,-2.8546399300000003,-2.747739787,0.6128853839999999,0.21421023,-0.158253104,0.006
10:06:20,1.134862805,-2.71577969,-0.046757115,0.42854748,0.22983222,0.404672555,36.912355605,-21.34272715,-22.88813136,-98.121275225,0.5089572983,-2.8314055815000003,-2.73126765135,0.6112801431999999,0.2155244575,-0.1560914207,0.006
10:06:20,1.13501151,-2.69359758,-0.0347869299999999,0.42702936,0.23105204,0.40376701,36.95522111,-21.3034223,-22.90902652,-98.05609595,0.5194724105999999,-2.8081712330000004,-2.7147955157,0.6096749024,0.216838685,-0.1539297374,0.006
10:06:20,1.135160215,-2.67141547,-0.0228167449999999,0.42551124,0.23227186,0.402861465,36.998086615,-21.26411745,-22.92992168,-97.990916675,0.5299875229,-2.7849368845,-2.69832338005,0.6080696616,0.2181529125,-0.1517680541,0.006
10:06:20,1.13530892,-2.64923336,-0.01084656,0.42399312,0.23349168,0.4019559199999999,37.04095212,-21.2248126,-22.95081684,-97.9257374,0.5405026352,-2.761702536,-2.6818512444,0.6064644208,0.21946714,-0.1496063708,0.006
10:06:20,1.135457625,-2.62705125,0.001123625,0.422475,0.2347115,0.4010503749999999,37.083817625,-21.18550775,-22.971712,-97.860558125,0.5510177475,-2.7384681875,-2.6653791087500003,0.6048591799999999,0.2207813675,-0.1474446875,0.006
10:06:20,1.13560633,-2.60486914,0.0130938099999999,0.42095688,0.23593132,0.40014483,37.12668313,-21.1462029,-22.99260716,-97.79537885,0.5615328598,-2.715233839,-2.6489069731,0.6032539391999999,0.222095595,-0.1452830042,0.006
10:06:20,1.135755035,-2.58268703,0.025063995,0.41943876,0.23715114,0.399239285,37.169548635,-21.10689805,-23.01350232,-97.730199575,0.5720479721,-2.6919994905,-2.63243483745,0.6016486984,0.2234098225,-0.1431213209,0.006
10:06:20,1.13590374,-2.56050492,0.03703418,0.41792064,0.23837096,0.39833374,37.21241414,-21.0675932,-23.03439748,-97.6650203,0.5825630844,-2.6687651420000003,-2.6159627018,0.6000434576,0.22472405,-0.1409596376,0.006
10:06:20,1.136052445,-2.53832281,0.0490043649999999,0.41640252,0.23959078,0.397428195,37.255279645,-21.02828835,-23.05529264,-97.599841025,0.5930781967000001,-2.6455307935,-2.59949056615,0.5984382168,0.2260382775,-0.1387979543,0.006
10:06:20,1.13620115,-2.5161407,0.06097455,0.4148844,0.2408106,0.39652265,37.29814515,-20.9889835,-23.0761878,-97.53466175,0.6035933090000001,-2.622296445,-2.5830184305,0.596832976,0.227352505,-0.136636271,0.006
10:06:20,1.136349855,-2.49395859,0.0729447349999999,0.41336628,0.24203042,0.3956171049999999,37.341010655,-20.94967865,-23.09708296,-97.469482475,0.6141084213,-2.5990620965,-2.56654629485,0.5952277351999999,0.2286667325,-0.1344745876999999,0.006
10:06:20,1.13649856,-2.47177648,0.08491492,0.41184816,0.24325024,0.3947115599999999,37.38387616,-20.9103738,-23.11797812,-97.4043032,0.6246235336,-2.575827748,-2.5500741592,0.5936224943999999,0.22998096,-0.1323129044,0.006
10:06:20,1.136647265,-2.44959437,0.096885105,0.41033004,0.24447006,0.393806015,37.426741665,-20.87106895,-23.13887328,-97.339123925,0.6351386459,-2.5525933995,-2.5336020235500003,0.5920172536,0.2312951875,-0.1301512211,0.006
10:06:20,1.13679597,-2.42741226,0.10885529,0.40881192,0.24568988,0.39290047,37.46960717,-20.8317641,-23.15976844,-97.27394465,0.6456537581999999,-2.529359051,-2.5171298879000004,0.5904120128,0.232609415,-0.1279895378,0.006
10:06:20,1.136944675,-2.40523015,0.120825475,0.4072938,0.2469097,0.391994925,37.512472675,-20.79245925,-23.1806636,-97.208765375,0.6561688705,-2.5061247025,-2.50065775225,0.588806772,0.2339236425,-0.1258278545,0.006
10:06:20,1.13709338,-2.3830480400000003,0.1327956599999999,0.40577568,0.24812952,0.39108938,37.55533818,-20.7531544,-23.20155876,-97.1435861,0.6666839828,-2.482890354,-2.4841856166,0.5872015312,0.23523787,-0.1236661712,0.006
10:06:20,1.137242085,-2.36086593,0.144765845,0.40425756,0.24934934,0.390183835,37.598203685,-20.71384955,-23.22245392,-97.078406825,0.6771990951,-2.4596560055000003,-2.46771348095,0.5855962903999999,0.2365520975,-0.1215044879,0.006
10:06:20,1.13739079,-2.33868382,0.15673603,0.40273944,0.25056916,0.3892782899999999,37.64106919,-20.6745447,-23.24334908,-97.01322755,0.6877142074,-2.4364216570000004,-2.4512413453,0.5839910495999999,0.237866325,-0.1193428046,0.006
10:06:20,1.137539495,-2.31650171,0.168706215,0.40122132,0.25178898,0.3883727449999999,37.683934695,-20.63523985,-23.26424424,-96.948048275,0.6982293197,-2.4131873085000004,-2.43476920965,0.5823858088,0.2391805525,-0.1171811213,0.006
10:06:20,1.1376882,-2.2943196,0.1806764,0.3997032,0.2530088,0.3874672,37.7268002,-20.595935,-23.2851394,-96.882869,0.708744432,-2.38995296,-2.4182970740000003,0.580780568,0.24049478,-0.115019438,0.006
10:06:20,1.137836905,-2.27213749,0.1926465849999999,0.39818508,0.25422862,0.386561655,37.769665705,-20.55663015,-23.30603456,-96.817689725,0.7192595443,-2.3667186115,-2.40182493835,0.5791753272,0.2418090075,-0.1128577547,0.006
10:06:20,1.13798561,-2.2499553800000003,0.2046167699999999,0.39666696,0.25544844,0.38565611,37.81253121,-20.5173253,-23.32692972,-96.75251045,0.7297746566000001,-2.343484263,-2.3853528027,0.5775700864,0.243123235,-0.1106960714,0.006
10:06:20,1.138134315,-2.22777327,0.2165869549999999,0.39514884,0.25666826,0.384750565,37.855396715,-20.47802045,-23.34782488,-96.687331175,0.7402897689000001,-2.3202499145,-2.36888066705,0.5759648455999999,0.2444374625,-0.1085343881,0.006
10:06:20,1.13828302,-2.20559116,0.22855714,0.39363072,0.25788808,0.38384502,37.89826222,-20.4387156,-23.36872004,-96.6221519,0.7508048812,-2.297015566,-2.3524085314,0.5743596047999999,0.24575169,-0.1063727048,0.006
10:06:20,1.138431725,-2.18340905,0.240527325,0.3921126,0.2591079,0.382939475,37.941127725,-20.39941075,-23.3896152,-96.556972625,0.7613199935,-2.2737812175,-2.33593639575,0.5727543639999999,0.2470659175,-0.1042110215,0.006
10:06:20,1.13858043,-2.16122694,0.25249751,0.39059448,0.26032772,0.3820339299999999,37.98399323,-20.3601059,-23.41051036,-96.49179335,0.7718351058,-2.250546869,-2.3194642601,0.5711491232,0.248380145,-0.1020493381999999,0.006
10:06:20,1.138729135,-2.13904483,0.2644676949999999,0.38907636,0.26154754,0.3811283849999999,38.026858735000005,-20.32080105,-23.43140552,-96.426614075,0.7823502180999999,-2.2273125205,-2.30299212445,0.5695438824,0.2496943725,-0.0998876549,0.006
10:06:20,1.13887784,-2.1168627200000003,0.2764378799999999,0.38755824,0.26276736,0.3802228399999999,38.06972424,-20.2814962,-23.45230068,-96.3614348,0.7928653304,-2.204078172,-2.2865199888000003,0.5679386416,0.2510086,-0.0977259715999999,0.006
10:06:20,1.139026545,-2.09468061,0.288408065,0.38604012,0.26398718,0.379317295,38.112589745,-20.24219135,-23.47319584,-96.296255525,0.8033804427,-2.1808438235,-2.2700478531500003,0.5663334007999999,0.2523228275,-0.0955642883,0.006
10:06:20,1.13917525,-2.0724985,0.30037825,0.384522,0.265207,0.37841175,38.15545525,-20.2028865,-23.494091,-96.23107625,0.813895555,-2.157609475,-2.2535757175,0.5647281599999999,0.253637055,-0.093402605,0.006
10:06:20,1.139323955,-2.05031639,0.312348435,0.38300388,0.26642682,0.377506205,38.198320755,-20.16358165,-23.51498616,-96.165896975,0.8244106673,-2.1343751265,-2.23710358185,0.5631229192,0.2549512825,-0.0912409216999999,0.006
10:06:20,1.13947266,-2.02813428,0.3243186199999999,0.38148576,0.26764664,0.37660066,38.24118626,-20.1242768,-23.53588132,-96.1007177,0.8349257796,-2.111140778,-2.2206314462,0.5615176784,0.25626551,-0.0890792384,0.006
10:06:20,1.139621365,-2.00595217,0.3362888049999999,0.37996764,0.26886646,0.3756951149999999,38.284051765,-20.08497195,-23.55677648,-96.035538425,0.8454408919,-2.0879064295000003,-2.20415931055,0.5599124376,0.2575797375,-0.0869175550999999,0.006
10:06:20,1.13977007,-1.98377006,0.34825899,0.37844952,0.27008628,0.3747895699999999,38.32691727,-20.0456671,-23.57767164,-95.97035915,0.8559560042000001,-2.0646720810000003,-2.1876871749,0.5583071968,0.258893965,-0.0847558718,0.006
10:06:20,1.139918775,-1.96158795,0.360229175,0.3769314,0.2713061,0.3738840249999999,38.369782775,-20.00636225,-23.5985668,-95.905179875,0.8664711165,-2.0414377325000004,-2.1712150392500003,0.5567019559999999,0.2602081925,-0.0825941885,0.006
10:06:20,1.14006748,-1.93940584,0.37219936,0.37541328,0.27252592,0.37297848,38.41264828,-19.9670574,-23.61946196,-95.8400006,0.8769862288,-2.0182033840000004,-2.1547429036,0.5550967151999999,0.26152242,-0.0804325051999999,0.006
10:06:20,1.140216185,-1.91722373,0.3841695449999999,0.37389516,0.27374574,0.372072935,38.455513785,-19.92775255,-23.64035712,-95.774821325,0.8875013411,-1.9949690355000005,-2.13827076795,0.5534914744,0.2628366475,-0.0782708219,0.006
10:06:20,1.14036489,-1.89504162,0.3961397299999999,0.37237704,0.27496556,0.37116739,38.49837929,-19.8884477,-23.66125228,-95.70964205,0.8980164534,-1.971734687,-2.1217986323,0.5518862336,0.264150875,-0.0761091385999999,0.006
10:06:20,1.140513595,-1.87285951,0.408109915,0.37085892,0.27618538,0.370261845,38.541244795,-19.84914285,-23.68214744,-95.644462775,0.9085315657,-1.9485003385,-2.10532649665,0.5502809928,0.2654651025,-0.0739474552999999,0.006
10:06:20,1.1406623,-1.8506774,0.4200801,0.3693408,0.2774052,0.3693562999999999,38.5841103,-19.809838,-23.7030426,-95.5792835,0.919046678,-1.92526599,-2.088854361,0.548675752,0.26677933,-0.071785772,0.006
10:06:20,1.140811005,-1.82849529,0.432050285,0.36782268,0.27862502,0.3684507549999999,38.626975805,-19.77053315,-23.72393776,-95.514104225,0.9295617903,-1.9020316415000005,-2.07238222535,0.5470705111999999,0.2680935574999999,-0.0696240887,0.006
10:06:20,1.14095971,-1.80631318,0.4440204699999999,0.36630456,0.27984484,0.3675452099999999,38.66984131,-19.7312283,-23.74483292,-95.44892495,0.9400769026,-1.878797293,-2.0559100897,0.5454652703999999,0.269407785,-0.0674624053999999,0.006
10:06:20,1.141108415,-1.78413107,0.4559906549999999,0.36478644,0.28106466,0.366639665,38.712706815,-19.69192345,-23.76572808,-95.383745675,0.9505920149,-1.8555629445,-2.0394379540500003,0.5438600296,0.2707220125,-0.0653007220999999,0.006
10:06:20,1.14125712,-1.76194896,0.46796084,0.36326832,0.28228448,0.36573412,38.75557232,-19.6526186,-23.78662324,-95.3185664,0.9611071272,-1.832328596,-2.0229658184000003,0.5422547888,0.27203624,-0.0631390387999999,0.006
10:06:20,1.141405825,-1.73976685,0.479931025,0.3617502,0.2835043,0.364828575,38.798437825,-19.61331375,-23.8075184,-95.253387125,0.9716222395,-1.8090942475000005,-2.0064936827500004,0.540649548,0.2733504675,-0.0609773555,0.006
10:06:20,1.14155453,-1.71758474,0.49190121,0.36023208,0.28472412,0.36392303,38.84130333,-19.5740089,-23.82841356,-95.18820785,0.9821373518,-1.7858598990000003,-1.9900215471,0.5390443072,0.274664695,-0.0588156722,0.006
10:06:20,1.141703235,-1.69540263,0.503871395,0.35871396,0.28594394,0.363017485,38.884168835,-19.53470405,-23.84930872,-95.123028575,0.9926524641,-1.7626255505,-1.97354941145,0.5374390663999999,0.2759789225,-0.0566539888999999,0.006
10:06:20,1.14185194,-1.67322052,0.51584158,0.35719584,0.28716376,0.3621119399999999,38.92703434,-19.4953992,-23.87020388,-95.0578493,1.0031675764,-1.7393912020000002,-1.9570772758,0.5358338255999999,0.27729315,-0.0544923055999999,0.006
10:06:20,1.142000645,-1.65103841,0.527811765,0.35567772,0.28838358,0.3612063949999999,38.969899845,-19.45609435,-23.89109904,-94.992670025,1.0136826887,-1.7161568535000002,-1.94060514015,0.5342285848,0.2786073775,-0.0523306222999999,0.006
10:06:20,1.14214935,-1.6288563,0.5397819500000001,0.3541596,0.2896034,0.36030085,39.01276535,-19.4167895,-23.9119942,-94.92749075,1.024197801,-1.6929225050000003,-1.9241330045,0.532623344,0.279921605,-0.0501689389999999,0.006
10:06:20,1.142298055,-1.60667419,0.5517521350000001,0.35264148,0.29082322,0.359395305,39.055630855,-19.37748465,-23.93288936,-94.862311475,1.0347129133,-1.6696881565,-1.90766086885,0.5310181032,0.2812358325,-0.0480072557,0.006
10:06:20,1.14244676,-1.58449208,0.5637223199999999,0.35112336,0.29204304,0.35848976,39.09849636,-19.3381798,-23.95378452,-94.7971322,1.0452280256000002,-1.6464538080000002,-1.8911887332,0.5294128624,0.28255006,-0.0458455723999999,0.006
10:06:20,1.142595465,-1.56230997,0.5756925049999999,0.34960524,0.29326286,0.357584215,39.141361865,-19.29887495,-23.97467968,-94.731952925,1.0557431379,-1.6232194595000002,-1.87471659755,0.5278076215999999,0.2838642875,-0.0436838890999999,0.006
10:06:20,1.14274417,-1.54012786,0.5876626899999999,0.3480871199999999,0.29448268,0.35667867,39.18422737,-19.2595701,-23.99557484,-94.66677365,1.0662582502,-1.5999851110000003,-1.8582444619,0.5262023807999999,0.285178515,-0.0415222057999999,0.006
10:06:20,1.142892875,-1.51794575,0.599632875,0.346569,0.2957025,0.3557731249999999,39.227092875,-19.22026525,-24.01647,-94.601594375,1.0767733625,-1.5767507625,-1.84177232625,0.52459714,0.2864927425,-0.0393605224999999,0.006
10:06:20,1.14304158,-1.49576364,0.61160306,0.34505088,0.29692232,0.3548675799999999,39.26995838,-19.1809604,-24.03736516,-94.5364151,1.0872884748,-1.5535164140000002,-1.8253001906,0.5229918992,0.28780697,-0.0371988392,0.006
10:06:20,1.143190285,-1.47358153,0.623573245,0.34353276,0.29814214,0.353962035,39.312823885,-19.14165555,-24.05826032,-94.471235825,1.0978035871,-1.5302820655000002,-1.80882805495,0.5213866584,0.2891211975,-0.0350371558999999,0.006
10:06:20,1.14333899,-1.45139942,0.63554343,0.34201464,0.29936196,0.35305649,39.35568939,-19.1023507,-24.07915548,-94.40605655,1.1083186994,-1.5070477170000005,-1.7923559193,0.5197814176,0.2904354249999999,-0.0328754725999999,0.006
10:06:20,1.143487695,-1.42921731,0.647513615,0.34049652,0.30058178,0.352150945,39.398554895,-19.06304585,-24.10005064,-94.340877275,1.1188338117,-1.4838133685,-1.77588378365,0.5181761767999999,0.2917496525,-0.0307137892999999,0.006
10:06:20,1.1436364,-1.4070352,0.6594838000000001,0.3389784,0.3018016,0.3512454,39.4414204,-19.023741,-24.1209458,-94.275698,1.129348924,-1.4605790200000002,-1.7594116480000002,0.5165709359999999,0.29306388,-0.0285521059999999,0.006
10:06:20,1.143785105,-1.38485309,0.6714539850000001,0.33746028,0.30302142,0.350339855,39.484285905,-18.98443615,-24.14184096,-94.210518725,1.1398640363,-1.4373446715000002,-1.74293951235,0.5149656951999999,0.2943781075,-0.0263904227,0.006
10:06:20,1.14393381,-1.36267098,0.6834241699999999,0.33594216,0.30424124,0.3494343099999999,39.52715141,-18.9451313,-24.16273612,-94.14533945,1.1503791486,-1.4141103230000005,-1.7264673767,0.5133604544,0.295692335,-0.0242287393999999,0.006
10:06:20,1.144082515,-1.34048887,0.6953943549999999,0.33442404,0.30546106,0.3485287649999999,39.570016915,-18.90582645,-24.18363128,-94.080160175,1.1608942609,-1.3908759745000003,-1.70999524105,0.5117552136,0.2970065625,-0.0220670560999999,0.006
10:06:20,1.14423122,-1.31830676,0.7073645399999999,0.3329059199999999,0.30668088,0.34762322,39.61288242,-18.8665216,-24.20452644,-94.0149809,1.1714093732,-1.3676416260000002,-1.6935231054000002,0.5101499728,0.29832079,-0.0199053727999999,0.006
10:06:20,1.144379925,-1.29612465,0.719334725,0.3313878,0.3079007,0.3467176749999999,39.655747925,-18.82721675,-24.2254216,-93.949801625,1.1819244855000002,-1.3444072775000002,-1.67705096975,0.5085447319999999,0.2996350175,-0.0177436894999999,0.006
