Timestamp,linacce_x,linacce_y,linacce_z,gyro_x,gyro_y,gyro_z,X-magnetometer,Y-magnetometer,Z-magnetometer,Yaw, worldXAccel,worldYAccel,worldZAccel,worldXgyro,worldYgyro,worldZgyro,Distance
10:23:41,-0.037572,-0.996231,-0.953043,0.417835,0.243946,-0.193515,25.278017,-21.285004,-33.598221,-75.424095,-0.69674194,-1.0139141,-0.85518336,0.17862748,0.23111106,-0.14778382,0.007
10:23:41,-0.043674685,-0.982498785,-0.95081291,0.414031705,0.241144135,-0.193776015,25.283731035,-21.263313935,-33.60225939,-75.26933527499999,-0.7006938873,-1.000787535,-0.8433240506999999,0.1759663586,0.2283688082,-0.1470516966865,0.007
10:23:41,-0.04977737,-0.96876657,-0.94858282,0.41022841,0.23834227,-0.19403703,25.28944507,-21.24162387,-33.606297780000006,-75.11457555,-0.7046458346,-0.98766097,-0.8314647413999999,0.1733052372,0.2256265564,-0.146319573373,0.007
10:23:41,-0.055880055,-0.955034355,-0.94635273,0.406425115,0.235540405,-0.194298045,25.295159105,-21.219933805,-33.610336170000004,-74.95981582499999,-0.7085977819,-0.974534405,-0.8196054320999999,0.1706441158,0.2228843046,-0.1455874500595,0.007
10:23:41,-0.06198274,-0.94130214,-0.94412264,0.40262182,0.23273854,-0.19455906,25.30087314,-21.19824374,-33.61437456,-74.80505609999999,-0.7125497292,-0.96140784,-0.8077461227999999,0.1679829944,0.2201420528,-0.144855326746,0.007
10:23:41,-0.068085425,-0.927569925,-0.94189255,0.398818525,0.229936675,-0.1948200749999999,25.306587175,-21.176553675,-33.61841295,-74.650296375,-0.7165016765,-0.948281275,-0.7958868134999999,0.165321873,0.217399801,-0.1441232034325,0.007
10:23:41,-0.07418811,-0.91383771,-0.93966246,0.39501523,0.22713481,-0.1950810899999999,25.31230121,-21.15486361,-33.622451340000005,-74.49553664999999,-0.7204536238,-0.93515471,-0.7840275042,0.1626607516,0.2146575492,-0.143391080119,0.007
10:23:41,-0.080290795,-0.900105495,-0.93743237,0.391211935,0.224332945,-0.195342105,25.318015245,-21.133173545,-33.62648973,-74.340776925,-0.7244055711,-0.922028145,-0.7721681948999999,0.1599996302,0.2119152974,-0.1426589568055,0.007
10:23:41,-0.08639348,-0.8863732799999999,-0.93520228,0.38740864,0.22153108,-0.19560312,25.32372928,-21.11148348,-33.63052812,-74.1860172,-0.7283575184,-0.90890158,-0.7603088856,0.1573385088,0.2091730456,-0.141926833492,0.007
10:23:41,-0.0924961649999999,-0.8726410649999999,-0.93297219,0.383605345,0.218729215,-0.195864135,25.329443315,-21.089793415,-33.63456651,-74.03125747499999,-0.7323094657,-0.895775015,-0.7484495763,0.1546773874,0.2064307938,-0.1411947101785,0.007
10:23:41,-0.09859885,-0.85890885,-0.9307421,0.37980205,0.21592735,-0.19612515,25.33515735,-21.06810335,-33.638604900000004,-73.87649775,-0.736261413,-0.88264845,-0.736590267,0.152016266,0.203688542,-0.140462586865,0.007
10:23:41,-0.104701535,-0.845176635,-0.92851201,0.375998755,0.213125485,-0.196386165,25.340871385,-21.046413285,-33.64264329,-73.721738025,-0.7402133603,-0.869521885,-0.7247309577,0.1493551446,0.2009462902,-0.1397304635515,0.007
10:23:41,-0.11080422,-0.83144442,-0.92628192,0.37219546,0.21032362,-0.19664718,25.34658542,-21.02472322,-33.64668168,-73.56697829999999,-0.7441653076,-0.8563953200000001,-0.7128716484,0.1466940232,0.1982040384,-0.138998340238,0.007
10:23:41,-0.116906905,-0.817712205,-0.92405183,0.368392165,0.207521755,-0.1969081949999999,25.352299455,-21.003033155,-33.650720070000006,-73.412218575,-0.7481172549,-0.843268755,-0.7010123390999999,0.1440329018,0.1954617866,-0.1382662169245,0.007
10:23:41,-0.12300959,-0.80397999,-0.92182174,0.36458887,0.20471989,-0.1971692099999999,25.35801349,-20.98134309,-33.654758460000004,-73.25745884999999,-0.7520692022,-0.83014219,-0.6891530297999999,0.1413717804,0.1927195348,-0.137534093611,0.007
10:23:41,-0.129112275,-0.790247775,-0.91959165,0.360785575,0.201918025,-0.197430225,25.363727525,-20.959653025,-33.65879685,-73.102699125,-0.7560211495,-0.817015625,-0.6772937204999999,0.138710659,0.189977283,-0.1368019702975,0.007
10:23:41,-0.13521496,-0.77651556,-0.91736156,0.35698228,0.19911616,-0.19769124,25.36944156,-20.93796296,-33.66283524,-72.9479394,-0.7599730968,-0.80388906,-0.6654344111999999,0.1360495376,0.1872350312,-0.136069846984,0.007
10:23:41,-0.141317645,-0.762783345,-0.91513147,0.353178985,0.196314295,-0.197952255,25.375155595,-20.916272895,-33.666873630000005,-72.79317967499999,-0.7639250441,-0.7907624950000001,-0.6535751018999999,0.1333884162,0.1844927794,-0.1353377236705,0.007
10:23:41,-0.14742033,-0.74905113,-0.91290138,0.34937569,0.1935124299999999,-0.19821327,25.38086963,-20.89458283,-33.67091202,-72.63841995,-0.7678769914,-0.77763593,-0.6417157925999999,0.1307272948,0.1817505276,-0.134605600357,0.007
10:23:41,-0.153523015,-0.7353189149999999,-0.91067129,0.345572395,0.190710565,-0.198474285,25.386583665,-20.872892765,-33.67495041,-72.483660225,-0.7718289387,-0.764509365,-0.6298564833,0.1280661734,0.1790082758,-0.1338734770435,0.007
10:23:41,-0.1596257,-0.7215867,-0.9084412,0.3417691,0.1879086999999999,-0.1987353,25.3922977,-20.8512027,-33.6789888,-72.32890049999999,-0.775780886,-0.7513828,-0.6179971739999999,0.125405052,0.176266024,-0.13314135373,0.007
10:23:41,-0.165728385,-0.7078544849999999,-0.90621111,0.337965805,0.185106835,-0.1989963149999999,25.398011735,-20.829512635,-33.683027190000004,-72.174140775,-0.7797328333,-0.7382562349999999,-0.6061378647,0.1227439306,0.1735237722,-0.1324092304165,0.007
10:23:41,-0.17183107,-0.69412227,-0.90398102,0.33416251,0.1823049699999999,-0.1992573299999999,25.40372577,-20.80782257,-33.68706558,-72.01938104999999,-0.7836847806,-0.7251296700000001,-0.5942785553999999,0.1200828092,0.1707815204,-0.131677107103,0.007
10:23:41,-0.177933755,-0.6803900549999999,-0.90175093,0.330359215,0.179503105,-0.1995183449999999,25.409439805,-20.786132505,-33.69110397,-71.864621325,-0.7876367279,-0.712003105,-0.5824192461,0.1174216878,0.1680392686,-0.1309449837895,0.007
10:23:41,-0.18403644,-0.66665784,-0.89952084,0.32655592,0.1767012399999999,-0.19977936,25.41515384,-20.76444244,-33.69514236,-71.7098616,-0.7915886752,-0.69887654,-0.5705599368,0.1147605664,0.1652970168,-0.130212860476,0.007
10:23:41,-0.190139125,-0.652925625,-0.89729075,0.322752625,0.173899375,-0.200040375,25.420867875,-20.742752375,-33.699180750000004,-71.55510187499999,-0.7955406225,-0.685749975,-0.5587006274999999,0.112099445,0.162554765,-0.1294807371625,0.007
10:23:41,-0.19624181,-0.63919341,-0.89506066,0.31894933,0.17109751,-0.20030139,25.42658191,-20.72106231,-33.70321914,-71.40034215,-0.7994925697999999,-0.6726234099999999,-0.5468413181999999,0.1094383236,0.1598125132,-0.128748613849,0.007
10:23:41,-0.2023444949999999,-0.625461195,-0.89283057,0.315146035,0.168295645,-0.200562405,25.432295945,-20.699372245,-33.70725753,-71.245582425,-0.8034445171,-0.659496845,-0.5349820088999999,0.1067772022,0.1570702614,-0.1280164905355,0.007
10:23:41,-0.20844718,-0.61172898,-0.89060048,0.31134274,0.1654937799999999,-0.20082342,25.43800998,-20.67768218,-33.711295920000005,-71.09082269999999,-0.8073964644,-0.64637028,-0.5231226995999999,0.1041160808,0.1543280096,-0.127284367222,0.007
10:23:41,-0.214549865,-0.597996765,-0.88837039,0.307539445,0.162691915,-0.201084435,25.443724015,-20.655992115,-33.71533431,-70.936062975,-0.8113484117,-0.633243715,-0.5112633902999999,0.1014549594,0.1515857578,-0.1265522439085,0.007
10:23:41,-0.22065255,-0.5842645499999999,-0.8861403,0.30373615,0.15989005,-0.2013454499999999,25.44943805,-20.63430205,-33.7193727,-70.78130325,-0.815300359,-0.62011715,-0.4994040809999999,0.098793838,0.148843506,-0.125820120595,0.007
10:23:41,-0.226755235,-0.570532335,-0.88391021,0.299932855,0.157088185,-0.2016064649999999,25.455152085,-20.612611985,-33.72341109,-70.62654352499999,-0.8192523063,-0.6069905849999999,-0.4875447716999999,0.0961327166,0.1461012542,-0.1250879972815,0.007
10:23:41,-0.23285792,-0.5568001199999999,-0.88168012,0.29612956,0.1542863199999999,-0.20186748,25.46086612,-20.59092192,-33.727449480000004,-70.4717838,-0.8232042535999999,-0.59386402,-0.4756854623999999,0.0934715952,0.1433590024,-0.124355873968,0.007
10:23:41,-0.238960605,-0.543067905,-0.87945003,0.292326265,0.151484455,-0.202128495,25.466580155,-20.569231855,-33.73148787,-70.31702407499999,-0.8271562009,-0.580737455,-0.4638261530999999,0.0908104738,0.1406167506,-0.1236237506545,0.007
10:23:41,-0.24506329,-0.5293356899999999,-0.87721994,0.28852297,0.14868259,-0.20238951,25.47229419,-20.54754179,-33.73552626,-70.16226435,-0.8311081482,-0.56761089,-0.4519668437999999,0.0881493524,0.1378744988,-0.122891627341,0.007
10:23:41,-0.251165975,-0.515603475,-0.87498985,0.284719675,0.145880725,-0.202650525,25.478008225,-20.525851725,-33.73956465,-70.007504625,-0.8350600955,-0.554484325,-0.4401075344999999,0.085488231,0.135132247,-0.1221595040275,0.007
10:23:41,-0.25726866,-0.5018712599999999,-0.87275976,0.28091638,0.1430788599999999,-0.20291154,25.48372226,-20.50416166,-33.74360304,-69.85274489999999,-0.8390120428,-0.5413577599999999,-0.4282482251999999,0.0828271096,0.1323899952,-0.121427380714,0.007
10:23:41,-0.263371345,-0.4881390449999999,-0.8705296699999999,0.277113085,0.140276995,-0.203172555,25.489436295,-20.482471595,-33.74764143,-69.697985175,-0.8429639901,-0.528231195,-0.4163889158999999,0.0801659882,0.1296477434,-0.1206952574005,0.007
10:23:41,-0.26947403,-0.4744068299999999,-0.86829958,0.27330979,0.13747513,-0.20343357,25.49515033,-20.46078153,-33.75167982,-69.54322545,-0.8469159373999999,-0.51510463,-0.4045296065999999,0.0775048668,0.1269054916,-0.119963134087,0.007
10:23:41,-0.275576715,-0.4606746149999999,-0.86606949,0.269506495,0.134673265,-0.2036945849999999,25.500864365,-20.439091465,-33.755718210000005,-69.38846572499999,-0.8508678847,-0.501978065,-0.3926702972999999,0.0748437454,0.1241632398,-0.1192310107735,0.007
10:23:41,-0.2816794,-0.4469423999999999,-0.8638393999999999,0.2657032,0.1318713999999999,-0.2039556,25.5065784,-20.4174014,-33.7597566,-69.233706,-0.854819832,-0.4888515,-0.3808109879999999,0.072182624,0.121420988,-0.11849888746,0.007
10:23:41,-0.287782085,-0.4332101849999999,-0.86160931,0.261899905,0.1290695349999999,-0.204216615,25.512292435,-20.395711335,-33.76379499,-69.07894627499999,-0.8587717793,-0.475724935,-0.3689516786999999,0.0695215026,0.1186787362,-0.1177667641465,0.007
10:23:41,-0.29388477,-0.41947797,-0.85937922,0.25809661,0.12626767,-0.20447763,25.51800647,-20.37402127,-33.76783338,-68.92418655,-0.8627237266,-0.4625983699999999,-0.3570923693999999,0.0668603812,0.1159364844,-0.117034640833,0.007
10:23:41,-0.299987455,-0.405745755,-0.8571491299999999,0.254293315,0.1234658049999999,-0.204738645,25.523720505,-20.352331205,-33.771871770000004,-68.769426825,-0.8666756739,-0.4494718049999999,-0.3452330600999999,0.0641992598,0.1131942326,-0.1163025175195,0.007
10:23:41,-0.30609014,-0.39201354,-0.85491904,0.25049002,0.1206639399999999,-0.20499966,25.52943454,-20.33064114,-33.77591016,-68.61466709999999,-0.8706276211999999,-0.4363452399999999,-0.3333737507999998,0.0615381384,0.1104519808,-0.115570394206,0.007
10:23:41,-0.312192825,-0.3782813249999999,-0.85268895,0.246686725,0.1178620749999999,-0.205260675,25.535148575,-20.308951075,-33.77994855,-68.459907375,-0.8745795685,-0.423218675,-0.3215144414999999,0.058877017,0.107709729,-0.1148382708925,0.007
10:23:41,-0.31829551,-0.3645491099999999,-0.8504588599999999,0.24288343,0.11506021,-0.2055216899999999,25.54086261,-20.28726101,-33.78398694,-68.30514765,-0.8785315158,-0.41009211,-0.3096551321999999,0.0562158956,0.1049674771999999,-0.114106147579,0.007
10:23:41,-0.324398195,-0.3508168949999999,-0.84822877,0.239080135,0.1122583449999999,-0.2057827049999999,25.546576645,-20.265570945,-33.78802533,-68.15038792499999,-0.8824834631,-0.3969655449999999,-0.2977958228999999,0.0535547742,0.1022252254,-0.1133740242655,0.007
10:23:41,-0.33050088,-0.3370846799999999,-0.84599868,0.23527684,0.10945648,-0.2060437199999999,25.55229068,-20.24388088,-33.79206372,-67.9956282,-0.8864354104,-0.3838389799999999,-0.2859365135999999,0.0508936528,0.0994829736,-0.112641900952,0.007
10:23:41,-0.336603565,-0.3233524649999999,-0.8437685899999999,0.231473545,0.1066546149999999,-0.206304735,25.558004715,-20.222190815,-33.79610211,-67.840868475,-0.8903873577,-0.3707124149999999,-0.2740772042999999,0.0482325314,0.0967407218,-0.1119097776385,0.007
10:23:41,-0.34270625,-0.3096202499999999,-0.8415385,0.22767025,0.10385275,-0.20656575,25.56371875,-20.20050075,-33.8001405,-67.68610874999999,-0.8943393049999999,-0.35758585,-0.2622178949999999,0.04557141,0.09399847,-0.111177654325,0.007
10:23:41,-0.348808935,-0.2958880349999999,-0.83930841,0.223866955,0.1010508849999999,-0.206826765,25.569432785,-20.178810685,-33.80417889,-67.531349025,-0.8982912523,-0.344459285,-0.2503585856999999,0.0429102886,0.0912562182,-0.1104455310115,0.007
10:23:41,-0.35491162,-0.2821558199999999,-0.8370783199999999,0.22006366,0.0982490199999999,-0.20708778,25.57514682,-20.15712062,-33.80821728,-67.37658929999999,-0.9022431996,-0.3313327199999999,-0.2384992763999999,0.0402491672,0.0885139664,-0.109713407698,0.007
10:23:41,-0.361014305,-0.2684236049999999,-0.83484823,0.216260365,0.0954471549999999,-0.207348795,25.580860855,-20.135430555,-33.81225567,-67.221829575,-0.9061951469,-0.3182061549999999,-0.2266399670999999,0.0375880458,0.0857717145999999,-0.1089812843845,0.007
10:23:41,-0.36711699,-0.2546913899999999,-0.83261814,0.21245707,0.0926452899999999,-0.20760981,25.58657489,-20.11374049,-33.816294060000004,-67.06706985,-0.9101470942,-0.3050795899999999,-0.2147806577999998,0.0349269244,0.0830294628,-0.108249161071,0.007
10:23:41,-0.373219675,-0.2409591749999999,-0.8303880499999999,0.208653775,0.0898434249999999,-0.2078708249999999,25.592288925,-20.092050425,-33.82033245,-66.91231012499999,-0.9140990415,-0.291953025,-0.2029213484999998,0.032265803,0.080287211,-0.1075170377575,0.007
10:23:41,-0.37932236,-0.2272269599999999,-0.82815796,0.20485048,0.0870415599999999,-0.2081318399999999,25.59800296,-20.07036036,-33.82437084,-66.7575504,-0.9180509888,-0.27882646,-0.1910620391999998,0.0296046816,0.0775449592,-0.106784914444,0.007
10:23:41,-0.385425045,-0.2134947449999999,-0.82592787,0.201047185,0.0842396949999999,-0.208392855,25.603716995,-20.048670295,-33.82840923,-66.602790675,-0.9220029361,-0.2656998949999999,-0.1792027298999998,0.0269435602,0.0748027074,-0.1060527911305,0.007
10:23:41,-0.39152773,-0.1997625299999998,-0.8236977799999999,0.19724389,0.0814378299999999,-0.20865387,25.60943103,-20.02698023,-33.83244762,-66.44803094999999,-0.9259548834,-0.2525733299999999,-0.1673434205999999,0.0242824388,0.0720604555999999,-0.105320667817,0.007
10:23:41,-0.397630415,-0.1860303149999999,-0.82146769,0.193440595,0.0786359649999999,-0.208914885,25.615145065,-20.005290165,-33.83648601,-66.293271225,-0.9299068307,-0.2394467649999999,-0.1554841112999999,0.0216213174,0.0693182038,-0.1045885445035,0.007
10:23:41,-0.4037331,-0.1722980999999999,-0.8192375999999999,0.1896373,0.0758340999999999,-0.2091759,25.6208591,-19.9836001,-33.8405244,-66.13851149999999,-0.933858778,-0.2263201999999999,-0.1436248019999999,0.018960196,0.066575952,-0.10385642119,0.007
10:23:41,-0.409835785,-0.1585658849999999,-0.8170075099999999,0.185834005,0.0730322349999999,-0.209436915,25.626573135,-19.961910035,-33.84456279,-65.983751775,-0.9378107253,-0.213193635,-0.1317654926999999,0.0162990746,0.0638337002,-0.1031242978765,0.007
10:23:41,-0.41593847,-0.1448336699999999,-0.81477742,0.18203071,0.0702303699999999,-0.20969793,25.63228717,-19.94021997,-33.84860118,-65.82899205,-0.9417626726,-0.2000670699999999,-0.1199061833999999,0.0136379531999999,0.0610914484,-0.102392174563,0.007
10:23:41,-0.422041155,-0.1311014549999999,-0.8125473299999999,0.178227415,0.0674285049999999,-0.209958945,25.638001205,-19.918529905,-33.85263957,-65.67423232499999,-0.9457146199,-0.1869405049999999,-0.1080468740999999,0.0109768318,0.0583491966,-0.1016600512495,0.007
10:23:41,-0.42814384,-0.1173692399999999,-0.8103172399999999,0.17442412,0.0646266399999999,-0.2102199599999999,25.64371524,-19.89683984,-33.85667796,-65.5194726,-0.9496665672,-0.1738139399999999,-0.0961875647999999,0.0083157104,0.0556069448,-0.100927927936,0.007
10:23:41,-0.434246525,-0.1036370249999999,-0.80808715,0.170620825,0.061824775,-0.210480975,25.649429275,-19.875149775,-33.860716350000004,-65.364712875,-0.9536185145,-0.1606873749999999,-0.0843282554999999,0.005654589,0.0528646929999999,-0.1001958046225,0.007
10:23:41,-0.44034921,-0.0899048099999999,-0.8058570599999999,0.16681753,0.0590229099999999,-0.21074199,25.65514331,-19.85345971,-33.86475474,-65.20995314999999,-0.9575704618,-0.14756081,-0.0724689461999998,0.0029934676,0.0501224412,-0.099463681309,0.007
10:23:41,-0.446451895,-0.0761725949999999,-0.8036269699999999,0.163014235,0.056221045,-0.211003005,25.660857345,-19.831769645,-33.86879313,-65.055193425,-0.9615224091,-0.1344342449999999,-0.0606096368999998,0.0003323461999999,0.0473801893999999,-0.0987315579955,0.007
10:23:41,-0.45255458,-0.0624403799999999,-0.80139688,0.15921094,0.0534191799999999,-0.21126402,25.66657138,-19.81007958,-33.87283152,-64.9004337,-0.9654743564,-0.1213076799999999,-0.0487503275999998,-0.0023287751999999,0.0446379376,-0.097999434682,0.007
10:23:41,-0.458657265,-0.0487081649999999,-0.7991667899999999,0.155407645,0.0506173149999999,-0.211525035,25.672285415,-19.788389515,-33.87686991,-64.74567397499999,-0.9694263037,-0.1081811149999999,-0.0368910182999998,-0.0049898965999999,0.0418956858,-0.0972673113685,0.007
10:23:41,-0.46475995,-0.0349759499999999,-0.7969366999999999,0.15160435,0.0478154499999999,-0.21178605,25.67799945,-19.76669945,-33.8809083,-64.59091425,-0.973378251,-0.0950545499999999,-0.0250317089999998,-0.0076510179999999,0.039153434,-0.096535188055,0.007
10:23:41,-0.470862635,-0.0212437349999998,-0.79470661,0.147801055,0.0450135849999999,-0.2120470649999999,25.683713485,-19.745009385,-33.88494669,-64.43615452499999,-0.9773301983,-0.0819279849999999,-0.0131723996999999,-0.0103121394,0.0364111822,-0.0958030647415,0.007
10:23:41,-0.4769653199999999,-0.0075115199999998,-0.7924765199999999,0.14399776,0.0422117199999999,-0.2123080799999999,25.68942752,-19.72331932,-33.88898508,-64.2813948,-0.9812821456,-0.0688014199999998,-0.0013130903999999,-0.0129732607999999,0.0336689303999999,-0.095070941428,0.007
10:23:41,-0.483068005,0.0062206949999999,-0.7902464299999999,0.140194465,0.0394098549999999,-0.2125690949999999,25.695141555,-19.701629255,-33.89302347,-64.126635075,-0.9852340929,-0.0556748549999999,0.0105462189,-0.0156343821999999,0.0309266786,-0.0943388181145,0.007
10:23:41,-0.48917069,0.0199529100000001,-0.78801634,0.13639117,0.0366079899999999,-0.21283011,25.70085559,-19.67993919,-33.89706186,-63.97187535,-0.9891860402,-0.0425482899999999,0.0224055282,-0.0182955035999999,0.0281844267999999,-0.093606694801,0.007
10:23:41,-0.495273375,0.0336851249999999,-0.7857862499999999,0.132587875,0.0338061249999999,-0.213091125,25.706569625,-19.658249125,-33.90110025,-63.81711562499999,-0.9931379875,-0.0294217249999999,0.0342648375,-0.0209566249999999,0.025442175,-0.0928745714875,0.007
10:23:41,-0.50137606,0.04741734,-0.78355616,0.12878458,0.0310042599999999,-0.21335214,25.71228366,-19.63655906,-33.905138640000004,-63.6623559,-0.9970899348,-0.0162951599999999,0.0461241468000001,-0.0236177464,0.0226999232,-0.092142448174,0.007
10:23:41,-0.507478745,0.0611495550000001,-0.78132607,0.124981285,0.0282023949999999,-0.213613155,25.717997695,-19.614868995,-33.90917703,-63.507596175,-1.0010418821,-0.0031685949999999,0.0579834561000001,-0.0262788677999999,0.0199576713999999,-0.0914103248605,0.007
10:23:41,-0.51358143,0.07488177,-0.7790959799999999,0.12117799,0.0254005299999999,-0.21387417,25.72371173,-19.59317893,-33.91321542,-63.35283645,-1.0049938294,0.00995797,0.0698427654000001,-0.0289399891999999,0.0172154196,-0.090678201547,0.007
10:23:41,-0.519684115,0.0886139850000001,-0.77686589,0.117374695,0.0225986649999999,-0.214135185,25.729425765,-19.571488865,-33.91725381,-63.19807672499999,-1.0089457767,0.0230845350000001,0.0817020747000001,-0.0316011105999999,0.0144731677999999,-0.0899460782335,0.007
10:23:41,-0.5257868,0.1023462,-0.7746358,0.1135714,0.0197967999999999,-0.2143961999999999,25.7351398,-19.5497988,-33.9212922,-63.043317,-1.012897724,0.0362111,0.0935613840000001,-0.034262232,0.011730916,-0.08921395492,0.007
10:23:41,-0.531889485,0.1160784150000001,-0.7724057099999999,0.109768105,0.0169949349999999,-0.2146572149999999,25.740853835,-19.528108735,-33.92533059,-62.888557275,-1.0168496713,0.0493376650000001,0.1054206933000001,-0.0369233534,0.0089886641999999,-0.0884818316065,0.007
10:23:41,-0.5379921700000001,0.12981063,-0.77017562,0.10596481,0.0141930699999999,-0.21491823,25.74656787,-19.50641867,-33.92936898,-62.73379754999999,-1.0208016186,0.06246423,0.1172800026000001,-0.0395844747999999,0.0062464124,-0.087749708293,0.007
10:23:41,-0.5440948550000001,0.1435428450000001,-0.76794553,0.102161515,0.0113912049999999,-0.215179245,25.752281905,-19.484728605,-33.93340737,-62.57903782499999,-1.0247535659,0.0755907950000001,0.1291393119000001,-0.0422455961999999,0.0035041606,-0.0870175849795,0.007
10:23:41,-0.5501975400000001,0.15727506,-0.7657154399999999,0.09835822,0.0085893399999999,-0.21544026,25.75799594,-19.46303854,-33.93744576,-62.4242781,-1.0287055132,0.0887173600000001,0.1409986212,-0.0449067175999999,0.0007619087999999,-0.086285461666,0.007
10:23:41,-0.5563002250000001,0.1710072750000001,-0.76348535,0.094554925,0.0057874749999999,-0.215701275,25.763709975,-19.441348475,-33.94148415,-62.269518375,-1.0326574604999998,0.101843925,0.1528579305,-0.047567839,-0.0019803429999999,-0.0855533383525,0.007
10:23:41,-0.5624029100000001,0.18473949,-0.76125526,0.09075163,0.0029856099999999,-0.21596229,25.76942401,-19.41965841,-33.94552254,-62.11475865,-1.0366094078,0.1149704900000001,0.1647172398000002,-0.0502289603999999,-0.0047225948,-0.084821215039,0.007
10:23:41,-0.5685055950000001,0.1984717050000001,-0.7590251699999999,0.086948335,0.0001837449999999,-0.216223305,25.775138045,-19.397968345,-33.94956093,-61.959998925,-1.0405613551,0.128097055,0.1765765491000001,-0.0528900817999999,-0.0074648465999999,-0.0840890917255,0.007
10:23:41,-0.5746082800000001,0.21220392,-0.75679508,0.08314504,-0.00261812,-0.21648432,25.78085208,-19.37627828,-33.95359932,-61.8052392,-1.0445133024,0.1412236200000001,0.1884358584000002,-0.0555512031999999,-0.0102070984,-0.083356968412,0.007
10:23:41,-0.5807109650000001,0.2259361350000001,-0.75456499,0.079341745,-0.005419985,-0.2167453349999999,25.786566115,-19.354588215,-33.95763771,-61.650479475,-1.0484652497,0.1543501850000002,0.2002951677000001,-0.0582123245999999,-0.0129493501999999,-0.0826248450985,0.007
10:23:41,-0.5868136500000001,0.2396683500000002,-0.7523348999999999,0.07553845,-0.00822185,-0.21700635,25.79228015,-19.33289815,-33.9616761,-61.49571974999999,-1.052417197,0.16747675,0.212154477,-0.060873446,-0.015691602,-0.081892721785,0.007
10:23:41,-0.5929163350000001,0.2534005650000001,-0.75010481,0.071735155,-0.011023715,-0.217267365,25.797994185,-19.311208085,-33.96571449,-61.340960025,-1.0563691443,0.1806033150000001,0.2240137863000001,-0.0635345673999999,-0.0184338538,-0.0811605984715,0.007
10:23:41,-0.5990190200000001,0.2671327800000002,-0.74787472,0.06793186,-0.01382558,-0.21752838,25.80370822,-19.28951802,-33.96975288,-61.1862003,-1.0603210916,0.19372988,0.2358730956,-0.0661956887999999,-0.0211761056,-0.080428475158,0.007
10:23:41,-0.6051217050000001,0.280864995,-0.7456446299999999,0.064128565,-0.016627445,-0.217789395,25.809422255,-19.267827955,-33.97379127,-61.031440575,-1.0642730389,0.2068564450000001,0.2477324049000001,-0.0688568101999999,-0.0239183574,-0.0796963518445,0.007
10:23:41,-0.6112243900000001,0.2945972100000001,-0.74341454,0.06032527,-0.01942931,-0.21805041,25.81513629,-19.24613789,-33.97782966,-60.87668085,-1.0682249862,0.2199830100000002,0.2595917142,-0.0715179315999999,-0.0266606091999999,-0.078964228531,0.007
10:23:41,-0.6173270750000001,0.308329425,-0.74118445,0.056521975,-0.022231175,-0.218311425,25.820850325,-19.224447825,-33.98186805,-60.721921125,-1.0721769335,0.233109575,0.2714510235000001,-0.074179053,-0.0294028609999999,-0.0782321052175,0.007
10:23:41,-0.62342976,0.3220616400000001,-0.7389543599999999,0.05271868,-0.02503304,-0.2185724399999999,25.82656436,-19.20275776,-33.98590644,-60.5671614,-1.0761288808,0.2462361400000001,0.2833103328,-0.0768401743999999,-0.0321451128,-0.077499981904,0.007
10:23:41,-0.629532445,0.335793855,-0.73672427,0.048915385,-0.027834905,-0.218833455,25.832278395,-19.181067695,-33.98994483,-60.412401675,-1.0800808280999998,0.259362705,0.2951696421000002,-0.0795012957999999,-0.0348873646,-0.0767678585905,0.007
10:23:41,-0.63563513,0.3495260700000001,-0.73449418,0.0451120899999999,-0.03063677,-0.2190944699999999,25.83799243,-19.15937763,-33.99398322,-60.25764194999999,-1.0840327754,0.2724892700000001,0.3070289514000001,-0.0821624172,-0.0376296163999999,-0.076035735277,0.007
10:23:41,-0.641737815,0.363258285,-0.7322640899999999,0.041308795,-0.0334386349999999,-0.219355485,25.843706465,-19.137687565,-33.99802161,-60.102882225,-1.0879847227,0.2856158350000002,0.3188882607000002,-0.0848235385999999,-0.0403718682,-0.0753036119635,0.007
10:23:41,-0.6478405,0.3769905000000001,-0.730034,0.0375055,-0.0362405,-0.2196165,25.8494205,-19.1159975,-34.00206,-59.9481225,-1.09193667,0.2987424000000001,0.3307475700000001,-0.0874846599999999,-0.04311412,-0.07457148865,0.007
10:23:41,-0.653943185,0.390722715,-0.72780391,0.033702205,-0.039042365,-0.219877515,25.855134535,-19.094307435,-34.00609839,-59.79336277499999,-1.0958886173,0.3118689650000001,0.3426068793000002,-0.0901457814,-0.0458563717999999,-0.0738393653365,0.007
10:23:41,-0.66004587,0.4044549300000001,-0.7255738199999999,0.02989891,-0.04184423,-0.22013853,25.86084857,-19.07261737,-34.01013678,-59.63860304999999,-1.0998405646,0.32499553,0.3544661886000001,-0.0928069027999999,-0.0485986235999999,-0.073107242023,0.007
10:23:41,-0.666148555,0.4181871450000002,-0.72334373,0.026095615,-0.044646095,-0.220399545,25.866562605,-19.050927305,-34.01417517,-59.483843325,-1.1037925119,0.3381220950000001,0.3663254979,-0.0954680242,-0.0513408754,-0.0723751187095,0.007
10:23:41,-0.67225124,0.4319193600000001,-0.72111364,0.02229232,-0.04744796,-0.22066056,25.87227664,-19.02923724,-34.01821356,-59.3290836,-1.1077444592,0.3512486600000002,0.3781848072000001,-0.0981291455999999,-0.0540831272,-0.071642995396,0.007
10:23:41,-0.678353925,0.4456515750000002,-0.7188835499999999,0.0184890249999999,-0.050249825,-0.2209215749999999,25.877990675,-19.007547175,-34.02225195,-59.174323875,-1.1116964065,0.3643752250000001,0.3900441165,-0.1007902669999999,-0.0568253789999999,-0.0709108720825,0.007
10:23:41,-0.68445661,0.45938379,-0.71665346,0.01468573,-0.05305169,-0.2211825899999999,25.88370471,-18.98585711,-34.02629034,-59.01956415,-1.1156483538,0.3775017900000001,0.4019034258000001,-0.1034513884,-0.0595676308,-0.070178748769,0.007
10:23:41,-0.690559295,0.4731160050000002,-0.71442337,0.010882435,-0.055853555,-0.221443605,25.889418745,-18.964167045,-34.03032873,-58.864804425,-1.1196003011,0.390628355,0.4137627351,-0.1061125097999999,-0.0623098826,-0.0694466254555,0.007
10:23:41,-0.69666198,0.48684822,-0.7121932799999999,0.00707914,-0.05865542,-0.22170462,25.89513278,-18.94247698,-34.03436712,-58.7100447,-1.1235522484,0.4037549200000001,0.4256220444000002,-0.1087736312,-0.0650521343999999,-0.068714502142,0.007
10:23:41,-0.702764665,0.5005804350000002,-0.70996319,0.0032758449999999,-0.061457285,-0.221965635,25.900846815,-18.920786915,-34.03840551,-58.55528497499999,-1.1275041956999998,0.4168814850000002,0.4374813537000001,-0.1114347525999999,-0.0677943862,-0.0679823788285,0.007
10:23:41,-0.70886735,0.51431265,-0.7077331,-0.0005274499999999,-0.06425915,-0.22222665,25.90656085,-18.89909685,-34.0424439,-58.40052525,-1.131456143,0.4300080500000001,0.4493406630000002,-0.1140958739999999,-0.070536638,-0.067250255515,0.007
10:23:41,-0.714970035,0.5280448650000001,-0.7055030099999999,-0.0043307449999999,-0.067061015,-0.222487665,25.912274885,-18.877406785,-34.04648229,-58.245765525,-1.1354080903,0.4431346150000002,0.4611999723000001,-0.1167569954,-0.0732788898,-0.0665181322015,0.007
10:23:41,-0.7210727200000001,0.54177708,-0.70327292,-0.00813404,-0.06986288,-0.22274868,25.91798892,-18.85571672,-34.05052068,-58.09100579999999,-1.1393600376,0.45626118,0.4730592816000002,-0.1194181167999999,-0.0760211415999999,-0.065786008888,0.007
10:23:41,-0.7271754050000001,0.5555092950000001,-0.70104283,-0.0119373349999999,-0.072664745,-0.223009695,25.923702955,-18.834026655,-34.05455907,-57.936246075,-1.1433119849,0.4693877450000001,0.4849185909000001,-0.1220792382,-0.0787633934,-0.0650538855745,0.007
10:23:41,-0.7332780900000001,0.56924151,-0.6988127399999999,-0.0157406299999999,-0.07546661,-0.2232707099999999,25.92941699,-18.81233659,-34.05859746,-57.78148635,-1.1472639322,0.4825143100000002,0.4967779002000002,-0.1247403595999999,-0.0815056452,-0.064321762261,0.007
10:23:41,-0.7393807750000001,0.5829737250000001,-0.69658265,-0.0195439249999999,-0.078268475,-0.223531725,25.935131025,-18.790646525,-34.06263585,-57.626726625,-1.1512158795,0.4956408750000001,0.5086372095000001,-0.1274014809999999,-0.0842478969999999,-0.0635896389475,0.007
10:23:41,-0.7454834600000001,0.5967059400000002,-0.69435256,-0.02334722,-0.08107034,-0.22379274,25.94084506,-18.76895646,-34.06667424,-57.4719669,-1.1551678268,0.5087674400000002,0.5204965188,-0.1300626024,-0.0869901488,-0.062857515634,0.007
10:23:41,-0.7515861450000001,0.6104381550000001,-0.6921224699999999,-0.0271505149999999,-0.083872205,-0.224053755,25.946559095,-18.747266395,-34.07071263,-57.31720717499999,-1.1591197741,0.521894005,0.5323558281000002,-0.1327237237999999,-0.0897324006,-0.0621253923205,0.007
10:23:41,-0.7576888300000001,0.6241703700000002,-0.68989238,-0.0309538099999999,-0.08667407,-0.22431477,25.95227313,-18.72557633,-34.07475102,-57.16244745,-1.1630717214,0.5350205700000001,0.5442151374,-0.1353848452,-0.0924746524,-0.061393269007,0.007
10:23:41,-0.7637915150000001,0.6379025850000001,-0.68766229,-0.0347571049999999,-0.089475935,-0.224575785,25.957987165,-18.703886265,-34.07878941,-57.007687725,-1.1670236687,0.5481471350000002,0.5560744467000002,-0.1380459666,-0.0952169041999999,-0.0606611456935,0.007
10:23:41,-0.7698942000000001,0.6516348000000002,-0.6854321999999999,-0.0385603999999999,-0.0922778,-0.2248368,25.9637012,-18.6821962,-34.0828278,-56.85292799999999,-1.170975616,0.5612737000000001,0.5679337560000001,-0.1407070879999999,-0.097959156,-0.05992902238,0.007
10:23:41,-0.7759968850000001,0.6653670150000001,-0.68320211,-0.0423636949999999,-0.095079665,-0.2250978149999999,25.969415235,-18.660506135,-34.08686619,-56.698168275,-1.1749275633,0.5744002650000002,0.5797930653000002,-0.1433682094,-0.1007014078,-0.0591968990665,0.007
10:23:41,-0.7820995700000001,0.6790992300000002,-0.68097202,-0.0461669899999999,-0.09788153,-0.22535883,25.97512927,-18.63881607,-34.09090458,-56.54340855,-1.1788795105999998,0.58752683,0.5916523746000001,-0.1460293307999999,-0.1034436595999999,-0.058464775753,0.007
10:23:41,-0.7882022550000001,0.692831445,-0.6787419299999999,-0.049970285,-0.100683395,-0.2256198449999999,25.980843305,-18.617126005,-34.09494297,-56.388648825,-1.1828314579,0.6006533950000001,0.6035116839000002,-0.1486904522,-0.1061859114,-0.0577326524395,0.007
10:23:41,-0.7943049400000001,0.7065636600000001,-0.67651184,-0.0537735799999999,-0.10348526,-0.22588086,25.98655734,-18.59543594,-34.09898136,-56.2338891,-1.1867834052,0.6137799600000002,0.6153709932000001,-0.1513515736,-0.1089281632,-0.057000529126,0.007
10:23:41,-0.8004076250000001,0.720295875,-0.67428175,-0.0575768749999999,-0.106287125,-0.226141875,25.992271375,-18.573745875,-34.10301975,-56.079129375,-1.1907353525,0.6269065250000001,0.6272303025000002,-0.1540126949999999,-0.111670415,-0.0562684058125,0.007
10:23:41,-0.8065103100000001,0.7340280900000001,-0.6720516599999999,-0.0613801699999999,-0.10908899,-0.22640289,25.99798541,-18.55205581,-34.10705814,-55.92436965,-1.1946872998,0.6400330900000002,0.6390896118000001,-0.1566738164,-0.1144126667999999,-0.055536282499,0.007
10:23:41,-0.8126129950000001,0.747760305,-0.66982157,-0.065183465,-0.111890855,-0.226663905,26.003699445,-18.530365745,-34.11109653,-55.769609925,-1.1986392471,0.6531596550000001,0.6509489211000002,-0.1593349377999999,-0.1171549186,-0.0548041591855,0.007
10:23:41,-0.8187156800000001,0.7614925200000001,-0.66759148,-0.0689867599999999,-0.11469272,-0.22692492,26.00941348,-18.50867568,-34.11513492,-55.61485019999999,-1.2025911944,0.6662862200000002,0.6628082304000001,-0.1619960592,-0.1198971704,-0.054072035872,0.007
10:23:41,-0.824818365,0.7752247350000002,-0.6653613899999999,-0.0727900549999999,-0.117494585,-0.227185935,26.015127515,-18.486985615,-34.11917331,-55.460090475,-1.2065431417,0.6794127850000002,0.6746675397,-0.1646571806,-0.1226394221999999,-0.0533399125585,0.007
10:23:41,-0.83092105,0.7889569500000001,-0.6631313,-0.07659335,-0.12029645,-0.2274469499999999,26.02084155,-18.46529555,-34.1232117,-55.30533075,-1.210495089,0.6925393500000001,0.6865268490000002,-0.1673183019999999,-0.125381674,-0.052607789245,0.007
10:23:41,-0.837023735,0.8026891650000002,-0.66090121,-0.0803966449999999,-0.123098315,-0.227707965,26.026555585,-18.443605485,-34.12725009,-55.15057102499999,-1.2144470363,0.7056659150000002,0.6983861583000001,-0.1699794234,-0.1281239258,-0.0518756659315,0.007
10:23:41,-0.84312642,0.8164213800000001,-0.6586711199999999,-0.08419994,-0.12590018,-0.22796898,26.03226962,-18.42191542,-34.13128848,-54.9958113,-1.2183989836,0.7187924800000001,0.7102454676000002,-0.1726405447999999,-0.1308661776,-0.051143542618,0.007
10:23:41,-0.849229105,0.8301535950000002,-0.65644103,-0.088003235,-0.128702045,-0.228229995,26.037983655,-18.400225355,-34.13532687,-54.841051575,-1.2223509308999998,0.7319190450000002,0.7221047769000001,-0.1753016661999999,-0.1336084293999999,-0.0504114193045,0.007
10:23:41,-0.85533179,0.8438858100000001,-0.65421094,-0.09180653,-0.13150391,-0.22849101,26.04369769,-18.37853529,-34.13936526,-54.68629185,-1.2263028781999998,0.7450456100000002,0.7339640862000002,-0.1779627876,-0.1363506812,-0.049679295991,0.007
10:23:41,-0.861434475,0.8576180250000002,-0.65198085,-0.0956098249999999,-0.134305775,-0.228752025,26.049411725,-18.356845225,-34.14340365,-54.531532125,-1.2302548255,0.7581721750000001,0.7458233955000001,-0.1806239089999999,-0.139092933,-0.0489471726775,0.007
10:23:41,-0.86753716,0.87135024,-0.64975076,-0.0994131199999999,-0.13710764,-0.22901304,26.05512576,-18.33515516,-34.14744204,-54.37677239999999,-1.2342067728,0.7712987400000002,0.7576827048000002,-0.1832850304,-0.1418351847999999,-0.048215049364,0.007
10:23:41,-0.873639845,0.8850824550000002,-0.64752067,-0.1032164149999999,-0.139909505,-0.229274055,26.060839795,-18.313465095,-34.15148043,-54.222012675,-1.2381587201,0.7844253050000001,0.7695420141000001,-0.1859461517999999,-0.1445774366,-0.0474829260505,0.007
10:23:41,-0.87974253,0.89881467,-0.64529058,-0.1070197099999999,-0.14271137,-0.22953507,26.06655383,-18.29177503,-34.15551882,-54.06725295,-1.2421106674,0.7975518700000002,0.7814013234000002,-0.1886072731999999,-0.1473196884,-0.046750802737,0.007
10:23:41,-0.885845215,0.912546885,-0.64306049,-0.110823005,-0.145513235,-0.2297960849999999,26.072267865,-18.270084965,-34.15955721,-53.91249322499999,-1.2460626147,0.8106784350000003,0.7932606327000001,-0.1912683946,-0.1500619402,-0.0460186794235,0.007
10:23:41,-0.8919479,0.9262791,-0.6408304,-0.1146263,-0.1483151,-0.2300571,26.0779819,-18.2483949,-34.1635956,-53.7577335,-1.250014562,0.8238050000000001,0.8051199420000003,-0.1939295159999999,-0.1528041919999999,-0.04528655611,0.007
10:23:41,-0.898050585,0.940011315,-0.63860031,-0.118429595,-0.151116965,-0.230318115,26.083695935,-18.226704835,-34.16763399,-53.602973775,-1.2539665093,0.8369315650000002,0.8169792513000002,-0.1965906374,-0.1555464438,-0.0445544327965,0.007
10:23:41,-0.90415327,0.9537435300000002,-0.6363702199999999,-0.1222328899999999,-0.15391883,-0.23057913,26.08940997,-18.20501477,-34.17167238,-53.44821405,-1.2579184566,0.8500581300000001,0.8288385606,-0.1992517588,-0.1582886956,-0.043822309483,0.007
10:23:41,-0.910255955,0.967475745,-0.63414013,-0.1260361849999999,-0.156720695,-0.230840145,26.095124005,-18.183324705,-34.17571077,-53.293454325,-1.2618704039,0.8631846950000002,0.8406978699000002,-0.2019128801999999,-0.1610309473999999,-0.0430901861695,0.007
10:23:41,-0.91635864,0.9812079600000002,-0.63191004,-0.1298394799999999,-0.15952256,-0.23110116,26.10083804,-18.16163464,-34.17974916,-53.1386946,-1.2658223512,0.8763112600000003,0.8525571792000001,-0.2045740016,-0.1637731992,-0.042358062856,0.007
10:23:41,-0.922461325,0.994940175,-0.6296799499999999,-0.1336427749999999,-0.162324425,-0.231362175,26.106552075,-18.139944575,-34.18378755,-52.983934875,-1.2697742984999998,0.8894378250000001,0.8644164885000002,-0.2072351229999999,-0.166515451,-0.0416259395425,0.007
10:23:41,-0.92856401,1.00867239,-0.62744986,-0.13744607,-0.16512629,-0.2316231899999999,26.11226611,-18.11825451,-34.18782594,-52.82917515,-1.2737262457999998,0.9025643900000002,0.8762757978000001,-0.2098962444,-0.1692577028,-0.040893816229,0.007
10:23:41,-0.934666695,1.0224046050000002,-0.62521977,-0.141249365,-0.167928155,-0.231884205,26.117980145,-18.096564445,-34.19186433,-52.67441542499999,-1.2776781931,0.915690955,0.8881351071000002,-0.2125573658,-0.1719999545999999,-0.0401616929155,0.007
10:23:41,-0.94076938,1.0361368200000003,-0.6229896799999999,-0.14505266,-0.17073002,-0.2321452199999999,26.12369418,-18.07487438,-34.19590272,-52.5196557,-1.2816301404,0.9288175200000002,0.8999944164000001,-0.2152184871999999,-0.1747422064,-0.039429569602,0.007
10:23:41,-0.946872065,1.0498690350000004,-0.62075959,-0.1488559549999999,-0.173531885,-0.232406235,26.129408215,-18.053184315,-34.19994111,-52.364895975,-1.2855820877,0.9419440850000004,0.9118537257000002,-0.2178796086,-0.1774844582,-0.0386974462885,0.007
10:23:41,-0.95297475,1.06360125,-0.6185295,-0.1526592499999999,-0.17633375,-0.23266725,26.13512225,-18.03149425,-34.2039795,-52.21013624999999,-1.289534035,0.95507065,0.923713035,-0.2205407299999999,-0.1802267099999999,-0.037965322975,0.007
10:23:41,-0.959077435,1.0773334650000002,-0.6162994099999999,-0.1564625449999999,-0.179135615,-0.232928265,26.140836285,-18.009804185,-34.20801789,-52.055376525,-1.2934859823,0.9681972150000002,0.9355723443000002,-0.2232018513999999,-0.1829689618,-0.0372331996615,0.007
10:23:41,-0.96518012,1.0910656800000005,-0.61406932,-0.1602658399999999,-0.18193748,-0.23318928,26.14655032,-17.98811412,-34.21205628,-51.9006168,-1.2974379296,0.98132378,0.9474316536,-0.2258629728,-0.1857112136,-0.036501076348,0.007
10:23:41,-0.971282805,1.1047978950000004,-0.61183923,-0.164069135,-0.184739345,-0.233450295,26.152264355,-17.966424055,-34.21609467,-51.745857075,-1.3013898769,0.9944503450000002,0.9592909629000004,-0.2285240941999999,-0.1884534654,-0.0357689530345,0.007
10:23:41,-0.97738549,1.1185301100000005,-0.6096091399999999,-0.16787243,-0.18754121,-0.23371131,26.15797839,-17.94473399,-34.22013306,-51.59109735,-1.3053418242,1.00757691,0.9711502722000002,-0.2311852156,-0.1911957172,-0.035036829721,0.007
10:23:41,-0.983488175,1.132262325,-0.60737905,-0.171675725,-0.190343075,-0.2339723249999999,26.163692425,-17.923043925,-34.22417145,-51.43633762499999,-1.3092937715,1.0207034750000004,0.9830095815,-0.2338463369999999,-0.193937969,-0.0343047064074999,0.007
10:23:41,-0.98959086,1.1459945400000002,-0.60514896,-0.1754790199999999,-0.19314494,-0.23423334,26.16940646,-17.90135386,-34.22820984,-51.2815779,-1.3132457188,1.0338300400000002,0.9948688908000002,-0.2365074583999999,-0.1966802208,-0.033572583094,0.007
10:23:41,-0.995693545,1.1597267550000003,-0.6029188699999999,-0.1792823149999999,-0.195946805,-0.234494355,26.175120495,-17.879663795,-34.23224823,-51.126818175,-1.3171976660999998,1.046956605,1.0067282001,-0.2391685798,-0.1994224725999999,-0.0328404597805,0.007
10:23:41,-1.00179623,1.1734589700000004,-0.60068878,-0.1830856099999999,-0.19874867,-0.23475537,26.18083453,-17.85797373,-34.23628662,-50.97205844999999,-1.3211496133999998,1.0600831700000004,1.0185875094,-0.2418297011999999,-0.2021647244,-0.032108336467,0.007
10:23:41,-1.007898915,1.187191185,-0.59845869,-0.1868889049999999,-0.201550535,-0.235016385,26.186548565,-17.836283665,-34.24032501,-50.817298725,-1.3251015606999998,1.0732097350000005,1.0304468187000002,-0.2444908226,-0.2049069762,-0.0313762131535,0.007
10:23:41,-1.0140016,1.2009234000000002,-0.5962285999999999,-0.1906921999999999,-0.2043524,-0.2352774,26.1922626,-17.814593600000002,-34.2443634,-50.662539,-1.329053508,1.0863363,1.0423061280000003,-0.247151944,-0.207649228,-0.03064408984,0.007
10:23:41,-1.020104285,1.2146556150000003,-0.59399851,-0.194495495,-0.207154265,-0.235538415,26.197976635,-17.792903535,-34.24840179,-50.507779275,-1.3330054553,1.099462865,1.0541654373,-0.2498130653999999,-0.2103914798,-0.0299119665265,0.007
10:23:41,-1.02620697,1.2283878300000004,-0.59176842,-0.19829879,-0.20995613,-0.23579943,26.20369067,-17.77121347,-34.25244018,-50.35301955,-1.3369574026,1.1125894300000003,1.0660247466,-0.2524741868,-0.2131337316,-0.029179843213,0.007
10:23:41,-1.032309655,1.242120045,-0.5895383299999999,-0.202102085,-0.212757995,-0.236060445,26.209404705,-17.749523405,-34.25647857,-50.198259825,-1.3409093499,1.1257159950000002,1.0778840559000002,-0.2551353081999999,-0.2158759834,-0.0284477198995,0.007
10:23:41,-1.03841234,1.2558522600000002,-0.58730824,-0.2059053799999999,-0.21555986,-0.2363214599999999,26.21511874,-17.72783334,-34.26051696,-50.0435001,-1.3448612972,1.13884256,1.0897433652000004,-0.2577964296,-0.2186182351999999,-0.027715596586,0.007
10:23:41,-1.044515025,1.2695844750000005,-0.58507815,-0.2097086749999999,-0.218361725,-0.236582475,26.220832775,-17.706143275000002,-34.26455535,-49.888740375,-1.3488132445,1.1519691250000004,1.1016026745,-0.260457551,-0.221360487,-0.0269834732725,0.007
10:23:41,-1.05061771,1.2833166900000004,-0.5828480599999999,-0.2135119699999999,-0.22116359,-0.23684349,26.22654681,-17.68445321,-34.26859374,-49.73398064999999,-1.3527651918,1.1650956900000002,1.1134619838000002,-0.2631186724,-0.2241027388,-0.0262513499589999,0.007
10:23:41,-1.056720395,1.2970489050000005,-0.5806179699999999,-0.2173152649999999,-0.223965455,-0.237104505,26.232260845,-17.662763145,-34.27263213,-49.579220925,-1.3567171391,1.178222255,1.1253212931000005,-0.2657797938,-0.2268449906,-0.0255192266455,0.007
10:23:41,-1.06282308,1.31078112,-0.57838788,-0.22111856,-0.22676732,-0.23736552,26.23797488,-17.64107308,-34.27667052,-49.4244612,-1.3606690864,1.1913488200000004,1.1371806024,-0.2684409151999999,-0.2295872424,-0.024787103332,0.007
10:23:41,-1.068925765,1.3245133350000002,-0.5761577899999999,-0.224921855,-0.229569185,-0.237626535,26.243688915,-17.619383015,-34.28070891,-49.269701475,-1.3646210337,1.2044753850000005,1.1490399117,-0.2711020366,-0.2323294942,-0.0240549800184999,0.007
10:23:41,-1.07502845,1.3382455500000003,-0.5739276999999999,-0.22872515,-0.23237105,-0.23788755,26.24940295,-17.59769295,-34.2847473,-49.11494175,-1.3685729809999998,1.2176019500000002,1.1608992210000002,-0.273763158,-0.235071746,-0.023322856705,0.007
10:23:41,-1.081131135,1.3519777650000004,-0.57169761,-0.2325284449999999,-0.235172915,-0.238148565,26.255116985,-17.576002885,-34.28878569,-48.960182025,-1.3725249282999998,1.230728515,1.1727585303000003,-0.2764242794,-0.2378139977999999,-0.0225907333915,0.007
10:23:41,-1.08723382,1.36570998,-0.5694675199999999,-0.2363317399999999,-0.23797478,-0.23840958,26.26083102,-17.55431282,-34.292824079999995,-48.8054223,-1.3764768756,1.2438550800000003,1.1846178396000004,-0.2790854008,-0.2405562496,-0.0218586100779999,0.007
10:23:41,-1.093336505,1.3794421950000002,-0.5672374299999999,-0.2401350349999999,-0.240776645,-0.2386705949999999,26.266545055,-17.532622755000002,-34.29686247,-48.650662575,-1.3804288229,1.2569816450000002,1.1964771489,-0.2817465221999999,-0.2432985014,-0.0211264867644999,0.007
10:23:41,-1.09943919,1.3931744100000003,-0.56500734,-0.2439383299999999,-0.24357851,-0.23893161,26.27225909,-17.51093269,-34.30090086,-48.49590284999999,-1.3843807702,1.27010821,1.2083364582000002,-0.2844076436,-0.2460407532,-0.020394363451,0.007
10:23:41,-1.105541875,1.4069066250000004,-0.5627772499999999,-0.247741625,-0.246380375,-0.239192625,26.277973125,-17.489242625,-34.30493925,-48.341143125,-1.3883327175,1.2832347750000004,1.2201957675000004,-0.287068765,-0.248783005,-0.0196622401375,0.007
10:23:41,-1.11164456,1.42063884,-0.5605471599999999,-0.25154492,-0.24918224,-0.23945364,26.28368716,-17.46755256,-34.30897764,-48.1863834,-1.3922846648,1.2963613400000005,1.2320550768000005,-0.2897298863999999,-0.2515252568,-0.018930116824,0.007
10:23:41,-1.117747245,1.4343710550000002,-0.55831707,-0.255348215,-0.251984105,-0.239714655,26.289401195,-17.445862495,-34.31301603,-48.03162367499999,-1.3962366121,1.309487905,1.2439143861000002,-0.2923910078,-0.2542675086,-0.0181979935105,0.007
10:23:41,-1.12384993,1.4481032700000005,-0.5560869799999999,-0.25915151,-0.25478597,-0.23997567,26.29511523,-17.42417243,-34.31705442,-47.87686395,-1.4001885594,1.3226144700000004,1.2557736954000005,-0.2950521291999999,-0.2570097604,-0.0174658701969999,0.007
10:23:41,-1.129952615,1.4618354850000004,-0.5538568899999999,-0.2629548049999999,-0.257587835,-0.240236685,26.300829265,-17.402482365,-34.32109281,-47.722104225,-1.4041405067,1.3357410350000003,1.2676330047000004,-0.2977132506,-0.2597520122,-0.0167337468834999,0.007
10:23:41,-1.1360553,1.4755677000000005,-0.5516268,-0.2667580999999999,-0.2603897,-0.2404976999999999,26.3065433,-17.3807923,-34.3251312,-47.5673445,-1.408092454,1.3488676000000002,1.279492314,-0.300374372,-0.262494264,-0.01600162357,0.007
10:23:41,-1.142157985,1.489299915,-0.5493967099999999,-0.2705613949999999,-0.263191565,-0.240758715,26.312257335,-17.359102235,-34.32916959,-47.412584775,-1.4120444013,1.361994165,1.2913516233000002,-0.3030354933999999,-0.2652365157999999,-0.0152695002565,0.007
10:23:41,-1.14826067,1.5030321300000002,-0.5471666199999999,-0.27436469,-0.2659934300000001,-0.24101973,26.31797137,-17.33741217,-34.33320798,-47.25782505,-1.4159963485999998,1.3751207300000003,1.3032109326000003,-0.3056966148,-0.2679787676,-0.014537376943,0.007
10:23:41,-1.154363355,1.5167643450000003,-0.54493653,-0.278167985,-0.268795295,-0.241280745,26.323685405,-17.315722105,-34.337246369999995,-47.103065325,-1.4199482958999998,1.3882472950000002,1.3150702419000004,-0.3083577362,-0.2707210193999999,-0.0138052536294999,0.007
10:23:41,-1.16046604,1.5304965600000004,-0.5427064399999999,-0.28197128,-0.27159716,-0.24154176,26.32939944,-17.29403204,-34.34128476,-46.9483056,-1.4239002432,1.40137386,1.3269295512,-0.3110188576,-0.2734632712,-0.0130731303159999,0.007
10:23:41,-1.166568725,1.544228775,-0.5404763499999999,-0.285774575,-0.274399025,-0.241802775,26.335113475,-17.272341975,-34.34532315,-46.79354587499999,-1.4278521905,1.4145004250000004,1.3387888605000002,-0.313679979,-0.276205523,-0.0123410070025,0.007
10:23:41,-1.17267141,1.5579609900000002,-0.53824626,-0.2895778699999999,-0.27720089,-0.24206379,26.34082751,-17.250651910000002,-34.34936154,-46.63878615,-1.4318041378,1.4276269900000005,1.3506481698000004,-0.3163411003999999,-0.2789477748,-0.011608883689,0.007
10:23:41,-1.178774095,1.5716932050000003,-0.5360161699999999,-0.2933811649999999,-0.280002755,-0.242324805,26.346541545,-17.228961845,-34.353399929999995,-46.484026425,-1.4357560851,1.440753555,1.3625074791000005,-0.3190022218,-0.2816900266,-0.0108767603755,0.007
10:23:41,-1.18487678,1.5854254200000004,-0.5337860799999999,-0.2971844599999999,-0.28280462,-0.24258582,26.35225558,-17.20727178,-34.35743832,-46.3292667,-1.4397080324,1.4538801200000004,1.3743667884000002,-0.3216633431999999,-0.2844322783999999,-0.010144637062,0.007
10:23:41,-1.1909794649999998,1.599157635,-0.53155599,-0.300987755,-0.2856064850000001,-0.2428468349999999,26.357969615,-17.185581715,-34.36147671,-46.174506975,-1.4436599797,1.4670066850000003,1.3862260977000005,-0.3243244646,-0.2871745301999999,-0.0094125137484999,0.007
10:23:41,-1.19708215,1.6128898500000002,-0.5293258999999999,-0.30479105,-0.2884083500000001,-0.24310785,26.36368365,-17.16389165,-34.3655151,-46.01974725,-1.447611927,1.4801332500000002,1.3980854070000004,-0.326985586,-0.2899167819999999,-0.0086803904349999,0.007
10:23:41,-1.2031848349999998,1.6266220650000005,-0.5270958099999999,-0.308594345,-0.291210215,-0.243368865,26.369397685,-17.142201585000002,-34.36955349,-45.864987525,-1.4515638743,1.493259815,1.4099447163000003,-0.3296467073999999,-0.2926590338,-0.0079482671215,0.007
10:23:41,-1.20928752,1.6403542800000004,-0.52486572,-0.31239764,-0.29401208,-0.24362988,26.37511172,-17.12051152,-34.37359188,-45.7102278,-1.4555158216,1.5063863800000004,1.4218040256000002,-0.3323078287999999,-0.2954012856,-0.007216143808,0.007
10:23:41,-1.215390205,1.6540864950000005,-0.5226356299999999,-0.3162009349999999,-0.296813945,-0.243890895,26.380825755,-17.098821455,-34.37763027,-45.55546807499999,-1.4594677689,1.5195129450000002,1.4336633349000003,-0.3349689502,-0.2981435374,-0.0064840204945,0.007
10:23:41,-1.22149289,1.66781871,-0.5204055399999999,-0.3200042299999999,-0.29961581,-0.24415191,26.38653979,-17.07713139,-34.381668659999995,-45.40070835,-1.4634197161999998,1.53263951,1.4455226442000004,-0.3376300715999999,-0.3008857892,-0.0057518971809999,0.007
10:23:41,-1.227595575,1.6815509250000005,-0.51817545,-0.3238075249999999,-0.302417675,-0.244412925,26.392253825,-17.055441325,-34.38570705,-45.245948625,-1.4673716634999998,1.5457660750000004,1.4573819535,-0.3402911929999999,-0.3036280409999999,-0.0050197738674999,0.007
10:23:41,-1.23369826,1.6952831400000004,-0.5159453599999999,-0.32761082,-0.30521954,-0.24467394,26.39796786,-17.033751260000003,-34.38974544,-45.09118889999999,-1.4713236107999998,1.5588926400000005,1.4692412628000002,-0.3429523144,-0.3063702927999999,-0.0042876505539999,0.007
10:23:41,-1.239800945,1.7090153550000005,-0.51371527,-0.331414115,-0.3080214050000001,-0.244934955,26.403681895,-17.012061195,-34.39378383,-44.936429175,-1.4752755581,1.572019205,1.4811005721000003,-0.3456134358,-0.3091125445999999,-0.0035555272405,0.007
10:23:41,-1.24590363,1.72274757,-0.51148518,-0.33521741,-0.31082327,-0.2451959699999999,26.40939593,-16.99037113,-34.397822219999995,-44.78166945,-1.4792275054,1.5851457700000005,1.4929598814000005,-0.3482745571999999,-0.3118547964,-0.002823403927,0.007
10:23:41,-1.252006315,1.7364797850000002,-0.5092550899999999,-0.339020705,-0.313625135,-0.245456985,26.415109965,-16.968681065,-34.40186061,-44.626909725,-1.4831794527,1.5982723350000003,1.5048191907,-0.3509356786,-0.3145970482,-0.0020912806135,0.007
10:23:42,-1.258109,1.750212,-0.507025,-0.342824,-0.316427,-0.245718,26.420824,-16.946991,-34.405899,-44.47215,-1.4871314,1.6113989,1.5166785,-0.3535968,-0.3173393,-0.0013591573,0.007
10:23:42,-1.24768412,1.7263170600000002,-0.5074531699999999,-0.340805165,-0.315089985,-0.24241009,26.43999027,-16.94257663,-34.37853244,-44.687763,-1.4789894105,1.5877193145,1.4942342665,-0.3504083299,-0.3158890575,-0.0016564670935,0.007
10:23:42,-1.23725924,1.70242212,-0.50788134,-0.33878633,-0.31375297,-0.23910218,26.45915654,-16.938162260000002,-34.35116588,-44.903376,-1.470847421,1.564039729,1.471790033,-0.3472198598,-0.314438815,-0.001953776887,0.007
10:23:42,-1.22683436,1.67852718,-0.5083095099999999,-0.336767495,-0.312415955,-0.23579427,26.47832281,-16.93374789,-34.32379932,-45.118989,-1.4627054315,1.5403601435,1.4493457995,-0.3440313896999999,-0.3129885725,-0.0022510866805,0.007
10:23:42,-1.2164094799999998,1.6546322400000002,-0.50873768,-0.33474866,-0.31107894,-0.23248636,26.49748908,-16.92933352,-34.296432759999995,-45.334602,-1.454563442,1.516680558,1.426901566,-0.3408429196,-0.31153833,-0.002548396474,0.007
10:23:42,-1.2059846,1.6307373,-0.5091658499999999,-0.332729825,-0.309741925,-0.2291784499999999,26.51665535,-16.92491915,-34.2690662,-45.550215,-1.4464214525,1.4930009725,1.4044573325,-0.3376544495,-0.3100880875,-0.0028457062675,0.007
10:23:42,-1.19555972,1.60684236,-0.50959402,-0.33071099,-0.30840491,-0.22587054,26.53582162,-16.92050478,-34.24169964,-45.765828,-1.438279463,1.469321387,1.382013099,-0.3344659794,-0.3086378449999999,-0.003143016061,0.007
10:23:42,-1.18513484,1.58294742,-0.5100221899999999,-0.328692155,-0.307067895,-0.2225626299999999,26.55498789,-16.91609041,-34.21433308,-45.981441,-1.4301374735,1.4456418015,1.3595688655,-0.3312775093,-0.3071876025,-0.0034403258545,0.007
10:23:42,-1.17470996,1.55905248,-0.51045036,-0.32667332,-0.30573088,-0.21925472,26.57415416,-16.91167604,-34.18696652,-46.197054,-1.421995484,1.421962216,1.337124632,-0.3280890392,-0.30573736,-0.003737635648,0.007
10:23:42,-1.16428508,1.5351575400000002,-0.5108785299999999,-0.324654485,-0.304393865,-0.21594681,26.59332043,-16.90726167,-34.15959996,-46.412667,-1.4138534945,1.3982826305,1.3146803985,-0.3249005691,-0.3042871175,-0.0040349454415,0.007
10:23:42,-1.1538602,1.5112626,-0.5113067,-0.32263565,-0.30305685,-0.2126389,26.6124867,-16.9028473,-34.1322334,-46.62828,-1.405711505,1.374603045,1.292236165,-0.321712099,-0.302836875,-0.004332255235,0.007
10:23:42,-1.1434353199999998,1.48736766,-0.51173487,-0.320616815,-0.301719835,-0.20933099,26.63165297,-16.898432930000002,-34.10486684,-46.843893,-1.3975695155,1.3509234595,1.2697919315,-0.3185236288999999,-0.3013866325,-0.0046295650285,0.007
10:23:42,-1.1330104399999998,1.4634727200000002,-0.5121630399999999,-0.31859798,-0.30038282,-0.20602308,26.65081924,-16.89401856,-34.077500279999995,-47.059506,-1.389427526,1.327243874,1.247347698,-0.3153351588,-0.29993639,-0.004926874822,0.007
10:23:42,-1.12258556,1.43957778,-0.51259121,-0.316579145,-0.299045805,-0.20271517,26.66998551,-16.88960419,-34.05013372,-47.275119,-1.3812855365,1.3035642885,1.2249034645,-0.3121466887,-0.2984861474999999,-0.0052241846155,0.007
10:23:42,-1.11216068,1.41568284,-0.5130193799999999,-0.31456031,-0.29770879,-0.19940726,26.68915178,-16.88518982,-34.02276716,-47.490732,-1.373143547,1.279884703,1.202459231,-0.3089582186,-0.297035905,-0.005521494409,0.007
10:23:42,-1.1017358,1.3917879000000002,-0.51344755,-0.312541475,-0.296371775,-0.19609935,26.70831805,-16.88077545,-33.9954006,-47.706345,-1.3650015575,1.2562051175,1.1800149975,-0.3057697485,-0.2955856625,-0.0058188042025,0.007
10:23:42,-1.09131092,1.36789296,-0.5138757199999999,-0.31052264,-0.29503476,-0.1927914399999999,26.72748432,-16.87636108,-33.96803404,-47.921958,-1.356859568,1.232525532,1.157570764,-0.3025812784,-0.29413542,-0.006116113996,0.007
10:23:42,-1.08088604,1.34399802,-0.51430389,-0.308503805,-0.293697745,-0.18948353,26.74665059,-16.87194671,-33.94066748,-48.137571,-1.3487175785,1.2088459465,1.1351265305,-0.2993928083,-0.2926851775,-0.0064134237895,0.007
10:23:42,-1.0704611599999998,1.32010308,-0.5147320599999999,-0.30648497,-0.29236073,-0.1861756199999999,26.76581686,-16.86753234,-33.91330092,-48.353184,-1.340575589,1.185166361,1.112682297,-0.2962043382,-0.291234935,-0.006710733583,0.007
10:23:42,-1.0600362799999998,1.29620814,-0.51516023,-0.304466135,-0.291023715,-0.18286771,26.78498313,-16.86311797,-33.88593436,-48.568797,-1.3324335995,1.1614867755,1.0902380635,-0.2930158681,-0.2897846925,-0.0070080433765,0.007
10:23:42,-1.0496114,1.2723132,-0.5155884,-0.3024473,-0.2896867,-0.1795598,26.8041494,-16.858703600000002,-33.8585678,-48.78441,-1.32429161,1.13780719,1.06779383,-0.289827398,-0.28833445,-0.00730535317,0.007
10:23:42,-1.03918652,1.2484182600000002,-0.51601657,-0.300428465,-0.288349685,-0.17625189,26.82331567,-16.85428923,-33.83120124,-49.000023,-1.3161496205,1.1141276045,1.0453495965,-0.2866389279,-0.2868842075,-0.0076026629635,0.007
10:23:42,-1.02876164,1.22452332,-0.51644474,-0.29840963,-0.28701267,-0.17294398,26.84248194,-16.84987486,-33.80383468,-49.215636,-1.308007631,1.090448019,1.022905363,-0.2834504578,-0.285433965,-0.007899972757,0.007
10:23:42,-1.01833676,1.20062838,-0.5168729099999999,-0.296390795,-0.285675655,-0.16963607,26.86164821,-16.84546049,-33.77646812,-49.431249,-1.2998656415,1.0667684335,1.0004611295,-0.2802619877,-0.2839837225,-0.0081972825505,0.007
10:23:42,-1.00791188,1.17673344,-0.51730108,-0.29437196,-0.28433864,-0.16632816,26.88081448,-16.84104612,-33.74910156,-49.646862,-1.291723652,1.043088848,0.978016896,-0.2770735176,-0.28253348,-0.008494592344,0.007
10:23:42,-0.997487,1.1528385,-0.5177292499999999,-0.292353125,-0.283001625,-0.1630202499999999,26.89998075,-16.836631750000002,-33.721734999999995,-49.862475,-1.2835816625,1.0194092625,0.9555726625,-0.2738850475,-0.2810832374999999,-0.0087919021375,0.007
10:23:42,-0.9870621199999998,1.1289435600000002,-0.51815742,-0.29033429,-0.28166461,-0.15971234,26.91914702,-16.83221738,-33.69436844,-50.078088,-1.275439673,0.995729677,0.933128429,-0.2706965773999999,-0.279632995,-0.009089211931,0.007
10:23:42,-0.97663724,1.1050486200000005,-0.5185855899999999,-0.288315455,-0.280327595,-0.1564044299999999,26.93831329,-16.82780301,-33.66700188,-50.293701,-1.2672976835,0.9720500915,0.9106841955,-0.2675081072999999,-0.2781827525,-0.0093865217245,0.007
10:23:42,-0.96621236,1.08115368,-0.51901376,-0.28629662,-0.27899058,-0.15309652,26.95747956,-16.82338864,-33.63963532,-50.509314,-1.259155694,0.948370506,0.888239962,-0.2643196372,-0.27673251,-0.009683831518,0.007
10:23:42,-0.95578748,1.05725874,-0.5194419299999999,-0.284277785,-0.277653565,-0.14978861,26.97664583,-16.818974270000002,-33.61226876,-50.724927,-1.2510137045,0.9246909205,0.8657957285,-0.2611311671,-0.2752822675,-0.0099811413115,0.007
10:23:42,-0.9453626,1.0333638,-0.5198701,-0.28225895,-0.27631655,-0.1464807,26.9958121,-16.8145599,-33.5849022,-50.94054,-1.242871715,0.901011335,0.8433514950000001,-0.257942697,-0.273832025,-0.010278451105,0.007
10:23:42,-0.93493772,1.00946886,-0.52029827,-0.280240115,-0.274979535,-0.14317279,27.01497837,-16.81014553,-33.55753564,-51.156153,-1.2347297255,0.8773317495,0.8209072615,-0.2547542269,-0.2723817825,-0.0105757608985,0.007
10:23:42,-0.92451284,0.98557392,-0.52072644,-0.27822128,-0.27364252,-0.13986488,27.03414464,-16.80573116,-33.53016908,-51.371766,-1.226587736,0.853652164,0.798463028,-0.2515657568,-0.2709315399999999,-0.010873070692,0.007
10:23:42,-0.9140879599999998,0.96167898,-0.52115461,-0.276202445,-0.272305505,-0.13655697,27.05331091,-16.80131679,-33.50280252,-51.587379,-1.2184457465,0.8299725785,0.7760187945,-0.2483772867,-0.2694812975,-0.0111703804855,0.007
10:23:42,-0.9036630799999998,0.9377840400000002,-0.5215827799999999,-0.27418361,-0.27096849,-0.13324906,27.07247718,-16.796902420000002,-33.47543596,-51.802992,-1.210303757,0.806292993,0.753574561,-0.2451888166,-0.268031055,-0.011467690279,0.007
10:23:42,-0.8932381999999999,0.9138891,-0.52201095,-0.272164775,-0.269631475,-0.12994115,27.09164345,-16.79248805,-33.4480694,-52.018605,-1.2021617675,0.7826134075,0.7311303275000001,-0.2420003465,-0.2665808125,-0.0117650000725,0.007
10:23:42,-0.8828133199999999,0.8899941600000001,-0.5224391199999999,-0.27014594,-0.26829446,-0.1266332399999999,27.11080972,-16.78807368,-33.42070284,-52.234218,-1.194019778,0.758933822,0.708686094,-0.2388118764,-0.26513057,-0.012062309866,0.007
10:23:42,-0.8723884399999999,0.8660992200000001,-0.52286729,-0.268127105,-0.266957445,-0.12332533,27.12997599,-16.78365931,-33.39333628,-52.449831,-1.1858777885,0.7352542365,0.6862418605,-0.2356234063,-0.2636803275,-0.0123596196595,0.007
10:23:42,-0.86196356,0.8422042800000001,-0.5232954599999999,-0.26610827,-0.26562043,-0.1200174199999999,27.14914226,-16.77924494,-33.365969719999995,-52.665444,-1.177735799,0.711574651,0.663797627,-0.2324349362,-0.262230085,-0.012656929453,0.007
10:23:42,-0.8515386799999999,0.8183093400000001,-0.52372363,-0.264089435,-0.264283415,-0.1167095099999999,27.16830853,-16.77483057,-33.33860316,-52.881057,-1.1695938095,0.6878950655,0.6413533935,-0.2292464661,-0.2607798424999999,-0.0129542392465,0.007
10:23:42,-0.8411137999999999,0.7944144000000001,-0.5241518,-0.2620706,-0.2629464,-0.1134015999999999,27.1874748,-16.7704162,-33.3112366,-53.09667,-1.16145182,0.66421548,0.6189091600000001,-0.226057996,-0.2593296,-0.01325154904,0.007
10:23:42,-0.8306889199999998,0.7705194600000002,-0.52457997,-0.260051765,-0.261609385,-0.11009369,27.20664107,-16.76600183,-33.28387004,-53.312283,-1.1533098305,0.6405358945,0.5964649265,-0.2228695259,-0.2578793575,-0.0135488588335,0.007
10:23:42,-0.8202640399999999,0.7466245200000001,-0.52500814,-0.25803293,-0.26027237,-0.10678578,27.22580734,-16.76158746,-33.25650348,-53.527896,-1.145167841,0.616856309,0.574020693,-0.2196810558,-0.256429115,-0.013846168627,0.007
10:23:42,-0.8098391599999999,0.7227295800000002,-0.52543631,-0.256014095,-0.258935355,-0.10347787,27.24497361,-16.757173090000002,-33.22913692,-53.743509,-1.1370258515,0.5931767235000001,0.5515764595,-0.2164925857,-0.2549788725,-0.0141434784205,0.007
10:23:42,-0.7994142799999999,0.6988346400000001,-0.52586448,-0.25399526,-0.25759834,-0.10016996,27.26413988,-16.75275872,-33.20177036,-53.959122,-1.128883862,0.569497138,0.529132226,-0.2133041156,-0.25352863,-0.014440788214,0.007
10:23:42,-0.7889894,0.6749397000000001,-0.5262926499999999,-0.251976425,-0.256261325,-0.09686205,27.28330615,-16.74834435,-33.1744038,-54.174735,-1.1207418725,0.5458175525,0.5066879925000001,-0.2101156455,-0.2520783875,-0.0147380980075,0.007
10:23:42,-0.7785645199999999,0.65104476,-0.52672082,-0.24995759,-0.25492431,-0.09355414,27.30247242,-16.74392998,-33.14703724,-54.390348,-1.112599883,0.5221379669999999,0.4842437589999999,-0.2069271754,-0.2506281449999999,-0.015035407801,0.007
10:23:42,-0.7681396399999999,0.6271498200000001,-0.5271489899999999,-0.247938755,-0.253587295,-0.09024623,27.32163869,-16.73951561,-33.11967068,-54.605961,-1.1044578935,0.4984583815000001,0.4617995255,-0.2037387053,-0.2491779025,-0.0153327175945,0.007
10:23:42,-0.7577147599999998,0.6032548800000002,-0.52757716,-0.24591992,-0.25225028,-0.08693832,27.34080496,-16.73510124,-33.09230412,-54.821574,-1.096315904,0.474778796,0.4393552919999999,-0.2005502352,-0.24772766,-0.015630027388,0.007
10:23:42,-0.7472898799999999,0.57935994,-0.5280053299999999,-0.243901085,-0.250913265,-0.0836304099999999,27.35997123,-16.73068687,-33.06493756,-55.037187,-1.0881739145,0.4510992105,0.4169110585,-0.1973617651,-0.2462774174999999,-0.0159273371815,0.007
10:23:42,-0.7368649999999999,0.5554650000000001,-0.5284335,-0.24188225,-0.24957625,-0.0803224999999999,27.3791375,-16.7262725,-33.037571,-55.2528,-1.080031925,0.4274196249999999,0.3944668250000001,-0.194173295,-0.244827175,-0.016224646975,0.007
10:23:42,-0.7264401199999999,0.5315700600000002,-0.52886167,-0.239863415,-0.248239235,-0.07701459,27.39830377,-16.72185813,-33.010204439999995,-55.468413,-1.0718899355,0.4037400394999999,0.3720225914999999,-0.1909848249,-0.2433769324999999,-0.0165219567685,0.007
10:23:42,-0.7160152399999998,0.50767512,-0.52928984,-0.23784458,-0.24690222,-0.07370668,27.41747004,-16.717443760000002,-32.98283788,-55.684026,-1.063747946,0.3800604540000001,0.349578358,-0.1877963548,-0.24192669,-0.016819266562,0.007
10:23:42,-0.7055903599999999,0.4837801800000001,-0.52971801,-0.235825745,-0.245565205,-0.07039877,27.43663631,-16.71302939,-32.95547132,-55.899639,-1.0556059565,0.3563808685,0.3271341244999999,-0.1846078847,-0.2404764475,-0.0171165763555,0.007
10:23:42,-0.6951654799999999,0.4598852400000002,-0.53014618,-0.23380691,-0.24422819,-0.06709086,27.45580258,-16.70861502,-32.92810476,-56.115252,-1.047463967,0.332701283,0.304689891,-0.1814194146,-0.239026205,-0.017413886149,0.007
10:23:42,-0.6847405999999999,0.4359903,-0.53057435,-0.231788075,-0.242891175,-0.06378295,27.47496885,-16.70420065,-32.9007382,-56.330865,-1.0393219775,0.3090216974999999,0.2822456575000001,-0.1782309445,-0.2375759625,-0.0177111959425,0.007
10:23:42,-0.6743157199999998,0.4120953600000001,-0.5310025199999999,-0.22976924,-0.24155416,-0.06047504,27.49413512,-16.69978628,-32.87337164,-56.546478,-1.031179988,0.2853421119999999,0.2598014239999999,-0.1750424744,-0.2361257199999999,-0.018008505736,0.007
10:23:42,-0.6638908399999999,0.3882004200000002,-0.53143069,-0.227750405,-0.240217145,-0.05716713,27.51330139,-16.69537191,-32.84600508,-56.762091,-1.0230379985,0.2616625265000001,0.2373571905,-0.1718540043,-0.2346754775,-0.0183058155295,0.007
10:23:42,-0.6534659599999999,0.36430548,-0.5318588599999999,-0.22573157,-0.23888013,-0.05385922,27.53246766,-16.69095754,-32.81863852,-56.977704,-1.014896009,0.237982941,0.2149129569999999,-0.1686655342,-0.2332252349999999,-0.018603125323,0.007
10:23:42,-0.6430410799999998,0.3404105400000001,-0.53228703,-0.223712735,-0.237543115,-0.0505513099999999,27.55163393,-16.68654317,-32.79127196,-57.193317,-1.0067540195,0.2143033555,0.1924687235,-0.1654770641,-0.2317749925,-0.0189004351165,0.007
10:23:42,-0.6326161999999999,0.3165156,-0.5327151999999999,-0.2216939,-0.2362061,-0.0472433999999999,27.5708002,-16.6821288,-32.7639054,-57.40893,-0.99861203,0.1906237699999999,0.17002449,-0.162288594,-0.23032475,-0.01919774491,0.007
10:23:42,-0.6221913199999999,0.2926206600000001,-0.53314337,-0.219675065,-0.234869085,-0.0439354899999999,27.58996647,-16.67771443,-32.73653884,-57.624543,-0.9904700405,0.1669441844999999,0.1475802564999999,-0.1591001239,-0.2288745075,-0.0194950547035,0.007
10:23:42,-0.6117664399999999,0.2687257200000001,-0.53357154,-0.21765623,-0.23353207,-0.0406275799999999,27.60913274,-16.67330006,-32.70917228,-57.840156,-0.982328051,0.1432645990000001,0.125136023,-0.1559116538,-0.227424265,-0.019792364497,0.007
10:23:42,-0.6013415599999998,0.24483078,-0.53399971,-0.215637395,-0.232195055,-0.03731967,27.62829901,-16.66888569,-32.68180572,-58.055769,-0.9741860615,0.1195850135,0.1026917894999999,-0.1527231837,-0.2259740224999999,-0.0200896742905,0.007
10:23:42,-0.5909166799999999,0.2209358400000001,-0.53442788,-0.21361856,-0.23085804,-0.03401176,27.64746528,-16.66447132,-32.65443916,-58.271382,-0.966044072,0.095905428,0.080247556,-0.1495347136,-0.22452378,-0.020386984084,0.007
10:23:42,-0.5804917999999999,0.1970409000000001,-0.53485605,-0.211599725,-0.229521025,-0.03070385,27.66663155,-16.66005695,-32.6270726,-58.486995,-0.9579020825,0.0722258424999999,0.0578033225,-0.1463462435,-0.2230735374999999,-0.0206842938775,0.007
10:23:42,-0.5700669199999998,0.17314596,-0.53528422,-0.20958089,-0.22818401,-0.02739594,27.68579782,-16.65564258,-32.59970604,-58.702608,-0.949760093,0.0485462569999999,0.0353590889999999,-0.1431577734,-0.221623295,-0.020981603671,0.007
10:23:42,-0.5596420399999998,0.1492510200000001,-0.53571239,-0.207562055,-0.226846995,-0.02408803,27.70496409,-16.65122821,-32.57233948,-58.918221,-0.9416181035,0.0248666715000001,0.0129148555,-0.1399693033,-0.2201730525,-0.0212789134645,0.007
10:23:42,-0.5492171599999999,0.1253560800000002,-0.53614056,-0.20554322,-0.22550998,-0.02078012,27.72413036,-16.64681384,-32.54497292,-59.133834,-0.933476114,0.001187086,-0.009529378,-0.1367808332,-0.21872281,-0.021576223258,0.007
10:23:42,-0.5387922799999999,0.10146114,-0.5365687299999999,-0.203524385,-0.224172965,-0.01747221,27.74329663,-16.64239947,-32.51760636,-59.349447,-0.9253341245,-0.0224924994999999,-0.0319736115,-0.1335923631,-0.2172725674999999,-0.0218735330515,0.007
10:23:42,-0.5283673999999998,0.0775662000000001,-0.5369969,-0.20150555,-0.22283595,-0.0141642999999999,27.7624629,-16.6379851,-32.4902398,-59.56506,-0.917192135,-0.046172085,-0.0544178449999999,-0.130403893,-0.2158223249999999,-0.022170842845,0.007
10:23:42,-0.5179425199999999,0.05367126,-0.53742507,-0.199486715,-0.221498935,-0.0108563899999999,27.78162917,-16.63357073,-32.46287324,-59.780673,-0.9090501455,-0.0698516705,-0.0768620785,-0.1272154229,-0.2143720825,-0.0224681526385,0.007
10:23:42,-0.5075176399999999,0.02977632,-0.53785324,-0.19746788,-0.22016192,-0.0075484799999999,27.80079544,-16.62915636,-32.43550668,-59.996286,-0.900908156,-0.0935312559999999,-0.0993063119999999,-0.1240269528,-0.2129218399999999,-0.022765462432,0.007
10:23:42,-0.4970927599999998,0.0058813800000001,-0.53828141,-0.195449045,-0.218824905,-0.0042405699999999,27.81996171,-16.62474199,-32.40814012,-60.211899,-0.8927661665,-0.1172108414999999,-0.1217505455,-0.1208384827,-0.2114715975,-0.0230627722255,0.007
10:23:42,-0.4866678799999998,-0.0180135599999999,-0.53870958,-0.19343021,-0.21748789,-0.00093266,27.83912798,-16.62032762,-32.38077356,-60.427512,-0.884624177,-0.1408904269999999,-0.144194779,-0.1176500126,-0.210021355,-0.023360082019,0.007
10:23:42,-0.4762429999999998,-0.0419084999999999,-0.53913775,-0.191411375,-0.216150875,0.0023752499999999,27.85829425,-16.61591325,-32.353407,-60.643125,-0.8764821875,-0.1645700125,-0.1666390124999999,-0.1144615425,-0.2085711125,-0.0236573918125,0.007
10:23:42,-0.4658181199999999,-0.0658034399999998,-0.53956592,-0.18939254,-0.21481386,0.00568316,27.87746052,-16.61149888,-32.32604044,-60.858738,-0.868340198,-0.188249598,-0.189083246,-0.1112730724,-0.20712087,-0.023954701606,0.007
10:23:42,-0.4553932399999998,-0.0896983799999999,-0.53999409,-0.187373705,-0.213476845,0.0089910699999999,27.89662679,-16.60708451,-32.29867388,-61.074351,-0.8601982085,-0.2119291834999999,-0.2115274794999999,-0.1080846023,-0.2056706274999999,-0.0242520113995,0.007
10:23:42,-0.4449683599999998,-0.1135933199999998,-0.5404222599999999,-0.18535487,-0.21213983,0.01229898,27.91579306,-16.60267014,-32.27130732,-61.289964,-0.852056219,-0.2356087689999999,-0.233971713,-0.1048961322,-0.204220385,-0.024549321193,0.007
10:23:42,-0.4345434799999998,-0.1374882599999998,-0.54085043,-0.183336035,-0.210802815,0.0156068899999999,27.93495933,-16.59825577,-32.24394076,-61.505577,-0.8439142295,-0.2592883545,-0.2564159465,-0.1017076620999999,-0.2027701424999999,-0.0248466309865,0.007
10:23:42,-0.4241185999999999,-0.1613831999999999,-0.5412785999999999,-0.1813172,-0.2094658,0.0189148,27.9541256,-16.5938414,-32.2165742,-61.72119,-0.8357722399999999,-0.28296794,-0.2788601799999999,-0.098519192,-0.2013199,-0.02514394078,0.007
10:23:42,-0.4136937199999998,-0.1852781399999998,-0.54170677,-0.179298365,-0.208128785,0.0222227099999999,27.97329187,-16.58942703,-32.18920764,-61.936803,-0.8276302504999999,-0.3066475255000001,-0.3013044135,-0.0953307219,-0.1998696575,-0.0254412505735,0.007
10:23:42,-0.4032688399999998,-0.2091730799999998,-0.54213494,-0.17727953,-0.20679177,0.02553062,27.99245814,-16.58501266,-32.16184108,-62.152416,-0.8194882609999999,-0.3303271109999999,-0.3237486469999999,-0.0921422518,-0.198419415,-0.025738560367,0.007
10:23:42,-0.3928439599999999,-0.2330680199999999,-0.54256311,-0.175260695,-0.205454755,0.0288385299999999,28.01162441,-16.58059829,-32.13447452,-62.368029,-0.8113462714999999,-0.3540066964999999,-0.3461928805000001,-0.0889537817,-0.1969691725,-0.0260358701605,0.007
10:23:42,-0.3824190799999998,-0.2569629599999998,-0.54299128,-0.17324186,-0.20411774,0.03214644,28.03079068,-16.576183920000002,-32.10710796,-62.583642,-0.8032042819999999,-0.377686282,-0.368637114,-0.0857653116,-0.1955189299999999,-0.026333179954,0.007
10:23:42,-0.3719941999999998,-0.2808578999999997,-0.54341945,-0.171223025,-0.202780725,0.0354543499999999,28.04995695,-16.57176955,-32.0797414,-62.799255,-0.7950622924999999,-0.4013658674999998,-0.3910813475000001,-0.0825768415,-0.1940686875,-0.0266304897475,0.007
10:23:42,-0.3615693199999998,-0.3047528399999997,-0.54384762,-0.16920419,-0.20144371,0.0387622599999999,28.06912322,-16.56735518,-32.05237484,-63.014868,-0.7869203029999999,-0.4250454529999998,-0.413525581,-0.0793883713999999,-0.192618445,-0.026927799541,0.007
10:23:42,-0.3511444399999999,-0.32864778,-0.54427579,-0.167185355,-0.200106695,0.04207017,28.08828949,-16.56294081,-32.02500828,-63.230481,-0.7787783134999999,-0.4487250384999999,-0.4359698144999999,-0.0761999013,-0.1911682025,-0.0272251093345,0.007
10:23:42,-0.3407195599999998,-0.35254272,-0.54470396,-0.16516652,-0.19876968,0.0453780799999999,28.10745576,-16.55852644,-31.99764172,-63.446094,-0.7706363239999999,-0.4724046239999999,-0.4584140480000001,-0.0730114312,-0.18971796,-0.027522419128,0.007
10:23:42,-0.3302946799999998,-0.3764376599999999,-0.54513213,-0.163147685,-0.197432665,0.04868599,28.12662203,-16.55411207,-31.97027516,-63.661707,-0.7624943344999999,-0.4960842095,-0.4808582815,-0.0698229611,-0.1882677175,-0.0278197289215,0.007
10:23:42,-0.3198697999999998,-0.4003325999999998,-0.5455603,-0.16112885,-0.19609565,0.0519938999999999,28.1457883,-16.5496977,-31.9429086,-63.87732,-0.7543523449999999,-0.519763795,-0.5033025149999999,-0.066634491,-0.1868174749999999,-0.028117038715,0.007
10:23:42,-0.3094449199999998,-0.4242275399999997,-0.54598847,-0.159110015,-0.194758635,0.05530181,28.16495457,-16.54528333,-31.91554204,-64.092933,-0.7462103554999999,-0.5434433805000001,-0.5257467484999998,-0.0634460209,-0.1853672325,-0.0284143485085,0.007
10:23:42,-0.2990200399999998,-0.4481224800000001,-0.54641664,-0.15709118,-0.19342162,0.0586097199999999,28.18412084,-16.54086896,-31.88817548,-64.308546,-0.7380683659999999,-0.5671229660000001,-0.5481909820000002,-0.0602575508,-0.18391699,-0.028711658302,0.007
10:23:42,-0.2885951599999998,-0.47201742,-0.54684481,-0.155072345,-0.192084605,0.06191763,28.20328711,-16.53645459,-31.86080892,-64.524159,-0.7299263764999999,-0.5908025515000002,-0.5706352155000001,-0.0570690807,-0.1824667475,-0.0290089680955,0.007
10:23:42,-0.2781702799999999,-0.4959123599999999,-0.54727298,-0.15305351,-0.19074759,0.0652255399999999,28.22245338,-16.53204022,-31.83344236,-64.739772,-0.7217843869999999,-0.6144821369999998,-0.593079449,-0.0538806105999999,-0.181016505,-0.029306277889,0.007
10:23:42,-0.2677453999999998,-0.5198072999999999,-0.54770115,-0.151034675,-0.189410575,0.06853345,28.24161965,-16.52762585,-31.8060758,-64.955385,-0.7136423974999999,-0.6381617224999998,-0.6155236824999999,-0.0506921405,-0.1795662625,-0.0296035876825,0.007
10:23:42,-0.2573205199999997,-0.5437022399999998,-0.54812932,-0.14901584,-0.18807356,0.0718413599999999,28.26078592,-16.52321148,-31.77870924,-65.170998,-0.705500408,-0.6618413079999999,-0.6379679160000002,-0.0475036704,-0.1781160199999999,-0.029900897476,0.007
10:23:42,-0.2468956399999997,-0.5675971799999997,-0.54855749,-0.146997005,-0.186736545,0.0751492699999999,28.27995219,-16.51879711,-31.75134268,-65.386611,-0.6973584185,-0.6855208934999999,-0.6604121495000002,-0.0443152003,-0.1766657774999999,-0.0301982072695,0.007
10:23:42,-0.2364707599999997,-0.5914921200000001,-0.54898566,-0.14497817,-0.18539953,0.07845718,28.29911846,-16.51438274,-31.72397612,-65.602224,-0.689216429,-0.7092004789999999,-0.6828563830000001,-0.0411267302,-0.175215535,-0.030495517063,0.007
10:23:42,-0.2260458799999998,-0.61538706,-0.54941383,-0.142959335,-0.184062515,0.0817650899999999,28.31828473,-16.50996837,-31.69660956,-65.817837,-0.6810744395,-0.7328800645,-0.7053006165,-0.0379382601,-0.1737652925,-0.0307928268565,0.007
10:23:42,-0.2156209999999998,-0.6392819999999999,-0.5498419999999999,-0.1409405,-0.1827255,0.085073,28.337451,-16.505554,-31.669243,-66.03345,-0.67293245,-0.75655965,-0.7277448499999999,-0.03474979,-0.17231505,-0.03109013665,0.007
10:23:42,-0.2051961199999998,-0.6631769399999998,-0.55027017,-0.138921665,-0.181388485,0.0883809099999999,28.35661727,-16.50113963,-31.64187644,-66.249063,-0.6647904605,-0.7802392355000001,-0.7501890835000002,-0.0315613198999999,-0.1708648075,-0.0313874464435,0.007
10:23:42,-0.1947712399999999,-0.6870718799999997,-0.55069834,-0.13690283,-0.18005147,0.09168882,28.37578354,-16.49672526,-31.61450988,-66.464676,-0.656648471,-0.8039188210000001,-0.7726333170000002,-0.0283728498,-0.169414565,-0.031684756237,0.007
10:23:42,-0.1843463599999999,-0.7109668200000001,-0.55112651,-0.134883995,-0.178714455,0.0949967299999999,28.39494981,-16.49231089,-31.58714332,-66.680289,-0.6485064815,-0.8275984065000002,-0.7950775505000001,-0.0251843797,-0.1679643224999999,-0.0319820660305,0.007
10:23:42,-0.1739214799999997,-0.73486176,-0.55155468,-0.13286516,-0.17737744,0.09830464,28.41411608,-16.48789652,-31.55977676,-66.895902,-0.640364492,-0.8512779919999998,-0.817521784,-0.0219959096,-0.1665140799999999,-0.032279375824,0.007
10:23:42,-0.1634965999999997,-0.7587567,-0.55198285,-0.130846325,-0.176040425,0.1016125499999999,28.43328235,-16.48348215,-31.5324102,-67.111515,-0.6322225025,-0.8749575774999998,-0.8399660174999999,-0.0188074395,-0.1650638375,-0.0325766856175,0.007
10:23:42,-0.1530717199999998,-0.7826516399999999,-0.55241102,-0.12882749,-0.17470341,0.10492046,28.45244862,-16.47906778,-31.50504364,-67.327128,-0.624080513,-0.8986371629999999,-0.8624102510000002,-0.0156189694,-0.163613595,-0.032873995411,0.007
10:23:42,-0.1426468399999998,-0.8065465799999998,-0.55283919,-0.126808655,-0.173366395,0.10822837,28.47161489,-16.47465341,-31.47767708,-67.542741,-0.6159385235,-0.9223167485,-0.8848544845000001,-0.0124304993,-0.1621633525,-0.0331713052045,0.007
10:23:42,-0.1322219599999998,-0.8304415199999997,-0.55326736,-0.12478982,-0.17202938,0.1115362799999999,28.49078116,-16.47023904,-31.45031052,-67.758354,-0.607796534,-0.945996334,-0.907298718,-0.0092420292,-0.16071311,-0.0334686149979999,0.007
10:23:42,-0.1217970799999998,-0.8543364600000001,-0.55369553,-0.122770985,-0.170692365,0.11484419,28.50994743,-16.46582467,-31.42294396,-67.973967,-0.5996545445,-0.9696759195,-0.9297429515,-0.0060535590999999,-0.1592628675,-0.0337659247915,0.007
10:23:42,-0.1113721999999999,-0.8782314,-0.5541237,-0.12075215,-0.16935535,0.1181520999999999,28.5291137,-16.4614103,-31.3955774,-68.18958,-0.591512555,-0.993355505,-0.952187185,-0.002865089,-0.1578126249999999,-0.034063234585,0.007
10:23:42,-0.1009473199999997,-0.90212634,-0.5545518700000001,-0.118733315,-0.168018335,0.12146001,28.54827997,-16.45699593,-31.36821084,-68.405193,-0.5833705655,-1.0170350905,-0.9746314185000002,0.0003233810999999,-0.1563623824999999,-0.0343605443785,0.007
10:23:42,-0.0905224399999997,-0.9260212799999998,-0.55498004,-0.11671448,-0.16668132,0.1247679199999999,28.56744624,-16.45258156,-31.34084428,-68.620806,-0.575228576,-1.040714676,-0.997075652,0.0035118511999999,-0.15491214,-0.034657854172,0.007
10:23:42,-0.0800975599999997,-0.9499162199999998,-0.55540821,-0.114695645,-0.165344305,0.12807583,28.58661251,-16.44816719,-31.31347772,-68.836419,-0.5670865865,-1.0643942615000002,-1.0195198855,0.0067003212999999,-0.1534618975,-0.0349551639655,0.007
10:23:42,-0.0696726799999998,-0.9738111599999996,-0.55583638,-0.11267681,-0.16400729,0.1313837399999999,28.60577878,-16.44375282,-31.28611116,-69.052032,-0.558944597,-1.0880738469999998,-1.041964119,0.0098887913999999,-0.152011655,-0.035252473759,0.007
10:23:42,-0.0592477999999998,-0.9977061,-0.55626455,-0.110657975,-0.162670275,0.13469165,28.62494505,-16.43933845,-31.2587446,-69.267645,-0.5508026075,-1.1117534324999998,-1.0644083525,0.0130772614999999,-0.1505614125,-0.0355497835525,0.007
10:23:42,-0.0488229199999998,-1.02160104,-0.55669272,-0.10863914,-0.16133326,0.1379995599999999,28.64411132,-16.43492408,-31.23137804,-69.483258,-0.542660618,-1.1354330179999998,-1.0868525860000002,0.0162657316,-0.14911117,-0.035847093346,0.007
10:23:42,-0.0383980399999999,-1.04549598,-0.55712089,-0.106620305,-0.159996245,0.14130747,28.66327759,-16.43050971,-31.20401148,-69.698871,-0.5345186285,-1.1591126035,-1.1092968195,0.0194542016999999,-0.1476609274999999,-0.0361444031395,0.007
10:23:42,-0.0279731599999997,-1.0693909199999998,-0.55754906,-0.10460147,-0.15865923,0.14461538,28.68244386,-16.42609534,-31.17664492,-69.914484,-0.526376639,-1.182792189,-1.131741053,0.0226426717999999,-0.146210685,-0.036441712933,0.007
10:23:42,-0.0175482799999997,-1.0932858599999995,-0.55797723,-0.102582635,-0.157322215,0.1479232899999999,28.70161013,-16.42168097,-31.14927836,-70.130097,-0.5182346495,-1.2064717745,-1.1541852865,0.0258311418999999,-0.1447604425,-0.0367390227265,0.007
10:23:42,-0.0071233999999997,-1.1171808,-0.5584054,-0.1005638,-0.1559852,0.1512312,28.7207764,-16.4172666,-31.1219118,-70.34571,-0.51009266,-1.23015136,-1.17662952,0.0290196119999999,-0.1433102,-0.03703633252,0.007
10:23:42,0.0033014800000001,-1.14107574,-0.55883357,-0.098544965,-0.154648185,0.1545391099999999,28.73994267,-16.41285223,-31.09454524,-70.561323,-0.5019506705,-1.2538309455,-1.1990737535000002,0.0322080820999999,-0.1418599575,-0.0373336423135,0.007
10:23:42,0.0137263600000001,-1.16497068,-0.55926174,-0.09652613,-0.15331117,0.15784702,28.75910894,-16.40843786,-31.06717868,-70.776936,-0.4938086809999999,-1.277510531,-1.221517987,0.0353965521999999,-0.140409715,-0.037630952107,0.007
10:23:42,0.0241512400000001,-1.1888656199999998,-0.55968991,-0.094507295,-0.151974155,0.1611549299999999,28.77827521,-16.40402349,-31.03981212,-70.992549,-0.4856666914999998,-1.3011901165000002,-1.2439622205,0.0385850222999999,-0.1389594725,-0.0379282619005,0.007
10:23:42,0.0345761200000001,-1.2127605599999998,-0.56011808,-0.09248846,-0.15063714,0.16446284,28.79744148,-16.39960912,-31.01244556,-71.208162,-0.4775247019999999,-1.3248697019999998,-1.266406454,0.0417734924,-0.1375092299999999,-0.0382255716939999,0.007
10:23:42,0.0450010000000002,-1.2366554999999997,-0.56054625,-0.090469625,-0.149300125,0.1677707499999999,28.81660775,-16.39519475,-30.985079,-71.423775,-0.4693827124999998,-1.3485492874999998,-1.2888506875,0.0449619624999999,-0.1360589875,-0.0385228814875,0.007
10:23:42,0.0554258800000002,-1.26055044,-0.56097442,-0.08845079,-0.14796311,0.17107866,28.83577402,-16.39078038,-30.95771244,-71.639388,-0.4612407229999999,-1.3722288729999998,-1.3112949210000002,0.0481504325999999,-0.134608745,-0.038820191281,0.007
10:23:42,0.0658507600000002,-1.28444538,-0.56140259,-0.086431955,-0.146626095,0.1743865699999999,28.85494029,-16.38636601,-30.93034588,-71.855001,-0.4530987334999998,-1.3959084585,-1.3337391545,0.0513389026999999,-0.1331585025,-0.0391175010745,0.007
10:23:42,0.0762756400000002,-1.30834032,-0.56183076,-0.08441312,-0.14528908,0.17769448,28.87410656,-16.38195164,-30.90297932,-72.070614,-0.4449567439999999,-1.419588044,-1.356183388,0.0545273727999999,-0.13170826,-0.039414810868,0.007
10:23:42,0.0867005200000001,-1.3322352599999998,-0.56225893,-0.082394285,-0.143952065,0.18100239,28.89327283,-16.37753727,-30.87561276,-72.286227,-0.4368147545,-1.4432676295,-1.3786276215,0.0577158428999999,-0.1302580175,-0.0397121206615,0.007
10:23:42,0.0971254000000001,-1.3561301999999995,-0.5626871,-0.08037545,-0.14261505,0.1843102999999999,28.9124391,-16.3731229,-30.8482462,-72.50184,-0.4286727649999999,-1.466947215,-1.401071855,0.0609043129999999,-0.1288077749999999,-0.040009430455,0.007
10:23:42,0.1075502800000001,-1.38002514,-0.5631152700000001,-0.078356615,-0.141278035,0.18761821,28.93160537,-16.36870853,-30.82087964,-72.717453,-0.4205307755,-1.4906268005,-1.4235160885000002,0.0640927831,-0.1273575324999999,-0.0403067402485,0.007
10:23:42,0.1179751600000003,-1.40392008,-0.56354344,-0.07633778,-0.13994102,0.1909261199999999,28.95077164,-16.36429416,-30.79351308,-72.933066,-0.4123887859999999,-1.514306386,-1.445960322,0.0672812531999999,-0.12590729,-0.040604050042,0.007
10:23:42,0.1284000400000002,-1.42781502,-0.5639716100000001,-0.074318945,-0.138604005,0.19423403,28.96993791,-16.35987979,-30.76614652,-73.148679,-0.4042467965,-1.5379859714999995,-1.4684045555,0.0704697232999999,-0.1244570475,-0.0409013598355,0.007
10:23:42,0.1388249200000002,-1.45170996,-0.56439978,-0.07230011,-0.13726699,0.1975419399999999,28.98910418,-16.35546542,-30.73877996,-73.364292,-0.3961048069999999,-1.5616655569999998,-1.490848789,0.0736581933999999,-0.123006805,-0.041198669629,0.007
10:23:42,0.1492498000000002,-1.4756048999999998,-0.56482795,-0.070281275,-0.135929975,0.20084985,29.00827045,-16.35105105,-30.7114134,-73.579905,-0.3879628175,-1.5853451424999998,-1.5132930225,0.0768466634999999,-0.1215565624999999,-0.0414959794225,0.007
10:23:42,0.1596746800000001,-1.4994998399999997,-0.56525612,-0.06826244,-0.13459296,0.2041577599999999,29.02743672,-16.34663668,-30.68404684,-73.795518,-0.3798208279999999,-1.6090247279999998,-1.5357372560000002,0.0800351335999999,-0.1201063199999999,-0.041793289216,0.007
10:23:42,0.1700995600000001,-1.52339478,-0.56568429,-0.0662436049999999,-0.133255945,0.20746567,29.04660299,-16.34222231,-30.65668028,-74.011131,-0.3716788385,-1.6327043135,-1.5581814895,0.0832236036999999,-0.1186560774999999,-0.0420905990095,0.007
10:23:42,0.1805244400000001,-1.54728972,-0.56611246,-0.0642247699999999,-0.13191893,0.2107735799999999,29.06576926,-16.33780794,-30.62931372,-74.226744,-0.3635368489999999,-1.656383899,-1.580625723,0.0864120737999999,-0.1172058349999999,-0.042387908803,0.007
10:23:42,0.1909493200000003,-1.57118466,-0.56654063,-0.0622059349999999,-0.130581915,0.2140814899999999,29.08493553,-16.33339357,-30.60194716,-74.442357,-0.3553948595,-1.6800634845,-1.6030699565,0.0896005439,-0.1157555925,-0.0426852185965,0.007
10:23:42,0.2013742000000002,-1.5950795999999998,-0.5669688,-0.0601870999999999,-0.1292449,0.2173894,29.1041018,-16.3289792,-30.5745806,-74.65797,-0.3472528699999999,-1.70374307,-1.62551419,0.0927890139999999,-0.11430535,-0.04298252839,0.007
10:23:42,0.2117990800000002,-1.6189745399999995,-0.56739697,-0.058168265,-0.127907885,0.2206973099999999,29.12326807,-16.32456483,-30.54721404,-74.873583,-0.3391108805,-1.7274226555,-1.6479584235000002,0.0959774840999999,-0.1128551075,-0.0432798381835,0.007
10:23:42,0.2222239600000002,-1.64286948,-0.5678251400000001,-0.05614943,-0.12657087,0.22400522,29.14243434,-16.32015046,-30.51984748,-75.089196,-0.3309688909999999,-1.751102241,-1.670402657,0.0991659541999999,-0.1114048649999999,-0.043577147977,0.007
10:23:42,0.2326488400000002,-1.66676442,-0.56825331,-0.054130595,-0.125233855,0.2273131299999999,29.16160061,-16.31573609,-30.49248092,-75.304809,-0.3228269015,-1.7747818264999995,-1.6928468905,0.1023544242999999,-0.1099546224999999,-0.0438744577705,0.007
10:23:42,0.2430737200000001,-1.69065936,-0.56868148,-0.05211176,-0.12389684,0.23062104,29.18076688,-16.31132172,-30.46511436,-75.520422,-0.3146849119999999,-1.7984614119999998,-1.715291124,0.1055428943999999,-0.1085043799999999,-0.044171767564,0.007
10:23:42,0.2534986000000001,-1.7145543,-0.56910965,-0.050092925,-0.122559825,0.2339289499999999,29.19993315,-16.30690735,-30.4377478,-75.736035,-0.3065429225,-1.8221409975,-1.7377353575,0.1087313644999999,-0.1070541375,-0.0444690773575,0.007
10:23:42,0.2639234800000003,-1.7384492399999998,-0.5695378200000001,-0.04807409,-0.12122281,0.23723686,29.21909942,-16.30249298,-30.41038124,-75.951648,-0.2984009329999999,-1.845820583,-1.7601795910000002,0.1119198345999999,-0.105603895,-0.044766387151,0.007
10:23:42,0.2743483600000003,-1.7623441799999997,-0.56996599,-0.046055255,-0.119885795,0.2405447699999999,29.23826569,-16.29807861,-30.38301468,-76.167261,-0.2902589435,-1.8695001685,-1.7826238245,0.1151083046999999,-0.1041536525,-0.0450636969445,0.007
10:23:42,0.2847732400000002,-1.78623912,-0.57039416,-0.04403642,-0.11854878,0.24385268,29.25743196,-16.29366424,-30.35564812,-76.382874,-0.2821169539999999,-1.893179754,-1.805068058,0.1182967747999999,-0.10270341,-0.045361006738,0.007
10:23:42,0.2951981200000002,-1.81013406,-0.57082233,-0.042017585,-0.117211765,0.2471605899999999,29.27659823,-16.28924987,-30.32828156,-76.598487,-0.2739749645,-1.9168593395,-1.8275122915,0.1214852448999999,-0.1012531674999999,-0.0456583165315,0.007
10:23:42,0.3056230000000002,-1.834029,-0.5712505,-0.03999875,-0.11587475,0.2504685,29.2957645,-16.2848355,-30.300915,-76.8141,-0.2658329749999999,-1.940538925,-1.849956525,0.1246737149999999,-0.0998029249999999,-0.045955626325,0.007
10:23:42,0.3160478800000001,-1.85792394,-0.57167867,-0.037979915,-0.114537735,0.25377641,29.31493077,-16.28042113,-30.27354844,-77.029713,-0.2576909855,-1.9642185105,-1.8724007585,0.1278621850999999,-0.0983526824999999,-0.0462529361185,0.007
10:23:42,0.3264727600000001,-1.88181888,-0.57210684,-0.0359610799999999,-0.11320072,0.25708432,29.33409704,-16.27600676,-30.24618188,-77.245326,-0.2495489959999999,-1.987898096,-1.894844992,0.1310506551999999,-0.09690244,-0.046550245912,0.007
10:23:42,0.3368976400000003,-1.90571382,-0.5725350100000001,-0.0339422449999999,-0.111863705,0.26039223,29.35326331,-16.27159239,-30.21881532,-77.460939,-0.2414070065,-2.0115776814999995,-1.9172892255,0.1342391252999999,-0.0954521975,-0.0468475557055,0.007
10:23:42,0.3473225200000003,-1.92960876,-0.57296318,-0.0319234099999999,-0.11052669,0.2637001399999999,29.37242958,-16.26717802,-30.19144876,-77.676552,-0.2332650169999999,-2.0352572669999995,-1.939733459,0.1374275954,-0.094001955,-0.047144865499,0.007
10:23:42,0.3577474000000002,-1.9535037,-0.5733913500000001,-0.0299045749999999,-0.109189675,0.2670080499999999,29.39159585,-16.26276365,-30.164082200000003,-77.892165,-0.2251230275,-2.0589368525,-1.9621776925,0.1406160654999999,-0.0925517125,-0.0474421752925,0.007
10:23:42,0.3681722800000002,-1.97739864,-0.57381952,-0.0278857399999999,-0.10785266,0.27031596,29.41076212,-16.25834928,-30.13671564,-78.107778,-0.2169810379999999,-2.082616438,-1.984621926,0.1438045355999999,-0.0911014699999999,-0.047739485086,0.007
10:23:42,0.3785971600000002,-2.00129358,-0.57424769,-0.0258669049999999,-0.106515645,0.27362387,29.42992839,-16.253934909999998,-30.10934908,-78.323391,-0.2088390485,-2.1062960235,-2.0070661595,0.1469930057,-0.0896512274999999,-0.0480367948795,0.007
10:23:42,0.3890220400000002,-2.0251885199999995,-0.57467586,-0.02384807,-0.10517863,0.2769317799999999,29.44909466,-16.24952054,-30.08198252,-78.539004,-0.2006970589999999,-2.129975609,-2.029510393,0.1501814758,-0.0882009849999999,-0.048334104673,0.007
10:23:42,0.3994469200000001,-2.0490834600000003,-0.57510403,-0.021829235,-0.103841615,0.2802396899999999,29.46826093,-16.24510617,-30.05461596,-78.754617,-0.1925550695,-2.1536551945,-2.0519546265,0.1533699458999999,-0.0867507425,-0.0486314144665,0.007
10:23:42,0.4098718000000001,-2.0729784,-0.5755322,-0.0198104,-0.1025046,0.2835476,29.4874272,-16.2406918,-30.0272494,-78.97023,-0.1844130799999999,-2.17733478,-2.07439886,0.1565584159999999,-0.0853005,-0.04892872426,0.007
10:23:42,0.4202966800000003,-2.09687334,-0.57596037,-0.017791565,-0.101167585,0.28685551,29.50659347,-16.23627743,-29.99988284,-79.185843,-0.1762710905,-2.2010143655,-2.0968430935000004,0.1597468860999999,-0.0838502575,-0.0492260340535,0.007
10:23:42,0.4307215600000003,-2.12076828,-0.5763885400000001,-0.01577273,-0.09983057,0.2901634199999999,29.52575974,-16.23186306,-29.97251628,-79.401456,-0.1681291009999999,-2.224693951,-2.1192873270000003,0.1629353561999999,-0.082400015,-0.049523343847,0.007
10:23:42,0.4411464400000002,-2.14466322,-0.57681671,-0.013753895,-0.098493555,0.29347133,29.54492601,-16.22744869,-29.94514972,-79.617069,-0.1599871115,-2.2483735365,-2.1417315605,0.1661238262999999,-0.0809497724999999,-0.0498206536405,0.007
10:23:42,0.4515713200000002,-2.16855816,-0.5772448800000001,-0.01173506,-0.09715654,0.29677924,29.56409228,-16.22303432,-29.91778316,-79.832682,-0.1518451219999999,-2.272053122,-2.164175794,0.1693122963999999,-0.0794995299999999,-0.050117963434,0.007
10:23:42,0.4619962000000002,-2.1924531,-0.57767305,-0.009716225,-0.095819525,0.3000871499999999,29.58325855,-16.21861995,-29.8904166,-80.048295,-0.1437031325,-2.2957327075,-2.1866200275,0.1725007664999999,-0.0780492874999999,-0.0504152732275,0.007
10:23:42,0.4724210800000001,-2.21634804,-0.57810122,-0.00769739,-0.09448251,0.3033950599999999,29.60242482,-16.214205579999998,-29.86305004,-80.263908,-0.1355611429999998,-2.319412293,-2.209064261,0.1756892365999999,-0.076599045,-0.050712583021,0.007
10:23:42,0.4828459600000001,-2.24024298,-0.57852939,-0.005678555,-0.093145495,0.30670297,29.62159109,-16.20979121,-29.83568348,-80.479521,-0.1274191535,-2.3430918785,-2.2315084945,0.1788777066999999,-0.0751488025,-0.0510098928145,0.007
10:23:42,0.4932708400000003,-2.26413792,-0.5789575600000001,-0.00365972,-0.09180848,0.31001088,29.64075736,-16.20537684,-29.808316920000003,-80.695134,-0.1192771639999998,-2.366771464,-2.253952728,0.1820661767999999,-0.07369856,-0.051307202608,0.007
10:23:42,0.5036957200000003,-2.2880328599999995,-0.57938573,-0.0016408849999999,-0.090471465,0.3133187899999999,29.65992363,-16.20096247,-29.78095036,-80.910747,-0.1111351744999999,-2.3904510494999998,-2.2763969615,0.1852546469,-0.0722483174999999,-0.0516045124015,0.007
10:23:42,0.5141206000000003,-2.3119277999999994,-0.5798139,0.00037795,-0.08913445,0.3166266999999999,29.6790899,-16.1965481,-29.7535838,-81.12636,-0.1029931849999998,-2.414130635,-2.2988411950000005,0.188443117,-0.0707980749999999,-0.051901822195,0.007
10:23:42,0.5245454800000002,-2.33582274,-0.58024207,0.002396785,-0.087797435,0.31993461,29.69825617,-16.19213373,-29.72621724,-81.341973,-0.0948511954999999,-2.4378102204999994,-2.3212854285000004,0.1916315871,-0.0693478324999999,-0.0521991319885,0.007
10:23:42,0.5349703600000002,-2.3597176799999997,-0.58067024,0.00441562,-0.08646042,0.32324252,29.71742244,-16.18771936,-29.69885068,-81.557586,-0.0867092059999998,-2.4614898059999994,-2.3437296620000003,0.1948200572,-0.06789759,-0.052496441782,0.007
10:23:42,0.5453952400000002,-2.38361262,-0.5810984100000001,0.006434455,-0.085123405,0.3265504299999999,29.73658871,-16.18330499,-29.67148412,-81.773199,-0.0785672164999999,-2.4851693914999995,-2.3661738955,0.1980085273,-0.0664473474999999,-0.0527937515755,0.007
10:23:42,0.5558201200000001,-2.40750756,-0.58152658,0.00845329,-0.08378639,0.32985834,29.75575498,-16.17889062,-29.64411756,-81.988812,-0.0704252269999998,-2.5088489769999995,-2.388618129,0.2011969973999999,-0.064997105,-0.053091061369,0.007
10:23:42,0.5662450000000003,-2.4314025,-0.5819547500000001,0.0104721249999999,-0.082449375,0.33316625,29.77492125,-16.174476249999998,-29.616751,-82.204425,-0.0622832374999999,-2.5325285625,-2.4110623625,0.2043854674999999,-0.0635468624999999,-0.0533883711625,0.007
10:23:42,0.5766698800000003,-2.45529744,-0.58238292,0.0124909599999999,-0.08111236,0.3364741599999999,29.79408752,-16.17006188,-29.589384440000003,-82.420038,-0.0541412479999998,-2.556208148,-2.433506596,0.2075739375999999,-0.0620966199999999,-0.053685680956,0.007
10:23:42,0.5870947600000003,-2.47919238,-0.5828110900000001,0.0145097949999999,-0.079775345,0.3397820699999999,29.81325379,-16.16564751,-29.562017880000003,-82.635651,-0.0459992584999999,-2.5798877335,-2.4559508295,0.2107624076999999,-0.0606463775,-0.0539829907495,0.007
10:23:42,0.5975196400000002,-2.50308732,-0.58323926,0.0165286299999999,-0.07843833,0.34308998,29.83242006,-16.16123314,-29.53465132,-82.851264,-0.0378572689999998,-2.603567319,-2.478395063,0.2139508777999999,-0.0591961349999999,-0.054280300543,0.007
10:23:42,0.6079445200000002,-2.52698226,-0.58366743,0.0185474649999999,-0.077101315,0.34639789,29.85158633,-16.15681877,-29.50728476,-83.066877,-0.0297152794999999,-2.6272469045,-2.5008392965,0.2171393478999999,-0.0577458925,-0.0545776103365,0.007
10:23:42,0.6183694000000002,-2.5508771999999995,-0.5840956,0.0205662999999999,-0.0757643,0.3497057999999999,29.8707526,-16.152404399999998,-29.4799182,-83.28249,-0.0215732899999998,-2.65092649,-2.52328353,0.2203278179999999,-0.0562956499999999,-0.05487492013,0.007
10:23:42,0.6287942800000001,-2.5747721399999994,-0.58452377,0.0225851349999999,-0.074427285,0.3530137099999999,29.88991887,-16.14799003,-29.452551640000003,-83.49810300000001,-0.0134313004999999,-2.6746060755,-2.5457277634999995,0.2235162880999999,-0.0548454075,-0.0551722299235,0.007
10:23:42,0.6392191600000003,-2.59866708,-0.5849519400000001,0.0246039699999999,-0.07309027,0.35632162,29.90908514,-16.14357566,-29.42518508,-83.713716,-0.0052893109999998,-2.698285661,-2.5681719969999994,0.2267047581999999,-0.053395165,-0.055469539717,0.007
10:23:42,0.6496440400000003,-2.6225620199999997,-0.58538011,0.0266228049999999,-0.071753255,0.35962953,29.92825141,-16.13916129,-29.39781852,-83.929329,0.0028526785,-2.7219652465,-2.5906162305,0.2298932282999999,-0.0519449224999999,-0.0557668495105,0.007
10:23:42,0.6600689200000003,-2.64645696,-0.5858082800000001,0.02864164,-0.07041624,0.3629374399999999,29.94741768,-16.13474692,-29.37045196,-84.14494200000001,0.0109946680000001,-2.745644832,-2.613060464,0.2330816983999999,-0.05049468,-0.056064159304,0.007
10:23:42,0.6704938000000003,-2.6703519,-0.58623645,0.030660475,-0.069079225,0.36624535,29.96658395,-16.13033255,-29.3430854,-84.360555,0.0191366575,-2.7693244175,-2.6355046975,0.2362701685,-0.0490444374999999,-0.0563614690975,0.007
10:23:42,0.6809186800000002,-2.69424684,-0.5866646200000001,0.03267931,-0.06774221,0.36955326,29.98575022,-16.12591818,-29.31571884,-84.576168,0.0272786470000001,-2.793004003,-2.657948931,0.2394586386,-0.047594195,-0.056658778891,0.007
10:23:42,0.6913435600000002,-2.71814178,-0.58709279,0.034698145,-0.066405195,0.3728611699999999,30.00491649,-16.12150381,-29.28835228,-84.79178100000001,0.0354206365,-2.8166835885,-2.6803931645,0.2426471087,-0.0461439524999999,-0.0569560886845,0.007
10:23:42,0.7017684400000002,-2.74203672,-0.58752096,0.03671698,-0.06506818,0.3761690799999999,30.02408276,-16.11708944,-29.26098572,-85.007394,0.0435626260000001,-2.8403631739999997,-2.702837398,0.2458355788,-0.04469371,-0.057253398478,0.007
10:23:42,0.7121933200000004,-2.76593166,-0.58794913,0.038735815,-0.063731165,0.37947699,30.04324903,-16.112675069999998,-29.233619160000003,-85.223007,0.0517046155,-2.8640427594999998,-2.7252816315,0.2490240488999999,-0.0432434675,-0.0575507082715,0.007
10:23:42,0.7226182000000003,-2.7898266,-0.5883773000000001,0.04075465,-0.06239415,0.3827849,30.0624153,-16.1082607,-29.206252600000003,-85.43862000000001,0.0598466050000001,-2.887722345,-2.747725865,0.2522125189999999,-0.0417932249999999,-0.057848018065,0.007
10:23:42,0.7330430800000003,-2.8137215399999995,-0.58880547,0.042773485,-0.061057135,0.3860928099999999,30.08158157,-16.10384633,-29.17888604,-85.654233,0.0679885945,-2.9114019304999994,-2.7701700984999995,0.2554009890999999,-0.0403429825,-0.0581453278585,0.007
10:23:42,0.7434679600000005,-2.8376164799999994,-0.58923364,0.04479232,-0.05972012,0.3894007199999999,30.10074784,-16.09943196,-29.15151948,-85.869846,0.0761305839999999,-2.9350815159999994,-2.7926143320000003,0.2585894591999999,-0.0388927399999999,-0.058442637652,0.007
10:23:42,0.7538928400000005,-2.86151142,-0.5896618100000001,0.0468111549999999,-0.0583831049999999,0.39270863,30.11991411,-16.09501759,-29.12415292,-86.08545900000001,0.0842725735,-2.9587611014999995,-2.8150585655,0.2617779292999999,-0.0374424975,-0.0587399474455,0.007
10:23:42,0.7643177200000004,-2.8854063599999997,-0.59008998,0.0488299899999999,-0.0570460899999999,0.39601654,30.13908038,-16.09060322,-29.096786360000003,-86.301072,0.0924145629999999,-2.9824406869999995,-2.837502799,0.2649663993999999,-0.0359922549999999,-0.059037257239,0.007
10:23:42,0.7747426000000004,-2.9093013,-0.5905181500000001,0.0508488249999999,-0.055709075,0.3993244499999999,30.15824665,-16.08618885,-29.0694198,-86.516685,0.1005565525,-3.0061202725,-2.8599470325,0.2681548694999999,-0.0345420125,-0.0593345670325,0.007
10:23:42,0.7851674800000004,-2.93319624,-0.59094632,0.0528676599999999,-0.05437206,0.40263236,30.17741292,-16.08177448,-29.04205324,-86.73229800000001,0.1086985419999999,-3.029799858,-2.882391266,0.2713433395999999,-0.03309177,-0.059631876826,0.007
10:23:42,0.7955923600000003,-2.95709118,-0.5913744900000001,0.0548864949999999,-0.053035045,0.40594027,30.19657919,-16.07736011,-29.01468668,-86.947911,0.1168405315,-3.0534794435,-2.9048354995,0.2745318096999999,-0.0316415274999999,-0.0599291866195,0.007
10:23:42,0.8060172400000003,-2.98098612,-0.59180266,0.0569053299999999,-0.05169803,0.4092481799999999,30.21574546,-16.072945739999998,-28.98732012,-87.163524,0.1249825209999999,-3.077159029,-2.927279733,0.2777202797999999,-0.030191285,-0.060226496413,0.007
10:23:42,0.8164421200000003,-3.00488106,-0.5922308300000001,0.0589241649999999,-0.050361015,0.4125560899999999,30.23491173,-16.06853137,-28.95995356,-87.37913700000001,0.1331245105,-3.1008386145,-2.9497239665,0.2809087499,-0.0287410424999999,-0.0605238062065,0.007
10:23:43,0.826867,-3.028776,-0.592659,0.060943,-0.049024,0.415864,30.254078,-16.064117,-28.932587,-87.59475,0.1412665,-3.1245182,-2.9721682,0.28409722,-0.0272908,-0.060821116,0.007
10:23:43,0.7999424900000001,-3.00101851,-0.5939741500000001,0.0658436,-0.0492051099999999,0.41233237,30.30521209,-16.026677235,-28.94256045,-87.188627482,0.1174078374999999,-3.1076475953,-2.9403474175,0.2851481788,-0.02432304075,-0.06562760692,0.007
10:23:43,0.77301798,-2.9732610200000003,-0.5952893,0.0707442,-0.04938622,0.40880074,30.35634618,-15.98923747,-28.9525339,-86.78250496400001,0.0935491749999999,-3.0907769906,-2.908526635,0.2861991376,-0.0213552815,-0.07043409784,0.007
10:23:43,0.74609347,-2.9455035300000003,-0.5966044500000001,0.0756448,-0.04956733,0.40526911,30.40748027,-15.951797705,-28.962507350000003,-86.37638244600001,0.0696905124999999,-3.0739063859,-2.8767058525,0.2872500964,-0.01838752225,-0.07524058876,0.007
10:23:43,0.71916896,-2.91774604,-0.5979196,0.0805454,-0.04974844,0.40173748,30.45861436,-15.91435794,-28.972480800000003,-85.970259928,0.0458318499999999,-3.0570357812,-2.84488507,0.2883010552,-0.015419763,-0.08004707968,0.007
10:23:43,0.69224445,-2.88998855,-0.59923475,0.085446,-0.0499295499999999,0.39820585,30.50974845,-15.876918175,-28.98245425,-85.56413741,0.0219731874999999,-3.0401651765,-2.8130642875,0.289352014,-0.01245200375,-0.0848535706,0.007
10:23:43,0.66531994,-2.86223106,-0.6005499000000001,0.0903466,-0.05011066,0.39467422,30.56088254,-15.83947841,-28.9924277,-85.15801489200001,-0.001885475,-3.0232945718,-2.781243505,0.2904029728,-0.0094842445,-0.08966006152,0.007
10:23:43,0.63839543,-2.83447357,-0.60186505,0.0952472,-0.05029177,0.39114259,30.61201663,-15.802038645,-29.00240115,-84.75189237400001,-0.0257441375,-3.0064239671,-2.7494227225,0.2914539316,-0.00651648525,-0.0944665524399999,0.007
10:23:43,0.61147092,-2.80671608,-0.6031802,0.1001478,-0.05047288,0.38761096,30.66315072,-15.76459888,-29.0123746,-84.345769856,-0.0496028,-2.9895533624,-2.71760194,0.2925048904,-0.003548726,-0.09927304336,0.007
10:23:43,0.58454641,-2.77895859,-0.6044953500000001,0.1050484,-0.0506539899999999,0.38407933,30.71428481,-15.727159115,-29.02234805,-83.939647338,-0.0734614625,-2.9726827577,-2.6857811575,0.2935558492,-0.00058096675,-0.10407953428,0.007
10:23:43,0.5576219,-2.7512011000000003,-0.6058105,0.109949,-0.0508351,0.3805477,30.7654189,-15.68971935,-29.0323215,-83.53352482000001,-0.097320125,-2.955812153,-2.653960375,0.294606808,0.0023867924999999,-0.1088860252,0.007
10:23:43,0.53069739,-2.7234436100000003,-0.6071256500000001,0.1148496,-0.05101621,0.37701607,30.81655299,-15.652279585,-29.04229495,-83.12740230200001,-0.1211787875,-2.9389415483,-2.6221395925,0.2956577668,0.0053545517499999,-0.11369251612,0.007
10:23:43,0.50377288,-2.69568612,-0.6084408,0.1197502,-0.05119732,0.37348444,30.86768708,-15.61483982,-29.052268400000003,-82.721279784,-0.14503745,-2.9220709436,-2.5903188100000003,0.2967087256,0.0083223109999999,-0.1184990070399999,0.007
10:23:43,0.4768483699999999,-2.66792863,-0.60975595,0.1246508,-0.0513784299999999,0.36995281,30.91882117,-15.577400055,-29.062241850000003,-82.315157266,-0.1688961125,-2.9052003389,-2.5584980275,0.2977596844,0.0112900702499999,-0.12330549796,0.007
10:23:43,0.44992386,-2.64017114,-0.6110711000000001,0.1295514,-0.05155954,0.36642118,30.96995526,-15.53996029,-29.0722153,-81.90903474800001,-0.192754775,-2.8883297342,-2.526677245,0.2988106432,0.0142578294999999,-0.12811198888,0.007
10:23:43,0.42299935,-2.61241365,-0.61238625,0.134452,-0.05174065,0.36288955,31.02108935,-15.502520525,-29.08218875,-81.50291223,-0.2166134375,-2.8714591295,-2.4948564625,0.299861602,0.0172255887499999,-0.1329184798,0.007
10:23:43,0.39607484,-2.58465616,-0.6137014000000001,0.1393526,-0.05192176,0.35935792,31.07222344,-15.46508076,-29.0921622,-81.096789712,-0.2404721,-2.8545885248,-2.46303568,0.3009125608,0.0201933479999999,-0.13772497072,0.007
10:23:43,0.3691503299999999,-2.5568986700000003,-0.61501655,0.1442532,-0.0521028699999999,0.35582629,31.12335753,-15.427640995,-29.10213565,-80.690667194,-0.2643307625000001,-2.8377179201,-2.4312148975000003,0.3019635196,0.0231611072499999,-0.14253146164,0.007
10:23:43,0.3422258199999999,-2.52914118,-0.6163317,0.1491538,-0.05228398,0.35229466,31.17449162,-15.39020123,-29.1121091,-80.28454467600001,-0.2881894250000001,-2.8208473154,-2.399394115,0.3030144784,0.0261288664999999,-0.14733795256,0.007
10:23:43,0.3153013099999999,-2.50138369,-0.6176468500000001,0.1540544,-0.05246509,0.34876303,31.22562571,-15.352761465,-29.12208255,-79.878422158,-0.3120480875,-2.8039767107,-2.3675733325,0.3040654372,0.0290966257499999,-0.15214444348,0.007
10:23:43,0.2883768,-2.4736262,-0.618962,0.158955,-0.0526462,0.3452314,31.2767598,-15.3153217,-29.132056,-79.47229964,-0.33590675,-2.787106106,-2.33575255,0.3051163959999999,0.032064385,-0.1569509344,0.007
10:23:43,0.2614522899999999,-2.44586871,-0.62027715,0.1638556,-0.05282731,0.34169977,31.32789389,-15.277881935,-29.142029450000003,-79.066177122,-0.3597654125,-2.7702355013,-2.3039317675,0.3061673548,0.0350321442499999,-0.16175742532,0.007
10:23:43,0.2345277799999999,-2.41811122,-0.6215923000000001,0.1687562,-0.05300842,0.33816814,31.37902798,-15.24044217,-29.152002900000003,-78.66005460400001,-0.383624075,-2.7533648966,-2.2721109850000003,0.3072183135999999,0.0379999034999999,-0.16656391624,0.007
10:23:43,0.20760327,-2.39035373,-0.62290745,0.1736568,-0.05318953,0.33463651,31.43016207,-15.203002405,-29.16197635,-78.253932086,-0.4074827375000001,-2.7364942919,-2.2402902025,0.3082692723999999,0.0409676627499999,-0.17137040716,0.007
10:23:43,0.1806787599999999,-2.36259624,-0.6242226000000001,0.1785574,-0.05337064,0.33110488,31.48129616,-15.16556264,-29.1719498,-77.847809568,-0.4313414000000001,-2.7196236872,-2.20846942,0.3093202311999999,0.0439354219999999,-0.17617689808,0.007
10:23:43,0.1537542499999999,-2.3348387500000003,-0.62553775,0.183458,-0.0535517499999999,0.32757325,31.53243025,-15.128122875,-29.18192325,-77.44168705,-0.4552000625000001,-2.7027530825,-2.1766486375,0.3103711899999999,0.0469031812499999,-0.180983389,0.007
10:23:43,0.1268297399999999,-2.30708126,-0.6268529,0.1883586,-0.05373286,0.32404162,31.58356434,-15.09068311,-29.1918967,-77.03556453200001,-0.4790587250000001,-2.6858824778,-2.144827855,0.3114221487999999,0.0498709404999999,-0.18578987992,0.007
10:23:43,0.0999052299999999,-2.27932377,-0.6281680500000001,0.1932592,-0.05391397,0.32050999,31.63469843,-15.053243345,-29.20187015,-76.629442014,-0.5029173875000001,-2.6690118731,-2.1130070725000003,0.3124731075999999,0.0528386997499999,-0.19059637084,0.007
10:23:43,0.07298072,-2.25156628,-0.6294832,0.1981598,-0.05409508,0.31697836,31.68583252,-15.01580358,-29.2118436,-76.223319496,-0.52677605,-2.6521412684,-2.08118629,0.3135240663999999,0.0558064589999999,-0.19540286176,0.007
10:23:43,0.0460562099999999,-2.22380879,-0.6307983500000001,0.2030604,-0.05427619,0.31344673,31.73696661,-14.978363815,-29.22181705,-75.817196978,-0.5506347125000001,-2.6352706637,-2.0493655075,0.3145750251999999,0.0587742182499999,-0.20020935268,0.007
10:23:43,0.0191316999999999,-2.1960513,-0.6321135,0.207961,-0.0544573,0.3099151,31.7881007,-14.94092405,-29.2317905,-75.41107446000001,-0.5744933750000001,-2.618400059,-2.017544725,0.3156259839999999,0.0617419774999999,-0.2050158436,0.007
10:23:43,-0.00779281,-2.16829381,-0.63342865,0.2128616,-0.05463841,0.30638347,31.83923479,-14.903484285,-29.241763950000003,-75.004951942,-0.5983520375000001,-2.6015294543,-1.9857239425,0.3166769427999999,0.06470973675,-0.20982233452,0.007
10:23:43,-0.03471732,-2.14053632,-0.6347438000000001,0.2177622,-0.05481952,0.30285184,31.89036888,-14.86604452,-29.2517374,-74.598829424,-0.6222107000000001,-2.5846588496,-1.95390316,0.3177279016,0.0676774959999999,-0.21462882544,0.007
10:23:43,-0.06164183,-2.11277883,-0.63605895,0.2226628,-0.05500063,0.29932021,31.94150297,-14.828604755,-29.26171085,-74.192706906,-0.6460693625000001,-2.5677882449,-1.9220823775,0.3187788604,0.0706452552499999,-0.21943531636,0.007
10:23:43,-0.08856634,-2.08502134,-0.6373741,0.2275634,-0.05518174,0.29578858,31.99263706,-14.79116499,-29.2716843,-73.78658438800001,-0.6699280250000001,-2.5509176402,-1.890261595,0.3198298192,0.0736130144999999,-0.22424180728,0.007
10:23:43,-0.11549085,-2.05726385,-0.6386892500000001,0.232464,-0.05536285,0.29225695,32.04377115,-14.753725225,-29.28165775,-73.38046187,-0.6937866875000002,-2.5340470354999995,-1.8584408125,0.320880778,0.0765807737499999,-0.2290482982,0.007
10:23:43,-0.1424153600000001,-2.02950636,-0.6400044,0.2373646,-0.0555439599999999,0.28872532,32.09490524,-14.71628546,-29.2916312,-72.974339352,-0.7176453500000002,-2.5171764308,-1.82662003,0.3219317368,0.0795485329999999,-0.23385478912,0.007
10:23:43,-0.16933987,-2.00174887,-0.6413195500000001,0.2422652,-0.05572507,0.28519369,32.14603933,-14.678845695,-29.30160465,-72.568216834,-0.7415040125000001,-2.5003058261,-1.7947992475,0.3229826956,0.0825162922499999,-0.23866128004,0.007
10:23:43,-0.1962643800000001,-1.97399138,-0.6426347,0.2471658,-0.05590618,0.28166206,32.19717342,-14.64140593,-29.3115781,-72.16209431600001,-0.7653626750000001,-2.4834352214,-1.762978465,0.3240336544,0.0854840514999999,-0.24346777096,0.007
10:23:43,-0.22318889,-1.94623389,-0.64394985,0.2520664,-0.05608729,0.27813043,32.248307510000004,-14.603966165,-29.32155155,-71.755971798,-0.7892213375000001,-2.4665646167,-1.7311576825,0.3250846132,0.0884518107499999,-0.24827426188,0.007
10:23:43,-0.2501134,-1.9184764,-0.6452650000000001,0.256967,-0.0562683999999999,0.2745988,32.2994416,-14.5665264,-29.331525000000003,-71.34984928,-0.8130800000000001,-2.449694012,-1.6993369,0.326135572,0.0914195699999999,-0.2530807528,0.007
10:23:43,-0.27703791,-1.89071891,-0.64658015,0.2618676,-0.05644951,0.27106717,32.35057569,-14.529086635,-29.341498450000003,-70.94372676200001,-0.8369386625000002,-2.4328234073,-1.6675161175000002,0.3271865308,0.0943873292499999,-0.25788724372,0.007
10:23:43,-0.3039624200000002,-1.86296142,-0.6478953000000001,0.2667682,-0.05663062,0.26753554,32.40170978,-14.49164687,-29.3514719,-70.53760424400001,-0.8607973250000001,-2.4159528026,-1.635695335,0.3282374896,0.0973550884999999,-0.26269373464,0.007
10:23:43,-0.3308869300000001,-1.83520393,-0.64921045,0.2716688,-0.05681173,0.26400391,32.45284387,-14.454207105,-29.36144535,-70.131481726,-0.8846559875000002,-2.3990821979,-1.6038745525,0.3292884484,0.10032284775,-0.2675002255599999,0.007
10:23:43,-0.3578114400000001,-1.80744644,-0.6505256,0.2765694,-0.05699284,0.26047228,32.50397796,-14.41676734,-29.3714188,-69.725359208,-0.90851465,-2.3822115932,-1.57205377,0.3303394072,0.1032906069999999,-0.27230671648,0.007
10:23:43,-0.38473595,-1.77968895,-0.6518407500000001,0.28147,-0.05717395,0.25694065,32.55511205,-14.379327575,-29.38139225,-69.31923669,-0.9323733125000002,-2.3653409885,-1.5402329875,0.331390366,0.1062583662499999,-0.2771132074,0.007
10:23:43,-0.41166046,-1.75193146,-0.6531559,0.2863706,-0.05735506,0.25340902,32.60624614,-14.34188781,-29.3913657,-68.91311417200001,-0.956231975,-2.3484703838,-1.5084122050000002,0.3324413248,0.1092261255,-0.2819196983199999,0.007
10:23:43,-0.4385849700000002,-1.72417397,-0.65447105,0.2912712,-0.05753617,0.24987739,32.65738023,-14.304448045,-29.40133915,-68.506991654,-0.9800906375000004,-2.3315997791,-1.4765914225,0.3334922836,0.11219388475,-0.28672618924,0.007
10:23:43,-0.4655094800000001,-1.69641648,-0.6557862000000001,0.2961718,-0.0577172799999999,0.24634576,32.70851432,-14.26700828,-29.4113126,-68.100869136,-1.0039493000000002,-2.3147291744,-1.4447706400000002,0.3345432424,0.1151616439999999,-0.29153268016,0.007
10:23:43,-0.4924339900000001,-1.66865899,-0.65710135,0.3010724,-0.05789839,0.24281413,32.75964841,-14.229568515,-29.421286050000003,-67.69474661800001,-1.0278079625,-2.2978585697,-1.4129498575,0.3355942012,0.1181294032499999,-0.2963391710799999,0.007
10:23:43,-0.5193585000000001,-1.6409015,-0.6584165000000001,0.305973,-0.0580795,0.2392825,32.8107825,-14.19212875,-29.431259500000003,-67.2886241,-1.0516666250000002,-2.280987965,-1.381129075,0.33664516,0.1210971625,-0.301145662,0.007
10:23:43,-0.54628301,-1.61314401,-0.65973165,0.3108736,-0.05826061,0.23575087,32.86191659,-14.154688985,-29.44123295,-66.882501582,-1.0755252875,-2.2641173603,-1.3493082925000002,0.3376961188,0.1240649217499999,-0.30595215292,0.007
10:23:43,-0.5732075200000002,-1.58538652,-0.6610468,0.3157742,-0.05844172,0.23221924,32.91305068,-14.11724922,-29.4512064,-66.476379064,-1.0993839500000002,-2.2472467556,-1.31748751,0.3387470776,0.1270326809999999,-0.31075864384,0.007
10:23:43,-0.6001320300000001,-1.55762903,-0.6623619500000001,0.3206748,-0.05862283,0.22868761,32.96418477,-14.079809455,-29.46117985,-66.070256546,-1.1232426125,-2.2303761509,-1.2856667275000002,0.3397980364,0.13000044025,-0.31556513476,0.007
10:23:43,-0.6270565400000001,-1.52987154,-0.6636771,0.3255754,-0.05880394,0.22515598,33.01531886,-14.04236969,-29.4711533,-65.664134028,-1.1471012750000005,-2.2135055462,-1.253845945,0.3408489952,0.1329681995,-0.32037162568,0.007
10:23:43,-0.6539810500000001,-1.50211405,-0.6649922500000001,0.330476,-0.05898505,0.22162435,33.06645295,-14.004929925,-29.48112675,-65.25801151,-1.1709599375000002,-2.1966349415,-1.2220251625,0.341899954,0.1359359587499999,-0.3251781166,0.007
10:23:43,-0.68090556,-1.47435656,-0.6663074,0.3353766,-0.05916616,0.21809272,33.117587040000004,-13.96749016,-29.4911002,-64.851888992,-1.1948186,-2.1797643368,-1.1902043800000002,0.3429509128,0.1389037179999999,-0.32998460752,0.007
10:23:43,-0.7078300700000002,-1.44659907,-0.66762255,0.3402772,-0.05934727,0.21456109,33.16872113,-13.930050395,-29.50107365,-64.44576647400001,-1.2186772625000002,-2.1628937321,-1.1583835975,0.3440018716,0.14187147725,-0.33479109844,0.007
10:23:43,-0.7347545800000002,-1.41884158,-0.6689377000000001,0.3451778,-0.05952838,0.21102946,33.21985522,-13.89261063,-29.511047100000003,-64.039643956,-1.242535925,-2.1460231274,-1.1265628150000002,0.3450528304,0.1448392365,-0.33959758936,0.007
10:23:43,-0.7616790900000001,-1.39108409,-0.67025285,0.3500784,-0.05970949,0.20749783,33.27098931,-13.855170865,-29.521020550000003,-63.633521438,-1.2663945875000002,-2.1291525227,-1.0947420325,0.3461037892,0.1478069957499999,-0.34440408028,0.007
10:23:43,-0.7886036000000001,-1.3633266,-0.671568,0.354979,-0.0598906,0.2039662,33.3221234,-13.8177311,-29.530994,-63.22739892,-1.29025325,-2.112281918,-1.06292125,0.347154748,0.1507747549999999,-0.3492105712,0.007
10:23:43,-0.81552811,-1.33556911,-0.6728831500000001,0.3598796000000001,-0.06007171,0.20043457,33.37325749,-13.780291335,-29.54096745,-62.821276402,-1.3141119125000005,-2.0954113133,-1.0311004675000002,0.3482057067999999,0.15374251425,-0.35401706212,0.007
10:23:43,-0.8424526200000002,-1.30781162,-0.6741983,0.3647802,-0.06025282,0.19690294,33.42439158,-13.74285157,-29.5509409,-62.415153884000006,-1.3379705750000002,-2.0785407086,-0.999279685,0.3492566656,0.1567102735,-0.35882355304,0.007
10:23:43,-0.8693771300000002,-1.28005413,-0.6755134500000001,0.3696808,-0.06043393,0.19337131,33.47552567,-13.705411805,-29.56091435,-62.009031366,-1.3618292375000003,-2.0616701039,-0.9674589025000002,0.3503076243999999,0.1596780327499999,-0.36363004396,0.007
10:23:43,-0.8963016400000001,-1.25229664,-0.6768286,0.3745814,-0.06061504,0.18983968,33.52665976,-13.66797204,-29.5708878,-61.602908848,-1.3856879000000002,-2.0447994992,-0.93563812,0.3513585832,0.1626457919999999,-0.36843653488,0.007
10:23:43,-0.92322615,-1.22453915,-0.67814375,0.379482,-0.06079615,0.18630805,33.57779385,-13.630532275,-29.58086125,-61.19678633,-1.4095465625,-2.0279288945,-0.9038173375,0.3524095419999999,0.16561355125,-0.3732430258,0.007
10:23:43,-0.95015066,-1.19678166,-0.6794589000000001,0.3843826,-0.06097726,0.18277642,33.62892794,-13.59309251,-29.5908347,-60.790663812000005,-1.4334052250000002,-2.0110582898,-0.871996555,0.3534605008,0.1685813104999999,-0.37804951672,0.007
10:23:43,-0.9770751700000002,-1.16902417,-0.68077405,0.3892832,-0.06115837,0.17924479,33.68006203,-13.555652745,-29.60080815,-60.384541294,-1.4572638875,-1.9941876851,-0.8401757725000003,0.3545114595999999,0.1715490697499999,-0.38285600764,0.007
10:23:43,-1.0039996800000002,-1.14126668,-0.6820892000000001,0.3941838000000001,-0.06133948,0.17571316,33.73119612,-13.51821298,-29.610781600000003,-59.978418776,-1.4811225500000005,-1.9773170804,-0.8083549900000002,0.3555624184,0.1745168289999999,-0.38766249856,0.007
10:23:43,-1.03092419,-1.11350919,-0.68340435,0.3990844,-0.06152059,0.17218153,33.78233021,-13.480773215,-29.62075505,-59.572296258,-1.5049812125000002,-1.9604464757,-0.7765342075000001,0.3566133771999999,0.17748458825,-0.39246898948,0.007
10:23:43,-1.0578487,-1.0857517,-0.6847195,0.403985,-0.0617017,0.1686499,33.8334643,-13.44333345,-29.6307285,-59.166173740000005,-1.5288398750000003,-1.943575871,-0.744713425,0.3576643359999999,0.1804523474999999,-0.3972754804,0.007
10:23:43,-1.08477321,-1.05799421,-0.6860346500000001,0.4088856,-0.0618828099999999,0.16511827,33.88459839,-13.405893685,-29.64070195,-58.760051222,-1.5526985375000002,-1.9267052663,-0.7128926425,0.3587152948,0.1834201067499999,-0.40208197132,0.007
10:23:43,-1.1116977200000002,-1.03023672,-0.6873498,0.4137862,-0.06206392,0.16158664,33.93573248,-13.36845392,-29.6506754,-58.353928704,-1.5765572000000003,-1.9098346616,-0.6810718600000003,0.3597662536,0.1863878659999999,-0.40688846224,0.007
10:23:43,-1.1386222300000002,-1.00247923,-0.68866495,0.4186868,-0.06224503,0.15805501,33.986866570000004,-13.331014155,-29.66064885,-57.947806186,-1.6004158625000002,-1.8929640569,-0.6492510775000002,0.3608172124,0.18935562525,-0.41169495316,0.007
10:23:43,-1.16554674,-0.97472174,-0.6899801000000001,0.4235874,-0.06242614,0.15452338,34.03800066,-13.29357439,-29.6706223,-57.541683668000005,-1.624274525,-1.8760934522,-0.6174302950000001,0.3618681712,0.1923233844999999,-0.41650144408,0.007
10:23:43,-1.19247125,-0.9469642499999996,-0.69129525,0.4284880000000001,-0.06260725,0.15099175,34.08913475,-13.256134625,-29.68059575,-57.13556115,-1.6481331875000005,-1.8592228475,-0.5856095125,0.36291913,0.1952911437499999,-0.421307935,0.007
10:23:43,-1.2193957600000005,-0.9192067599999998,-0.6926104000000001,0.4333886,-0.06278836,0.14746012,34.14026884,-13.21869486,-29.6905692,-56.729438632,-1.6719918500000002,-1.8423522428,-0.55378873,0.3639700888,0.198258903,-0.42611442592,0.007
10:23:43,-1.24632027,-0.8914492699999998,-0.69392555,0.4382892,-0.06296947,0.14392849,34.19140293,-13.181255095,-29.700542650000003,-56.323316114,-1.6958505125000003,-1.8254816381,-0.5219679475000003,0.3650210476,0.20122666225,-0.43092091684,0.007
10:23:43,-1.2732447800000002,-0.8636917799999999,-0.6952407,0.4431898000000001,-0.06315058,0.14039686,34.24253702,-13.14381533,-29.7105161,-55.917193596,-1.7197091750000002,-1.8086110334,-0.4901471650000002,0.3660720064,0.2041944214999999,-0.43572740776,0.007
10:23:43,-1.3001692900000004,-0.83593429,-0.6965558500000001,0.4480904,-0.06333169,0.13686523,34.29367111,-13.106375565,-29.72048955,-55.511071078,-1.7435678375000003,-1.7917404286999998,-0.4583263825000001,0.3671229652,0.2071621807499999,-0.44053389868,0.007
10:23:43,-1.3270938,-0.8081768,-0.697871,0.452991,-0.0635128,0.1333336,34.3448052,-13.0689358,-29.730463,-55.10494856,-1.7674265000000002,-1.7748698239999998,-0.4265056,0.368173924,0.21012994,-0.4453403896,0.007
10:23:43,-1.3540183100000005,-0.7804193100000001,-0.6991861500000001,0.4578916,-0.06369391,0.12980197,34.39593929,-13.031496035,-29.74043645,-54.698826042,-1.7912851625,-1.7579992192999998,-0.3946848174999999,0.3692248828,0.2130976992499999,-0.45014688052,0.007
10:23:43,-1.38094282,-0.7526618199999997,-0.7005013,0.4627922000000001,-0.06387502,0.12627034,34.44707338,-12.99405627,-29.7504099,-54.292703524,-1.8151438250000005,-1.7411286145999998,-0.3628640350000003,0.3702758416,0.2160654584999999,-0.45495337144,0.007
