Timestamp,linacce_x,linacce_y,linacce_z,gyro_x,gyro_y,gyro_z,X-magnetometer,Y-magnetometer,Z-magnetometer,Yaw, worldXAccel,worldYAccel,worldZAccel,worldXgyro,worldYgyro,worldZgyro,Distance
03:29:05,-0.128826,0.811314,-1.069408,0.402001,0.486994,-0.600182,-7.474453,33.088757,-29.891716,8.4942465,-0.79734534,0.7945528,-0.78797364,-0.09477493,0.46822885,-0.76343,0.003
03:29:05,-0.12975571,0.811688215,-1.065843895,0.40139375,0.4869140999999999,-0.600533565,-7.472997005,33.08838686,-29.89100746,8.503306967499999,-0.7957993893,0.795008129,-0.7849337860000001,-0.09547345075,0.4683371801,-0.7633454567500001,0.003
03:29:05,-0.13068542,0.81206243,-1.0622797899999998,0.4007865,0.4868342,-0.60088513,-7.471541009999999,33.08801672,-29.89029892,8.512367435,-0.7942534386,0.795463458,-0.781893932,-0.0961719715,0.4684455101999999,-0.7632609135,0.003
03:29:05,-0.13161513,0.812436645,-1.058715685,0.40017925,0.4867543,-0.601236695,-7.470085014999999,33.08764658,-29.88959038,8.5214279025,-0.7927074879,0.795918787,-0.7788540780000001,-0.09687049225,0.4685538402999999,-0.7631763702500001,0.003
03:29:05,-0.13254484,0.81281086,-1.05515158,0.399572,0.4866744,-0.60158826,-7.46862902,33.087276440000004,-29.88888184,8.530488369999999,-0.7911615372,0.796374116,-0.775814224,-0.097569013,0.4686621703999999,-0.763091827,0.003
03:29:05,-0.13347455,0.813185075,-1.0515874749999998,0.39896475,0.4865945,-0.601939825,-7.467173024999999,33.0869063,-29.8881733,8.5395488375,-0.7896155865,0.796829445,-0.77277437,-0.09826753375,0.4687705004999999,-0.76300728375,0.003
03:29:05,-0.13440426,0.8135592899999999,-1.04802337,0.3983575,0.4865145999999999,-0.60229139,-7.465717029999999,33.08653616,-29.88746476,8.548609305,-0.7880696358,0.797284774,-0.769734516,-0.0989660545,0.4688788305999999,-0.7629227405000001,0.003
03:29:05,-0.13533397,0.813933505,-1.044459265,0.3977502499999999,0.4864347,-0.602642955,-7.464261035,33.08616602,-29.88675622,8.557669772499999,-0.7865236851,0.797740103,-0.766694662,-0.09966457525,0.4689871606999999,-0.76283819725,0.003
03:29:05,-0.13626368,0.81430772,-1.0408951599999998,0.397143,0.4863548,-0.60299452,-7.462805039999999,33.08579588,-29.88604768,8.56673024,-0.7849777344,0.798195432,-0.7636548080000001,-0.100363096,0.4690954907999999,-0.7627536540000001,0.003
03:29:05,-0.13719339,0.814681935,-1.037331055,0.39653575,0.4862749,-0.603346085,-7.461349044999999,33.08542574,-29.88533914,8.5757907075,-0.7834317837,0.798650761,-0.760614954,-0.10106161675,0.4692038208999999,-0.7626691107500001,0.003
03:29:05,-0.1381231,0.81505615,-1.03376695,0.3959285,0.486195,-0.60369765,-7.45989305,33.085055600000004,-29.8846306,8.584851174999999,-0.781885833,0.79910609,-0.7575751000000001,-0.1017601375,0.4693121509999999,-0.7625845675,0.003
03:29:05,-0.13905281,0.815430365,-1.0302028449999998,0.39532125,0.4861150999999999,-0.604049215,-7.458437054999999,33.08468546,-29.88392206,8.593911642499998,-0.7803398823000001,0.799561419,-0.754535246,-0.10245865825,0.4694204810999999,-0.7625000242500001,0.003
03:29:05,-0.13998252,0.81580458,-1.02663874,0.394714,0.4860352,-0.60440078,-7.456981059999999,33.08431532,-29.88321352,8.60297211,-0.7787939316,0.800016748,-0.751495392,-0.1031571789999999,0.4695288111999999,-0.762415481,0.003
03:29:05,-0.14091223,0.816178795,-1.023074635,0.39410675,0.4859553,-0.604752345,-7.455525065,33.08394518,-29.88250498,8.612032577499999,-0.7772479809,0.800472077,-0.748455538,-0.10385569975,0.4696371412999999,-0.76233093775,0.003
03:29:05,-0.14184194,0.81655301,-1.0195105299999998,0.3934995,0.4858753999999999,-0.60510391,-7.454069069999999,33.08357504,-29.88179644,8.621093044999999,-0.7757020302000001,0.800927406,-0.745415684,-0.1045542204999999,0.4697454713999999,-0.7622463945000001,0.003
03:29:05,-0.14277165,0.8169272249999999,-1.015946425,0.39289225,0.4857955,-0.605455475,-7.452613074999999,33.0832049,-29.8810879,8.6301535125,-0.7741560795,0.8013827349999999,-0.7423758300000001,-0.1052527412499999,0.4698538015,-0.76216185125,0.003
03:29:05,-0.14370136,0.8173014399999999,-1.01238232,0.392285,0.4857155999999999,-0.60580704,-7.45115708,33.082834760000004,-29.88037936,8.63921398,-0.7726101288,0.8018380639999999,-0.739335976,-0.1059512619999999,0.4699621316,-0.7620773080000001,0.003
03:29:05,-0.14463107,0.817675655,-1.008818215,0.39167775,0.4856357,-0.606158605,-7.449701084999999,33.08246462,-29.87967082,8.648274447499999,-0.7710641781,0.8022933929999999,-0.736296122,-0.1066497827499999,0.4700704617,-0.76199276475,0.003
03:29:05,-0.14556078,0.81804987,-1.00525411,0.3910705,0.4855558,-0.60651017,-7.448245089999999,33.08209448,-29.87896228,8.657334915,-0.7695182274,0.8027487219999999,-0.733256268,-0.1073483034999999,0.4701787918,-0.7619082215,0.003
03:29:05,-0.14649049,0.818424085,-1.001690005,0.39046325,0.4854758999999999,-0.606861735,-7.446789095,33.08172434,-29.87825374,8.6663953825,-0.7679722767,0.8032040509999999,-0.730216414,-0.1080468242499999,0.4702871219,-0.7618236782500001,0.003
03:29:05,-0.1474202,0.8187983,-0.9981259,0.389856,0.485396,-0.6072133,-7.445333099999999,33.0813542,-29.8775452,8.675455849999999,-0.766426326,0.8036593799999999,-0.72717656,-0.108745345,0.470395452,-0.761739135,0.003
03:29:05,-0.14834991,0.819172515,-0.994561795,0.38924875,0.4853161,-0.607564865,-7.443877104999999,33.08098406,-29.87683666,8.6845163175,-0.7648803753,0.8041147089999999,-0.724136706,-0.10944386575,0.4705037821,-0.76165459175,0.003
03:29:05,-0.14927962,0.81954673,-0.99099769,0.3886415,0.4852362,-0.60791643,-7.44242111,33.080613920000005,-29.87612812,8.693576785,-0.7633344246,0.8045700379999999,-0.7210968520000001,-0.1101423865,0.4706121122,-0.7615700485000001,0.003
03:29:05,-0.15020933,0.819920945,-0.987433585,0.3880342499999999,0.4851563,-0.608267995,-7.440965115,33.08024378,-29.87541958,8.702637252499999,-0.7617884739,0.8050253669999999,-0.718056998,-0.11084090725,0.4707204423,-0.76148550525,0.003
03:29:05,-0.15113904,0.82029516,-0.98386948,0.387427,0.4850763999999999,-0.60861956,-7.439509119999999,33.07987364,-29.87471104,8.71169772,-0.7602425232,0.8054806959999999,-0.715017144,-0.111539428,0.4708287724,-0.7614009620000001,0.003
03:29:05,-0.15206875,0.820669375,-0.980305375,0.38681975,0.4849965,-0.608971125,-7.438053125,33.0795035,-29.8740025,8.7207581875,-0.7586965725,0.805936025,-0.71197729,-0.11223794875,0.4709371025,-0.76131641875,0.003
03:29:05,-0.15299846,0.8210435899999999,-0.97674127,0.3862125,0.4849166,-0.60932269,-7.43659713,33.07913336,-29.87329396,8.729818654999999,-0.7571506218,0.806391354,-0.708937436,-0.1129364695,0.4710454326,-0.7612318755,0.003
03:29:05,-0.15392817,0.821417805,-0.973177165,0.38560525,0.4848367,-0.6096742549999999,-7.435141134999999,33.07876322,-29.87258542,8.7388791225,-0.7556046711,0.806846683,-0.705897582,-0.11363499025,0.4711537627,-0.7611473322500001,0.003
03:29:05,-0.15485788,0.82179202,-0.96961306,0.384998,0.4847568,-0.6100258199999999,-7.43368514,33.07839308,-29.87187688,8.74793959,-0.7540587204,0.807302012,-0.702857728,-0.114333511,0.4712620928,-0.761062789,0.003
03:29:05,-0.15578759,0.822166235,-0.966048955,0.38439075,0.4846768999999999,-0.6103773849999999,-7.432229145,33.078022940000004,-29.87116834,8.757000057499999,-0.7525127697,0.807757341,-0.6998178740000001,-0.11503203175,0.4713704229,-0.7609782457500001,0.003
03:29:05,-0.1567173,0.82254045,-0.96248485,0.3837835,0.484597,-0.6107289499999999,-7.430773149999999,33.0776528,-29.8704598,8.766060524999999,-0.7509668190000001,0.80821267,-0.69677802,-0.1157305525,0.471478753,-0.7608937025,0.003
03:29:05,-0.15764701,0.822914665,-0.958920745,0.38317625,0.4845171,-0.6110805149999999,-7.429317155,33.07728266,-29.86975126,8.7751209925,-0.7494208683,0.808667999,-0.693738166,-0.11642907325,0.4715870830999999,-0.76080915925,0.003
03:29:05,-0.15857672,0.82328888,-0.95535664,0.382569,0.4844371999999999,-0.6114320799999999,-7.42786116,33.07691252,-29.86904272,8.78418146,-0.7478749176,0.809123328,-0.690698312,-0.117127594,0.4716954131999999,-0.7607246160000001,0.003
03:29:05,-0.15950643,0.823663095,-0.951792535,0.38196175,0.4843573,-0.611783645,-7.426405164999999,33.07654238,-29.86833418,8.793241927499999,-0.7463289669000001,0.809578657,-0.687658458,-0.11782611475,0.4718037432999999,-0.76064007275,0.003
03:29:05,-0.16043614,0.82403731,-0.94822843,0.3813545,0.4842773999999999,-0.61213521,-7.42494917,33.07617224,-29.86762564,8.802302395,-0.7447830162,0.810033986,-0.684618604,-0.1185246355,0.4719120733999999,-0.7605555295,0.003
03:29:05,-0.1613658499999999,0.8244115249999999,-0.944664325,0.38074725,0.4841975,-0.612486775,-7.423493175,33.075802100000004,-29.8669171,8.8113628625,-0.7432370655,0.810489315,-0.68157875,-0.11922315625,0.4720204034999999,-0.7604709862500001,0.003
03:29:05,-0.16229556,0.8247857399999999,-0.94110022,0.38014,0.4841176,-0.61283834,-7.422037179999999,33.07543196,-29.86620856,8.820423329999999,-0.7416911148,0.810944644,-0.6785388960000001,-0.119921677,0.4721287335999999,-0.760386443,0.003
03:29:05,-0.1632252699999999,0.825159955,-0.937536115,0.37953275,0.4840376999999999,-0.613189905,-7.420581185,33.07506182,-29.86550002,8.8294837975,-0.7401451641,0.811399973,-0.675499042,-0.1206201977499999,0.4722370636999999,-0.7603018997500001,0.003
03:29:05,-0.16415498,0.82553417,-0.93397201,0.3789254999999999,0.4839578,-0.61354147,-7.41912519,33.07469168,-29.86479148,8.838544265,-0.7385992134,0.811855302,-0.672459188,-0.1213187185,0.4723453937999999,-0.7602173565,0.003
03:29:05,-0.1650846899999999,0.825908385,-0.930407905,0.3783182499999999,0.4838778999999999,-0.613893035,-7.417669194999999,33.07432154,-29.86408294,8.847604732499999,-0.7370532627,0.812310631,-0.669419334,-0.1220172392499999,0.4724537238999999,-0.76013281325,0.003
03:29:05,-0.1660144,0.8262826,-0.9268438,0.377711,0.483798,-0.6142446,-7.4162132,33.0739514,-29.8633744,8.8566652,-0.735507312,0.81276596,-0.66637948,-0.12271576,0.4725620539999999,-0.7600482700000001,0.003
03:29:05,-0.1669441099999999,0.826656815,-0.923279695,0.37710375,0.4837181,-0.614596165,-7.414757205,33.073581260000005,-29.86266586,8.8657256675,-0.7339613613,0.813221289,-0.663339626,-0.12341428075,0.4726703840999999,-0.75996372675,0.003
03:29:05,-0.16787382,0.82703103,-0.91971559,0.3764965,0.4836381999999999,-0.61494773,-7.413301209999999,33.07321112,-29.86195732,8.874786134999999,-0.7324154106,0.813676618,-0.660299772,-0.1241128015,0.4727787141999999,-0.7598791835,0.003
03:29:05,-0.1688035299999999,0.827405245,-0.916151485,0.37588925,0.4835583,-0.615299295,-7.411845215,33.07284098,-29.86124878,8.8838466025,-0.7308694599000001,0.8141319469999999,-0.657259918,-0.12481132225,0.4728870442999999,-0.75979464025,0.003
03:29:05,-0.16973324,0.82777946,-0.91258738,0.375282,0.4834784,-0.61565086,-7.41038922,33.07247084,-29.86054024,8.89290707,-0.7293235092,0.8145872759999999,-0.654220064,-0.125509843,0.4729953744,-0.759710097,0.003
03:29:05,-0.1706629499999999,0.828153675,-0.909023275,0.37467475,0.4833985,-0.616002425,-7.408933224999999,33.0721007,-29.8598317,8.9019675375,-0.7277775585,0.8150426049999999,-0.65118021,-0.12620836375,0.4731037045,-0.7596255537500001,0.003
03:29:05,-0.17159266,0.8285278899999999,-0.90545917,0.3740675,0.4833186,-0.61635399,-7.40747723,33.07173056,-29.85912316,8.911028004999999,-0.7262316078,0.8154979339999999,-0.6481403560000001,-0.1269068844999999,0.4732120346,-0.7595410105,0.003
03:29:05,-0.1725223699999999,0.828902105,-0.901895065,0.37346025,0.4832386999999999,-0.616705555,-7.406021235,33.071360420000005,-29.85841462,8.9200884725,-0.7246856571,0.8159532629999999,-0.645100502,-0.12760540525,0.4733203647,-0.75945646725,0.003
03:29:05,-0.17345208,0.82927632,-0.8983309599999999,0.372853,0.4831588,-0.61705712,-7.404565239999999,33.070990280000004,-29.85770608,8.92914894,-0.7231397064,0.8164085919999999,-0.642060648,-0.128303926,0.4734286948,-0.7593719240000001,0.003
03:29:05,-0.1743817899999999,0.829650535,-0.8947668549999999,0.37224575,0.4830789,-0.617408685,-7.403109245,33.07062014,-29.85699754,8.938209407499999,-0.7215937557000001,0.8168639209999999,-0.639020794,-0.12900244675,0.4735370249,-0.75928738075,0.003
03:29:05,-0.1753115,0.83002475,-0.8912027499999999,0.3716385,0.4829989999999999,-0.61776025,-7.40165325,33.07025,-29.856289,8.947269875,-0.720047805,0.8173192499999999,-0.63598094,-0.1297009675,0.473645355,-0.7592028375000001,0.003
03:29:05,-0.1762412099999999,0.830398965,-0.8876386449999999,0.37103125,0.4829191,-0.618111815,-7.400197254999999,33.06987986,-29.85558046,8.9563303425,-0.7185018543,0.817774579,-0.632941086,-0.13039948825,0.4737536851,-0.75911829425,0.003
03:29:05,-0.17717092,0.83077318,-0.88407454,0.370424,0.4828391999999999,-0.61846338,-7.398741259999999,33.06950972,-29.85487192,8.965390809999999,-0.7169559036,0.818229908,-0.629901232,-0.131098009,0.4738620152,-0.759033751,0.003
03:29:05,-0.1781006299999999,0.831147395,-0.8805104349999999,0.3698167499999999,0.4827593,-0.618814945,-7.397285265,33.06913958,-29.85416338,8.9744512775,-0.7154099529,0.818685237,-0.6268613780000001,-0.13179652975,0.4739703453,-0.7589492077500001,0.003
03:29:05,-0.1790303399999999,0.83152161,-0.87694633,0.3692094999999999,0.4826794,-0.61916651,-7.395829269999999,33.068769440000004,-29.85345484,8.983511745,-0.7138640022,0.819140566,-0.623821524,-0.1324950505,0.4740786754,-0.7588646645,0.003
03:29:05,-0.1799600499999999,0.8318958249999999,-0.873382225,0.36860225,0.4825994999999999,-0.619518075,-7.394373274999999,33.0683993,-29.8527463,8.992572212499999,-0.7123180515,0.819595895,-0.62078167,-0.13319357125,0.4741870055,-0.75878012125,0.003
03:29:05,-0.1808897599999999,0.8322700399999999,-0.8698181199999999,0.367995,0.4825196,-0.61986964,-7.39291728,33.06802916,-29.85203776,9.00163268,-0.7107721008,0.820051224,-0.617741816,-0.133892092,0.4742953356,-0.758695578,0.003
03:29:05,-0.1818194699999999,0.8326442549999999,-0.866254015,0.36738775,0.4824396999999999,-0.620221205,-7.391461284999999,33.06765902,-29.85132922,9.0106931475,-0.7092261501,0.820506553,-0.614701962,-0.13459061275,0.4744036657,-0.75861103475,0.003
03:29:05,-0.1827491799999999,0.83301847,-0.86268991,0.3667805,0.4823598,-0.62057277,-7.390005289999999,33.06728888,-29.85062068,9.019753615,-0.7076801994,0.820961882,-0.611662108,-0.1352891335,0.4745119958,-0.7585264915000001,0.003
03:29:05,-0.1836788899999999,0.833392685,-0.8591258049999999,0.36617325,0.4822799,-0.620924335,-7.388549295,33.06691874,-29.84991214,9.0288140825,-0.7061342487,0.821417211,-0.608622254,-0.13598765425,0.4746203259,-0.75844194825,0.003
03:29:05,-0.1846085999999999,0.8337669,-0.8555617,0.365566,0.4821999999999999,-0.6212759,-7.3870933,33.066548600000004,-29.8492036,9.03787455,-0.704588298,0.82187254,-0.6055824000000001,-0.136686175,0.4747286559999999,-0.758357405,0.003
03:29:05,-0.1855383099999999,0.834141115,-0.8519975949999999,0.36495875,0.4821201,-0.621627465,-7.385637304999999,33.06617846,-29.84849506,9.0469350175,-0.7030423473,0.822327869,-0.602542546,-0.13738469575,0.4748369860999999,-0.7582728617500001,0.003
03:29:05,-0.1864680199999999,0.83451533,-0.8484334899999999,0.3643515,0.4820402,-0.62197903,-7.38418131,33.06580832,-29.84778652,9.055995485,-0.7014963966000001,0.822783198,-0.599502692,-0.1380832165,0.4749453161999999,-0.7581883185,0.003
03:29:05,-0.1873977299999999,0.834889545,-0.844869385,0.36374425,0.4819603,-0.622330595,-7.382725315,33.06543818,-29.84707798,9.0650559525,-0.6999504459,0.823238527,-0.596462838,-0.13878173725,0.4750536462999999,-0.7581037752500001,0.003
03:29:05,-0.1883274399999999,0.83526376,-0.8413052799999999,0.363137,0.4818804,-0.62268216,-7.381269319999999,33.06506804,-29.84636944,9.07411642,-0.6984044952,0.823693856,-0.593422984,-0.139480258,0.4751619763999999,-0.758019232,0.003
03:29:05,-0.1892571499999999,0.835637975,-0.8377411749999999,0.36252975,0.4818004999999999,-0.623033725,-7.379813325,33.0646979,-29.8456609,9.0831768875,-0.6968585445,0.824149185,-0.59038313,-0.14017877875,0.4752703064999999,-0.75793468875,0.003
03:29:05,-0.1901868599999999,0.8360121899999999,-0.83417707,0.3619225,0.4817206,-0.62338529,-7.37835733,33.064327760000005,-29.84495236,9.092237355,-0.6953125938,0.824604514,-0.587343276,-0.1408772995,0.4753786365999999,-0.7578501455000001,0.003
03:29:05,-0.1911165699999999,0.8363864049999999,-0.8306129649999999,0.36131525,0.4816407,-0.623736855,-7.376901334999999,33.063957620000004,-29.84424382,9.1012978225,-0.6937666431,0.825059843,-0.5843034220000001,-0.14157582025,0.4754869666999999,-0.75776560225,0.003
03:29:05,-0.1920462799999999,0.83676062,-0.8270488599999999,0.360708,0.4815608,-0.62408842,-7.37544534,33.06358748,-29.84353528,9.11035829,-0.6922206924000001,0.825515172,-0.581263568,-0.142274341,0.4755952967999999,-0.757681059,0.003
03:29:05,-0.19297599,0.837134835,-0.823484755,0.3601007499999999,0.4814809,-0.624439985,-7.373989345,33.06321734,-29.84282674,9.1194187575,-0.6906747417,0.825970501,-0.5782237139999999,-0.14297286175,0.4757036268999999,-0.75759651575,0.003
03:29:05,-0.1939057,0.83750905,-0.8199206499999999,0.3594935,0.4814009999999999,-0.62479155,-7.372533349999999,33.0628472,-29.8421182,9.128479225,-0.689128791,0.82642583,-0.57518386,-0.1436713825,0.4758119569999999,-0.7575119725,0.003
03:29:05,-0.19483541,0.837883265,-0.8163565449999999,0.35888625,0.4813211,-0.625143115,-7.371077355,33.06247706,-29.84140966,9.1375396925,-0.6875828403,0.826881159,-0.572144006,-0.14436990325,0.4759202870999999,-0.7574274292500001,0.003
03:29:05,-0.19576512,0.83825748,-0.81279244,0.358279,0.4812412,-0.62549468,-7.36962136,33.062106920000005,-29.84070112,9.14660016,-0.6860368896,0.827336488,-0.569104152,-0.145068424,0.4760286172,-0.757342886,0.003
03:29:05,-0.19669483,0.838631695,-0.8092283349999999,0.35767175,0.4811612999999999,-0.625846245,-7.368165364999999,33.061736780000004,-29.83999258,9.1556606275,-0.6844909389,0.8277918169999999,-0.566064298,-0.14576694475,0.4761369473,-0.75725834275,0.003
03:29:05,-0.19762454,0.83900591,-0.8056642299999999,0.3570645,0.4810814,-0.62619781,-7.36670937,33.06136664,-29.83928404,9.164721095,-0.6829449882,0.8282471459999999,-0.5630244440000001,-0.1464654655,0.4762452774,-0.7571737995000001,0.003
03:29:05,-0.19855425,0.8393801249999999,-0.8021001249999999,0.35645725,0.4810014999999999,-0.626549375,-7.365253375,33.0609965,-29.8385755,9.1737815625,-0.6813990375,0.8287024749999999,-0.55998459,-0.14716398625,0.4763536075,-0.75708925625,0.003
03:29:05,-0.19948396,0.8397543399999999,-0.79853602,0.35585,0.4809216,-0.62690094,-7.363797379999999,33.06062636,-29.83786696,9.18284203,-0.6798530868,0.8291578039999999,-0.556944736,-0.147862507,0.4764619376,-0.757004713,0.003
03:29:05,-0.20041367,0.8401285549999999,-0.7949719149999999,0.35524275,0.4808417,-0.627252505,-7.362341385,33.06025622,-29.83715842,9.1919024975,-0.6783071361,0.829613133,-0.553904882,-0.14856102775,0.4765702677,-0.75692016975,0.003
03:29:05,-0.20134338,0.84050277,-0.7914078099999999,0.3546355,0.4807617999999999,-0.62760407,-7.36088539,33.05988608,-29.83644988,9.200962965,-0.6767611854,0.830068462,-0.550865028,-0.1492595485,0.4766785978,-0.7568356265,0.003
03:29:05,-0.20227309,0.840876985,-0.787843705,0.35402825,0.4806819,-0.627955635,-7.359429394999999,33.059515940000004,-29.83574134,9.2100234325,-0.6752152347,0.830523791,-0.547825174,-0.14995806925,0.4767869279,-0.7567510832500001,0.003
03:29:05,-0.2032028,0.8412512,-0.7842796,0.353421,0.480602,-0.6283072,-7.3579734,33.0591458,-29.8350328,9.2190839,-0.673669284,0.83097912,-0.54478532,-0.15065659,0.476895258,-0.75666654,0.003
03:29:05,-0.20413251,0.841625415,-0.7807154949999999,0.35281375,0.4805221,-0.628658765,-7.356517405,33.05877566,-29.83432426,9.2281443675,-0.6721233333000001,0.831434449,-0.5417454660000001,-0.15135511075,0.4770035881,-0.75658199675,0.003
03:29:05,-0.20506222,0.84199963,-0.77715139,0.3522065,0.4804422,-0.62901033,-7.355061409999999,33.05840552,-29.83361572,9.237204835,-0.6705773826,0.831889778,-0.538705612,-0.1520536315,0.4771119182,-0.7564974535,0.003
03:29:05,-0.20599193,0.842373845,-0.773587285,0.35159925,0.4803622999999999,-0.629361895,-7.353605415,33.05803538,-29.83290718,9.2462653025,-0.6690314319,0.832345107,-0.5356657579999999,-0.15275215225,0.4772202483,-0.75641291025,0.003
03:29:05,-0.20692164,0.84274806,-0.7700231799999999,0.3509919999999999,0.4802824,-0.62971346,-7.35214942,33.05766524,-29.83219864,9.25532577,-0.6674854812,0.832800436,-0.532625904,-0.153450673,0.4773285784,-0.7563283670000001,0.003
03:29:05,-0.20785135,0.843122275,-0.766459075,0.35038475,0.4802025,-0.630065025,-7.350693424999999,33.057295100000005,-29.8314901,9.2643862375,-0.6659395305,0.833255765,-0.52958605,-0.15414919375,0.4774369085,-0.75624382375,0.003
03:29:05,-0.20878106,0.8434964899999999,-0.76289497,0.3497774999999999,0.4801226,-0.6304165899999999,-7.34923743,33.05692496,-29.83078156,9.273446705,-0.6643935798,0.833711094,-0.526546196,-0.1548477145,0.4775452386,-0.7561592805,0.003
03:29:05,-0.20971077,0.8438707049999999,-0.7593308649999999,0.34917025,0.4800427,-0.6307681549999999,-7.347781435,33.05655482,-29.83007302,9.2825071725,-0.6628476291000001,0.834166423,-0.523506342,-0.15554623525,0.4776535687,-0.7560747372500001,0.003
03:29:05,-0.21064048,0.84424492,-0.75576676,0.348563,0.4799627999999999,-0.6311197199999999,-7.346325439999999,33.05618468,-29.82936448,9.29156764,-0.6613016784,0.834621752,-0.5204664880000001,-0.156244756,0.4777618988,-0.755990194,0.003
03:29:05,-0.21157019,0.844619135,-0.7522026549999999,0.34795575,0.4798829,-0.6314712849999999,-7.344869445,33.05581454,-29.82865594,9.3006281075,-0.6597557277,0.835077081,-0.517426634,-0.15694327675,0.4778702288999999,-0.75590565075,0.003
03:29:05,-0.2124999,0.84499335,-0.7486385499999999,0.3473485,0.479803,-0.6318228499999999,-7.34341345,33.0554444,-29.8279474,9.309688575,-0.658209777,0.83553241,-0.5143867799999999,-0.1576417975,0.4779785589999999,-0.7558211075,0.003
03:29:05,-0.21342961,0.845367565,-0.745074445,0.34674125,0.4797230999999999,-0.6321744149999999,-7.341957454999999,33.055074260000005,-29.82723886,9.3187490425,-0.6566638263,0.835987739,-0.5113469260000001,-0.15834031825,0.4780868890999999,-0.75573656425,0.003
03:29:05,-0.21435932,0.84574178,-0.7415103399999999,0.346134,0.4796432,-0.6325259799999999,-7.34050146,33.054704120000004,-29.82653032,9.32780951,-0.6551178756,0.836443068,-0.508307072,-0.159038839,0.4781952191999999,-0.7556520210000001,0.003
03:29:05,-0.21528903,0.846115995,-0.7379462349999999,0.34552675,0.4795632999999999,-0.6328775449999999,-7.339045465,33.05433398,-29.82582178,9.3368699775,-0.6535719249,0.836898397,-0.505267218,-0.15973735975,0.4783035492999999,-0.75556747775,0.003
03:29:05,-0.21621874,0.84649021,-0.73438213,0.3449195,0.4794834,-0.6332291099999999,-7.337589469999999,33.05396384,-29.82511324,9.345930445,-0.6520259742000001,0.837353726,-0.502227364,-0.1604358805,0.4784118793999999,-0.7554829345,0.003
03:29:05,-0.21714845,0.8468644249999999,-0.7308180249999999,0.34431225,0.4794035,-0.6335806749999999,-7.336133475,33.0535937,-29.8244047,9.3549909125,-0.6504800235,0.837809055,-0.49918751,-0.16113440125,0.4785202094999999,-0.75539839125,0.003
03:29:05,-0.21807816,0.8472386399999999,-0.7272539199999999,0.343705,0.4793235999999999,-0.6339322399999999,-7.33467748,33.05322356,-29.82369616,9.36405138,-0.6489340728,0.838264384,-0.496147656,-0.161832922,0.4786285395999999,-0.755313848,0.003
03:29:05,-0.21900787,0.8476128549999999,-0.723689815,0.34309775,0.4792437,-0.6342838049999999,-7.333221484999999,33.052853420000005,-29.82298762,9.3731118475,-0.6473881221,0.838719713,-0.493107802,-0.16253144275,0.4787368696999999,-0.75522930475,0.003
03:29:05,-0.21993758,0.84798707,-0.7201257099999999,0.3424905,0.4791638,-0.63463537,-7.331765489999999,33.052483280000004,-29.82227908,9.382172315,-0.6458421714,0.839175042,-0.490067948,-0.1632299635,0.4788451997999999,-0.7551447615,0.003
03:29:05,-0.22086729,0.848361285,-0.7165616049999999,0.3418832499999999,0.4790839,-0.6349869349999999,-7.330309495,33.05211314,-29.82157054,9.3912327825,-0.6442962207,0.8396303709999999,-0.487028094,-0.16392848425,0.4789535298999999,-0.75506021825,0.003
03:29:05,-0.221797,0.8487355,-0.7129975,0.341276,0.479004,-0.6353385,-7.328853499999999,33.051743,-29.820862,9.40029325,-0.6427502700000001,0.8400856999999999,-0.48398824,-0.164627005,0.4790618599999999,-0.7549756750000001,0.003
03:29:05,-0.22272671,0.849109715,-0.709433395,0.3406687499999999,0.4789240999999999,-0.6356900649999999,-7.327397504999999,33.05137286,-29.82015346,9.4093537175,-0.6412043193,0.8405410289999999,-0.480948386,-0.16532552575,0.4791701901,-0.75489113175,0.003
03:29:05,-0.22365642,0.84948393,-0.7058692899999999,0.3400615,0.4788442,-0.63604163,-7.32594151,33.05100272,-29.81944492,9.418414185,-0.6396583686,0.8409963579999999,-0.477908532,-0.1660240465,0.4792785202,-0.7548065885,0.003
03:29:05,-0.22458613,0.849858145,-0.7023051849999999,0.33945425,0.4787643,-0.636393195,-7.324485515,33.05063258,-29.81873638,9.4274746525,-0.6381124179,0.841451687,-0.474868678,-0.16672256725,0.4793868503,-0.75472204525,0.003
03:29:05,-0.22551584,0.85023236,-0.69874108,0.338847,0.4786844,-0.63674476,-7.323029519999999,33.050262440000004,-29.81802784,9.43653512,-0.6365664672,0.841907016,-0.471828824,-0.167421088,0.4794951804,-0.754637502,0.003
03:29:05,-0.22644555,0.850606575,-0.6951769749999999,0.33823975,0.4786045,-0.637096325,-7.321573525,33.0498923,-29.8173193,9.4455955875,-0.6350205165,0.842362345,-0.46878897,-0.16811960875,0.4796035105,-0.7545529587500001,0.003
03:29:05,-0.22737526,0.8509807899999999,-0.6916128699999999,0.3376325,0.4785245999999999,-0.63744789,-7.32011753,33.04952216,-29.81661076,9.454656055,-0.6334745658000001,0.842817674,-0.465749116,-0.1688181295,0.4797118406,-0.7544684155,0.003
03:29:05,-0.22830497,0.8513550049999999,-0.688048765,0.33702525,0.4784447,-0.637799455,-7.318661534999999,33.04915202,-29.81590222,9.4637165225,-0.6319286151,0.843273003,-0.462709262,-0.16951665025,0.4798201707,-0.75438387225,0.003
03:29:05,-0.2292346799999999,0.85172922,-0.68448466,0.336418,0.4783648,-0.63815102,-7.31720554,33.04878188,-29.81519368,9.47277699,-0.6303826644,0.843728332,-0.459669408,-0.170215171,0.4799285008,-0.754299329,0.003
03:29:05,-0.23016439,0.852103435,-0.6809205549999999,0.33581075,0.4782849,-0.638502585,-7.315749545,33.04841174,-29.81448514,9.4818374575,-0.6288367137,0.844183661,-0.456629554,-0.17091369175,0.4800368309,-0.75421478575,0.003
03:29:05,-0.2310940999999999,0.85247765,-0.67735645,0.3352035,0.478205,-0.63885415,-7.314293549999999,33.048041600000005,-29.8137766,9.490897925,-0.627290763,0.84463899,-0.4535897,-0.1716122125,0.480145161,-0.7541302425,0.003
03:29:05,-0.23202381,0.852851865,-0.673792345,0.33459625,0.4781250999999999,-0.639205715,-7.312837555,33.047671460000004,-29.81306806,9.4999583925,-0.6257448123,0.845094319,-0.450549846,-0.17231073325,0.4802534911,-0.75404569925,0.003
03:29:05,-0.2329535199999999,0.85322608,-0.6702282399999999,0.333989,0.4780452,-0.63955728,-7.31138156,33.04730132,-29.81235952,9.50901886,-0.6241988616,0.845549648,-0.447509992,-0.173009254,0.4803618212,-0.753961156,0.003
03:29:05,-0.23388323,0.853600295,-0.666664135,0.33338175,0.4779653,-0.639908845,-7.309925564999999,33.04693118,-29.81165098,9.5180793275,-0.6226529109000001,0.846004977,-0.444470138,-0.17370777475,0.4804701513,-0.7538766127500001,0.003
03:29:05,-0.2348129399999999,0.85397451,-0.66310003,0.3327745,0.4778853999999999,-0.64026041,-7.30846957,33.04656104,-29.81094244,9.527139795,-0.6211069602,0.846460306,-0.441430284,-0.1744062955,0.4805784814,-0.7537920695,0.003
03:29:05,-0.23574265,0.8543487249999999,-0.6595359249999999,0.33216725,0.4778055,-0.640611975,-7.307013575,33.0461909,-29.8102339,9.5362002625,-0.6195610095,0.846915635,-0.43839043,-0.17510481625,0.4806868115,-0.75370752625,0.003
03:29:05,-0.2366723599999999,0.8547229399999999,-0.65597182,0.3315599999999999,0.4777256,-0.64096354,-7.305557579999999,33.045820760000005,-29.80952536,9.54526073,-0.6180150588,0.847370964,-0.435350576,-0.175803337,0.4807951416,-0.753622983,0.003
03:29:05,-0.23760207,0.8550971549999999,-0.6524077149999999,0.33095275,0.4776457,-0.641315105,-7.304101585,33.045450620000004,-29.80881682,9.5543211975,-0.6164691081,0.847826293,-0.432310722,-0.17650185775,0.4809034717,-0.75353843975,0.003
03:29:05,-0.2385317799999999,0.85547137,-0.6488436099999999,0.3303454999999999,0.4775658,-0.64166667,-7.30264559,33.04508048,-29.80810828,9.563381665,-0.6149231574,0.848281622,-0.429270868,-0.1772003785,0.4810118017999999,-0.7534538965,0.003
03:29:05,-0.23946149,0.855845585,-0.645279505,0.32973825,0.4774858999999999,-0.642018235,-7.301189594999999,33.04471034,-29.80739974,9.5724421325,-0.6133772067000001,0.848736951,-0.426231014,-0.17789889925,0.4811201318999999,-0.75336935325,0.003
03:29:05,-0.2403911999999999,0.8562198,-0.6417153999999999,0.329131,0.477406,-0.6423698,-7.2997336,33.0443402,-29.8066912,9.5815026,-0.611831256,0.84919228,-0.42319116,-0.17859742,0.4812284619999999,-0.75328481,0.003
03:29:05,-0.24132091,0.856594015,-0.6381512949999999,0.32852375,0.4773261,-0.642721365,-7.298277605,33.04397006,-29.80598266,9.5905630675,-0.6102853053,0.849647609,-0.420151306,-0.17929594075,0.4813367920999999,-0.75320026675,0.003
03:29:05,-0.2422506199999999,0.85696823,-0.63458719,0.3279165,0.4772462,-0.64307293,-7.296821609999999,33.043599920000005,-29.80527412,9.599623535,-0.6087393546000001,0.850102938,-0.417111452,-0.1799944615,0.4814451221999999,-0.7531157235,0.003
03:29:05,-0.24318033,0.857342445,-0.6310230849999999,0.32730925,0.4771663,-0.643424495,-7.295365615,33.043229780000004,-29.80456558,9.6086840025,-0.6071934039,0.850558267,-0.414071598,-0.18069298225,0.4815534522999999,-0.75303118025,0.003
03:29:05,-0.2441100399999999,0.85771666,-0.6274589799999999,0.326702,0.4770863999999999,-0.64377606,-7.29390962,33.04285964,-29.80385704,9.61774447,-0.6056474532,0.851013596,-0.411031744,-0.181391503,0.4816617823999999,-0.752946637,0.003
03:29:05,-0.24503975,0.858090875,-0.623894875,0.32609475,0.4770065,-0.644127625,-7.292453624999999,33.0424895,-29.8031485,9.6268049375,-0.6041015025,0.851468925,-0.40799189,-0.18209002375,0.4817701124999999,-0.75286209375,0.003
03:29:05,-0.2459694599999999,0.8584650899999999,-0.62033077,0.3254875,0.4769266,-0.64447919,-7.29099763,33.04211936,-29.80243996,9.635865405,-0.6025555518000001,0.851924254,-0.404952036,-0.1827885445,0.4818784425999999,-0.7527775505,0.003
03:29:05,-0.24689917,0.8588393049999999,-0.6167666649999999,0.32488025,0.4768467,-0.644830755,-7.289541635,33.04174922,-29.80173142,9.6449258725,-0.6010096011,0.852379583,-0.401912182,-0.18348706525,0.4819867726999999,-0.75269300725,0.003
03:29:05,-0.2478288799999999,0.85921352,-0.61320256,0.324273,0.4767668,-0.64518232,-7.288085639999999,33.04137908,-29.80102288,9.65398634,-0.5994636504,0.8528349120000001,-0.398872328,-0.184185586,0.4820951027999999,-0.752608464,0.003
03:29:05,-0.24875859,0.859587735,-0.609638455,0.32366575,0.4766868999999999,-0.645533885,-7.286629645,33.041008940000005,-29.80031434,9.6630468075,-0.5979176997,0.853290241,-0.395832474,-0.18488410675,0.4822034329,-0.75252392075,0.003
03:29:05,-0.2496882999999999,0.85996195,-0.6060743499999999,0.3230585,0.476607,-0.64588545,-7.28517365,33.0406388,-29.7996058,9.672107275,-0.596371749,0.85374557,-0.39279262,-0.1855826275,0.482311763,-0.7524393775,0.003
03:29:05,-0.25061801,0.860336165,-0.6025102449999999,0.3224512499999999,0.4765271,-0.646237015,-7.283717654999999,33.04026866,-29.79889726,9.6811677425,-0.5948257983,0.854200899,-0.389752766,-0.18628114825,0.4824200931,-0.75235483425,0.003
03:29:05,-0.25154772,0.86071038,-0.59894614,0.321844,0.4764471999999999,-0.64658858,-7.28226166,33.03989852,-29.79818872,9.69022821,-0.5932798476000001,0.854656228,-0.386712912,-0.186979669,0.4825284232,-0.752270291,0.003
03:29:05,-0.25247743,0.861084595,-0.595382035,0.3212367499999999,0.4763673,-0.646940145,-7.280805665,33.03952838,-29.79748018,9.6992886775,-0.5917338969,0.855111557,-0.383673058,-0.18767818975,0.4826367533,-0.75218574775,0.003
03:29:05,-0.25340714,0.86145881,-0.5918179299999999,0.3206295,0.4762873999999999,-0.64729171,-7.279349669999999,33.03915824,-29.79677164,9.708349145,-0.5901879462,0.855566886,-0.380633204,-0.1883767105,0.4827450834,-0.7521012045,0.003
03:29:05,-0.2543368499999999,0.8618330249999999,-0.588253825,0.32002225,0.4762075,-0.647643275,-7.277893675,33.038788100000005,-29.7960631,9.7174096125,-0.5886419955,0.856022215,-0.37759335,-0.18907523125,0.4828534135,-0.75201666125,0.003
03:29:05,-0.25526656,0.8622072399999999,-0.58468972,0.319415,0.4761276,-0.64799484,-7.27643768,33.038417960000004,-29.79535456,9.72647008,-0.5870960448,0.856477544,-0.374553496,-0.189773752,0.4829617436,-0.751932118,0.003
03:29:05,-0.25619627,0.8625814549999999,-0.5811256149999999,0.31880775,0.4760476999999999,-0.648346405,-7.274981684999999,33.03804782,-29.79464602,9.7355305475,-0.5855500941,0.856932873,-0.371513642,-0.19047227275,0.4830700737,-0.75184757475,0.003
03:29:05,-0.25712598,0.86295567,-0.57756151,0.3182005,0.4759678,-0.64869797,-7.27352569,33.03767768,-29.79393748,9.744591015,-0.5840041434000001,0.857388202,-0.3684737879999999,-0.1911707935,0.4831784038,-0.7517630315,0.003
03:29:05,-0.2580556899999999,0.863329885,-0.573997405,0.31759325,0.4758879,-0.649049535,-7.272069695,33.03730754,-29.79322894,9.7536514825,-0.5824581927,0.857843531,-0.365433934,-0.19186931425,0.4832867339,-0.7516784882499999,0.003
03:29:05,-0.2589854,0.8637041,-0.5704332999999999,0.316986,0.475808,-0.6494011,-7.2706137,33.0369374,-29.7925204,9.76271195,-0.580912242,0.85829886,-0.36239408,-0.192567835,0.483395064,-0.751593945,0.003
03:29:05,-0.25991511,0.864078315,-0.566869195,0.31637875,0.4757281,-0.649752665,-7.269157705,33.036567260000005,-29.79181186,9.7717724175,-0.5793662913000001,0.858754189,-0.359354226,-0.19326635575,0.4835033941,-0.75150940175,0.003
03:29:05,-0.26084482,0.86445253,-0.56330509,0.3157715,0.4756481999999999,-0.65010423,-7.26770171,33.036197120000004,-29.79110332,9.780832885,-0.5778203406,0.859209518,-0.356314372,-0.1939648765,0.4836117242,-0.7514248585,0.003
03:29:05,-0.2617745299999999,0.864826745,-0.5597409849999999,0.31516425,0.4755683,-0.650455795,-7.266245715,33.03582698,-29.79039478,9.7898933525,-0.5762743899,0.859664847,-0.353274518,-0.19466339725,0.4837200543,-0.75134031525,0.003
03:29:05,-0.26270424,0.86520096,-0.55617688,0.314557,0.4754884,-0.65080736,-7.26478972,33.03545684,-29.78968624,9.79895382,-0.5747284392,0.860120176,-0.350234664,-0.195361918,0.4838283844,-0.751255772,0.003
03:29:05,-0.26363395,0.865575175,-0.552612775,0.3139497499999999,0.4754085,-0.6511589249999999,-7.263333725,33.0350867,-29.7889777,9.8080142875,-0.5731824885000001,0.860575505,-0.34719481,-0.19606043875,0.4839367145,-0.75117122875,0.003
03:29:05,-0.26456366,0.8659493899999999,-0.5490486699999999,0.3133424999999999,0.4753286,-0.6515104899999999,-7.26187773,33.03471656,-29.78826916,9.817074755,-0.5716365378,0.861030834,-0.344154956,-0.1967589595,0.4840450446,-0.7510866855,0.003
03:29:05,-0.2654933699999999,0.8663236049999999,-0.545484565,0.31273525,0.4752486999999999,-0.6518620549999999,-7.260421734999999,33.034346420000006,-29.78756062,9.8261352225,-0.5700905871,0.861486163,-0.341115102,-0.19745748025,0.4841533746999999,-0.75100214225,0.003
03:29:05,-0.26642308,0.86669782,-0.5419204599999999,0.3121279999999999,0.4751688,-0.6522136199999999,-7.25896574,33.033976280000005,-29.78685208,9.83519569,-0.5685446364,0.861941492,-0.338075248,-0.198156001,0.4842617047999999,-0.750917599,0.003
03:29:05,-0.26735279,0.867072035,-0.538356355,0.31152075,0.4750889,-0.6525651849999999,-7.257509745,33.03360614,-29.78614354,9.8442561575,-0.5669986857,0.862396821,-0.335035394,-0.19885452175,0.4843700348999999,-0.75083305575,0.003
03:29:05,-0.2682825,0.86744625,-0.53479225,0.3109135,0.4750089999999999,-0.6529167499999999,-7.256053749999999,33.033236,-29.785435,9.853316625,-0.565452735,0.86285215,-0.33199554,-0.1995530425,0.4844783649999999,-0.7507485125,0.003
03:29:05,-0.2692122099999999,0.867820465,-0.5312281449999999,0.31030625,0.4749291,-0.6532683149999999,-7.254597755,33.03286586,-29.78472646,9.8623770925,-0.5639067843000001,0.863307479,-0.3289556859999999,-0.20025156325,0.4845866950999999,-0.75066396925,0.003
03:29:05,-0.27014192,0.86819468,-0.52766404,0.309699,0.4748491999999999,-0.6536198799999999,-7.25314176,33.03249572,-29.78401792,9.87143756,-0.5623608336,0.863762808,-0.325915832,-0.200950084,0.4846950251999999,-0.7505794259999999,0.003
03:29:05,-0.27107163,0.868568895,-0.524099935,0.30909175,0.4747693,-0.6539714449999999,-7.251685764999999,33.03212558,-29.78330938,9.8804980275,-0.5608148829,0.864218137,-0.322875978,-0.20164860475,0.4848033552999999,-0.75049488275,0.003
03:29:05,-0.27200134,0.86894311,-0.5205358299999999,0.3084845,0.4746894,-0.6543230099999999,-7.25022977,33.031755440000005,-29.78260084,9.889558495,-0.5592689322,0.8646734660000001,-0.319836124,-0.2023471255,0.4849116853999999,-0.7504103395,0.003
03:29:05,-0.2729310499999999,0.8693173249999999,-0.516971725,0.30787725,0.4746094999999999,-0.6546745749999999,-7.248773775,33.031385300000004,-29.7818923,9.8986189625,-0.5577229815,0.865128795,-0.31679627,-0.20304564625,0.4850200154999999,-0.75032579625,0.003
03:29:05,-0.27386076,0.8696915399999999,-0.51340762,0.30727,0.4745296,-0.6550261399999999,-7.247317779999999,33.03101516,-29.78118376,9.90767943,-0.5561770308,0.865584124,-0.313756416,-0.203744167,0.4851283455999999,-0.750241253,0.003
03:29:05,-0.27479047,0.8700657549999999,-0.5098435149999999,0.30666275,0.4744497,-0.6553777049999999,-7.245861785,33.03064502,-29.78047522,9.9167398975,-0.5546310801000001,0.866039453,-0.310716562,-0.20444268775,0.4852366756999999,-0.75015670975,0.003
03:29:05,-0.27572018,0.87043997,-0.50627941,0.3060555,0.4743698,-0.6557292699999999,-7.24440579,33.03027488,-29.77976668,9.925800365,-0.5530851294,0.866494782,-0.3076767079999999,-0.2051412085,0.4853450057999999,-0.7500721665,0.003
03:29:05,-0.2766498899999999,0.870814185,-0.502715305,0.30544825,0.4742899,-0.6560808349999999,-7.242949794999999,33.02990474,-29.77905814,9.9348608325,-0.5515391787,0.866950111,-0.304636854,-0.20583972925,0.4854533359,-0.74998762325,0.003
03:29:05,-0.2775796,0.8711884,-0.4991512,0.304841,0.4742099999999999,-0.6564323999999999,-7.2414938,33.029534600000005,-29.7783496,9.9439213,-0.5499932280000001,0.86740544,-0.301597,-0.20653825,0.485561666,-0.7499030799999999,0.003
03:29:05,-0.27850931,0.871562615,-0.495587095,0.3042337499999999,0.4741301,-0.6567839649999999,-7.240037805,33.029164460000004,-29.77764106,9.9529817675,-0.5484472773,0.867860769,-0.298557146,-0.20723677075,0.4856699961,-0.74981853675,0.003
03:29:05,-0.27943902,0.87193683,-0.4920229899999999,0.3036265,0.4740502,-0.6571355299999999,-7.238581809999999,33.02879432,-29.77693252,9.962042235,-0.5469013266,0.868316098,-0.295517292,-0.2079352915,0.4857783262,-0.7497339935,0.003
03:29:05,-0.2803687299999999,0.872311045,-0.488458885,0.3030192499999999,0.4739703,-0.6574870949999999,-7.237125815,33.02842418,-29.77622398,9.9711027025,-0.5453553759,0.868771427,-0.292477438,-0.20863381225,0.4858866563,-0.74964945025,0.003
03:29:05,-0.28129844,0.87268526,-0.4848947799999999,0.302412,0.4738904,-0.6578386599999999,-7.23566982,33.02805404,-29.77551544,9.98016317,-0.5438094252000001,0.869226756,-0.2894375839999999,-0.209332333,0.4859949864,-0.749564907,0.003
03:29:05,-0.28222815,0.873059475,-0.4813306749999999,0.30180475,0.4738104999999999,-0.658190225,-7.234213824999999,33.0276839,-29.7748069,9.9892236375,-0.5422634745,0.869682085,-0.28639773,-0.21003085375,0.4861033165,-0.7494803637499999,0.003
03:29:05,-0.28315786,0.8734336899999999,-0.47776657,0.3011975,0.4737306,-0.6585417899999999,-7.23275783,33.027313760000006,-29.77409836,9.998284105,-0.5407175238,0.870137414,-0.2833578759999999,-0.2107293745,0.4862116466,-0.7493958205,0.003
03:29:05,-0.2840875699999999,0.8738079049999999,-0.4742024649999999,0.30059025,0.4736507,-0.658893355,-7.231301835,33.026943620000004,-29.77338982,10.0073445725,-0.5391715731,0.870592743,-0.280318022,-0.21142789525,0.4863199767,-0.74931127725,0.003
03:29:05,-0.28501728,0.87418212,-0.4706383599999999,0.299983,0.4735707999999999,-0.65924492,-7.229845839999999,33.02657348,-29.77268128,10.01640504,-0.5376256224,0.871048072,-0.2772781679999999,-0.212126416,0.4864283068,-0.749226734,0.003
03:29:05,-0.28594699,0.874556335,-0.467074255,0.29937575,0.4734909,-0.659596485,-7.228389845,33.02620334,-29.77197274,10.0254655075,-0.5360796717,0.871503401,-0.274238314,-0.21282493675,0.4865366369,-0.74914219075,0.003
03:29:05,-0.2868767,0.87493055,-0.4635101499999999,0.2987685,0.4734109999999999,-0.65994805,-7.22693385,33.0258332,-29.7712642,10.034525975,-0.5345337210000001,0.87195873,-0.27119846,-0.2135234575,0.486644967,-0.7490576475,0.003
03:29:05,-0.2878064099999999,0.875304765,-0.4599460449999999,0.29816125,0.4733311,-0.660299615,-7.225477854999999,33.02546306,-29.77055566,10.0435864425,-0.5329877703,0.872414059,-0.2681586059999999,-0.21422197825,0.4867532971,-0.74897310425,0.003
03:29:05,-0.28873612,0.87567898,-0.45638194,0.297554,0.4732512,-0.66065118,-7.22402186,33.025092920000006,-29.76984712,10.05264691,-0.5314418196,0.872869388,-0.265118752,-0.214920499,0.4868616272,-0.748888561,0.003
03:29:05,-0.28966583,0.876053195,-0.4528178349999999,0.29694675,0.4731712999999999,-0.661002745,-7.222565865,33.024722780000005,-29.76913858,10.0617073775,-0.5298958689,0.873324717,-0.2620788979999999,-0.21561901975,0.4869699573,-0.7488040177499999,0.003
03:29:05,-0.29059554,0.87642741,-0.44925373,0.2963395,0.4730914,-0.66135431,-7.221109869999999,33.024352640000004,-29.76843004,10.070767845,-0.5283499182,0.873780046,-0.259039044,-0.2163175405,0.4870782874,-0.7487194745,0.003
03:29:05,-0.2915252499999999,0.8768016249999999,-0.445689625,0.29573225,0.4730115,-0.661705875,-7.219653875,33.0239825,-29.7677215,10.0798283125,-0.5268039675,0.874235375,-0.2559991899999999,-0.21701606125,0.4871866175,-0.74863493125,0.003
03:29:05,-0.29245496,0.8771758399999999,-0.4421255199999999,0.2951249999999999,0.4729316,-0.66205744,-7.21819788,33.02361236,-29.76701296,10.08888878,-0.5252580168000001,0.874690704,-0.252959336,-0.217714582,0.4872949476,-0.748550388,0.003
03:29:05,-0.29338467,0.8775500549999999,-0.438561415,0.29451775,0.4728517,-0.662409005,-7.216741884999999,33.02324222,-29.76630442,10.0979492475,-0.5237120661000001,0.875146033,-0.249919482,-0.21841310275,0.4874032776999999,-0.74846584475,0.003
03:29:05,-0.29431438,0.87792427,-0.4349973099999999,0.2939104999999999,0.4727717999999999,-0.66276057,-7.21528589,33.02287208,-29.76559588,10.107009715,-0.5221661154,0.875601362,-0.2468796279999999,-0.2191116235,0.4875116077999999,-0.7483813014999999,0.003
03:29:05,-0.2952440899999999,0.878298485,-0.4314332049999999,0.29330325,0.4726919,-0.663112135,-7.213829895,33.022501940000005,-29.76488734,10.1160701825,-0.5206201646999999,0.876056691,-0.243839774,-0.21981014425,0.4876199378999999,-0.74829675825,0.003
03:29:05,-0.2961738,0.8786727,-0.4278691,0.2926959999999999,0.472612,-0.6634637,-7.212373899999999,33.022131800000004,-29.7641788,10.12513065,-0.519074214,0.8765120200000001,-0.2407999199999999,-0.220508665,0.4877282679999999,-0.748212215,0.003
03:29:05,-0.29710351,0.879046915,-0.4243049949999999,0.29208875,0.4725321,-0.663815265,-7.210917905,33.02176166,-29.76347026,10.1341911175,-0.5175282633,0.8769673490000001,-0.237760066,-0.22120718575,0.4878365980999999,-0.74812767175,0.003
03:29:05,-0.29803322,0.87942113,-0.4207408899999999,0.2914815,0.4724522,-0.66416683,-7.20946191,33.02139152,-29.76276172,10.143251585,-0.5159823126,0.8774226780000001,-0.234720212,-0.2219057065,0.4879449281999999,-0.7480431285,0.003
03:29:05,-0.2989629299999999,0.879795345,-0.417176785,0.29087425,0.4723722999999999,-0.664518395,-7.208005915,33.02102138,-29.76205318,10.1523120525,-0.5144363619000001,0.8778780070000001,-0.2316803579999999,-0.22260422725,0.4880532582999999,-0.74795858525,0.003
03:29:05,-0.29989264,0.88016956,-0.4136126799999999,0.290267,0.4722924,-0.66486996,-7.20654992,33.02065124,-29.76134464,10.16137252,-0.5128904112,0.8783333360000001,-0.228640504,-0.223302748,0.4881615883999999,-0.747874042,0.003
03:29:05,-0.30082235,0.880543775,-0.4100485749999999,0.28965975,0.4722125,-0.665221525,-7.205093925,33.020281100000005,-29.7606361,10.1704329875,-0.5113444605,0.8787886650000001,-0.2256006499999999,-0.22400126875,0.4882699184999999,-0.74778949875,0.003
03:29:05,-0.30175206,0.8809179899999999,-0.40648447,0.2890525,0.4721326,-0.66557309,-7.20363793,33.019910960000004,-29.75992756,10.179493455,-0.5097985098,0.8792439940000001,-0.222560796,-0.2246997895,0.4883782486,-0.7477049554999999,0.003
03:29:05,-0.3026817699999999,0.8812922049999999,-0.4029203649999999,0.28844525,0.4720527,-0.665924655,-7.202181935,33.01954082,-29.75921902,10.1885539225,-0.5082525591,0.879699323,-0.2195209419999999,-0.22539831025,0.4884865787,-0.74762041225,0.003
03:29:05,-0.30361148,0.88166642,-0.39935626,0.287838,0.4719727999999999,-0.66627622,-7.20072594,33.01917068,-29.75851048,10.19761439,-0.5067066084,0.880154652,-0.216481088,-0.226096831,0.4885949088,-0.747535869,0.003
03:29:05,-0.30454119,0.882040635,-0.395792155,0.28723075,0.4718929,-0.666627785,-7.199269945,33.01880054,-29.75780194,10.2066748575,-0.5051606577000001,0.880609981,-0.213441234,-0.22679535175,0.4887032389,-0.74745132575,0.003
03:29:05,-0.3054709,0.88241485,-0.3922280499999999,0.2866235,0.471813,-0.66697935,-7.19781395,33.0184304,-29.7570934,10.215735325,-0.5036147070000001,0.88106531,-0.2104013799999999,-0.2274938725,0.488811569,-0.7473667825,0.003
03:29:05,-0.3064006099999999,0.882789065,-0.388663945,0.2860162499999999,0.4717330999999999,-0.667330915,-7.196357955,33.018060260000006,-29.75638486,10.2247957925,-0.5020687563,0.881520639,-0.207361526,-0.22819239325,0.4889198991,-0.7472822392499999,0.003
03:29:05,-0.30733032,0.88316328,-0.3850998399999999,0.285409,0.4716532,-0.66768248,-7.19490196,33.017690120000005,-29.755676320000003,10.23385626,-0.5005228056,0.881975968,-0.2043216719999999,-0.228890914,0.4890282292,-0.747197696,0.003
03:29:05,-0.30826003,0.883537495,-0.3815357349999999,0.2848017499999999,0.4715733,-0.668034045,-7.193445965,33.01731998,-29.75496778,10.2429167275,-0.4989768549,0.882431297,-0.201281818,-0.22958943475,0.4891365593,-0.74711315275,0.003
03:29:05,-0.30918974,0.88391171,-0.37797163,0.2841945,0.4714934,-0.66838561,-7.19198997,33.01694984,-29.75425924,10.251977195,-0.4974309042,0.882886626,-0.1982419639999999,-0.2302879555,0.4892448894,-0.7470286094999999,0.003
03:29:05,-0.3101194499999999,0.8842859249999999,-0.3744075249999999,0.2835872499999999,0.4714135,-0.668737175,-7.190533975,33.0165797,-29.7535507,10.2610376625,-0.4958849535,0.883341955,-0.1952021099999999,-0.23098647625,0.4893532195,-0.74694406625,0.003
03:29:05,-0.31104916,0.8846601399999999,-0.3708434199999999,0.28298,0.4713335999999999,-0.66908874,-7.18907798,33.01620956,-29.75284216,10.27009813,-0.4943390028,0.883797284,-0.192162256,-0.231684997,0.4894615496,-0.746859523,0.003
03:29:05,-0.31197887,0.8850343549999999,-0.367279315,0.28237275,0.4712537,-0.669440305,-7.187621985,33.015839420000006,-29.75213362,10.2791585975,-0.4927930521,0.884252613,-0.1891224019999999,-0.23238351775,0.4895698797,-0.74677497975,0.003
03:29:05,-0.31290858,0.88540857,-0.3637152099999999,0.2817655,0.4711738,-0.66979187,-7.18616599,33.015469280000005,-29.75142508,10.288219065,-0.4912471014,0.884707942,-0.186082548,-0.2330820385,0.4896782098,-0.7466904365,0.003
03:29:05,-0.3138382899999999,0.885782785,-0.360151105,0.28115825,0.4710939,-0.670143435,-7.184709995,33.015099140000004,-29.750716540000003,10.2972795325,-0.4897011507,0.885163271,-0.1830426939999999,-0.23378055925,0.4897865399,-0.7466058932499999,0.003
03:29:06,-0.314768,0.886157,-0.356587,0.280551,0.471014,-0.670495,-7.183254,33.014729,-29.750008,10.30634,-0.4881552,0.8856186,-0.18000284,-0.23447908,0.48989487,-0.74652135,0.003
03:29:06,-0.30728105,0.87934,-0.3574173499999999,0.27965078,0.469469245,-0.666894125,-7.21401364,33.00446603,-29.755672825,10.2972784,-0.48304380125,0.8775713495,-0.1845620508,-0.2326581974,0.48819025485,-0.743007570285,0.003
03:29:06,-0.2997941,0.8725229999999999,-0.3582477,0.27875056,0.4679244899999999,-0.66329325,-7.244773279999999,32.994203060000004,-29.76133765,10.2882168,-0.4779324025,0.869524099,-0.1891212616,-0.2308373148,0.4864856396999999,-0.73949379057,0.003
03:29:06,-0.29230715,0.865706,-0.35907805,0.27785034,0.4663797349999999,-0.659692375,-7.27553292,32.983940090000004,-29.767002475,10.2791552,-0.47282100375,0.8614768485000001,-0.1936804724,-0.2290164322,0.48478102455,-0.735980010855,0.003
03:29:06,-0.2848201999999999,0.858889,-0.3599083999999999,0.27695012,0.46483498,-0.6560914999999999,-7.30629256,32.973677120000005,-29.7726673,10.2700936,-0.467709605,0.8534295980000001,-0.1982396832,-0.2271955496,0.4830764093999999,-0.73246623114,0.003
03:29:06,-0.27733325,0.8520719999999999,-0.36073875,0.2760499,0.463290225,-0.652490625,-7.3370522,32.963414150000006,-29.778332125,10.261032,-0.46259820625,0.8453823475000001,-0.202798894,-0.225374667,0.48137179425,-0.728952451425,0.003
03:29:06,-0.2698463,0.845255,-0.3615691,0.27514968,0.46174547,-0.6488897499999999,-7.36781184,32.953151180000006,-29.78399695,10.2519704,-0.4574868075,0.837335097,-0.2073581048,-0.2235537844,0.4796671791,-0.72543867171,0.003
03:29:06,-0.26235935,0.838438,-0.36239945,0.27424946,0.460200715,-0.645288875,-7.39857148,32.94288821,-29.789661775000003,10.2429088,-0.45237540875,0.8292878465,-0.2119173156,-0.2217329018,0.47796256395,-0.721924891995,0.003
03:29:06,-0.2548724,0.8316209999999999,-0.3632298,0.27334924,0.45865596,-0.6416879999999999,-7.42933112,32.93262524,-29.795326600000003,10.2338472,-0.44726401,0.821240596,-0.2164765263999999,-0.2199120192,0.4762579488,-0.71841111228,0.003
03:29:06,-0.24738545,0.824804,-0.3640601499999999,0.27244902,0.4571112049999999,-0.638087125,-7.46009076,32.92236227,-29.800991425,10.2247856,-0.44215261125,0.8131933455,-0.2210357372,-0.2180911366,0.4745533336499999,-0.714897332565,0.003
03:29:06,-0.2398985,0.817987,-0.3648905,0.2715488,0.45556645,-0.6344862499999999,-7.490850399999999,32.9120993,-29.80665625,10.215724,-0.4370412125,0.805146095,-0.225594948,-0.216270254,0.4728487185,-0.71138355285,0.003
03:29:06,-0.23241155,0.81117,-0.36572085,0.2706485799999999,0.454021695,-0.630885375,-7.52161004,32.90183633,-29.812321075,10.2066624,-0.43192981375,0.7970988445,-0.2301541588,-0.2144493714,0.47114410335,-0.707869773135,0.003
03:29:06,-0.2249245999999999,0.804353,-0.3665511999999999,0.26974836,0.45247694,-0.6272844999999999,-7.55236968,32.89157336,-29.8179859,10.1976008,-0.426818415,0.789051594,-0.2347133696,-0.2126284888,0.4694394882,-0.70435599342,0.003
03:29:06,-0.2174376499999999,0.797536,-0.36738155,0.26884814,0.450932185,-0.623683625,-7.583129319999999,32.88131039,-29.823650725,10.1885392,-0.42170701625,0.7810043435,-0.2392725804,-0.2108076062,0.46773487305,-0.700842213705,0.003
03:29:06,-0.2099507,0.790719,-0.3682119,0.26794792,0.44938743,-0.6200827499999999,-7.61388896,32.871047420000004,-29.82931555,10.1794776,-0.4165956175,0.772957093,-0.2438317911999999,-0.2089867236,0.4660302578999999,-0.69732843399,0.003
03:29:06,-0.20246375,0.783902,-0.36904225,0.2670477,0.4478426749999999,-0.616481875,-7.6446486,32.860784450000004,-29.834980375,10.170416,-0.41148421875,0.7649098425,-0.2483910019999999,-0.207165841,0.46432564275,-0.693814654275,0.003
03:29:06,-0.1949768,0.777085,-0.3698726,0.26614748,0.44629792,-0.612881,-7.675408239999999,32.850521480000005,-29.8406452,10.1613544,-0.40637282,0.7568625920000001,-0.2529502127999999,-0.2053449584,0.4626210275999999,-0.69030087456,0.003
03:29:06,-0.1874898499999999,0.770268,-0.37070295,0.26524726,0.444753165,-0.609280125,-7.70616788,32.840258510000005,-29.846310025,10.1522928,-0.40126142125,0.7488153415000001,-0.2575094236,-0.2035240758,0.46091641245,-0.686787094845,0.003
03:29:06,-0.1800029,0.763451,-0.3715333,0.26434704,0.44320841,-0.6056792499999999,-7.73692752,32.829995540000006,-29.85197485,10.1432312,-0.3961500225,0.7407680910000001,-0.2620686344,-0.2017031932,0.4592117973,-0.68327331513,0.003
03:29:06,-0.17251595,0.756634,-0.37236365,0.2634468199999999,0.441663655,-0.6020783749999999,-7.767687159999999,32.81973257,-29.857639675,10.1341696,-0.39103862375,0.7327208405000001,-0.2666278452,-0.1998823106,0.4575071821499999,-0.679759535415,0.003
03:29:06,-0.1650289999999999,0.749817,-0.3731939999999999,0.2625466,0.4401189,-0.5984775,-7.7984468,32.8094696,-29.8633045,10.125108,-0.385927225,0.7246735900000001,-0.271187056,-0.198061428,0.455802567,-0.6762457557,0.003
03:29:06,-0.15754205,0.743,-0.37402435,0.26164638,0.4385741449999999,-0.5948766249999999,-7.82920644,32.79920663,-29.868969325,10.1160464,-0.38081582625,0.7166263395,-0.2757462668,-0.1962405454,0.4540979518499999,-0.672731975985,0.003
03:29:06,-0.1500551,0.736183,-0.3748547,0.26074616,0.4370293899999999,-0.59127575,-7.859966079999999,32.78894366,-29.87463415,10.1069848,-0.3757044275,0.708579089,-0.2803054776,-0.1944196628,0.4523933367,-0.66921819627,0.003
03:29:06,-0.14256815,0.729366,-0.3756850499999999,0.25984594,0.435484635,-0.5876748749999999,-7.89072572,32.77868069,-29.880298975,10.0979232,-0.37059302875,0.7005318385,-0.2848646884,-0.1925987802,0.45068872155,-0.665704416555,0.003
03:29:06,-0.1350811999999999,0.722549,-0.3765154,0.25894572,0.43393988,-0.584074,-7.92148536,32.76841772,-29.885963800000003,10.0888616,-0.36548163,0.692484588,-0.2894238992,-0.1907778976,0.4489841063999999,-0.66219063684,0.003
03:29:06,-0.12759425,0.715732,-0.37734575,0.2580455,0.432395125,-0.5804731249999999,-7.952245,32.75815475,-29.891628625000003,10.0798,-0.36037023125,0.6844373375,-0.29398311,-0.188957015,0.44727949125,-0.658676857125,0.003
03:29:06,-0.1201073,0.708915,-0.3781761,0.25714528,0.43085037,-0.57687225,-7.98300464,32.74789178,-29.89729345,10.0707384,-0.3552588325,0.676390087,-0.2985423208,-0.1871361324,0.4455748760999999,-0.65516307741,0.003
03:29:06,-0.1126203499999999,0.702098,-0.37900645,0.25624506,0.429305615,-0.5732713749999999,-8.01376428,32.737628810000004,-29.902958275,10.0616768,-0.35014743375,0.6683428365,-0.3031015316,-0.1853152498,0.44387026095,-0.651649297695,0.003
03:29:06,-0.1051333999999999,0.695281,-0.3798368,0.25534484,0.42776086,-0.5696705,-8.04452392,32.727365840000004,-29.9086231,10.0526152,-0.345036035,0.660295586,-0.3076607423999999,-0.1834943672,0.4421656457999999,-0.6481355179799999,0.003
03:29:06,-0.09764645,0.688464,-0.38066715,0.25444462,0.426216105,-0.5660696249999999,-8.075283559999999,32.717102870000005,-29.914287925,10.0435536,-0.33992463625,0.6522483355,-0.3122199531999999,-0.1816734846,0.44046103065,-0.6446217382649999,0.003
03:29:06,-0.0901595,0.681647,-0.3814975,0.2535444,0.42467135,-0.56246875,-8.1060432,32.706839900000006,-29.91995275,10.034492,-0.3348132375,0.6442010850000001,-0.3167791639999999,-0.179852602,0.4387564155,-0.6411079585499999,0.003
03:29:06,-0.0826725499999999,0.6748299999999999,-0.3823278499999999,0.25264418,0.423126595,-0.558867875,-8.13680284,32.69657693,-29.925617575,10.0254304,-0.32970183875,0.6361538345,-0.3213383748,-0.1780317194,0.4370518003499999,-0.6375941788349999,0.003
03:29:06,-0.0751855999999999,0.668013,-0.3831582,0.25174396,0.42158184,-0.555267,-8.167562479999999,32.68631396,-29.9312824,10.0163688,-0.32459044,0.628106584,-0.3258975856,-0.1762108368,0.4353471852,-0.6340803991199999,0.003
03:29:06,-0.06769865,0.661196,-0.38398855,0.25084374,0.420037085,-0.5516661249999999,-8.19832212,32.67605099,-29.936947225,10.0073072,-0.31947904125,0.6200593335,-0.3304567964,-0.1743899542,0.4336425700499999,-0.6305666194049999,0.003
03:29:06,-0.0602116999999999,0.6543789999999999,-0.3848189,0.24994352,0.4184923299999999,-0.54806525,-8.22908176,32.66578802,-29.94261205,9.9982456,-0.3143676425,0.612012083,-0.3350160072,-0.1725690716,0.4319379549,-0.6270528396899999,0.003
03:29:06,-0.0527247499999999,0.647562,-0.38564925,0.2490433,0.416947575,-0.544464375,-8.2598414,32.65552505,-29.948276875,9.989184,-0.30925624375,0.6039648325,-0.339575218,-0.170748189,0.43023333975,-0.6235390599749999,0.003
03:29:06,-0.0452377999999999,0.6407449999999999,-0.3864796,0.24814308,0.41540282,-0.5408634999999999,-8.29060104,32.64526208,-29.9539417,9.9801224,-0.304144845,0.595917582,-0.3441344288,-0.1689273064,0.4285287245999999,-0.6200252802599999,0.003
03:29:06,-0.03775085,0.633928,-0.38730995,0.24724286,0.413858065,-0.537262625,-8.32136068,32.63499911,-29.959606525,9.9710608,-0.29903344625,0.5878703315,-0.3486936396,-0.1671064238,0.42682410945,-0.6165115005449999,0.003
03:29:06,-0.0302639,0.627111,-0.3881403,0.24634264,0.41231331,-0.5336617499999999,-8.35212032,32.62473614,-29.96527135,9.9619992,-0.2939220475,0.579823081,-0.3532528504,-0.1652855412,0.4251194942999999,-0.6129977208299999,0.003
03:29:06,-0.02277695,0.6202939999999999,-0.38897065,0.24544242,0.410768555,-0.530060875,-8.38287996,32.614473170000004,-29.970936175,9.9529376,-0.28881064875,0.5717758305,-0.3578120612,-0.1634646586,0.42341487915,-0.6094839411149999,0.003
03:29:06,-0.0152899999999999,0.6134769999999999,-0.389801,0.2445422,0.4092237999999999,-0.5264599999999999,-8.4136396,32.604210200000004,-29.976601,9.943876,-0.28369925,0.56372858,-0.3623712719999999,-0.161643776,0.421710264,-0.6059701613999999,0.003
03:29:06,-0.0078030499999999,0.60666,-0.39063135,0.24364198,0.4076790449999999,-0.522859125,-8.44439924,32.593947230000005,-29.982265825,9.9348144,-0.27858785125,0.5556813295,-0.3669304827999999,-0.1598228934,0.4200056488499999,-0.6024563816849999,0.003
03:29:06,-0.0003160999999999,0.5998429999999999,-0.3914617,0.24274176,0.40613429,-0.5192582499999999,-8.47515888,32.583684260000005,-29.98793065,9.9257528,-0.2734764524999999,0.547634079,-0.3714896935999999,-0.1580020108,0.4183010337,-0.5989426019699999,0.003
03:29:06,0.00717085,0.5930259999999999,-0.39229205,0.24184154,0.404589535,-0.515657375,-8.50591852,32.57342129,-29.993595475,9.9166912,-0.2683650537499999,0.5395868285000001,-0.3760489043999999,-0.1561811282,0.4165964185499999,-0.5954288222549999,0.003
03:29:06,0.0146577999999999,0.586209,-0.3931224,0.24094132,0.40304478,-0.5120564999999999,-8.53667816,32.56315832,-29.9992603,9.9076296,-0.263253655,0.5315395780000001,-0.3806081152,-0.1543602456,0.4148918034,-0.5919150425399999,0.003
03:29:06,0.0221447499999999,0.5793919999999999,-0.39395275,0.2400411,0.401500025,-0.508455625,-8.5674378,32.55289535,-30.004925125,9.898568,-0.25814225625,0.5234923275000001,-0.385167326,-0.152539363,0.41318718825,-0.5884012628249999,0.003
03:29:06,0.0296316999999999,0.572575,-0.3947831,0.23914088,0.39995527,-0.50485475,-8.59819744,32.54263238,-30.01058995,9.8895064,-0.2530308575,0.5154450770000001,-0.3897265367999999,-0.1507184804,0.4114825730999999,-0.5848874831099999,0.003
03:29:06,0.03711865,0.565758,-0.39561345,0.23824066,0.398410515,-0.501253875,-8.62895708,32.53236941,-30.016254775,9.8804448,-0.24791945875,0.5073978265000001,-0.3942857476,-0.1488975978,0.40977795795,-0.5813737033949999,0.003
03:29:06,0.0446056,0.5589409999999999,-0.3964438,0.2373404399999999,0.39686576,-0.4976529999999999,-8.659716719999999,32.52210644,-30.0219196,9.8713832,-0.24280806,0.499350576,-0.3988449584,-0.1470767152,0.4080733427999999,-0.5778599236799999,0.003
03:29:06,0.05209255,0.552124,-0.39727415,0.23644022,0.395321005,-0.4940521249999999,-8.69047636,32.51184347,-30.027584425,9.8623216,-0.23769666125,0.4913033255,-0.4034041692,-0.1452558326,0.40636872765,-0.5743461439649999,0.003
03:29:06,0.0595795,0.545307,-0.3981045,0.23554,0.39377625,-0.4904512499999999,-8.721236,32.5015805,-30.03324925,9.85326,-0.2325852625,0.483256075,-0.40796338,-0.14343495,0.4046641125,-0.57083236425,0.003
03:29:06,0.06706645,0.5384899999999999,-0.39893485,0.23463978,0.392231495,-0.4868503749999999,-8.75199564,32.49131753,-30.038914075,9.8441984,-0.22747386375,0.4752088245,-0.4125225908,-0.1416140674,0.40295949735,-0.567318584535,0.003
03:29:06,0.0745533999999999,0.531673,-0.3997652,0.23373956,0.39068674,-0.4832494999999999,-8.78275528,32.481054560000004,-30.0445789,9.8351368,-0.222362465,0.467161574,-0.4170818015999999,-0.1397931848,0.4012548822,-0.56380480482,0.003
03:29:06,0.0820403499999999,0.524856,-0.40059555,0.23283934,0.3891419849999999,-0.4796486249999999,-8.81351492,32.470791590000005,-30.050243725,9.8260752,-0.21725106625,0.4591143235,-0.4216410123999999,-0.1379723022,0.3995502670499999,-0.560291025105,0.003
03:29:06,0.0895273,0.5180389999999999,-0.4014259,0.23193912,0.38759723,-0.47604775,-8.844274559999999,32.460528620000005,-30.05590855,9.8170136,-0.2121396675,0.451067073,-0.4262002231999999,-0.1361514196,0.3978456519,-0.55677724539,0.003
03:29:06,0.09701425,0.511222,-0.40225625,0.2310389,0.386052475,-0.4724468749999999,-8.8750342,32.45026565,-30.061573375,9.807952,-0.20702826875,0.4430198225,-0.430759434,-0.134330537,0.39614103675,-0.553263465675,0.003
03:29:06,0.1045012,0.504405,-0.4030866,0.23013868,0.38450772,-0.468846,-8.90579384,32.44000268,-30.0672382,9.7988904,-0.20191687,0.434972572,-0.4353186448,-0.1325096544,0.3944364216,-0.54974968596,0.003
03:29:06,0.11198815,0.497588,-0.40391695,0.22923846,0.382962965,-0.4652451249999999,-8.93655348,32.42973971,-30.072903025,9.7898288,-0.19680547125,0.4269253215,-0.4398778556,-0.1306887718,0.3927318064499999,-0.546235906245,0.003
03:29:06,0.1194751,0.4907709999999999,-0.4047473,0.22833824,0.38141821,-0.46164425,-8.96731312,32.41947674,-30.07856785,9.7807672,-0.1916940724999999,0.418878071,-0.4444370663999999,-0.1288678892,0.3910271912999999,-0.54272212653,0.003
03:29:06,0.12696205,0.4839539999999999,-0.40557765,0.22743802,0.379873455,-0.4580433749999999,-8.99807276,32.40921377,-30.084232675,9.7717056,-0.1865826737499999,0.4108308205,-0.4489962771999999,-0.1270470066,0.38932257615,-0.539208346815,0.003
03:29:06,0.1344489999999999,0.477137,-0.406408,0.2265378,0.3783286999999999,-0.4544424999999999,-9.0288324,32.3989508,-30.0898975,9.762644,-0.181471275,0.40278357,-0.4535554879999999,-0.125226124,0.387617961,-0.5356945671,0.003
03:29:06,0.14193595,0.4703199999999999,-0.4072383499999999,0.22563758,0.376783945,-0.4508416249999999,-9.05959204,32.38868783,-30.095562325,9.7535824,-0.17635987625,0.3947363195,-0.4581146988,-0.1234052414,0.38591334585,-0.532180787385,0.003
03:29:06,0.1494229,0.4635029999999999,-0.4080687,0.22473736,0.37523919,-0.4472407499999999,-9.09035168,32.37842486,-30.10122715,9.7445208,-0.1712484775,0.386689069,-0.4626739096,-0.1215843588,0.3842087306999999,-0.52866700767,0.003
03:29:06,0.15690985,0.456686,-0.40889905,0.22383714,0.373694435,-0.4436398749999999,-9.12111132,32.36816189,-30.106891975,9.7354592,-0.16613707875,0.3786418185,-0.4672331204,-0.1197634762,0.3825041155499999,-0.525153227955,0.003
03:29:06,0.1643968,0.4498689999999999,-0.4097294,0.22293692,0.37214968,-0.4400389999999999,-9.15187096,32.357898920000004,-30.1125568,9.7263976,-0.16102568,0.370594568,-0.4717923311999999,-0.1179425936,0.3807995004,-0.52163944824,0.003
03:29:06,0.17188375,0.4430519999999999,-0.41055975,0.2220367,0.370604925,-0.4364381249999999,-9.1826306,32.347635950000004,-30.118221625,9.717336,-0.15591428125,0.3625473175,-0.4763515419999999,-0.116121711,0.3790948852499999,-0.518125668525,0.003
03:29:06,0.1793707,0.436235,-0.4113901,0.22113648,0.36906017,-0.4328372499999999,-9.21339024,32.337372980000005,-30.12388645,9.7082744,-0.1508028825,0.354500067,-0.4809107527999999,-0.1143008284,0.3773902701,-0.51461188881,0.003
03:29:06,0.18685765,0.4294179999999999,-0.41222045,0.22023626,0.367515415,-0.4292363749999999,-9.24414988,32.32711001,-30.129551275,9.699212800000002,-0.14569148375,0.3464528165,-0.4854699635999999,-0.1124799458,0.3756856549499999,-0.511098109095,0.003
03:29:06,0.1943446,0.4226009999999999,-0.4130508,0.21933604,0.36597066,-0.4256354999999999,-9.27490952,32.31684704,-30.1352161,9.6901512,-0.140580085,0.338405566,-0.4900291744,-0.1106590632,0.3739810397999999,-0.50758432938,0.003
03:29:06,0.20183155,0.415784,-0.41388115,0.21843582,0.364425905,-0.422034625,-9.30566916,32.30658407,-30.140880925,9.6810896,-0.13546868625,0.3303583155,-0.4945883852,-0.1088381806,0.37227642465,-0.504070549665,0.003
03:29:06,0.2093185,0.4089669999999999,-0.4147115,0.2175356,0.36288115,-0.4184337499999999,-9.3364288,32.2963211,-30.14654575,9.672028,-0.1303572875,0.322311065,-0.4991475959999999,-0.107017298,0.3705718094999999,-0.50055676995,0.003
03:29:06,0.21680545,0.4021499999999999,-0.41554185,0.21663538,0.361336395,-0.4148328749999999,-9.36718844,32.28605813,-30.152210575,9.6629664,-0.1252458887499999,0.3142638144999999,-0.5037068067999999,-0.1051964153999999,0.36886719435,-0.497042990235,0.003
03:29:06,0.2242924,0.3953329999999999,-0.4163722,0.21573516,0.3597916399999999,-0.4112319999999999,-9.39794808,32.27579516,-30.1578754,9.6539048,-0.1201344899999999,0.3062165639999999,-0.5082660176,-0.1033755328,0.3671625791999999,-0.49352921052,0.003
03:29:06,0.23177935,0.388516,-0.41720255,0.21483494,0.358246885,-0.407631125,-9.42870772,32.26553219,-30.163540225,9.6448432,-0.1150230912499999,0.2981693135,-0.5128252283999999,-0.1015546502,0.36545796405,-0.490015430805,0.003
03:29:06,0.2392663,0.381699,-0.4180329,0.21393472,0.35670213,-0.40403025,-9.45946736,32.25526922,-30.16920505,9.6357816,-0.1099116924999999,0.290122063,-0.5173844392,-0.0997337676,0.3637533489,-0.48650165109,0.003
03:29:06,0.2467532499999999,0.3748819999999999,-0.41886325,0.2130345,0.355157375,-0.400429375,-9.490227,32.24500625,-30.174869875,9.62672,-0.10480029375,0.2820748125,-0.52194365,-0.097912885,0.3620487337499999,-0.482987871375,0.003
03:29:06,0.2542401999999999,0.368065,-0.4196936,0.21213428,0.35361262,-0.3968285,-9.52098664,32.23474328,-30.1805347,9.6176584,-0.099688895,0.274027562,-0.5265028608,-0.0960920024,0.3603441186,-0.47947409166,0.003
03:29:06,0.2617271499999999,0.361248,-0.42052395,0.21123406,0.352067865,-0.3932276249999999,-9.55174628,32.224480310000004,-30.186199525,9.6085968,-0.09457749625,0.2659803115,-0.5310620716,-0.0942711198,0.3586395034499999,-0.475960311945,0.003
03:29:06,0.2692140999999999,0.3544309999999999,-0.4213543,0.21033384,0.35052311,-0.3896267499999999,-9.58250592,32.214217340000005,-30.19186435,9.5995352,-0.0894660975,0.257933061,-0.5356212824,-0.0924502372,0.3569348883,-0.47244653223,0.003
03:29:06,0.27670105,0.347614,-0.42218465,0.20943362,0.348978355,-0.3860258749999999,-9.61326556,32.20395437,-30.197529175,9.5904736,-0.08435469875,0.2498858105,-0.5401804932,-0.0906293546,0.35523027315,-0.468932752515,0.003
03:29:06,0.284188,0.3407969999999999,-0.423015,0.2085334,0.3474336,-0.3824249999999999,-9.6440252,32.1936914,-30.203194,9.581412,-0.0792433,0.24183856,-0.5447397039999999,-0.088808472,0.3535256579999999,-0.4654189728,0.003
03:29:06,0.29167495,0.3339799999999999,-0.42384535,0.20763318,0.345888845,-0.3788241249999999,-9.67478484,32.18342843,-30.208858825,9.5723504,-0.07413190125,0.2337913095,-0.5492989148,-0.0869875894,0.35182104285,-0.4619051930849999,0.003
03:29:06,0.2991619,0.327163,-0.4246757,0.20673296,0.34434409,-0.3752232499999999,-9.70554448,32.17316546,-30.21452365,9.5632888,-0.0690205025,0.225744059,-0.5538581255999999,-0.0851667068,0.3501164276999999,-0.4583914133699999,0.003
03:29:06,0.30664885,0.3203459999999999,-0.42550605,0.20583274,0.342799335,-0.3716223749999999,-9.73630412,32.16290249,-30.220188475,9.5542272,-0.06390910375,0.2176968085,-0.5584173364,-0.0833458242,0.34841181255,-0.4548776336549999,0.003
03:29:06,0.3141358,0.3135289999999999,-0.4263364,0.20493252,0.34125458,-0.3680214999999999,-9.76706376,32.15263952,-30.2258533,9.5451656,-0.0587977049999999,0.2096495579999999,-0.5629765471999999,-0.0815249416,0.3467071974,-0.4513638539399999,0.003
03:29:06,0.32162275,0.306712,-0.42716675,0.2040323,0.339709825,-0.3644206249999999,-9.7978234,32.14237655,-30.231518125,9.536104,-0.0536863062499999,0.2016023074999999,-0.567535758,-0.079704059,0.3450025822499999,-0.4478500742249999,0.003
03:29:06,0.3291097,0.2998949999999999,-0.4279971,0.20313208,0.33816507,-0.3608197499999999,-9.82858304,32.13211358,-30.23718295,9.5270424,-0.0485749074999999,0.1935550569999999,-0.5720949687999999,-0.0778831764,0.3432979670999999,-0.4443362945099999,0.003
03:29:06,0.33659665,0.2930779999999999,-0.42882745,0.20223186,0.336620315,-0.3572188749999999,-9.85934268,32.12185061,-30.242847775,9.5179808,-0.0434635087499999,0.1855078064999999,-0.5766541796,-0.0760622938,0.3415933519499999,-0.4408225147949999,0.003
03:29:06,0.3440836,0.286261,-0.4296578,0.20133164,0.33507556,-0.353618,-9.89010232,32.11158764,-30.2485126,9.5089192,-0.0383521099999999,0.177460556,-0.5812133904,-0.0742414112,0.3398887368,-0.4373087350799999,0.003
03:29:06,0.35157055,0.2794439999999999,-0.43048815,0.20043142,0.333530805,-0.350017125,-9.92086196,32.101324670000004,-30.254177425,9.4998576,-0.03324071125,0.1694133055,-0.5857726012,-0.0724205286,0.33818412165,-0.4337949553649999,0.003
03:29:06,0.3590575,0.2726269999999999,-0.4313185,0.1995312,0.33198605,-0.34641625,-9.9516216,32.091061700000004,-30.25984225,9.490796,-0.0281293125,0.161366055,-0.590331812,-0.070599646,0.3364795064999999,-0.4302811756499999,0.003
03:29:06,0.3665444499999999,0.26581,-0.43214885,0.19863098,0.3304412949999999,-0.342815375,-9.98238124,32.08079873,-30.265507075,9.4817344,-0.02301791375,0.1533188045,-0.5948910228,-0.0687787634,0.3347748913499999,-0.4267673959349999,0.003
03:29:06,0.3740313999999999,0.2589929999999999,-0.4329792,0.19773076,0.32889654,-0.3392145,-10.01314088,32.07053576,-30.2711719,9.472672800000002,-0.017906515,0.145271554,-0.5994502335999999,-0.0669578808,0.3330702761999999,-0.4232536162199999,0.003
03:29:06,0.38151835,0.2521759999999999,-0.43380955,0.19683054,0.327351785,-0.3356136249999999,-10.04390052,32.06027279,-30.276836725,9.4636112,-0.01279511625,0.1372243035,-0.6040094443999999,-0.0651369982,0.33136566105,-0.4197398365049999,0.003
03:29:06,0.3890053,0.245359,-0.4346399,0.19593032,0.32580703,-0.3320127499999999,-10.07466016,32.05000982,-30.28250155,9.4545496,-0.0076837175,0.129177053,-0.6085686552,-0.0633161156,0.3296610459,-0.4162260567899999,0.003
03:29:06,0.39649225,0.2385419999999999,-0.43547025,0.1950301,0.324262275,-0.3284118749999999,-10.1054198,32.03974685,-30.288166375,9.445488,-0.00257231875,0.1211298025,-0.6131278659999999,-0.061495233,0.3279564307499999,-0.4127122770749999,0.003
03:29:06,0.4039792,0.2317249999999999,-0.4363006,0.19412988,0.32271752,-0.3248109999999999,-10.13617944,32.02948388,-30.2938312,9.4364264,0.00253908,0.1130825519999999,-0.6176870768,-0.0596743504,0.3262518155999999,-0.4091984973599999,0.003
03:29:06,0.41146615,0.224908,-0.43713095,0.19322966,0.321172765,-0.3212101249999999,-10.16693908,32.01922091,-30.299496025,9.4273648,0.00765047875,0.1050353014999999,-0.6222462875999999,-0.0578534678,0.3245472004499999,-0.4056847176449999,0.003
03:29:06,0.4189531,0.2180909999999999,-0.4379613,0.19232944,0.3196280099999999,-0.3176092499999999,-10.19769872,32.00895794,-30.30516085,9.4183032,0.0127618775,0.0969880509999999,-0.6268054984,-0.0560325852,0.3228425853,-0.4021709379299999,0.003
03:29:06,0.42644005,0.2112739999999999,-0.43879165,0.19142922,0.318083255,-0.3140083749999999,-10.22845836,31.998694970000003,-30.310825675,9.4092416,0.01787327625,0.0889408004999999,-0.6313647091999999,-0.0542117025999999,0.32113797015,-0.398657158215,0.003
03:29:06,0.433927,0.204457,-0.439622,0.190529,0.3165385,-0.3104074999999999,-10.259218,31.988432000000003,-30.3164905,9.40018,0.022984675,0.0808935499999999,-0.63592392,-0.05239082,0.319433355,-0.3951433785,0.003
03:29:06,0.44141395,0.1976399999999999,-0.44045235,0.18962878,0.314993745,-0.3068066249999999,-10.28997764,31.97816903,-30.322155325,9.3911184,0.02809607375,0.0728462994999999,-0.6404831308,-0.0505699374,0.3177287398499999,-0.391629598785,0.003
03:29:06,0.4489009,0.1908229999999999,-0.4412827,0.18872856,0.31344899,-0.3032057499999999,-10.32073728,31.96790606,-30.32782015,9.3820568,0.0332074725,0.064799049,-0.6450423416,-0.0487490548,0.3160241246999999,-0.38811581907,0.003
03:29:06,0.45638785,0.184006,-0.44211305,0.18782834,0.311904235,-0.2996048749999999,-10.35149692,31.95764309,-30.333484975,9.3729952,0.03831887125,0.0567517985,-0.6496015524,-0.0469281722,0.31431950955,-0.384602039355,0.003
03:29:06,0.4638748,0.1771889999999999,-0.4429434,0.18692812,0.31035948,-0.2960039999999999,-10.38225656,31.94738012,-30.3391498,9.3639336,0.0434302699999999,0.048704548,-0.6541607631999999,-0.0451072896,0.3126148944,-0.38108825964,0.003
03:29:06,0.4713617499999999,0.1703719999999999,-0.44377375,0.1860279,0.308814725,-0.292403125,-10.4130162,31.93711715,-30.344814625,9.354872,0.0485416687499999,0.0406572975,-0.6587199739999999,-0.043286407,0.31091027925,-0.377574479925,0.003
03:29:06,0.4788486999999999,0.163555,-0.4446041,0.18512768,0.30726997,-0.28880225,-10.44377584,31.92685418,-30.35047945,9.3458104,0.0536530674999999,0.032610047,-0.6632791847999999,-0.0414655244,0.3092056640999999,-0.37406070021,0.003
03:29:06,0.48633565,0.1567379999999999,-0.44543445,0.18422746,0.305725215,-0.285201375,-10.47453548,31.91659121,-30.356144275,9.3367488,0.0587644662499999,0.0245627965,-0.6678383956,-0.0396446418,0.3075010489499999,-0.370546920495,0.003
03:29:06,0.4938226,0.1499209999999999,-0.4462648,0.18332724,0.30418046,-0.2816005,-10.50529512,31.90632824,-30.3618091,9.327687200000002,0.0638758649999999,0.016515546,-0.6723976063999999,-0.0378237592,0.3057964338,-0.36703314078,0.003
03:29:06,0.50130955,0.143104,-0.44709515,0.18242702,0.302635705,-0.277999625,-10.53605476,31.89606527,-30.367473925,9.3186256,0.0689872637499999,0.0084682954999999,-0.6769568172,-0.0360028766,0.30409181865,-0.363519361065,0.003
03:29:06,0.5087965000000001,0.1362869999999999,-0.4479255,0.1815268,0.3010909499999999,-0.2743987499999999,-10.5668144,31.8858023,-30.37313875,9.309564,0.0740986624999999,0.0004210449999999,-0.681516028,-0.0341819939999999,0.3023872035,-0.36000558135,0.003
03:29:06,0.51628345,0.1294699999999999,-0.44875585,0.18062658,0.299546195,-0.2707978749999999,-10.59757404,31.87553933,-30.378803575,9.3005024,0.0792100612499999,-0.0076262055,-0.6860752388,-0.0323611114,0.3006825883499999,-0.356491801635,0.003
03:29:06,0.5237704000000001,0.122653,-0.4495862,0.17972636,0.29800144,-0.2671969999999999,-10.62833368,31.865276360000003,-30.3844684,9.2914408,0.0843214599999999,-0.015673456,-0.6906344496,-0.0305402288,0.2989779731999999,-0.3529780219199999,0.003
03:29:06,0.53125735,0.1158359999999999,-0.45041655,0.17882614,0.296456685,-0.2635961249999999,-10.65909332,31.85501339,-30.390133225,9.2823792,0.0894328587499999,-0.0237207065,-0.6951936604,-0.0287193461999999,0.29727335805,-0.3494642422049999,0.003
03:29:06,0.5387443000000001,0.1090189999999999,-0.4512469,0.17792592,0.29491193,-0.2599952499999999,-10.68985296,31.84475042,-30.39579805,9.2733176,0.0945442574999999,-0.031767957,-0.6997528712,-0.0268984636,0.2955687428999999,-0.3459504624899999,0.003
03:29:06,0.54623125,0.1022019999999999,-0.45207725,0.1770257,0.293367175,-0.2563943749999999,-10.7206126,31.83448745,-30.401462875,9.264256,0.0996556562499999,-0.0398152075,-0.704312082,-0.025077581,0.29386412775,-0.3424366827749999,0.003
03:29:06,0.5537182,0.0953849999999999,-0.4529076,0.17612548,0.29182242,-0.2527934999999999,-10.751372239999998,31.82422448,-30.4071277,9.2551944,0.104767055,-0.047862458,-0.7088712927999999,-0.0232566983999999,0.2921595125999999,-0.3389229030599999,0.003
03:29:06,0.5612051499999999,0.0885679999999999,-0.45373795,0.17522526,0.2902776649999999,-0.2491926249999999,-10.78213188,31.81396151,-30.412792525,9.246132800000002,0.10987845375,-0.0559097084999999,-0.7134305035999999,-0.0214358158,0.2904548974499999,-0.3354091233449999,0.003
03:29:06,0.5686921,0.0817509999999999,-0.4545683,0.17432504,0.28873291,-0.2455917499999999,-10.81289152,31.80369854,-30.41845735,9.2370712,0.1149898525,-0.0639569589999999,-0.7179897143999999,-0.0196149332,0.2887502823,-0.3318953436299999,0.003
03:29:06,0.5761790499999999,0.0749339999999999,-0.45539865,0.17342482,0.287188155,-0.2419908749999999,-10.84365116,31.79343557,-30.424122175,9.2280096,0.12010125125,-0.0720042094999999,-0.7225489251999999,-0.0177940506,0.2870456671499999,-0.3283815639149999,0.003
03:29:06,0.583666,0.0681169999999999,-0.456229,0.1725246,0.2856434,-0.23839,-10.8744108,31.7831726,-30.429787,9.218948,0.12521265,-0.0800514599999999,-0.7271081359999999,-0.015973168,0.285341052,-0.3248677841999999,0.003
03:29:06,0.5911529500000001,0.0612999999999999,-0.45705935,0.17162438,0.284098645,-0.234789125,-10.90517044,31.77290963,-30.435451825,9.2098864,0.13032404875,-0.0880987104999999,-0.7316673467999999,-0.0141522854,0.2836364368499999,-0.3213540044849999,0.003
03:29:06,0.5986399,0.0544829999999999,-0.4578897,0.17072416,0.28255389,-0.2311882499999999,-10.93593008,31.76264666,-30.44111665,9.2008248,0.1354354475,-0.096145961,-0.7362265576,-0.0123314028,0.2819318217,-0.3178402247699999,0.003
03:29:06,0.6061268500000001,0.0476659999999999,-0.45872005,0.16982394,0.281009135,-0.2275873749999999,-10.96668972,31.75238369,-30.446781475,9.1917632,0.14054684625,-0.1041932115,-0.7407857684,-0.0105105202,0.28022720655,-0.3143264450549999,0.003
03:29:06,0.6136138,0.0408489999999999,-0.4595504,0.16892372,0.27946438,-0.2239864999999999,-10.99744936,31.742120720000003,-30.4524463,9.1827016,0.145658245,-0.112240462,-0.7453449792,-0.0086896375999999,0.2785225913999999,-0.3108126653399999,0.003
03:29:06,0.6211007500000001,0.0340319999999999,-0.46038075,0.1680235,0.277919625,-0.2203856249999999,-11.028209,31.73185775,-30.458111125,9.17364,0.15076964375,-0.1202877125,-0.74990419,-0.006868755,0.2768179762499999,-0.3072988856249999,0.003
03:29:06,0.6285877,0.0272149999999999,-0.4612111,0.16712328,0.27637487,-0.2167847499999999,-11.05896864,31.72159478,-30.46377595,9.1645784,0.1558810425,-0.128334963,-0.7544634008,-0.0050478724,0.2751133610999999,-0.3037851059099999,0.003
03:29:06,0.6360746500000001,0.0203979999999999,-0.46204145,0.16622306,0.274830115,-0.2131838749999999,-11.08972828,31.71133181,-30.469440775,9.1555168,0.16099244125,-0.1363822135,-0.7590226116,-0.0032269897999999,0.27340874595,-0.3002713261949999,0.003
03:29:06,0.6435616,0.0135809999999999,-0.4628718,0.16532284,0.27328536,-0.2095829999999999,-11.12048792,31.70106884,-30.4751056,9.1464552,0.16610384,-0.144429464,-0.7635818223999999,-0.0014061072,0.2717041308,-0.2967575464799999,0.003
03:29:06,0.6510485500000001,0.0067639999999999,-0.46370215,0.16442262,0.2717406049999999,-0.2059821249999999,-11.15124756,31.69080587,-30.480770425,9.1373936,0.17121523875,-0.1524767145,-0.7681410331999999,0.0004147753999999,0.2699995156499999,-0.2932437667649999,0.003
03:29:06,0.6585354999999999,-5.300000000008076e-05,-0.4645325,0.1635224,0.27019585,-0.2023812499999999,-11.1820072,31.680542900000003,-30.48643525,9.128332,0.1763266375,-0.160523965,-0.7727002439999999,0.002235658,0.2682949004999999,-0.2897299870499999,0.003
03:29:06,0.66602245,-0.00687,-0.46536285,0.16262218,0.268651095,-0.1987803749999999,-11.21276684,31.67027993,-30.492100075,9.1192704,0.18143803625,-0.1685712154999999,-0.7772594547999999,0.0040565405999999,0.2665902853499999,-0.286216207335,0.003
03:29:06,0.6735093999999999,-0.013687,-0.4661932,0.16172196,0.26710634,-0.1951794999999999,-11.24352648,31.66001696,-30.4977649,9.1102088,0.1865494349999999,-0.1766184659999999,-0.7818186655999999,0.0058774231999999,0.2648856702,-0.28270242762,0.003
03:29:06,0.68099635,-0.020504,-0.46702355,0.16082174,0.265561585,-0.1915786249999999,-11.27428612,31.64975399,-30.503429725,9.101147200000002,0.1916608337499999,-0.1846657164999999,-0.7863778763999999,0.0076983057999999,0.26318105505,-0.279188647905,0.003
03:29:06,0.6884833000000001,-0.027321,-0.4678539,0.15992152,0.26401683,-0.1879777499999999,-11.30504576,31.63949102,-30.50909455,9.0920856,0.1967722324999999,-0.1927129669999999,-0.7909370871999999,0.0095191883999999,0.2614764398999999,-0.27567486819,0.003
03:29:06,0.69597025,-0.034138,-0.46868425,0.1590213,0.262472075,-0.1843768749999999,-11.3358054,31.62922805,-30.514759375,9.083024000000002,0.2018836312499999,-0.2007602174999999,-0.795496298,0.011340071,0.2597718247499999,-0.272161088475,0.003
03:29:06,0.7034572000000001,-0.040955,-0.4695146,0.15812108,0.26092732,-0.1807759999999999,-11.36656504,31.61896508,-30.5204242,9.0739624,0.2069950299999999,-0.2088074679999999,-0.8000555088,0.0131609535999999,0.2580672095999999,-0.26864730876,0.003
03:29:06,0.71094415,-0.047772,-0.47034495,0.15722086,0.259382565,-0.177175125,-11.39732468,31.60870211,-30.526089025,9.0649008,0.2121064287499999,-0.2168547184999999,-0.8046147196,0.0149818361999999,0.25636259445,-0.265133529045,0.003
03:29:06,0.7184311000000001,-0.054589,-0.4711753,0.15632064,0.25783781,-0.1735742499999999,-11.42808432,31.59843914,-30.53175385,9.0558392,0.2172178274999999,-0.2249019689999999,-0.8091739304,0.0168027188,0.2546579793,-0.26161974933,0.003
03:29:06,0.72591805,-0.061406,-0.47200565,0.15542042,0.256293055,-0.1699733749999999,-11.45884396,31.58817617,-30.537418675,9.0467776,0.2223292262499999,-0.2329492194999999,-0.8137331412,0.0186236013999999,0.2529533641499999,-0.258105969615,0.003
03:29:06,0.7334050000000001,-0.068223,-0.472836,0.1545202,0.2547483,-0.1663724999999999,-11.4896036,31.5779132,-30.5430835,9.037716,0.2274406249999999,-0.2409964699999999,-0.818292352,0.0204444839999999,0.2512487489999999,-0.2545921899,0.003
03:29:06,0.74089195,-0.07504,-0.47366635,0.15361998,0.253203545,-0.1627716249999999,-11.520363239999998,31.56765023,-30.548748325,9.0286544,0.23255202375,-0.2490437205000001,-0.8228515627999999,0.0222653666,0.2495441338499999,-0.251078410185,0.003
03:29:06,0.7483789000000001,-0.081857,-0.4744967,0.15271976,0.25165879,-0.1591707499999999,-11.55112288,31.55738726,-30.55441315,9.019592800000002,0.2376634225,-0.2570909710000001,-0.8274107735999999,0.0240862492,0.2478395186999999,-0.24756463047,0.003
03:29:06,0.7558658500000002,-0.088674,-0.47532705,0.15181954,0.250114035,-0.1555698749999999,-11.58188252,31.54712429,-30.560077975,9.0105312,0.24277482125,-0.2651382215000001,-0.8319699843999999,0.0259071317999999,0.2461349035499999,-0.244050850755,0.003
03:29:06,0.7633528,-0.0954910000000001,-0.4761574,0.15091932,0.24856928,-0.1519689999999999,-11.61264216,31.53686132,-30.5657428,9.0014696,0.24788622,-0.2731854720000001,-0.8365291951999999,0.0277280144,0.2444302883999999,-0.24053707104,0.003
03:29:06,0.7708397500000002,-0.102308,-0.47698775,0.1500191,0.247024525,-0.1483681249999999,-11.6434018,31.52659835,-30.571407625,8.992408000000001,0.25299761875,-0.2812327225000001,-0.8410884059999999,0.029548897,0.2427256732499999,-0.237023291325,0.003
03:29:06,0.7783267,-0.109125,-0.4778181,0.14911888,0.24547977,-0.14476725,-11.67416144,31.51633538,-30.57707245,8.9833464,0.2581090175,-0.2892799730000001,-0.8456476167999999,0.0313697795999999,0.2410210580999999,-0.23350951161,0.003
03:29:06,0.7858136500000001,-0.1159420000000001,-0.47864845,0.14821866,0.243935015,-0.1411663749999999,-11.704921079999998,31.50607241,-30.582737275,8.974284800000001,0.26322041625,-0.2973272235,-0.8502068275999999,0.0331906622,0.2393164429499999,-0.229995731895,0.003
03:29:06,0.7933006,-0.1227589999999999,-0.4794788,0.14731844,0.24239026,-0.1375655,-11.73568072,31.49580944,-30.5884021,8.9652232,0.268331815,-0.305374474,-0.8547660384,0.0350115448,0.2376118277999999,-0.22648195218,0.003
03:29:06,0.8007875500000001,-0.129576,-0.48030915,0.14641822,0.240845505,-0.1339646249999999,-11.76644036,31.48554647,-30.594066925,8.956161600000001,0.27344321375,-0.3134217245,-0.8593252492,0.0368324273999999,0.2359072126499999,-0.222968172465,0.003
03:29:06,0.8082745,-0.1363930000000001,-0.4811395,0.145518,0.23930075,-0.13036375,-11.7972,31.4752835,-30.59973175,8.9471,0.2785546125,-0.321468975,-0.86388446,0.0386533099999999,0.2342025974999999,-0.21945439275,0.003
03:29:06,0.8157614500000001,-0.1432099999999999,-0.48196985,0.14461778,0.237755995,-0.1267628749999999,-11.82795964,31.46502053,-30.605396575,8.9380384,0.28366601125,-0.3295162255,-0.8684436708,0.0404741926,0.2324979823499999,-0.215940613035,0.003
03:29:06,0.8232484,-0.150027,-0.4828002,0.14371756,0.23621124,-0.123162,-11.85871928,31.45475756,-30.6110614,8.928976800000001,0.28877741,-0.337563476,-0.8730028816,0.0422950751999999,0.2307933672,-0.21242683332,0.003
03:29:06,0.8307353500000001,-0.1568440000000001,-0.48363055,0.14281734,0.234666485,-0.1195611249999999,-11.889478919999998,31.44449459,-30.616726225,8.9199152,0.29388880875,-0.3456107265,-0.8775620923999999,0.0441159577999999,0.2290887520499999,-0.208913053605,0.003
03:29:06,0.8382223,-0.1636609999999999,-0.4844609,0.14191712,0.23312173,-0.1159602499999999,-11.92023856,31.43423162,-30.62239105,8.910853600000001,0.2990002075,-0.353657977,-0.8821213031999999,0.0459368404,0.2273841368999999,-0.20539927389,0.003
03:29:06,0.8457092500000001,-0.170478,-0.48529125,0.1410169,0.231576975,-0.1123593749999999,-11.9509982,31.42396865,-30.628055875,8.901792,0.30411160625,-0.3617052275,-0.8866805139999999,0.0477577229999999,0.2256795217499999,-0.201885494175,0.003
03:29:06,0.8531962,-0.1772950000000001,-0.4861216,0.14011668,0.23003222,-0.1087584999999999,-11.98175784,31.41370568,-30.6337207,8.892730400000001,0.309223005,-0.369752478,-0.8912397247999999,0.0495786055999999,0.2239749065999999,-0.19837171446,0.003
03:29:06,0.8606831500000001,-0.1841119999999999,-0.48695195,0.13921646,0.228487465,-0.1051576249999999,-12.01251748,31.40344271,-30.639385525,8.8836688,0.31433440375,-0.3777997285,-0.8957989355999999,0.0513994882,0.22227029145,-0.194857934745,0.003
03:29:06,0.8681701000000002,-0.190929,-0.4877823,0.13831624,0.22694271,-0.1015567499999999,-12.04327712,31.39317974,-30.64505035,8.874607200000002,0.3194458025,-0.385846979,-0.9003581463999999,0.0532203707999999,0.2205656762999999,-0.19134415503,0.003
03:29:06,0.87565705,-0.1977460000000001,-0.48861265,0.13741602,0.225397955,-0.0979558749999999,-12.074036759999998,31.38291677,-30.650715175,8.8655456,0.32455720125,-0.3938942294999999,-0.9049173572,0.0550412533999999,0.2188610611499999,-0.187830375315,0.003
03:29:06,0.8831440000000002,-0.2045630000000001,-0.489443,0.1365158,0.2238532,-0.0943549999999999,-12.1047964,31.3726538,-30.65638,8.856484000000002,0.3296686,-0.4019414799999999,-0.909476568,0.056862136,0.2171564459999999,-0.1843165956,0.003
03:29:06,0.89063095,-0.21138,-0.49027335,0.13561558,0.222308445,-0.090754125,-12.13555604,31.36239083,-30.662044825,8.847422400000001,0.33477999875,-0.4099887304999999,-0.9140357788,0.0586830185999999,0.2154518308499999,-0.1808028158849999,0.003
03:29:06,0.8981179000000001,-0.218197,-0.4911037,0.13471536,0.22076369,-0.0871532499999999,-12.16631568,31.35212786,-30.66770965,8.8383608,0.3398913974999999,-0.4180359809999999,-0.9185949896,0.0605039011999999,0.2137472157,-0.1772890361699999,0.003
03:29:06,0.90560485,-0.2250140000000001,-0.49193405,0.13381514,0.219218935,-0.083552375,-12.19707532,31.34186489,-30.673374475,8.829299200000001,0.3450027962499999,-0.4260832314999999,-0.9231542004,0.0623247838,0.2120426005499999,-0.1737752564549999,0.003
03:29:06,0.9130918,-0.231831,-0.4927644,0.13291492,0.21767418,-0.0799514999999999,-12.22783496,31.33160192,-30.6790393,8.8202376,0.3501141949999999,-0.4341304819999999,-0.9277134112,0.0641456663999999,0.2103379853999999,-0.1702614767399999,0.003
03:29:06,0.92057875,-0.238648,-0.49359475,0.1320147,0.216129425,-0.076350625,-12.2585946,31.32133895,-30.684704125,8.811176000000001,0.3552255937499999,-0.4421777324999999,-0.932272622,0.0659665489999999,0.2086333702499999,-0.1667476970249999,0.003
03:29:06,0.9280657,-0.2454650000000001,-0.4944251,0.13111448,0.21458467,-0.0727497499999999,-12.28935424,31.31107598,-30.69036895,8.8021144,0.3603369924999999,-0.4502249829999999,-0.9368318328,0.0677874316,0.2069287550999999,-0.1632339173099999,0.003
03:29:06,0.93555265,-0.252282,-0.49525545,0.13021426,0.213039915,-0.069148875,-12.32011388,31.30081301,-30.696033775,8.793052800000002,0.36544839125,-0.4582722335000001,-0.9413910436,0.0696083142,0.20522413995,-0.1597201375949999,0.003
03:29:06,0.9430396,-0.2590990000000001,-0.4960858,0.12931404,0.21149516,-0.0655479999999999,-12.35087352,31.29055004,-30.7016986,8.7839912,0.37055979,-0.4663194840000001,-0.9459502544,0.0714291967999999,0.2035195247999999,-0.1562063578799999,0.003
03:29:06,0.95052655,-0.2659160000000001,-0.49691615,0.12841382,0.209950405,-0.0619471249999999,-12.38163316,31.28028707,-30.707363425,8.7749296,0.37567118875,-0.4743667345000001,-0.9505094652,0.0732500794,0.2018149096499999,-0.1526925781649999,0.003
03:29:06,0.9580135,-0.272733,-0.4977465,0.1275136,0.20840565,-0.0583462499999999,-12.4123928,31.2700241,-30.71302825,8.765868000000001,0.3807825875,-0.4824139850000001,-0.955068676,0.075070962,0.2001102944999999,-0.1491787984499999,0.003
03:29:06,0.9655004500000002,-0.2795500000000001,-0.49857685,0.12661338,0.206860895,-0.0547453749999999,-12.44315244,31.25976113,-30.718693075,8.7568064,0.38589398625,-0.4904612355000001,-0.9596278868,0.0768918445999999,0.1984056793499999,-0.1456650187349999,0.003
03:29:06,0.9729874,-0.2863670000000001,-0.4994072,0.12571316,0.20531614,-0.0511444999999999,-12.47391208,31.24949816,-30.7243579,8.747744800000001,0.391005385,-0.4985084860000001,-0.9641870976,0.0787127272,0.1967010641999999,-0.1421512390199999,0.003
03:29:06,0.9804743500000002,-0.293184,-0.50023755,0.12481294,0.203771385,-0.0475436249999999,-12.50467172,31.23923519,-30.730022725,8.7386832,0.39611678375,-0.5065557365000001,-0.9687463084,0.0805336098,0.1949964490499999,-0.1386374593049999,0.003
03:29:06,0.9879613,-0.3000010000000001,-0.5010679,0.12391272,0.20222663,-0.0439427499999999,-12.53543136,31.22897222,-30.73568755,8.729621600000002,0.4012281825,-0.5146029870000001,-0.9733055192,0.0823544923999999,0.1932918339,-0.1351236795899999,0.003
03:29:06,0.99544825,-0.3068180000000001,-0.50189825,0.1230125,0.200681875,-0.0403418749999999,-12.566191,31.21870925,-30.741352375,8.72056,0.40633958125,-0.5226502375000001,-0.97786473,0.084175375,0.1915872187499999,-0.1316098998749999,0.003
03:29:06,1.0029352,-0.313635,-0.5027286,0.12211228,0.19913712,-0.036741,-12.59695064,31.20844628,-30.7470172,8.7114984,0.41145098,-0.530697488,-0.9824239408,0.0859962576,0.1898826035999999,-0.1280961201599999,0.003
03:29:06,1.01042215,-0.320452,-0.5035589500000001,0.12121206,0.197592365,-0.0331401249999999,-12.62771028,31.19818331,-30.752682025,8.702436800000001,0.41656237875,-0.5387447385,-0.9869831516,0.0878171401999999,0.1881779884499999,-0.1245823404449999,0.003
03:29:06,1.0179091,-0.3272690000000001,-0.5043893,0.12031184,0.19604761,-0.02953925,-12.658469919999998,31.18792034,-30.75834685,8.6933752,0.4216737775,-0.546791989,-0.9915423624,0.0896380228,0.1864733732999999,-0.1210685607299999,0.003
03:29:06,1.02539605,-0.334086,-0.50521965,0.11941162,0.194502855,-0.0259383749999999,-12.68922956,31.17765737,-30.764011675,8.684313600000001,0.42678517625,-0.5548392395,-0.9961015732,0.0914589054,0.18476875815,-0.1175547810149999,0.003
03:29:06,1.032883,-0.340903,-0.50605,0.1185114,0.1929581,-0.0223375,-12.7199892,31.1673944,-30.7696765,8.675252,0.431896575,-0.56288649,-1.000660784,0.0932797879999999,0.1830641429999999,-0.1140410012999999,0.003
03:29:06,1.04036995,-0.3477200000000001,-0.5068803500000001,0.11761118,0.191413345,-0.0187366249999999,-12.75074884,31.15713143,-30.775341325,8.666190400000001,0.43700797375,-0.5709337405,-1.0052199948,0.0951006705999999,0.1813595278499999,-0.1105272215849999,0.003
03:29:06,1.0478569,-0.354537,-0.5077107000000001,0.11671096,0.18986859,-0.01513575,-12.78150848,31.14686846,-30.78100615,8.6571288,0.4421193725,-0.578980991,-1.0097792056,0.0969215532,0.1796549126999999,-0.1070134418699999,0.003
03:29:06,1.05534385,-0.361354,-0.50854105,0.11581074,0.188323835,-0.0115348749999999,-12.81226812,31.13660549,-30.786670975,8.648067200000002,0.44723077125,-0.5870282415,-1.0143384163999998,0.0987424357999999,0.1779502975499999,-0.1034996621549999,0.003
03:29:06,1.0628308,-0.3681710000000001,-0.5093714,0.11491052,0.18677908,-0.0079339999999999,-12.843027759999998,31.12634252,-30.7923358,8.6390056,0.45234217,-0.595075492,-1.0188976272,0.1005633183999999,0.1762456824,-0.0999858824399999,0.003
03:29:06,1.07031775,-0.374988,-0.51020175,0.1140103,0.185234325,-0.0043331249999999,-12.8737874,31.11607955,-30.798000625,8.629944000000002,0.45745356875,-0.6031227425,-1.023456838,0.102384201,0.1745410672499999,-0.0964721027249999,0.003
03:29:06,1.0778047000000002,-0.381805,-0.5110321,0.11311008,0.18368957,-0.0007322499999999,-12.90454704,31.10581658,-30.80366545,8.620882400000001,0.4625649675,-0.611169993,-1.0280160488,0.1042050835999999,0.1728364520999999,-0.0929583230099999,0.003
03:29:06,1.08529165,-0.3886220000000001,-0.51186245,0.11220986,0.182144815,0.002868625,-12.93530668,31.09555361,-30.809330275,8.6118208,0.46767636625,-0.6192172435,-1.0325752596,0.1060259661999999,0.1711318369499999,-0.0894445432949999,0.003
03:29:06,1.0927786000000002,-0.395439,-0.5126928000000001,0.11130964,0.18060006,0.0064695,-12.96606632,31.08529064,-30.8149951,8.602759200000001,0.4727877649999999,-0.627264494,-1.0371344703999998,0.1078468488,0.1694272217999999,-0.0859307635799999,0.003
03:29:06,1.10026555,-0.402256,-0.51352315,0.11040942,0.179055305,0.010070375,-12.99682596,31.07502767,-30.820659925,8.5936976,0.4778991637499999,-0.6353117444999999,-1.0416936812,0.1096677313999999,0.1677226066499999,-0.0824169838649999,0.003
03:29:06,1.1077525,-0.4090730000000001,-0.5143535,0.1095092,0.17751055,0.01367125,-13.027585599999998,31.0647647,-30.82632475,8.584636000000001,0.4830105624999999,-0.6433589949999999,-1.046252892,0.1114886139999999,0.1660179914999999,-0.0789032041499999,0.003
03:29:06,1.11523945,-0.41589,-0.51518385,0.10860898,0.175965795,0.017272125,-13.05834524,31.05450173,-30.831989575,8.5755744,0.4881219612499999,-0.6514062454999999,-1.0508121028,0.1133094966,0.1643133763499999,-0.0753894244349999,0.003
03:29:06,1.1227264,-0.422707,-0.5160142000000001,0.10770876,0.17442104,0.020873,-13.08910488,31.04423876,-30.8376544,8.566512800000002,0.49323336,-0.6594534960000001,-1.0553713135999998,0.1151303791999999,0.1626087611999999,-0.0718756447199999,0.003
03:29:06,1.13021335,-0.4295240000000001,-0.5168445500000001,0.10680854,0.172876285,0.0244738749999999,-13.11986452,31.03397579,-30.843319225,8.557451200000001,0.49834475875,-0.6675007465000001,-1.0599305244,0.1169512617999999,0.1609041460499999,-0.0683618650049999,0.003
03:29:06,1.1377003,-0.436341,-0.5176749,0.10590832,0.17133153,0.02807475,-13.15062416,31.02371282,-30.84898405,8.5483896,0.5034561575000001,-0.6755479970000001,-1.0644897352,0.1187721444,0.1591995308999999,-0.0648480852899999,0.003
03:29:06,1.14518725,-0.443158,-0.51850525,0.1050081,0.169786775,0.0316756249999999,-13.1813838,31.01344985,-30.854648875,8.539328000000001,0.50856755625,-0.6835952475000001,-1.069048946,0.120593027,0.1574949157499999,-0.0613343055749999,0.003
03:29:06,1.1526742,-0.4499750000000001,-0.5193356,0.10410788,0.16824202,0.0352765,-13.212143439999998,31.00318688,-30.8603137,8.5302664,0.513678955,-0.6916424980000001,-1.0736081567999998,0.1224139095999999,0.1557903006,-0.0578205258599999,0.003
03:29:06,1.16016115,-0.456792,-0.52016595,0.10320766,0.166697265,0.0388773749999999,-13.24290308,30.99292391,-30.865978525,8.521204800000001,0.51879035375,-0.6996897485000001,-1.0781673676,0.1242347922,0.1540856854499999,-0.0543067461449999,0.003
03:29:06,1.1676481,-0.463609,-0.5209963,0.10230744,0.16515251,0.04247825,-13.27366272,30.98266094,-30.87164335,8.5121432,0.5239017525,-0.7077369990000001,-1.0827265784,0.1260556748,0.1523810702999999,-0.0507929664299999,0.003
03:29:06,1.17513505,-0.4704260000000001,-0.5218266500000001,0.10140722,0.163607755,0.046079125,-13.30442236,30.97239797,-30.877308175,8.503081600000002,0.52901315125,-0.7157842495000001,-1.0872857892,0.1278765573999999,0.1506764551499999,-0.0472791867149999,0.003
03:29:07,1.182622,-0.477243,-0.522657,0.100507,0.162063,0.04968,-13.335182,30.962135,-30.882973,8.49402,0.53412455,-0.7238315,-1.091845,0.12969744,0.14897184,-0.043765407,0.003
03:29:07,1.180299915,-0.48035087,-0.5224128800000001,0.098765155,0.16024658,0.04954683,-13.31541954,30.946891415,-30.90254682,8.508313625000001,0.5326472451500001,-0.7257779165,-1.0896333355,0.1281575813,0.1472383857,-0.042516154015,0.003
03:29:07,1.17797783,-0.48345874,-0.52216876,0.09702331,0.15843016,0.04941366,-13.29565708,30.93164783,-30.92212064,8.52260725,0.5311699403,-0.727724333,-1.087421671,0.1266177226,0.1455049313999999,-0.04126690103,0.003
03:29:07,1.175655745,-0.4865666099999999,-0.52192464,0.095281465,0.15661374,0.04928049,-13.27589462,30.916404245,-30.94169446,8.536900875,0.52969263545,-0.7296707495,-1.0852100065,0.1250778639,0.1437714771,-0.040017648045,0.003
03:29:07,1.1733336600000002,-0.4896744799999999,-0.5216805200000001,0.09353962,0.15479732,0.04914732,-13.25613216,30.90116066,-30.96126828,8.551194500000001,0.5282153306,-0.7316171659999999,-1.082998342,0.1235380052,0.1420380228,-0.03876839506,0.003
03:29:07,1.171011575,-0.49278235,-0.5214364,0.091797775,0.1529809,0.04901415,-13.2363697,30.885917075,-30.9808421,8.565488125000002,0.5267380257500001,-0.7335635825,-1.0807866775,0.1219981465,0.1403045685,-0.037519142075,0.003
03:29:07,1.16868949,-0.49589022,-0.5211922800000001,0.09005593,0.15116448,0.04888098,-13.21660724,30.87067349,-31.00041592,8.57978175,0.5252607209,-0.7355099989999999,-1.078575013,0.1204582878,0.1385711141999999,-0.03626988909,0.003
03:29:07,1.166367405,-0.4989980899999999,-0.52094816,0.088314085,0.14934806,0.04874781,-13.19684478,30.855429905,-31.01998974,8.594075375000001,0.52378341605,-0.7374564155,-1.0763633485,0.1189184291,0.1368376599,-0.035020636105,0.003
03:29:07,1.16404532,-0.50210596,-0.52070404,0.08657224,0.14753164,0.04861464,-13.17708232,30.84018632,-31.03956356,8.608369000000001,0.5223061112,-0.739402832,-1.074151684,0.1173785703999999,0.1351042056,-0.03377138312,0.003
03:29:07,1.161723235,-0.50521383,-0.5204599200000001,0.084830395,0.14571522,0.04848147,-13.15731986,30.824942735,-31.05913738,8.622662625,0.5208288063500001,-0.7413492485,-1.0719400195,0.1158387117,0.1333707513,-0.0325221301349999,0.003
03:29:07,1.15940115,-0.5083217,-0.5202158,0.08308855,0.1438988,0.0483483,-13.1375574,30.80969915,-31.0787112,8.63695625,0.5193515015,-0.743295665,-1.069728355,0.114298853,0.131637297,-0.0312728771499999,0.003
03:29:07,1.157079065,-0.51142957,-0.51997168,0.081346705,0.14208238,0.04821513,-13.11779494,30.794455565,-31.09828502,8.651249875000001,0.51787419665,-0.7452420814999999,-1.0675166905,0.1127589943,0.1299038427,-0.030023624165,0.003
03:29:07,1.1547569800000002,-0.51453744,-0.5197275600000001,0.07960486,0.14026596,0.04808196,-13.09803248,30.77921198,-31.11785884,8.6655435,0.5163968918,-0.747188498,-1.065305026,0.1112191355999999,0.1281703884,-0.0287743711799999,0.003
03:29:07,1.152434895,-0.51764531,-0.51948344,0.077863015,0.13844954,0.04794879,-13.07827002,30.763968395,-31.13743266,8.679837125,0.5149195869500001,-0.7491349144999999,-1.0630933615,0.1096792769,0.1264369341,-0.0275251181949999,0.003
03:29:07,1.15011281,-0.5207531799999999,-0.5192393200000001,0.07612117,0.13663312,0.04781562,-13.05850756,30.74872481,-31.15700648,8.694130750000001,0.5134422821,-0.751081331,-1.060881697,0.1081394182,0.1247034797999999,-0.02627586521,0.003
03:29:07,1.147790725,-0.5238610499999999,-0.5189952,0.074379325,0.1348167,0.04768245,-13.0387451,30.733481225,-31.1765803,8.708424375,0.51196497725,-0.7530277475,-1.0586700325,0.1065995595,0.1229700255,-0.0250266122249999,0.003
03:29:07,1.14546864,-0.52696892,-0.51875108,0.07263748,0.13300028,0.04754928,-13.01898264,30.71823764,-31.19615412,8.722718,0.5104876724,-0.754974164,-1.056458368,0.1050597008,0.1212365711999999,-0.0237773592399999,0.003
03:29:07,1.143146555,-0.53007679,-0.5185069600000001,0.070895635,0.13118386,0.04741611,-12.99922018,30.702994055,-31.21572794,8.737011625000001,0.5090103675500001,-0.7569205805,-1.0542467035,0.1035198421,0.1195031169,-0.0225281062549999,0.003
03:29:07,1.14082447,-0.53318466,-0.51826284,0.0691537899999999,0.12936744,0.04728294,-12.97945772,30.68775047,-31.23530176,8.751305250000001,0.5075330627,-0.7588669969999999,-1.052035039,0.1019799834,0.1177696625999999,-0.0212788532699999,0.003
03:29:07,1.138502385,-0.53629253,-0.51801872,0.067411945,0.12755102,0.04714977,-12.95969526,30.672506885,-31.25487558,8.765598875,0.50605575785,-0.7608134135,-1.0498233745,0.1004401247,0.1160362083,-0.0200296002849999,0.003
03:29:07,1.1361803,-0.5394004,-0.5177746000000001,0.0656701,0.1257346,0.0470166,-12.9399328,30.6572633,-31.2744494,8.7798925,0.504578453,-0.7627598299999999,-1.04761171,0.098900266,0.1143027539999999,-0.0187803472999999,0.003
03:29:07,1.133858215,-0.54250827,-0.51753048,0.063928255,0.12391818,0.04688343,-12.92017034,30.642019715,-31.29402322,8.794186125000001,0.5031011481500001,-0.7647062465,-1.0454000455,0.0973604073,0.1125692996999999,-0.0175310943149999,0.003
03:29:07,1.13153613,-0.5456161399999999,-0.5172863600000001,0.06218641,0.12210176,0.04675026,-12.90040788,30.62677613,-31.31359704,8.80847975,0.5016238433,-0.766652663,-1.043188381,0.0958205486,0.1108358454,-0.0162818413299999,0.003
03:29:07,1.129214045,-0.5487240099999999,-0.51704224,0.060444565,0.12028534,0.04661709,-12.88064542,30.611532545,-31.33317086,8.822773375,0.50014653845,-0.7685990795,-1.0409767165,0.0942806898999999,0.1091023911,-0.0150325883449999,0.003
03:29:07,1.12689196,-0.5518318799999999,-0.51679812,0.05870272,0.11846892,0.04648392,-12.86088296,30.59628896,-31.35274468,8.837067000000001,0.4986692336,-0.770545496,-1.038765052,0.0927408312,0.1073689368,-0.0137833353599999,0.003
03:29:07,1.1245698750000002,-0.55493975,-0.5165540000000001,0.056960875,0.1166525,0.04635075,-12.8411205,30.581045375,-31.3723185,8.851360625000002,0.49719192875,-0.7724919124999999,-1.0365533875,0.0912009725,0.1056354824999999,-0.0125340823749999,0.003
03:29:07,1.12224779,-0.55804762,-0.51630988,0.05521903,0.11483608,0.04621758,-12.82135804,30.56580179,-31.39189232,8.86565425,0.4957146239,-0.774438329,-1.034341723,0.0896611138,0.1039020282,-0.0112848293899999,0.003
03:29:07,1.119925705,-0.56115549,-0.51606576,0.053477185,0.11301966,0.04608441,-12.80159558,30.550558205,-31.41146614,8.879947875000001,0.49423731905,-0.7763847454999999,-1.0321300585,0.0881212551,0.1021685738999999,-0.0100355764049999,0.003
03:29:07,1.11760362,-0.56426336,-0.5158216400000001,0.05173534,0.11120324,0.04595124,-12.78183312,30.53531462,-31.43103996,8.894241500000001,0.4927600142,-0.778331162,-1.029918394,0.0865813964,0.1004351195999999,-0.0087863234199999,0.003
03:29:07,1.115281535,-0.56737123,-0.51557752,0.049993495,0.10938682,0.04581807,-12.76207066,30.520071035,-31.45061378,8.908535125,0.49128270935,-0.7802775785,-1.0277067295,0.0850415377,0.0987016652999999,-0.0075370704349999,0.003
03:29:07,1.11295945,-0.5704791,-0.5153334,0.04825165,0.1075704,0.0456849,-12.7423082,30.50482745,-31.4701876,8.92282875,0.4898054045,-0.782223995,-1.025495065,0.083501679,0.096968211,-0.0062878174499999,0.003
03:29:07,1.110637365,-0.57358697,-0.51508928,0.046509805,0.10575398,0.04555173,-12.72254574,30.489583865,-31.48976142,8.937122375000001,0.48832809965,-0.7841704115,-1.0232834005,0.0819618203,0.0952347566999999,-0.0050385644649999,0.003
03:29:07,1.10831528,-0.5766948399999999,-0.51484516,0.04476796,0.10393756,0.04541856,-12.70278328,30.47434028,-31.50933524,8.951416,0.4868507948,-0.7861168279999999,-1.021071736,0.0804219616,0.0935013023999999,-0.0037893114799999,0.003
03:29:07,1.1059931950000002,-0.5798027099999999,-0.5146010400000001,0.043026115,0.10212114,0.04528539,-12.68302082,30.459096695,-31.52890906,8.965709625,0.48537348995,-0.7880632445,-1.0188600715,0.0788821029,0.0917678481,-0.0025400584949999,0.003
03:29:07,1.10367111,-0.58291058,-0.51435692,0.04128427,0.10030472,0.04515222,-12.66325836,30.44385311,-31.54848288,8.980003250000001,0.4838961851,-0.7900096609999999,-1.016648407,0.0773422442,0.0900343938,-0.0012908055099999,0.003
03:29:07,1.101349025,-0.58601845,-0.5141128,0.039542425,0.0984883,0.04501905,-12.6434959,30.428609525,-31.5680567,8.994296875,0.48241888025,-0.7919560775,-1.0144367425,0.0758023855,0.0883009395,-4.155252499999512e-05,0.003
03:29:07,1.09902694,-0.58912632,-0.5138686800000001,0.03780058,0.09667188,0.04488588,-12.62373344,30.41336594,-31.58763052,9.0085905,0.4809415754,-0.7939024939999999,-1.012225078,0.0742625268,0.0865674851999999,0.00120770046,0.003
03:29:07,1.096704855,-0.59223419,-0.51362456,0.036058735,0.09485546,0.04475271,-12.60397098,30.398122355,-31.60720434,9.022884125,0.47946427055,-0.7958489105,-1.0100134135,0.0727226681,0.0848340309,0.002456953445,0.003
03:29:07,1.0943827700000002,-0.59534206,-0.51338044,0.03431689,0.09303904,0.04461954,-12.58420852,30.38287877,-31.62677816,9.03717775,0.4779869657,-0.797795327,-1.007801749,0.0711828094,0.0831005765999999,0.00370620643,0.003
03:29:07,1.092060685,-0.59844993,-0.51313632,0.032575045,0.09122262,0.04448637,-12.56444606,30.367635185,-31.64635198,9.051471375,0.47650966085,-0.7997417434999999,-1.0055900845,0.0696429507,0.0813671223,0.004955459415,0.003
03:29:07,1.0897386,-0.6015577999999999,-0.5128922,0.0308332,0.0894062,0.0443532,-12.5446836,30.3523916,-31.6659258,9.065765,0.475032356,-0.80168816,-1.00337842,0.068103092,0.0796336679999999,0.0062047124,0.003
03:29:07,1.087416515,-0.6046656699999999,-0.5126480800000001,0.029091355,0.08758978,0.04422003,-12.52492114,30.337148015,-31.68549962,9.080058625,0.47355505115,-0.8036345764999999,-1.0011667555,0.0665632333,0.0779002137,0.007453965385,0.003
03:29:07,1.08509443,-0.60777354,-0.51240396,0.02734951,0.08577336,0.04408686,-12.50515868,30.32190443,-31.70507344,9.09435225,0.4720777463,-0.805580993,-0.998955091,0.0650233746,0.0761667593999999,0.00870321837,0.003
03:29:07,1.082772345,-0.61088141,-0.51215984,0.025607665,0.08395694,0.04395369,-12.48539622,30.306660845,-31.72464726,9.108645875,0.47060044145,-0.8075274095,-0.9967434265,0.0634835159,0.0744333050999999,0.009952471355,0.003
03:29:07,1.08045026,-0.61398928,-0.5119157200000001,0.02386582,0.08214052,0.04382052,-12.46563376,30.29141726,-31.74422108,9.1229395,0.4691231366,-0.809473826,-0.994531762,0.0619436572,0.0726998508,0.01120172434,0.003
03:29:07,1.078128175,-0.61709715,-0.5116716,0.022123975,0.0803241,0.04368735,-12.4458713,30.276173675,-31.7637949,9.137233125000002,0.46764583175,-0.8114202425,-0.9923200975,0.0604037985,0.0709663964999999,0.012450977325,0.003
03:29:07,1.07580609,-0.62020502,-0.51142748,0.02038213,0.07850768,0.04355418,-12.42610884,30.26093009,-31.78336872,9.15152675,0.4661685269,-0.8133666589999999,-0.990108433,0.0588639398,0.0692329422,0.01370023031,0.003
03:29:07,1.073484005,-0.62331289,-0.51118336,0.018640285,0.07669126,0.04342101,-12.40634638,30.245686505,-31.80294254,9.165820375,0.46469122205,-0.8153130755,-0.9878967685,0.0573240811,0.0674994878999999,0.014949483295,0.003
03:29:07,1.07116192,-0.62642076,-0.51093924,0.01689844,0.07487484,0.04328784,-12.38658392,30.23044292,-31.82251636,9.180114,0.4632139172,-0.8172594919999999,-0.985685104,0.0557842224,0.0657660336,0.01619873628,0.003
03:29:07,1.068839835,-0.62952863,-0.5106951200000001,0.015156595,0.07305842,0.04315467,-12.36682146,30.215199335,-31.84209018,9.194407625,0.46173661235,-0.8192059085,-0.9834734395,0.0542443637,0.0640325792999999,0.017447989265,0.003
03:29:07,1.06651775,-0.6326364999999999,-0.510451,0.01341475,0.071242,0.0430215,-12.347059,30.19995575,-31.861664,9.20870125,0.4602593075,-0.8211523249999999,-0.981261775,0.052704505,0.062299125,0.01869724225,0.003
03:29:07,1.064195665,-0.63574437,-0.51020688,0.011672905,0.06942558,0.04288833,-12.32729654,30.184712165,-31.88123782,9.222994875,0.45878200265,-0.8230987415,-0.9790501105,0.0511646463,0.0605656706999999,0.019946495235,0.003
03:29:07,1.06187358,-0.63885224,-0.5099627600000001,0.00993106,0.06760916,0.04275516,-12.30753408,30.16946858,-31.90081164,9.2372885,0.4573046978,-0.825045158,-0.976838446,0.0496247876,0.0588322164,0.02119574822,0.003
03:29:07,1.059551495,-0.64196011,-0.50971864,0.008189215,0.06579274,0.04262199,-12.28777162,30.154224995,-31.92038546,9.251582125,0.45582739295,-0.8269915744999999,-0.9746267815,0.0480849289,0.0570987620999999,0.022445001205,0.003
03:29:07,1.05722941,-0.64506798,-0.50947452,0.00644737,0.06397632,0.04248882,-12.26800916,30.13898141,-31.93995928,9.26587575,0.4543500881,-0.828937991,-0.972415117,0.0465450702,0.0553653077999999,0.02369425419,0.003
03:29:07,1.054907325,-0.64817585,-0.5092304000000001,0.004705525,0.0621599,0.04235565,-12.2482467,30.123737825,-31.9595331,9.280169375,0.45287278325,-0.8308844074999999,-0.9702034525,0.0450052115,0.0536318534999999,0.024943507175,0.003
03:29:07,1.05258524,-0.65128372,-0.50898628,0.00296368,0.06034348,0.04222248,-12.22848424,30.10849424,-31.97910692,9.294463,0.4513954784,-0.832830824,-0.967991788,0.0434653528,0.0518983991999999,0.02619276016,0.003
03:29:07,1.050263155,-0.6543915899999999,-0.50874216,0.001221835,0.05852706,0.04208931,-12.20872178,30.093250655,-31.99868074,9.308756625,0.44991817355,-0.8347772405,-0.9657801235,0.0419254941,0.0501649448999999,0.027442013145,0.003
03:29:07,1.04794107,-0.6574994599999999,-0.50849804,-0.00052001,0.0567106399999999,0.04195614,-12.18895932,30.07800707,-32.01825456,9.32305025,0.4484408687,-0.836723657,-0.963568459,0.0403856354,0.0484314905999999,0.02869126613,0.003
03:29:07,1.045618985,-0.6606073299999999,-0.50825392,-0.0022618549999999,0.0548942199999999,0.04182297,-12.16919686,30.062763485,-32.03782838,9.337343875,0.44696356385,-0.8386700735,-0.9613567945,0.0388457767,0.0466980362999999,0.029940519115,0.003
03:29:07,1.0432969,-0.6637152,-0.5080098000000001,-0.0040036999999999,0.0530777999999999,0.0416898,-12.1494344,30.0475199,-32.0574022,9.3516375,0.445486259,-0.8406164899999999,-0.95914513,0.037305918,0.0449645819999999,0.0311897721,0.003
03:29:07,1.040974815,-0.66682307,-0.50776568,-0.0057455449999999,0.0512613799999999,0.04155663,-12.12967194,30.032276315,-32.07697602,9.365931125,0.44400895415,-0.8425629065,-0.9569334655,0.0357660593,0.0432311277,0.032439025085,0.003
03:29:07,1.03865273,-0.66993094,-0.50752156,-0.0074873899999999,0.0494449599999999,0.04142346,-12.10990948,30.01703273,-32.09654984,9.38022475,0.4425316493,-0.8445093229999999,-0.954721801,0.0342262006,0.0414976733999999,0.03368827807,0.003
03:29:07,1.036330645,-0.67303881,-0.5072774400000001,-0.0092292349999999,0.04762854,0.04129029,-12.09014702,30.001789145,-32.11612366,9.394518375,0.44105434445,-0.8464557395,-0.9525101365,0.0326863419,0.0397642191,0.034937531055,0.003
03:29:07,1.03400856,-0.67614668,-0.50703332,-0.0109710799999999,0.04581212,0.04115712,-12.07038456,29.98654556,-32.13569748,9.408812,0.4395770396,-0.8484021559999999,-0.950298472,0.0311464832,0.0380307647999999,0.03618678404,0.003
03:29:07,1.031686475,-0.67925455,-0.5067892,-0.012712925,0.0439957,0.04102395,-12.0506221,29.971301975,-32.1552713,9.423105625000002,0.43809973475,-0.8503485725,-0.9480868075,0.0296066245,0.0362973104999999,0.037436037025,0.003
03:29:07,1.02936439,-0.68236242,-0.50654508,-0.0144547699999999,0.04217928,0.04089078,-12.03085964,29.95605839,-32.17484512,9.43739925,0.4366224299,-0.852294989,-0.945875143,0.0280667658,0.0345638561999999,0.03868529001,0.003
03:29:07,1.0270423050000002,-0.68547029,-0.50630096,-0.0161966149999999,0.04036286,0.04075761,-12.01109718,29.940814805,-32.19441894,9.451692875,0.43514512505,-0.8542414054999999,-0.9436634785,0.0265269071,0.0328304018999999,0.039934542995,0.003
03:29:07,1.02472022,-0.6885781599999999,-0.5060568400000001,-0.0179384599999999,0.03854644,0.04062444,-11.99133472,29.92557122,-32.21399276,9.4659865,0.4336678202,-0.856187822,-0.941451814,0.0249870484,0.0310969475999999,0.04118379598,0.003
03:29:07,1.022398135,-0.69168603,-0.50581272,-0.0196803049999999,0.03673002,0.04049127,-11.97157226,29.910327635,-32.23356658,9.480280125,0.43219051535,-0.8581342384999999,-0.9392401495,0.0234471897,0.0293634932999999,0.042433048965,0.003
03:29:07,1.02007605,-0.6947939,-0.5055686,-0.0214221499999999,0.0349135999999999,0.0403581,-11.9518098,29.89508405,-32.2531404,9.49457375,0.4307132105,-0.860080655,-0.937028485,0.021907331,0.0276300389999999,0.04368230195,0.003
03:29:07,1.017753965,-0.69790177,-0.5053244800000001,-0.0231639949999999,0.03309718,0.04022493,-11.93204734,29.879840465,-32.27271422,9.508867375,0.42923590565,-0.8620270715,-0.9348168205,0.0203674723,0.0258965846999999,0.044931554935,0.003
03:29:07,1.01543188,-0.70100964,-0.50508036,-0.02490584,0.0312807599999999,0.04009176,-11.91228488,29.86459688,-32.29228804,9.523161,0.4277586008,-0.863973488,-0.932605156,0.0188276136,0.0241631303999999,0.04618080792,0.003
03:29:07,1.013109795,-0.70411751,-0.50483624,-0.0266476849999999,0.02946434,0.03995859,-11.89252242,29.849353295,-32.31186186,9.537454625,0.42628129595,-0.8659199045,-0.9303934915,0.0172877549,0.0224296760999999,0.047430060905,0.003
03:29:07,1.01078771,-0.7072253799999999,-0.50459212,-0.0283895299999999,0.0276479199999999,0.03982542,-11.87275996,29.83410971,-32.33143568,9.55174825,0.4248039911,-0.8678663209999999,-0.928181827,0.0157478962,0.0206962217999999,0.04867931389,0.003
03:29:07,1.008465625,-0.7103332499999999,-0.504348,-0.030131375,0.0258315,0.03969225,-11.8529975,29.818866125,-32.3510095,9.566041875,0.42332668625,-0.8698127375,-0.9259701625,0.0142080375,0.0189627674999999,0.049928566875,0.003
03:29:07,1.00614354,-0.7134411199999999,-0.5041038800000001,-0.0318732199999999,0.0240150799999999,0.03955908,-11.83323504,29.80362254,-32.37058332,9.5803355,0.4218493814,-0.8717591539999999,-0.923758498,0.0126681788,0.0172293131999999,0.05117781986,0.003
03:29:07,1.003821455,-0.7165489899999999,-0.50385976,-0.0336150649999999,0.0221986599999999,0.03942591,-11.81347258,29.788378955,-32.39015714,9.594629125,0.42037207655,-0.8737055705,-0.9215468335,0.0111283201,0.0154958588999999,0.052427072845,0.003
03:29:07,1.00149937,-0.71965686,-0.50361564,-0.03535691,0.0203822399999999,0.03929274,-11.79371012,29.77313537,-32.40973096,9.60892275,0.4188947717,-0.8756519869999999,-0.919335169,0.0095884614,0.0137624046,0.05367632583,0.003
03:29:07,0.999177285,-0.72276473,-0.5033715200000001,-0.037098755,0.0185658199999999,0.03915957,-11.77394766,29.757891785,-32.42930478,9.623216375,0.41741746685,-0.8775984035,-0.9171235045,0.0080486027,0.0120289502999999,0.054925578815,0.003
03:29:07,0.9968552,-0.7258726,-0.5031274,-0.0388405999999999,0.0167493999999999,0.0390264,-11.7541852,29.7426482,-32.4488786,9.63751,0.415940162,-0.87954482,-0.91491184,0.006508744,0.0102954959999999,0.0561748318,0.003
03:29:07,0.994533115,-0.72898047,-0.50288328,-0.0405824449999999,0.0149329799999999,0.03889323,-11.73442274,29.727404615,-32.46845242,9.651803625,0.41446285715,-0.8814912364999999,-0.9127001755,0.0049688853,0.0085620416999999,0.057424084785,0.003
03:29:07,0.99221103,-0.73208834,-0.50263916,-0.04232429,0.01311656,0.03876006,-11.71466028,29.71216103,-32.48802624,9.66609725,0.4129855523,-0.883437653,-0.910488511,0.0034290265999999,0.0068285874,0.05867333777,0.003
03:29:07,0.989888945,-0.73519621,-0.50239504,-0.0440661349999999,0.0113001399999999,0.03862689,-11.69489782,29.696917445,-32.50760006,9.680390875,0.41150824745,-0.8853840694999999,-0.9082768465,0.0018891679,0.0050951330999999,0.059922590755,0.003
03:29:07,0.98756686,-0.73830408,-0.5021509200000001,-0.0458079799999999,0.00948372,0.03849372,-11.67513536,29.68167386,-32.52717388,9.6946845,0.4100309426,-0.887330486,-0.906065182,0.0003493092,0.0033616787999999,0.06117184374,0.003
03:29:07,0.985244775,-0.74141195,-0.5019068,-0.047549825,0.0076672999999999,0.03836055,-11.6553729,29.666430275,-32.5467477,9.708978125000002,0.40855363775,-0.8892769025,-0.9038535175,-0.0011905494999999,0.0016282244999999,0.062421096725,0.003
03:29:07,0.98292269,-0.74451982,-0.50166268,-0.0492916699999999,0.00585088,0.03822738,-11.63561044,29.65118669,-32.56632152,9.72327175,0.4070763329,-0.891223319,-0.901641853,-0.0027304081999999,-0.0001052298,0.06367034971,0.003
03:29:07,0.980600605,-0.74762769,-0.5014185600000001,-0.0510335149999999,0.0040344599999999,0.03809421,-11.61584798,29.635943105,-32.58589534,9.737565375,0.40559902805,-0.8931697354999999,-0.8994301885,-0.0042702668999999,-0.0018386841,0.064919602695,0.003
03:29:07,0.97827852,-0.75073556,-0.50117444,-0.0527753599999999,0.00221804,0.03796104,-11.59608552,29.62069952,-32.60546916,9.751859,0.4041217232,-0.8951161519999999,-0.897218524,-0.0058101255999999,-0.0035721384,0.06616885568,0.003
03:29:07,0.975956435,-0.75384343,-0.50093032,-0.054517205,0.0004016199999999,0.03782787,-11.57632306,29.605455935,-32.62504298,9.766152625,0.40264441835,-0.8970625685,-0.8950068595,-0.0073499843,-0.0053055927,0.067418108665,0.003
03:29:07,0.97363435,-0.7569513,-0.5006862,-0.0562590499999999,-0.0014148,0.0376947,-11.5565606,29.59021235,-32.6446168,9.78044625,0.4011671135,-0.8990089849999999,-0.8927951949999999,-0.0088898429999999,-0.007039047,0.06866736165,0.003
03:29:07,0.971312265,-0.7600591699999999,-0.50044208,-0.0580008949999999,-0.00323122,0.03756153,-11.53679814,29.574968765,-32.66419062,9.794739875,0.39968980865,-0.9009554015,-0.8905835305,-0.0104297016999999,-0.0087725013,0.069916614635,0.003
03:29:07,0.96899018,-0.7631670399999999,-0.50019796,-0.05974274,-0.00504764,0.03742836,-11.51703568,29.55972518,-32.68376444,9.8090335,0.3982125038,-0.902901818,-0.888371866,-0.0119695603999999,-0.0105059556,0.07116586762,0.003
03:29:07,0.966668095,-0.7662749099999999,-0.49995384,-0.0614845849999999,-0.00686406,0.03729519,-11.49727322,29.544481595,-32.70333826,9.823327125,0.39673519895,-0.9048482345,-0.8861602015,-0.0135094191,-0.0122394098999999,0.072415120605,0.003
03:29:07,0.96434601,-0.7693827799999999,-0.49970972,-0.0632264299999999,-0.00868048,0.03716202,-11.47751076,29.52923801,-32.72291208,9.83762075,0.3952578941,-0.906794651,-0.883948537,-0.0150492777999999,-0.0139728642,0.07366437359,0.003
03:29:07,0.962023925,-0.77249065,-0.4994656,-0.0649682749999999,-0.0104969,0.03702885,-11.4577483,29.513994425,-32.7424859,9.851914375,0.39378058925,-0.9087410675,-0.8817368725,-0.0165891364999999,-0.0157063185,0.074913626575,0.003
03:29:07,0.95970184,-0.77559852,-0.49922148,-0.06671012,-0.01231332,0.03689568,-11.43798584,29.49875084,-32.76205972,9.866208,0.3923032844,-0.910687484,-0.879525208,-0.0181289951999999,-0.0174397728,0.07616287956,0.003
03:29:07,0.957379755,-0.77870639,-0.49897736,-0.0684519649999999,-0.01412974,0.03676251,-11.41822338,29.483507255,-32.78163354,9.880501625,0.39082597955,-0.9126339005,-0.8773135435,-0.0196688538999999,-0.0191732271,0.077412132545,0.003
03:29:07,0.95505767,-0.78181426,-0.49873324,-0.0701938099999999,-0.01594616,0.03662934,-11.39846092,29.46826367,-32.80120736,9.89479525,0.3893486747,-0.914580317,-0.875101879,-0.0212087125999999,-0.0209066814,0.07866138553,0.003
03:29:07,0.952735585,-0.78492213,-0.49848912,-0.071935655,-0.01776258,0.03649617,-11.37869846,29.453020085,-32.82078118,9.909088875,0.38787136985,-0.9165267335,-0.8728902144999999,-0.0227485712999999,-0.0226401357,0.079910638515,0.003
03:29:07,0.9504135,-0.78803,-0.498245,-0.0736774999999999,-0.019579,0.036363,-11.358936,29.4377765,-32.840355,9.9233825,0.386394065,-0.91847315,-0.87067855,-0.02428843,-0.02437359,0.0811598915,0.003
03:29:07,0.948091415,-0.79113787,-0.49800088,-0.0754193449999999,-0.02139542,0.03622983,-11.33917354,29.422532915,-32.85992882,9.937676125,0.38491676015,-0.9204195665,-0.8684668855,-0.0258282886999999,-0.0261070443,0.082409144485,0.003
03:29:07,0.94576933,-0.79424574,-0.49775676,-0.0771611899999999,-0.02321184,0.03609666,-11.31941108,29.40728933,-32.87950264,9.95196975,0.3834394553,-0.922365983,-0.866255221,-0.0273681473999999,-0.0278404986,0.08365839747,0.003
03:29:07,0.943447245,-0.79735361,-0.49751264,-0.078903035,-0.02502826,0.03596349,-11.29964862,29.392045745,-32.89907646,9.966263375,0.38196215045,-0.9243123995,-0.8640435565,-0.0289080060999999,-0.0295739529,0.084907650455,0.003
