Timestamp,linacce_x,linacce_y,linacce_z,gyro_x,gyro_y,gyro_z,X-magnetometer,Y-magnetometer,Z-magnetometer,Yaw, worldXAccel,worldYAccel,worldZAccel,worldXgyro,worldYgyro,worldZgyro,Distance
03:29:26,0.960213,0.933789,-2.596157,0.03126,0.33678,-0.261401,-5.286148,-30.232368,-10.73185,168.18056,-0.8812343,0.42394108,1.0871735,-0.10434413,0.29020002,0.1168824,0.003
03:29:26,0.956513315,0.928674095,-2.583963785,0.031787345,0.335347105,-0.261475575,-5.28109122,-30.23392352,-10.649306015,168.18967025,-0.876713203145,0.42137720075,1.08145216082,-0.1044312901299999,0.28900205755,0.11663138775,0.003
03:29:26,0.95281363,0.92355919,-2.57177057,0.03231469,0.33391421,-0.26155015,-5.27603444,-30.23547904,-10.56676203,168.19878050000003,-0.87219210629,0.4188133215,1.07573082164,-0.1045184502599999,0.2878040951,0.1163803755,0.003
03:29:26,0.949113945,0.918444285,-2.559577355,0.032842035,0.332481315,-0.261624725,-5.27097766,-30.23703456,-10.484218045,168.20789075000002,-0.867671009435,0.41624944225,1.07000948246,-0.1046056103899999,0.28660613265,0.1161293632499999,0.003
03:29:26,0.94541426,0.91332938,-2.54738414,0.03336938,0.33104842,-0.2616992999999999,-5.26592088,-30.23859008,-10.40167406,168.217001,-0.8631499125800001,0.413685563,1.06428814328,-0.1046927705199999,0.2854081702,0.1158783509999999,0.003
03:29:26,0.941714575,0.908214475,-2.535190925,0.033896725,0.329615525,-0.261773875,-5.2608641,-30.2401456,-10.319130075,168.22611125,-0.858628815725,0.41112168375,1.0585668041,-0.1047799306499999,0.28421020775,0.11562733875,0.003
03:29:26,0.93801489,0.90309957,-2.52299771,0.03442407,0.32818263,-0.26184845,-5.25580732,-30.24170112,-10.23658609,168.23522150000002,-0.85410771887,0.4085578045,1.05284546492,-0.1048670907799999,0.2830122453,0.1153763265,0.003
03:29:26,0.934315205,0.897984665,-2.510804495,0.034951415,0.326749735,-0.261923025,-5.250750539999999,-30.24325664,-10.154042105,168.24433175,-0.849586622015,0.40599392525,1.04712412574,-0.1049542509099999,0.28181428285,0.11512531425,0.003
03:29:26,0.93061552,0.89286976,-2.49861128,0.03547876,0.32531684,-0.2619976,-5.24569376,-30.24481216,-10.07149812,168.253442,-0.84506552516,0.403430046,1.04140278656,-0.1050414110399999,0.2806163204,0.114874302,0.003
03:29:26,0.926915835,0.887754855,-2.486418065,0.036006105,0.323883945,-0.262072175,-5.24063698,-30.24636768,-9.988954135,168.26255225000003,-0.840544428305,0.40086616675,1.03568144738,-0.1051285711699999,0.27941835795,0.11462328975,0.003
03:29:26,0.92321615,0.88263995,-2.47422485,0.03653345,0.32245105,-0.26214675,-5.2355802,-30.2479232,-9.90641015,168.27166250000002,-0.8360233314500001,0.3983022875,1.0299601082,-0.1052157312999999,0.2782203955,0.1143722775,0.003
03:29:26,0.919516465,0.877525045,-2.462031635,0.037060795,0.321018155,-0.262221325,-5.23052342,-30.249478720000003,-9.823866165,168.28077275,-0.8315022345950001,0.39573840825,1.02423876902,-0.1053028914299999,0.27702243305,0.1141212652499999,0.003
03:29:26,0.91581678,0.87241014,-2.44983842,0.03758814,0.31958526,-0.2622958999999999,-5.22546664,-30.251034240000003,-9.74132218,168.289883,-0.82698113774,0.393174529,1.01851742984,-0.1053900515599999,0.2758244706,0.113870253,0.003
03:29:26,0.912117095,0.8672952349999999,-2.437645205,0.038115485,0.318152365,-0.262370475,-5.22040986,-30.25258976,-9.658778195,168.29899325000002,-0.822460040885,0.39061064975,1.01279609066,-0.1054772116899999,0.27462650815,0.11361924075,0.003
03:29:26,0.90841741,0.8621803299999999,-2.42545199,0.03864283,0.31671947,-0.26244505,-5.21535308,-30.25414528,-9.57623421,168.30810350000002,-0.81793894403,0.3880467705,1.00707475148,-0.1055643718199999,0.2734285457,0.1133682285,0.003
03:29:26,0.904717725,0.857065425,-2.413258775,0.039170175,0.315286575,-0.262519625,-5.2102963,-30.2557008,-9.493690225,168.31721375,-0.813417847175,0.38548289125,1.0013534123,-0.1056515319499999,0.27223058325,0.11311721625,0.003
03:29:26,0.90101804,0.8519505199999999,-2.40106556,0.03969752,0.31385368,-0.2625942,-5.20523952,-30.25725632,-9.41114624,168.326324,-0.80889675032,0.382919012,0.99563207312,-0.1057386920799999,0.2710326208,0.112866204,0.003
03:29:26,0.897318355,0.846835615,-2.388872345,0.040224865,0.312420785,-0.262668775,-5.20018274,-30.25881184,-9.328602255,168.33543425000002,-0.8043756534650001,0.38035513275,0.98991073394,-0.1058258522099999,0.26983465835,0.11261519175,0.003
03:29:26,0.89361867,0.8417207099999999,-2.37667913,0.04075221,0.31098789,-0.26274335,-5.19512596,-30.26036736,-9.24605827,168.3445445,-0.79985455661,0.3777912535,0.98418939476,-0.1059130123399999,0.2686366959,0.1123641795,0.003
03:29:26,0.889918985,0.836605805,-2.364485915,0.041279555,0.309554995,-0.262817925,-5.19006918,-30.26192288,-9.163514285,168.35365475,-0.795333459755,0.37522737425,0.97846805558,-0.1060001724699999,0.26743873345,0.1121131672499999,0.003
03:29:26,0.8862193,0.8314909,-2.3522927,0.0418069,0.3081221,-0.2628925,-5.1850124,-30.2634784,-9.0809703,168.36276500000002,-0.7908123629,0.372663495,0.9727467164,-0.1060873326,0.266240771,0.1118621549999999,0.003
03:29:26,0.882519615,0.826375995,-2.340099485,0.042334245,0.306689205,-0.262967075,-5.179955619999999,-30.26503392,-8.998426315,168.37187525000002,-0.786291266045,0.37009961575,0.96702537722,-0.10617449273,0.26504280855,0.11161114275,0.003
03:29:26,0.87881993,0.82126109,-2.32790627,0.04286159,0.30525631,-0.26304165,-5.17489884,-30.26658944,-8.915882329999999,168.3809855,-0.7817701691900001,0.3675357365,0.96130403804,-0.10626165286,0.2638448461,0.1113601305,0.003
03:29:26,0.875120245,0.816146185,-2.315713055,0.043388935,0.303823415,-0.263116225,-5.16984206,-30.26814496,-8.833338345,168.39009575,-0.7772490723350001,0.36497185725,0.95558269886,-0.10634881299,0.26264688365,0.11110911825,0.003
03:29:26,0.87142056,0.81103128,-2.30351984,0.04391628,0.30239052,-0.2631908,-5.16478528,-30.26970048,-8.75079436,168.39920600000002,-0.77272797548,0.362407978,0.94986135968,-0.10643597312,0.2614489212,0.110858106,0.003
03:29:26,0.867720875,0.805916375,-2.291326625,0.044443625,0.300957625,-0.263265375,-5.1597285,-30.271256,-8.668250375,168.40831625,-0.768206878625,0.35984409875,0.9441400205,-0.10652313325,0.26025095875,0.11060709375,0.003
03:29:26,0.86402119,0.80080147,-2.27913341,0.04497097,0.29952473,-0.26333995,-5.15467172,-30.27281152,-8.585706389999999,168.4174265,-0.76368578177,0.3572802195,0.93841868132,-0.10661029338,0.2590529963,0.1103560815,0.003
03:29:26,0.8603215049999999,0.795686565,-2.266940195,0.045498315,0.298091835,-0.263414525,-5.14961494,-30.27436704,-8.503162405,168.42653675000005,-0.759164684915,0.35471634025,0.93269734214,-0.10669745351,0.2578550338499999,0.1101050692499999,0.003
03:29:26,0.85662182,0.79057166,-2.25474698,0.04602566,0.29665894,-0.2634891,-5.14455816,-30.27592256,-8.42061842,168.43564700000002,-0.75464358806,0.352152461,0.92697600296,-0.10678461364,0.2566570714,0.109854057,0.003
03:29:26,0.852922135,0.785456755,-2.242553765,0.046553005,0.295226045,-0.263563675,-5.13950138,-30.27747808,-8.338074435,168.44475725,-0.750122491205,0.34958858175,0.92125466378,-0.10687177377,0.25545910895,0.10960304475,0.003
03:29:26,0.84922245,0.78034185,-2.23036055,0.04708035,0.29379315,-0.26363825,-5.1344446,-30.2790336,-8.25553045,168.4538675,-0.7456013943500001,0.3470247025,0.9155333246,-0.1069589339,0.2542611465,0.1093520325,0.003
03:29:26,0.845522765,0.775226945,-2.218167335,0.047607695,0.292360255,-0.263712825,-5.12938782,-30.28058912,-8.172986465,168.46297775000002,-0.741080297495,0.34446082325,0.90981198542,-0.10704609403,0.25306318405,0.10910102025,0.003
03:29:26,0.84182308,0.77011204,-2.20597412,0.04813504,0.29092736,-0.2637874,-5.12433104,-30.28214464,-8.09044248,168.472088,-0.73655920064,0.341896944,0.90409064624,-0.10713325416,0.2518652216,0.108850008,0.003
03:29:26,0.838123395,0.764997135,-2.193780905,0.048662385,0.289494465,-0.2638619749999999,-5.11927426,-30.28370016,-8.007898495,168.48119825,-0.732038103785,0.33933306475,0.8983693070600001,-0.10722041429,0.25066725915,0.10859899575,0.003
03:29:26,0.83442371,0.75988223,-2.18158769,0.04918973,0.28806157,-0.26393655,-5.11421748,-30.28525568,-7.92535451,168.49030850000003,-0.72751700693,0.3367691855,0.89264796788,-0.10730757442,0.2494692967,0.1083479835,0.003
03:29:26,0.830724025,0.754767325,-2.169394475,0.049717075,0.286628675,-0.264011125,-5.1091607,-30.2868112,-7.842810524999999,168.49941875000002,-0.7229959100750001,0.33420530625,0.8869266287,-0.10739473455,0.24827133425,0.1080969712499999,0.003
03:29:26,0.82702434,0.74965242,-2.15720126,0.05024442,0.28519578,-0.2640857,-5.10410392,-30.288366720000003,-7.76026654,168.508529,-0.7184748132200001,0.331641427,0.88120528952,-0.10748189468,0.2470733718,0.1078459589999999,0.003
03:29:26,0.823324655,0.744537515,-2.145008045,0.0507717649999999,0.283762885,-0.264160275,-5.09904714,-30.289922240000003,-7.677722554999999,168.51763925,-0.713953716365,0.32907754775,0.87548395034,-0.10756905481,0.24587540935,0.10759494675,0.003
03:29:26,0.81962497,0.73942261,-2.13281483,0.0512991099999999,0.28232999,-0.26423485,-5.093990359999999,-30.29147776,-7.59517857,168.52674950000002,-0.70943261951,0.3265136685,0.8697626111600001,-0.10765621494,0.2446774468999999,0.1073439345,0.003
03:29:26,0.8159252850000001,0.734307705,-2.120621615,0.051826455,0.280897095,-0.264309425,-5.08893358,-30.29303328,-7.512634585,168.53585975,-0.704911522655,0.32394978925,0.86404127198,-0.10774337507,0.24347948445,0.10709292225,0.003
03:29:26,0.8122256,0.7291928,-2.1084284,0.0523538,0.2794642,-0.264384,-5.0838768,-30.2945888,-7.4300906,168.54497,-0.7003904258,0.32138591,0.8583199328,-0.1078305352,0.242281522,0.10684191,0.003
03:29:26,0.8085259149999999,0.724077895,-2.096235185,0.052881145,0.278031305,-0.264458575,-5.07882002,-30.29614432,-7.347546615,168.55408025,-0.695869328945,0.31882203075,0.85259859362,-0.10791769533,0.24108355955,0.10659089775,0.003
03:29:26,0.80482623,0.71896299,-2.08404197,0.05340849,0.27659841,-0.26453315,-5.07376324,-30.29769984,-7.26500263,168.56319050000002,-0.69134823209,0.3162581515,0.8468772544400001,-0.10800485546,0.2398855971,0.1063398855,0.003
03:29:26,0.801126545,0.713848085,-2.0718487549999995,0.053935835,0.275165515,-0.264607725,-5.06870646,-30.29925536,-7.182458645,168.57230075,-0.686827135235,0.31369427225,0.84115591526,-0.1080920155899999,0.23868763465,0.10608887325,0.003
03:29:26,0.79742686,0.7087331800000001,-2.05965554,0.05446318,0.27373262,-0.2646823,-5.06364968,-30.30081088,-7.09991466,168.581411,-0.68230603838,0.311130393,0.83543457608,-0.1081791757199999,0.2374896722,0.105837861,0.003
03:29:26,0.793727175,0.703618275,-2.047462325,0.054990525,0.272299725,-0.264756875,-5.0585929,-30.3023664,-7.017370675,168.59052125000002,-0.677784941525,0.30856651375,0.8297132369,-0.1082663358499999,0.23629170975,0.10558684875,0.003
03:29:26,0.7900274899999999,0.6985033700000001,-2.03526911,0.05551787,0.27086683,-0.26483145,-5.05353612,-30.30392192,-6.93482669,168.59963150000002,-0.67326384467,0.3060026345,0.82399189772,-0.1083534959799999,0.2350937473,0.1053358365,0.003
03:29:26,0.786327805,0.693388465,-2.023075895,0.0560452149999999,0.269433935,-0.264906025,-5.04847934,-30.30547744,-6.852282705,168.60874175,-0.668742747815,0.30343875525,0.8182705585400001,-0.1084406561099999,0.23389578485,0.10508482425,0.003
03:29:26,0.78262812,0.6882735600000001,-2.01088268,0.05657256,0.26800104,-0.2649806,-5.04342256,-30.30703296,-6.769738719999999,168.617852,-0.6642216509600001,0.300874876,0.81254921936,-0.1085278162399999,0.2326978224,0.104833812,0.003
03:29:26,0.778928435,0.683158655,-1.998689465,0.057099905,0.266568145,-0.265055175,-5.03836578,-30.30858848,-6.687194734999999,168.62696225000002,-0.6597005541050001,0.29831099675,0.80682788018,-0.1086149763699999,0.23149985995,0.10458279975,0.003
03:29:26,0.77522875,0.6780437500000001,-1.98649625,0.05762725,0.26513525,-0.26512975,-5.033309,-30.310144,-6.604650749999999,168.6360725,-0.65517945725,0.2957471175,0.801106541,-0.1087021364999999,0.2303018975,0.1043317875,0.003
03:29:26,0.771529065,0.6729288449999999,-1.974303035,0.058154595,0.263702355,-0.265204325,-5.02825222,-30.31169952,-6.522106764999999,168.64518275,-0.650658360395,0.29318323825,0.79538520182,-0.1087892966299999,0.2291039350499999,0.10408077525,0.003
03:29:26,0.76782938,0.66781394,-1.96210982,0.05868194,0.26226946,-0.2652789,-5.02319544,-30.31325504,-6.439562779999999,168.65429300000002,-0.64613726354,0.290619359,0.78966386264,-0.1088764567599999,0.2279059726,0.1038297629999999,0.003
03:29:26,0.764129695,0.6626990349999999,-1.949916605,0.059209285,0.260836565,-0.265353475,-5.01813866,-30.31481056,-6.357018794999999,168.66340325000002,-0.641616166685,0.28805547975,0.78394252346,-0.1089636168899999,0.22670801015,0.10357875075,0.003
03:29:26,0.76043001,0.65758413,-1.93772339,0.05973663,0.25940367,-0.2654280499999999,-5.01308188,-30.31636608,-6.27447481,168.6725135,-0.63709506983,0.2854916005,0.77822118428,-0.1090507770199999,0.2255100477,0.1033277385,0.003
03:29:26,0.7567303249999999,0.6524692249999999,-1.925530175,0.060263975,0.257970775,-0.265502625,-5.0080251,-30.3179216,-6.191930825,168.68162375,-0.632573972975,0.28292772125,0.7724998451,-0.1091379371499999,0.22431208525,0.10307672625,0.003
03:29:26,0.75303064,0.64735432,-1.91333696,0.0607913199999999,0.25653788,-0.2655772,-5.00296832,-30.31947712,-6.10938684,168.69073400000002,-0.62805287612,0.280363842,0.7667785059200001,-0.1092250972799999,0.2231141227999999,0.102825714,0.003
03:29:26,0.749330955,0.642239415,-1.901143745,0.0613186649999999,0.255104985,-0.265651775,-4.99791154,-30.32103264,-6.026842855,168.69984425,-0.623531779265,0.27779996275,0.76105716674,-0.1093122574099999,0.22191616035,0.10257470175,0.003
03:29:26,0.74563127,0.63712451,-1.88895053,0.06184601,0.25367209,-0.26572635,-4.99285476,-30.32258816,-5.94429887,168.7089545,-0.61901068241,0.2752360835,0.75533582756,-0.1093994175399999,0.2207181979,0.1023236895,0.003
03:29:26,0.741931585,0.632009605,-1.876757315,0.062373355,0.252239195,-0.265800925,-4.98779798,-30.32414368,-5.861754885,168.71806475000002,-0.614489585555,0.27267220425,0.74961448838,-0.10948657767,0.21952023545,0.10207267725,0.003
03:29:26,0.7382318999999999,0.6268947,-1.8645641,0.0629007,0.2508063,-0.2658755,-4.9827412,-30.325699200000003,-5.7792109,168.72717500000002,-0.6099684887000001,0.270108325,0.7438931492,-0.1095737377999999,0.218322273,0.101821665,0.003
03:29:26,0.734532215,0.621779795,-1.852370885,0.0634280449999999,0.249373405,-0.265950075,-4.97768442,-30.327254720000003,-5.696666915,168.73628525,-0.6054473918450001,0.26754444575,0.7381718100200001,-0.10966089793,0.21712431055,0.10157065275,0.003
03:29:26,0.73083253,0.61666489,-1.84017767,0.06395539,0.24794051,-0.26602465,-4.97262764,-30.328810240000003,-5.61412293,168.7453955,-0.60092629499,0.2649805665,0.73245047084,-0.10974805806,0.2159263481,0.1013196405,0.003
03:29:26,0.727132845,0.611549985,-1.827984455,0.064482735,0.246507615,-0.266099225,-4.96757086,-30.33036576,-5.531578945,168.75450575000002,-0.596405198135,0.26241668725,0.72672913166,-0.10983521819,0.21472838565,0.10106862825,0.003
03:29:26,0.72343316,0.60643508,-1.81579124,0.06501008,0.24507472,-0.2661738,-4.96251408,-30.33192128,-5.44903496,168.763616,-0.59188410128,0.259852808,0.72100779248,-0.10992237832,0.2135304231999999,0.100817616,0.003
03:29:26,0.719733475,0.601320175,-1.803598025,0.065537425,0.243641825,-0.266248375,-4.9574573,-30.3334768,-5.366490975,168.77272625,-0.587363004425,0.25728892875,0.7152864533000001,-0.11000953845,0.21233246075,0.10056660375,0.003
03:29:26,0.71603379,0.59620527,-1.79140481,0.06606477,0.24220893,-0.26632295,-4.952400519999999,-30.33503232,-5.28394699,168.7818365,-0.58284190757,0.2547250495,0.70956511412,-0.11009669858,0.2111344983,0.1003155915,0.003
03:29:26,0.712334105,0.591090365,-1.7792115949999998,0.066592115,0.240776035,-0.266397525,-4.94734374,-30.33658784,-5.201403005,168.79094675000002,-0.578320810715,0.25216117025,0.7038437749399999,-0.11018385871,0.20993653585,0.10006457925,0.003
03:29:26,0.70863442,0.58597546,-1.7670183799999997,0.0671194599999999,0.23934314,-0.2664721,-4.94228696,-30.33814336,-5.11885902,168.800057,-0.57379971386,0.249597291,0.69812243576,-0.11027101884,0.2087385734,0.0998135669999999,0.003
03:29:26,0.7049347349999999,0.580860555,-1.7548251649999995,0.067646805,0.237910245,-0.266546675,-4.93723018,-30.33969888,-5.036315034999999,168.80916725,-0.569278617005,0.24703341175,0.69240109658,-0.11035817897,0.2075406109499999,0.09956255475,0.003
03:29:26,0.70123505,0.57574565,-1.7426319499999998,0.0681741499999999,0.23647735,-0.26662125,-4.9321734,-30.3412544,-4.953771049999999,168.81827750000002,-0.56475752015,0.2444695325,0.6866797574000001,-0.1104453391,0.2063426485,0.0993115425,0.003
03:29:26,0.697535365,0.570630745,-1.730438735,0.068701495,0.235044455,-0.266695825,-4.92711662,-30.34280992,-4.871227064999999,168.82738775,-0.560236423295,0.24190565325,0.68095841822,-0.11053249923,0.20514468605,0.09906053025,0.003
03:29:26,0.6938356800000001,0.56551584,-1.7182455199999995,0.06922884,0.23361156,-0.2667704,-4.92205984,-30.34436544,-4.788683079999999,168.836498,-0.55571532644,0.239341774,0.67523707904,-0.11061965936,0.2039467236,0.098809518,0.003
03:29:26,0.690135995,0.5604009350000001,-1.7060523049999998,0.069756185,0.232178665,-0.266844975,-4.91700306,-30.34592096,-4.706139094999999,168.84560825,-0.5511942295850001,0.23677789475,0.66951573986,-0.11070681949,0.20274876115,0.09855850575,0.003
03:29:26,0.6864363099999999,0.55528603,-1.6938590899999997,0.07028353,0.23074577,-0.26691955,-4.91194628,-30.34747648,-4.623595109999999,168.85471850000002,-0.5466731327300001,0.2342140155,0.6637944006800001,-0.11079397962,0.2015507987,0.0983074935,0.003
03:29:26,0.682736625,0.5501711250000001,-1.6816658749999998,0.070810875,0.229312875,-0.266994125,-4.9068895,-30.349032,-4.541051125,168.86382875,-0.542152035875,0.23165013625,0.6580730615,-0.11088113975,0.20035283625,0.09805648125,0.003
03:29:26,0.67903694,0.54505622,-1.6694726599999998,0.07133822,0.22787998,-0.2670687,-4.90183272,-30.35058752,-4.45850714,168.872939,-0.53763093902,0.229086257,0.65235172232,-0.11096829988,0.1991548738,0.097805469,0.003
03:29:26,0.675337255,0.5399413150000001,-1.657279445,0.0718655649999999,0.226447085,-0.267143275,-4.89677594,-30.35214304,-4.375963155,168.88204925000002,-0.533109842165,0.22652237775,0.64663038314,-0.11105546001,0.19795691135,0.0975544567499999,0.003
03:29:26,0.67163757,0.53482641,-1.6450862299999998,0.07239291,0.22501419,-0.26721785,-4.89171916,-30.35369856,-4.29341917,168.8911595,-0.52858874531,0.2239584985,0.64090904396,-0.11114262014,0.1967589489,0.0973034445,0.003
03:29:26,0.667937885,0.5297115050000001,-1.6328930149999998,0.0729202549999999,0.223581295,-0.267292425,-4.88666238,-30.35525408,-4.210875185,168.90026975,-0.524067648455,0.22139461925,0.6351877047800001,-0.11122978027,0.19556098645,0.09705243225,0.003
03:29:26,0.6642382,0.5245966,-1.6206997999999997,0.0734476,0.2221484,-0.267367,-4.881605599999999,-30.3568096,-4.1283312,168.90938,-0.5195465516,0.21883074,0.6294663656,-0.1113169404,0.194363024,0.09680142,0.003
03:29:26,0.660538515,0.5194816950000001,-1.6085065849999998,0.0739749449999999,0.220715505,-0.267441575,-4.87654882,-30.35836512,-4.045787215,168.91849025000002,-0.5150254547449999,0.21626686075,0.62374502642,-0.11140410053,0.19316506155,0.09655040775,0.003
03:29:26,0.65683883,0.51436679,-1.5963133699999998,0.07450229,0.21928261,-0.26751615,-4.87149204,-30.35992064,-3.96324323,168.9276005,-0.51050435789,0.2137029815,0.61802368724,-0.11149126066,0.1919670990999999,0.0962993955,0.003
03:29:26,0.6531391449999999,0.5092518850000001,-1.5841201549999997,0.075029635,0.217849715,-0.267590725,-4.866435259999999,-30.36147616,-3.880699245,168.93671075,-0.505983261035,0.21113910225,0.6123023480600001,-0.11157842079,0.19076913665,0.09604838325,0.003
03:29:26,0.64943946,0.50413698,-1.5719269399999998,0.07555698,0.21641682,-0.2676653,-4.86137848,-30.36303168,-3.79815526,168.94582100000002,-0.50146216418,0.208575223,0.60658100888,-0.11166558092,0.1895711742,0.0957973709999999,0.003
03:29:26,0.645739775,0.499022075,-1.5597337249999998,0.076084325,0.214983925,-0.267739875,-4.8563217,-30.364587200000003,-3.715611275,168.95493125000002,-0.496941067325,0.20601134375,0.6008596697,-0.1117527410499999,0.18837321175,0.09554635875,0.003
03:29:26,0.6420400900000001,0.49390717,-1.5475405099999997,0.0766116699999999,0.21355103,-0.26781445,-4.85126492,-30.366142720000003,-3.63306729,168.9640415,-0.49241997047,0.2034474645,0.59513833052,-0.1118399011799999,0.1871752493,0.0952953465,0.003
03:29:26,0.638340405,0.488792265,-1.5353472949999998,0.077139015,0.2121181349999999,-0.267889025,-4.84620814,-30.367698240000003,-3.550523305,168.97315175,-0.487898873615,0.20088358525,0.58941699134,-0.1119270613099999,0.1859772868499999,0.09504433425,0.003
03:29:26,0.6346407199999999,0.48367736,-1.52315408,0.0776663599999999,0.21068524,-0.2679636,-4.84115136,-30.36925376,-3.4679793199999995,168.98226200000002,-0.48337777676,0.198319706,0.5836956521600001,-0.1120142214399999,0.1847793244,0.094793322,0.003
03:29:26,0.630941035,0.478562455,-1.5109608649999997,0.078193705,0.209252345,-0.268038175,-4.83609458,-30.37080928,-3.3854353349999995,168.99137225,-0.478856679905,0.19575582675,0.57797431298,-0.1121013815699999,0.18358136195,0.09454230975,0.003
03:29:26,0.62724135,0.47344755,-1.4987676499999998,0.0787210499999999,0.20781945,-0.26811275,-4.8310378,-30.3723648,-3.3028913499999994,169.0004825,-0.47433558305,0.1931919475,0.5722529738000001,-0.1121885416999999,0.1823833995,0.0942912975,0.003
03:29:26,0.6235416650000001,0.468332645,-1.486574435,0.079248395,0.206386555,-0.268187325,-4.82598102,-30.37392032,-3.2203473649999994,169.00959275,-0.469814486195,0.19062806825,0.56653163462,-0.1122757018299999,0.18118543705,0.09404028525,0.003
03:29:26,0.61984198,0.46321774,-1.4743812199999995,0.07977574,0.20495366,-0.2682619,-4.82092424,-30.37547584,-3.13780338,169.01870300000002,-0.46529338934,0.188064189,0.56081029544,-0.1123628619599999,0.1799874746,0.093789273,0.003
03:29:26,0.616142295,0.458102835,-1.4621880049999998,0.080303085,0.203520765,-0.268336475,-4.81586746,-30.37703136,-3.0552593949999998,169.02781325,-0.460772292485,0.18550030975,0.55508895626,-0.1124500220899999,0.17878951215,0.0935382607499999,0.003
03:29:26,0.61244261,0.45298793,-1.44999479,0.08083043,0.20208787,-0.26841105,-4.81081068,-30.37858688,-2.9727154099999997,169.0369235,-0.45625119563,0.1829364305,0.54936761708,-0.1125371822199999,0.1775915497,0.0932872485,0.003
03:29:26,0.608742925,0.447873025,-1.4378015749999995,0.081357775,0.200654975,-0.268485625,-4.8057539,-30.3801424,-2.8901714249999992,169.04603375000002,-0.451730098775,0.18037255125,0.5436462779,-0.1126243423499999,0.1763935872499999,0.09303623625,0.003
03:29:26,0.60504324,0.44275812,-1.4256083599999998,0.08188512,0.19922208,-0.2685602,-4.80069712,-30.38169792,-2.807627439999999,169.055144,-0.44720900192,0.177808672,0.53792493872,-0.11271150248,0.1751956248,0.092785224,0.003
03:29:26,0.6013435549999999,0.437643215,-1.413415145,0.0824124649999999,0.197789185,-0.268634775,-4.79564034,-30.38325344,-2.725083455,169.06425425,-0.442687905065,0.17524479275,0.5322035995400001,-0.1127986626099999,0.17399766235,0.09253421175,0.003
03:29:26,0.59764387,0.43252831,-1.4012219299999995,0.08293981,0.19635629,-0.26870935,-4.79058356,-30.38480896,-2.642539469999999,169.0733645,-0.43816680821,0.1726809135,0.52648226036,-0.11288582274,0.1727996999,0.0922831995,0.003
03:29:26,0.593944185,0.427413405,-1.3890287149999998,0.0834671549999999,0.194923395,-0.268783925,-4.78552678,-30.38636448,-2.559995485,169.08247475000002,-0.433645711355,0.17011703425,0.5207609211800001,-0.1129729828699999,0.17160173745,0.09203218725,0.003
03:29:26,0.5902445000000001,0.4222985,-1.3768355,0.0839945,0.1934905,-0.2688585,-4.780469999999999,-30.38792,-2.477451499999999,169.091585,-0.4291246145,0.167553155,0.515039582,-0.113060143,0.1704037749999999,0.0917811749999999,0.003
03:29:26,0.586544815,0.417183595,-1.3646422849999995,0.084521845,0.192057605,-0.268933075,-4.77541322,-30.38947552,-2.394907515,169.10069525,-0.424603517645,0.16498927575,0.50931824282,-0.11314730313,0.16920581255,0.09153016275,0.003
03:29:26,0.5828451299999999,0.41206869,-1.3524490699999998,0.08504919,0.19062471,-0.26900765,-4.77035644,-30.39103104,-2.312363529999999,169.10980550000002,-0.42008242079,0.1624253965,0.50359690364,-0.11323446326,0.1680078501,0.0912791505,0.003
03:29:26,0.579145445,0.406953785,-1.340255855,0.085576535,0.189191815,-0.269082225,-4.76529966,-30.39258656,-2.229819545,169.11891575,-0.415561323935,0.15986151725,0.49787556446,-0.11332162339,0.16680988765,0.09102813825,0.003
03:29:26,0.57544576,0.40183888,-1.3280626399999995,0.08610388,0.18775892,-0.2691568,-4.76024288,-30.39414208,-2.147275559999999,169.128026,-0.41104022708,0.157297638,0.4921542252799999,-0.11340878352,0.1656119252,0.090777126,0.003
03:29:26,0.5717460750000001,0.396723975,-1.3158694249999998,0.0866312249999999,0.186326025,-0.269231375,-4.7551861,-30.3956976,-2.064731575,169.13713625,-0.406519130225,0.15473375875,0.4864328861,-0.11349594365,0.16441396275,0.09052611375,0.003
03:29:26,0.56804639,0.39160907,-1.30367621,0.0871585699999999,0.18489313,-0.26930595,-4.75012932,-30.39725312,-1.9821875899999988,169.14624650000002,-0.40199803337,0.1521698795,0.48071154692,-0.11358310378,0.1632160003,0.0902751015,0.003
03:29:26,0.564346705,0.386494165,-1.2914829949999995,0.087685915,0.183460235,-0.269380525,-4.74507254,-30.39880864,-1.899643605,169.15535675,-0.397476936515,0.14960600025,0.47499020774,-0.11367026391,0.16201803785,0.09002408925,0.003
03:29:26,0.56064702,0.38137926,-1.2792897799999998,0.0882132599999999,0.18202734,-0.2694551,-4.74001576,-30.40036416,-1.8170996200000005,169.164467,-0.39295583966,0.147042121,0.46926886856,-0.11375742404,0.1608200753999999,0.089773077,0.003
03:29:26,0.556947335,0.376264355,-1.267096565,0.088740605,0.180594445,-0.269529675,-4.73495898,-30.40191968,-1.7345556349999995,169.17357725000002,-0.388434742805,0.14447824175,0.46354752938,-0.11384458417,0.15962211295,0.0895220647499999,0.003
03:29:26,0.55324765,0.37114945,-1.2549033499999998,0.0892679499999999,0.17916155,-0.26960425,-4.7299022,-30.403475200000003,-1.6520116500000004,169.1826875,-0.38391364595,0.1419143625,0.4578261902,-0.1139317443,0.1584241505,0.0892710525,0.003
03:29:26,0.5495479649999999,0.366034545,-1.2427101349999998,0.089795295,0.177728655,-0.269678825,-4.724845419999999,-30.405030720000003,-1.5694676649999997,169.19179775,-0.379392549095,0.13935048325,0.45210485102,-0.11401890443,0.15722618805,0.08902004025,0.003
03:29:26,0.54584828,0.3609196400000001,-1.23051692,0.09032264,0.17629576,-0.2697534,-4.71978864,-30.406586240000003,-1.4869236800000003,169.200908,-0.37487145224,0.136786604,0.44638351184,-0.11410606456,0.1560282256,0.088769028,0.003
03:29:26,0.542148595,0.3558047350000001,-1.2183237049999998,0.090849985,0.174862865,-0.269827975,-4.71473186,-30.40814176,-1.4043796949999994,169.21001825000002,-0.370350355385,0.13422272475,0.4406621726600001,-0.11419322469,0.15483026315,0.08851801575,0.003
03:29:26,0.5384489100000001,0.3506898300000001,-1.2061304899999998,0.0913773299999999,0.17342997,-0.26990255,-4.70967508,-30.40969728,-1.3218357100000002,169.2191285,-0.36582925853,0.1316588455,0.43494083348,-0.11428038482,0.1536323007,0.0882670035,0.003
03:29:26,0.534749225,0.3455749250000001,-1.1939372749999997,0.0919046749999999,0.171997075,-0.269977125,-4.7046183,-30.4112528,-1.2392917249999993,169.22823875,-0.361308161675,0.12909496625,0.4292194943,-0.11436754495,0.15243433825,0.08801599125,0.003
03:29:26,0.5310495399999999,0.3404600200000001,-1.1817440599999998,0.09243202,0.17056418,-0.2700517,-4.69956152,-30.41280832,-1.15674774,169.237349,-0.35678706482,0.126531087,0.42349815512,-0.11445470508,0.1512363758,0.0877649789999999,0.003
03:29:26,0.527349855,0.3353451150000001,-1.1695508449999998,0.0929593649999999,0.169131285,-0.270126275,-4.69450474,-30.41436384,-1.0742037549999992,169.24645925000002,-0.352265967965,0.12396720775,0.41777681594,-0.11454186521,0.15003841335,0.08751396675,0.003
03:29:26,0.52365017,0.3302302100000001,-1.1573576299999997,0.09348671,0.16769839,-0.27020085,-4.68944796,-30.41591936,-0.99165977,169.2555695,-0.3477448711099999,0.1214033285,0.41205547676,-0.11462902534,0.1488404509,0.0872629545,0.003
03:29:26,0.5199504850000001,0.3251153050000001,-1.1451644149999998,0.0940140549999999,0.1662654949999999,-0.270275425,-4.68439118,-30.41747488,-0.9091157849999992,169.26467975,-0.343223774255,0.11883944925,0.40633413758,-0.11471618547,0.14764248845,0.08701194225,0.003
03:29:26,0.5162508,0.3200004000000001,-1.1329711999999998,0.0945414,0.1648326,-0.27035,-4.6793344,-30.4190304,-0.8265718,169.27379000000002,-0.3387026774,0.11627557,0.4006127984000001,-0.1148033456,0.146444526,0.08676093,0.003
03:29:26,0.512551115,0.314885495,-1.1207779849999997,0.0950687449999999,0.163399705,-0.270424575,-4.67427762,-30.42058592,-0.744027814999999,169.28290025,-0.334181580545,0.11371169075,0.39489145922,-0.11489050573,0.1452465635499999,0.08650991775,0.003
03:29:26,0.50885143,0.30977059,-1.1085847699999998,0.09559609,0.16196681,-0.27049915,-4.66922084,-30.42214144,-0.6614838299999999,169.2920105,-0.32966048369,0.1111478115,0.38917012004,-0.11497766586,0.1440486011,0.0862589055,0.003
03:29:26,0.505151745,0.304655685,-1.096391555,0.0961234349999999,0.160533915,-0.270573725,-4.66416406,-30.42369696,-0.578939844999999,169.30112075,-0.325139386835,0.10858393225,0.38344878086,-0.11506482599,0.14285063865,0.08600789325,0.003
03:29:26,0.50145206,0.29954078,-1.0841983399999997,0.0966507799999999,0.15910102,-0.2706483,-4.65910728,-30.42525248,-0.4963958599999998,169.31023100000002,-0.3206182899799999,0.106020053,0.37772744168,-0.11515198612,0.1416526762,0.085756881,0.003
03:29:26,0.497752375,0.294425875,-1.0720051249999998,0.097178125,0.157668125,-0.270722875,-4.654050499999999,-30.426808,-0.4138518749999988,169.31934125,-0.316097193125,0.1034561737499999,0.3720061025,-0.11523914625,0.14045471375,0.0855058687499999,0.003
03:29:26,0.49405269,0.28931097,-1.05981191,0.0977054699999999,0.15623523,-0.27079745,-4.64899372,-30.42836352,-0.3313078899999997,169.3284515,-0.31157609627,0.1008922945,0.36628476332,-0.11532630638,0.1392567513,0.0852548565,0.003
03:29:26,0.490353005,0.284196065,-1.0476186949999995,0.098232815,0.1548023349999999,-0.270872025,-4.64393694,-30.42991904,-0.2487639049999988,169.33756175000002,-0.307054999415,0.09832841525,0.36056342414,-0.1154134665099999,0.13805878885,0.08500384425,0.003
03:29:26,0.48665332,0.27908116,-1.0354254799999998,0.0987601599999999,0.15336944,-0.2709466,-4.638880159999999,-30.43147456,-0.1662199199999996,169.346672,-0.30253390256,0.095764536,0.35484208496,-0.1155006266399999,0.1368608264,0.084752832,0.003
03:29:26,0.482953635,0.273966255,-1.023232265,0.099287505,0.151936545,-0.271021175,-4.63382338,-30.43303008,-0.0836759350000004,169.35578225,-0.298012805705,0.09320065675,0.3491207457800001,-0.1155877867699999,0.13566286395,0.08450181975,0.003
03:29:26,0.47925395,0.26885135,-1.0110390499999995,0.0998148499999999,0.15050365,-0.27109575,-4.6287666,-30.4345856,-0.0011319499999995,169.3648925,-0.29349170885,0.0906367774999999,0.3433994066,-0.1156749468999999,0.1344649014999999,0.0842508075,0.003
03:29:26,0.475554265,0.263736445,-0.9988458349999998,0.100342195,0.149070755,-0.271170325,-4.62370982,-30.43614112,0.0814120349999996,169.37400275000002,-0.2889706119949999,0.08807289825,0.33767806742,-0.1157621070299999,0.13326693905,0.08399979525,0.003
03:29:26,0.47185458,0.25862154,-0.98665262,0.1008695399999999,0.1476378599999999,-0.2712449,-4.61865304,-30.43769664,0.1639560200000005,169.383113,-0.28444951514,0.085509019,0.33195672824,-0.1158492671599999,0.1320689766,0.083748783,0.003
03:29:26,0.468154895,0.253506635,-0.9744594049999996,0.1013968849999999,0.146204965,-0.271319475,-4.61359626,-30.43925216,0.2465000049999997,169.39222325,-0.279928418285,0.08294513975,0.32623538906,-0.1159364272899999,0.13087101415,0.08349777075,0.003
03:29:26,0.46445521,0.24839173,-0.9622661899999998,0.10192423,0.14477207,-0.27139405,-4.60853948,-30.44080768,0.3290439900000006,169.40133350000002,-0.27540732143,0.0803812605,0.32051404988,-0.1160235874199999,0.1296730516999999,0.0832467585,0.003
03:29:26,0.460755525,0.243276825,-0.950072975,0.1024515749999999,0.1433391749999999,-0.271468625,-4.6034827,-30.442363200000003,0.4115879749999998,169.41044375,-0.270886224575,0.0778173812499999,0.3147927107,-0.1161107475499999,0.12847508925,0.08299574625,0.003
03:29:26,0.45705584,0.23816192,-0.9378797599999996,0.10297892,0.14190628,-0.2715432,-4.59842592,-30.443918720000003,0.4941319600000007,169.419554,-0.26636512772,0.075253502,0.3090713715199999,-0.1161979076799999,0.1272771268,0.082744734,0.003
03:29:26,0.453356155,0.233047015,-0.9256865449999998,0.1035062649999999,0.140473385,-0.271617775,-4.59336914,-30.445474240000003,0.5766759449999999,169.42866425,-0.2618440308649999,0.07268962275,0.30335003234,-0.11628506781,0.12607916435,0.08249372175,0.003
03:29:26,0.44965647,0.22793211,-0.91349333,0.10403361,0.13904049,-0.27169235,-4.58831236,-30.44702976,0.6592199300000008,169.43777450000002,-0.25732293401,0.0701257435,0.29762869316,-0.1163722279399999,0.1248812018999999,0.0822427095,0.003
03:29:26,0.445956785,0.222817205,-0.9013001149999996,0.1045609549999999,0.137607595,-0.271766925,-4.583255579999999,-30.44858528,0.7417639149999999,169.44688475,-0.252801837155,0.0675618642499999,0.29190735398,-0.11645938807,0.1236832394499999,0.08199169725,0.003
03:29:26,0.4422570999999999,0.2177023,-0.8891068999999998,0.1050883,0.1361746999999999,-0.2718415,-4.5781988,-30.4501408,0.8243079000000009,169.455995,-0.2482807403,0.064997985,0.2861860148,-0.1165465481999999,0.122485277,0.081740685,0.003
03:29:26,0.438557415,0.212587395,-0.8769136849999999,0.1056156449999999,0.134741805,-0.271916075,-4.57314202,-30.45169632,0.906851885,169.46510525,-0.243759643445,0.06243410575,0.28046467562,-0.11663370833,0.12128731455,0.0814896727499999,0.003
03:29:26,0.43485773,0.20747249,-0.8647204699999997,0.1061429899999999,0.13330891,-0.27199065,-4.56808524,-30.45325184,0.989395870000001,169.4742155,-0.23923854659,0.0598702265,0.27474333644,-0.11672086846,0.1200893520999999,0.0812386605,0.003
03:29:26,0.431158045,0.202357585,-0.8525272549999998,0.106670335,0.1318760149999999,-0.272065225,-4.56302846,-30.45480736,1.071939855,169.48332575,-0.2347174497349999,0.05730634725,0.26902199726,-0.11680802859,0.1188913896499999,0.08098764825,0.003
03:29:26,0.42745836,0.19724268,-0.8403340399999997,0.1071976799999999,0.13044312,-0.2721398,-4.55797168,-30.45636288,1.154483840000001,169.492436,-0.2301963528799999,0.0547424679999999,0.26330065808,-0.11689518872,0.1176934272,0.080736636,0.003
03:29:26,0.423758675,0.1921277750000001,-0.8281408249999997,0.107725025,0.1290102249999999,-0.272214375,-4.552914899999999,-30.4579184,1.2370278250000002,169.50154625000002,-0.225675256025,0.05217858875,0.2575793189000001,-0.11698234885,0.11649546475,0.08048562375,0.003
03:29:26,0.42005899,0.1870128700000001,-0.8159476099999998,0.1082523699999999,0.12757733,-0.27228895,-4.54785812,-30.45947392,1.3195718100000011,169.5106565,-0.22115415917,0.0496147095,0.25185797972,-0.11706950898,0.1152975023,0.0802346115,0.003
03:29:26,0.4163593049999999,0.1818979650000001,-0.8037543949999997,0.108779715,0.126144435,-0.272363525,-4.54280134,-30.46102944,1.4021157950000005,169.51976675,-0.216633062315,0.04705083025,0.24613664054,-0.11715666911,0.1140995398499999,0.07998359925,0.003
03:29:26,0.41265962,0.1767830600000001,-0.7915611799999998,0.1093070599999999,0.1247115399999999,-0.2724381,-4.53774456,-30.46258496,1.4846597800000012,169.528877,-0.21211196546,0.044486951,0.24041530136,-0.11724382924,0.1129015774,0.079732587,0.003
03:29:26,0.408959935,0.1716681550000001,-0.7793679649999998,0.109834405,0.1232786449999999,-0.272512675,-4.53268778,-30.46414048,1.5672037650000004,169.53798725,-0.2075908686049999,0.0419230717499999,0.23469396218,-0.11733098937,0.11170361495,0.07948157475,0.003
03:29:26,0.40526025,0.1665532500000001,-0.7671747499999997,0.1103617499999999,0.12184575,-0.27258725,-4.527631,-30.465696,1.6497477499999995,169.5470975,-0.2030697717499999,0.0393591925,0.228972623,-0.1174181495,0.1105056525,0.0792305625,0.003
03:29:26,0.401560565,0.1614383450000001,-0.7549815349999998,0.110889095,0.1204128549999999,-0.272661825,-4.52257422,-30.46725152,1.7322917350000004,169.55620775,-0.198548674895,0.03679531325,0.22325128382,-0.11750530963,0.1093076900499999,0.07897955025,0.003
03:29:26,0.39786088,0.1563234400000001,-0.7427883199999998,0.1114164399999999,0.11897996,-0.2727364,-4.51751744,-30.46880704,1.81483572,169.56531800000002,-0.19402757804,0.034231434,0.21752994464,-0.11759246976,0.1081097275999999,0.078728538,0.003
03:29:26,0.394161195,0.1512085350000001,-0.7305951049999997,0.1119437849999999,0.1175470649999999,-0.272810975,-4.51246066,-30.47036256,1.8973797050000003,169.57442825,-0.189506481185,0.0316675547499999,0.21180860546,-0.11767962989,0.10691176515,0.07847752575,0.003
03:29:26,0.3904615099999999,0.14609363,-0.7184018899999998,0.11247113,0.1161141699999999,-0.27288555,-4.50740388,-30.47191808,1.97992369,169.5835385,-0.18498538433,0.0291036754999999,0.20608726628,-0.11776679002,0.1057138027,0.0782265135,0.003
03:29:26,0.386761825,0.140978725,-0.7062086749999998,0.1129984749999999,0.114681275,-0.272960125,-4.5023471,-30.4734736,2.0624676750000006,169.59264875,-0.1804642874749999,0.02653979625,0.2003659271,-0.11785395015,0.1045158402499999,0.07797550125,0.003
03:29:26,0.38306214,0.13586382,-0.6940154599999997,0.11352582,0.1132483799999999,-0.2730347,-4.497290319999999,-30.47502912,2.14501166,169.60175900000002,-0.1759431906199999,0.023975917,0.19464458792,-0.11794111028,0.1033178777999999,0.077724489,0.003
03:29:26,0.379362455,0.130748915,-0.6818222449999998,0.1140531649999999,0.1118154849999999,-0.273109275,-4.49223354,-30.47658464,2.2275556450000007,169.61086925,-0.171422093765,0.02141203775,0.18892324874,-0.11802827041,0.10211991535,0.0774734767499999,0.003
03:29:26,0.37566277,0.12563401,-0.6696290299999998,0.11458051,0.11038259,-0.27318385,-4.48717676,-30.47814016,2.31009963,169.6199795,-0.16690099691,0.0188481584999999,0.18320190956,-0.11811543054,0.1009219529,0.0772224645,0.003
03:29:26,0.3719630849999999,0.120519105,-0.6574358149999997,0.1151078549999999,0.1089496949999999,-0.273258425,-4.48211998,-30.479695680000003,2.392643615000001,169.62908975000002,-0.162379900055,0.01628427925,0.1774805703799999,-0.11820259067,0.09972399045,0.07697145225,0.003
03:29:26,0.3682634,0.1154042,-0.6452425999999998,0.1156352,0.1075168,-0.273333,-4.4770632,-30.481251200000003,2.4751876,169.6382,-0.1578588032,0.0137204,0.1717592312,-0.1182897508,0.0985260279999999,0.07672044,0.003
03:29:26,0.3645637149999999,0.110289295,-0.6330493849999999,0.1161625449999999,0.1060839049999999,-0.273407575,-4.47200642,-30.482806720000003,2.557731585000001,169.64731025,-0.153337706345,0.01115652075,0.16603789202,-0.11837691093,0.0973280655499999,0.07646942775,0.003
03:29:26,0.36086403,0.10517439,-0.6208561699999997,0.1166898899999999,0.1046510099999999,-0.27348215,-4.46694964,-30.484362240000003,2.64027557,169.6564205,-0.1488166094899999,0.0085926414999999,0.16031655284,-0.11846407106,0.0961301031,0.0762184155,0.003
03:29:26,0.357164345,0.100059485,-0.6086629549999998,0.117217235,0.103218115,-0.273556725,-4.46189286,-30.48591776,2.722819555000001,169.66553075000002,-0.1442955126349999,0.0060287622499999,0.15459521366,-0.11855123119,0.09493214065,0.07596740325,0.003
03:29:26,0.35346466,0.09494458,-0.5964697399999999,0.1177445799999999,0.1017852199999999,-0.2736313,-4.45683608,-30.48747328,2.80536354,169.674641,-0.13977441578,0.003464883,0.14887387448,-0.11863839132,0.0937341781999999,0.075716391,0.003
03:29:26,0.349764975,0.089829675,-0.5842765249999999,0.118271925,0.1003523249999999,-0.273705875,-4.4517793,-30.4890288,2.887907525000001,169.68375125,-0.135253318925,0.00090100375,0.1431525353,-0.11872555145,0.0925362157499999,0.07546537875,0.003
03:29:26,0.3460652899999999,0.08471477,-0.5720833099999996,0.1187992699999999,0.0989194299999999,-0.27378045,-4.44672252,-30.49058432,2.97045151,169.6928615,-0.13073222207,-0.0016628754999999,0.13743119612,-0.11881271158,0.0913382533,0.0752143665,0.003
03:29:26,0.342365605,0.079599865,-0.5598900949999996,0.119326615,0.0974865349999999,-0.273855025,-4.44166574,-30.49213984,3.052995495000001,169.70197175,-0.126211125215,-0.00422675475,0.13170985694,-0.11889987171,0.09014029085,0.07496335425,0.003
03:29:26,0.3386659199999999,0.07448496,-0.5476968799999997,0.1198539599999999,0.09605364,-0.2739296,-4.43660896,-30.49369536,3.1355394800000003,169.711082,-0.1216900283599999,-0.006790634,0.1259885177599999,-0.11898703184,0.0889423283999999,0.074712342,0.003
03:29:26,0.334966235,0.069370055,-0.5355036649999998,0.120381305,0.0946207449999999,-0.274004175,-4.43155218,-30.49525088,3.218083465000001,169.72019225,-0.1171689315049999,-0.0093545132499999,0.12026717858,-0.1190741919699999,0.0877443659499999,0.07446132975,0.003
03:29:26,0.33126655,0.06425515,-0.5233104499999999,0.1209086499999999,0.0931878499999999,-0.27407875,-4.426495399999999,-30.4968064,3.3006274500000004,169.72930250000002,-0.11264783465,-0.0119183924999999,0.1145458394,-0.1191613520999999,0.0865464035,0.0742103175,0.003
03:29:26,0.327566865,0.059140245,-0.511117235,0.1214359949999999,0.091754955,-0.274153325,-4.42143862,-30.49836192,3.3831714349999995,169.73841275,-0.108126737795,-0.0144822717499999,0.10882450022,-0.1192485122299999,0.08534844105,0.07395930525,0.003
03:29:26,0.32386718,0.05402534,-0.4989240199999996,0.1219633399999999,0.0903220599999999,-0.2742279,-4.41638184,-30.49991744,3.4657154200000004,169.747523,-0.10360564094,-0.017046151,0.10310316104,-0.1193356723599999,0.0841504786,0.073708293,0.003
03:29:26,0.3201674949999999,0.048910435,-0.4867308049999996,0.1224906849999999,0.0888891649999999,-0.274302475,-4.411325059999999,-30.50147296,3.548259405,169.75663325,-0.099084544085,-0.01961003025,0.09738182186,-0.1194228324899999,0.0829525161499999,0.0734572807499999,0.003
03:29:26,0.31646781,0.04379553,-0.4745375899999997,0.12301803,0.0874562699999999,-0.27437705,-4.40626828,-30.50302848,3.630803390000001,169.7657435,-0.0945634472299999,-0.0221739094999999,0.09166048268,-0.1195099926199999,0.0817545536999999,0.0732062685,0.003
03:29:26,0.3127681249999999,0.038680625,-0.4623443749999998,0.1235453749999999,0.086023375,-0.274451625,-4.4012115,-30.504584,3.713347375,169.77485375,-0.0900423503749999,-0.0247377887499999,0.0859391435,-0.1195971527499999,0.08055659125,0.07295525625,0.003
03:29:26,0.30906844,0.0335657200000001,-0.4501511599999999,0.12407272,0.0845904799999999,-0.2745262,-4.39615472,-30.50613952,3.7958913600000006,169.783964,-0.08552125352,-0.027301668,0.0802178043200001,-0.11968431288,0.0793586288,0.072704244,0.003
03:29:26,0.305368755,0.0284508150000001,-0.4379579449999999,0.1246000649999999,0.0831575849999999,-0.274600775,-4.39109794,-30.50769504,3.878435345,169.79307425000002,-0.081000156665,-0.02986554725,0.0744964651399999,-0.1197714730099999,0.0781606663499999,0.07245323175,0.003
03:29:26,0.30166907,0.0233359100000001,-0.4257647299999996,0.12512741,0.0817246899999999,-0.27467535,-4.38604116,-30.50925056,3.9609793300000007,169.8021845,-0.07647905981,-0.0324294264999999,0.06877512596,-0.11985863314,0.0769627038999999,0.0722022195,0.003
03:29:26,0.297969385,0.0182210050000001,-0.4135715149999996,0.1256547549999999,0.080291795,-0.274749925,-4.38098438,-30.51080608,4.043523315,169.81129475,-0.071957962955,-0.0349933057499999,0.06305378678,-0.1199457932699999,0.07576474145,0.07195120725,0.003
03:29:26,0.2942696999999999,0.0131061000000001,-0.4013782999999997,0.1261821,0.0788589,-0.2748245,-4.3759276,-30.5123616,4.126067300000001,169.820405,-0.0674368660999999,-0.0375571849999999,0.0573324476000001,-0.1200329534,0.074566779,0.071700195,0.003
03:29:26,0.290570015,0.0079911950000001,-0.3891850849999998,0.1267094449999999,0.0774260049999999,-0.274899075,-4.37087082,-30.51391712,4.208611285,169.82951525,-0.0629157692449999,-0.04012106425,0.0516111084199999,-0.1201201135299999,0.07336881655,0.07144918275,0.003
03:29:26,0.28687033,0.0028762900000001,-0.3769918699999999,0.12723679,0.0759931099999999,-0.27497365,-4.36581404,-30.51547264,4.291155270000001,169.8386255,-0.0583946723899999,-0.0426849435,0.0458897692399999,-0.12020727366,0.0721708540999999,0.0711981705,0.003
03:29:26,0.283170645,-0.0022386149999998,-0.3647986549999999,0.127764135,0.0745602149999999,-0.275048225,-4.36075726,-30.51702816,4.373699255,169.84773575,-0.053873575535,-0.0452488227499999,0.04016843006,-0.12029443379,0.0709728916499999,0.07094715825,0.003
03:29:26,0.27947096,-0.0073535199999998,-0.3526054399999996,0.1282914799999999,0.07312732,-0.2751228,-4.355700479999999,-30.518583680000003,4.456243240000001,169.85684600000002,-0.04935247868,-0.0478127019999999,0.03444709088,-0.12038159392,0.0697749292,0.070696146,0.003
03:29:26,0.275771275,-0.0124684249999998,-0.3404122249999997,0.128818825,0.071694425,-0.275197375,-4.3506437,-30.520139200000003,4.538787225,169.86595625,-0.044831381825,-0.05037658125,0.0287257517000001,-0.12046875405,0.06857696675,0.07044513375,0.003
03:29:26,0.27207159,-0.0175833299999998,-0.3282190099999997,0.1293461699999999,0.0702615299999999,-0.27527195,-4.34558692,-30.521694720000003,4.621331210000001,169.8750665,-0.04031028497,-0.0529404605,0.0230044125199999,-0.12055591418,0.0673790042999999,0.0701941215,0.003
03:29:26,0.2683719049999999,-0.0226982349999999,-0.3160257949999998,0.129873515,0.0688286349999999,-0.275346525,-4.34053014,-30.523250240000003,4.703875195,169.88417675,-0.0357891881149999,-0.05550433975,0.01728307334,-0.12064307431,0.0661810418499999,0.06994310925,0.003
03:29:26,0.26467222,-0.0278131399999999,-0.3038325799999999,0.1304008599999999,0.0673957399999999,-0.2754211,-4.33547336,-30.52480576,4.786419180000001,169.89328700000002,-0.0312680912599999,-0.0580682189999999,0.01156173416,-0.12073023444,0.0649830794,0.069692097,0.003
03:29:26,0.260972535,-0.0329280449999999,-0.291639365,0.130928205,0.0659628449999999,-0.275495675,-4.33041658,-30.52636128,4.868963165,169.90239725,-0.026746994405,-0.0606320982499999,0.0058403949800001,-0.12081739457,0.06378511695,0.0694410847499999,0.003
03:29:26,0.25727285,-0.0380429499999999,-0.2794461499999996,0.1314555499999999,0.06452995,-0.27557025,-4.325359799999999,-30.5279168,4.951507150000001,169.9115075,-0.02222589755,-0.0631959775,0.0001190557999999,-0.1209045547,0.0625871544999999,0.0691900725,0.003
03:29:26,0.253573165,-0.0431578549999999,-0.2672529349999997,0.131982895,0.0630970549999999,-0.275644825,-4.32030302,-30.52947232,5.034051135,169.92061775,-0.017704800695,-0.06575985675,-0.00560228338,-0.12099171483,0.0613891920499999,0.06893906025,0.003
03:29:26,0.2498734799999999,-0.0482727599999999,-0.2550597199999997,0.13251024,0.0616641599999999,-0.2757194,-4.31524624,-30.53102784,5.116595120000001,169.929728,-0.01318370384,-0.068323736,-0.0113236225599999,-0.12107887496,0.0601912296,0.068688048,0.003
03:29:26,0.246173795,-0.0533876649999999,-0.2428665049999998,0.1330375849999999,0.0602312649999999,-0.275793975,-4.31018946,-30.53258336,5.199139105,169.93883825,-0.0086626069849999,-0.0708876152499999,-0.0170449617399999,-0.12116603509,0.05899326715,0.06843703575,0.003
03:29:26,0.2424741099999999,-0.0585025699999999,-0.2306732899999999,0.13356493,0.0587983699999999,-0.27586855,-4.30513268,-30.53413888,5.28168309,169.9479485,-0.0041415101299999,-0.0734514944999999,-0.0227663009199998,-0.12125319522,0.0577953046999999,0.0681860235,0.003
03:29:26,0.238774425,-0.0636174749999999,-0.2184800749999995,0.1340922749999999,0.057365475,-0.275943125,-4.3000759,-30.5356944,5.3642270750000005,169.95705875000002,0.000379586725,-0.07601537375,-0.0284876401,-0.12134035535,0.0565973422499999,0.06793501125,0.003
03:29:26,0.23507474,-0.0687323799999999,-0.2062868599999996,0.13461962,0.0559325799999999,-0.2760177,-4.29501912,-30.53724992,5.446771060000001,169.966169,0.0049006835799999,-0.0785792529999999,-0.0342089792799999,-0.12142751548,0.0553993797999999,0.067683999,0.003
03:29:26,0.231375055,-0.0738472849999998,-0.1940936449999997,0.1351469649999999,0.0544996849999999,-0.276092275,-4.28996234,-30.53880544,5.529315044999999,169.97527925,0.0094217804349999,-0.0811431322499999,-0.0399303184599999,-0.12151467561,0.05420141735,0.06743298675,0.003
03:29:26,0.22767537,-0.0789621899999999,-0.1819004299999997,0.13567431,0.0530667899999999,-0.27616685,-4.28490556,-30.54036096,5.61185903,169.9843895,0.0139428772899999,-0.0837070114999999,-0.0456516576399999,-0.12160183574,0.0530034549,0.0671819745,0.003
03:29:26,0.2239756849999999,-0.0840770949999998,-0.1697072149999998,0.1362016549999999,0.0516338949999999,-0.276241425,-4.27984878,-30.54191648,5.694403015000001,169.99349975,0.018463974145,-0.08627089075,-0.05137299682,-0.12168899587,0.0518054924499999,0.06693096225,0.003
03:29:27,0.220276,-0.089192,-0.157514,0.136729,0.050201,-0.276316,-4.274792,-30.543472,5.776947,170.00261,0.022985071,-0.08883477,-0.057094336,-0.121776156,0.05060753,0.06667995,0.003
03:29:27,0.21247414,-0.086779545,-0.147696955,0.13444383,0.0497429,-0.27604434,-4.23843055,-30.538024575,5.78700098,168.3164434,0.023282914945,-0.0908410481499999,-0.05820918662,-0.1229769594199999,0.050014465325,0.06820345375,0.003
03:29:27,0.20467228,-0.0843670899999999,-0.13787991,0.1321586599999999,0.0492848,-0.27577268,-4.2020691,-30.53257715,5.79705496,166.6302768,0.02358075889,-0.0928473262999999,-0.05932403724,-0.12417776284,0.0494214006499999,0.0697269575,0.003
03:29:27,0.19687042,-0.081954635,-0.128062865,0.1298734899999999,0.0488267,-0.27550102,-4.16570765,-30.527129725,5.80710894,164.9441102,0.023878602835,-0.0948536044499999,-0.06043888786,-0.12537856626,0.048828335975,0.07125046125,0.003
03:29:27,0.18906856,-0.0795421799999999,-0.1182458199999999,0.1275883199999999,0.0483686,-0.27522936,-4.1293462,-30.5216823,5.81716292,163.2579436,0.02417644678,-0.0968598825999999,-0.06155373848,-0.12657936968,0.0482352713,0.072773965,0.003
03:29:27,0.1812667,-0.077129725,-0.1084287749999999,0.12530315,0.0479105,-0.2749577,-4.092984749999999,-30.516234875,5.8272169,161.571777,0.024474290725,-0.0988661607499999,-0.0626685891,-0.1277801731,0.0476422066249999,0.07429746875,0.003
03:29:27,0.17346484,-0.0747172699999999,-0.0986117299999999,0.1230179799999999,0.0474524,-0.27468604,-4.0566233,-30.51078745,5.83727088,159.88561040000002,0.02477213467,-0.1008724389,-0.06378343972,-0.1289809765199999,0.04704914195,0.0758209725,0.003
03:29:27,0.16566298,-0.072304815,-0.0887946849999999,0.12073281,0.0469943,-0.27441438,-4.02026185,-30.505340025,5.84732486,158.1994438,0.025069978615,-0.10287871705,-0.06489829034,-0.13018177994,0.046456077275,0.07734447625,0.003
03:29:27,0.15786112,-0.0698923599999999,-0.0789776399999999,0.1184476399999999,0.0465362,-0.27414272,-3.9839004,-30.499892600000003,5.85737884,156.5132772,0.02536782256,-0.1048849952,-0.06601314096,-0.13138258336,0.0458630125999999,0.07886798,0.003
03:29:27,0.15005926,-0.0674799049999999,-0.0691605949999999,0.1161624699999999,0.0460781,-0.27387106,-3.94753895,-30.494445175000003,5.867432819999999,154.8271106,0.025665666505,-0.10689127335,-0.06712799158,-0.13258338678,0.045269947925,0.08039148375,0.003
03:29:27,0.1422574,-0.06506745,-0.0593435499999999,0.1138772999999999,0.04562,-0.2735994,-3.9111775,-30.488997750000003,5.8774868,153.140944,0.02596351045,-0.1088975515,-0.0682428422,-0.1337841901999999,0.0446768832499999,0.0819149875,0.003
03:29:27,0.13445554,-0.0626549949999999,-0.0495265049999999,0.1115921299999999,0.0451619,-0.27332774,-3.87481605,-30.483550325000003,5.88754078,151.4547774,0.026261354395,-0.11090382965,-0.06935769282,-0.13498499362,0.0440838185749999,0.08343849125,0.003
03:29:27,0.12665368,-0.06024254,-0.0397094599999999,0.1093069599999999,0.0447038,-0.27305608,-3.8384546,-30.4781029,5.89759476,149.7686108,0.02655919834,-0.1129101077999999,-0.07047254344,-0.13618579704,0.0434907539,0.084961995,0.003
03:29:27,0.11885182,-0.0578300849999999,-0.0298924149999999,0.1070217899999999,0.0442457,-0.27278442,-3.80209315,-30.472655475,5.90764874,148.0824442,0.026857042285,-0.1149163859499999,-0.07158739406,-0.13738660046,0.0428976892249999,0.08648549875,0.003
03:29:27,0.11104996,-0.0554176299999999,-0.0200753699999999,0.1047366199999999,0.0437876,-0.27251276,-3.7657317,-30.46720805,5.917702719999999,146.39627760000002,0.02715488623,-0.1169226640999999,-0.07270224468,-0.13858740388,0.0423046245499999,0.0880090025,0.003
03:29:27,0.1032481,-0.0530051749999999,-0.0102583249999999,0.10245145,0.0433295,-0.2722411,-3.72937025,-30.461760625,5.9277567,144.710111,0.027452730175,-0.11892894225,-0.0738170953,-0.1397882073,0.041711559875,0.08953250625,0.003
03:29:27,0.09544624,-0.0505927199999999,-0.0004412799999999,0.10016628,0.0428714,-0.27196944,-3.6930088,-30.4563132,5.93781068,143.0239444,0.02775057412,-0.1209352203999999,-0.07493194592,-0.14098901072,0.0411184951999999,0.09105601,0.003
03:29:27,0.08764438,-0.0481802649999999,0.009375765,0.09788111,0.0424133,-0.27169778,-3.65664735,-30.450865775,5.94786466,141.3377778,0.028048418065,-0.12294149855,-0.07604679654,-0.1421898141399999,0.0405254305249999,0.09257951375,0.003
03:29:27,0.07984252,-0.0457678099999999,0.01919281,0.0955959399999999,0.0419552,-0.27142612,-3.6202859,-30.44541835,5.95791864,139.6516112,0.02834626201,-0.1249477766999999,-0.07716164716,-0.14339061756,0.03993236585,0.0941030175,0.003
03:29:27,0.07204066,-0.0433553549999999,0.029009855,0.0933107699999999,0.0414971,-0.27115446,-3.58392445,-30.439970925,5.967972619999999,137.9654446,0.028644105955,-0.12695405485,-0.07827649778,-0.14459142098,0.0393393011749999,0.09562652125,0.003
03:29:27,0.0642388,-0.0409428999999999,0.0388269,0.0910255999999999,0.041039,-0.2708828,-3.547563,-30.4345235,5.9780266,136.279278,0.0289419499,-0.1289603329999999,-0.0793913484,-0.1457922244,0.0387462364999999,0.097150025,0.003
03:29:27,0.05643694,-0.0385304449999999,0.048643945,0.0887404299999999,0.0405809,-0.27061114,-3.51120155,-30.429076075,5.98808058,134.5931114,0.029239793845,-0.13096661115,-0.08050619902,-0.1469930278199999,0.038153171825,0.09867352875,0.003
03:29:27,0.04863508,-0.0361179899999999,0.05846099,0.0864552599999999,0.0401228,-0.27033948,-3.4748401,-30.42362865,5.99813456,132.90694480000002,0.02953763779,-0.1329728893,-0.08162104964,-0.14819383124,0.0375601071499999,0.1001970325,0.003
03:29:27,0.04083322,-0.0337055349999999,0.068278035,0.0841700899999999,0.0396647,-0.27006782,-3.4384786499999995,-30.418181225,6.00818854,131.2207782,0.029835481735,-0.13497916745,-0.08273590026,-0.14939463466,0.0369670424749999,0.10172053625,0.003
03:29:27,0.03303136,-0.0312930799999999,0.07809508,0.0818849199999999,0.0392066,-0.26979616,-3.4021172,-30.4127338,6.01824252,129.5346116,0.03013332568,-0.1369854455999999,-0.08385075088,-0.15059543808,0.0363739778,0.10324404,0.003
03:29:27,0.0252295,-0.0288806249999999,0.087912125,0.07959975,0.0387485,-0.2695245,-3.36575575,-30.407286375,6.0282965,127.848445,0.030431169625,-0.13899172375,-0.0849656015,-0.1517962414999999,0.0357809131249999,0.10476754375,0.003
03:29:27,0.01742764,-0.02646817,0.09772917,0.07731458,0.0382904,-0.26925284,-3.3293943,-30.40183895,6.03835048,126.1622784,0.03072901357,-0.1409980019,-0.08608045212,-0.15299704492,0.0351878484499999,0.1062910475,0.003
03:29:27,0.00962578,-0.0240557149999999,0.107546215,0.0750294099999999,0.0378323,-0.26898118,-3.29303285,-30.396391525,6.04840446,124.4761118,0.031026857515,-0.14300428005,-0.08719530274,-0.15419784834,0.034594783775,0.10781455125,0.003
03:29:27,0.00182392,-0.0216432599999999,0.11736326,0.0727442399999999,0.0373742,-0.26870952,-3.2566714,-30.3909441,6.05845844,122.7899452,0.03132470146,-0.1450105582,-0.08831015336,-0.15539865176,0.0340017190999999,0.109338055,0.003
03:29:27,-0.0059779399999999,-0.0192308049999999,0.127180305,0.0704590699999999,0.0369161,-0.26843786,-3.22030995,-30.385496675,6.06851242,121.1037786,0.031622545405,-0.1470168363499999,-0.08942500398,-0.1565994551799999,0.0334086544249999,0.11086155875,0.003
03:29:27,-0.0137797999999999,-0.0168183499999999,0.13699735,0.0681739,0.036458,-0.2681662,-3.1839485,-30.380049250000003,6.0785664,119.417612,0.03192038935,-0.1490231145,-0.0905398546,-0.1578002586,0.03281558975,0.1123850625,0.003
03:29:27,-0.0215816599999999,-0.0144058949999999,0.146814395,0.0658887299999999,0.0359999,-0.26789454,-3.14758705,-30.374601825000003,6.08862038,117.7314454,0.032218233295,-0.1510293926499999,-0.09165470522,-0.15900106202,0.0322225250749999,0.11390856625,0.003
03:29:27,-0.0293835199999999,-0.0119934399999999,0.15663144,0.0636035599999999,0.0355418,-0.26762288,-3.1112256,-30.369154400000003,6.09867436,116.0452788,0.03251607724,-0.1530356708,-0.09276955584,-0.1602018654399999,0.0316294604,0.11543207,0.003
03:29:27,-0.0371853799999999,-0.009580985,0.166448485,0.0613183899999999,0.0350837,-0.26735122,-3.07486415,-30.363706975000003,6.10872834,114.3591122,0.032813921185,-0.15504194895,-0.09388440646,-0.16140266886,0.0310363957249999,0.11695557375,0.003
03:29:27,-0.0449872399999999,-0.0071685299999999,0.17626553,0.0590332199999999,0.0346256,-0.26707956,-3.0385027,-30.35825955,6.11878232,112.6729456,0.03311176513,-0.1570482271,-0.09499925708,-0.16260347228,0.0304433310499999,0.1184790775,0.003
03:29:27,-0.0527890999999999,-0.0047560749999999,0.186082575,0.0567480499999999,0.0341675,-0.2668079,-3.00214125,-30.352812125,6.1288363,110.986779,0.033409609075,-0.1590545052499999,-0.0961141077,-0.1638042757,0.0298502663749999,0.12000258125,0.003
03:29:27,-0.0605909599999999,-0.0023436199999999,0.19589962,0.0544628799999999,0.0337094,-0.26653624,-2.9657798,-30.3473647,6.13889028,109.3006124,0.03370745302,-0.1610607834,-0.09722895832,-0.16500507912,0.0292572016999999,0.121526085,0.003
03:29:27,-0.0683928199999999,6.88350000000032e-05,0.205716665,0.0521777099999999,0.0332513,-0.26626458,-2.92941835,-30.341917275,6.14894426,107.6144458,0.034005296965,-0.16306706155,-0.09834380894,-0.16620588254,0.0286641370249999,0.12304958875,0.003
03:29:27,-0.0761946799999999,0.00248129,0.21553371,0.0498925399999999,0.0327932,-0.26599292,-2.8930569,-30.33646985,6.15899824,105.9282792,0.03430314091,-0.1650733397,-0.09945865956,-0.16740668596,0.0280710723499999,0.1245730925,0.003
03:29:27,-0.0839965399999999,0.004893745,0.225350755,0.0476073699999999,0.0323351,-0.26572126,-2.85669545,-30.331022425,6.16905222,104.2421126,0.034600984855,-0.16707961785,-0.10057351018,-0.16860748938,0.0274780076749999,0.12609659625,0.003
03:29:27,-0.0917983999999999,0.0073062,0.2351677999999999,0.0453221999999999,0.031877,-0.2654496,-2.820334,-30.325575,6.1791062,102.555946,0.0348988288,-0.169085896,-0.1016883608,-0.1698082927999999,0.0268849429999999,0.1276201,0.003
03:29:27,-0.0996002599999999,0.009718655,0.244984845,0.0430370299999999,0.0314189,-0.26517794,-2.78397255,-30.320127575,6.18916018,100.8697794,0.035196672745,-0.17109217415,-0.10280321142,-0.17100909622,0.0262918783249999,0.12914360375,0.003
03:29:27,-0.1074021199999999,0.01213111,0.25480189,0.0407518599999999,0.0309608,-0.26490628,-2.7476111,-30.31468015,6.19921416,99.1836128,0.03549451669,-0.1730984522999999,-0.10391806204,-0.17220989964,0.0256988136499999,0.1306671075,0.003
03:29:27,-0.1152039799999999,0.014543565,0.264618935,0.0384666899999999,0.0305027,-0.26463462,-2.71124965,-30.309232725,6.20926814,97.4974462,0.035792360635,-0.17510473045,-0.10503291266,-0.17341070306,0.0251057489749999,0.13219061125,0.003
03:29:27,-0.1230058399999999,0.01695602,0.27443598,0.0361815199999999,0.0300446,-0.26436296,-2.6748882,-30.3037853,6.21932212,95.8112796,0.03609020458,-0.1771110086,-0.10614776328,-0.1746115064799999,0.0245126842999999,0.133714115,0.003
03:29:27,-0.1308076999999999,0.019368475,0.284253025,0.0338963499999999,0.0295865,-0.2640913,-2.63852675,-30.298337875,6.2293761,94.125113,0.036388048525,-0.17911728675,-0.1072626139,-0.1758123099,0.0239196196249999,0.13523761875,0.003
03:29:27,-0.1386095599999999,0.02178093,0.29407007,0.0316111799999999,0.0291284,-0.26381964,-2.6021653,-30.29289045,6.23943008,92.4389464,0.03668589247,-0.1811235648999999,-0.10837746452,-0.17701311332,0.0233265549499999,0.1367611225,0.003
03:29:27,-0.1464114199999999,0.024193385,0.303887115,0.0293260099999999,0.0286703,-0.26354798,-2.56580385,-30.287443025,6.24948406,90.7527798,0.036983736415,-0.18312984305,-0.10949231514,-0.1782139167399999,0.0227334902749999,0.13828462625,0.003
03:29:27,-0.1542132799999999,0.02660584,0.31370416,0.0270408399999999,0.0282122,-0.26327632,-2.5294424,-30.2819956,6.25953804,89.0666132,0.03728158036,-0.1851361212,-0.11060716576,-0.1794147201599999,0.0221404255999999,0.13980813,0.003
03:29:27,-0.1620151399999999,0.029018295,0.323521205,0.0247556699999999,0.0277541,-0.26300466,-2.49308095,-30.276548175,6.26959202,87.3804466,0.037579424305,-0.18714239935,-0.11172201638,-0.18061552358,0.0215473609249999,0.14133163375,0.003
03:29:27,-0.1698169999999999,0.03143075,0.33333825,0.0224704999999999,0.027296,-0.262733,-2.4567195,-30.27110075,6.279646,85.69428,0.03787726825,-0.1891486775,-0.112836867,-0.181816327,0.0209542962499999,0.1428551375,0.003
03:29:27,-0.1776188599999999,0.033843205,0.343155295,0.0201853299999999,0.0268379,-0.26246134,-2.42035805,-30.265653325,6.28969998,84.00811340000001,0.038175112195,-0.19115495565,-0.11395171762,-0.18301713042,0.0203612315749999,0.14437864125,0.003
03:29:27,-0.1854207199999999,0.0362556599999999,0.35297234,0.0179001599999999,0.0263798,-0.26218968,-2.3839966,-30.260205900000003,6.29975396,82.3219468,0.03847295614,-0.1931612338,-0.11506656824,-0.18421793384,0.0197681668999999,0.145902145,0.003
03:29:27,-0.1932225799999999,0.038668115,0.3627893849999999,0.0156149899999999,0.0259217,-0.26191802,-2.34763515,-30.254758475000003,6.30980794,80.6357802,0.038770800085,-0.1951675119499999,-0.11618141886,-0.18541873726,0.0191751022249999,0.14742564875,0.003
03:29:27,-0.2010244399999999,0.04108057,0.37260643,0.0133298199999999,0.0254636,-0.26164636,-2.3112737,-30.249311050000003,6.31986192,78.9496136,0.03906864403,-0.1971737901,-0.11729626948,-0.1866195406799999,0.0185820375499999,0.1489491525,0.003
03:29:27,-0.2088262999999999,0.043493025,0.382423475,0.0110446499999999,0.0250055,-0.2613747,-2.27491225,-30.243863625000003,6.3299159,77.26344700000001,0.039366487975,-0.19918006825,-0.1184111201,-0.1878203440999999,0.0179889728749999,0.15047265625,0.003
03:29:27,-0.2166281599999999,0.04590548,0.39224052,0.0087594799999999,0.0245474,-0.26110304,-2.2385508,-30.2384162,6.33996988,75.5772804,0.03966433192,-0.2011863464,-0.11952597072,-0.18902114752,0.0173959081999999,0.15199616,0.003
03:29:27,-0.2244300199999999,0.048317935,0.402057565,0.0064743099999999,0.0240893,-0.26083138,-2.20218935,-30.232968775,6.35002386,73.8911138,0.039962175865,-0.2031926245499999,-0.12064082134,-0.19022195094,0.0168028435249999,0.15351966375,0.003
03:29:27,-0.2322318799999999,0.05073039,0.41187461,0.0041891399999999,0.0236312,-0.26055972,-2.1658279,-30.22752135,6.36007784,72.2049472,0.04026001981,-0.2051989027,-0.12175567196,-0.19142275436,0.0162097788499999,0.1550431675,0.003
03:29:27,-0.2400337399999999,0.0531428449999999,0.421691655,0.0019039699999999,0.0231731,-0.26028806,-2.12946645,-30.222073925,6.37013182,70.51878060000001,0.040557863755,-0.20720518085,-0.12287052258,-0.19262355778,0.0156167141749999,0.15656667125,0.003
03:29:27,-0.2478355999999999,0.0555553,0.4315087,-0.0003811999999999,0.022715,-0.2600164,-2.093105,-30.2166265,6.3801858,68.832614,0.0408557077,-0.209211459,-0.1239853732,-0.1938243612,0.0150236494999999,0.158090175,0.003
03:29:27,-0.25563746,0.057967755,0.441325745,-0.00266637,0.0222569,-0.25974474,-2.05674355,-30.211179075,6.39023978,67.1464474,0.041153551645,-0.21121773715,-0.12510022382,-0.19502516462,0.0144305848249999,0.15961367875,0.003
03:29:27,-0.2634393199999999,0.06038021,0.4511427899999999,-0.00495154,0.0217988,-0.25947308,-2.0203821,-30.20573165,6.40029376,65.4602808,0.04145139559,-0.2132240153,-0.12621507444,-0.1962259680399999,0.0138375201499999,0.1611371825,0.003
03:29:27,-0.2712411799999999,0.062792665,0.460959835,-0.00723671,0.0213407,-0.25920142,-1.98402065,-30.200284225,6.41034774,63.774114200000014,0.041749239535,-0.21523029345,-0.12732992506,-0.1974267714599999,0.0132444554749999,0.16266068625,0.003
03:29:27,-0.2790430399999999,0.06520512,0.47077688,-0.00952188,0.0208826,-0.25892976,-1.9476592,-30.1948368,6.42040172,62.08794760000001,0.04204708348,-0.2172365715999999,-0.12844477568,-0.19862757488,0.0126513907999999,0.16418419,0.003
03:29:27,-0.2868448999999999,0.067617575,0.480593925,-0.01180705,0.0204245,-0.2586581,-1.91129775,-30.189389375,6.4304557,60.401781,0.042344927425,-0.21924284975,-0.1295596263,-0.1998283783,0.0120583261249999,0.16570769375,0.003
03:29:27,-0.2946467599999999,0.07003003,0.49041097,-0.01409222,0.0199664,-0.25838644,-1.8749363,-30.18394195,6.44050968,58.71561440000001,0.04264277137,-0.2212491279,-0.13067447692,-0.20102918172,0.0114652614499999,0.1672311975,0.003
03:29:27,-0.3024486199999999,0.072442485,0.500228015,-0.01637739,0.0195083,-0.25811478,-1.83857485,-30.178494525,6.45056366,57.029447800000014,0.042940615315,-0.22325540605,-0.13178932754,-0.2022299851399999,0.0108721967749999,0.16875470125,0.003
03:29:27,-0.3102504799999999,0.07485494,0.5100450599999999,-0.01866256,0.0190502,-0.25784312,-1.8022134,-30.1730471,6.46061764,55.34328120000001,0.04323845926,-0.2252616841999999,-0.13290417816,-0.20343078856,0.0102791320999999,0.170278205,0.003
03:29:27,-0.3180523399999999,0.077267395,0.5198621050000001,-0.0209477299999999,0.0185921,-0.25757146,-1.76585195,-30.167599675,6.47067162,53.6571146,0.043536303205,-0.22726796235,-0.13401902878,-0.2046315919799999,0.0096860674249999,0.17180170875,0.003
03:29:27,-0.3258541999999998,0.07967985,0.52967915,-0.0232329,0.018134,-0.2572998,-1.7294904999999998,-30.16215225,6.4807256,51.97094800000001,0.04383414715,-0.2292742405,-0.1351338794,-0.2058323953999999,0.0090930027499999,0.1733252125,0.003
03:29:27,-0.3336560599999999,0.082092305,0.5394961949999999,-0.02551807,0.0176759,-0.25702814,-1.69312905,-30.156704825,6.49077958,50.284781400000014,0.044131991095,-0.23128051865,-0.13624873002,-0.20703319882,0.0084999380749999,0.17484871625,0.003
03:29:27,-0.3414579199999998,0.08450476,0.54931324,-0.02780324,0.0172178,-0.25675648,-1.6567675999999998,-30.1512574,6.50083356,48.59861480000001,0.04442983504,-0.2332867967999999,-0.13736358064,-0.20823400224,0.0079068733999999,0.17637222,0.003
03:29:27,-0.3492597799999999,0.0869172149999999,0.559130285,-0.03008841,0.0167597,-0.25648482,-1.62040615,-30.145809975,6.51088754,46.9124482,0.044727678985,-0.23529307495,-0.13847843126,-0.20943480566,0.0073138087249999,0.17789572375,0.003
03:29:27,-0.3570616399999998,0.08932967,0.5689473300000001,-0.03237358,0.0163016,-0.25621316,-1.5840446999999998,-30.140362550000003,6.52094152,45.22628160000001,0.04502552293,-0.2372993531,-0.13959328188,-0.21063560908,0.0067207440499999,0.1794192275,0.003
03:29:27,-0.3648634999999999,0.091742125,0.578764375,-0.03465875,0.0158435,-0.2559415,-1.54768325,-30.134915125000003,6.5309955,43.540115000000014,0.045323366875,-0.2393056312499999,-0.1407081325,-0.2118364125,0.0061276793749999,0.18094273125,0.003
03:29:27,-0.3726653599999999,0.09415458,0.5885814199999999,-0.03694392,0.0153854,-0.25566984,-1.5113218000000002,-30.129467700000003,6.54104948,41.85394840000001,0.04562121082,-0.2413119094,-0.14182298312,-0.21303721592,0.0055346146999999,0.182466235,0.003
03:29:27,-0.3804672199999999,0.096567035,0.598398465,-0.03922909,0.0149272999999999,-0.25539818,-1.47496035,-30.124020275000003,6.55110346,40.1677818,0.045919054765,-0.24331818755,-0.14293783374,-0.2142380193399999,0.0049415500249999,0.18398973875,0.003
03:29:27,-0.3882690799999999,0.09897949,0.60821551,-0.04151426,0.0144692,-0.25512652,-1.4385989,-30.11857285,6.56115744,38.48161520000002,0.04621689871,-0.2453244657,-0.14405268436,-0.2154388227599999,0.0043484853499999,0.1855132425,0.003
03:29:27,-0.3960709399999998,0.101391945,0.6180325550000001,-0.04379943,0.0140110999999999,-0.25485486,-1.40223745,-30.113125425,6.57121142,36.795448600000014,0.046514742655,-0.2473307438499999,-0.14516753498,-0.21663962618,0.0037554206749999,0.18703674625,0.003
03:29:27,-0.4038727999999999,0.1038044,0.6278496,-0.0460846,0.013553,-0.2545832,-1.365876,-30.107678,6.5812654,35.10928200000001,0.0468125866,-0.249337022,-0.1462823856,-0.2178404296,0.0031623559999999,0.18856025,0.003
03:29:27,-0.4116746599999998,0.106216855,0.6376666449999999,-0.04836977,0.0130949,-0.25431154,-1.32951455,-30.102230575,6.59131938,33.4231154,0.047110430545,-0.25134330015,-0.14739723622,-0.21904123302,0.0025692913249999,0.19008375375,0.003
03:29:27,-0.4194765199999999,0.10862931,0.6474836900000001,-0.05065494,0.0126368,-0.25403988,-1.2931531,-30.09678315,6.60137336,31.736948799999997,0.04740827449,-0.2533495783,-0.14851208684,-0.2202420364399999,0.0019762266499999,0.1916072575,0.003
03:29:27,-0.4272783799999998,0.111041765,0.657300735,-0.05294011,0.0121787,-0.25376822,-1.2567916499999998,-30.091335725,6.61142734,30.05078220000001,0.047706118435,-0.25535585645,-0.14962693746,-0.22144283986,0.0013831619749999,0.19313076125,0.003
03:29:27,-0.4350802399999999,0.11345422,0.6671177800000001,-0.05522528,0.0117205999999999,-0.25349656,-1.2204302,-30.0858883,6.62148132,28.364615600000008,0.04800396238,-0.2573621346,-0.15074178808,-0.2226436432799999,0.0007900972999999,0.194654265,0.003
03:29:27,-0.4428820999999998,0.115866675,0.676934825,-0.05751045,0.0112625,-0.2532249,-1.1840687499999998,-30.080440875,6.6315353,26.678449,0.048301806325,-0.25936841275,-0.1518566387,-0.2238444466999999,0.0001970326249999,0.19617776875,0.003
03:29:27,-0.4506839599999999,0.11827913,0.6867518699999999,-0.05979562,0.0108043999999999,-0.2529532399999999,-1.1477073,-30.07499345,6.64158928,24.992282400000025,0.04859965027,-0.2613746909,-0.15297148932,-0.2250452501199999,-0.00039603205,0.1977012725,0.003
03:29:27,-0.4584858199999999,0.120691585,0.6965689150000001,-0.06208079,0.0103463,-0.25268158,-1.1113458500000002,-30.069546025,6.65164326,23.30611580000001,0.048897494215,-0.26338096905,-0.15408633994,-0.22624605354,-0.000989096725,0.19922477625,0.003
03:29:27,-0.4662876799999998,0.12310404,0.70638596,-0.06436596,0.0098882,-0.25240992,-1.0749844,-30.0640986,6.66169724,21.619949200000008,0.04919533816,-0.2653872472,-0.15520119056,-0.22744685696,-0.0015821614,0.20074828,0.003
03:29:27,-0.4740895399999999,0.125516495,0.7162030050000001,-0.06665113,0.0094301,-0.25213826,-1.0386229500000002,-30.058651175,6.67175122,19.9337826,0.049493182105,-0.26739352535,-0.15631604118,-0.22864766038,-0.002175226075,0.20227178375,0.003
03:29:27,-0.4818913999999998,0.12792895,0.72602005,-0.0689363,0.008972,-0.2518666,-1.0022615,-30.05320375,6.6818052,18.247615999999997,0.04979102605,-0.2693998035,-0.1574308918,-0.2298484637999999,-0.00276829075,0.2037952875,0.003
03:29:27,-0.4896932599999999,0.130341405,0.7358370949999999,-0.07122147,0.0085138999999999,-0.25159494,-0.96590005,-30.047756325,6.69185918,16.561449400000015,0.050088869995,-0.27140608165,-0.15854574242,-0.23104926722,-0.003361355425,0.20531879125,0.003
03:29:27,-0.4974951199999998,0.13275386,0.7456541400000001,-0.07350664,0.0080558,-0.25132328,-0.9295386,-30.0423089,6.70191316,14.875282800000008,0.05038671394,-0.2734123598,-0.15966059304,-0.2322500706399999,-0.0039544201,0.206842295,0.003
03:29:27,-0.5052969799999999,0.135166315,0.755471185,-0.07579181,0.0075976999999999,-0.25105162,-0.8931771500000001,-30.036861475,6.71196714,13.1891162,0.050684557885,-0.27541863795,-0.16077544366,-0.2334508740599999,-0.004547484775,0.20836579875,0.003
03:29:27,-0.5130988399999998,0.13757877,0.7652882299999999,-0.07807698,0.0071396,-0.25077996,-0.8568156999999998,-30.03141405,6.72202112,11.502949600000022,0.05098240183,-0.2774249161,-0.16189029428,-0.23465167748,-0.00514054945,0.2098893024999999,0.003
03:29:27,-0.5209006999999999,0.139991225,0.775105275,-0.08036215,0.0066815,-0.2505083,-0.82045425,-30.025966625,6.732075099999999,9.816783000000015,0.051280245775,-0.27943119425,-0.1630051449,-0.2358524809,-0.005733614125,0.21141280625,0.003
03:29:27,-0.5287025599999998,0.14240368,0.78492232,-0.08264732,0.0062233999999999,-0.25023664,-0.7840927999999998,-30.020519200000003,6.74212908,8.130616400000008,0.05157808972,-0.2814374724,-0.16411999552,-0.23705328432,-0.0063266788,0.21293631,0.003
03:29:27,-0.5365044199999999,0.144816135,0.7947393650000001,-0.08493249,0.0057653,-0.24996498,-0.74773135,-30.015071775000003,6.75218306,6.444449800000001,0.051875933665,-0.28344375055,-0.16523484614,-0.2382540877399999,-0.006919743475,0.21445981375,0.003
03:29:27,-0.5443062799999999,0.14722859,0.80455641,-0.08721766,0.0053071999999999,-0.24969332,-0.7113699000000002,-30.009624350000003,6.76223704,4.758283199999994,0.05217377761,-0.2854500287,-0.16634969676,-0.23945489116,-0.00751280815,0.2159833175,0.003
03:29:27,-0.5521081399999999,0.149641045,0.8143734549999999,-0.08950283,0.0048491,-0.24942166,-0.67500845,-30.004176925000003,6.77229102,3.0721166000000157,0.052471621555,-0.28745630685,-0.16746454738,-0.2406556945799999,-0.008105872825,0.21750682125,0.003
03:29:27,-0.5599099999999999,0.1520535,0.8241905,-0.091788,0.0043909999999999,-0.2491499999999999,-0.6386470000000002,-29.998729500000003,6.782344999999999,1.3859500000000082,0.0527694655,-0.289462585,-0.168579398,-0.2418564979999999,-0.0086989375,0.219030325,0.003
03:29:27,-0.5677118599999998,0.154465955,0.834007545,-0.09407317,0.0039329,-0.24887834,-0.60228555,-29.993282075,6.79239898,-0.3002165999999988,0.053067309445,-0.29146886315,-0.16969424862,-0.2430573014199999,-0.009292002175,0.22055382875,0.003
03:29:27,-0.5755137199999999,0.15687841,0.8438245900000001,-0.09635834,0.0034748,-0.24860668,-0.5659241000000002,-29.98783465,6.80245296,-1.9863831999999773,0.05336515339,-0.2934751413,-0.17080909924,-0.24425810484,-0.00988506685,0.2220773325,0.003
03:29:27,-0.5833155799999998,0.159290865,0.853641635,-0.09864351,0.0030166999999999,-0.24833502,-0.5295626499999999,-29.982387225,6.81250694,-3.672549799999985,0.053662997335,-0.29548141945,-0.17192394986,-0.24545890826,-0.010478131525,0.22360083625,0.003
03:29:27,-0.5911174399999999,0.1617033199999999,0.8634586800000001,-0.10092868,0.0025586,-0.2480633599999999,-0.4932012000000001,-29.9769398,6.82256092,-5.358716399999992,0.05396084128,-0.2974876976,-0.17303880048,-0.24665971168,-0.0110711962,0.22512434,0.003
03:29:27,-0.5989192999999998,0.164115775,0.8732757250000001,-0.10321385,0.0021004999999999,-0.2477917,-0.4568397499999999,-29.971492375,6.832614899999999,-7.044882999999999,0.054258685225,-0.29949397575,-0.1741536511,-0.2478605150999999,-0.011664260875,0.22664784375,0.003
03:29:27,-0.6067211599999999,0.16652823,0.88309277,-0.10549902,0.0016424,-0.24752004,-0.4204783000000001,-29.96604495,6.84266888,-8.731049600000006,0.05455652917,-0.3015002539,-0.17526850172,-0.24906131852,-0.01225732555,0.2281713475,0.003
03:29:27,-0.6145230199999999,0.1689406849999999,0.8929098150000001,-0.10778419,0.0011842999999999,-0.24724838,-0.3841168500000003,-29.960597525,6.85272286,-10.417216199999984,0.054854373115,-0.30350653205,-0.17638335234,-0.2502621219399999,-0.012850390225,0.22969485125,0.003
03:29:27,-0.6223248799999999,0.17135314,0.90272686,-0.11006936,0.0007262,-0.2469767199999999,-0.3477554,-29.9551501,6.86277684,-12.103382799999991,0.05515221706,-0.3055128102,-0.17749820296,-0.25146292536,-0.0134434549,0.231218355,0.003
03:29:27,-0.6301267399999999,0.173765595,0.9125439050000002,-0.11235453,0.0002681,-0.24670506,-0.3113939500000002,-29.949702675,6.87283082,-13.7895494,0.055450061005,-0.30751908835,-0.17861305358,-0.25266372878,-0.014036519575,0.23274185875,0.003
03:29:27,-0.6379285999999998,0.17617805,0.92236095,-0.1146397,-0.00019,-0.2464334,-0.2750325,-29.94425525,6.882884799999999,-15.475715999999975,0.05574790495,-0.3095253665,-0.1797279042,-0.2538645322,-0.01462958425,0.2342653625,0.003
03:29:27,-0.6457304599999999,0.178590505,0.932177995,-0.11692487,-0.0006480999999999,-0.24616174,-0.2386710499999997,-29.938807825,6.89293878,-17.161882599999984,0.056045748895,-0.31153164465,-0.18084275482,-0.25506533562,-0.015222648925,0.23578886625,0.003
03:29:27,-0.6535323199999998,0.18100296,0.94199504,-0.11921004,-0.0011062,-0.2458900799999999,-0.2023096000000004,-29.9333604,6.90299276,-18.84804919999999,0.05634359284,-0.3135379228,-0.18195760544,-0.2562661390399999,-0.0158157136,0.23731237,0.003
03:29:27,-0.6613341799999999,0.183415415,0.951812085,-0.12149521,-0.0015642999999999,-0.24561842,-0.1659481500000001,-29.927912975,6.91304674,-20.5342158,0.056641436785,-0.31554420095,-0.18307245606,-0.25746694246,-0.016408778275,0.23883587375,0.003
03:29:27,-0.6691360399999998,0.18582787,0.9616291300000002,-0.12378038,-0.0020224,-0.24534676,-0.1295866999999999,-29.92246555,6.92310072,-22.220382400000005,0.05693928073,-0.3175504791,-0.18418730668,-0.2586677458799999,-0.01700184295,0.2403593775,0.003
03:29:27,-0.6769378999999999,0.188240325,0.971446175,-0.12606555,-0.0024804999999999,-0.2450751,-0.0932252499999997,-29.917018125,6.9331547,-23.906548999999984,0.057237124675,-0.31955675725,-0.1853021573,-0.2598685493,-0.017594907625,0.24188288125,0.003
03:29:27,-0.6847397599999998,0.19065278,0.98126322,-0.12835072,-0.0029385999999999,-0.2448034399999999,-0.0568638000000003,-29.9115707,6.94320868,-25.59271559999999,0.05753496862,-0.3215630354,-0.18641700792,-0.26106935272,-0.0181879723,0.243406385,0.003
03:29:27,-0.6925416199999999,0.193065235,0.991080265,-0.13063589,-0.0033967,-0.2445317799999999,-0.0205023500000001,-29.906123275,6.95326266,-27.2788822,0.057832812565,-0.32356931355,-0.18753185854,-0.26227015614,-0.018781036975,0.24492988875,0.003
03:29:27,-0.7003434799999999,0.1954776899999999,1.00089731,-0.13292106,-0.0038547999999999,-0.24426012,0.0158591000000001,-29.90067585,6.96331664,-28.965048799999977,0.05813065651,-0.3255755917,-0.18864670916,-0.26347095956,-0.01937410165,0.2464533925,0.003
03:29:27,-0.7081453399999998,0.197890145,1.010714355,-0.1352062299999999,-0.0043129,-0.24398846,0.0522205499999994,-29.895228425000003,6.97337062,-30.651215399999984,0.058428500455,-0.32758186985,-0.18976155978,-0.2646717629799999,-0.019967166325,0.24797689625,0.003
03:29:27,-0.7159471999999999,0.2003026,1.0205314,-0.1374913999999999,-0.0047709999999999,-0.2437167999999999,0.0885819999999997,-29.889781000000003,6.9834246,-32.33738199999999,0.0587263444,-0.329588148,-0.1908764104,-0.2658725664,-0.020560231,0.2495004,0.003
03:29:27,-0.7237490599999998,0.2027150549999999,1.030348445,-0.13977657,-0.0052291,-0.24344514,0.1249434499999999,-29.884333575000003,6.99347858,-34.0235486,0.059024188345,-0.33159442615,-0.19199126102,-0.2670733698199999,-0.021153295675,0.25102390375,0.003
03:29:27,-0.7315509199999999,0.20512751,1.04016549,-0.14206174,-0.0056872,-0.24317348,0.1613049000000002,-29.878886150000003,7.00353256,-35.709715200000005,0.05932203229,-0.3336007043,-0.19310611164,-0.26827417324,-0.02174636035,0.2525474075,0.003
03:29:27,-0.7393527799999998,0.207539965,1.049982535,-0.14434691,-0.0061452999999999,-0.24290182,0.1976663499999995,-29.873438725,7.01358654,-37.395881799999984,0.059619876235,-0.33560698245,-0.19422096226,-0.26947497666,-0.022339425025,0.25407091125,0.003
03:29:27,-0.7471546399999999,0.20995242,1.05979958,-0.14663208,-0.0066034,-0.2426301599999999,0.2340277999999997,-29.8679913,7.02364052,-39.08204839999999,0.05991772018,-0.3376132606,-0.19533581288,-0.27067578008,-0.0229324897,0.255594415,0.003
03:29:27,-0.7549564999999998,0.212364875,1.069616625,-0.14891725,-0.0070614999999999,-0.2423584999999999,0.27038925,-29.862543875,7.0336945,-40.768215,0.060215564125,-0.33961953875,-0.1964506635,-0.2718765835,-0.023525554375,0.25711791875,0.003
03:29:27,-0.7627583599999999,0.21477733,1.07943367,-0.15120242,-0.0075196,-0.24208684,0.3067507000000002,-29.85709645,7.04374848,-42.45438159999998,0.06051340807,-0.3416258169,-0.19756551412,-0.27307738692,-0.02411861905,0.2586414225,0.003
03:29:27,-0.7705602199999998,0.217189785,1.089250715,-0.15348759,-0.0079776999999999,-0.24181518,0.3431121499999996,-29.851649025,7.05380246,-44.140548199999984,0.060811252015,-0.34363209505,-0.19868036474,-0.27427819034,-0.024711683725,0.26016492625,0.003
03:29:27,-0.7783620799999998,0.21960224,1.09906776,-0.15577276,-0.0084358,-0.2415435199999999,0.3794735999999998,-29.8462016,7.06385644,-45.82671479999999,0.06110909596,-0.3456383732,-0.19979521536,-0.2754789937599999,-0.0253047484,0.26168843,0.003
03:29:27,-0.7861639399999999,0.2220146949999999,1.108884805,-0.15805793,-0.0088939,-0.24127186,0.4158350500000001,-29.840754175,7.07391042,-47.5128814,0.061406939905,-0.34764465135,-0.20091006598,-0.27667979718,-0.025897813075,0.26321193375,0.003
03:29:27,-0.7939657999999999,0.22442715,1.11870185,-0.1603431,-0.009352,-0.2410002,0.4521964999999994,-29.83530675,7.0839644,-49.199048000000005,0.06170478385,-0.3496509295,-0.2020249166,-0.2778806005999999,-0.02649087775,0.2647354375,0.003
03:29:27,-0.8017676599999998,0.226839605,1.128518895,-0.16262827,-0.0098101,-0.24072854,0.4885579499999997,-29.829859325,7.09401838,-50.88521459999998,0.062002627795,-0.35165720765,-0.20313976722,-0.27908140402,-0.027083942425,0.26625894125,0.003
03:29:27,-0.8095695199999998,0.2292520599999999,1.1383359400000002,-0.16491344,-0.0102681999999999,-0.2404568799999999,0.5249193999999999,-29.8244119,7.10407236,-52.57138119999999,0.06230047174,-0.3536634858,-0.20425461784,-0.28028220744,-0.0276770071,0.267782445,0.003
03:29:27,-0.8173713799999999,0.231664515,1.148152985,-0.16719861,-0.0107263,-0.2401852199999999,0.5612808500000002,-29.818964475,7.11412634,-54.2575478,0.062598315685,-0.35566976395,-0.20536946846,-0.28148301086,-0.028270071775,0.26930594875,0.003
03:29:27,-0.8251732399999999,0.23407697,1.15797003,-0.16948378,-0.0111843999999999,-0.23991356,0.5976422999999995,-29.81351705,7.12418032,-55.943714399999976,0.06289615963,-0.3576760421,-0.20648431908,-0.28268381428,-0.02886313645,0.2708294525,0.003
03:29:27,-0.8329750999999997,0.236489425,1.167787075,-0.17176895,-0.0116425,-0.2396419,0.6340037499999998,-29.808069625,7.1342343,-57.62988099999998,0.063194003575,-0.35968232025,-0.2075991697,-0.2838846176999999,-0.029456201125,0.27235295625,0.003
03:29:27,-0.8407769599999998,0.23890188,1.17760412,-0.17405412,-0.0121006,-0.2393702399999999,0.6703652,-29.8026222,7.14428828,-59.31604759999999,0.06349184752,-0.3616885984,-0.20871402032,-0.28508542112,-0.0300492658,0.27387646,0.003
03:29:27,-0.8485788199999998,0.241314335,1.1874211650000002,-0.17633929,-0.0125586999999999,-0.23909858,0.7067266500000002,-29.797174775,7.15434226,-61.0022142,0.063789691465,-0.36369487655,-0.20982887094,-0.2862862245399999,-0.030642330475,0.27539996375,0.003
03:29:27,-0.8563806799999999,0.24372679,1.19723821,-0.1786244599999999,-0.0130168,-0.23882692,0.7430880999999996,-29.79172735,7.16439624,-62.6883808,0.06408753541,-0.3657011547,-0.21094372156,-0.28748702796,-0.03123539515,0.2769234675,0.003
03:29:27,-0.8641825399999999,0.246139245,1.207055255,-0.18090963,-0.0134749,-0.23855526,0.7794495499999998,-29.786279925,7.17445022,-64.37454739999998,0.064385379355,-0.36770743285,-0.21205857218,-0.28868783138,-0.031828459825,0.27844697125,0.003
03:29:27,-0.8719843999999998,0.2485517,1.2168723,-0.1831948,-0.0139329999999999,-0.2382835999999999,0.8158110000000001,-29.7808325,7.1845042,-66.06071399999999,0.0646832233,-0.369713711,-0.2131734228,-0.2898886348,-0.0324215245,0.279970475,0.003
03:29:27,-0.8797862599999998,0.250964155,1.226689345,-0.18547997,-0.0143910999999999,-0.2380119399999999,0.8521724499999994,-29.775385075000003,7.19455818,-67.7468806,0.064981067245,-0.37171998915,-0.21428827342,-0.29108943822,-0.033014589175,0.28149397875,0.003
03:29:27,-0.8875881199999999,0.25337661,1.23650639,-0.18776514,-0.0148492,-0.23774028,0.8885338999999997,-29.769937650000003,7.20461216,-69.43304719999998,0.06527891119,-0.3737262673,-0.21540312404,-0.2922902416399999,-0.03360765385,0.2830174825,0.003
03:29:27,-0.8953899799999999,0.255789065,1.246323435,-0.19005031,-0.0153073,-0.23746862,0.92489535,-29.764490225000003,7.21466614,-71.11921379999998,0.065576755135,-0.37573254545,-0.21651797466,-0.29349104506,-0.034200718525,0.28454098625,0.003
03:29:27,-0.9031918399999996,0.25820152,1.25614048,-0.19233548,-0.0157654,-0.2371969599999999,0.9612568,-29.759042800000003,7.22472012,-72.80538039999999,0.06587459908,-0.3777388236,-0.21763282528,-0.2946918484799999,-0.0347937832,0.28606449,0.003
03:29:27,-0.9109936999999998,0.260613975,1.265957525,-0.19462065,-0.0162234999999999,-0.2369253,0.9976182499999996,-29.753595375000003,7.2347741,-74.491547,0.066172443025,-0.37974510175,-0.2187476759,-0.2958926518999999,-0.035386847875,0.28758799375,0.003
03:29:27,-0.9187955599999998,0.26302643,1.27577457,-0.19690582,-0.0166815999999999,-0.23665364,1.0339796999999995,-29.74814795,7.24482808,-76.1777136,0.06647028697,-0.3817513799,-0.21986252652,-0.29709345532,-0.03597991255,0.2891114975,0.003
03:29:27,-0.92659742,0.265438885,1.285591615,-0.19919099,-0.0171397,-0.23638198,1.07034115,-29.742700525,7.25488206,-77.86388019999998,0.066768130915,-0.38375765805,-0.22097737714,-0.29829425874,-0.036572977225,0.29063500125,0.003
03:29:27,-0.9343992799999996,0.26785134,1.29540866,-0.20147616,-0.0175978,-0.2361103199999999,1.1067026000000002,-29.7372531,7.26493604,-79.55004679999999,0.06706597486,-0.3857639362,-0.22209222776,-0.29949506216,-0.0371660419,0.292158505,0.003
03:29:27,-0.9422011399999998,0.270263795,1.305225705,-0.20376133,-0.0180559,-0.2358386599999999,1.1430640499999996,-29.731805675,7.27499002,-81.2362134,0.067363818805,-0.38777021435,-0.22320707838,-0.3006958655799999,-0.037759106575,0.29368200875,0.003
03:29:27,-0.9500029999999998,0.27267625,1.31504275,-0.2060465,-0.0185139999999999,-0.2355669999999999,1.1794254999999998,-29.72635825,7.285044,-82.92237999999998,0.06766166275,-0.3897764925,-0.224321929,-0.301896669,-0.03835217125,0.2952055125,0.003
03:29:27,-0.95780486,0.275088705,1.324859795,-0.20833167,-0.0189721,-0.23529534,1.21578695,-29.720910825,7.295097979999999,-84.60854659999998,0.067959506695,-0.39178277065,-0.22543677962,-0.3030974724199999,-0.038945235925,0.29672901625,0.003
03:29:27,-0.96560672,0.27750116,1.33467684,-0.21061684,-0.0194302,-0.2350236799999999,1.2521483999999994,-29.7154634,7.30515196,-86.29471319999999,0.06825735064,-0.3937890488,-0.22655163024,-0.30429827584,-0.0395383006,0.29825252,0.003
03:29:27,-0.9734085799999996,0.279913615,1.344493885,-0.21290201,-0.0198883,-0.2347520199999999,1.2885098499999996,-29.710015975,7.31520594,-87.98087979999997,0.068555194585,-0.39579532695,-0.22766648086,-0.30549907926,-0.040131365275,0.29977602375,0.003
03:29:27,-0.9812104399999998,0.28232607,1.35431093,-0.21518718,-0.0203464,-0.23448036,1.3248713,-29.70456855,7.32525992,-89.6670464,0.06885303853,-0.3978016051,-0.22878133148,-0.30669988268,-0.04072442995,0.3012995275,0.003
03:29:27,-0.9890122999999998,0.284738525,1.3641279750000002,-0.21747235,-0.0208044999999999,-0.2342087,1.36123275,-29.699121125,7.3353139,-91.35321299999998,0.069150882475,-0.39980788325,-0.2298961821,-0.3079006861,-0.041317494625,0.30282303125,0.003
03:29:27,-0.99681416,0.28715098,1.37394502,-0.2197575199999999,-0.0212626,-0.2339370399999999,1.3975941999999997,-29.6936737,7.345367879999999,-93.03937959999996,0.06944872642,-0.4018141614,-0.23101103272,-0.30910148952,-0.0419105593,0.304346535,0.003
03:29:27,-1.0046160199999998,0.289563435,1.383762065,-0.22204269,-0.0217207,-0.2336653799999999,1.4339556499999997,-29.688226275,7.35542186,-94.7255462,0.069746570365,-0.40382043955,-0.23212588334,-0.31030229294,-0.042503623975,0.30587003875,0.003
03:29:27,-1.01241788,0.29197589,1.39357911,-0.22432786,-0.0221788,-0.2333937199999999,1.4703171,-29.68277885,7.36547584,-96.41171279999998,0.07004441431,-0.4058267177,-0.23324073396,-0.3115030963599999,-0.04309668865,0.3073935425,0.003
03:29:27,-1.02021974,0.294388345,1.403396155,-0.22661303,-0.0226368999999999,-0.23312206,1.5066785500000002,-29.677331425,7.37552982,-98.0978794,0.070342258255,-0.40783299585,-0.23435558458,-0.31270389978,-0.043689753325,0.30891704625,0.003
03:29:27,-1.0280216,0.2968008,1.4132132,-0.2288982,-0.0230949999999999,-0.2328503999999999,1.5430399999999995,-29.671884,7.3855838,-99.784046,0.0706401022,-0.409839274,-0.2354704352,-0.3139047031999999,-0.044282818,0.31044055,0.003
03:29:27,-1.03582346,0.299213255,1.423030245,-0.23118337,-0.0235531,-0.2325787399999999,1.5794014499999998,-29.666436575,7.395637779999999,-101.47021259999995,0.070937946145,-0.41184555215,-0.23658528582,-0.31510550662,-0.044875882675,0.31196405375,0.003
03:29:27,-1.04362532,0.30162571,1.43284729,-0.23346854,-0.0240112,-0.23230708,1.6157629,-29.66098915,7.40569176,-103.1563792,0.07123579009,-0.4138518303,-0.23770013644,-0.31630631004,-0.04546894735,0.3134875575,0.003
03:29:27,-1.05142718,0.304038165,1.442664335,-0.23575371,-0.0244693,-0.23203542,1.6521243499999994,-29.655541725000003,7.41574574,-104.84254579999998,0.071533634035,-0.41585810845,-0.23881498706,-0.31750711346,-0.046062012025,0.31501106125,0.003
03:29:27,-1.05922904,0.30645062,1.45248138,-0.23803888,-0.0249273999999999,-0.2317637599999999,1.6884857999999996,-29.650094300000003,7.42579972,-106.52871240000002,0.07183147798,-0.4178643866,-0.23992983768,-0.31870791688,-0.0466550767,0.316534565,0.003
03:29:27,-1.0670309,0.308863075,1.462298425,-0.24032405,-0.0253855,-0.2314920999999999,1.7248472499999998,-29.644646875000003,7.4358537,-108.214879,0.072129321925,-0.41987066475,-0.2410446883,-0.3199087202999999,-0.047248141375,0.31805806875,0.003
03:29:27,-1.0748327599999998,0.31127553,1.47211547,-0.24260922,-0.0258436,-0.2312204399999999,1.7612087,-29.639199450000003,7.445907679999999,-109.90104559999996,0.07242716587,-0.4218769429,-0.24215953892,-0.32110952372,-0.04784120605,0.3195815725,0.003
03:29:27,-1.08263462,0.313687985,1.481932515,-0.24489439,-0.0263017,-0.23094878,1.7975701499999994,-29.633752025,7.45596166,-111.5872122,0.072725009815,-0.42388322105,-0.24327438954,-0.3223103271399999,-0.048434270725,0.32110507625,0.003
03:29:27,-1.09043648,0.31610044,1.49174956,-0.24717956,-0.0267598,-0.2306771199999999,1.8339316,-29.6283046,7.46601564,-113.2733788,0.07302285376,-0.4258894992,-0.24438924016,-0.3235111305599999,-0.0490273354,0.32262858,0.003
03:29:27,-1.09823834,0.318512895,1.501566605,-0.24946473,-0.0272178999999999,-0.2304054599999999,1.87029305,-29.622857175,7.47606962,-114.95954539999995,0.073320697705,-0.42789577735,-0.24550409078,-0.32471193398,-0.049620400075,0.32415208375,0.003
03:29:27,-1.1060401999999998,0.32092535,1.51138365,-0.2517499,-0.027676,-0.2301338,1.9066545,-29.61740975,7.4861236,-116.645712,0.07361854165,-0.4299020555,-0.2466189414,-0.3259127374,-0.05021346475,0.3256755875,0.003
03:29:27,-1.11384206,0.323337805,1.521200695,-0.25403507,-0.0281341,-0.22986214,1.9430159499999995,-29.611962325,7.496177579999999,-118.33187859999998,0.073916385595,-0.43190833365,-0.24773379202,-0.32711354082,-0.050806529425,0.32719909125,0.003
03:29:27,-1.12164392,0.32575026,1.53101774,-0.25632024,-0.0285922,-0.2295904799999999,1.9793774,-29.6065149,7.50623156,-120.01804519999996,0.07421422954,-0.4339146118,-0.24884864264,-0.3283143442399999,-0.0513995941,0.328722595,0.003
03:29:27,-1.12944578,0.328162715,1.5408347850000002,-0.25860541,-0.0290503,-0.2293188199999999,2.01573885,-29.601067475,7.51628554,-121.7042118,0.074512073485,-0.43592088995,-0.24996349326,-0.32951514766,-0.051992658775,0.33024609875,0.003
03:29:27,-1.13724764,0.33057517,1.55065183,-0.26089058,-0.0295083999999999,-0.2290471599999999,2.0521002999999998,-29.59562005,7.52633952,-123.39037839999996,0.07480991743,-0.4379271681,-0.25107834388,-0.3307159510799999,-0.05258572345,0.3317696025,0.003
03:29:27,-1.1450494999999998,0.332987625,1.560468875,-0.26317575,-0.0299665,-0.2287755,2.08846175,-29.590172625,7.5363935,-125.076545,0.075107761375,-0.43993344625,-0.2521931945,-0.3319167545,-0.053178788125,0.33329310625,0.003
03:29:27,-1.15285136,0.33540008,1.57028592,-0.26546092,-0.0304246,-0.2285038399999999,2.1248232,-29.5847252,7.546447479999999,-126.7627116,0.07540560532,-0.4419397244,-0.25330804512,-0.33311755792,-0.0537718528,0.33481661,0.003
03:29:27,-1.16065322,0.337812535,1.580102965,-0.26774609,-0.0308827,-0.2282321799999999,2.16118465,-29.579277775,7.55650146,-128.44887819999997,0.075703449265,-0.44394600255,-0.25442289574,-0.33431836134,-0.054364917475,0.33634011375,0.003
03:29:27,-1.16845508,0.34022499,1.5899200100000002,-0.27003126,-0.0313407999999999,-0.22796052,2.1975460999999994,-29.57383035,7.56655544,-130.1350448,0.07600129321,-0.4459522807,-0.25553774636,-0.33551916476,-0.05495798215,0.3378636175,0.003
03:29:27,-1.1762569399999998,0.342637445,1.599737055,-0.27231643,-0.0317989,-0.22768886,2.23390755,-29.568382925,7.57660942,-131.82121139999998,0.076299137155,-0.44795855885,-0.25665259698,-0.3367199681799999,-0.055551046825,0.33938712125,0.003
03:29:27,-1.1840588,0.3450499,1.6095541,-0.2746016,-0.032257,-0.2274171999999999,2.270269,-29.5629355,7.5866634,-133.50737800000002,0.0765969811,-0.449964837,-0.2577674476,-0.3379207716,-0.0561441115,0.340910625,0.003
03:29:27,-1.19186066,0.347462355,1.619371145,-0.27688677,-0.0327151,-0.2271455399999999,2.30663045,-29.557488075,7.596717379999999,-135.1935446,0.076894825045,-0.45197111515,-0.25888229822,-0.3391215750199999,-0.056737176175,0.34243412875,0.003
03:29:27,-1.19966252,0.34987481,1.62918819,-0.27917194,-0.0331732,-0.2268738799999999,2.3429918999999995,-29.55204065,7.60677136,-136.87971119999995,0.07719266899,-0.4539773933,-0.25999714884,-0.34032237844,-0.05733024085,0.3439576325,0.003
03:29:27,-1.20746438,0.352287265,1.639005235,-0.28145711,-0.0336312999999999,-0.22660222,2.37935335,-29.546593225,7.61682534,-138.5658778,0.077490512935,-0.45598367145,-0.26111199946,-0.3415231818599999,-0.057923305525,0.34548113625,0.003
03:29:27,-1.2152662399999998,0.35469972,1.64882228,-0.28374228,-0.0340894,-0.22633056,2.4157148,-29.5411458,7.62687932,-140.2520444,0.07778835688,-0.4579899496,-0.26222685008,-0.34272398528,-0.0585163702,0.34700464,0.003
03:29:27,-1.2230681,0.357112175,1.658639325,-0.28602745,-0.0345475,-0.2260588999999999,2.4520762499999997,-29.535698375000003,7.6369333,-141.93821099999997,0.078086200825,-0.45999622775,-0.2633417007,-0.3439247887,-0.059109434875,0.34852814375,0.003
03:29:27,-1.23086996,0.35952463,1.66845637,-0.28831262,-0.0350056,-0.22578724,2.4884376999999995,-29.530250950000003,7.646987279999999,-143.6243776,0.07838404477,-0.4620025059,-0.26445655132,-0.34512559212,-0.05970249955,0.3500516475,0.003
03:29:27,-1.23867182,0.361937085,1.678273415,-0.29059779,-0.0354637,-0.22551558,2.52479915,-29.524803525000003,7.65704126,-145.31054419999998,0.078681888715,-0.46400878405,-0.26557140194,-0.34632639554,-0.060295564225,0.35157515125,0.003
03:29:27,-1.2464736799999998,0.36434954,1.68809046,-0.29288296,-0.0359218,-0.22524392,2.5611606,-29.519356100000003,7.66709524,-146.99671079999996,0.07897973266,-0.4660150622,-0.26668625256,-0.3475271989599999,-0.0608886289,0.353098655,0.003
03:29:27,-1.25427554,0.366761995,1.697907505,-0.29516813,-0.0363799,-0.2249722599999999,2.59752205,-29.513908675000003,7.67714922,-148.6828774,0.079277576605,-0.46802134035,-0.26780110318,-0.34872800238,-0.061481693575,0.35462215875,0.003
03:29:27,-1.2620774,0.36917445,1.70772455,-0.2974533,-0.036838,-0.2247005999999999,2.6338835,-29.50846125,7.6872032,-150.36904399999997,0.07957542055,-0.4700276185,-0.2689159538,-0.3499288057999999,-0.06207475825,0.3561456625,0.003
03:29:27,-1.26987926,0.371586905,1.717541595,-0.29973847,-0.0372961,-0.22442894,2.67024495,-29.503013825,7.69725718,-152.0552106,0.079873264495,-0.47203389665,-0.27003080442,-0.3511296092199999,-0.062667822925,0.35766916625,0.003
03:29:27,-1.2776811199999998,0.37399936,1.72735864,-0.30202364,-0.0377542,-0.22415728,2.7066064,-29.4975664,7.70731116,-153.7413772,0.08017110844,-0.4740401748,-0.27114565504,-0.35233041264,-0.0632608876,0.35919267,0.003
03:29:27,-1.2854829799999998,0.376411815,1.737175685,-0.30430881,-0.0382123,-0.2238856199999999,2.7429678499999994,-29.492118975,7.71736514,-155.42754379999997,0.080468952385,-0.47604645295,-0.27226050566,-0.35353121606,-0.063853952275,0.36071617375,0.003
03:29:27,-1.29328484,0.37882427,1.74699273,-0.30659398,-0.0386704,-0.2236139599999999,2.7793293,-29.48667155,7.72741912,-157.1137104,0.08076679633,-0.4780527311,-0.27337535628,-0.35473201948,-0.06444701695,0.3622396775,0.003
03:29:27,-1.3010867,0.381236725,1.756809775,-0.30887915,-0.0391285,-0.2233423,2.81569075,-29.481224125,7.7374731,-158.79987699999998,0.081064640275,-0.48005900925,-0.2744902069,-0.3559328228999999,-0.065040081625,0.36376318125,0.003
03:29:27,-1.30888856,0.38364918,1.7666268200000002,-0.31116432,-0.0395866,-0.22307064,2.8520521999999997,-29.4757767,7.74752708,-160.48604360000002,0.08136248422,-0.4820652874,-0.27560505752,-0.35713362632,-0.0656331463,0.365286685,0.003
03:29:27,-1.3166904199999998,0.386061635,1.776443865,-0.31344949,-0.0400446999999999,-0.2227989799999999,2.8884136499999995,-29.470329275,7.75758106,-162.1722102,0.081660328165,-0.48407156555,-0.27671990814,-0.3583344297399999,-0.066226210975,0.36681018875,0.003
03:29:27,-1.32449228,0.38847409,1.78626091,-0.31573466,-0.0405028,-0.2225273199999999,2.9247751,-29.46488185,7.76763504,-163.85837679999997,0.08195817211,-0.4860778437,-0.27783475876,-0.3595352331599999,-0.06681927565,0.3683336925,0.003
03:29:27,-1.33229414,0.390886545,1.796077955,-0.31801983,-0.0409609,-0.2222556599999999,2.96113655,-29.459434425,7.77768902,-165.5445434,0.082256016055,-0.48808412185,-0.27894960938,-0.36073603658,-0.067412340325,0.36985719625,0.003
03:29:28,-1.340096,0.393299,1.805895,-0.320305,-0.041419,-0.221984,2.997498,-29.453987,7.787743,-167.23071,0.08255386,-0.4900904,-0.28006446,-0.36193684,-0.068005405,0.3713807,0.003
03:29:28,-1.33090815,0.38736914,1.794068645,-0.31751379,-0.0397783649999999,-0.2191288649999999,2.99390547,-29.45151599,7.7949144,-167.27088454999998,0.0815616443,-0.4916618527499999,-0.27897712915,-0.3580090923,-0.066223087975,0.36756902075,0.003
03:29:28,-1.3217203,0.38143928,1.78224229,-0.31472258,-0.0381377299999999,-0.21627373,2.9903129400000004,-29.44904498,7.802085799999999,-167.3110591,0.0805694286,-0.4932333055,-0.2778897983,-0.3540813445999999,-0.06444077095,0.3637573415,0.003
03:29:28,-1.31253245,0.37550942,1.770415935,-0.31193137,-0.0364970949999999,-0.213418595,2.98672041,-29.446573970000003,7.8092572,-167.35123364999998,0.0795772129,-0.49480475825,-0.27680246745,-0.3501535969,-0.062658453925,0.35994566225,0.003
03:29:28,-1.3033446,0.36957956,1.75858958,-0.30914016,-0.03485646,-0.2105634599999999,2.98312788,-29.44410296,7.8164286,-167.3914082,0.0785849972,-0.4963762109999999,-0.2757151366,-0.3462258492,-0.0608761369,0.356133983,0.003
03:29:28,-1.29415675,0.3636497,1.746763225,-0.30634895,-0.033215825,-0.207708325,2.9795353500000004,-29.44163195,7.8236,-167.43158275,0.0775927815,-0.49794766375,-0.27462780575,-0.3422981014999999,-0.059093819875,0.35232230375,0.003
03:29:28,-1.2849689,0.35771984,1.73493687,-0.30355774,-0.0315751899999999,-0.20485319,2.97594282,-29.43916094,7.8307714,-167.47175729999998,0.0766005658,-0.4995191164999999,-0.2735404749,-0.3383703537999999,-0.05731150285,0.3485106245,0.003
03:29:28,-1.27578105,0.35178998,1.723110515,-0.30076653,-0.0299345549999999,-0.2019980549999999,2.97235029,-29.43668993,7.837942799999999,-167.51193185,0.0756083501,-0.50109056925,-0.27245314405,-0.3344426061,-0.055529185825,0.34469894525,0.003
03:29:28,-1.2665932,0.34586012,1.71128416,-0.29797532,-0.0282939199999999,-0.19914292,2.9687577600000004,-29.434218920000003,7.8451142,-167.5521064,0.0746161344,-0.502662022,-0.2713658132,-0.3305148584,-0.0537468688,0.340887266,0.003
03:29:28,-1.25740535,0.33993026,1.699457805,-0.29518411,-0.026653285,-0.196287785,2.96516523,-29.43174791,7.8522856,-167.59228095,0.0736239187,-0.50423347475,-0.27027848235,-0.3265871106999999,-0.051964551775,0.33707558675,0.003
03:29:28,-1.2482175,0.3340004,1.68763145,-0.2923929,-0.0250126499999999,-0.1934326499999999,2.9615727,-29.4292769,7.859457,-167.6324555,0.072631703,-0.5058049275,-0.2691911515,-0.322659363,-0.05018223475,0.3332639075,0.003
03:29:28,-1.23902965,0.32807054,1.675805095,-0.28960169,-0.0233720149999999,-0.1905775149999999,2.9579801700000004,-29.42680589,7.8666284,-167.67263004999998,0.0716394873,-0.50737638025,-0.26810382065,-0.3187316153,-0.048399917725,0.32945222825,0.003
03:29:28,-1.2298418,0.32214068,1.66397874,-0.28681048,-0.0217313799999999,-0.18772238,2.95438764,-29.42433488,7.8737998,-167.7128046,0.0706472716,-0.508947833,-0.2670164898,-0.3148038676,-0.0466176007,0.325640549,0.003
03:29:28,-1.22065395,0.31621082,1.652152385,-0.28401927,-0.0200907449999999,-0.1848672449999999,2.95079511,-29.421863870000003,7.8809712,-167.75297915,0.0696550559,-0.5105192857499999,-0.26592915895,-0.3108761198999999,-0.044835283675,0.32182886975,0.003
03:29:28,-1.2114661,0.31028096,1.64032603,-0.28122806,-0.0184501099999999,-0.18201211,2.9472025800000003,-29.41939286,7.8881426,-167.79315369999998,0.0686628402,-0.5120907385,-0.2648418281,-0.3069483722,-0.04305296665,0.3180171905,0.003
03:29:28,-1.20227825,0.3043511,1.628499675,-0.27843685,-0.0168094749999999,-0.179156975,2.94361005,-29.41692185,7.895314,-167.83332825,0.0676706245,-0.51366219125,-0.26375449725,-0.3030206245,-0.041270649625,0.31420551125,0.003
03:29:28,-1.1930904,0.29842124,1.61667332,-0.27564564,-0.0151688399999999,-0.17630184,2.94001752,-29.41445084,7.9024854,-167.87350279999998,0.0666784088,-0.5152336439999999,-0.2626671664,-0.2990928767999999,-0.0394883326,0.310393832,0.003
03:29:28,-1.18390255,0.29249138,1.604846965,-0.27285443,-0.0135282049999999,-0.1734467049999999,2.9364249900000003,-29.41197983,7.9096568,-167.91367735,0.0656861931,-0.51680509675,-0.26157983555,-0.2951651291,-0.037706015575,0.30658215275,0.003
03:29:28,-1.1747147,0.28656152,1.59302061,-0.27006322,-0.0118875699999999,-0.1705915699999999,2.93283246,-29.409508820000003,7.916828199999999,-167.9538519,0.0646939774,-0.5183765495,-0.2604925047,-0.2912373814,-0.03592369855,0.3027704735,0.003
03:29:28,-1.16552685,0.28063166,1.581194255,-0.26727201,-0.0102469349999999,-0.167736435,2.92923993,-29.40703781,7.9239996,-167.99402644999998,0.0637017617,-0.5199480022499999,-0.25940517385,-0.2873096336999999,-0.034141381525,0.29895879425,0.003
03:29:28,-1.156339,0.2747018,1.5693679,-0.2644808,-0.0086062999999999,-0.1648812999999999,2.9256474000000003,-29.4045668,7.931171,-168.034201,0.062709546,-0.521519455,-0.258317843,-0.2833818859999999,-0.0323590645,0.295147115,0.003
03:29:28,-1.14715115,0.26877194,1.557541545,-0.26168959,-0.0069656649999999,-0.162026165,2.92205487,-29.40209579,7.9383424,-168.07437554999998,0.0617173303,-0.52309090775,-0.25723051215,-0.2794541383,-0.030576747475,0.29133543575,0.003
03:29:28,-1.1379633,0.26284208,1.54571519,-0.25889838,-0.0053250299999999,-0.15917103,2.91846234,-29.39962478,7.9455138,-168.1145501,0.0607251146,-0.5246623605,-0.2561431813,-0.2755263905999999,-0.02879443045,0.2875237565,0.003
03:29:28,-1.12877545,0.25691222,1.533888835,-0.25610717,-0.0036843949999999,-0.1563158949999999,2.9148698100000003,-29.397153770000003,7.952685199999999,-168.15472465,0.0597328989,-0.52623381325,-0.25505585045,-0.2715986428999999,-0.027012113425,0.28371207725,0.003
03:29:28,-1.1195876,0.25098236,1.52206248,-0.25331596,-0.0020437599999999,-0.1534607599999999,2.91127728,-29.39468276,7.9598566,-168.19489919999998,0.0587406832,-0.527805266,-0.2539685196,-0.2676708952,-0.0252297964,0.279900398,0.003
03:29:28,-1.11039975,0.2450525,1.510236125,-0.25052475,-0.0004031249999999,-0.150605625,2.90768475,-29.39221175,7.967028,-168.23507375,0.0577484675,-0.52937671875,-0.25288118875,-0.2637431474999999,-0.023447479375,0.27608871875,0.003
03:29:28,-1.1012119,0.23912264,1.49840977,-0.24773354,0.00123751,-0.1477504899999999,2.9040922200000003,-29.38974074,7.9741994,-168.2752483,0.0567562518,-0.5309481715,-0.2517938579,-0.2598153997999999,-0.02166516235,0.2722770395,0.003
03:29:28,-1.09202405,0.23319278,1.486583415,-0.2449423299999999,0.002878145,-0.144895355,2.90049969,-29.38726973,7.9813708,-168.31542285,0.0557640361,-0.53251962425,-0.25070652705,-0.2558876521,-0.019882845325,0.26846536025,0.003
03:29:28,-1.0828362,0.22726292,1.47475706,-0.24215112,0.00451878,-0.14204022,2.89690716,-29.384798720000003,7.988542199999999,-168.3555974,0.0547718204,-0.534091077,-0.2496191962,-0.2519599044,-0.0181005283,0.264653681,0.003
03:29:28,-1.07364835,0.22133306,1.462930705,-0.23935991,0.006159415,-0.139185085,2.8933146300000003,-29.38232771,7.9957136,-168.39577194999998,0.0537796047,-0.53566252975,-0.24853186535,-0.2480321566999999,-0.016318211275,0.26084200175,0.003
03:29:28,-1.0644605,0.2154032,1.45110435,-0.2365687,0.00780005,-0.1363299499999999,2.8897221,-29.3798567,8.002885,-168.4359465,0.052787389,-0.5372339825,-0.2474445345,-0.2441044089999999,-0.01453589425,0.2570303225,0.003
03:29:28,-1.05527265,0.20947334,1.439277995,-0.23377749,0.009440685,-0.1334748149999999,2.88612957,-29.37738569,8.0100564,-168.47612105,0.0517951733,-0.53880543525,-0.24635720365,-0.2401766612999999,-0.012753577225,0.25321864325,0.003
03:29:28,-1.0460848,0.20354348,1.42745164,-0.23098628,0.01108132,-0.13061968,2.8825370400000003,-29.37491468,8.0172278,-168.51629559999998,0.0508029576,-0.5403768879999999,-0.2452698728,-0.2362489135999999,-0.0109712602,0.249406964,0.003
03:29:28,-1.03689695,0.19761362,1.415625285,-0.22819507,0.012721955,-0.127764545,2.87894451,-29.372443670000003,8.0243992,-168.55647015,0.0498107419,-0.54194834075,-0.24418254195,-0.2323211658999999,-0.009188943175,0.24559528475,0.003
03:29:28,-1.0277091,0.19168376,1.40379893,-0.22540386,0.01436259,-0.1249094099999999,2.87535198,-29.36997266,8.0315706,-168.59664469999998,0.0488185262,-0.5435197935,-0.2430952111,-0.2283934181999999,-0.00740662615,0.2417836055,0.003
03:29:28,-1.01852125,0.1857539,1.391972575,-0.22261265,0.016003225,-0.1220542749999999,2.8717594500000003,-29.36750165,8.038742,-168.63681925,0.0478263105,-0.5450912462499999,-0.24200788025,-0.2244656704999999,-0.005624309125,0.23797192625,0.003
03:29:28,-1.0093334,0.17982404,1.38014622,-0.21982144,0.01764386,-0.1191991399999999,2.86816692,-29.36503064,8.0459134,-168.6769938,0.0468340948,-0.546662699,-0.2409205494,-0.2205379227999999,-0.0038419921,0.234160247,0.003
03:29:28,-1.00014555,0.17389418,1.368319865,-0.21703023,0.019284495,-0.1163440049999999,2.86457439,-29.36255963,8.0530848,-168.71716834999998,0.0458418791,-0.54823415175,-0.23983321855,-0.2166101750999999,-0.002059675075,0.23034856775,0.003
03:29:28,-0.9909577,0.16796432,1.35649351,-0.21423902,0.02092513,-0.1134888699999999,2.8609818600000003,-29.360088620000003,8.0602562,-168.7573429,0.0448496634,-0.5498056044999999,-0.2387458877,-0.2126824273999999,-0.00027735805,0.2265368885,0.003
03:29:28,-0.98176985,0.16203446,1.344667155,-0.21144781,0.022565765,-0.1106337349999999,2.85738933,-29.35761761,8.0674276,-168.79751745,0.0438574477,-0.55137705725,-0.23765855685,-0.2087546796999999,0.0015049589749999,0.22272520925,0.003
03:29:28,-0.972582,0.1561045999999999,1.3328408,-0.2086566,0.0242064,-0.1077785999999999,2.8537968,-29.3551466,8.074599,-168.837692,0.042865232,-0.55294851,-0.236571226,-0.2048269319999999,0.0032872759999999,0.21891353,0.003
03:29:28,-0.96339415,0.15017474,1.321014445,-0.2058653899999999,0.025847035,-0.104923465,2.8502042700000003,-29.35267559,8.0817704,-168.87786655,0.0418730163,-0.5545199627499999,-0.23548389515,-0.2008991842999999,0.0050695930249999,0.21510185075,0.003
03:29:28,-0.9542063,0.14424488,1.30918809,-0.20307418,0.02748767,-0.1020683299999999,2.84661174,-29.35020458,8.0889418,-168.91804109999998,0.0408808006,-0.5560914155,-0.2343965643,-0.1969714365999999,0.0068519100499999,0.2112901715,0.003
03:29:28,-0.94501845,0.13831502,1.297361735,-0.20028297,0.029128305,-0.0992131949999999,2.84301921,-29.347733570000003,8.0961132,-168.95821565,0.0398885849,-0.55766286825,-0.23330923345,-0.1930436888999999,0.0086342270749999,0.20747849225,0.003
03:29:28,-0.9358306,0.13238516,1.28553538,-0.19749176,0.03076894,-0.09635806,2.8394266800000003,-29.34526256,8.1032846,-168.9983902,0.0388963692,-0.5592343209999999,-0.2322219026,-0.1891159411999999,0.0104165440999999,0.203666813,0.003
03:29:28,-0.92664275,0.1264553,1.273709025,-0.19470055,0.032409575,-0.0935029249999999,2.83583415,-29.34279155,8.110456,-169.03856475,0.0379041535,-0.56080577375,-0.23113457175,-0.1851881934999999,0.0121988611249999,0.19985513375,0.003
03:29:28,-0.9174549,0.1205254399999999,1.26188267,-0.19190934,0.03405021,-0.0906477899999999,2.83224162,-29.34032054,8.1176274,-169.0787393,0.0369119378,-0.5623772265,-0.2300472409,-0.1812604457999999,0.0139811781499999,0.1960434545,0.003
03:29:28,-0.90826705,0.1145955799999999,1.250056315,-0.18911813,0.035690845,-0.087792655,2.8286490900000003,-29.33784953,8.1247988,-169.11891384999998,0.0359197221,-0.5639486792499999,-0.22895991005,-0.1773326980999999,0.0157634951749999,0.19223177525,0.003
03:29:28,-0.8990792,0.10866572,1.23822996,-0.18632692,0.03733148,-0.0849375199999999,2.82505656,-29.335378520000003,8.1319702,-169.1590884,0.0349275064,-0.565520132,-0.2278725792,-0.1734049503999999,0.0175458121999999,0.188420096,0.003
03:29:28,-0.88989135,0.10273586,1.226403605,-0.18353571,0.038972115,-0.0820823849999999,2.82146403,-29.33290751,8.1391416,-169.19926295,0.0339352907,-0.56709158475,-0.22678524835,-0.1694772026999999,0.0193281292249999,0.18460841675,0.003
03:29:28,-0.8807035,0.096806,1.21457725,-0.1807445,0.04061275,-0.07922725,2.8178715000000003,-29.3304365,8.146313,-169.2394375,0.032943075,-0.5686630375,-0.2256979175,-0.1655494549999999,0.0211104462499999,0.1807967375,0.003
03:29:28,-0.87151565,0.09087614,1.202750895,-0.17795329,0.042253385,-0.0763721149999999,2.81427897,-29.32796549,8.1534844,-169.27961205,0.0319508593,-0.57023449025,-0.22461058665,-0.1616217072999999,0.0228927632749999,0.17698505825,0.003
03:29:28,-0.8623278,0.0849462799999999,1.19092454,-0.17516208,0.04389402,-0.0735169799999999,2.81068644,-29.32549448,8.1606558,-169.3197866,0.0309586436,-0.571805943,-0.2235232558,-0.1576939595999999,0.0246750803,0.173173379,0.003
03:29:28,-0.85313995,0.0790164199999999,1.179098185,-0.17237087,0.045534655,-0.070661845,2.8070939100000003,-29.323023470000003,8.1678272,-169.35996115,0.0299664279,-0.57337739575,-0.22243592495,-0.1537662118999999,0.0264573973249999,0.16936169975,0.003
03:29:28,-0.8439521,0.0730865599999999,1.16727183,-0.16957966,0.04717529,-0.0678067099999999,2.80350138,-29.32055246,8.1749986,-169.4001357,0.0289742122,-0.5749488484999999,-0.2213485941,-0.1498384641999999,0.0282397143499999,0.1655500205,0.003
03:29:28,-0.83476425,0.0671567,1.155445475,-0.16678845,0.048815925,-0.0649515749999999,2.79990885,-29.31808145,8.18217,-169.44031024999998,0.0279819965,-0.57652030125,-0.22026126325,-0.1459107164999999,0.0300220313749999,0.16173834125,0.003
03:29:28,-0.8255764,0.06122684,1.14361912,-0.16399724,0.05045656,-0.06209644,2.7963163200000003,-29.31561044,8.1893414,-169.4804848,0.0269897808,-0.578091754,-0.2191739324,-0.1419829687999999,0.0318043483999999,0.157926662,0.003
03:29:28,-0.81638855,0.0552969799999999,1.131792765,-0.16120603,0.052097195,-0.0592413049999999,2.79272379,-29.31313943,8.1965128,-169.52065935,0.0259975651,-0.5796632067499999,-0.21808660155,-0.1380552210999999,0.0335866654249999,0.15411498275,0.003
03:29:28,-0.8072007,0.0493671199999999,1.11996641,-0.15841482,0.05373783,-0.0563861699999999,2.78913126,-29.31066842,8.2036842,-169.5608339,0.0250053494,-0.5812346595,-0.2169992707,-0.1341274733999999,0.0353689824499999,0.1503033035,0.003
03:29:28,-0.79801285,0.0434372599999999,1.108140055,-0.15562361,0.055378465,-0.0535310349999999,2.7855387300000003,-29.30819741,8.2108556,-169.60100845,0.0240131337,-0.58280611225,-0.21591193985,-0.1301997256999999,0.0371512994749999,0.14649162425,0.003
03:29:28,-0.788825,0.0375073999999999,1.0963137,-0.1528324,0.0570191,-0.0506758999999999,2.7819462,-29.3057264,8.218027,-169.64118299999998,0.023020918,-0.5843775649999999,-0.214824609,-0.1262719779999999,0.0389336164999999,0.142679945,0.003
03:29:28,-0.77963715,0.03157754,1.084487345,-0.15004119,0.058659735,-0.0478207649999999,2.77835367,-29.30325539,8.2251984,-169.68135755,0.0220287023,-0.58594901775,-0.21373727815,-0.1223442302999999,0.040715933525,0.13886826575,0.003
03:29:28,-0.7704493,0.02564768,1.07266099,-0.14724998,0.06030037,-0.0449656299999999,2.7747611400000003,-29.30078438,8.2323698,-169.7215321,0.0210364866,-0.5875204705,-0.2126499473,-0.1184164825999999,0.0424982505499999,0.1350565865,0.003
03:29:28,-0.76126145,0.0197178199999999,1.060834635,-0.14445877,0.061941005,-0.042110495,2.77116861,-29.29831337,8.2395412,-169.76170665,0.0200442708999999,-0.58909192325,-0.21156261645,-0.1144887348999999,0.044280567575,0.13124490725,0.003
03:29:28,-0.7520736,0.0137879599999999,1.04900828,-0.14166756,0.06358164,-0.0392553599999999,2.76757608,-29.29584236,8.2467126,-169.8018812,0.0190520552,-0.590663376,-0.2104752856,-0.1105609871999999,0.0460628845999999,0.127433228,0.003
03:29:28,-0.74288575,0.0078580999999999,1.037181925,-0.13887635,0.065222275,-0.0364002249999999,2.7639835500000003,-29.29337135,8.253884,-169.84205575,0.0180598395,-0.59223482875,-0.20938795475,-0.1066332394999999,0.0478452016249999,0.12362154875,0.003
03:29:28,-0.7336979,0.0019282399999999,1.02535557,-0.13608514,0.06686291,-0.03354509,2.76039102,-29.29090034,8.2610554,-169.8822303,0.0170676238,-0.5938062815,-0.2083006239,-0.1027054917999999,0.0496275186499999,0.1198098695,0.003
03:29:28,-0.72451005,-0.00400162,1.013529215,-0.13329393,0.068503545,-0.0306899549999999,2.75679849,-29.28842933,8.2682268,-169.92240485,0.0160754080999999,-0.59537773425,-0.20721329305,-0.0987777440999999,0.0514098356749999,0.11599819025,0.003
03:29:28,-0.7153222,-0.0099314799999999,1.00170286,-0.13050272,0.07014418,-0.0278348199999999,2.7532059600000003,-29.28595832,8.2753982,-169.9625794,0.0150831924,-0.596949187,-0.2061259622,-0.0948499963999999,0.0531921526999999,0.112186511,0.003
03:29:28,-0.70613435,-0.01586134,0.989876505,-0.12771151,0.071784815,-0.024979685,2.74961343,-29.28348731,8.2825696,-170.00275395,0.0140909767,-0.59852063975,-0.20503863135,-0.0909222486999999,0.0549744697249999,0.10837483175,0.003
03:29:28,-0.6969465,-0.0217912,0.97805015,-0.1249202999999999,0.07342545,-0.0221245499999999,2.7460209000000004,-29.2810163,8.289741,-170.0429285,0.013098761,-0.6000920925,-0.2039513005,-0.0869945009999999,0.0567567867499999,0.1045631525,0.003
03:29:28,-0.68775865,-0.02772106,0.966223795,-0.12212909,0.075066085,-0.0192694149999999,2.7424283700000003,-29.27854529,8.2969124,-170.08310305,0.0121065452999999,-0.60166354525,-0.20286396965,-0.0830667532999999,0.058539103775,0.10075147325,0.003
03:29:28,-0.6785708,-0.03365092,0.95439744,-0.11933788,0.07670672,-0.0164142799999999,2.73883584,-29.27607428,8.3040838,-170.1232776,0.0111143296,-0.603234998,-0.2017766388,-0.0791390055999999,0.0603214207999999,0.096939794,0.003
03:29:28,-0.66938295,-0.03958078,0.942571085,-0.1165466699999999,0.078347355,-0.0135591449999999,2.7352433100000004,-29.27360327,8.3112552,-170.16345214999998,0.0101221139,-0.60480645075,-0.20068930795,-0.0752112578999999,0.0621037378249999,0.09312811475,0.003
03:29:28,-0.6601951,-0.0455106399999999,0.93074473,-0.11375546,0.07998799,-0.0107040099999999,2.7316507800000003,-29.27113226,8.3184266,-170.2036267,0.0091298982,-0.6063779035,-0.1996019771,-0.0712835101999999,0.06388605485,0.0893164355,0.003
03:29:28,-0.65100725,-0.0514405,0.918918375,-0.1109642499999999,0.081628625,-0.0078488749999999,2.72805825,-29.26866125,8.325598,-170.24380125,0.0081376824999999,-0.60794935625,-0.19851464625,-0.0673557624999999,0.0656683718749999,0.08550475625,0.003
03:29:28,-0.6418194,-0.05737036,0.90709202,-0.10817304,0.08326926,-0.0049937399999999,2.7244657200000004,-29.26619024,8.3327694,-170.2839758,0.0071454668,-0.6095208089999999,-0.1974273154,-0.0634280147999999,0.0674506888999999,0.081693077,0.003
03:29:28,-0.63263155,-0.06330022,0.895265665,-0.10538183,0.084909895,-0.0021386049999999,2.7208731900000003,-29.26371923,8.3399408,-170.32415035,0.0061532511,-0.61109226175,-0.19633998455,-0.0595002670999999,0.069233005925,0.07788139775,0.003
03:29:28,-0.6234437,-0.06923008,0.88343931,-0.10259062,0.08655053,0.00071653,2.71728066,-29.26124822,8.3471122,-170.3643249,0.0051610354,-0.6126637145,-0.1952526537,-0.0555725193999999,0.07101532295,0.0740697185,0.003
03:29:28,-0.61425585,-0.07515994,0.871612955,-0.09979941,0.088191165,0.003571665,2.7136881300000004,-29.25877721,8.3542836,-170.40449945,0.0041688196999999,-0.6142351672499999,-0.19416532285,-0.0516447716999999,0.0727976399749999,0.07025803925,0.003
03:29:28,-0.605068,-0.0810898,0.8597866000000001,-0.0970081999999999,0.0898318,0.0064268,2.7100956000000003,-29.2563062,8.361455,-170.444674,0.0031766039999999,-0.61580662,-0.193077992,-0.0477170239999999,0.0745799569999999,0.06644636,0.003
03:29:28,-0.59588015,-0.08701966,0.847960245,-0.09421699,0.091472435,0.009281935,2.70650307,-29.25383519,8.3686264,-170.48484855,0.0021843883,-0.61737807275,-0.19199066115,-0.0437892762999999,0.076362274025,0.06263468075,0.003
03:29:28,-0.5866923,-0.09294952,0.83613389,-0.0914257799999999,0.09311307,0.01213707,2.7029105400000004,-29.25136418,8.3757978,-170.5250231,0.0011921725999999,-0.6189495254999999,-0.1909033303,-0.0398615285999999,0.07814459105,0.0588230015,0.003
03:29:28,-0.5775044500000001,-0.09887938,0.824307535,-0.08863457,0.094753705,0.014992205,2.6993180100000003,-29.24889317,8.3829692,-170.56519765,0.0001999568999999,-0.62052097825,-0.18981599945,-0.0359337808999999,0.0799269080749999,0.05501132225,0.003
03:29:28,-0.5683166000000001,-0.10480924,0.81248118,-0.08584336,0.09639434,0.01784734,2.69572548,-29.24642216,8.3901406,-170.6053722,-0.0007922588,-0.622092431,-0.1887286686,-0.0320060331999999,0.0817092250999999,0.051199643,0.003
03:29:28,-0.5591287500000001,-0.1107391,0.8006548250000001,-0.0830521499999999,0.098034975,0.0207024749999999,2.6921329500000004,-29.24395115,8.397312,-170.64554675,-0.0017844744999999,-0.6236638837499999,-0.18764133775,-0.0280782854999999,0.083491542125,0.04738796375,0.003
03:29:28,-0.5499409000000001,-0.1166689599999999,0.7888284700000001,-0.08026094,0.09967561,0.02355761,2.6885404200000003,-29.24148014,8.4044834,-170.6857213,-0.0027766902,-0.6252353365,-0.1865540069,-0.0241505377999999,0.0852738591499999,0.0435762845,0.003
03:29:28,-0.5407530500000001,-0.12259882,0.7770021149999999,-0.0774697299999999,0.101316245,0.026412745,2.68494789,-29.23900913,8.4116548,-170.72589585,-0.0037689059,-0.62680678925,-0.18546667605,-0.0202227900999999,0.0870561761749999,0.03976460525,0.003
03:29:28,-0.5315652000000001,-0.12852868,0.76517576,-0.07467852,0.10295688,0.0292678799999999,2.6813553600000004,-29.23653812,8.4188262,-170.7660704,-0.0047611216,-0.6283782419999999,-0.1843793452,-0.0162950423999999,0.0888384932,0.035952926,0.003
03:29:28,-0.5223773500000001,-0.13445854,0.753349405,-0.0718873099999999,0.104597515,0.032123015,2.6777628300000003,-29.23406711,8.4259976,-170.80624495,-0.0057533372999999,-0.62994969475,-0.18329201435,-0.0123672946999999,0.090620810225,0.03214124675,0.003
03:29:28,-0.5131895000000001,-0.1403884,0.7415230500000001,-0.0690961,0.10623815,0.03497815,2.6741703,-29.2315961,8.433169,-170.8464195,-0.006745553,-0.6315211475,-0.1822046835,-0.0084395469999999,0.0924031272499999,0.0283295675,0.003
03:29:28,-0.5040016500000001,-0.1463182599999999,0.7296966950000001,-0.06630489,0.107878785,0.037833285,2.6705777700000004,-29.22912509,8.4403404,-170.88659405,-0.0077377687,-0.6330926002499999,-0.18111735265,-0.0045117992999999,0.0941854442749999,0.02451788825,0.003
