Timestamp,linacce_x,linacce_y,linacce_z,gyro_x,gyro_y,gyro_z,X-magnetometer,Y-magnetometer,Z-magnetometer,Yaw, worldXAccel,worldYAccel,worldZAccel,worldXgyro,worldYgyro,worldZgyro,Distance
08:24:38,0.565294,0.141549,-0.437052,0.035546,-0.095274,-0.037733,1.112083,-38.156109,35.165993,177.18861,-0.16329229,0.07989474,-0.34934795,-0.02897471,-0.099572256,-0.015897876,0.003
08:24:38,0.5627660849999999,0.14081639,-0.428874175,0.036813765,-0.097633745,-0.038057935,1.106917215,-38.158840515,35.16478019,175.4230698,-0.15713847755,0.07897158835,-0.35080929675,-0.0283187033,-0.1017825207199999,-0.0169228219199999,0.003
08:24:38,0.56023817,0.14008378,-0.42069635,0.03808153,-0.09999349,-0.03838287,1.10175143,-38.16157203,35.16356738,173.6575296,-0.1509846651,0.0780484367,-0.3522706435,-0.0276626966,-0.10399278544,-0.0179477678399999,0.003
08:24:38,0.5577102549999999,0.13935117,-0.4125185249999999,0.039349295,-0.102353235,-0.038707805,1.096585645,-38.164303545,35.16235457,171.8919894,-0.14483085265,0.07712528505,-0.35373199025,-0.0270066899,-0.1062030501599999,-0.01897271376,0.003
08:24:38,0.55518234,0.13861856,-0.4043407,0.04061706,-0.10471298,-0.03903274,1.09141986,-38.16703506,35.16114176,170.12644920000002,-0.1386770402,0.0762021334,-0.355193337,-0.0263506832,-0.10841331488,-0.0199976596799999,0.003
08:24:38,0.552654425,0.13788595,-0.396162875,0.041884825,-0.107072725,-0.039357675,1.086254075,-38.169766575,35.15992895,168.36090900000002,-0.13252322775,0.07527898175,-0.35665468375,-0.0256946765,-0.1106235796,-0.0210226055999999,0.003
08:24:38,0.55012651,0.13715334,-0.38798505,0.04315259,-0.10943247,-0.03968261,1.0810882899999998,-38.17249809,35.15871614,166.59536880000002,-0.1263694153,0.0743558301,-0.3581160305,-0.0250386698,-0.11283384432,-0.02204755152,0.003
08:24:38,0.547598595,0.13642073,-0.3798072249999999,0.044420355,-0.111792215,-0.040007545,1.075922505,-38.175229605,35.15750333,164.8298286,-0.12021560285,0.07343267845,-0.35957737725,-0.0243826631,-0.11504410904,-0.02307249744,0.003
08:24:38,0.5450706799999999,0.13568812,-0.3716294,0.04568812,-0.11415196,-0.04033248,1.07075672,-38.17796112,35.15629052,163.0642884,-0.1140617904,0.0725095268,-0.361038724,-0.0237266564,-0.11725437376,-0.0240974433599999,0.003
08:24:38,0.542542765,0.13495551,-0.363451575,0.046955885,-0.116511705,-0.040657415,1.065590935,-38.180692635,35.15507771,161.2987482,-0.10790797795,0.07158637515,-0.36250007075,-0.0230706497,-0.11946463848,-0.0251223892799999,0.003
08:24:38,0.5400148499999999,0.1342229,-0.35527375,0.04822365,-0.11887145,-0.04098235,1.06042515,-38.18342415,35.1538649,159.533208,-0.1017541655,0.0706632235,-0.3639614175,-0.022414643,-0.1216749032,-0.0261473351999999,0.003
08:24:38,0.537486935,0.13349029,-0.3470959249999999,0.049491415,-0.121231195,-0.041307285,1.055259365,-38.186155665,35.152652090000004,157.76766780000003,-0.09560035305,0.06974007185,-0.36542276425,-0.0217586363,-0.12388516792,-0.02717228112,0.003
08:24:38,0.53495902,0.13275768,-0.3389181,0.05075918,-0.12359094,-0.04163222,1.05009358,-38.18888718,35.15143928,156.00212760000002,-0.0894465406,0.0688169202,-0.366884111,-0.0211026296,-0.12609543264,-0.0281972270399999,0.003
08:24:38,0.532431105,0.13202507,-0.330740275,0.052026945,-0.125950685,-0.041957155,1.044927795,-38.191618695,35.15022647,154.23658740000002,-0.08329272815,0.06789376855,-0.36834545775,-0.0204466229,-0.12830569736,-0.0292221729599999,0.003
08:24:38,0.52990319,0.13129246,-0.32256245,0.0532947099999999,-0.12831043,-0.04228209,1.03976201,-38.19435021,35.14901366,152.47104720000002,-0.0771389157,0.0669706169,-0.3698068045,-0.0197906162,-0.13051596208,-0.03024711888,0.003
08:24:38,0.5273752749999999,0.13055985,-0.314384625,0.054562475,-0.130670175,-0.042607025,1.034596225,-38.197081725,35.14780085,150.705507,-0.07098510325,0.06604746525,-0.37126815125,-0.0191346095,-0.1327262268,-0.0312720648,0.003
08:24:38,0.52484736,0.12982724,-0.3062068,0.05583024,-0.13302992,-0.04293196,1.02943044,-38.19981324,35.14658804,148.9399668,-0.0648312908,0.0651243136,-0.372729498,-0.0184786028,-0.13493649152,-0.03229701072,0.003
08:24:38,0.5223194449999999,0.12909463,-0.298028975,0.057098005,-0.135389665,-0.043256895,1.024264655,-38.202544755,35.14537523,147.1744266,-0.0586774783499999,0.06420116195,-0.37419084475,-0.0178225961,-0.13714675624,-0.03332195664,0.003
08:24:38,0.51979153,0.12836202,-0.28985115,0.05836577,-0.13774941,-0.04358183,1.01909887,-38.20527627,35.14416242,145.4088864,-0.0525236658999999,0.0632780103,-0.3756521915,-0.0171665894,-0.13935702096,-0.0343469025599999,0.003
08:24:38,0.517263615,0.12762941,-0.281673325,0.059633535,-0.140109155,-0.043906765,1.013933085,-38.208007785,35.14294961,143.6433462,-0.04636985345,0.06235485865,-0.37711353825,-0.0165105827,-0.14156728568,-0.0353718484799999,0.003
08:24:38,0.5147356999999999,0.1268968,-0.2734955,0.0609013,-0.1424689,-0.0442317,1.0087673,-38.2107393,35.141736800000004,141.87780600000002,-0.0402160409999999,0.061431707,-0.378574885,-0.015854576,-0.1437775504,-0.0363967944,0.003
08:24:38,0.512207785,0.12616419,-0.265317675,0.0621690649999999,-0.144828645,-0.044556635,1.003601515,-38.213470815,35.14052399,140.11226580000002,-0.0340622285499999,0.06050855535,-0.38003623175,-0.0151985693,-0.14598781512,-0.0374217403199999,0.003
08:24:38,0.5096798699999999,0.12543158,-0.25713985,0.06343683,-0.14718839,-0.04488157,0.99843573,-38.21620233,35.13931118,138.3467256,-0.0279084161,0.0595854037,-0.3814975785,-0.0145425626,-0.14819807984,-0.03844668624,0.003
08:24:38,0.507151955,0.12469897,-0.248962025,0.064704595,-0.149548135,-0.045206505,0.993269945,-38.218933845,35.13809837,136.5811854,-0.0217546036499999,0.05866225205,-0.38295892525,-0.0138865559,-0.15040834456,-0.03947163216,0.003
08:24:38,0.5046240399999999,0.12396636,-0.2407842,0.06597236,-0.15190788,-0.04553144,0.98810416,-38.22166536,35.13688556,134.8156452,-0.0156007911999999,0.0577391004,-0.384420272,-0.0132305492,-0.1526186092799999,-0.04049657808,0.003
08:24:38,0.502096125,0.12323375,-0.232606375,0.067240125,-0.154267625,-0.045856375,0.982938375,-38.224396875,35.13567275,133.050105,-0.00944697875,0.05681594875,-0.38588161875,-0.0125745425,-0.154828874,-0.041521524,0.003
08:24:38,0.4995682099999999,0.12250114,-0.22442855,0.06850789,-0.15662737,-0.04618131,0.97777259,-38.22712839,35.13445994,131.2845648,-0.0032931662999999,0.0558927971,-0.3873429655,-0.0119185358,-0.15703913872,-0.0425464699199999,0.003
08:24:38,0.4970402949999999,0.12176853,-0.216250725,0.0697756549999999,-0.158987115,-0.046506245,0.972606805,-38.229859905,35.13324713,129.51902460000002,0.00286064615,0.05496964545,-0.38880431225,-0.0112625291,-0.15924940344,-0.04357141584,0.003
08:24:38,0.49451238,0.12103592,-0.2080729,0.07104342,-0.16134686,-0.04683118,0.96744102,-38.23259142,35.13203432,127.75348440000002,0.0090144585999999,0.0540464938,-0.390265659,-0.0106065223999999,-0.16145966816,-0.0445963617599999,0.003
08:24:38,0.491984465,0.12030331,-0.199895075,0.072311185,-0.163706605,-0.047156115,0.962275235,-38.235322935,35.13082151,125.98794420000002,0.01516827105,0.05312334215,-0.39172700575,-0.0099505156999999,-0.16366993288,-0.04562130768,0.003
08:24:38,0.48945655,0.1195707,-0.19171725,0.07357895,-0.16606635,-0.04748105,0.95710945,-38.23805445,35.1296087,124.222404,0.0213220835,0.0522001905,-0.3931883525,-0.009294509,-0.1658801976,-0.0466462536,0.003
08:24:38,0.4869286349999999,0.11883809,-0.1835394249999999,0.074846715,-0.168426095,-0.047805985,0.951943665,-38.240785965,35.12839589,122.4568638,0.02747589595,0.05127703885,-0.39464969925,-0.0086385023,-0.16809046232,-0.04767119952,0.003
08:24:38,0.4844007199999999,0.11810548,-0.1753616,0.07611448,-0.17078584,-0.04813092,0.94677788,-38.24351748,35.12718308,120.6913236,0.0336297084,0.0503538872,-0.396111046,-0.0079824956,-0.17030072704,-0.04869614544,0.003
08:24:38,0.4818728049999999,0.11737287,-0.167183775,0.0773822449999999,-0.173145585,-0.048455855,0.941612095,-38.246248995,35.12597027,118.9257834,0.03978352085,0.04943073555,-0.39757239275,-0.0073264889,-0.17251099176,-0.04972109136,0.003
08:24:38,0.4793448899999999,0.11664026,-0.15900595,0.0786500099999999,-0.17550533,-0.04878079,0.93644631,-38.24898051,35.12475746,117.1602432,0.0459373333,0.0485075839,-0.3990337395,-0.0066704822,-0.17472125648,-0.0507460372799999,0.003
08:24:38,0.476816975,0.11590765,-0.1508281249999999,0.079917775,-0.177865075,-0.049105725,0.931280525,-38.251712025,35.12354465,115.39470300000002,0.05209114575,0.04758443225,-0.40049508625,-0.0060144755,-0.1769315212,-0.0517709831999999,0.003
08:24:38,0.47428906,0.11517504,-0.1426503,0.08118554,-0.18022482,-0.04943066,0.92611474,-38.25444354,35.12233184,113.62916280000002,0.0582449582,0.0466612806,-0.401956433,-0.0053584688,-0.17914178592,-0.0527959291199999,0.003
08:24:38,0.471761145,0.11444243,-0.134472475,0.082453305,-0.182584565,-0.049755595,0.920948955,-38.257175055,35.12111903,111.8636226,0.06439877065,0.04573812895,-0.40341777975,-0.0047024620999999,-0.1813520506399999,-0.05382087504,0.003
08:24:38,0.4692332299999999,0.11370982,-0.12629465,0.08372107,-0.18494431,-0.05008053,0.91578317,-38.25990657,35.11990622,110.0980824,0.0705525831,0.0448149773,-0.4048791265,-0.0040464553999999,-0.18356231536,-0.05484582096,0.003
08:24:38,0.4667053149999999,0.11297721,-0.1181168249999999,0.084988835,-0.187304055,-0.050405465,0.910617385,-38.262638085,35.11869341,108.3325422,0.07670639555,0.04389182565,-0.40634047325,-0.0033904486999999,-0.18577258008,-0.05587076688,0.003
08:24:38,0.4641773999999999,0.1122446,-0.109939,0.0862565999999999,-0.1896638,-0.0507304,0.9054516,-38.2653696,35.1174806,106.56700200000002,0.082860208,0.042968674,-0.40780182,-0.002734442,-0.1879828448,-0.0568957128,0.003
08:24:38,0.4616494849999999,0.11151199,-0.101761175,0.0875243649999999,-0.192023545,-0.051055335,0.9002858149999999,-38.268101115,35.11626779,104.8014618,0.08901402045,0.04204552235,-0.40926316675,-0.0020784353,-0.19019310952,-0.05792065872,0.003
08:24:38,0.45912157,0.11077938,-0.09358335,0.08879213,-0.19438329,-0.05138027,0.89512003,-38.27083263,35.115054980000004,103.0359216,0.0951678329,0.0411223707,-0.4107245135,-0.0014224286,-0.19240337424,-0.0589456046399999,0.003
08:24:38,0.4565936549999999,0.11004677,-0.0854055249999999,0.090059895,-0.196743035,-0.051705205,0.889954245,-38.273564145,35.11384217,101.2703814,0.10132164535,0.04019921905,-0.41218586025,-0.0007664219,-0.19461363896,-0.0599705505599999,0.003
08:24:38,0.45406574,0.10931416,-0.0772277,0.09132766,-0.19910278,-0.05203014,0.88478846,-38.27629566,35.11262936,99.50484120000002,0.1074754578,0.0392760674,-0.413647207,-0.0001104151999999,-0.19682390368,-0.06099549648,0.003
08:24:38,0.4515378249999999,0.10858155,-0.069049875,0.092595425,-0.201462525,-0.052355075,0.879622675,-38.279027175,35.11141655,97.739301,0.11362927025,0.03835291575,-0.41510855375,0.0005455915,-0.1990341684,-0.0620204424,0.003
08:24:38,0.4490099099999999,0.10784894,-0.06087205,0.09386319,-0.20382227,-0.05268001,0.87445689,-38.28175869,35.11020374,95.9737608,0.1197830827,0.0374297641,-0.4165699005,0.0012015982,-0.20124443312,-0.06304538832,0.003
08:24:38,0.4464819949999999,0.10711633,-0.0526942249999999,0.0951309549999999,-0.206182015,-0.053004945,0.869291105,-38.284490205,35.10899093,94.2082206,0.12593689515,0.03650661245,-0.41803124725,0.0018576049,-0.20345469784,-0.06407033424,0.003
08:24:38,0.44395408,0.10638372,-0.0445164,0.09639872,-0.20854176,-0.05332988,0.86412532,-38.28722172,35.10777812,92.4426804,0.1320907076,0.0355834608,-0.419492594,0.0025136116,-0.20566496256,-0.0650952801599999,0.003
08:24:38,0.441426165,0.10565111,-0.036338575,0.097666485,-0.210901505,-0.053654815,0.858959535,-38.289953235,35.10656531,90.6771402,0.13824452005,0.03466030915,-0.42095394075,0.0031696183,-0.20787522728,-0.06612022608,0.003
08:24:38,0.4388982499999999,0.1049185,-0.02816075,0.09893425,-0.21326125,-0.05397975,0.8537937499999999,-38.29268475,35.1053525,88.9116,0.1443983325,0.0337371575,-0.4224152875,0.0038256249999999,-0.2100854919999999,-0.067145172,0.003
08:24:38,0.436370335,0.10418589,-0.0199829249999999,0.100202015,-0.215620995,-0.054304685,0.8486279649999999,-38.295416265,35.104139690000004,87.14605980000002,0.15055214495,0.03281400585,-0.42387663425,0.0044816317,-0.21229575672,-0.06817011792,0.003
08:24:38,0.4338424199999999,0.10345328,-0.0118051,0.10146978,-0.21798074,-0.05462962,0.84346218,-38.29814778,35.10292688,85.38051960000001,0.1567059574,0.0318908542,-0.425337981,0.0051376383999999,-0.21450602144,-0.0691950638399999,0.003
08:24:38,0.4313145049999999,0.10272067,-0.003627275,0.1027375449999999,-0.220340485,-0.054954555,0.838296395,-38.300879295,35.10171407,83.61497940000001,0.16285976985,0.03096770255,-0.42679932775,0.0057936451,-0.21671628616,-0.07022000976,0.003
08:24:38,0.4287865899999999,0.10198806,0.0045505499999999,0.1040053099999999,-0.22270023,-0.05527949,0.83313061,-38.30361081,35.10050126,81.8494392,0.1690135823,0.0300445509,-0.4282606745,0.0064496517999999,-0.21892655088,-0.07124495568,0.003
08:24:38,0.426258675,0.10125545,0.012728375,0.105273075,-0.225059975,-0.055604425,0.827964825,-38.306342325,35.09928845,80.08389900000002,0.17516739475,0.02912139925,-0.42972202125,0.0071056585,-0.2211368156,-0.0722699015999999,0.003
08:24:38,0.42373076,0.10052284,0.0209061999999999,0.10654084,-0.22741972,-0.05592936,0.82279904,-38.30907384,35.09807564,78.31835880000001,0.1813212072,0.0281982476,-0.431183368,0.0077616652,-0.22334708032,-0.07329484752,0.003
08:24:38,0.4212028449999999,0.09979023,0.0290840249999999,0.107808605,-0.229779465,-0.056254295,0.8176332550000001,-38.311805355,35.09686283,76.55281860000001,0.18747501965,0.02727509595,-0.43264471475,0.0084176719,-0.22555734504,-0.07431979344,0.003
08:24:38,0.41867493,0.09905762,0.0372618499999999,0.10907637,-0.23213921,-0.05657923,0.81246747,-38.31453687,35.09565002,74.7872784,0.1936288321,0.0263519443,-0.4341060615,0.0090736786,-0.22776760976,-0.07534473936,0.003
08:24:38,0.4161470149999999,0.09832501,0.045439675,0.1103441349999999,-0.234498955,-0.056904165,0.807301685,-38.317268385,35.09443721,73.02173820000002,0.19978264455,0.0254287926499999,-0.43556740825,0.0097296852999999,-0.22997787448,-0.0763696852799999,0.003
08:24:38,0.4136190999999999,0.0975924,0.0536174999999999,0.1116118999999999,-0.2368587,-0.0572291,0.8021359,-38.3199999,35.0932244,71.25619800000001,0.205936457,0.024505641,-0.437028755,0.010385692,-0.2321881392,-0.0773946312,0.003
08:24:38,0.4110911849999999,0.09685979,0.0617953249999999,0.1128796649999999,-0.239218445,-0.057554035,0.7969701149999999,-38.322731415,35.09201159,69.49065780000001,0.21209026945,0.02358248935,-0.43849010175,0.0110416986999999,-0.23439840392,-0.07841957712,0.003
08:24:38,0.40856327,0.09612718,0.06997315,0.11414743,-0.24157819,-0.05787897,0.79180433,-38.32546293,35.09079878,67.7251176,0.2182440819,0.0226593376999999,-0.4399514485,0.0116977054,-0.23660866864,-0.0794445230399999,0.003
08:24:38,0.406035355,0.09539457,0.078150975,0.115415195,-0.243937935,-0.058203905,0.786638545,-38.328194445,35.08958597,65.95957740000001,0.22439789435,0.02173618605,-0.44141279525,0.0123537120999999,-0.23881893336,-0.0804694689599999,0.003
08:24:38,0.4035074399999999,0.09466196,0.0863287999999999,0.11668296,-0.24629768,-0.05852884,0.78147276,-38.33092596,35.08837316,64.19403720000001,0.2305517068,0.0208130344,-0.4428741419999999,0.0130097188,-0.24102919808,-0.08149441488,0.003
08:24:38,0.400979525,0.09392935,0.0945066249999999,0.117950725,-0.248657425,-0.058853775,0.776306975,-38.333657475,35.08716035,62.42849700000001,0.23670551925,0.0198898827499999,-0.44433548875,0.0136657255,-0.2432394628,-0.0825193608,0.003
08:24:38,0.3984516099999999,0.09319674,0.1026844499999999,0.1192184899999999,-0.25101717,-0.05917871,0.77114119,-38.33638899,35.08594754,60.66295680000002,0.2428593317,0.0189667311,-0.4457968355,0.0143217322,-0.24544972752,-0.0835443067199999,0.003
08:24:38,0.3959236949999999,0.09246413,0.110862275,0.1204862549999999,-0.253376915,-0.059503645,0.765975405,-38.339120505,35.08473473,58.897416600000014,0.24901314415,0.01804357945,-0.44725818225,0.0149777389,-0.24765999224,-0.08456925264,0.003
08:24:38,0.39339578,0.09173152,0.1190400999999999,0.1217540199999999,-0.25573666,-0.05982858,0.76080962,-38.341852020000005,35.08352192,57.13187640000001,0.2551669566,0.0171204278,-0.448719529,0.0156337456,-0.24987025696,-0.08559419856,0.003
08:24:38,0.390867865,0.09099891,0.1272179249999999,0.123021785,-0.258096405,-0.060153515,0.755643835,-38.344583535,35.08230911,55.366336200000006,0.26132076905,0.0161972761499999,-0.45018087575,0.0162897523,-0.25208052168,-0.08661914448,0.003
08:24:38,0.38833995,0.0902663,0.13539575,0.12428955,-0.26045615,-0.06047845,0.75047805,-38.34731505,35.0810963,53.60079600000002,0.2674745815,0.0152741245,-0.4516422224999999,0.0169457589999999,-0.2542907864,-0.0876440903999999,0.003
08:24:38,0.3858120349999999,0.08953369,0.143573575,0.125557315,-0.262815895,-0.060803385,0.7453122649999999,-38.350046565,35.07988349,51.83525580000001,0.27362839395,0.01435097285,-0.45310356925,0.0176017657,-0.25650105112,-0.08866903632,0.003
08:24:38,0.38328412,0.08880108,0.1517513999999999,0.12682508,-0.26517564,-0.06112832,0.7401464799999999,-38.35277808,35.07867068,50.06971560000001,0.2797822064,0.0134278211999999,-0.454564916,0.0182577723999999,-0.25871131584,-0.08969398224,0.003
08:24:38,0.3807562049999999,0.08806847,0.1599292249999999,0.1280928449999999,-0.267535385,-0.061453255,0.734980695,-38.355509595,35.07745787,48.30417540000002,0.28593601885,0.01250466955,-0.45602626275,0.0189137791,-0.26092158056,-0.0907189281599999,0.003
08:24:38,0.3782282899999999,0.08733586,0.1681070499999999,0.12936061,-0.26989513,-0.06177819,0.72981491,-38.35824111,35.07624506,46.538635200000016,0.2920898313,0.0115815179,-0.4574876095,0.0195697858,-0.26313184528,-0.09174387408,0.003
08:24:38,0.375700375,0.0866032499999999,0.176284875,0.130628375,-0.272254875,-0.062103125,0.724649125,-38.360972625,35.07503225,44.77309500000001,0.29824364375,0.0106583662499999,-0.45894895625,0.0202257925,-0.26534211,-0.09276882,0.003
08:24:38,0.3731724599999999,0.08587064,0.1844626999999999,0.13189614,-0.27461462,-0.06242806,0.71948334,-38.36370414,35.07381944,43.00755480000001,0.3043974562,0.0097352146,-0.4604103029999999,0.0208817992,-0.26755237472,-0.09379376592,0.003
08:24:38,0.370644545,0.08513803,0.1926405249999999,0.133163905,-0.276974365,-0.062752995,0.714317555,-38.366435655,35.07260663,41.242014600000005,0.31055126865,0.00881206295,-0.46187164975,0.0215378059,-0.26976263944,-0.0948187118399999,0.003
08:24:38,0.3681166299999999,0.08440542,0.20081835,0.13443167,-0.27933411,-0.06307793,0.7091517700000001,-38.36916717,35.07139382,39.4764744,0.3167050811,0.0078889112999999,-0.4633329965,0.0221938126,-0.27197290416,-0.09584365776,0.003
08:24:38,0.365588715,0.08367281,0.208996175,0.135699435,-0.281693855,-0.063402865,0.703985985,-38.371898685,35.07018101,37.7109342,0.32285889355,0.00696575965,-0.46479434325,0.0228498192999999,-0.27418316888,-0.09686860368,0.003
08:24:38,0.3630607999999999,0.0829402,0.2171739999999999,0.1369671999999999,-0.2840536,-0.0637278,0.6988202,-38.3746302,35.0689682,35.94539400000002,0.329012706,0.0060426079999999,-0.46625569,0.023505826,-0.2763934336,-0.0978935495999999,0.003
08:24:38,0.3605328849999999,0.08220759,0.2253518249999999,0.138234965,-0.286413345,-0.064052735,0.693654415,-38.377361715,35.06775539,34.17985380000002,0.33516651845,0.0051194563499999,-0.46771703675,0.0241618327,-0.27860369832,-0.09891849552,0.003
08:24:38,0.35800497,0.08147498,0.2335296499999999,0.13950273,-0.28877309,-0.06437767,0.6884886299999999,-38.38009323,35.066542580000004,32.414313600000014,0.3413203309,0.0041963047,-0.4691783834999999,0.0248178394,-0.28081396304,-0.09994344144,0.003
08:24:38,0.3554770549999999,0.08074237,0.241707475,0.140770495,-0.291132835,-0.064702605,0.683322845,-38.382824745,35.06532977,30.64877340000001,0.34747414335,0.0032731530499999,-0.47063973025,0.0254738461,-0.28302422776,-0.10096838736,0.003
08:24:38,0.35294914,0.08000976,0.2498852999999999,0.14203826,-0.29349258,-0.06502754,0.67815706,-38.38555626,35.06411696,28.883233200000006,0.3536279558,0.0023500013999999,-0.472101077,0.0261298528,-0.28523449248,-0.1019933332799999,0.003
08:24:38,0.3504212249999999,0.07927715,0.2580631249999999,0.143306025,-0.295852325,-0.065352475,0.672991275,-38.388287775,35.06290415,27.117693000000003,0.3597817682500001,0.00142684975,-0.47356242375,0.0267858595,-0.2874447572,-0.1030182792,0.003
08:24:38,0.3478933099999999,0.07854454,0.26624095,0.1445737899999999,-0.29821207,-0.06567741,0.66782549,-38.39101929,35.06169134,25.3521528,0.3659355807000001,0.0005036980999999,-0.4750237705,0.0274418661999999,-0.28965502192,-0.10404322512,0.003
08:24:38,0.3453653949999999,0.07781193,0.274418775,0.1458415549999999,-0.300571815,-0.066002345,0.662659705,-38.393750805,35.06047853,23.586612600000024,0.37208939315,-0.00041945355,-0.47648511725,0.0280978729,-0.29186528664,-0.1050681710399999,0.003
08:24:38,0.34283748,0.07707932,0.2825966,0.14710932,-0.30293156,-0.06632728,0.6574939200000001,-38.39648232,35.05926572,21.82107240000002,0.3782432056,-0.0013426051999999,-0.4779464639999999,0.0287538796,-0.29407555136,-0.10609311696,0.003
08:24:38,0.340309565,0.07634671,0.2907744249999999,0.148377085,-0.305291305,-0.066652215,0.6523281350000001,-38.399213835000005,35.05805291,20.055532200000016,0.38439701805,-0.00226575685,-0.47940781075,0.0294098863,-0.29628581608,-0.10711806288,0.003
08:24:38,0.3377816499999999,0.0756141,0.2989522499999999,0.14964485,-0.30765105,-0.06697715,0.64716235,-38.40194535,35.0568401,18.28999200000001,0.3905508305,-0.0031889085,-0.4808691575,0.030065893,-0.2984960808,-0.1081430088,0.003
08:24:38,0.335253735,0.07488149,0.307130075,0.150912615,-0.310010795,-0.067302085,0.641996565,-38.404676865,35.055627290000004,16.52445180000001,0.3967046429500001,-0.0041120601499999,-0.48233050425,0.0307218997,-0.30070634552,-0.1091679547199999,0.003
08:24:38,0.3327258199999999,0.07414888,0.3153079,0.15218038,-0.31237054,-0.06762702,0.63683078,-38.40740838,35.05441448,14.758911600000005,0.4028584554000001,-0.0050352118,-0.483791851,0.0313779064,-0.30291661024,-0.11019290064,0.003
08:24:38,0.3301979049999999,0.07341627,0.3234857249999999,0.1534481449999999,-0.314730285,-0.067951955,0.631664995,-38.410139895,35.05320167,12.9933714,0.40901226785,-0.00595836345,-0.48525319775,0.0320339131,-0.30512687496,-0.11121784656,0.003
08:24:38,0.3276699899999999,0.07268366,0.33166355,0.1547159099999999,-0.31709003,-0.06827689,0.62649921,-38.41287141,35.05198886,11.227831199999995,0.4151660803,-0.0068815150999999,-0.4867145444999999,0.0326899198,-0.30733713968,-0.1122427924799999,0.003
08:24:38,0.325142075,0.07195105,0.339841375,0.155983675,-0.319449775,-0.068601825,0.621333425,-38.415602925,35.05077605,9.462291000000022,0.42131989275,-0.00780466675,-0.48817589125,0.0333459265,-0.3095474044,-0.1132677383999999,0.003
08:24:38,0.32261416,0.07121844,0.3480192,0.15725144,-0.32180952,-0.06892676,0.61616764,-38.41833444,35.04956324,7.696750800000018,0.4274737052,-0.0087278184,-0.489637238,0.0340019332,-0.31175766912,-0.11429268432,0.003
08:24:38,0.3200862449999999,0.07048583,0.3561970249999999,0.158519205,-0.324169265,-0.069251695,0.611001855,-38.421065955,35.04835043,5.931210600000014,0.43362751765,-0.0096509700499999,-0.49109858475,0.0346579399,-0.31396793384,-0.11531763024,0.003
08:24:38,0.31755833,0.06975322,0.3643748499999999,0.15978697,-0.32652901,-0.06957663,0.6058360700000001,-38.42379747,35.04713762,4.16567040000001,0.4397813301000001,-0.0105741217,-0.4925599315,0.0353139466,-0.31617819856,-0.1163425761599999,0.003
08:24:38,0.3150304149999999,0.06902061,0.372552675,0.1610547349999999,-0.328888755,-0.069901565,0.600670285,-38.426528985,35.04592481,2.4001302000000067,0.4459351425500001,-0.01149727335,-0.49402127825,0.0359699532999999,-0.31838846328,-0.11736752208,0.003
08:24:38,0.3125024999999999,0.068288,0.3807304999999999,0.1623224999999999,-0.3312485,-0.0702265,0.5955045,-38.4292605,35.044712000000004,0.6345900000000029,0.452088955,-0.0124204249999999,-0.4954826249999999,0.03662596,-0.320598728,-0.118392468,0.003
08:24:38,0.3099745849999999,0.06755539,0.3889083249999999,0.1635902649999999,-0.333608245,-0.070551435,0.590338715,-38.431992015,35.04349919,-1.130950200000001,0.45824276745,-0.01334357665,-0.49694397175,0.0372819667,-0.32280899272,-0.1194174139199999,0.003
08:24:38,0.30744667,0.06682278,0.39708615,0.16485803,-0.33596799,-0.07087637,0.58517293,-38.43472353,35.04228638,-2.8964903999999763,0.4643965799,-0.0142667283,-0.4984053185,0.0379379734,-0.32501925744,-0.1204423598399999,0.003
08:24:38,0.304918755,0.06609017,0.405263975,0.166125795,-0.338327735,-0.0712013049999999,0.5800071450000001,-38.437455045,35.04107357,-4.66203059999998,0.47055039235,-0.0151898799499999,-0.49986666525,0.0385939800999999,-0.32722952216,-0.12146730576,0.003
08:24:38,0.30239084,0.06535756,0.4134417999999999,0.16739356,-0.34068748,-0.07152624,0.57484136,-38.44018656,35.03986076,-6.427570799999984,0.4767042048000001,-0.0161130316,-0.501328012,0.0392499868,-0.32943978688,-0.12249225168,0.003
08:24:38,0.2998629249999999,0.06462495,0.4216196249999999,0.1686613249999999,-0.343047225,-0.071851175,0.569675575,-38.442918075,35.03864795,-8.193110999999988,0.4828580172500001,-0.01703618325,-0.50278935875,0.0399059935,-0.3316500516,-0.1235171975999999,0.003
08:24:38,0.2973350099999999,0.06389234,0.4297974499999999,0.1699290899999999,-0.34540697,-0.07217611,0.56450979,-38.44564959,35.03743514,-9.958651199999991,0.4890118297,-0.0179593349,-0.5042507055,0.0405620002,-0.33386031632,-0.12454214352,0.003
08:24:38,0.2948070949999999,0.06315973,0.437975275,0.1711968549999999,-0.347766715,-0.072501045,0.559344005,-38.448381105,35.03622233,-11.724191399999995,0.49516564215,-0.01888248655,-0.50571205225,0.0412180069,-0.33607058104,-0.12556708944,0.003
08:24:38,0.2922791799999999,0.06242712,0.4461530999999999,0.1724646199999999,-0.35012646,-0.07282598,0.55417822,-38.45111262,35.03500952,-13.4897316,0.5013194546,-0.0198056382,-0.507173399,0.0418740135999999,-0.33828084576,-0.12659203536,0.003
08:24:38,0.289751265,0.0616945099999999,0.4543309249999999,0.173732385,-0.352486205,-0.073150915,0.5490124350000001,-38.453844135,35.03379671,-15.255271800000004,0.5074732670500001,-0.02072878985,-0.50863474575,0.0425300203,-0.34049111048,-0.1276169812799999,0.003
08:24:38,0.28722335,0.0609619,0.46250875,0.17500015,-0.3548459500000001,-0.07347585,0.54384665,-38.456575650000005,35.0325839,-17.020811999999978,0.5136270795000001,-0.0216519415,-0.5100960925,0.043186027,-0.3427013752,-0.1286419272,0.003
08:24:38,0.284695435,0.06022929,0.470686575,0.176267915,-0.357205695,-0.073800785,0.538680865,-38.459307165,35.03137109,-18.786352199999985,0.5197808919500001,-0.02257509315,-0.51155743925,0.0438420337,-0.34491163992,-0.12966687312,0.003
08:24:38,0.2821675199999999,0.0594966799999999,0.4788643999999999,0.1775356799999999,-0.35956544,-0.07412572,0.53351508,-38.46203868,35.03015828,-20.551892399999986,0.5259347044,-0.0234982448,-0.513018786,0.0444980404,-0.34712190464,-0.13069181904,0.003
08:24:38,0.2796396049999999,0.05876407,0.4870422249999999,0.1788034449999999,-0.361925185,-0.074450655,0.528349295,-38.464770195,35.028945470000004,-22.31743259999999,0.53208851685,-0.02442139645,-0.5144801327499999,0.0451540471,-0.34933216936,-0.13171676496,0.003
08:24:38,0.2771116899999999,0.0580314599999999,0.4952200499999999,0.1800712099999999,-0.36428493,-0.07477559,0.5231835100000001,-38.46750171,35.02773266,-24.082972799999997,0.5382423293,-0.0253445481,-0.5159414795,0.0458100538,-0.3515424340799999,-0.13274171088,0.003
08:24:38,0.274583775,0.05729885,0.503397875,0.1813389749999999,-0.3666446750000001,-0.075100525,0.518017725,-38.470233225,35.02651985,-25.848513,0.5443961417500001,-0.02626769975,-0.51740282625,0.0464660605,-0.3537526988,-0.1337666568,0.003
08:24:38,0.27205586,0.05656624,0.5115757,0.18260674,-0.36900442,-0.07542546,0.51285194,-38.47296474,35.02530704,-27.6140532,0.5505499542000001,-0.0271908514,-0.518864173,0.0471220672,-0.35596296352,-0.13479160272,0.003
08:24:38,0.269527945,0.0558336299999999,0.5197535249999999,0.183874505,-0.371364165,-0.075750395,0.507686155,-38.475696255,35.02409423,-29.379593399999976,0.5567037666500001,-0.02811400305,-0.52032551975,0.0477780738999999,-0.35817322824,-0.13581654864,0.003
08:24:38,0.2670000299999999,0.05510102,0.52793135,0.1851422699999999,-0.37372391,-0.07607533,0.50252037,-38.47842777,35.02288142,-31.14513359999998,0.5628575791000001,-0.0290371547,-0.5217868665,0.0484340806,-0.36038349296,-0.13684149456,0.003
08:24:38,0.2644721149999999,0.05436841,0.536109175,0.1864100349999999,-0.376083655,-0.076400265,0.497354585,-38.481159285,35.02166861,-32.910673799999984,0.56901139155,-0.02996030635,-0.52324821325,0.0490900873,-0.36259375768,-0.13786644048,0.003
08:24:38,0.2619441999999999,0.0536358,0.544287,0.1876777999999999,-0.3784434,-0.0767252,0.4921888000000001,-38.483890800000005,35.0204558,-34.67621399999999,0.575165204,-0.030883458,-0.52470956,0.049746094,-0.3648040224,-0.1388913864,0.003
08:24:38,0.2594162849999999,0.05290319,0.5524648249999999,0.1889455649999999,-0.380803145,-0.0770501349999999,0.487023015,-38.486622315000005,35.01924299,-36.44175419999999,0.5813190164500001,-0.03180660965,-0.52617090675,0.0504021007,-0.36701428712,-0.13991633232,0.003
08:24:38,0.25688837,0.0521705799999999,0.5606426499999999,0.1902133299999999,-0.38316289,-0.07737507,0.48185723,-38.48935383,35.018030180000004,-38.2072944,0.5874728289000001,-0.0327297613,-0.5276322535,0.0510581074,-0.36922455184,-0.14094127824,0.003
08:24:38,0.254360455,0.05143797,0.5688204749999999,0.191481095,-0.385522635,-0.077700005,0.476691445,-38.492085345,35.01681737,-39.9728346,0.5936266413500001,-0.03365291295,-0.52909360025,0.0517141141,-0.37143481656,-0.14196622416,0.003
08:24:38,0.25183254,0.05070536,0.5769983000000001,0.19274886,-0.3878823800000001,-0.07802494,0.47152566,-38.49481686,35.01560456,-41.7383748,0.5997804538000001,-0.0345760646,-0.5305549469999999,0.0523701208,-0.37364508128,-0.14299117008,0.003
08:24:38,0.2493046249999999,0.0499727499999999,0.585176125,0.1940166249999999,-0.390242125,-0.078349875,0.4663598750000001,-38.497548375,35.01439175,-43.50391499999998,0.60593426625,-0.03549921625,-0.5320162937499999,0.0530261275,-0.375855346,-0.144016116,0.003
08:24:38,0.2467767099999999,0.04924014,0.59335395,0.1952843899999999,-0.39260187,-0.07867481,0.46119409,-38.50027989,35.01317894,-45.26945519999998,0.6120880787,-0.0364223679,-0.5334776405,0.0536821341999999,-0.37806561072,-0.14504106192,0.003
08:24:38,0.2442487949999999,0.0485075299999999,0.601531775,0.1965521549999999,-0.394961615,-0.078999745,0.456028305,-38.503011405,35.01196613,-47.03499539999999,0.6182418911500001,-0.03734551955,-0.53493898725,0.0543381409,-0.3802758754399999,-0.14606600784,0.003
08:24:38,0.2417208799999999,0.04777492,0.6097096,0.1978199199999999,-0.39732136,-0.07932468,0.45086252,-38.50574292,35.01075332,-48.80053559999999,0.6243957036000001,-0.0382686712,-0.536400334,0.0549941476,-0.38248614016,-0.14709095376,0.003
08:24:38,0.2391929649999999,0.04704231,0.6178874249999999,0.199087685,-0.3996811050000001,-0.079649615,0.445696735,-38.508474435,35.00954051,-50.56607579999999,0.6305495160500001,-0.03919182285,-0.53786168075,0.0556501543,-0.38469640488,-0.14811589968,0.003
08:24:38,0.23666505,0.0463096999999999,0.6260652499999999,0.20035545,-0.40204085,-0.07997455,0.4405309500000001,-38.51120595,35.0083277,-52.331616,0.6367033285000001,-0.0401149745,-0.5393230274999999,0.056306161,-0.3869066696,-0.1491408456,0.003
08:24:38,0.234137135,0.04557709,0.6342430749999999,0.201623215,-0.404400595,-0.080299485,0.435365165,-38.513937465000005,35.007114890000004,-54.0971562,0.6428571409500001,-0.04103812615,-0.54078437425,0.0569621676999999,-0.38911693432,-0.15016579152,0.003
08:24:38,0.2316092199999999,0.0448444799999999,0.6424208999999999,0.2028909799999999,-0.40676034,-0.08062442,0.43019938,-38.51666898,35.00590208,-55.862696399999976,0.6490109534,-0.0419612778,-0.542245721,0.0576181744,-0.39132719904,-0.15119073744,0.003
08:24:38,0.2290813049999999,0.04411187,0.650598725,0.2041587449999999,-0.4091200850000001,-0.080949355,0.425033595,-38.519400495,35.00468927,-57.62823659999998,0.65516476585,-0.04288442945,-0.54370706775,0.0582741811,-0.39353746376,-0.15221568336,0.003
08:24:38,0.2265533899999999,0.04337926,0.65877655,0.2054265099999999,-0.41147983,-0.08127429,0.41986781,-38.52213201,35.00347646,-59.39377679999998,0.6613185783000001,-0.0438075811,-0.5451684145,0.0589301878,-0.39574772848,-0.15324062928,0.003
08:24:38,0.2240254749999999,0.0426466499999999,0.666954375,0.2066942749999999,-0.413839575,-0.081599225,0.4147020250000001,-38.524863525,35.00226365,-61.15931699999999,0.6674723907500001,-0.04473073275,-0.54662976125,0.0595861944999999,-0.3979579932,-0.1542655752,0.003
08:24:38,0.2214975599999999,0.04191404,0.6751322,0.20796204,-0.41619932,-0.08192416,0.40953624,-38.52759504,35.00105084,-62.92485719999999,0.6736262032000001,-0.0456538844,-0.5480911079999999,0.0602422012,-0.40016825792,-0.15529052112,0.003
08:24:38,0.218969645,0.0411814299999999,0.6833100249999999,0.209229805,-0.418559065,-0.082249095,0.404370455,-38.530326555,34.99983803,-64.6903974,0.6797800156500001,-0.04657703605,-0.5495524547499999,0.0608982079,-0.40237852264,-0.15631546704,0.003
08:24:38,0.21644173,0.0404488199999999,0.6914878499999999,0.21049757,-0.4209188100000001,-0.0825740299999999,0.39920467,-38.53305807,34.99862522,-66.4559376,0.6859338281,-0.0475001877,-0.5510138015,0.0615542146,-0.40458878736,-0.15734041296,0.003
08:24:38,0.2139138149999999,0.03971621,0.6996656749999999,0.2117653349999999,-0.423278555,-0.0828989649999999,0.394038885,-38.535789585,34.99741241,-68.2214778,0.69208764055,-0.04842333935,-0.55247514825,0.0622102213,-0.40679905208,-0.15836535888,0.003
08:24:38,0.2113858999999999,0.0389835999999999,0.7078435000000001,0.2130330999999999,-0.4256383,-0.0832239,0.3888731000000001,-38.5385211,34.9961996,-69.98701799999998,0.6982414530000001,-0.049346491,-0.553936495,0.062866228,-0.4090093167999999,-0.1593903048,0.003
08:24:38,0.2088579849999999,0.03825099,0.716021325,0.2143008649999999,-0.427998045,-0.083548835,0.3837073150000001,-38.541252615000005,34.99498679,-71.75255819999998,0.7043952654500001,-0.05026964265,-0.55539784175,0.0635222347,-0.41121958152,-0.16041525072,0.003
08:24:38,0.2063300699999999,0.03751838,0.72419915,0.2155686299999999,-0.4303577900000001,-0.08387377,0.37854153,-38.543984130000005,34.99377398,-73.51809839999999,0.7105490779000001,-0.0511927943,-0.5568591884999999,0.0641782414,-0.41342984624,-0.16144019664,0.003
08:24:38,0.2038021549999999,0.0367857699999999,0.732376975,0.216836395,-0.4327175350000001,-0.084198705,0.373375745,-38.546715645,34.99256117,-75.28363859999999,0.7167028903500001,-0.05211594595,-0.55832053525,0.0648342481,-0.41564011096,-0.16246514256,0.003
08:24:38,0.20127424,0.03605316,0.7405548,0.21810416,-0.43507728,-0.08452364,0.36820996,-38.54944716,34.99134836,-77.04917879999999,0.7228567028000001,-0.0530390976,-0.559781882,0.0654902548,-0.41785037568,-0.16349008848,0.003
08:24:38,0.1987463249999999,0.0353205499999999,0.7487326249999999,0.2193719249999999,-0.437437025,-0.084848575,0.3630441750000001,-38.552178675,34.99013555,-78.814719,0.72901051525,-0.05396224925,-0.56124322875,0.0661462615,-0.4200606404,-0.1645150344,0.003
08:24:38,0.1962184099999999,0.03458794,0.7569104499999999,0.2206396899999999,-0.43979677,-0.08517351,0.3578783900000001,-38.55491019,34.98892274,-80.58025919999997,0.7351643277000001,-0.0548854009,-0.5627045755,0.0668022682,-0.42227090512,-0.16553998032,0.003
08:24:38,0.1936904949999999,0.03385533,0.7650882749999999,0.2219074549999999,-0.4421565150000001,-0.085498445,0.352712605,-38.557641705,34.98770993,-82.3457994,0.7413181401500001,-0.05580855255,-0.56416592225,0.0674582749,-0.42448116984,-0.16656492624,0.003
08:24:38,0.1911625799999999,0.0331227199999999,0.7732660999999998,0.2231752199999999,-0.44451626,-0.08582338,0.34754682,-38.56037322,34.98649712,-84.11133959999998,0.7474719526000001,-0.0567317042,-0.5656272689999999,0.0681142816,-0.42669143456,-0.16758987216,0.003
08:24:38,0.1886346649999999,0.03239011,0.781443925,0.2244429849999999,-0.446876005,-0.086148315,0.342381035,-38.563104735,34.98528431,-85.87687980000001,0.7536257650500001,-0.05765485585,-0.5670886157499999,0.0687702883,-0.42890169928,-0.16861481808,0.003
08:24:38,0.18610675,0.0316574999999999,0.78962175,0.22571075,-0.44923575,-0.08647325,0.3372152500000001,-38.56583625,34.9840715,-87.64241999999999,0.7597795775000001,-0.0585780075,-0.5685499625,0.069426295,-0.431111964,-0.169639764,0.003
08:24:38,0.183578835,0.0309248899999999,0.797799575,0.226978515,-0.451595495,-0.086798185,0.3320494650000001,-38.568567765,34.98285869,-89.40796019999996,0.76593338995,-0.0595011591499999,-0.57001130925,0.0700823017,-0.43332222872,-0.17066470992,0.003
08:24:38,0.1810509199999999,0.03019228,0.8059774,0.2282462799999999,-0.4539552400000001,-0.08712312,0.3268836800000001,-38.571299280000005,34.98164588,-91.1735004,0.7720872024000001,-0.0604243108,-0.571472656,0.0707383084,-0.43553249344,-0.17168965584,0.003
08:24:38,0.1785230049999999,0.0294596699999999,0.8141552249999999,0.2295140449999999,-0.456314985,-0.087448055,0.321717895,-38.574030795,34.980433070000004,-92.93904059999996,0.7782410148500001,-0.06134746245,-0.57293400275,0.0713943151,-0.4377427581599999,-0.17271460176,0.003
08:24:38,0.1759950899999999,0.02872706,0.8223330499999999,0.2307818099999999,-0.45867473,-0.08777299,0.31655211,-38.57676231,34.97922026,-94.7045808,0.7843948273000001,-0.0622706140999999,-0.5743953494999999,0.0720503218,-0.43995302288,-0.17373954768,0.003
08:24:38,0.1734671749999999,0.0279944499999999,0.8305108749999999,0.2320495749999999,-0.461034475,-0.088097925,0.3113863250000001,-38.579493825,34.97800745,-96.47012099999998,0.7905486397500001,-0.06319376575,-0.57585669625,0.0727063285,-0.4421632876,-0.1747644936,0.003
08:24:38,0.1709392599999999,0.0272618399999999,0.8386887000000001,0.2333173399999999,-0.4633942200000001,-0.0884228599999999,0.3062205400000001,-38.58222534,34.97679464,-98.2356612,0.7967024522000001,-0.0641169174,-0.577318043,0.0733623352,-0.44437355232,-0.17578943952,0.003
08:24:38,0.168411345,0.02652923,0.846866525,0.234585105,-0.4657539650000001,-0.088747795,0.3010547550000001,-38.584956855,34.97558183,-100.0012014,0.80285626465,-0.06504006905,-0.57877938975,0.0740183419,-0.44658381704,-0.17681438544,0.003
08:24:38,0.16588343,0.0257966199999999,0.85504435,0.23585287,-0.46811371,-0.08907273,0.29588897,-38.58768837,34.97436902,-101.76674160000002,0.8090100771000001,-0.0659632207,-0.5802407365,0.0746743486,-0.44879408176,-0.17783933136,0.003
08:24:38,0.1633555149999999,0.0250640099999999,0.863222175,0.2371206349999999,-0.470473455,-0.089397665,0.290723185,-38.590419885,34.97315621,-103.5322818,0.8151638895500001,-0.06688637235,-0.58170208325,0.0753303553,-0.45100434648,-0.17886427728,0.003
08:24:38,0.1608275999999999,0.0243314,0.8714,0.2383883999999999,-0.4728332,-0.0897226,0.2855574000000001,-38.5931514,34.9719434,-105.29782199999995,0.8213177020000001,-0.067809524,-0.5831634299999999,0.075986362,-0.4532146112,-0.1798892232,0.003
08:24:38,0.1582996849999999,0.0235987899999999,0.8795778249999999,0.2396561649999999,-0.4751929450000001,-0.090047535,0.2803916150000001,-38.595882915,34.97073059,-107.0633622,0.8274715144500001,-0.06873267565,-0.5846247767499999,0.0766423687,-0.45542487592,-0.18091416912,0.003
08:24:38,0.1557717699999999,0.02286618,0.8877556499999999,0.2409239299999999,-0.47755269,-0.09037247,0.2752258300000001,-38.598614430000005,34.969517780000004,-108.82890239999998,0.8336253269000001,-0.0696558273,-0.5860861235,0.0772983754,-0.45763514064,-0.18193911504,0.003
08:24:38,0.1532438549999999,0.0221335699999999,0.8959334749999999,0.2421916949999999,-0.479912435,-0.090697405,0.270060045,-38.601345945000006,34.96830497,-110.5944426,0.83977913935,-0.07057897895,-0.58754747025,0.0779543821,-0.45984540536,-0.18296406096,0.003
08:24:38,0.15071594,0.0214009599999999,0.9041112999999998,0.24345946,-0.48227218,-0.09102234,0.26489426,-38.60407746,34.96709216,-112.35998279999998,0.8459329518,-0.0715021306,-0.589008817,0.0786103888,-0.46205567008,-0.18398900688,0.003
08:24:38,0.148188025,0.02066835,0.912289125,0.244727225,-0.4846319250000001,-0.091347275,0.259728475,-38.606808975,34.96587935,-114.12552300000002,0.8520867642500001,-0.07242528225,-0.5904701637499999,0.0792663955,-0.4642659348,-0.1850139528,0.003
08:24:38,0.1456601099999999,0.0199357399999999,0.92046695,0.2459949899999999,-0.4869916700000001,-0.09167221,0.2545626900000001,-38.60954049,34.96466654,-115.8910632,0.8582405767000001,-0.0733484339,-0.5919315105,0.0799224022,-0.4664761995199999,-0.18603889872,0.003
08:24:38,0.1431321949999999,0.01920313,0.928644775,0.2472627549999999,-0.489351415,-0.091997145,0.2493969050000001,-38.612272005,34.96345373,-117.65660339999997,0.8643943891500001,-0.07427158555,-0.59339285725,0.0805784089,-0.46868646424,-0.18706384464,0.003
08:24:38,0.1406042799999999,0.0184705199999999,0.9368226,0.2485305199999999,-0.49171116,-0.09232208,0.24423112,-38.61500352,34.96224092,-119.4221436,0.8705482016000001,-0.0751947372,-0.594854204,0.0812344156,-0.47089672896,-0.18808879056,0.003
08:24:38,0.1380763649999999,0.0177379099999999,0.945000425,0.2497982849999999,-0.494070905,-0.092647015,0.239065335,-38.617735035,34.96102811,-121.18768379999996,0.8767020140500001,-0.07611788885,-0.59631555075,0.0818904223,-0.47310699368,-0.18911373648,0.003
08:24:38,0.13554845,0.0170053,0.95317825,0.25106605,-0.4964306500000001,-0.09297195,0.23389955,-38.62046655,34.9598153,-122.953224,0.8828558265000002,-0.0770410405,-0.5977768975,0.082546429,-0.4753172584,-0.1901386824,0.003
08:24:38,0.133020535,0.01627269,0.961356075,0.252333815,-0.4987903950000001,-0.093296885,0.2287337650000001,-38.623198065,34.958602490000004,-124.71876419999998,0.8890096389500002,-0.07796419215,-0.5992382442499999,0.0832024357,-0.47752752312,-0.19116362832,0.003
08:24:38,0.1304926199999999,0.0155400799999999,0.9695339,0.25360158,-0.50115014,-0.09362182,0.2235679800000001,-38.625929580000005,34.95738968,-126.4843044,0.8951634514000002,-0.0788873438,-0.6006995909999999,0.0838584424,-0.47973778784,-0.19218857424,0.003
08:24:38,0.1279647049999999,0.0148074699999999,0.977711725,0.2548693449999999,-0.503509885,-0.0939467549999999,0.2184021950000001,-38.628661095000005,34.95617687,-128.2498446,0.90131726385,-0.07981049545,-0.6021609377499999,0.0845144491,-0.48194805256,-0.19321352016,0.003
08:24:38,0.1254367899999999,0.0140748599999999,0.98588955,0.25613711,-0.5058696300000001,-0.0942716899999999,0.21323641,-38.63139261,34.95496406,-130.01538479999996,0.9074710763,-0.0807336471,-0.6036222844999999,0.0851704558,-0.48415831728,-0.19423846608,0.003
08:24:38,0.1229088749999999,0.01334225,0.994067375,0.257404875,-0.5082293750000001,-0.094596625,0.208070625,-38.634124125,34.95375125,-131.780925,0.91362488875,-0.08165679875,-0.60508363125,0.0858264625,-0.486368582,-0.195263412,0.003
08:24:38,0.1203809599999999,0.01260964,1.0022452,0.25867264,-0.51058912,-0.09492156,0.2029048400000001,-38.63685564,34.95253844,-133.54646519999997,0.9197787012,-0.0825799504,-0.606544978,0.0864824692,-0.48857884672,-0.19628835792,0.003
08:24:38,0.1178530449999999,0.0118770299999999,1.010423025,0.259940405,-0.512948865,-0.095246495,0.1977390550000001,-38.639587155,34.95132563,-135.3120054,0.92593251365,-0.08350310205,-0.6080063247499999,0.0871384759,-0.49078911144,-0.19731330384,0.003
08:24:38,0.11532513,0.0111444199999999,1.01860085,0.26120817,-0.5153086100000001,-0.09557143,0.1925732700000001,-38.64231867,34.95011282,-137.07754559999998,0.9320863261,-0.0844262537,-0.6094676715,0.0877944826,-0.49299937616,-0.19833824976,0.003
08:24:38,0.1127972149999999,0.0104118099999999,1.026778675,0.262475935,-0.5176683550000001,-0.095896365,0.187407485,-38.645050185,34.94890001,-138.8430858,0.93824013855,-0.08534940535,-0.61092901825,0.0884504893,-0.4952096408799999,-0.19936319568,0.003
08:24:38,0.1102692999999999,0.0096791999999999,1.0349564999999998,0.2637436999999999,-0.5200281000000001,-0.0962213,0.1822417,-38.6477817,34.947687200000004,-140.608626,0.944393951,-0.086272557,-0.612390365,0.089106496,-0.4974199056,-0.2003881416,0.003
08:24:38,0.1077413849999999,0.00894659,1.043134325,0.265011465,-0.522387845,-0.096546235,0.177075915,-38.650513215,34.94647439,-142.37416619999996,0.95054776345,-0.08719570865,-0.61385171175,0.0897625027,-0.49963017032,-0.20141308752,0.003
08:24:38,0.1052134699999999,0.0082139799999999,1.05131215,0.26627923,-0.52474759,-0.09687117,0.1719101300000001,-38.65324473,34.94526158,-144.1397064,0.9567015759000002,-0.0881188603,-0.6153130585,0.0904185094,-0.50184043504,-0.20243803344,0.003
08:24:38,0.1026855549999999,0.0074813699999999,1.059489975,0.267546995,-0.5271073350000001,-0.097196105,0.1667443450000001,-38.655976245000005,34.94404877,-145.90524659999997,0.9628553883500002,-0.08904201195,-0.6167744052499999,0.0910745161,-0.50405069976,-0.20346297936,0.003
08:24:38,0.1001576399999999,0.0067487599999999,1.0676678,0.26881476,-0.5294670800000001,-0.09752104,0.1615785600000001,-38.658707760000006,34.942835960000004,-147.6707868,0.9690092008000002,-0.0899651636,-0.6182357519999999,0.0917305228,-0.50626096448,-0.20448792528,0.003
08:24:38,0.097629725,0.0060161499999999,1.075845625,0.270082525,-0.5318268250000001,-0.097845975,0.156412775,-38.661439275,34.94162315,-149.43632699999998,0.9751630132500002,-0.09088831525,-0.6196970987499999,0.0923865295,-0.5084712292,-0.2055128712,0.003
08:24:38,0.0951018099999999,0.00528354,1.08402345,0.27135029,-0.53418657,-0.09817091,0.15124699,-38.66417079,34.94041034,-151.2018672,0.9813168257,-0.0918114669,-0.6211584454999999,0.0930425362,-0.5106814939200001,-0.20653781712,0.003
08:24:38,0.0925738949999999,0.0045509299999999,1.092201275,0.2726180549999999,-0.536546315,-0.098495845,0.1460812050000001,-38.666902305,34.93919753,-152.96740739999998,0.98747063815,-0.09273461855,-0.62261979225,0.0936985429,-0.51289175864,-0.20756276304,0.003
08:24:38,0.0900459799999999,0.0038183199999999,1.1003791,0.27388582,-0.5389060600000001,-0.09882078,0.1409154200000001,-38.66963382,34.93798472,-154.73294760000002,0.9936244506,-0.0936577702,-0.624081139,0.0943545496,-0.51510202336,-0.20858770896,0.003
08:24:38,0.0875180649999999,0.0030857099999999,1.108556925,0.275153585,-0.5412658050000001,-0.099145715,0.1357496350000001,-38.672365335,34.93677191,-156.4984878,0.99977826305,-0.09458092185,-0.6255424857499999,0.0950105563,-0.5173122880800001,-0.20961265488,0.003
08:24:38,0.0849901499999999,0.0023530999999999,1.11673475,0.27642135,-0.54362555,-0.09947065,0.13058385,-38.67509685,34.9355591,-158.26402799999997,1.0059320755,-0.0955040735,-0.6270038325,0.095666563,-0.5195225528,-0.2106376008,0.003
08:24:38,0.082462235,0.00162049,1.124912575,0.277689115,-0.545985295,-0.0997955849999999,0.125418065,-38.677828365,34.93434629,-160.0295682,1.01208588795,-0.09642722515,-0.62846517925,0.0963225697,-0.52173281752,-0.21166254672,0.003
08:24:38,0.07993432,0.0008878799999999,1.1330904,0.27895688,-0.5483450400000001,-0.10012052,0.1202522800000001,-38.68055988,34.93313348,-161.79510839999998,1.0182397004,-0.0973503768,-0.629926526,0.0969785764,-0.52394308224,-0.21268749264,0.003
08:24:38,0.0774064049999999,0.0001552699999999,1.141268225,0.280224645,-0.5507047850000001,-0.100445455,0.1150864950000001,-38.683291395000005,34.931920670000004,-163.5606486,1.02439351285,-0.09827352845,-0.63138787275,0.0976345830999999,-0.52615334696,-0.21371243856,0.003
08:24:38,0.0748784899999999,-0.00057734,1.14944605,0.2814924099999999,-0.5530645300000001,-0.10077039,0.1099207100000001,-38.686022910000005,34.93070786,-165.32618879999998,1.0305473253,-0.0991966801,-0.6328492195,0.0982905898,-0.52836361168,-0.21473738448,0.003
08:24:38,0.0723505749999999,-0.00130995,1.157623875,0.282760175,-0.555424275,-0.101095325,0.1047549250000001,-38.688754425,34.92949505,-167.09172900000002,1.0367011377500002,-0.10011983175,-0.6343105662499999,0.0989465965,-0.5305738764,-0.2157623304,0.003
08:24:38,0.0698226599999999,-0.0020425599999999,1.1658016999999998,0.28402794,-0.55778402,-0.10142026,0.0995891400000001,-38.69148594,34.92828224,-168.8572692,1.0428549502000002,-0.1010429834,-0.6357719129999999,0.0996026032,-0.53278414112,-0.21678727632,0.003
08:24:38,0.0672947449999999,-0.0027751699999999,1.173979525,0.285295705,-0.5601437650000001,-0.101745195,0.0944233550000002,-38.694217455,34.92706943,-170.62280939999997,1.0490087626500002,-0.10196613505,-0.6372332597499999,0.1002586099,-0.53499440584,-0.21781222224,0.003
08:24:38,0.0647668299999999,-0.00350778,1.18215735,0.28656347,-0.5625035100000001,-0.10207013,0.08925757,-38.69694897,34.92585662,-172.3883496,1.0551625751000002,-0.1028892867,-0.6386946065,0.1009146165999999,-0.53720467056,-0.21883716816,0.003
08:24:38,0.062238915,-0.00424039,1.190335175,0.287831235,-0.564863255,-0.102395065,0.084091785,-38.699680485,34.92464381,-174.15388979999997,1.06131638755,-0.10381243835,-0.64015595325,0.1015706233,-0.5394149352800001,-0.21986211408,0.003
08:24:39,0.059711,-0.004973,1.198513,0.289099,-0.567223,-0.10272,0.078926,-38.702412,34.923431,-175.91943,1.0674702,-0.10473559,-0.6416173,0.10222663,-0.5416252,-0.22088706,0.003
08:24:39,0.0603178,-0.01181978,1.194317115,0.290020525,-0.56498577,-0.10193164,0.07797267,-38.70161297,34.929398065,-175.927368,1.0645273825,-0.11114794855,-0.64010916285,0.1029907585,-0.53946870895,-0.2220575084,0.003
08:24:39,0.0609246,-0.01866656,1.19012123,0.29094205,-0.5627485400000001,-0.10114328,0.0770193399999999,-38.70081394,34.93536513,-175.935306,1.061584565,-0.1175603071,-0.6386010257,0.103754887,-0.5373122179,-0.2232279568,0.003
08:24:39,0.0615314,-0.02551334,1.185925345,0.291863575,-0.56051131,-0.10035492,0.0760660099999999,-38.70001491,34.941332195,-175.943244,1.0586417475,-0.12397266565,-0.6370928885499999,0.1045190154999999,-0.53515572685,-0.2243984051999999,0.003
08:24:39,0.0621382,-0.03236012,1.18172946,0.2927851,-0.55827408,-0.09956656,0.07511268,-38.69921588,34.94729926,-175.95118200000002,1.05569893,-0.1303850242,-0.6355847513999999,0.105283144,-0.5329992358000001,-0.2255688536,0.003
08:24:39,0.062745,-0.0392068999999999,1.177533575,0.293706625,-0.55603685,-0.0987782,0.07415935,-38.69841685,34.953266325,-175.95912,1.0527561125,-0.13679738275,-0.63407661425,0.1060472725,-0.53084274475,-0.226739302,0.003
08:24:39,0.0633518,-0.04605368,1.17333769,0.29462815,-0.55379962,-0.09798984,0.07320602,-38.697617820000005,34.95923339,-175.967058,1.049813295,-0.1432097413,-0.6325684771,0.106811401,-0.5286862537,-0.2279097504,0.003
08:24:39,0.0639586,-0.05290046,1.169141805,0.295549675,-0.5515623900000001,-0.09720148,0.07225269,-38.69681879,34.965200455,-175.974996,1.0468704775,-0.14962209985,-0.63106033995,0.1075755295,-0.5265297626500001,-0.2290801988,0.003
08:24:39,0.0645654,-0.05974724,1.16494592,0.2964712,-0.54932516,-0.09641312,0.0712993599999999,-38.696019760000006,34.97116752,-175.982934,1.04392766,-0.1560344584,-0.6295522027999999,0.108339658,-0.5243732716,-0.2302506472,0.003
08:24:39,0.0651722,-0.06659402,1.160750035,0.2973927249999999,-0.54708793,-0.09562476,0.0703460299999999,-38.69522073,34.977134585,-175.990872,1.0409848425,-0.16244681695,-0.6280440656499999,0.1091037865,-0.52221678055,-0.2314210956,0.003
08:24:39,0.065779,-0.0734408,1.1565541499999998,0.29831425,-0.5448507,-0.0948364,0.0693927,-38.6944217,34.98310165,-175.99881,1.038042025,-0.1688591755,-0.6265359285,0.109867915,-0.5200602895,-0.2325915439999999,0.003
08:24:39,0.0663858,-0.08028758,1.152358265,0.299235775,-0.54261347,-0.09404804,0.06843937,-38.69362267,34.989068715,-176.00674800000002,1.0350992075,-0.17527153405,-0.62502779135,0.1106320435,-0.51790379845,-0.2337619924,0.003
08:24:39,0.0669926,-0.08713436,1.14816238,0.3001573,-0.5403762400000001,-0.09325968,0.06748604,-38.69282364,34.99503578,-176.014686,1.03215639,-0.1816838926,-0.6235196542,0.111396172,-0.5157473074000001,-0.2349324408,0.003
08:24:39,0.0675994,-0.09398114,1.143966495,0.301078825,-0.5381390100000001,-0.09247132,0.06653271,-38.69202461,35.001002845,-176.022624,1.0292135725,-0.18809625115,-0.6220115170499999,0.1121603005,-0.51359081635,-0.2361028892,0.003
08:24:39,0.0682062,-0.10082792,1.13977061,0.30200035,-0.53590178,-0.09168296,0.0655793799999999,-38.69122558,35.00696991,-176.030562,1.026270755,-0.1945086097,-0.6205033798999999,0.1129244289999999,-0.5114343253,-0.2372733376,0.003
08:24:39,0.068813,-0.1076747,1.135574725,0.302921875,-0.53366455,-0.0908946,0.0646260499999999,-38.690426550000005,35.012936975,-176.0385,1.0233279375,-0.20092096825,-0.61899524275,0.1136885575,-0.5092778342500001,-0.238443786,0.003
08:24:39,0.0694198,-0.11452148,1.13137884,0.3038434,-0.53142732,-0.09010624,0.0636727199999999,-38.68962752,35.01890404,-176.046438,1.02038512,-0.2073333268,-0.6174871056,0.114452686,-0.5071213432,-0.2396142344,0.003
08:24:39,0.0700266,-0.12136826,1.127182955,0.304764925,-0.5291900900000001,-0.08931788,0.06271939,-38.68882849,35.024871105,-176.054376,1.0174423025,-0.21374568535,-0.61597896845,0.1152168145,-0.50496485215,-0.2407846827999999,0.003
08:24:39,0.0706334,-0.12821504,1.12298707,0.30568645,-0.5269528600000001,-0.08852952,0.06176606,-38.68802946,35.03083817,-176.062314,1.014499485,-0.2201580439,-0.6144708312999999,0.115980943,-0.5028083611,-0.2419551312,0.003
08:24:39,0.0712402,-0.13506182,1.118791185,0.306607975,-0.52471563,-0.08774116,0.0608127299999999,-38.68723043,35.036805235,-176.070252,1.0115566675,-0.22657040245,-0.6129626941499999,0.1167450715,-0.50065187005,-0.2431255796,0.003
08:24:39,0.071847,-0.1419086,1.1145953,0.3075295,-0.5224784,-0.0869528,0.0598593999999999,-38.6864314,35.0427723,-176.07819,1.00861385,-0.2329827609999999,-0.611454557,0.1175092,-0.498495379,-0.244296028,0.003
08:24:39,0.0724538,-0.14875538,1.1103994149999998,0.308451025,-0.52024117,-0.08616444,0.0589060699999999,-38.68563237,35.048739365,-176.086128,1.0056710325,-0.23939511955,-0.60994641985,0.1182733285,-0.49633888795,-0.2454664764,0.003
08:24:39,0.0730606,-0.15560216,1.10620353,0.3093725499999999,-0.51800394,-0.08537608,0.0579527399999999,-38.68483334,35.05470643,-176.094066,1.002728215,-0.2458074781,-0.6084382827,0.119037457,-0.4941823969,-0.2466369248,0.003
08:24:39,0.0736674,-0.16244894,1.102007645,0.310294075,-0.5157667100000001,-0.08458772,0.0569994099999999,-38.68403431,35.060673495,-176.102004,0.9997853975,-0.25221983665,-0.6069301455499999,0.1198015855,-0.49202590585,-0.2478073732,0.003
08:24:39,0.0742742,-0.16929572,1.09781176,0.3112156,-0.51352948,-0.08379936,0.05604608,-38.683235280000005,35.06664056,-176.109942,0.99684258,-0.2586321952,-0.6054220083999999,0.120565714,-0.4898694148,-0.2489778215999999,0.003
08:24:39,0.074881,-0.1761425,1.093615875,0.312137125,-0.51129225,-0.083011,0.0550927499999999,-38.68243625,35.072607625,-176.11788,0.9938997625,-0.26504455375,-0.60391387125,0.1213298425,-0.48771292375,-0.25014827,0.003
08:24:39,0.0754878,-0.18298928,1.08941999,0.31305865,-0.50905502,-0.08222264,0.0541394199999999,-38.68163722,35.07857469,-176.125818,0.990956945,-0.2714569123,-0.6024057341,0.122093971,-0.4855564327,-0.2513187184,0.003
08:24:39,0.0760946,-0.18983606,1.085224105,0.313980175,-0.50681779,-0.08143428,0.0531860899999999,-38.68083819,35.084541755000004,-176.133756,0.9880141275,-0.27786927085,-0.60089759695,0.1228580995,-0.48339994165,-0.2524891668,0.003
08:24:39,0.0767014,-0.19668284,1.08102822,0.3149017,-0.5045805600000001,-0.08064592,0.0522327599999999,-38.68003916,35.090508820000004,-176.141694,0.98507131,-0.2842816294,-0.5993894597999999,0.123622228,-0.4812434506,-0.2536596152,0.003
08:24:39,0.0773082,-0.20352962,1.076832335,0.315823225,-0.50234333,-0.07985756,0.0512794299999999,-38.67924013,35.096475885000004,-176.149632,0.9821284925,-0.29069398795,-0.5978813226499999,0.1243863565,-0.47908695955,-0.2548300636,0.003
08:24:39,0.077915,-0.2103764,1.07263645,0.31674475,-0.5001061,-0.0790692,0.0503261,-38.6784411,35.102442950000004,-176.15757,0.979185675,-0.2971063465,-0.5963731855,0.125150485,-0.4769304685,-0.256000512,0.003
08:24:39,0.0785218,-0.21722318,1.068440565,0.317666275,-0.49786887,-0.07828084,0.0493727699999999,-38.677642070000005,35.108410015000004,-176.165508,0.9762428575,-0.30351870505,-0.59486504835,0.1259146135,-0.47477397745,-0.2571709604,0.003
08:24:39,0.0791286,-0.22406996,1.0642446799999998,0.3185878,-0.49563164,-0.07749248,0.0484194399999999,-38.67684304,35.114377080000004,-176.173446,0.97330004,-0.3099310636,-0.5933569112,0.126678742,-0.4726174864,-0.2583414088,0.003
08:24:39,0.0797354,-0.23091674,1.060048795,0.319509325,-0.49339441,-0.07670412,0.0474661099999999,-38.676044010000005,35.120344145000004,-176.181384,0.9703572225,-0.31634342215,-0.5918487740499999,0.1274428705,-0.47046099535,-0.2595118572,0.003
08:24:39,0.0803422,-0.23776352,1.05585291,0.32043085,-0.49115718,-0.07591576,0.04651278,-38.67524498,35.12631121,-176.189322,0.967414405,-0.3227557807,-0.5903406368999999,0.128206999,-0.4683045043,-0.2606823056,0.003
08:24:39,0.080949,-0.2446103,1.051657025,0.321352375,-0.48891995,-0.0751274,0.0455594499999999,-38.67444595,35.132278275,-176.19726,0.9644715875,-0.32916813925,-0.58883249975,0.1289711275,-0.46614801325,-0.261852754,0.003
08:24:39,0.0815558,-0.25145708,1.04746114,0.3222739,-0.48668272,-0.07433904,0.0446061199999999,-38.67364692,35.13824534,-176.205198,0.96152877,-0.3355804978,-0.5873243626,0.129735256,-0.4639915222,-0.2630232024,0.003
08:24:39,0.0821626,-0.25830386,1.043265255,0.323195425,-0.48444549,-0.07355068,0.04365279,-38.67284789,35.144212405,-176.213136,0.9585859525,-0.34199285635,-0.58581622545,0.1304993845,-0.46183503115,-0.2641936508,0.003
08:24:39,0.0827693999999999,-0.26515064,1.03906937,0.32411695,-0.48220826,-0.07276232,0.0426994599999999,-38.67204886,35.15017947,-176.22107400000002,0.955643135,-0.3484052149,-0.5843080882999999,0.131263513,-0.4596785401,-0.2653640992,0.003
08:24:39,0.0833762,-0.27199742,1.034873485,0.325038475,-0.47997103,-0.07197396,0.0417461299999999,-38.67124983,35.156146535,-176.229012,0.9527003175,-0.35481757345,-0.5827999511499999,0.1320276415,-0.45752204905,-0.2665345476,0.003
08:24:39,0.083983,-0.2788442,1.0306776,0.3259599999999999,-0.4777338,-0.0711856,0.0407927999999999,-38.670450800000005,35.1621136,-176.23695,0.9497575,-0.361229932,-0.581291814,0.13279177,-0.455365558,-0.267704996,0.003
08:24:39,0.0845897999999999,-0.28569098,1.026481715,0.326881525,-0.47549657,-0.07039724,0.0398394699999999,-38.66965177,35.168080665,-176.244888,0.9468146825,-0.36764229055,-0.57978367685,0.1335558985,-0.45320906695,-0.2688754444,0.003
08:24:39,0.0851966,-0.29253776,1.02228583,0.32780305,-0.47325934,-0.06960888,0.0388861399999999,-38.66885274,35.17404773,-176.252826,0.943871865,-0.3740546491,-0.5782755397,0.134320027,-0.4510525759,-0.2700458928,0.003
08:24:39,0.0858034,-0.29938454,1.0180899449999998,0.3287245749999999,-0.47102211,-0.06882052,0.0379328099999999,-38.66805371,35.180014795,-176.260764,0.9409290475,-0.38046700765,-0.5767674025499999,0.1350841555,-0.44889608485,-0.2712163412,0.003
08:24:39,0.0864101999999999,-0.30623132,1.01389406,0.3296461,-0.46878488,-0.06803216,0.0369794799999999,-38.66725468,35.18598186,-176.268702,0.93798623,-0.3868793662,-0.5752592653999999,0.1358482839999999,-0.4467395938,-0.2723867896,0.003
08:24:39,0.087017,-0.3130781,1.009698175,0.330567625,-0.46654765,-0.0672438,0.0360261499999999,-38.66645565,35.191948925,-176.27664,0.9350434125,-0.39329172475,-0.57375112825,0.1366124125,-0.44458310275,-0.273557238,0.003
08:24:39,0.0876238,-0.31992488,1.00550229,0.33148915,-0.46431042,-0.06645544,0.0350728199999999,-38.66565662,35.19791599,-176.284578,0.932100595,-0.3997040833,-0.5722429911,0.137376541,-0.4424266117,-0.2747276864,0.003
08:24:39,0.0882305999999999,-0.32677166,1.001306405,0.332410675,-0.46207319,-0.06566708,0.0341194899999999,-38.66485759,35.203883055,-176.292516,0.9291577775,-0.40611644185,-0.57073485395,0.1381406695,-0.44027012065,-0.2758981348,0.003
08:24:39,0.0888374,-0.33361844,0.99711052,0.3333321999999999,-0.45983596,-0.06487872,0.0331661599999999,-38.66405856,35.20985012,-176.300454,0.92621496,-0.4125288004,-0.5692267168,0.138904798,-0.4381136296,-0.2770685832,0.003
08:24:39,0.0894442,-0.34046522,0.992914635,0.334253725,-0.45759873,-0.06409036,0.0322128299999999,-38.663259530000005,35.215817185,-176.308392,0.9232721425,-0.41894115895,-0.5677185796499999,0.1396689265,-0.43595713855,-0.2782390316,0.003
08:24:39,0.0900509999999999,-0.347312,0.98871875,0.33517525,-0.4553615,-0.063302,0.0312594999999999,-38.6624605,35.22178425,-176.31633,0.920329325,-0.4253535175,-0.5662104425,0.140433055,-0.4338006475,-0.27940948,0.003
08:24:39,0.0906578,-0.35415878,0.984522865,0.336096775,-0.45312427,-0.06251364,0.0303061699999999,-38.66166147,35.227751315,-176.324268,0.9173865075,-0.43176587605,-0.56470230535,0.1411971835,-0.43164415645,-0.2805799284,0.003
08:24:39,0.0912646,-0.36100556,0.98032698,0.3370183,-0.45088704,-0.06172528,0.0293528399999999,-38.66086244,35.23371838,-176.332206,0.91444369,-0.4381782346,-0.5631941682,0.141961312,-0.4294876654,-0.2817503768,0.003
08:24:39,0.0918713999999999,-0.36785234,0.976131095,0.3379398249999999,-0.44864981,-0.06093692,0.0283995099999999,-38.66006341,35.239685445,-176.340144,0.9115008725,-0.44459059315,-0.56168603105,0.1427254405,-0.42733117435,-0.2829208252,0.003
08:24:39,0.0924782,-0.37469912,0.97193521,0.33886135,-0.44641258,-0.06014856,0.0274461799999999,-38.65926438,35.24565251,-176.348082,0.908558055,-0.4510029517,-0.5601778939,0.143489569,-0.4251746833,-0.2840912735999999,0.003
08:24:39,0.093085,-0.3815459,0.967739325,0.339782875,-0.44417535,-0.0593602,0.0264928499999999,-38.65846535,35.251619575,-176.35602,0.9056152375,-0.45741531025,-0.55866975675,0.1442536975,-0.42301819225,-0.285261722,0.003
08:24:39,0.0936917999999999,-0.38839268,0.96354344,0.3407044,-0.44193812,-0.05857184,0.0255395199999999,-38.65766632,35.25758664,-176.363958,0.90267242,-0.4638276688,-0.5571616196,0.145017826,-0.4208617012,-0.2864321704,0.003
08:24:39,0.0942986,-0.39523946,0.959347555,0.341625925,-0.43970089,-0.05778348,0.0245861899999999,-38.65686729,35.263553705,-176.371896,0.8997296025,-0.47024002735,-0.55565348245,0.1457819545,-0.41870521015,-0.2876026188,0.003
08:24:39,0.0949054,-0.40208624,0.95515167,0.34254745,-0.43746366,-0.05699512,0.0236328599999999,-38.656068260000005,35.26952077,-176.379834,0.896786785,-0.4766523859,-0.5541453453,0.146546083,-0.4165487191,-0.2887730672,0.003
08:24:39,0.0955121999999999,-0.40893302,0.950955785,0.343468975,-0.43522643,-0.05620676,0.0226795299999999,-38.65526923,35.275487835,-176.387772,0.8938439675000001,-0.48306474445,-0.55263720815,0.1473102115,-0.41439222805,-0.2899435156,0.003
08:24:39,0.096119,-0.4157798,0.9467599,0.3443905,-0.4329892,-0.0554184,0.0217261999999999,-38.6544702,35.2814549,-176.39571,0.89090115,-0.489477103,-0.551129071,0.14807434,-0.412235737,-0.291113964,0.003
08:24:39,0.0967258,-0.42262658,0.942564015,0.345312025,-0.43075197,-0.05463004,0.0207728699999999,-38.65367117,35.287421965,-176.403648,0.8879583325,-0.49588946155,-0.54962093385,0.1488384685,-0.41007924595,-0.2922844124,0.003
08:24:39,0.0973325999999999,-0.42947336,0.93836813,0.34623355,-0.42851474,-0.05384168,0.0198195399999999,-38.65287214,35.29338903,-176.411586,0.8850155150000001,-0.5023018201,-0.5481127967,0.149602597,-0.4079227549,-0.2934548608,0.003
08:24:39,0.0979394,-0.43632014,0.934172245,0.347155075,-0.42627751,-0.05305332,0.0188662099999999,-38.65207311,35.299356095,-176.419524,0.8820726975000001,-0.50871417865,-0.54660465955,0.1503667255,-0.40576626385,-0.2946253092,0.003
08:24:39,0.0985462,-0.44316692,0.92997636,0.3480766,-0.42404028,-0.05226496,0.0179128799999999,-38.65127408,35.30532316,-176.427462,0.87912988,-0.5151265372,-0.5450965224,0.151130854,-0.4036097728,-0.2957957576,0.003
08:24:39,0.0991529999999999,-0.4500137,0.925780475,0.348998125,-0.42180305,-0.0514766,0.0169595499999999,-38.65047505,35.311290225,-176.4354,0.8761870625,-0.52153889575,-0.54358838525,0.1518949825,-0.40145328175,-0.296966206,0.003
08:24:39,0.0997598,-0.45686048,0.92158459,0.3499196499999999,-0.41956582,-0.05068824,0.0160062199999999,-38.64967602,35.31725729,-176.443338,0.873244245,-0.5279512543,-0.5420802481,0.152659111,-0.3992967907,-0.2981366544,0.003
08:24:39,0.1003666,-0.46370726,0.917388705,0.350841175,-0.41732859,-0.04989988,0.0150528899999999,-38.64887699,35.323224355,-176.451276,0.8703014275000001,-0.53436361285,-0.54057211095,0.1534232395,-0.39714029965,-0.2993071028,0.003
08:24:39,0.1009733999999999,-0.47055404,0.91319282,0.3517627,-0.41509136,-0.04911152,0.0140995599999999,-38.64807796,35.32919142,-176.459214,0.86735861,-0.5407759714,-0.5390639738,0.154187368,-0.3949838086,-0.3004775511999999,0.003
08:24:39,0.1015802,-0.47740082,0.908996935,0.3526842249999999,-0.41285413,-0.04832316,0.0131462299999999,-38.64727893,35.335158485,-176.467152,0.8644157925,-0.54718832995,-0.53755583665,0.1549514965,-0.39282731755,-0.3016479996,0.003
08:24:39,0.102187,-0.4842476,0.90480105,0.35360575,-0.4106169,-0.0475348,0.0121928999999999,-38.6464799,35.34112555,-176.47509,0.8614729750000001,-0.5536006885,-0.5360476995,0.155715625,-0.3906708265,-0.302818448,0.003
08:24:39,0.1027937999999999,-0.49109438,0.900605165,0.354527275,-0.40837967,-0.04674644,0.0112395699999999,-38.64568087,35.347092615,-176.483028,0.8585301575000001,-0.56001304705,-0.53453956235,0.1564797534999999,-0.38851433545,-0.3039888964,0.003
08:24:39,0.1034006,-0.49794116,0.89640928,0.3554488,-0.40614244,-0.04595808,0.0102862399999999,-38.64488184,35.35305968,-176.490966,0.85558734,-0.5664254056,-0.5330314252,0.157243882,-0.3863578444,-0.3051593448,0.003
08:24:39,0.1040074,-0.50478794,0.892213395,0.356370325,-0.40390521,-0.04516972,0.0093329099999999,-38.64408281,35.359026745,-176.498904,0.8526445225,-0.5728377641500001,-0.53152328805,0.1580080105,-0.38420135335,-0.3063297932,0.003
08:24:39,0.1046141999999999,-0.51163472,0.88801751,0.3572918499999999,-0.40166798,-0.04438136,0.0083795799999999,-38.64328378,35.36499381,-176.506842,0.849701705,-0.5792501227000001,-0.5300151509,0.158772139,-0.3820448623,-0.3075002416,0.003
08:24:39,0.105221,-0.5184815,0.8838216249999999,0.358213375,-0.39943075,-0.043593,0.0074262499999999,-38.64248475,35.370960875,-176.51478,0.8467588875000001,-0.5856624812500001,-0.52850701375,0.1595362675,-0.37988837125,-0.30867069,0.003
08:24:39,0.1058278,-0.52532828,0.8796257399999999,0.3591349,-0.39719352,-0.04280464,0.0064729199999999,-38.64168572,35.37692794,-176.522718,0.84381607,-0.5920748398000001,-0.5269988766,0.160300396,-0.3777318802,-0.3098411384,0.003
08:24:39,0.1064345999999999,-0.53217506,0.8754298549999999,0.360056425,-0.39495629,-0.04201628,0.0055195899999999,-38.64088669,35.382895005,-176.530656,0.8408732525,-0.5984871983500001,-0.52549073945,0.1610645245,-0.37557538915,-0.3110115868,0.003
08:24:39,0.1070414,-0.53902184,0.87123397,0.36097795,-0.39271906,-0.04122792,0.0045662599999999,-38.64008766,35.38886207,-176.538594,0.8379304350000001,-0.6048995569,-0.5239826023,0.161828653,-0.3734188981,-0.3121820352,0.003
08:24:39,0.1076482,-0.54586862,0.8670380849999999,0.3618994749999999,-0.39048183,-0.04043956,0.0036129299999999,-38.63928863,35.394829135,-176.54653199999998,0.8349876175000001,-0.61131191545,-0.52247446515,0.1625927815,-0.37126240705,-0.3133524836,0.003
08:24:39,0.108255,-0.5527154,0.8628422,0.362821,-0.3882446,-0.0396512,0.0026595999999999,-38.6384896,35.4007962,-176.55447,0.8320448,-0.617724274,-0.520966328,0.16335691,-0.369105916,-0.314522932,0.003
08:24:39,0.1088618,-0.55956218,0.8586463149999999,0.363742525,-0.38600737,-0.03886284,0.0017062699999999,-38.63769057,35.406763265,-176.562408,0.8291019825,-0.6241366325500001,-0.51945819085,0.1641210385,-0.36694942495,-0.3156933804,0.003
08:24:39,0.1094686,-0.5664089600000001,0.85445043,0.36466405,-0.38377014,-0.03807448,0.0007529399999999,-38.63689154,35.41273033,-176.570346,0.826159165,-0.6305489911000001,-0.5179500537,0.164885167,-0.3647929339,-0.3168638287999999,0.003
08:24:39,0.1100754,-0.57325574,0.850254545,0.365585575,-0.38153291,-0.03728612,-0.00020039,-38.636092510000005,35.418697395,-176.578284,0.8232163475000001,-0.6369613496500001,-0.51644191655,0.1656492955,-0.36263644285,-0.3180342772,0.003
08:24:39,0.1106822,-0.5801025200000001,0.84605866,0.3665071,-0.37929568,-0.03649776,-0.00115372,-38.63529348,35.42466446,-176.586222,0.82027353,-0.6433737082000001,-0.5149337794,0.166413424,-0.3604799518,-0.3192047256,0.003
08:24:39,0.111289,-0.5869493,0.841862775,0.367428625,-0.37705845,-0.0357094,-0.00210705,-38.63449445,35.430631525,-176.59416,0.8173307125,-0.6497860667500001,-0.51342564225,0.1671775525,-0.35832346075,-0.320375174,0.003
08:24:39,0.1118958,-0.5937960800000001,0.8376668899999999,0.36835015,-0.37482122,-0.03492104,-0.00306038,-38.63369542,35.43659859,-176.60209799999998,0.8143878950000001,-0.6561984253,-0.5119175051,0.167941681,-0.3561669697,-0.3215456224,0.003
08:24:39,0.1125026,-0.60064286,0.8334710049999999,0.369271675,-0.37258399,-0.03413268,-0.00401371,-38.63289639,35.442565655,-176.610036,0.8114450775000001,-0.66261078385,-0.51040936795,0.1687058095,-0.35401047865,-0.3227160708,0.003
08:24:39,0.1131094,-0.60748964,0.8292751199999999,0.3701932,-0.37034676,-0.03334432,-0.00496704,-38.63209736,35.44853272,-176.617974,0.80850226,-0.6690231424,-0.5089012308,0.169469938,-0.3518539876,-0.3238865192,0.003
08:24:39,0.1137162,-0.61433642,0.825079235,0.371114725,-0.36810953,-0.03255596,-0.00592037,-38.63129833,35.454499785,-176.625912,0.8055594425,-0.67543550095,-0.50739309365,0.1702340665,-0.34969749655,-0.3250569676,0.003
08:24:39,0.114323,-0.6211832,0.8208833499999999,0.37203625,-0.3658723,-0.0317676,-0.0068737,-38.6304993,35.46046685,-176.63385,0.802616625,-0.6818478595,-0.5058849565,0.170998195,-0.3475410055,-0.326227416,0.003
08:24:39,0.1149298,-0.62802998,0.816687465,0.372957775,-0.36363507,-0.03097924,-0.00782703,-38.62970027,35.466433915,-176.641788,0.7996738075000001,-0.68826021805,-0.50437681935,0.1717623235,-0.34538451445,-0.3273978644,0.003
08:24:39,0.1155366,-0.63487676,0.8124915799999999,0.3738793,-0.36139784,-0.03019088,-0.00878036,-38.62890124,35.47240098,-176.649726,0.79673099,-0.6946725766,-0.5028686822,0.172526452,-0.3432280234,-0.3285683128,0.003
08:24:39,0.1161434,-0.64172354,0.808295695,0.374800825,-0.35916061,-0.02940252,-0.00973369,-38.62810221,35.478368045,-176.65766399999998,0.7937881725,-0.70108493515,-0.50136054505,0.1732905805,-0.34107153235,-0.3297387612,0.003
08:24:39,0.1167502,-0.64857032,0.80409981,0.37572235,-0.35692338,-0.02861416,-0.01068702,-38.62730318,35.48433511,-176.665602,0.7908453550000001,-0.7074972937,-0.4998524078999999,0.174054709,-0.3389150413,-0.3309092096,0.003
08:24:39,0.117357,-0.6554171,0.799903925,0.3766438749999999,-0.35468615,-0.0278258,-0.01164035,-38.62650415,35.490302175000004,-176.67354,0.7879025375,-0.71390965225,-0.49834427075,0.1748188375,-0.33675855025,-0.332079658,0.003
08:24:39,0.1179638,-0.66226388,0.79570804,0.3775654,-0.35244892,-0.02703744,-0.01259368,-38.62570512,35.496269240000004,-176.681478,0.78495972,-0.7203220108,-0.4968361336,0.175582966,-0.3346020592,-0.3332501063999999,0.003
08:24:39,0.1185706,-0.6691106600000001,0.7915121549999999,0.378486925,-0.35021169,-0.02624908,-0.01354701,-38.62490609,35.502236305000004,-176.689416,0.7820169025,-0.72673436935,-0.49532799645,0.1763470945,-0.33244556815,-0.3344205548,0.003
08:24:39,0.1191774,-0.67595744,0.7873162699999999,0.37940845,-0.34797446,-0.02546072,-0.01450034,-38.62410706,35.508203370000004,-176.697354,0.779074085,-0.7331467279,-0.4938198593,0.1771112229999999,-0.3302890771,-0.3355910032,0.003
08:24:39,0.1197842,-0.6828042200000001,0.7831203849999999,0.380329975,-0.34573723,-0.02467236,-0.01545367,-38.62330803,35.514170435000004,-176.705292,0.7761312675,-0.73955908645,-0.4923117221499999,0.1778753515,-0.32813258605,-0.3367614516,0.003
08:24:39,0.120391,-0.689651,0.7789245,0.3812514999999999,-0.3435,-0.023884,-0.016407,-38.622509,35.520137500000004,-176.71323,0.77318845,-0.745971445,-0.490803585,0.17863948,-0.325976095,-0.3379319,0.003
08:24:39,0.1209978,-0.6964977800000001,0.7747286149999999,0.382173025,-0.34126277,-0.02309564,-0.01736033,-38.62170997,35.526104565,-176.721168,0.7702456325,-0.75238380355,-0.48929544785,0.1794036085,-0.32381960395,-0.3391023484,0.003
08:24:39,0.1216046,-0.70334456,0.77053273,0.38309455,-0.33902554,-0.02230728,-0.01831366,-38.62091094,35.53207163,-176.729106,0.7673028150000001,-0.7587961621,-0.4877873107,0.180167737,-0.3216631129,-0.3402727968,0.003
08:24:39,0.1222114,-0.7101913400000001,0.7663368449999999,0.384016075,-0.33678831,-0.02151892,-0.01926699,-38.62011191,35.538038695,-176.737044,0.7643599975,-0.76520852065,-0.48627917355,0.1809318655,-0.31950662185,-0.3414432452,0.003
08:24:39,0.1228182,-0.71703812,0.76214096,0.3849376,-0.33455108,-0.02073056,-0.02022032,-38.61931288,35.54400576,-176.744982,0.76141718,-0.7716208792,-0.4847710363999999,0.181695994,-0.3173501308,-0.3426136936,0.003
08:24:39,0.123425,-0.7238849,0.757945075,0.3858591249999999,-0.33231385,-0.0199422,-0.02117365,-38.61851385,35.549972825,-176.75292,0.7584743625,-0.77803323775,-0.48326289925,0.1824601225,-0.31519363975,-0.343784142,0.003
08:24:39,0.1240318,-0.73073168,0.75374919,0.38678065,-0.33007662,-0.01915384,-0.02212698,-38.61771482,35.55593989,-176.76085799999998,0.755531545,-0.7844455963,-0.4817547621,0.183224251,-0.3130371487,-0.3449545904,0.003
08:24:39,0.1246386,-0.73757846,0.749553305,0.387702175,-0.32783939,-0.01836548,-0.02308031,-38.61691579,35.561906955,-176.768796,0.7525887275,-0.79085795485,-0.48024662495,0.1839883795,-0.31088065765,-0.3461250388,0.003
08:24:39,0.1252454,-0.74442524,0.7453574199999999,0.3886237,-0.32560216,-0.01757712,-0.02403364,-38.61611676,35.56787402,-176.776734,0.74964591,-0.7972703134,-0.4787384878,0.184752508,-0.3087241666,-0.3472954872,0.003
08:24:39,0.1258522,-0.75127202,0.7411615349999999,0.389545225,-0.32336493,-0.01678876,-0.02498697,-38.61531773,35.573841085,-176.784672,0.7467030925,-0.80368267195,-0.4772303506499999,0.1855166365,-0.30656767555,-0.3484659356,0.003
08:24:39,0.126459,-0.7581188,0.7369656499999999,0.39046675,-0.3211277,-0.0160004,-0.0259403,-38.6145187,35.57980815,-176.79261,0.7437602750000001,-0.8100950305,-0.4757222135,0.186280765,-0.3044111845,-0.3496363839999999,0.003
08:24:39,0.1270658,-0.76496558,0.732769765,0.391388275,-0.31889047,-0.01521204,-0.02689363,-38.61371967,35.585775215,-176.800548,0.7408174575,-0.81650738905,-0.47421407635,0.1870448935,-0.30225469345,-0.3508068324,0.003
08:24:39,0.1276726,-0.7718123600000001,0.7285738799999999,0.3923098,-0.31665324,-0.01442368,-0.02784696,-38.61292064,35.59174228,-176.808486,0.73787464,-0.8229197476000001,-0.4727059392,0.187809022,-0.3000982024,-0.3519772808,0.003
08:24:39,0.1282794,-0.77865914,0.724377995,0.393231325,-0.31441601,-0.01363532,-0.02880029,-38.61212161,35.597709345,-176.81642399999998,0.7349318225,-0.8293321061500001,-0.47119780205,0.1885731505,-0.29794171135,-0.3531477292,0.003
08:24:39,0.1288862,-0.7855059200000001,0.7201821099999999,0.39415285,-0.31217878,-0.01284696,-0.02975362,-38.61132258,35.60367641,-176.824362,0.731989005,-0.8357444647000001,-0.4696896648999999,0.189337279,-0.2957852203,-0.3543181776,0.003
08:24:39,0.129493,-0.7923527,0.715986225,0.395074375,-0.30994155,-0.0120586,-0.03070695,-38.61052355,35.609643475,-176.8323,0.7290461875,-0.8421568232500001,-0.46818152775,0.1901014074999999,-0.29362872925,-0.355488626,0.003
08:24:39,0.1300998,-0.7991994800000001,0.71179034,0.3959959,-0.30770432,-0.01127024,-0.03166028,-38.60972452,35.61561054,-176.840238,0.72610337,-0.8485691818000001,-0.4666733906,0.190865536,-0.2914722382,-0.3566590744,0.003
08:24:39,0.1307066,-0.80604626,0.707594455,0.396917425,-0.30546709,-0.01048188,-0.03261361,-38.60892549,35.621577605,-176.848176,0.7231605525,-0.8549815403500001,-0.46516525345,0.1916296645,-0.28931574715,-0.3578295228,0.003
08:24:39,0.1313134,-0.8128930400000001,0.70339857,0.39783895,-0.30322986,-0.00969352,-0.03356694,-38.60812646,35.62754467,-176.856114,0.7202177350000001,-0.8613938989000001,-0.4636571163,0.192393793,-0.2871592561,-0.3589999712,0.003
08:24:39,0.1319202,-0.81973982,0.6992026849999999,0.398760475,-0.30099263,-0.00890516,-0.03452027,-38.60732743,35.633511735,-176.864052,0.7172749175,-0.8678062574500001,-0.4621489791499999,0.1931579215,-0.28500276505,-0.3601704196,0.003
08:24:39,0.132527,-0.8265866000000001,0.6950067999999999,0.399682,-0.2987554,-0.0081168,-0.0354736,-38.6065284,35.6394788,-176.87198999999998,0.7143321,-0.8742186160000001,-0.460640842,0.19392205,-0.282846274,-0.361340868,0.003
08:24:39,0.1331338,-0.83343338,0.6908109149999999,0.4006035249999999,-0.29651817,-0.00732844,-0.03642693,-38.60572937,35.645445865,-176.879928,0.7113892825,-0.8806309745500001,-0.45913270485,0.1946861785,-0.28068978295,-0.3625113164,0.003
08:24:39,0.1337406,-0.84028016,0.6866150299999999,0.40152505,-0.29428094,-0.00654008,-0.03738026,-38.60493034,35.65141293,-176.887866,0.708446465,-0.8870433331,-0.4576245677,0.195450307,-0.2785332919,-0.3636817648,0.003
08:24:39,0.1343474,-0.84712694,0.682419145,0.402446575,-0.29204371,-0.00575172,-0.03833359,-38.60413131,35.657379995,-176.895804,0.7055036475,-0.89345569165,-0.45611643055,0.1962144355,-0.27637680085,-0.3648522132,0.003
08:24:39,0.1349542,-0.85397372,0.67822326,0.4033681,-0.28980648,-0.00496336,-0.03928692,-38.60333228,35.66334706,-176.903742,0.70256083,-0.8998680502,-0.4546082934,0.196978564,-0.2742203098,-0.3660226615999999,0.003
08:24:39,0.135561,-0.8608205,0.674027375,0.404289625,-0.28756925,-0.004175,-0.04024025,-38.60253325,35.669314125,-176.91168,0.6996180125,-0.90628040875,-0.45310015625,0.1977426925,-0.27206381875,-0.36719311,0.003
08:24:39,0.1361678,-0.86766728,0.66983149,0.4052111499999999,-0.28533202,-0.00338664,-0.04119358,-38.60173422,35.67528119,-176.919618,0.6966751950000001,-0.9126927673,-0.4515920191,0.198506821,-0.2699073277,-0.3683635584,0.003
08:24:39,0.1367746,-0.87451406,0.665635605,0.406132675,-0.28309479,-0.00259828,-0.04214691,-38.60093519,35.681248255,-176.92755599999998,0.6937323775,-0.91910512585,-0.45008388195,0.1992709495,-0.26775083665,-0.3695340068,0.003
08:24:39,0.1373814,-0.88136084,0.66143972,0.4070542,-0.28085756,-0.00180992,-0.04310024,-38.60013616,35.68721532,-176.935494,0.69078956,-0.9255174844,-0.4485757448,0.200035078,-0.2655943456,-0.3707044552,0.003
08:24:39,0.1379882,-0.8882076200000001,0.6572438349999999,0.407975725,-0.27862033,-0.00102156,-0.04405357,-38.59933713,35.693182385,-176.943432,0.6878467425,-0.93192984295,-0.44706760765,0.2007992065,-0.26343785455,-0.3718749036,0.003
08:24:39,0.138595,-0.8950544,0.6530479499999999,0.40889725,-0.2763831,-0.0002332,-0.0450069,-38.5985381,35.69914945,-176.95137,0.684903925,-0.9383422015,-0.4455594705,0.201563335,-0.2612813635,-0.373045352,0.003
08:24:39,0.1392018,-0.90190118,0.6488520649999999,0.4098187749999999,-0.27414587,0.0005551599999999,-0.04596023,-38.59773907,35.705116515,-176.959308,0.6819611075,-0.94475456005,-0.44405133335,0.2023274635,-0.25912487245,-0.3742158004,0.003
08:24:39,0.1398086,-0.90874796,0.6446561799999999,0.4107403,-0.27190864,0.0013435199999999,-0.04691356,-38.59694004,35.71108358,-176.967246,0.67901829,-0.9511669186,-0.4425431962,0.203091592,-0.2569683814,-0.3753862488,0.003
08:24:39,0.1404154,-0.91559474,0.6404602949999999,0.411661825,-0.26967141,0.0021318799999999,-0.04786689,-38.59614101,35.717050645,-176.97518399999998,0.6760754725,-0.95757927715,-0.44103505905,0.2038557205,-0.25481189035,-0.3765566972,0.003
08:24:39,0.1410222,-0.92244152,0.63626441,0.41258335,-0.26743418,0.0029202399999999,-0.04882022,-38.59534198,35.72301771,-176.98312199999998,0.6731326550000001,-0.9639916357,-0.4395269219,0.204619849,-0.2526553993,-0.3777271456,0.003
08:24:39,0.141629,-0.9292883,0.632068525,0.413504875,-0.26519695,0.0037085999999999,-0.04977355,-38.59454295,35.728984775,-176.99106,0.6701898375,-0.97040399425,-0.43801878475,0.2053839775,-0.25049890825,-0.378897594,0.003
08:24:39,0.1422358,-0.93613508,0.62787264,0.4144264,-0.26295972,0.0044969599999999,-0.05072688,-38.59374392,35.73495184,-176.998998,0.66724702,-0.9768163528,-0.4365106476,0.206148106,-0.2483424172,-0.3800680424,0.003
08:24:39,0.1428426,-0.94298186,0.623676755,0.4153479249999999,-0.26072249,0.0052853199999999,-0.05168021,-38.59294489,35.740918905,-177.006936,0.6643042025,-0.98322871135,-0.43500251045,0.2069122345,-0.24618592615,-0.3812384908,0.003
08:24:39,0.1434494,-0.94982864,0.61948087,0.41626945,-0.25848526,0.0060736799999999,-0.05263354,-38.59214586,35.74688597,-177.014874,0.661361385,-0.9896410699,-0.4334943733,0.207676363,-0.2440294351,-0.3824089391999999,0.003
08:24:39,0.1440562,-0.95667542,0.615284985,0.417190975,-0.25624803,0.00686204,-0.05358687,-38.59134683,35.752853035,-177.022812,0.6584185675,-0.99605342845,-0.43198623615,0.2084404915,-0.2418729440499999,-0.3835793876,0.003
08:24:39,0.1446629999999999,-0.9635222,0.6110890999999999,0.4181125,-0.2540108,0.0076503999999999,-0.0545402,-38.5905478,35.7588201,-177.03074999999998,0.65547575,-1.002465787,-0.430478099,0.20920462,-0.239716453,-0.384749836,0.003
08:24:39,0.1452698,-0.97036898,0.6068932149999999,0.419034025,-0.25177357,0.0084387599999999,-0.05549353,-38.58974877,35.764787165,-177.03868799999998,0.6525329325,-1.00887814555,-0.42896996185,0.2099687485,-0.23755996195,-0.3859202844,0.003
08:24:39,0.1458766,-0.97721576,0.6026973299999999,0.4199555499999999,-0.24953634,0.0092271199999999,-0.05644686,-38.58894974,35.77075423,-177.046626,0.6495901150000001,-1.0152905041,-0.4274618247,0.2107328769999999,-0.2354034709,-0.3870907328,0.003
08:24:39,0.1464833999999999,-0.98406254,0.5985014449999999,0.420877075,-0.24729911,0.0100154799999999,-0.05740019,-38.58815071,35.776721295,-177.054564,0.6466472975,-1.02170286265,-0.42595368755,0.2114970055,-0.2332469798499999,-0.3882611811999999,0.003
08:24:39,0.1470902,-0.99090932,0.59430556,0.4217986,-0.24506188,0.0108038399999999,-0.05835352,-38.58735168,35.78268836,-177.062502,0.64370448,-1.0281152212,-0.4244455504,0.212261134,-0.2310904888,-0.3894316296,0.003
08:24:39,0.147697,-0.9977561,0.590109675,0.422720125,-0.2428246499999999,0.0115921999999999,-0.05930685,-38.58655265,35.788655425,-177.07044,0.6407616625,-1.0345275797500002,-0.42293741325,0.2130252625,-0.22893399775,-0.390602078,0.003
08:24:39,0.1483037999999999,-1.00460288,0.58591379,0.42364165,-0.24058742,0.0123805599999999,-0.06026018,-38.58575362,35.79462249,-177.078378,0.637818845,-1.0409399383000002,-0.4214292761,0.213789391,-0.2267775067,-0.3917725264,0.003
08:24:39,0.1489106,-1.01144966,0.581717905,0.4245631749999999,-0.23835019,0.0131689199999999,-0.06121351,-38.58495459,35.800589555,-177.08631599999998,0.6348760275,-1.0473522968500002,-0.41992113895,0.2145535195,-0.2246210156499999,-0.3929429748,0.003
08:24:39,0.1495174,-1.01829644,0.57752202,0.4254847,-0.2361129599999999,0.0139572799999999,-0.06216684,-38.58415556,35.80655662,-177.09425399999998,0.63193321,-1.0537646554000002,-0.4184130018,0.215317648,-0.2224645246,-0.3941134232,0.003
08:24:39,0.1501241999999999,-1.02514322,0.573326135,0.426406225,-0.23387573,0.0147456399999999,-0.06312017,-38.58335653,35.812523685,-177.102192,0.6289903925,-1.0601770139500002,-0.41690486465,0.2160817765,-0.22030803355,-0.3952838716,0.003
08:24:39,0.150731,-1.03199,0.56913025,0.42732775,-0.2316385,0.0155339999999999,-0.0640735,-38.5825575,35.81849075,-177.11013,0.6260475750000001,-1.0665893725000002,-0.4153967275,0.216845905,-0.2181515425,-0.39645432,0.003
08:24:39,0.1513378,-1.03883678,0.5649343649999999,0.428249275,-0.22940127,0.0163223599999999,-0.06502683,-38.58175847,35.824457815,-177.118068,0.6231047575,-1.0730017310500002,-0.41388859035,0.2176100335,-0.2159950514499999,-0.3976247684,0.003
08:24:39,0.1519445999999999,-1.0456835599999998,0.5607384799999999,0.4291707999999999,-0.22716404,0.0171107199999999,-0.06598016,-38.58095944,35.83042488,-177.126006,0.62016194,-1.0794140896000002,-0.4123804532,0.218374162,-0.2138385604,-0.3987952168,0.003
08:24:39,0.1525514,-1.05253034,0.5565425949999999,0.430092325,-0.2249268099999999,0.0178990799999999,-0.06693349,-38.58016041,35.836391945,-177.133944,0.6172191225,-1.0858264481500002,-0.41087231605,0.2191382905,-0.21168206935,-0.3999656652,0.003
08:24:39,0.1531582,-1.05937712,0.5523467099999999,0.43101385,-0.22268958,0.01868744,-0.06788682,-38.57936138,35.84235901,-177.14188199999998,0.614276305,-1.0922388067000002,-0.4093641789,0.219902419,-0.2095255783,-0.4011361136,0.003
08:24:39,0.1537649999999999,-1.0662239,0.548150825,0.431935375,-0.22045235,0.0194757999999999,-0.06884015,-38.57856235,35.848326075,-177.14981999999998,0.6113334875,-1.0986511652500002,-0.40785604175,0.2206665475,-0.2073690872499999,-0.402306562,0.003
08:24:39,0.1543718,-1.0730706799999998,0.54395494,0.4328569,-0.2182151199999999,0.0202641599999999,-0.06979348,-38.57776332,35.85429314,-177.157758,0.60839067,-1.1050635238,-0.4063479046,0.221430676,-0.2052125961999999,-0.4034770104,0.003
08:24:39,0.1549786,-1.07991746,0.539759055,0.4337784249999999,-0.21597789,0.0210525199999999,-0.07074681,-38.57696429,35.860260205,-177.165696,0.6054478525,-1.11147588235,-0.40483976745,0.2221948045,-0.20305610515,-0.4046474587999999,0.003
08:24:39,0.1555853999999999,-1.08676424,0.53556317,0.43469995,-0.21374066,0.0218408799999999,-0.07170014,-38.57616526,35.86622727,-177.173634,0.6025050350000001,-1.1178882409,-0.4033316303,0.222958933,-0.2008996141,-0.4058179072,0.003
08:24:39,0.1561922,-1.09361102,0.531367285,0.435621475,-0.21150343,0.0226292399999999,-0.07265347,-38.57536623,35.872194335,-177.181572,0.5995622175,-1.12430059945,-0.40182349315,0.2237230615,-0.1987431230499999,-0.4069883556,0.003
08:24:39,0.156799,-1.1004577999999998,0.5271714,0.436543,-0.2092662,0.0234175999999999,-0.0736068,-38.5745672,35.8781614,-177.18950999999998,0.5966194,-1.130712958,-0.400315356,0.22448719,-0.1965866319999999,-0.408158804,0.003
08:24:39,0.1574057999999999,-1.10730458,0.522975515,0.437464525,-0.2070289699999999,0.02420596,-0.07456013,-38.57376817,35.884128465,-177.19744799999998,0.5936765825,-1.1371253165500002,-0.39880721885,0.2252513185,-0.19443014095,-0.4093292524,0.003
08:24:39,0.1580126,-1.11415136,0.5187796299999999,0.4383860499999999,-0.20479174,0.0249943199999999,-0.07551346,-38.57296914,35.89009553,-177.20538599999998,0.590733765,-1.1435376751000002,-0.3972990817,0.226015447,-0.1922736499,-0.4104997008,0.003
08:24:39,0.1586194,-1.12099814,0.5145837449999999,0.4393075749999999,-0.20255451,0.02578268,-0.07646679,-38.57217011,35.896062595000004,-177.213324,0.5877909475,-1.14995003365,-0.39579094455,0.2267795755,-0.19011715885,-0.4116701492,0.003
08:24:39,0.1592261999999999,-1.12784492,0.5103878599999999,0.4402291,-0.20031728,0.0265710399999999,-0.07742012,-38.57137108,35.902029660000004,-177.221262,0.58484813,-1.1563623922,-0.3942828074,0.227543704,-0.1879606677999999,-0.4128405976,0.003
08:24:39,0.159833,-1.1346917,0.5061919749999999,0.441150625,-0.19808005,0.0273594,-0.07837345,-38.57057205,35.907996725000004,-177.2292,0.5819053125,-1.16277475075,-0.39277467025,0.2283078325,-0.18580417675,-0.414011046,0.003
08:24:39,0.1604398,-1.14153848,0.50199609,0.44207215,-0.1958428199999999,0.0281477599999999,-0.07932678,-38.56977302,35.91396379,-177.237138,0.5789624950000001,-1.1691871093,-0.3912665331,0.229071961,-0.1836476857,-0.4151814944,0.003
08:24:39,0.1610465999999999,-1.14838526,0.497800205,0.442993675,-0.19360559,0.0289361199999999,-0.08028011,-38.56897399,35.919930855000004,-177.24507599999998,0.5760196775,-1.17559946785,-0.38975839595,0.2298360895,-0.18149119465,-0.4163519428,0.003
08:24:39,0.1616534,-1.15523204,0.49360432,0.4439151999999999,-0.19136836,0.0297244799999999,-0.08123344,-38.56817496,35.92589792,-177.25301399999998,0.57307686,-1.1820118264,-0.3882502588,0.230600218,-0.1793347035999999,-0.4175223912,0.003
08:24:39,0.1622602,-1.1620788199999998,0.489408435,0.444836725,-0.1891311299999999,0.0305128399999999,-0.08218677,-38.56737593,35.931864985,-177.260952,0.5701340425,-1.18842418495,-0.38674212165,0.2313643464999999,-0.17717821255,-0.4186928396,0.003
08:24:39,0.1628669999999999,-1.1689256,0.4852125499999999,0.44575825,-0.1868939,0.0313012,-0.0831401,-38.5665769,35.93783205,-177.26889,0.567191225,-1.1948365435,-0.3852339845,0.232128475,-0.1750217215,-0.419863288,0.003
08:24:39,0.1634738,-1.17577238,0.4810166649999999,0.446679775,-0.18465667,0.0320895599999999,-0.08409343,-38.56577787,35.943799115,-177.276828,0.5642484075,-1.20124890205,-0.38372584735,0.2328926035,-0.17286523045,-0.4210337363999999,0.003
08:24:39,0.1640806,-1.18261916,0.4768207799999999,0.4476013,-0.18241944,0.03287792,-0.08504676,-38.56497884,35.94976618,-177.284766,0.56130559,-1.2076612606,-0.3822177102,0.233656732,-0.1707087393999999,-0.4222041848,0.003
08:24:39,0.1646873999999999,-1.1894659399999998,0.4726248949999999,0.4485228249999999,-0.18018221,0.0336662799999999,-0.08600009,-38.56417981,35.955733245,-177.292704,0.5583627725,-1.21407361915,-0.38070957305,0.2344208605,-0.16855224835,-0.4233746332,0.003
08:24:39,0.1652942,-1.19631272,0.4684290099999999,0.44944435,-0.1779449799999999,0.0344546399999999,-0.08695342,-38.56338078,35.96170031,-177.30064199999998,0.5554199550000001,-1.2204859777,-0.3792014359,0.235184989,-0.1663957573,-0.4245450816,0.003
08:24:39,0.165901,-1.2031595,0.4642331249999999,0.450365875,-0.17570775,0.035243,-0.08790675,-38.56258175,35.967667375,-177.30857999999998,0.5524771375,-1.22689833625,-0.37769329875,0.2359491175,-0.16423926625,-0.42571553,0.003
08:24:39,0.1665077999999999,-1.21000628,0.4600372399999999,0.4512874,-0.17347052,0.0360313599999999,-0.08886008,-38.56178272,35.97363444,-177.316518,0.54953432,-1.2333106948,-0.3761851616,0.236713246,-0.1620827751999999,-0.4268859784,0.003
08:24:39,0.1671146,-1.21685306,0.455841355,0.452208925,-0.1712332899999999,0.03681972,-0.08981341,-38.56098369,35.979601505,-177.324456,0.5465915025,-1.23972305335,-0.37467702445,0.2374773745,-0.15992628415,-0.4280564268,0.003
08:24:39,0.1677214,-1.22369984,0.45164547,0.4531304499999999,-0.16899606,0.0376080799999999,-0.09076674,-38.56018466,35.98556857,-177.332394,0.543648685,-1.2461354119,-0.3731688873,0.238241503,-0.1577697931,-0.4292268752,0.003
08:24:39,0.1683281999999999,-1.23054662,0.447449585,0.454051975,-0.1667588299999999,0.03839644,-0.09172007,-38.55938563,35.991535635,-177.340332,0.5407058675,-1.25254777045,-0.37166075015,0.2390056314999999,-0.15561330205,-0.4303973236,0.003
08:24:39,0.168935,-1.2373934,0.4432537,0.4549735,-0.1645216,0.0391847999999999,-0.0926734,-38.5585866,35.9975027,-177.34827,0.53776305,-1.258960129,-0.370152613,0.23976976,-0.1534568109999999,-0.431567772,0.003
08:24:39,0.1695418,-1.24424018,0.4390578149999999,0.455895025,-0.16228437,0.0399731599999999,-0.09362673,-38.55778757,36.003469765,-177.35620799999998,0.5348202325,-1.26537248755,-0.36864447585,0.2405338885,-0.1513003199499999,-0.4327382204,0.003
08:24:39,0.1701485999999999,-1.25108696,0.4348619299999999,0.45681655,-0.1600471399999999,0.0407615199999999,-0.09458006,-38.55698854,36.00943683,-177.36414599999998,0.5318774150000001,-1.2717848461,-0.3671363387,0.241298017,-0.1491438289,-0.4339086688,0.003
08:24:39,0.1707554,-1.25793374,0.4306660449999999,0.4577380749999999,-0.15780991,0.0415498799999999,-0.09553339,-38.55618951,36.015403895,-177.372084,0.5289345975,-1.27819720465,-0.36562820155,0.2420621455,-0.14698733785,-0.4350791172,0.003
08:24:39,0.1713622,-1.26478052,0.4264701599999999,0.4586596,-0.15557268,0.04233824,-0.09648672,-38.55539048,36.02137096,-177.380022,0.52599178,-1.2846095632,-0.3641200644,0.242826274,-0.1448308467999999,-0.4362495656,0.003
08:24:39,0.1719689999999999,-1.2716273,0.4222742749999999,0.459581125,-0.1533354499999999,0.0431265999999999,-0.09744005,-38.55459145,36.027338025,-177.38796,0.5230489625,-1.29102192175,-0.36261192725,0.2435904025,-0.1426743557499999,-0.4374200139999999,0.003
08:24:39,0.1725758,-1.2784740799999998,0.4180783899999999,0.46050265,-0.15109822,0.04391496,-0.09839338,-38.55379242,36.03330509,-177.395898,0.520106145,-1.2974342803,-0.3611037901,0.2443545309999999,-0.1405178647,-0.4385904624,0.003
08:24:39,0.1731826,-1.28532086,0.413882505,0.461424175,-0.1488609899999999,0.0447033199999999,-0.09934671,-38.55299339,36.039272155,-177.40383599999998,0.5171633275,-1.30384663885,-0.35959565295,0.2451186595,-0.13836137365,-0.4397609108,0.003
08:24:39,0.1737893999999999,-1.29216764,0.40968662,0.4623456999999999,-0.14662376,0.04549168,-0.10030004,-38.55219436,36.04523922,-177.41177399999998,0.51422051,-1.3102589974,-0.3580875158,0.245882788,-0.1362048825999999,-0.4409313592,0.003
08:24:39,0.1743962,-1.29901442,0.405490735,0.4632672249999999,-0.14438653,0.0462800399999999,-0.10125337,-38.55139533,36.051206285,-177.41971199999998,0.5112776925,-1.31667135595,-0.35657937865,0.2466469165,-0.1340483915499999,-0.4421018076,0.003
08:24:39,0.175003,-1.3058611999999998,0.40129485,0.46418875,-0.1421492999999999,0.0470683999999999,-0.1022067,-38.5505963,36.05717335,-177.42765,0.5083348750000001,-1.3230837145,-0.3550712415,0.247411045,-0.1318919005,-0.443272256,0.003
08:24:39,0.1756097999999999,-1.31270798,0.3970989649999999,0.465110275,-0.13991207,0.04785676,-0.10316003,-38.54979727,36.063140415,-177.435588,0.5053920575,-1.32949607305,-0.35356310435,0.2481751735,-0.12973540945,-0.4444427044,0.003
08:24:39,0.1762166,-1.31955476,0.3929030799999999,0.4660318,-0.1376748399999999,0.0486451199999999,-0.10411336,-38.54899824,36.06910748,-177.443526,0.50244924,-1.3359084316,-0.3520549672,0.248939302,-0.1275789184,-0.4456131528,0.003
08:24:39,0.1768234,-1.32640154,0.3887071949999999,0.466953325,-0.1354376099999999,0.04943348,-0.10506669,-38.54819921,36.075074545,-177.451464,0.4995064225,-1.34232079015,-0.35054683005,0.2497034305,-0.1254224273499999,-0.4467836012,0.003
08:24:39,0.1774301999999999,-1.33324832,0.3845113099999999,0.4678748499999999,-0.13320038,0.0502218399999999,-0.10602002,-38.54740018,36.08104161,-177.45940199999998,0.4965636049999999,-1.3487331487,-0.3490386929,0.250467559,-0.1232659362999999,-0.4479540496,0.003
08:24:39,0.178037,-1.3400951,0.3803154249999999,0.468796375,-0.1309631499999999,0.0510102,-0.10697335,-38.54660115,36.087008675,-177.46733999999998,0.4936207875,-1.35514550725,-0.34753055575,0.2512316875,-0.12110944525,-0.449124498,0.003
08:24:39,0.1786438,-1.34694188,0.3761195399999999,0.4697179,-0.12872592,0.0517985599999999,-0.10792668,-38.54580212,36.09297574,-177.47527799999995,0.49067797,-1.3615578658,-0.3460224186,0.251995816,-0.1189529542,-0.4502949464,0.003
08:24:39,0.1792505999999999,-1.35378866,0.3719236549999999,0.470639425,-0.12648869,0.0525869199999999,-0.10888001,-38.54500309,36.098942805,-177.483216,0.4877351525,-1.36797022435,-0.34451428145,0.2527599445,-0.1167964631499999,-0.4514653948,0.003
08:24:39,0.1798574,-1.36063544,0.36772777,0.47156095,-0.1242514599999999,0.05337528,-0.10983334,-38.54420406,36.10490987,-177.491154,0.4847923350000001,-1.3743825829,-0.3430061443,0.253524073,-0.1146399720999999,-0.4526358432,0.003
08:24:39,0.1804642,-1.36748222,0.363531885,0.4724824749999999,-0.12201423,0.0541636399999999,-0.11078667,-38.54340503,36.110876935,-177.499092,0.4818495175,-1.38079494145,-0.34149800715,0.2542882015,-0.11248348105,-0.4538062916,0.003
08:24:40,0.181071,-1.374329,0.359336,0.473404,-0.119777,0.054952,-0.11174,-38.542606,36.116844,-177.50703,0.4789067,-1.3872073,-0.33998987,0.25505233,-0.11032699,-0.45497674,0.003
08:24:40,0.1775095,-1.36951681,0.366767695,0.47242388,-0.12041088,0.054616415,-0.087479405,-38.550596455,36.110238545,-177.46448729999997,0.4827971075,-1.383651618,-0.34143349465,0.25466031695,-0.11087189155,-0.45394571145,0.003
08:24:40,0.173948,-1.36470462,0.3741993899999999,0.47144376,-0.12104476,0.05428083,-0.06321881,-38.55858691,36.10363309,-177.4219446,0.486687515,-1.380095936,-0.3428771193,0.2542683039,-0.1114167931,-0.4529146829,0.003
08:24:40,0.1703865,-1.35989243,0.381631085,0.47046364,-0.1216786399999999,0.053945245,-0.038958215,-38.566577365,36.097027635,-177.37940189999998,0.4905779225,-1.376540254,-0.34432074395,0.25387629085,-0.11196169465,-0.45188365435,0.003
08:24:40,0.166825,-1.35508024,0.38906278,0.46948352,-0.12231252,0.05360966,-0.01469762,-38.57456782,36.09042218,-177.3368592,0.49446833,-1.372984572,-0.3457643686,0.2534842778,-0.1125065962,-0.4508526258,0.003
08:24:40,0.1632635,-1.35026805,0.396494475,0.4685034,-0.1229464,0.053274075,0.0095629749999999,-38.582558275,36.083816725,-177.29431649999998,0.4983587375,-1.36942889,-0.34720799325,0.25309226475,-0.11305149775,-0.44982159725,0.003
08:24:40,0.159702,-1.34545586,0.40392617,0.46752328,-0.12358028,0.05293849,0.03382357,-38.59054873,36.07721127,-177.2517738,0.5022491450000001,-1.365873208,-0.3486516179,0.2527002517,-0.1135963993,-0.4487905687,0.003
08:24:40,0.1561405,-1.34064367,0.411357865,0.46654316,-0.1242141599999999,0.052602905,0.0580841649999999,-38.598539185,36.070605815,-177.20923109999998,0.5061395525,-1.362317526,-0.35009524255,0.25230823865,-0.11414130085,-0.4477595401499999,0.003
08:24:40,0.152579,-1.33583148,0.41878956,0.46556304,-0.12484804,0.05226732,0.0823447599999999,-38.60652964,36.06400036,-177.1666884,0.51002996,-1.358761844,-0.3515388672,0.2519162256,-0.1146862024,-0.4467285116,0.003
08:24:40,0.1490175,-1.33101929,0.4262212549999999,0.46458292,-0.12548192,0.051931735,0.1066053549999999,-38.614520095,36.057394905,-177.1241457,0.5139203675,-1.355206162,-0.35298249185,0.25152421255,-0.11523110395,-0.44569748305,0.003
08:24:40,0.145456,-1.3262071,0.43365295,0.4636028,-0.1261158,0.05159615,0.1308659499999999,-38.62251055,36.05078945,-177.08160299999997,0.5178107750000001,-1.35165048,-0.3544261165,0.2511321995,-0.1157760055,-0.4446664545,0.003
08:24:40,0.1418945,-1.32139491,0.441084645,0.46262268,-0.12674968,0.051260565,0.155126545,-38.630501005,36.044183995,-177.0390603,0.5217011825,-1.348094798,-0.35586974115,0.25074018645,-0.11632090705,-0.44363542595,0.003
08:24:40,0.138333,-1.31658272,0.4485163399999999,0.46164256,-0.12738356,0.05092498,0.17938714,-38.63849146,36.03757854,-176.99651759999998,0.52559159,-1.344539116,-0.3573133658,0.2503481734,-0.1168658086,-0.4426043974,0.003
08:24:40,0.1347715,-1.31177053,0.455948035,0.46066244,-0.1280174399999999,0.050589395,0.203647735,-38.646481915,36.030973085,-176.9539749,0.5294819975,-1.340983434,-0.35875699045,0.2499561603499999,-0.11741071015,-0.44157336885,0.003
08:24:40,0.13121,-1.30695834,0.46337973,0.45968232,-0.1286513199999999,0.05025381,0.22790833,-38.65447237,36.02436763,-176.91143219999998,0.533372405,-1.337427752,-0.3602006151,0.2495641472999999,-0.1179556117,-0.4405423403,0.003
08:24:40,0.1276485,-1.30214615,0.470811425,0.4587022,-0.1292852,0.049918225,0.252168925,-38.662462825,36.017762175,-176.8688895,0.5372628125000001,-1.33387207,-0.36164423975,0.2491721342499999,-0.11850051325,-0.4395113117499999,0.003
08:24:40,0.124087,-1.29733396,0.47824312,0.45772208,-0.12991908,0.04958264,0.27642952,-38.67045328,36.01115672,-176.82634679999998,0.54115322,-1.330316388,-0.3630878644,0.2487801211999999,-0.1190454148,-0.4384802832,0.003
08:24:40,0.1205255,-1.29252177,0.485674815,0.45674196,-0.13055296,0.049247055,0.300690115,-38.678443735,36.004551265,-176.7838041,0.5450436275,-1.326760706,-0.36453148905,0.24838810815,-0.11959031635,-0.43744925465,0.003
08:24:40,0.116964,-1.28770958,0.49310651,0.45576184,-0.13118684,0.04891147,0.32495071,-38.68643419,35.99794581,-176.74126139999998,0.548934035,-1.323205024,-0.3659751137,0.2479960951,-0.1201352179,-0.4364182261,0.003
08:24:40,0.1134025,-1.28289739,0.500538205,0.45478172,-0.13182072,0.048575885,0.3492113049999999,-38.694424645,35.991340355,-176.6987187,0.5528244425000001,-1.319649342,-0.36741873835,0.24760408205,-0.12068011945,-0.43538719755,0.003
08:24:40,0.109841,-1.2780852,0.5079699,0.4538015999999999,-0.1324546,0.0482403,0.3734718999999999,-38.7024151,35.9847349,-176.656176,0.55671485,-1.31609366,-0.368862363,0.247212069,-0.121225021,-0.434356169,0.003
08:24:40,0.1062795,-1.27327301,0.5154015949999999,0.45282148,-0.1330884799999999,0.047904715,0.397732495,-38.710405555,35.978129445,-176.61363329999998,0.5606052575,-1.312537978,-0.37030598765,0.24682005595,-0.12176992255,-0.43332514045,0.003
08:24:40,0.102718,-1.26846082,0.52283329,0.4518413599999999,-0.1337223599999999,0.04756913,0.42199309,-38.71839601,35.97152399,-176.5710906,0.564495665,-1.308982296,-0.3717496123,0.2464280429,-0.1223148241,-0.4322941119,0.003
08:24:40,0.0991565,-1.2636486299999998,0.530264985,0.45086124,-0.13435624,0.047233545,0.446253685,-38.726386465,35.964918535,-176.52854789999998,0.5683860725000001,-1.305426614,-0.37319323695,0.24603602985,-0.12285972565,-0.4312630833499999,0.003
08:24:40,0.095595,-1.2588364399999998,0.53769668,0.44988112,-0.13499012,0.04689796,0.47051428,-38.73437692,35.95831308,-176.4860052,0.57227648,-1.301870932,-0.3746368616,0.2456440168,-0.1234046272,-0.4302320548,0.003
08:24:40,0.0920335,-1.2540242499999998,0.545128375,0.448901,-0.135624,0.046562375,0.494774875,-38.742367375,35.951707625,-176.44346249999998,0.5761668875,-1.29831525,-0.37608048625,0.24525200375,-0.12394952875,-0.42920102625,0.003
08:24:40,0.088472,-1.2492120599999998,0.55256007,0.4479208799999999,-0.13625788,0.04622679,0.5190354699999999,-38.75035783,35.94510217,-176.4009198,0.580057295,-1.294759568,-0.3775241109,0.2448599907,-0.1244944303,-0.4281699976999999,0.003
08:24:40,0.0849105,-1.24439987,0.559991765,0.44694076,-0.13689176,0.045891205,0.543296065,-38.758348285,35.938496715,-176.35837709999998,0.5839477025,-1.291203886,-0.37896773555,0.24446797765,-0.12503933185,-0.42713896915,0.003
08:24:40,0.081349,-1.23958768,0.56742346,0.44596064,-0.13752564,0.04555562,0.5675566599999999,-38.76633874,35.93189126,-176.3158344,0.5878381100000001,-1.287648204,-0.3804113602,0.2440759646,-0.1255842334,-0.4261079406,0.003
08:24:40,0.0777875,-1.23477549,0.5748551550000001,0.44498052,-0.1381595199999999,0.045220035,0.591817255,-38.774329195,35.925285805,-176.2732917,0.5917285175,-1.284092522,-0.38185498485,0.24368395155,-0.12612913495,-0.42507691205,0.003
08:24:40,0.074226,-1.2299633,0.58228685,0.4440004,-0.1387933999999999,0.04488445,0.6160778499999999,-38.78231965,35.91868035,-176.230749,0.595618925,-1.28053684,-0.3832986095,0.2432919385,-0.1266740365,-0.4240458835,0.003
08:24:40,0.0706645,-1.22515111,0.589718545,0.44302028,-0.13942728,0.044548865,0.640338445,-38.790310105,35.912074895,-176.1882063,0.5995093325,-1.276981158,-0.38474223415,0.24289992545,-0.12721893805,-0.42301485495,0.003
08:24:40,0.067103,-1.22033892,0.5971502399999999,0.44204016,-0.14006116,0.04421328,0.6645990399999999,-38.79830056,35.90546944,-176.14566359999998,0.6033997400000001,-1.273425476,-0.3861858588,0.2425079124,-0.1277638396,-0.4219838264,0.003
08:24:40,0.0635415,-1.21552673,0.604581935,0.44106004,-0.14069504,0.043877695,0.688859635,-38.806291015,35.898863985,-176.1031209,0.6072901475000001,-1.269869794,-0.38762948345,0.24211589935,-0.12830874115,-0.42095279785,0.003
08:24:40,0.05998,-1.21071454,0.61201363,0.44007992,-0.14132892,0.04354211,0.7131202299999999,-38.81428147,35.89225853,-176.06057819999998,0.611180555,-1.266314112,-0.3890731081,0.2417238863,-0.1288536427,-0.4199217692999999,0.003
08:24:40,0.0564185,-1.20590235,0.619445325,0.4390998,-0.1419628,0.043206525,0.737380825,-38.822271925,35.885653075,-176.0180355,0.6150709625,-1.26275843,-0.39051673275,0.24133187325,-0.12939854425,-0.41889074075,0.003
08:24:40,0.052857,-1.20109016,0.62687702,0.43811968,-0.14259668,0.0428709399999999,0.7616414199999999,-38.83026238,35.87904762,-175.97549279999998,0.6189613700000001,-1.259202748,-0.3919603574,0.2409398602,-0.1299434458,-0.4178597122,0.003
08:24:40,0.0492955,-1.19627797,0.634308715,0.43713956,-0.14323056,0.042535355,0.785902015,-38.838252835,35.872442165,-175.9329501,0.6228517775,-1.255647066,-0.39340398205,0.24054784715,-0.13048834735,-0.41682868365,0.003
08:24:40,0.045734,-1.19146578,0.6417404099999999,0.43615944,-0.1438644399999999,0.04219977,0.8101626099999999,-38.84624329,35.86583671,-175.8904074,0.626742185,-1.252091384,-0.3948476067,0.2401558341,-0.1310332489,-0.4157976551,0.003
08:24:40,0.0421725,-1.18665359,0.649172105,0.43517932,-0.1444983199999999,0.041864185,0.834423205,-38.854233745,35.859231255,-175.8478647,0.6306325925,-1.248535702,-0.39629123135,0.23976382105,-0.13157815045,-0.4147666265499999,0.003
08:24:40,0.038611,-1.1818414,0.6566038000000001,0.4341992,-0.1451322,0.0415286,0.8586837999999999,-38.8622242,35.8526258,-175.805322,0.6345230000000001,-1.24498002,-0.397734856,0.239371808,-0.132123052,-0.413735598,0.003
08:24:40,0.0350495,-1.17702921,0.664035495,0.43321908,-0.14576608,0.041193015,0.882944395,-38.870214655,35.846020345,-175.76277929999998,0.6384134075000001,-1.241424338,-0.39917848065,0.23897979495,-0.13266795355,-0.41270456945,0.003
08:24:40,0.031488,-1.17221702,0.67146719,0.43223896,-0.14639996,0.04085743,0.90720499,-38.87820511,35.83941489,-175.7202366,0.642303815,-1.237868656,-0.4006221053,0.2385877819,-0.1332128551,-0.4116735408999999,0.003
08:24:40,0.0279265,-1.16740483,0.678898885,0.43125884,-0.14703384,0.040521845,0.931465585,-38.886195565,35.832809435,-175.67769389999998,0.6461942225,-1.234312974,-0.40206572995,0.23819576885,-0.13375775665,-0.41064251235,0.003
08:24:40,0.024365,-1.16259264,0.68633058,0.43027872,-0.14766772,0.04018626,0.95572618,-38.89418602,35.82620398,-175.6351512,0.65008463,-1.230757292,-0.4035093546,0.2378037558,-0.1343026582,-0.4096114838,0.003
08:24:40,0.0208035,-1.15778045,0.693762275,0.4292986,-0.1483015999999999,0.039850675,0.979986775,-38.902176475,35.819598525,-175.59260849999998,0.6539750375000001,-1.22720161,-0.40495297925,0.23741174275,-0.13484755975,-0.40858045525,0.003
08:24:40,0.017242,-1.15296826,0.70119397,0.42831848,-0.1489354799999999,0.03951509,1.00424737,-38.91016693,35.81299307,-175.5500658,0.6578654450000001,-1.223645928,-0.4063966039,0.2370197297,-0.1353924613,-0.4075494267,0.003
08:24:40,0.0136805,-1.14815607,0.708625665,0.42733836,-0.1495693599999999,0.039179505,1.028507965,-38.918157385,35.806387615,-175.5075231,0.6617558525,-1.220090246,-0.40784022855,0.23662771665,-0.13593736285,-0.40651839815,0.003
08:24:40,0.010119,-1.14334388,0.71605736,0.42635824,-0.15020324,0.03884392,1.05276856,-38.92614784,35.79978216,-175.4649804,0.66564626,-1.216534564,-0.4092838532,0.2362357035999999,-0.1364822644,-0.4054873696,0.003
08:24:40,0.0065575,-1.13853169,0.7234890549999999,0.4253781199999999,-0.15083712,0.038508335,1.077029155,-38.934138295,35.793176705,-175.4224377,0.6695366675000001,-1.212978882,-0.41072747785,0.2358436905499999,-0.13702716595,-0.40445634105,0.003
08:24:40,0.002996,-1.1337195,0.73092075,0.424398,-0.151471,0.03817275,1.10128975,-38.94212875,35.78657125,-175.37989499999998,0.673427075,-1.2094232,-0.4121711025,0.2354516775,-0.1375720675,-0.4034253125,0.003
08:24:40,-0.0005654999999999,-1.12890731,0.7383524450000001,0.42341788,-0.15210488,0.037837165,1.125550345,-38.950119205,35.779965795,-175.3373523,0.6773174825,-1.205867518,-0.41361472715,0.2350596644499999,-0.13811696905,-0.40239428395,0.003
08:24:40,-0.0041269999999999,-1.12409512,0.74578414,0.42243776,-0.15273876,0.03750158,1.14981094,-38.95810966,35.77336034,-175.29480959999998,0.68120789,-1.202311836,-0.4150583518,0.2346676514,-0.1386618706,-0.4013632554,0.003
08:24:40,-0.0076884999999999,-1.11928293,0.753215835,0.4214576399999999,-0.15337264,0.037165995,1.174071535,-38.966100115,35.766754885,-175.2522669,0.6850982975000001,-1.198756154,-0.41650197645,0.2342756383499999,-0.13920677215,-0.40033222685,0.003
08:24:40,-0.0112499999999999,-1.11447074,0.76064753,0.42047752,-0.1540065199999999,0.03683041,1.19833213,-38.97409057,35.76014943,-175.20972419999998,0.6889887050000001,-1.195200472,-0.4179456011,0.2338836253,-0.1397516737,-0.3993011983,0.003
08:24:40,-0.0148114999999999,-1.10965855,0.768079225,0.4194974,-0.1546403999999999,0.036494825,1.222592725,-38.982081025,35.753543975,-175.1671815,0.6928791125,-1.19164479,-0.41938922575,0.23349161225,-0.14029657525,-0.39827016975,0.003
08:24:40,-0.0183729999999999,-1.10484636,0.77551092,0.41851728,-0.15527428,0.03615924,1.24685332,-38.99007148,35.74693852,-175.1246388,0.69676952,-1.188089108,-0.4208328504,0.2330995992,-0.1408414768,-0.3972391412,0.003
08:24:40,-0.0219344999999999,-1.10003417,0.7829426150000001,0.41753716,-0.15590816,0.0358236549999999,1.271113915,-38.998061935,35.740333065,-175.0820961,0.7006599275000001,-1.184533426,-0.42227647505,0.23270758615,-0.14138637835,-0.39620811265,0.003
08:24:40,-0.0254959999999999,-1.09522198,0.79037431,0.41655704,-0.15654204,0.03548807,1.29537451,-39.00605239,35.73372761,-175.0395534,0.7045503350000001,-1.180977744,-0.4237200997,0.2323155731,-0.1419312799,-0.3951770840999999,0.003
08:24:40,-0.0290574999999999,-1.0904097899999998,0.797806005,0.41557692,-0.15717592,0.035152485,1.319635105,-39.014042845,35.727122155,-174.9970107,0.7084407425000001,-1.177422062,-0.42516372435,0.23192356005,-0.14247618145,-0.39414605555,0.003
08:24:40,-0.0326189999999999,-1.0855975999999998,0.8052377,0.4145968,-0.1578098,0.0348169,1.3438957,-39.0220333,35.7205167,-174.954468,0.71233115,-1.17386638,-0.426607349,0.231531547,-0.143021083,-0.393115027,0.003
08:24:40,-0.0361804999999999,-1.0807854099999998,0.812669395,0.41361668,-0.1584436799999999,0.034481315,1.368156295,-39.030023755,35.713911245,-174.91192529999998,0.7162215575,-1.170310698,-0.42805097365,0.23113953395,-0.14356598455,-0.3920839984499999,0.003
08:24:40,-0.0397419999999999,-1.0759732199999998,0.8201010900000001,0.41263656,-0.15907756,0.03414573,1.39241689,-39.03801421,35.70730579,-174.8693826,0.7201119650000001,-1.166755016,-0.4294945983,0.2307475209,-0.1441108861,-0.3910529699,0.003
08:24:40,-0.0433034999999999,-1.0711610299999998,0.827532785,0.41165644,-0.1597114399999999,0.033810145,1.416677485,-39.046004665,35.700700335,-174.82683989999998,0.7240023725,-1.163199334,-0.43093822295,0.23035550785,-0.14465578765,-0.39002194135,0.003
08:24:40,-0.0468649999999999,-1.06634884,0.83496448,0.41067632,-0.1603453199999999,0.03347456,1.44093808,-39.05399512,35.69409488,-174.7842972,0.72789278,-1.159643652,-0.4323818476,0.2299634948,-0.1452006892,-0.3889909128,0.003
08:24:40,-0.0504264999999999,-1.06153665,0.842396175,0.4096962,-0.1609792,0.033138975,1.465198675,-39.061985575,35.687489425,-174.74175449999998,0.7317831875,-1.15608797,-0.43382547225,0.22957148175,-0.14574559075,-0.38795988425,0.003
08:24:40,-0.0539879999999999,-1.05672446,0.8498278699999999,0.40871608,-0.16161308,0.03280339,1.48945927,-39.06997603,35.68088397,-174.6992118,0.7356735950000001,-1.152532288,-0.4352690969,0.2291794687,-0.1462904923,-0.3869288557,0.003
08:24:40,-0.0575494999999999,-1.05191227,0.857259565,0.40773596,-0.16224696,0.032467805,1.513719865,-39.077966485,35.674278515,-174.6566691,0.7395640025000001,-1.148976606,-0.43671272155,0.22878745565,-0.14683539385,-0.38589782715,0.003
08:24:40,-0.0611109999999999,-1.04710008,0.86469126,0.40675584,-0.16288084,0.03213222,1.53798046,-39.08595694,35.66767306,-174.6141264,0.74345441,-1.145420924,-0.4381563462,0.2283954426,-0.1473802954,-0.3848667986,0.003
08:24:40,-0.0646724999999999,-1.04228789,0.872122955,0.40577572,-0.16351472,0.031796635,1.562241055,-39.093947395,35.661067605,-174.5715837,0.7473448175,-1.141865242,-0.43959997085,0.22800342955,-0.14792519695,-0.38383577005,0.003
08:24:40,-0.0682339999999999,-1.0374757,0.87955465,0.4047956,-0.1641485999999999,0.03146105,1.58650165,-39.10193785,35.65446215,-174.529041,0.7512352250000001,-1.13830956,-0.4410435955,0.2276114165,-0.1484700985,-0.3828047415,0.003
08:24:40,-0.0717954999999999,-1.03266351,0.8869863450000001,0.40381548,-0.16478248,0.031125465,1.610762245,-39.109928305,35.647856695,-174.4864983,0.7551256325,-1.1347538780000002,-0.44248722015,0.22721940345,-0.14901500005,-0.38177371295,0.003
08:24:40,-0.0753569999999999,-1.02785132,0.89441804,0.40283536,-0.1654163599999999,0.03078988,1.63502284,-39.11791876,35.64125124,-174.44395559999998,0.7590160400000001,-1.1311981960000002,-0.4439308448,0.2268273904,-0.1495599016,-0.3807426844,0.003
08:24:40,-0.0789184999999999,-1.02303913,0.901849735,0.40185524,-0.16605024,0.030454295,1.659283435,-39.125909215,35.634645785,-174.4014129,0.7629064475,-1.1276425140000002,-0.44537446945,0.22643537735,-0.15010480315,-0.37971165585,0.003
08:24:40,-0.0824799999999999,-1.01822694,0.90928143,0.40087512,-0.16668412,0.03011871,1.68354403,-39.13389967,35.62804033,-174.35887019999998,0.766796855,-1.124086832,-0.4468180941,0.2260433643,-0.1506497047,-0.3786806272999999,0.003
08:24:40,-0.0860414999999999,-1.01341475,0.916713125,0.399895,-0.167318,0.029783125,1.707804625,-39.141890125,35.621434875,-174.3163275,0.7706872625000001,-1.12053115,-0.44826171875,0.22565135125,-0.15119460625,-0.37764959875,0.003
08:24:40,-0.0896029999999999,-1.00860256,0.92414482,0.3989148799999999,-0.16795188,0.02944754,1.73206522,-39.14988058,35.61482942,-174.2737848,0.77457767,-1.116975468,-0.4497053434,0.2252593382,-0.1517395078,-0.3766185702,0.003
08:24:40,-0.0931644999999999,-1.00379037,0.931576515,0.39793476,-0.16858576,0.029111955,1.756325815,-39.157871035,35.608223965,-174.2312421,0.7784680775000001,-1.113419786,-0.45114896805,0.22486732515,-0.15228440935,-0.3755875416499999,0.003
08:24:40,-0.0967259999999999,-0.99897818,0.93900821,0.39695464,-0.16921964,0.02877637,1.78058641,-39.16586149,35.60161851,-174.1886994,0.782358485,-1.109864104,-0.4525925927,0.2244753121,-0.1528293109,-0.3745565131,0.003
08:24:40,-0.1002874999999999,-0.99416599,0.946439905,0.39597452,-0.1698535199999999,0.028440785,1.804847005,-39.173851945,35.595013055,-174.1461567,0.7862488925000001,-1.106308422,-0.45403621735,0.22408329905,-0.15337421245,-0.37352548455,0.003
08:24:40,-0.1038489999999999,-0.9893538,0.9538716,0.3949943999999999,-0.1704873999999999,0.0281052,1.8291076,-39.1818424,35.5884076,-174.103614,0.7901393000000001,-1.10275274,-0.455479842,0.223691286,-0.153919114,-0.372494456,0.003
08:24:40,-0.1074104999999999,-0.98454161,0.961303295,0.39401428,-0.17112128,0.027769615,1.853368195,-39.189832855,35.581802145,-174.06107129999998,0.7940297075,-1.099197058,-0.45692346665,0.22329927295,-0.15446401555,-0.37146342745,0.003
08:24:40,-0.1109719999999999,-0.97972942,0.96873499,0.39303416,-0.17175516,0.02743403,1.87762879,-39.19782331,35.57519669,-174.0185286,0.797920115,-1.095641376,-0.4583670913,0.2229072599,-0.1550089171,-0.3704323989,0.003
08:24:40,-0.1145334999999999,-0.97491723,0.976166685,0.39205404,-0.17238904,0.027098445,1.901889385,-39.205813765,35.568591235,-173.97598589999998,0.8018105225000001,-1.092085694,-0.45981071595,0.22251524685,-0.15555381865,-0.36940137035,0.003
08:24:40,-0.1180949999999999,-0.97010504,0.98359838,0.39107392,-0.17302292,0.02676286,1.92614998,-39.21380422,35.56198578,-173.9334432,0.80570093,-1.088530012,-0.4612543406,0.2221232338,-0.1560987202,-0.3683703418,0.003
08:24:40,-0.1216564999999999,-0.96529285,0.991030075,0.3900938,-0.1736568,0.026427275,1.950410575,-39.221794675,35.555380325,-173.8909005,0.8095913375000001,-1.08497433,-0.46269796525,0.22173122075,-0.15664362175,-0.36733931325,0.003
08:24:40,-0.1252179999999999,-0.96048066,0.99846177,0.38911368,-0.1742906799999999,0.02609169,1.97467117,-39.22978513,35.54877487,-173.8483578,0.813481745,-1.081418648,-0.4641415899,0.2213392076999999,-0.1571885233,-0.3663082847,0.003
08:24:40,-0.1287794999999999,-0.95566847,1.005893465,0.38813356,-0.17492456,0.025756105,1.998931765,-39.237775585,35.542169415,-173.8058151,0.8173721525000001,-1.077862966,-0.46558521455,0.22094719465,-0.15773342485,-0.36527725615,0.003
08:24:40,-0.1323409999999999,-0.95085628,1.01332516,0.38715344,-0.1755584399999999,0.02542052,2.02319236,-39.24576604,35.53556396,-173.7632724,0.8212625600000001,-1.074307284,-0.4670288392,0.2205551815999999,-0.1582783264,-0.3642462275999999,0.003
08:24:40,-0.1359024999999999,-0.94604409,1.020756855,0.38617332,-0.1761923199999999,0.025084935,2.047452955,-39.253756495,35.528958505,-173.7207297,0.8251529675,-1.070751602,-0.46847246385,0.22016316855,-0.15882322795,-0.36321519905,0.003
08:24:40,-0.1394639999999999,-0.9412319,1.02818855,0.3851932,-0.1768262,0.02474935,2.07171355,-39.26174695,35.52235305,-173.67818699999998,0.8290433750000001,-1.06719592,-0.4699160885,0.2197711555,-0.1593681295,-0.3621841704999999,0.003
08:24:40,-0.1430254999999999,-0.93641971,1.035620245,0.38421308,-0.17746008,0.024413765,2.095974145,-39.269737405,35.515747595,-173.6356443,0.8329337825,-1.063640238,-0.47135971315,0.21937914245,-0.15991303105,-0.36115314195,0.003
08:24:40,-0.1465869999999999,-0.93160752,1.04305194,0.38323296,-0.17809396,0.02407818,2.12023474,-39.27772786,35.50914214,-173.59310159999998,0.8368241900000001,-1.060084556,-0.4728033378,0.2189871294,-0.1604579326,-0.3601221134,0.003
08:24:40,-0.1501484999999999,-0.92679533,1.050483635,0.38225284,-0.17872784,0.023742595,2.144495335,-39.285718315,35.502536685,-173.5505589,0.8407145975000001,-1.056528874,-0.47424696245,0.21859511635,-0.16100283415,-0.3590910848499999,0.003
08:24:40,-0.1537099999999999,-0.92198314,1.0579153300000002,0.38127272,-0.17936172,0.02340701,2.16875593,-39.29370877,35.49593123,-173.5080162,0.844605005,-1.052973192,-0.4756905871,0.2182031033,-0.1615477357,-0.3580600563,0.003
08:24:40,-0.1572714999999999,-0.91717095,1.065347025,0.3802926,-0.1799955999999999,0.023071425,2.193016525,-39.301699225,35.489325775,-173.4654735,0.8484954125,-1.04941751,-0.47713421175,0.21781109025,-0.16209263725,-0.35702902775,0.003
08:24:40,-0.1608329999999999,-0.91235876,1.07277872,0.37931248,-0.18062948,0.02273584,2.21727712,-39.30968968,35.48272032,-173.4229308,0.8523858200000001,-1.045861828,-0.4785778364,0.2174190772,-0.1626375388,-0.3559979991999999,0.003
08:24:40,-0.1643944999999999,-0.90754657,1.080210415,0.37833236,-0.1812633599999999,0.022400255,2.241537715,-39.317680135,35.476114865,-173.3803881,0.8562762275,-1.042306146,-0.48002146105,0.21702706415,-0.16318244035,-0.35496697065,0.003
08:24:40,-0.1679559999999999,-0.90273438,1.08764211,0.37735224,-0.18189724,0.02206467,2.26579831,-39.32567059,35.46950941,-173.3378454,0.8601666350000001,-1.038750464,-0.4814650857,0.2166350511,-0.1637273419,-0.3539359421,0.003
08:24:40,-0.1715174999999999,-0.8979221900000001,1.0950738050000002,0.37637212,-0.18253112,0.021729085,2.290058905,-39.333661045,35.462903955,-173.2953027,0.8640570425,-1.035194782,-0.48290871035,0.21624303805,-0.16427224345,-0.35290491355,0.003
08:24:40,-0.1750789999999999,-0.8931100000000001,1.1025055,0.375392,-0.183165,0.0213935,2.3143195,-39.3416515,35.4562985,-173.25276,0.8679474500000001,-1.0316391,-0.484352335,0.215851025,-0.164817145,-0.351873885,0.003
08:24:40,-0.1786404999999999,-0.8882978100000001,1.109937195,0.37441188,-0.18379888,0.021057915,2.338580095,-39.349641955,35.449693045,-173.21021729999998,0.8718378575000001,-1.028083418,-0.48579595965,0.21545901195,-0.16536204655,-0.35084285645,0.003
08:24:40,-0.1822019999999999,-0.88348562,1.11736889,0.37343176,-0.1844327599999999,0.0207223299999999,2.36284069,-39.35763241,35.44308759,-173.1676746,0.875728265,-1.024527736,-0.4872395843,0.2150669989,-0.1659069481,-0.3498118279,0.003
08:24:40,-0.1857634999999999,-0.87867343,1.124800585,0.37245164,-0.18506664,0.0203867449999999,2.387101285,-39.365622865,35.436482135,-173.1251319,0.8796186725000001,-1.020972054,-0.48868320895,0.21467498585,-0.16645184965,-0.34878079935,0.003
08:24:40,-0.1893249999999999,-0.87386124,1.13223228,0.37147152,-0.1857005199999999,0.02005116,2.41136188,-39.37361332,35.42987668,-173.0825892,0.8835090800000001,-1.017416372,-0.4901268336,0.2142829728,-0.1669967512,-0.3477497708,0.003
08:24:40,-0.1928864999999999,-0.86904905,1.139663975,0.3704914,-0.1863344,0.019715575,2.435622475,-39.381603775,35.423271225,-173.0400465,0.8873994875000001,-1.01386069,-0.49157045825,0.21389095975,-0.16754165275,-0.34671874225,0.003
