Timestamp,linacce_x,linacce_y,linacce_z,gyro_x,gyro_y,gyro_z,X-magnetometer,Y-magnetometer,Z-magnetometer,Yaw, worldXAccel,worldYAccel,worldZAccel,worldXgyro,worldYgyro,worldZgyro,Distance
08:25:58,-0.893873,-0.308792,-0.364015,-0.194569,0.20835,0.077324,0.230034,2.824516,-30.752121,13.09723,-0.6422411,-0.3132208,0.6853685,-0.057090707,0.16916782,0.18781094,0.003
08:25:58,-0.887200365,-0.302728065,-0.367488115,-0.1931947,0.20925022,0.07730802,0.247069295,2.8371282300000003,-30.7534447,12.98558639,-0.64314451725,-0.30739581715,0.6784162435000001,-0.056243588665,0.1702719978,0.18670790245,0.003
08:25:58,-0.8805277300000001,-0.29666413,-0.37096123,-0.1918204,0.21015044,0.07729204,0.26410459,2.84974046,-30.7547684,12.87394278,-0.6440479345,-0.3015708343,0.6714639870000001,-0.0553964703299999,0.1713761755999999,0.1856048649,0.003
08:25:58,-0.873855095,-0.290600195,-0.374434345,-0.1904460999999999,0.21105066,0.07727606,0.281139885,2.86235269,-30.7560921,12.76229917,-0.64495135175,-0.29574585145,0.6645117305,-0.0545493519949999,0.1724803534,0.18450182735,0.003
08:25:58,-0.86718246,-0.28453626,-0.37790746,-0.1890717999999999,0.21195088,0.07726008,0.29817518,2.87496492,-30.7574158,12.65065556,-0.645854769,-0.2899208686,0.657559474,-0.05370223366,0.1735845312,0.1833987898,0.003
08:25:58,-0.8605098250000001,-0.278472325,-0.381380575,-0.1876975,0.2128511,0.0772441,0.315210475,2.8875771500000003,-30.7587395,12.53901195,-0.64675818625,-0.28409588575,0.6506072175000001,-0.052855115325,0.174688709,0.18229575225,0.003
08:25:58,-0.85383719,-0.27240839,-0.3848536899999999,-0.1863232,0.21375132,0.07722812,0.33224577,2.90018938,-30.7600632,12.42736834,-0.6476616035,-0.2782709029,0.6436549610000001,-0.05200799699,0.1757928868,0.1811927147,0.003
08:25:58,-0.847164555,-0.266344455,-0.388326805,-0.1849489,0.21465154,0.07721214,0.349281065,2.91280161,-30.7613869,12.31572473,-0.64856502075,-0.27244592005,0.6367027045,-0.051160878655,0.1768970646,0.18008967715,0.003
08:25:58,-0.8404919200000001,-0.26028052,-0.3917999199999999,-0.1835746,0.21555176,0.07719616,0.36631636,2.92541384,-30.7627106,12.20408112,-0.649468438,-0.2666209372,0.629750448,-0.05031376032,0.1780012424,0.1789866396,0.003
08:25:58,-0.833819285,-0.254216585,-0.395273035,-0.1822002999999999,0.21645198,0.07718018,0.383351655,2.9380260700000003,-30.7640343,12.09243751,-0.65037185525,-0.26079595435,0.6227981915,-0.049466641985,0.1791054202,0.17788360205,0.003
08:25:58,-0.82714665,-0.24815265,-0.3987461499999999,-0.180826,0.2173522,0.0771642,0.40038695,2.9506383,-30.765358,11.9807939,-0.6512752725000001,-0.2549709715,0.6158459350000001,-0.0486195236499999,0.180209598,0.1767805645,0.003
08:25:58,-0.8204740150000001,-0.242088715,-0.402219265,-0.1794517,0.21825242,0.07714822,0.417422245,2.96325053,-30.7666817,11.86915029,-0.65217868975,-0.24914598865,0.6088936785000001,-0.047772405315,0.1813137758,0.17567752695,0.003
08:25:58,-0.81380138,-0.23602478,-0.4056923799999999,-0.1780774,0.21915264,0.07713224,0.43445754,2.97586276,-30.7680054,11.75750668,-0.653082107,-0.2433210058,0.601941422,-0.0469252869799999,0.1824179536,0.1745744894,0.003
08:25:58,-0.807128745,-0.229960845,-0.409165495,-0.1767031,0.22005286,0.07711626,0.451492835,2.9884749900000003,-30.7693291,11.64586307,-0.65398552425,-0.23749602295,0.5949891655,-0.046078168645,0.1835221314,0.17347145185,0.003
08:25:58,-0.80045611,-0.22389691,-0.4126386099999999,-0.1753288,0.22095308,0.07710028,0.46852813,3.00108722,-30.7706528,11.53421946,-0.6548889415,-0.2316710401,0.588036909,-0.04523105031,0.1846263092,0.1723684143,0.003
08:25:58,-0.793783475,-0.217832975,-0.416111725,-0.1739544999999999,0.2218533,0.0770843,0.485563425,3.01369945,-30.7719765,11.42257585,-0.65579235875,-0.22584605725,0.5810846525000001,-0.044383931975,0.185730487,0.17126537675,0.003
08:25:58,-0.78711084,-0.21176904,-0.4195848399999999,-0.1725802,0.22275352,0.07706832,0.50259872,3.02631168,-30.7733002,11.31093224,-0.656695776,-0.2200210744,0.574132396,-0.04353681364,0.1868346648,0.1701623392,0.003
08:25:58,-0.780438205,-0.205705105,-0.423057955,-0.1712059,0.22365374,0.07705234,0.5196340150000001,3.0389239100000003,-30.7746239,11.19928863,-0.65759919325,-0.21419609155,0.5671801395,-0.042689695305,0.1879388426,0.16905930165,0.003
08:25:58,-0.77376557,-0.19964117,-0.42653107,-0.1698316,0.22455396,0.07703636,0.5366693100000001,3.05153614,-30.7759476,11.08764502,-0.6585026105,-0.2083711087,0.560227883,-0.0418425769699999,0.1890430203999999,0.1679562641,0.003
08:25:58,-0.767092935,-0.193577235,-0.430004185,-0.1684573,0.22545418,0.07702038,0.5537046050000001,3.06414837,-30.7772713,10.97600141,-0.65940602775,-0.20254612585,0.5532756265000001,-0.0409954586349999,0.1901471982,0.16685322655,0.003
08:25:58,-0.7604203,-0.1875133,-0.4334772999999999,-0.1670829999999999,0.2263544,0.0770044,0.5707399000000001,3.0767606,-30.778595,10.8643578,-0.660309445,-0.196721143,0.5463233700000001,-0.0401483403,0.191251376,0.165750189,0.003
08:25:58,-0.753747665,-0.181449365,-0.436950415,-0.1657087,0.22725462,0.07698842,0.5877751950000001,3.0893728300000003,-30.7799187,10.75271419,-0.66121286225,-0.19089616015,0.5393711135000001,-0.0393012219649999,0.1923555538,0.16464715145,0.003
08:25:58,-0.74707503,-0.17538543,-0.44042353,-0.1643344,0.22815484,0.07697244,0.6048104900000001,3.10198506,-30.7812424,10.64107058,-0.6621162795,-0.1850711773,0.532418857,-0.03845410363,0.1934597316,0.1635441139,0.003
08:25:58,-0.740402395,-0.169321495,-0.443896645,-0.1629601,0.22905506,0.07695646,0.6218457850000001,3.11459729,-30.7825661,10.52942697,-0.66301969675,-0.17924619445,0.5254666005,-0.037606985295,0.1945639094,0.16244107635,0.003
08:25:58,-0.73372976,-0.16325756,-0.4473697599999999,-0.1615858,0.22995528,0.07694048,0.63888108,3.12720952,-30.7838898,10.41778336,-0.663923114,-0.1734212116,0.5185143440000001,-0.03675986696,0.1956680872,0.1613380388,0.003
08:25:58,-0.727057125,-0.157193625,-0.450842875,-0.1602115,0.2308555,0.0769245,0.655916375,3.1398217500000003,-30.7852135,10.30613975,-0.66482653125,-0.16759622875,0.5115620875,-0.035912748625,0.196772265,0.16023500125,0.003
08:25:58,-0.72038449,-0.15112969,-0.45431599,-0.1588371999999999,0.23175572,0.07690852,0.67295167,3.15243398,-30.7865372,10.19449614,-0.6657299485,-0.1617712459,0.504609831,-0.03506563029,0.1978764428,0.1591319637,0.003
08:25:58,-0.713711855,-0.145065755,-0.457789105,-0.1574629,0.23265594,0.07689254,0.689986965,3.16504621,-30.7878609,10.08285253,-0.66663336575,-0.15594626305,0.4976575745,-0.034218511955,0.1989806206,0.15802892615,0.003
08:25:58,-0.70703922,-0.13900182,-0.46126222,-0.1560886,0.23355616,0.07687656,0.70702226,3.17765844,-30.7891846,9.97120892,-0.667536783,-0.1501212802,0.490705318,-0.0333713936199999,0.2000847983999999,0.1569258886,0.003
08:25:58,-0.700366585,-0.132937885,-0.4647353349999999,-0.1547143,0.23445638,0.07686058,0.724057555,3.1902706700000003,-30.7905083,9.85956531,-0.6684402002500001,-0.14429629735,0.4837530615000001,-0.032524275285,0.2011889762,0.15582285105,0.003
08:25:58,-0.69369395,-0.12687395,-0.46820845,-0.1533399999999999,0.2353566,0.0768446,0.74109285,3.2028829,-30.791832,9.7479217,-0.6693436175,-0.1384713145,0.476800805,-0.03167715695,0.202293154,0.1547198135,0.003
08:25:58,-0.6870213150000001,-0.1208100149999999,-0.4716815649999999,-0.1519656999999999,0.23625682,0.07682862,0.758128145,3.21549513,-30.7931557,9.63627809,-0.67024703475,-0.13264633165,0.4698485485,-0.030830038615,0.2033973318,0.15361677595,0.003
08:25:58,-0.68034868,-0.11474608,-0.47515468,-0.1505914,0.23715704,0.07681264,0.77516344,3.22810736,-30.7944794,9.52463448,-0.671150452,-0.1268213488,0.462896292,-0.02998292028,0.2045015096,0.1525137384,0.003
08:25:58,-0.673676045,-0.108682145,-0.4786277949999999,-0.1492171,0.23805726,0.07679666,0.792198735,3.2407195900000003,-30.7958031,9.41299087,-0.67205386925,-0.12099636595,0.4559440355,-0.0291358019449999,0.2056056874,0.15141070085,0.003
08:25:58,-0.6670034100000001,-0.1026182099999999,-0.48210091,-0.1478428,0.23895748,0.07678068,0.80923403,3.25333182,-30.7971268,9.30134726,-0.6729572865,-0.1151713831,0.448991779,-0.0282886836099999,0.2067098652,0.1503076633,0.003
08:25:58,-0.660330775,-0.096554275,-0.4855740249999999,-0.1464685,0.2398577,0.0767647,0.826269325,3.26594405,-30.7984505,9.18970365,-0.67386070375,-0.10934640025,0.4420395225,-0.027441565275,0.207814043,0.14920462575,0.003
08:25:58,-0.6536581400000001,-0.09049034,-0.48904714,-0.1450942,0.24075792,0.07674872,0.8433046200000001,3.27855628,-30.7997742,9.07806004,-0.674764121,-0.1035214174,0.435087266,-0.02659444694,0.2089182208,0.1481015882,0.003
08:25:58,-0.6469855050000001,-0.084426405,-0.4925202549999999,-0.1437198999999999,0.24165814,0.07673274,0.8603399150000001,3.2911685100000003,-30.8010979,8.966416429999999,-0.67566753825,-0.09769643455,0.4281350095,-0.025747328605,0.2100223986,0.14699855065,0.003
08:25:58,-0.64031287,-0.0783624699999999,-0.49599337,-0.1423456,0.24255836,0.07671676,0.8773752100000001,3.30378074,-30.8024216,8.85477282,-0.6765709555,-0.0918714517,0.421182753,-0.02490021027,0.2111265764,0.1458955131,0.003
08:25:58,-0.6336402350000001,-0.072298535,-0.499466485,-0.1409713,0.24345858,0.07670078,0.8944105050000001,3.31639297,-30.8037453,8.74312921,-0.67747437275,-0.08604646885,0.4142304965,-0.024053091935,0.2122307541999999,0.14479247555,0.003
08:25:58,-0.6269676000000001,-0.0662346,-0.5029395999999999,-0.139597,0.2443588,0.0766848,0.9114458,3.3290052,-30.805069,8.631485600000001,-0.67837779,-0.080221486,0.40727824,-0.0232059736,0.213334932,0.143689438,0.003
08:25:58,-0.620294965,-0.0601706649999999,-0.506412715,-0.1382227,0.24525902,0.07666882,0.928481095,3.3416174300000003,-30.8063927,8.51984199,-0.67928120725,-0.07439650315,0.4003259835,-0.0223588552649999,0.2144391098,0.14258640045,0.003
08:25:58,-0.6136223300000001,-0.0541067299999999,-0.50988583,-0.1368483999999999,0.24615924,0.07665284,0.94551639,3.35422966,-30.8077164,8.40819838,-0.6801846245000001,-0.0685715203,0.393373727,-0.0215117369299999,0.2155432876,0.1414833629,0.003
08:25:58,-0.6069496950000001,-0.0480427949999999,-0.513358945,-0.1354741,0.24705946,0.07663686,0.962551685,3.36684189,-30.8090401,8.29655477,-0.68108804175,-0.06274653745,0.3864214705,-0.0206646185949999,0.2166474654,0.14038032535,0.003
08:25:58,-0.60027706,-0.04197886,-0.51683206,-0.1340998,0.24795968,0.07662088,0.97958698,3.37945412,-30.8103638,8.18491116,-0.681991459,-0.0569215545999999,0.379469214,-0.01981750026,0.2177516432,0.1392772878,0.003
08:25:58,-0.5936044250000001,-0.0359149249999999,-0.520305175,-0.1327255,0.2488599,0.0766049,0.996622275,3.3920663500000003,-30.8116875,8.07326755,-0.68289487625,-0.0510965717499999,0.3725169575,-0.018970381925,0.218855821,0.13817425025,0.003
08:25:58,-0.5869317900000001,-0.02985099,-0.52377829,-0.1313512,0.24976012,0.07658892,1.01365757,3.40467858,-30.8130112,7.96162394,-0.6837982935,-0.0452715888999999,0.365564701,-0.01812326359,0.2199599988,0.1370712127,0.003
08:25:58,-0.580259155,-0.023787055,-0.527251405,-0.1299769,0.25066034,0.07657294,1.0306928650000002,3.41729081,-30.8143349,7.84998033,-0.68470171075,-0.03944660605,0.3586124445,-0.017276145255,0.2210641766,0.13596817515,0.003
08:25:58,-0.5735865200000001,-0.0177231199999999,-0.5307245199999999,-0.1286026,0.25156056,0.07655696,1.04772816,3.42990304,-30.8156586,7.73833672,-0.685605128,-0.0336216232,0.351660188,-0.01642902692,0.2221683544,0.1348651376,0.003
08:25:58,-0.5669138850000001,-0.011659185,-0.534197635,-0.1272283,0.25246078,0.07654098,1.064763455,3.4425152700000003,-30.8169823,7.626693110000001,-0.68650854525,-0.02779664035,0.3447079315,-0.0155819085849999,0.2232725321999999,0.13376210005,0.003
08:25:58,-0.56024125,-0.0055952499999999,-0.53767075,-0.125854,0.253361,0.076525,1.08179875,3.4551275,-30.818306,7.5150495,-0.6874119625,-0.0219716575,0.337755675,-0.0147347902499999,0.22437671,0.1326590625,0.003
08:25:58,-0.5535686150000001,0.000468685,-0.541143865,-0.1244797,0.25426122,0.07650902,1.098834045,3.46773973,-30.8196297,7.40340589,-0.68831537975,-0.01614667465,0.3308034185,-0.0138876719149999,0.2254808878,0.13155602495,0.003
08:25:58,-0.5468959800000001,0.0065326199999999,-0.54461698,-0.1231053999999999,0.25516144,0.07649304,1.1158693400000002,3.48035196,-30.8209534,7.29176228,-0.689218797,-0.0103216918,0.323851162,-0.0130405535799999,0.2265850656,0.1304529874,0.003
08:25:58,-0.540223345,0.012596555,-0.5480900949999999,-0.1217311,0.25606166,0.07647706,1.132904635,3.4929641900000004,-30.8222771,7.180118670000001,-0.69012221425,-0.0044967089499999,0.3168989055,-0.012193435245,0.2276892434,0.12934994985,0.003
08:25:58,-0.5335507100000001,0.01866049,-0.55156321,-0.1203568,0.25696188,0.07646108,1.1499399300000002,3.50557642,-30.8236008,7.06847506,-0.6910256315,0.0013282739,0.309946649,-0.01134631691,0.2287934212,0.1282469123,0.003
08:25:58,-0.5268780750000001,0.0247244249999999,-0.555036325,-0.1189824999999999,0.2578621,0.0764451,1.166975225,3.51818865,-30.8249245,6.95683145,-0.69192904875,0.00715325675,0.3029943925,-0.010499198575,0.229897599,0.12714387475,0.003
08:25:58,-0.52020544,0.03078836,-0.55850944,-0.1176082,0.25876232,0.07642912,1.1840105200000002,3.53080088,-30.8262482,6.84518784,-0.692832466,0.0129782395999999,0.296042136,-0.00965208024,0.2310017768,0.1260408372,0.003
08:25:58,-0.5135328050000001,0.036852295,-0.5619825549999999,-0.1162339,0.25966254,0.07641314,1.201045815,3.5434131100000004,-30.8275719,6.733544230000001,-0.69373588325,0.0188032224499999,0.2890898795,-0.0088049619049999,0.2321059546,0.12493779965,0.003
08:25:58,-0.50686017,0.04291623,-0.56545567,-0.1148595999999999,0.26056276,0.07639716,1.2180811100000002,3.55602534,-30.8288956,6.62190062,-0.6946393005,0.0246282052999999,0.282137623,-0.0079578435699999,0.2332101324,0.1238347621,0.003
08:25:58,-0.500187535,0.048980165,-0.568928785,-0.1134853,0.26146298,0.07638118,1.2351164050000003,3.56863757,-30.8302193,6.51025701,-0.69554271775,0.0304531881499999,0.2751853665,-0.0071107252349999,0.2343143102,0.12273172455,0.003
08:25:58,-0.4935149,0.0550440999999999,-0.5724019,-0.1121109999999999,0.2623632,0.0763652,1.2521517000000002,3.5812498,-30.831543,6.3986134,-0.696446135,0.036278171,0.26823311,-0.0062636069,0.2354184879999999,0.121628687,0.003
08:25:58,-0.486842265,0.061108035,-0.575875015,-0.1107367,0.26326342,0.07634922,1.2691869950000003,3.5938620300000004,-30.8328667,6.286969790000001,-0.69734955225,0.04210315385,0.2612808535,-0.005416488565,0.2365226658,0.12052564945,0.003
08:25:58,-0.48016963,0.06717197,-0.57934813,-0.1093624,0.26416364,0.07633324,1.2862222900000002,3.60647426,-30.8341904,6.17532618,-0.6982529695,0.0479281367,0.254328597,-0.00456937023,0.2376268436,0.1194226119,0.003
08:25:58,-0.473496995,0.0732359049999999,-0.582821245,-0.1079880999999999,0.26506386,0.07631726,1.3032575850000003,3.61908649,-30.8355141,6.06368257,-0.69915638675,0.05375311955,0.2473763405,-0.003722251895,0.2387310214,0.11831957435,0.003
08:25:58,-0.46682436,0.07929984,-0.58629436,-0.1066138,0.26596408,0.07630128,1.3202928800000002,3.63169872,-30.8368378,5.95203896,-0.700059804,0.0595781024,0.240424084,-0.0028751335599999,0.2398351992,0.1172165368,0.003
08:25:58,-0.460151725,0.085363775,-0.5897674749999999,-0.1052395,0.2668643,0.0762853,1.337328175,3.64431095,-30.8381615,5.8403953500000005,-0.70096322125,0.0654030852499999,0.2334718275,-0.0020280152249999,0.240939377,0.11611349925,0.003
08:25:58,-0.45347909,0.09142771,-0.59324059,-0.1038651999999999,0.26776452,0.07626932,1.3543634700000002,3.65692318,-30.8394852,5.728751740000001,-0.7018666385,0.0712280680999999,0.226519571,-0.0011808968899999,0.2420435548,0.1150104617,0.003
08:25:58,-0.446806455,0.097491645,-0.596713705,-0.1024909,0.26866474,0.07625334,1.371398765,3.66953541,-30.8408089,5.61710813,-0.70277005575,0.0770530509499999,0.2195673145,-0.0003337785549999,0.2431477326,0.11390742415,0.003
08:25:58,-0.44013382,0.10355558,-0.60018682,-0.1011166,0.26956496,0.07623736,1.3884340600000002,3.68214764,-30.8421326,5.50546452,-0.703673473,0.0828780337999999,0.212615058,0.00051333978,0.2442519104,0.1128043866,0.003
08:25:58,-0.433461185,0.109619515,-0.603659935,-0.0997422999999999,0.27046518,0.07622138,1.405469355,3.69475987,-30.8434563,5.3938209100000005,-0.70457689025,0.08870301665,0.2056628015,0.0013604581149999,0.2453560882,0.11170134905,0.003
08:25:58,-0.42678855,0.11568345,-0.60713305,-0.098368,0.2713654,0.0762054,1.4225046500000005,3.7073721,-30.84478,5.282177300000001,-0.7054803075,0.0945279995,0.198710545,0.0022075764499999,0.2464602659999999,0.1105983115,0.003
08:25:58,-0.420115915,0.1217473849999999,-0.610606165,-0.0969936999999999,0.27226562,0.07618942,1.4395399450000002,3.71998433,-30.8461037,5.17053369,-0.70638372475,0.10035298235,0.1917582885,0.0030546947849999,0.2475644438,0.10949527395,0.003
08:25:58,-0.4134432800000001,0.12781132,-0.61407928,-0.0956194,0.27316584,0.07617344,1.4565752400000005,3.73259656,-30.8474274,5.058890080000001,-0.707287142,0.1061779652,0.184806032,0.00390181312,0.2486686216,0.1083922364,0.003
08:25:58,-0.406770645,0.133875255,-0.6175523949999999,-0.0942451,0.27406606,0.07615746,1.4736105350000002,3.74520879,-30.8487511,4.94724647,-0.70819055925,0.11200294805,0.1778537755,0.004748931455,0.2497727994,0.10728919885,0.003
08:25:58,-0.40009801,0.13993919,-0.62102551,-0.0928707999999999,0.27496628,0.07614148,1.4906458300000005,3.75782102,-30.8500748,4.83560286,-0.7090939765,0.1178279308999999,0.170901519,0.0055960497899999,0.2508769772,0.1061861613,0.003
08:25:58,-0.3934253750000001,0.146003125,-0.624498625,-0.0914965,0.2758665,0.0761255,1.5076811250000002,3.77043325,-30.8513985,4.72395925,-0.70999739375,0.1236529137499999,0.1639492625,0.006443168125,0.251981155,0.10508312375,0.003
08:25:58,-0.38675274,0.15206706,-0.62797174,-0.0901222,0.27676672,0.07610952,1.5247164200000003,3.78304548,-30.8527222,4.61231564,-0.710900811,0.1294778966,0.156997006,0.0072902864599999,0.2530853328,0.1039800862,0.003
08:25:58,-0.380080105,0.158130995,-0.631444855,-0.0887478999999999,0.27766694,0.07609354,1.5417517150000002,3.79565771,-30.8540459,4.5006720300000005,-0.71180422825,0.13530287945,0.1500447495,0.008137404795,0.2541895106,0.10287704865,0.003
08:25:58,-0.3734074700000001,0.16419493,-0.63491797,-0.0873736,0.27856716,0.07607756,1.5587870100000003,3.80826994,-30.8553696,4.389028420000001,-0.7127076455,0.1411278623,0.143092493,0.0089845231299999,0.2552936884,0.1017740111,0.003
08:25:58,-0.366734835,0.170258865,-0.638391085,-0.0859993,0.27946738,0.07606158,1.5758223050000002,3.82088217,-30.8566933,4.277384810000001,-0.71361106275,0.14695284515,0.1361402365,0.009831641465,0.2563978662,0.10067097355,0.003
08:25:58,-0.3600622000000001,0.1763228,-0.6418642,-0.0846249999999999,0.2803676,0.0760456,1.5928576000000003,3.8334944,-30.858017,4.165741200000001,-0.71451448,0.152777828,0.1291879799999999,0.0106787598,0.257502044,0.099567936,0.003
08:25:58,-0.353389565,0.182386735,-0.6453373149999999,-0.0832507,0.28126782,0.07602962,1.6098928950000002,3.84610663,-30.8593407,4.054097590000001,-0.71541789725,0.15860281085,0.1222357235,0.0115258781349999,0.2586062218,0.09846489845,0.003
08:25:58,-0.34671693,0.18845067,-0.6488104299999999,-0.0818764,0.28216804,0.07601364,1.6269281900000003,3.85871886,-30.8606644,3.94245398,-0.7163213145,0.1644277937,0.115283467,0.01237299647,0.2597103996,0.0973618609,0.003
08:25:58,-0.3400442950000001,0.194514605,-0.652283545,-0.0805021,0.28306826,0.07599766,1.6439634850000002,3.87133109,-30.8619881,3.83081037,-0.71722473175,0.1702527765499999,0.1083312105,0.0132201148049999,0.2608145774,0.09625882335,0.003
08:25:58,-0.33337166,0.20057854,-0.65575666,-0.0791278,0.28396848,0.07598168,1.6609987800000003,3.88394332,-30.8633118,3.71916676,-0.718128149,0.1760777593999999,0.101378954,0.01406723314,0.2619187552,0.0951557858,0.003
08:25:58,-0.326699025,0.206642475,-0.659229775,-0.0777534999999999,0.2848687,0.0759657,1.6780340750000002,3.89655555,-30.8646355,3.607523150000001,-0.71903156625,0.18190274225,0.0944266974999999,0.0149143514749999,0.263022933,0.09405274825,0.003
08:25:58,-0.3200263900000001,0.21270641,-0.66270289,-0.0763792,0.28576892,0.07594972,1.6950693700000004,3.90916778,-30.8659592,3.4958795400000007,-0.7199349835,0.1877277250999999,0.087474441,0.01576146981,0.2641271108,0.0929497107,0.003
08:25:58,-0.313353755,0.2187703449999999,-0.6661760050000001,-0.0750049,0.28666914,0.07593374,1.7121046650000002,3.92178001,-30.8672829,3.384235930000001,-0.7208384007499999,0.1935527079499999,0.0805221845,0.016608588145,0.2652312886,0.09184667315,0.003
08:25:58,-0.30668112,0.22483428,-0.66964912,-0.0736305999999999,0.28756936,0.07591776,1.7291399600000004,3.93439224,-30.8686066,3.272592320000001,-0.721741818,0.1993776908,0.073569928,0.0174557064799999,0.2663354664,0.0907436356,0.003
08:25:58,-0.3000084850000001,0.230898215,-0.673122235,-0.0722563,0.28846958,0.07590178,1.7461752550000005,3.94700447,-30.8699303,3.1609487100000013,-0.72264523525,0.20520267365,0.0666176715,0.018302824815,0.2674396442,0.08964059805,0.003
08:25:58,-0.29333585,0.23696215,-0.6765953499999999,-0.070882,0.2893698,0.0758858,1.7632105500000004,3.9596167,-30.871254,3.0493051,-0.7235486525,0.2110276565,0.059665415,0.0191499431499999,0.268543822,0.0885375605,0.003
08:25:58,-0.286663215,0.243026085,-0.680068465,-0.0695077,0.29027002,0.07586982,1.7802458450000005,3.97222893,-30.8725777,2.93766149,-0.72445206975,0.21685263935,0.0527131585,0.019997061485,0.2696479998,0.08743452295,0.003
08:25:58,-0.2799905800000001,0.2490900199999999,-0.68354158,-0.0681333999999999,0.29117024,0.07585384,1.7972811400000004,3.98484116,-30.8739014,2.82601788,-0.725355487,0.2226776222,0.045760902,0.0208441798199999,0.2707521776,0.0863314854,0.003
08:25:58,-0.273317945,0.255153955,-0.687014695,-0.0667590999999999,0.29207046,0.07583786,1.8143164350000005,3.99745339,-30.8752251,2.7143742700000004,-0.7262589042500001,0.22850260505,0.0388086455,0.021691298155,0.2718563553999999,0.08522844785,0.003
08:25:58,-0.26664531,0.26121789,-0.69048781,-0.0653847999999999,0.29297068,0.07582188,1.8313517300000004,4.010065620000001,-30.8765488,2.6027306600000006,-0.7271623215,0.2343275879,0.0318563889999999,0.0225384164899999,0.2729605332,0.0841254103,0.003
08:25:58,-0.2599726750000001,0.267281825,-0.6939609250000001,-0.0640105,0.2938709,0.0758059,1.8483870250000003,4.02267785,-30.8778725,2.491087050000001,-0.72806573875,0.24015257075,0.0249041325,0.023385534825,0.274064711,0.08302237275,0.003
08:25:58,-0.25330004,0.27334576,-0.69743404,-0.0626362,0.29477112,0.07578992,1.86542232,4.03529008,-30.8791962,2.379443440000001,-0.728969156,0.2459775536,0.017951876,0.02423265316,0.2751688888,0.0819193352,0.003
08:25:58,-0.246627405,0.279409695,-0.700907155,-0.0612619,0.29567134,0.07577394,1.8824576150000003,4.04790231,-30.8805199,2.2677998300000013,-0.72987257325,0.25180253645,0.0109996195,0.0250797714949999,0.2762730666,0.08081629765,0.003
08:25:58,-0.2399547700000001,0.28547363,-0.7043802699999999,-0.0598875999999999,0.29657156,0.07575796,1.89949291,4.06051454,-30.8818436,2.156156220000001,-0.7307759905,0.2576275193,0.004047363,0.02592688983,0.2773772444,0.0797132601,0.003
08:25:58,-0.233282135,0.291537565,-0.707853385,-0.0585132999999999,0.29747178,0.07574198,1.9165282050000003,4.07312677,-30.8831673,2.04451261,-0.73167940775,0.26345250215,-0.0029048935,0.0267740081649999,0.2784814222,0.07861022255,0.003
08:25:58,-0.2266095,0.2976015,-0.7113265,-0.0571389999999999,0.298372,0.075726,1.9335635,4.085739,-30.884491,1.932869,-0.7325828249999999,0.269277485,-0.0098571499999999,0.0276211265,0.2795856,0.077507185,0.003
08:25:58,-0.2199368650000001,0.303665435,-0.714799615,-0.0557647,0.29927222,0.07571002,1.9505987950000003,4.0983512300000005,-30.8858147,1.8212253900000004,-0.73348624225,0.27510246785,-0.0168094064999999,0.0284682448349999,0.2806897778,0.07640414745,0.003
08:25:58,-0.21326423,0.30972937,-0.71827273,-0.0543904,0.30017244,0.07569404,1.96763409,4.110963460000001,-30.8871384,1.7095817800000006,-0.7343896595,0.2809274506999999,-0.0237616629999999,0.02931536317,0.2817939556,0.0753011099,0.003
08:25:58,-0.206591595,0.3157933049999999,-0.721745845,-0.0530160999999999,0.30107266,0.07567806,1.9846693850000003,4.12357569,-30.8884621,1.5979381700000008,-0.73529307675,0.2867524335499999,-0.0307139195,0.0301624815049999,0.2828981334,0.07419807235,0.003
08:25:58,-0.1999189600000001,0.32185724,-0.72521896,-0.0516417999999999,0.30197288,0.07566208,2.00170468,4.13618792,-30.8897858,1.486294560000001,-0.736196494,0.2925774163999999,-0.0376661759999999,0.03100959984,0.2840023112,0.0730950348,0.003
08:25:58,-0.193246325,0.327921175,-0.728692075,-0.0502674999999999,0.3028731,0.0756461,2.0187399750000004,4.1488001500000005,-30.8911095,1.3746509500000013,-0.73709991125,0.29840239925,-0.0446184324999999,0.031856718175,0.285106489,0.07199199725,0.003
08:25:58,-0.18657369,0.33398511,-0.7321651899999999,-0.0488932,0.30377332,0.07563012,2.03577527,4.16141238,-30.8924332,1.2630073400000017,-0.7380033285,0.3042273821,-0.0515706889999999,0.0327038365099999,0.2862106668,0.0708889597,0.003
08:25:58,-0.1799010550000001,0.340049045,-0.7356383049999999,-0.0475189,0.30467354,0.07561414,2.052810565,4.17402461,-30.8937569,1.15136373,-0.73890674575,0.31005236495,-0.0585229454999999,0.033550954845,0.2873148446,0.06978592215,0.003
08:25:58,-0.17322842,0.34611298,-0.73911142,-0.0461446,0.30557376,0.07559816,2.06984586,4.18663684,-30.8950806,1.03972012,-0.739810163,0.3158773478,-0.065475202,0.0343980731799999,0.2884190224,0.0686828846,0.003
08:25:58,-0.166555785,0.352176915,-0.742584535,-0.0447702999999999,0.30647398,0.07558218,2.0868811550000004,4.1992490700000005,-30.8964043,0.9280765100000004,-0.74071358025,0.32170233065,-0.0724274584999999,0.035245191515,0.2895232002,0.06757984705,0.003
08:25:58,-0.15988315,0.35824085,-0.74605765,-0.0433959999999999,0.3073742,0.0755662,2.1039164500000003,4.211861300000001,-30.897728,0.8164329000000006,-0.7416169975,0.3275273135,-0.0793797149999999,0.03609230985,0.290627378,0.0664768095,0.003
08:25:58,-0.153210515,0.364304785,-0.749530765,-0.0420216999999999,0.30827442,0.07555022,2.120951745,4.22447353,-30.8990517,0.7047892900000008,-0.74252041475,0.33335229635,-0.0863319714999999,0.036939428185,0.2917315558,0.06537377195,0.003
08:25:58,-0.14653788,0.37036872,-0.7530038800000001,-0.0406474,0.30917464,0.07553424,2.13798704,4.23708576,-30.9003754,0.593145680000001,-0.743423832,0.3391772792,-0.0932842279999999,0.03778654652,0.2928357336,0.0642707344,0.003
08:25:58,-0.139865245,0.376432655,-0.756476995,-0.0392731,0.31007486,0.07551826,2.1550223350000004,4.2496979900000005,-30.9016991,0.4815020700000012,-0.7443272492499999,0.34500226205,-0.1002364845,0.0386336648549999,0.2939399114,0.06316769685,0.003
08:25:58,-0.13319261,0.3824965900000001,-0.75995011,-0.0378988,0.31097508,0.07550228,2.1720576300000003,4.26231022,-30.9030228,0.3698584600000014,-0.7452306665,0.3508272449,-0.1071887409999999,0.03948078319,0.2950440892,0.0620646592999999,0.003
08:25:58,-0.1265199750000001,0.388560525,-0.7634232249999999,-0.0365244999999999,0.3118753,0.0754863,2.189092925,4.27492245,-30.9043465,0.2582148500000016,-0.74613408375,0.35665222775,-0.1141409974999999,0.0403279015249999,0.2961482669999999,0.06096162175,0.003
08:25:58,-0.11984734,0.39462446,-0.76689634,-0.0351501999999999,0.31277552,0.07547032,2.20612822,4.28753468,-30.9056702,0.1465712400000001,-0.747037501,0.3624772106,-0.1210932539999999,0.04117501986,0.2972524448,0.0598585842,0.003
08:25:58,-0.113174705,0.400688395,-0.770369455,-0.0337759,0.31367574,0.07545434,2.2231635150000004,4.3001469100000005,-30.9069939,0.0349276300000003,-0.74794091825,0.36830219345,-0.1280455105,0.0420221381949999,0.2983566226,0.05875554665,0.003
08:25:58,-0.1065020700000001,0.40675233,-0.77384257,-0.0324016,0.31457596,0.07543836,2.2401988100000003,4.312759140000001,-30.9083176,-0.0767159799999994,-0.7488443355,0.3741271763,-0.134997767,0.04286925653,0.2994608004,0.0576525091,0.003
08:25:58,-0.099829435,0.412816265,-0.777315685,-0.0310273,0.31547618,0.07542238,2.257234105,4.32537137,-30.9096413,-0.1883595899999992,-0.74974775275,0.3799521591499999,-0.1419500234999999,0.043716374865,0.3005649782,0.05654947155,0.003
08:25:58,-0.0931568,0.4188802,-0.7807888000000001,-0.0296529999999999,0.3163764,0.0754064,2.2742694,4.3379836,-30.910965,-0.300003199999999,-0.75065117,0.3857771420000001,-0.1489022799999999,0.0445634931999999,0.301669156,0.055446434,0.003
08:25:58,-0.0864841650000001,0.424944135,-0.784261915,-0.0282786999999999,0.31727662,0.07539042,2.291304695,4.3505958300000005,-30.9122887,-0.4116468099999988,-0.75155458725,0.39160212485,-0.1558545364999999,0.045410611535,0.3027733338,0.05434339645,0.003
08:25:58,-0.07981153,0.43100807,-0.78773503,-0.0269043999999999,0.31817684,0.07537444,2.3083399900000003,4.36320806,-30.9136124,-0.5232904199999986,-0.7524580045,0.3974271077,-0.162806793,0.0462577298699999,0.3038775116,0.0532403589,0.003
08:25:58,-0.073138895,0.437072005,-0.7912081449999999,-0.0255301,0.31907706,0.07535846,2.325375285,4.37582029,-30.9149361,-0.6349340299999984,-0.75336142175,0.40325209055,-0.1697590494999999,0.047104848205,0.3049816894,0.05213732135,0.003
08:25:58,-0.0664662600000001,0.44313594,-0.79468126,-0.0241558,0.31997728,0.07534248,2.34241058,4.38843252,-30.9162598,-0.7465776399999999,-0.754264839,0.4090770734,-0.1767113059999999,0.0479519665399999,0.3060858672,0.0510342838,0.003
08:25:58,-0.059793625,0.4491998750000001,-0.798154375,-0.0227815,0.3208775,0.0753265,2.359445875,4.4010447500000005,-30.9175835,-0.8582212499999997,-0.75516825625,0.41490205625,-0.1836635624999999,0.048799084875,0.307190045,0.04993124625,0.003
08:25:58,-0.05312099,0.45526381,-0.80162749,-0.0214071999999999,0.32177772,0.07531052,2.3764811700000004,4.413656980000001,-30.9189072,-0.9698648599999996,-0.7560716735,0.4207270391,-0.190615819,0.0496462032099999,0.3082942228,0.0488282087,0.003
08:25:58,-0.0464483550000001,0.461327745,-0.805100605,-0.0200328999999999,0.32267794,0.07529454,2.3935164650000003,4.42626921,-30.9202309,-1.0815084699999993,-0.75697509075,0.42655202195,-0.1975680755,0.050493321545,0.3093984006,0.0477251711499999,0.003
08:25:58,-0.03977572,0.46739168,-0.80857372,-0.0186585999999999,0.32357816,0.07527856,2.41055176,4.43888144,-30.9215546,-1.193152079999999,-0.757878508,0.4323770048,-0.2045203319999999,0.05134043988,0.3105025784,0.0466221336,0.003
08:25:58,-0.033103085,0.473455615,-0.8120468350000001,-0.0172843,0.32447838,0.07526258,2.427587055,4.4514936700000005,-30.9228783,-1.3047956899999988,-0.75878192525,0.43820198765,-0.2114725884999999,0.0521875582149999,0.3116067562,0.04551909605,0.003
08:25:58,-0.0264304500000001,0.47951955,-0.81551995,-0.01591,0.3253786,0.0752466,2.44462235,4.4641059,-30.924202,-1.4164392999999986,-0.7596853425,0.4440269705,-0.2184248449999999,0.05303467655,0.312710934,0.0444160584999999,0.003
08:25:58,-0.019757815,0.485583485,-0.818993065,-0.0145356999999999,0.32627882,0.07523062,2.4616576450000003,4.47671813,-30.9255257,-1.5280829099999984,-0.76058875975,0.44985195335,-0.2253771015,0.0538817948849999,0.3138151118,0.04331302095,0.003
08:25:58,-0.01308518,0.49164742,-0.8224661799999999,-0.0131613999999999,0.32717904,0.07521464,2.47869294,4.48933036,-30.9268494,-1.6397265199999982,-0.761492177,0.4556769362,-0.2323293579999999,0.05472891322,0.3149192896,0.0422099834,0.003
08:25:58,-0.0064125450000001,0.497711355,-0.825939295,-0.0117870999999999,0.32807926,0.07519866,2.495728235,4.5019425900000005,-30.9281731,-1.7513701299999995,-0.76239559425,0.46150191905,-0.2392816144999999,0.0555760315549999,0.3160234674,0.0411069458499999,0.003
08:25:58,0.0002600899999999,0.5037752900000001,-0.82941241,-0.0104128,0.32897948,0.07518268,2.51276353,4.514554820000001,-30.9294968,-1.8630137399999995,-0.7632990115,0.4673269019,-0.2462338709999999,0.05642314989,0.3171276452,0.0400039083,0.003
08:25:58,0.0069327249999999,0.5098392250000001,-0.832885525,-0.0090385,0.3298797,0.0751667,2.5297988250000003,4.52716705,-30.9308205,-1.9746573499999995,-0.76420242875,0.47315188475,-0.2531861275,0.057270268225,0.3182318229999999,0.03890087075,0.003
08:25:58,0.0136053599999999,0.5159031600000001,-0.83635864,-0.0076642,0.33077992,0.07515072,2.54683412,4.53977928,-30.9321442,-2.086300959999999,-0.765105846,0.4789768675999999,-0.260138384,0.05811738656,0.3193360008,0.0377978331999999,0.003
08:25:58,0.0202779949999999,0.5219670949999999,-0.8398317550000001,-0.0062898999999999,0.33168014,0.07513474,2.563869415,4.5523915100000005,-30.9334679,-2.197944569999999,-0.76600926325,0.48480185045,-0.2670906405,0.058964504895,0.3204401786,0.03669479565,0.003
08:25:58,0.0269506299999999,0.52803103,-0.84330487,-0.0049155999999999,0.33258036,0.07511876,2.58090471,4.56500374,-30.9347916,-2.3095881799999987,-0.7669126804999999,0.4906268333,-0.2740428969999999,0.0598116232299999,0.3215443564,0.0355917581,0.003
08:25:58,0.0336232649999999,0.534094965,-0.846777985,-0.0035412999999999,0.33348058,0.07510278,2.5979400050000003,4.57761597,-30.9361153,-2.4212317899999984,-0.7678160977499999,0.49645181615,-0.2809951534999999,0.060658741565,0.3226485342,0.0344887205499999,0.003
08:25:58,0.0402958999999999,0.5401589,-0.8502510999999999,-0.002167,0.3343808,0.0750868,2.6149753,4.5902282,-30.937439,-2.5328753999999982,-0.768719515,0.5022767990000001,-0.28794741,0.0615058598999999,0.323752712,0.033385683,0.003
08:25:58,0.0469685349999999,0.546222835,-0.853724215,-0.0007927,0.33528102,0.07507082,2.632010595,4.6028404300000005,-30.9387627,-2.64451901,-0.76962293225,0.50810178185,-0.2948996665,0.062352978235,0.3248568898,0.03228264545,0.003
08:25:58,0.0536411699999999,0.55228677,-0.85719733,0.0005816,0.33618124,0.07505484,2.64904589,4.615452660000001,-30.9400864,-2.75616262,-0.7705263495,0.5139267647000001,-0.3018519229999999,0.06320009657,0.3259610676,0.0311796079,0.003
08:25:58,0.0603138049999999,0.5583507050000001,-0.860670445,0.0019559,0.33708146,0.07503886,2.6660811850000004,4.62806489,-30.9414101,-2.86780623,-0.77142976675,0.51975174755,-0.3088041794999999,0.064047214905,0.3270652454,0.0300765703499999,0.003
08:25:58,0.0669864399999998,0.5644146400000001,-0.86414356,0.0033302,0.33798168,0.07502288,2.68311648,4.64067712,-30.9427338,-2.9794498399999974,-0.772333184,0.5255767304000001,-0.315756436,0.0648943332399999,0.3281694232,0.0289735328,0.003
08:25:58,0.0736590749999999,0.5704785750000001,-0.867616675,0.0047045,0.3388819,0.0750069,2.700151775,4.6532893500000005,-30.9440575,-3.091093449999999,-0.77323660125,0.53140171325,-0.3227086925,0.065741451575,0.329273601,0.02787049525,0.003
08:25:58,0.0803317099999999,0.5765425100000001,-0.87108979,0.0060787999999999,0.33978212,0.07499092,2.71718707,4.66590158,-30.9453812,-3.2027370600000005,-0.7741400185,0.5372266961000001,-0.329660949,0.06658856991,0.3303777788,0.0267674576999999,0.003
08:25:58,0.0870043449999998,0.5826064450000001,-0.874562905,0.0074530999999999,0.34068234,0.07497494,2.7342223650000004,4.67851381,-30.9467049,-3.3143806699999985,-0.77504343575,0.54305167895,-0.3366132054999999,0.0674356882449999,0.3314819566,0.02566442015,0.003
08:25:58,0.0936769799999999,0.5886703799999999,-0.87803602,0.0088274,0.34158256,0.07495896,2.7512576600000003,4.69112604,-30.9480286,-3.42602428,-0.775946853,0.5488766618,-0.3435654619999999,0.06828280658,0.3325861344,0.0245613826,0.003
08:25:58,0.1003496149999999,0.594734315,-0.8815091349999999,0.0102017,0.34248278,0.07494298,2.768292955,4.7037382700000006,-30.9493523,-3.537667889999998,-0.77685027025,0.5547016446499999,-0.3505177184999999,0.069129924915,0.3336903122,0.0234583450499999,0.003
08:25:58,0.1070222499999998,0.60079825,-0.88498225,0.011576,0.343383,0.074927,2.78532825,4.716350500000001,-30.950676,-3.6493115,-0.7777536875,0.5605266275,-0.3574699749999999,0.06997704325,0.33479449,0.0223553075,0.003
08:25:58,0.113694885,0.606862185,-0.888455365,0.0129502999999999,0.34428322,0.07491102,2.8023635450000004,4.72896273,-30.9519997,-3.7609551099999976,-0.7786571047499999,0.5663516103499999,-0.3644222315000001,0.070824161585,0.3358986678,0.02125226995,0.003
08:25:58,0.1203675199999999,0.61292612,-0.89192848,0.0143245999999999,0.34518344,0.07489504,2.8193988400000003,4.74157496,-30.9533234,-3.872598719999999,-0.7795605219999999,0.5721765932,-0.371374488,0.07167127992,0.3370028456,0.0201492323999999,0.003
08:25:58,0.1270401549999998,0.618990055,-0.895401595,0.0156988999999999,0.34608366,0.07487906,2.836434135,4.754187190000001,-30.9546471,-3.984242329999997,-0.78046393925,0.5780015760500001,-0.3783267445,0.072518398255,0.3381070234,0.01904619485,0.003
08:25:58,0.13371279,0.6250539900000001,-0.89887471,0.0170732,0.34698388,0.07486308,2.85346943,4.76679942,-30.9559708,-4.095885939999999,-0.7813673565,0.5838265589,-0.385279001,0.07336551659,0.3392112012,0.0179431573,0.003
08:25:58,0.1403854249999999,0.6311179250000001,-0.902347825,0.0184475,0.3478841,0.0748471,2.8705047250000004,4.77941165,-30.9572945,-4.20752955,-0.78227077375,0.5896515417500001,-0.3922312575,0.0742126349249999,0.340315379,0.0168401197499999,0.003
08:25:58,0.1470580599999998,0.6371818600000001,-0.90582094,0.0198218,0.34878432,0.07483112,2.8875400200000003,4.79202388,-30.9586182,-4.319173159999998,-0.783174191,0.5954765246,-0.3991835139999999,0.07505975326,0.3414195568,0.0157370822,0.003
08:25:58,0.153730695,0.6432457950000001,-0.909294055,0.0211960999999999,0.34968454,0.07481514,2.904575315,4.804636110000001,-30.9599419,-4.43081677,-0.7840776082500001,0.6013015074500001,-0.4061357704999999,0.075906871595,0.3425237346,0.01463404465,0.003
08:25:58,0.1604033299999999,0.6493097300000001,-0.91276717,0.0225703999999999,0.35058476,0.07479916,2.92161061,4.817248340000001,-30.9612656,-4.542460379999998,-0.7849810255,0.6071264903,-0.4130880269999999,0.07675398993,0.3436279124,0.0135310070999999,0.003
08:25:58,0.1670759649999998,0.6553736649999999,-0.916240285,0.0239447,0.35148498,0.07478318,2.9386459050000004,4.82986057,-30.9625893,-4.654103989999999,-0.78588444275,0.6129514731500001,-0.4200402834999999,0.077601108265,0.3447320902,0.01242796955,0.003
08:25:58,0.1737485999999998,0.6614376,-0.9197134,0.025319,0.3523852,0.0747672,2.9556812000000003,4.8424728,-30.963913,-4.765747599999997,-0.78678786,0.618776456,-0.4269925400000001,0.0784482266,0.345836268,0.011324932,0.003
08:25:58,0.1804212349999999,0.667501535,-0.923186515,0.0266933,0.35328542,0.07475122,2.972716495,4.855085030000001,-30.9652367,-4.877391209999999,-0.78769127725,0.6246014388500001,-0.4339447965,0.079295344935,0.3469404458,0.0102218944499999,0.003
08:25:58,0.1870938699999998,0.67356547,-0.92665963,0.0280675999999999,0.35418564,0.07473524,2.98975179,4.86769726,-30.9665604,-4.989034819999997,-0.7885946945,0.6304264217,-0.440897053,0.0801424632699999,0.3480446236,0.0091188569,0.003
08:25:58,0.1937665049999998,0.679629405,-0.930132745,0.0294418999999999,0.35508586,0.07471926,3.006787085,4.88030949,-30.9678841,-5.100678429999999,-0.78949811175,0.6362514045500001,-0.4478493095,0.080989581605,0.3491488014,0.00801581935,0.003
08:25:58,0.2004391399999999,0.68569334,-0.93360586,0.0308161999999999,0.35598608,0.07470328,3.0238223800000004,4.89292172,-30.9692078,-5.21232204,-0.7904015289999999,0.6420763874,-0.454801566,0.08183669994,0.3502529792,0.0069127817999999,0.003
08:25:58,0.2071117749999999,0.6917572750000001,-0.937078975,0.0321905,0.3568863,0.0746873,3.0408576750000003,4.905533950000001,-30.9705315,-5.323965649999998,-0.7913049462499999,0.64790137025,-0.4617538224999999,0.082683818275,0.351357157,0.0058097442499999,0.003
08:25:58,0.2137844099999998,0.6978212100000001,-0.94055209,0.0335648,0.35778652,0.07467132,3.05789297,4.918146180000001,-30.9718552,-5.43560926,-0.7922083635,0.6537263530999999,-0.4687060789999999,0.08353093661,0.3524613347999999,0.0047067067,0.003
08:25:58,0.2204570449999999,0.7038851450000001,-0.944025205,0.0349391,0.35868674,0.07465534,3.074928265,4.93075841,-30.9731789,-5.547252869999998,-0.79311178075,0.65955133595,-0.4756583354999999,0.084378054945,0.3535655126,0.00360366915,0.003
08:25:58,0.2271296799999999,0.7099490800000001,-0.94749832,0.0363133999999999,0.35958696,0.07463936,3.0919635600000004,4.94337064,-30.9745026,-5.658896479999999,-0.794015198,0.6653763187999999,-0.4826105919999999,0.08522517328,0.3546696904,0.0025006315999999,0.003
08:25:58,0.2338023149999998,0.7160130150000001,-0.950971435,0.0376876999999999,0.36048718,0.07462338,3.1089988550000003,4.955982870000001,-30.9758263,-5.770540089999997,-0.79491861525,0.67120130165,-0.4895628484999998,0.0860722916149999,0.3557738682,0.00139759405,0.003
08:25:58,0.2404749499999999,0.7220769500000002,-0.95444455,0.039062,0.3613874,0.0746074,3.12603415,4.9685951,-30.97715,-5.882183699999999,-0.7958220325,0.6770262845000001,-0.496515105,0.08691940995,0.356878046,0.0002945565,0.003
08:25:58,0.2471475849999999,0.7281408850000002,-0.957917665,0.0404363,0.36228762,0.07459142,3.143069445,4.98120733,-30.9784737,-5.99382731,-0.79672544975,0.68285126735,-0.5034673615,0.087766528285,0.3579822238,-0.00080848105,0.003
08:25:58,0.2538202199999998,0.7342048200000002,-0.96139078,0.0418106,0.36318784,0.0745754399999999,3.1601047400000004,4.99381956,-30.9797974,-6.105470919999998,-0.797628867,0.6886762501999999,-0.510419618,0.08861364662,0.3590864016,-0.0019115185999999,0.003
08:25:58,0.2604928549999999,0.740268755,-0.964863895,0.0431849,0.36408806,0.07455946,3.1771400350000003,5.006431790000001,-30.9811211,-6.21711453,-0.79853228425,0.69450123305,-0.5173718745,0.089460764955,0.3601905794,-0.0030145561499999,0.003
08:25:58,0.2671654899999999,0.74633269,-0.96833701,0.0445591999999999,0.36498828,0.07454348,3.19417533,5.019044020000001,-30.9824448,-6.328758139999998,-0.7994357015,0.7003262158999999,-0.524324131,0.09030788329,0.3612947572,-0.0041175937,0.003
08:25:58,0.2738381249999998,0.752396625,-0.971810125,0.0459334999999999,0.3658885,0.0745275,3.211210625,5.03165625,-30.9837685,-6.44040175,-0.80033911875,0.70615119875,-0.5312763875,0.091155001625,0.362398935,-0.0052206312499999,0.003
08:25:58,0.2805107599999999,0.7584605600000001,-0.97528324,0.0473078,0.36678872,0.07451152,3.2282459200000004,5.04426848,-30.9850922,-6.5520453599999975,-0.801242536,0.7119761816000001,-0.5382286439999999,0.0920021199599999,0.3635031128,-0.0063236687999999,0.003
08:25:58,0.2871833949999999,0.7645244950000001,-0.978756355,0.0486821,0.36768894,0.07449554,3.2452812150000003,5.056880710000001,-30.9864159,-6.663688969999999,-0.8021459532499999,0.71780116445,-0.5451809004999999,0.092849238295,0.3646072906,-0.00742670635,0.003
08:25:58,0.2938560299999998,0.7705884300000001,-0.98222947,0.0500564,0.36858916,0.07447956,3.26231651,5.06949294,-30.9877396,-6.775332579999997,-0.8030493705,0.7236261473000001,-0.5521331569999999,0.09369635663,0.3657114684,-0.0085297438999999,0.003
08:25:58,0.300528665,0.7766523650000001,-0.985702585,0.0514306999999999,0.36948938,0.07446358,3.279351805,5.08210517,-30.9890633,-6.886976189999999,-0.80395278775,0.72945113015,-0.5590854135000001,0.094543474965,0.3668156462,-0.0096327814499999,0.003
08:25:58,0.3072012999999999,0.7827163000000001,-0.9891757,0.0528049999999999,0.3703896,0.0744476,3.2963871000000005,5.0947174,-30.990387,-6.9986198,-0.804856205,0.7352761130000001,-0.56603767,0.0953905932999999,0.367919824,-0.010735819,0.003
08:25:58,0.3138739349999998,0.7887802350000002,-0.992648815,0.0541793,0.37128982,0.07443162,3.3134223950000004,5.107329630000001,-30.9917107,-7.110263409999998,-0.80575962225,0.74110109585,-0.5729899265,0.096237711635,0.3690240018,-0.0118388565499999,0.003
08:25:58,0.32054657,0.7948441700000002,-0.99612193,0.0555535999999999,0.37219004,0.07441564,3.33045769,5.119941860000001,-30.9930344,-7.22190702,-0.8066630395,0.7469260787,-0.579942183,0.09708482997,0.3701281796,-0.0129418940999999,0.003
08:25:58,0.3272192049999999,0.8009081050000002,-0.999595045,0.0569278999999999,0.37309026,0.07439966,3.347492985,5.13255409,-30.9943581,-7.333550629999998,-0.80756645675,0.7527510615499999,-0.5868944395,0.097931948305,0.3712323574,-0.01404493165,0.003
08:25:58,0.3338918399999998,0.80697204,-1.00306816,0.0583022,0.37399048,0.07438368,3.3645282800000005,5.14516632,-30.9956818,-7.445194239999999,-0.808469874,0.7585760444,-0.593846696,0.09877906664,0.3723365352,-0.0151479692,0.003
08:25:58,0.340564475,0.813035975,-1.006541275,0.0596765,0.3748907,0.0743677,3.3815635750000004,5.157778550000001,-30.9970055,-7.556837849999997,-0.80937329125,0.7644010272499999,-0.6007989524999999,0.099626184975,0.373440713,-0.0162510067499999,0.003
08:25:58,0.3472371099999999,0.81909991,-1.01001439,0.0610508,0.37579092,0.07435172,3.3985988700000003,5.17039078,-30.9983292,-7.668481459999999,-0.8102767085,0.7702260101,-0.6077512089999999,0.10047330331,0.3745448908,-0.0173540443,0.003
08:25:58,0.3539097449999998,0.8251638450000001,-1.013487505,0.0624251,0.37669114,0.07433574,3.415634165,5.18300301,-30.9996529,-7.780125069999997,-0.81118012575,0.7760509929499999,-0.6147034654999999,0.1013204216449999,0.3756490686,-0.01845708185,0.003
08:25:58,0.36058238,0.8312277800000001,-1.01696062,0.0637994,0.37759136,0.07431976,3.4326694600000005,5.19561524,-31.0009766,-7.891768679999998,-0.812083543,0.7818759758,-0.6216557220000001,0.10216753998,0.3767532464,-0.0195601193999999,0.003
08:25:58,0.3672550149999999,0.8372917150000001,-1.020433735,0.0651737,0.37849158,0.07430378,3.4497047550000004,5.208227470000001,-31.0023003,-8.00341229,-0.81298696025,0.7877009586499999,-0.6286079785,0.103014658315,0.3778574242,-0.02066315695,0.003
08:25:58,0.3739276499999998,0.8433556500000001,-1.02390685,0.066548,0.3793918,0.0742878,3.4667400500000003,5.220839700000001,-31.003624,-8.115055899999998,-0.8138903774999999,0.7935259415,-0.635560235,0.10386177665,0.378961602,-0.0217661945,0.003
08:25:58,0.380600285,0.8494195850000001,-1.027379965,0.0679222999999999,0.38029202,0.07427182,3.483775345,5.23345193,-31.0049477,-8.22669951,-0.81479379475,0.7993509243499999,-0.6425124915,0.104708894985,0.3800657798,-0.0228692320499999,0.003
08:25:58,0.3872729199999999,0.8554835200000002,-1.03085308,0.0692965999999999,0.38119224,0.07425584,3.50081064,5.24606416,-31.0062714,-8.338343119999998,-0.815697212,0.8051759072,-0.649464748,0.10555601332,0.3811699576,-0.0239722696,0.003
08:25:58,0.3939455549999998,0.8615474550000002,-1.034326195,0.0706708999999999,0.38209246,0.07423986,3.5178459350000004,5.258676390000001,-31.0075951,-8.44998673,-0.81660062925,0.8110008900500001,-0.6564170045,0.106403131655,0.3822741354,-0.02507530715,0.003
08:25:58,0.40061819,0.8676113900000002,-1.03779931,0.0720451999999999,0.38299268,0.07422388,3.5348812300000003,5.27128862,-31.0089188,-8.561630339999997,-0.8175040465,0.8168258729,-0.6633692609999999,0.1072502499899999,0.3833783132,-0.0261783446999999,0.003
08:25:58,0.4072908249999999,0.873675325,-1.041272425,0.0734195,0.3838929,0.0742079,3.551916525,5.28390085,-31.0102425,-8.673273949999999,-0.81840746375,0.8226508557500001,-0.6703215174999999,0.108097368325,0.384482491,-0.0272813822499999,0.003
08:25:58,0.4139634599999998,0.87973926,-1.04474554,0.0747938,0.38479312,0.07419192,3.56895182,5.29651308,-31.0115662,-8.784917559999997,-0.819310881,0.8284758386,-0.6772737739999999,0.10894448666,0.3855866688,-0.0283844198,0.003
08:25:58,0.420636095,0.885803195,-1.048218655,0.0761681,0.38569334,0.07417594,3.5859871150000004,5.309125310000001,-31.0128899,-8.896561169999998,-0.82021429825,0.8343008214500001,-0.6842260305000001,0.109791604995,0.3866908465999999,-0.0294874573499999,0.003
08:25:58,0.4273087299999999,0.8918671300000001,-1.05169177,0.0775424,0.38659356,0.07415996,3.60302241,5.321737540000001,-31.0142136,-9.00820478,-0.8211177155,0.8401258043,-0.6911782870000001,0.11063872333,0.3877950244,-0.0305904948999999,0.003
08:25:58,0.4339813649999998,0.8979310650000001,-1.055164885,0.0789167,0.38749378,0.07414398,3.620057705,5.33434977,-31.0155373,-9.119848389999998,-0.82202113275,0.84595078715,-0.6981305435,0.111485841665,0.3888992022,-0.03169353245,0.003
08:25:59,0.440654,0.903995,-1.058638,0.080291,0.388394,0.074128,3.637093,5.346962,-31.016861,-9.231492,-0.82292455,0.85177577,-0.7050828,0.11233296,0.39000338,-0.03279657,0.003
08:25:59,0.439590525,0.898141415,-1.054180595,0.07963581,0.38754705,0.073504775,3.5961879800000003,5.3112440350000005,-31.007568015,-9.126693555,-0.8191150051,0.8462207821500001,-0.7028194582,0.1114106376,0.3891520948,-0.0325751777449999,0.003
08:25:59,0.43852705,0.89228783,-1.04972319,0.07898062,0.3867001,0.07288155,3.55528296,5.275526070000001,-30.99827503,-9.02189511,-0.8153054601999999,0.8406657943,-0.7005561164,0.1104883151999999,0.3883008096,-0.0323537854899999,0.003
08:25:59,0.437463575,0.886434245,-1.045265785,0.07832543,0.38585315,0.072258325,3.51437794,5.239808105000001,-30.988982045,-8.917096664999999,-0.8114959153,0.83511080645,-0.6982927746,0.1095659928,0.3874495244,-0.0321323932349999,0.003
08:25:59,0.4364001,0.88058066,-1.04080838,0.07767024,0.3850062,0.0716351,3.4734729200000003,5.204090140000001,-30.97968906,-8.812298219999999,-0.8076863704,0.8295558186,-0.6960294328,0.1086436703999999,0.3865982392,-0.03191100098,0.003
08:25:59,0.435336625,0.874727075,-1.036350975,0.07701505,0.38415925,0.071011875,3.4325679,5.168372175,-30.970396075,-8.707499774999999,-0.8038768255,0.8240008307500001,-0.693766091,0.107721348,0.385746954,-0.031689608725,0.003
08:25:59,0.43427315,0.86887349,-1.03189357,0.07635986,0.3833123,0.07038865,3.39166288,5.13265421,-30.96110309,-8.602701329999999,-0.8000672806,0.8184458429,-0.6915027492,0.1067990256,0.3848956688,-0.03146821647,0.003
08:25:59,0.433209675,0.863019905,-1.027436165,0.07570467,0.38246535,0.0697654249999999,3.3507578600000003,5.096936245,-30.951810105,-8.497902885,-0.7962577357,0.81289085505,-0.6892394074,0.1058767031999999,0.3840443836,-0.0312468242149999,0.003
08:25:59,0.4321462,0.85716632,-1.02297876,0.07504948,0.3816184,0.0691422,3.30985284,5.06121828,-30.94251712,-8.39310444,-0.7924481908,0.8073358672000001,-0.6869760656,0.1049543808,0.3831930984,-0.03102543196,0.003
08:25:59,0.431082725,0.851312735,-1.018521355,0.07439429,0.38077145,0.068518975,3.26894782,5.025500315,-30.933224135,-8.288305995,-0.7886386459,0.8017808793500001,-0.6847127238,0.1040320583999999,0.3823418132,-0.0308040397049999,0.003
08:25:59,0.4300192499999999,0.8454591499999999,-1.01406395,0.0737391,0.3799245,0.06789575,3.2280428,4.9897823500000005,-30.92393115,-8.18350755,-0.784829101,0.7962258915,-0.682449382,0.103109736,0.381490528,-0.0305826474499999,0.003
08:25:59,0.428955775,0.839605565,-1.009606545,0.07308391,0.37907755,0.067272525,3.18713778,4.954064385000001,-30.914638165,-8.078709105,-0.7810195561,0.79067090365,-0.6801860402,0.1021874136,0.3806392428,-0.030361255195,0.003
08:25:59,0.4278923,0.83375198,-1.00514914,0.07242872,0.3782306,0.0666493,3.14623276,4.918346420000001,-30.90534518,-7.97391066,-0.7772100112,0.7851159158000001,-0.6779226984,0.1012650911999999,0.3797879576,-0.0301398629399999,0.003
08:25:59,0.4268288249999999,0.827898395,-1.000691735,0.07177353,0.37738365,0.066026075,3.10532774,4.882628455000001,-30.896052195,-7.869112214999999,-0.7734004663,0.77956092795,-0.6756593566,0.1003427688,0.3789366724,-0.0299184706849999,0.003
08:25:59,0.42576535,0.82204481,-0.99623433,0.07111834,0.3765367,0.06540285,3.06442272,4.846910490000001,-30.88675921,-7.764313769999999,-0.7695909214,0.7740059401,-0.6733960148,0.0994204464,0.3780853872,-0.0296970784299999,0.003
08:25:59,0.424701875,0.816191225,-0.991776925,0.07046315,0.37568975,0.064779625,3.0235177,4.811192525,-30.877466225,-7.659515324999999,-0.7657813765,0.76845095225,-0.671132673,0.0984981239999999,0.377234102,-0.0294756861749999,0.003
08:25:59,0.4236383999999999,0.81033764,-0.98731952,0.06980796,0.3748428,0.0641564,2.98261268,4.77547456,-30.86817324,-7.554716879999999,-0.7619718315999999,0.7628959644000001,-0.6688693312,0.0975758016,0.3763828168,-0.0292542939199999,0.003
08:25:59,0.422574925,0.804484055,-0.982862115,0.06915277,0.37399585,0.063533175,2.94170766,4.739756595,-30.858880255,-7.449918435,-0.7581622867,0.75734097655,-0.6666059894,0.0966534792,0.3755315316,-0.029032901665,0.003
08:25:59,0.42151145,0.79863047,-0.97840471,0.06849758,0.3731489,0.0629099499999999,2.90080264,4.70403863,-30.84958727,-7.34511999,-0.7543527418,0.7517859887,-0.6643426476000001,0.0957311568,0.3746802464,-0.02881150941,0.003
08:25:59,0.420447975,0.792776885,-0.973947305,0.06784239,0.37230195,0.062286725,2.85989762,4.668320665,-30.840294285,-7.240321545,-0.7505431969,0.74623100085,-0.6620793058,0.0948088344,0.3738289612,-0.0285901171549999,0.003
08:25:59,0.4193845,0.7869233,-0.9694899,0.0671872,0.371455,0.0616634999999999,2.8189926,4.6326027000000005,-30.8310013,-7.1355231,-0.746733652,0.7406760130000001,-0.659815964,0.0938865119999999,0.372977676,-0.0283687248999999,0.003
08:25:59,0.418321025,0.781069715,-0.965032495,0.06653201,0.37060805,0.061040275,2.77808758,4.596884735000001,-30.821708315,-7.030724655,-0.7429241071,0.73512102515,-0.6575526222,0.0929641896,0.3721263908,-0.028147332645,0.003
08:25:59,0.41725755,0.77521613,-0.96057509,0.06587682,0.3697611,0.06041705,2.73718256,4.561166770000001,-30.81241533,-6.92592621,-0.7391145621999999,0.7295660373,-0.6552892804,0.0920418671999999,0.3712751056,-0.0279259403899999,0.003
08:25:59,0.416194075,0.769362545,-0.956117685,0.06522163,0.36891415,0.0597938249999999,2.69627754,4.525448805,-30.803122345,-6.821127765,-0.7353050173,0.72401104945,-0.6530259386,0.0911195448,0.3704238204,-0.0277045481349999,0.003
08:25:59,0.4151306,0.76350896,-0.95166028,0.06456644,0.3680672,0.0591706,2.65537252,4.48973084,-30.79382936,-6.71632932,-0.7314954724,0.7184560616,-0.6507625968,0.0901972224,0.3695725352,-0.02748315588,0.003
08:25:59,0.414067125,0.757655375,-0.947202875,0.06391125,0.36722025,0.058547375,2.6144675,4.454012875,-30.784536375,-6.611530875,-0.7276859274999999,0.71290107375,-0.648499255,0.0892748999999999,0.36872125,-0.0272617636249999,0.003
08:25:59,0.41300365,0.75180179,-0.94274547,0.06325606,0.3663733,0.0579241499999999,2.57356248,4.41829491,-30.77524339,-6.50673243,-0.7238763826,0.7073460859,-0.6462359132,0.0883525776,0.3678699648,-0.0270403713699999,0.003
08:25:59,0.411940175,0.745948205,-0.938288065,0.06260087,0.36552635,0.057300925,2.53265746,4.382576945,-30.765950405,-6.401933984999999,-0.7200668377,0.70179109805,-0.6439725714,0.0874302552,0.3670186796,-0.026818979115,0.003
08:25:59,0.4108767,0.74009462,-0.93383066,0.06194568,0.3646794,0.0566777,2.49175244,4.34685898,-30.75665742,-6.297135539999999,-0.7162572928,0.6962361102,-0.6417092296,0.0865079327999999,0.3661673944,-0.0265975868599999,0.003
08:25:59,0.409813225,0.734241035,-0.929373255,0.06129049,0.36383245,0.056054475,2.45084742,4.3111410150000005,-30.747364435,-6.192337094999999,-0.7124477479,0.69068112235,-0.6394458878,0.0855856104,0.3653161092,-0.0263761946049999,0.003
08:25:59,0.40874975,0.72838745,-0.92491585,0.0606353,0.3629855,0.05543125,2.4099424000000003,4.275423050000001,-30.73807145,-6.087538649999999,-0.708638203,0.6851261345,-0.637182546,0.084663288,0.364464824,-0.02615480235,0.003
08:25:59,0.407686275,0.7225338649999999,-0.920458445,0.05998011,0.36213855,0.0548080249999999,2.36903738,4.239705085000001,-30.728778465,-5.982740205,-0.7048286581,0.6795711466500001,-0.6349192042,0.0837409656,0.3636135388,-0.0259334100949999,0.003
08:25:59,0.4066228,0.7166802800000001,-0.91600104,0.05932492,0.3612916,0.0541848,2.32813236,4.203987120000001,-30.71948548,-5.87794176,-0.7010191132,0.6740161588,-0.6326558624,0.0828186432,0.3627622536,-0.0257120178399999,0.003
08:25:59,0.4055593249999999,0.710826695,-0.911543635,0.05866973,0.36044465,0.053561575,2.2872273400000003,4.168269155000001,-30.710192495,-5.773143315,-0.6972095683,0.66846117095,-0.6303925206000001,0.0818963207999999,0.3619109684,-0.0254906255849999,0.003
08:25:59,0.40449585,0.7049731100000001,-0.90708623,0.05801454,0.3595977,0.0529383499999999,2.24632232,4.13255119,-30.70089951,-5.66834487,-0.6934000234,0.6629061831,-0.6281291788,0.0809739984,0.3610596832,-0.0252692333299999,0.003
08:25:59,0.403432375,0.699119525,-0.902628825,0.05735935,0.35875075,0.052315125,2.2054173,4.096833225,-30.691606525,-5.563546425,-0.6895904785,0.65735119525,-0.625865837,0.0800516759999999,0.360208398,-0.0250478410749999,0.003
08:25:59,0.4023689,0.69326594,-0.8981714199999999,0.05670416,0.3579038,0.0516919,2.1645122800000003,4.06111526,-30.68231354,-5.45874798,-0.6857809336,0.6517962074,-0.6236024952,0.0791293536,0.3593571128,-0.02482644882,0.003
08:25:59,0.401305425,0.687412355,-0.893714015,0.05604897,0.35705685,0.0510686749999999,2.12360726,4.025397295,-30.673020555,-5.353949535,-0.6819713887,0.64624121955,-0.6213391534,0.0782070312,0.3585058276,-0.024605056565,0.003
08:25:59,0.40024195,0.68155877,-0.8892566099999999,0.05539378,0.3562099,0.05044545,2.08270224,3.98967933,-30.66372757,-5.24915109,-0.6781618438,0.6406862316999999,-0.6190758116,0.0772847087999999,0.3576545424,-0.0243836643099999,0.003
08:25:59,0.399178475,0.675705185,-0.884799205,0.05473859,0.35536295,0.049822225,2.0417972200000003,3.953961365000001,-30.654434585,-5.144352645,-0.6743522988999999,0.63513124385,-0.6168124698,0.0763623864,0.3568032572,-0.0241622720549999,0.003
08:25:59,0.398115,0.6698516,-0.8803418,0.0540834,0.354516,0.049199,2.0008922,3.9182434,-30.6451416,-5.0395542,-0.670542754,0.629576256,-0.614549128,0.075440064,0.355951972,-0.0239408798,0.003
08:25:59,0.397051525,0.663998015,-0.8758843949999999,0.05342821,0.35366905,0.048575775,1.95998718,3.882525435,-30.635848615,-4.934755754999999,-0.6667332091,0.62402126815,-0.6122857862,0.0745177415999999,0.3551006868,-0.0237194875449999,0.003
08:25:59,0.39598805,0.65814443,-0.87142699,0.05277302,0.3528221,0.04795255,1.91908216,3.84680747,-30.62655563,-4.82995731,-0.6629236642,0.6184662803000001,-0.6100224444,0.0735954192,0.3542494016,-0.02349809529,0.003
08:25:59,0.394924575,0.652290845,-0.866969585,0.05211783,0.35197515,0.047329325,1.87817714,3.811089505,-30.617262645,-4.725158865,-0.6591141193,0.61291129245,-0.6077591026,0.0726730968,0.3533981164,-0.023276703035,0.003
08:25:59,0.3938610999999999,0.64643726,-0.86251218,0.05146264,0.3511282,0.0467061,1.83727212,3.77537154,-30.60796966,-4.62036042,-0.6553045744,0.6073563046,-0.6054957608,0.0717507744,0.3525468312,-0.0230553107799999,0.003
08:25:59,0.392797625,0.640583675,-0.8580547749999999,0.05080745,0.35028125,0.0460828749999999,1.7963671,3.739653575,-30.598676675,-4.515561975,-0.6514950294999999,0.60180131675,-0.603232419,0.070828452,0.351695546,-0.0228339185249999,0.003
08:25:59,0.39173415,0.63473009,-0.8535973699999999,0.05015226,0.3494343,0.04545965,1.75546208,3.70393561,-30.58938369,-4.41076353,-0.6476854846,0.5962463289,-0.6009690772,0.0699061296,0.3508442608,-0.0226125262699999,0.003
08:25:59,0.3906706749999999,0.628876505,-0.849139965,0.04949707,0.34858735,0.044836425,1.7145570600000002,3.668217645,-30.580090705,-4.305965085,-0.6438759397,0.59069134105,-0.5987057354,0.0689838072,0.3499929756,-0.0223911340149999,0.003
08:25:59,0.3896072,0.62302292,-0.84468256,0.04884188,0.3477404,0.0442131999999999,1.67365204,3.632499680000001,-30.57079772,-4.20116664,-0.6400663948,0.5851363532,-0.5964423936000001,0.0680614847999999,0.3491416904,-0.02216974176,0.003
08:25:59,0.388543725,0.617169335,-0.840225155,0.04818669,0.34689345,0.0435899749999999,1.63274702,3.5967817150000005,-30.561504735,-4.096368195,-0.6362568499,0.5795813653499999,-0.5941790518,0.0671391624,0.3482904052,-0.021948349505,0.003
08:25:59,0.3874802499999999,0.6113157499999999,-0.8357677499999999,0.0475315,0.3460465,0.04296675,1.5918420000000002,3.56106375,-30.55221175,-3.99156975,-0.632447305,0.5740263775000001,-0.59191571,0.06621684,0.34743912,-0.0217269572499999,0.003
08:25:59,0.386416775,0.605462165,-0.8313103449999999,0.04687631,0.34519955,0.042343525,1.55093698,3.5253457850000003,-30.542918765,-3.886771305,-0.6286377600999999,0.56847138965,-0.5896523682,0.0652945175999999,0.3465878348,-0.0215055649949999,0.003
08:25:59,0.3853533,0.59960858,-0.82685294,0.04622112,0.3443526,0.0417202999999999,1.51003196,3.48962782,-30.53362578,-3.78197286,-0.6248282152,0.5629164018,-0.5873890264,0.0643721952,0.3457365496,-0.0212841727399999,0.003
08:25:59,0.384289825,0.5937549950000001,-0.822395535,0.04556593,0.34350565,0.041097075,1.4691269400000002,3.453909855,-30.524332795,-3.677174415,-0.6210186703,0.55736141395,-0.5851256846,0.0634498728,0.3448852644,-0.0210627804849999,0.003
08:25:59,0.38322635,0.58790141,-0.8179381299999999,0.04491074,0.3426587,0.04047385,1.42822192,3.41819189,-30.51503981,-3.5723759699999995,-0.6172091254000001,0.5518064261,-0.5828623428,0.0625275503999999,0.3440339792,-0.02084138823,0.003
08:25:59,0.382162875,0.5820478250000001,-0.813480725,0.04425555,0.34181175,0.039850625,1.3873169,3.382473925,-30.505746825,-3.4675775250000003,-0.6133995805,0.54625143825,-0.580599001,0.061605228,0.343182694,-0.020619995975,0.003
08:25:59,0.3810994,0.57619424,-0.80902332,0.04360036,0.3409648,0.0392273999999999,1.3464118800000002,3.3467559600000003,-30.49645384,-3.36277908,-0.6095900356,0.5406964504,-0.5783356592,0.0606829055999999,0.3423314088,-0.02039860372,0.003
08:25:59,0.380035925,0.5703406550000001,-0.804565915,0.04294517,0.34011785,0.038604175,1.30550686,3.3110379950000004,-30.487160855,-3.257980635,-0.6057804907,0.53514146255,-0.5760723174,0.0597605831999999,0.3414801236,-0.0201772114649999,0.003
08:25:59,0.37897245,0.56448707,-0.8001085099999999,0.04228998,0.3392709,0.03798095,1.26460184,3.27532003,-30.47786787,-3.15318219,-0.6019709458,0.5295864747,-0.5738089756,0.0588382608,0.3406288384,-0.0199558192099999,0.003
08:25:59,0.377908975,0.558633485,-0.7956511049999999,0.04163479,0.33842395,0.0373577249999999,1.2236968200000002,3.239602065,-30.468574885,-3.048383745,-0.5981614009,0.52403148685,-0.5715456338,0.0579159384,0.3397775532,-0.019734426955,0.003
08:25:59,0.3768455,0.5527799,-0.7911937,0.0409796,0.337577,0.0367344999999999,1.1827918,3.2038841,-30.4592819,-2.9435853,-0.5943518560000001,0.5184764989999999,-0.569282292,0.056993616,0.338926268,-0.0195130346999999,0.003
08:25:59,0.375782025,0.546926315,-0.786736295,0.04032441,0.33673005,0.036111275,1.14188678,3.1681661350000003,-30.449988915,-2.8387868550000004,-0.5905423111,0.5129215111500001,-0.5670189502,0.0560712935999999,0.3380749828,-0.019291642445,0.003
08:25:59,0.37471855,0.54107273,-0.78227889,0.03966922,0.3358831,0.03548805,1.1009817600000005,3.13244817,-30.44069593,-2.7339884100000003,-0.5867327662,0.5073665233,-0.5647556084,0.0551489712,0.3372236976,-0.01907025019,0.003
08:25:59,0.373655075,0.535219145,-0.777821485,0.03901403,0.33503615,0.0348648249999999,1.06007674,3.096730205,-30.431402945,-2.629189965,-0.5829232213,0.50181153545,-0.5624922666000001,0.0542266488,0.3363724124,-0.0188488579349999,0.003
08:25:59,0.3725916,0.52936556,-0.7733640799999999,0.03835884,0.3341892,0.0342416,1.01917172,3.06101224,-30.42210996,-2.52439152,-0.5791136764,0.4962565476,-0.5602289248,0.0533043264,0.3355211272,-0.0186274656799999,0.003
08:25:59,0.371528125,0.523511975,-0.768906675,0.03770365,0.33334225,0.033618375,0.9782667000000004,3.0252942750000003,-30.412816975,-2.419593075,-0.5753041315,0.4907015597499999,-0.557965583,0.0523820039999999,0.334669842,-0.018406073425,0.003
08:25:59,0.37046465,0.51765839,-0.76444927,0.03704846,0.3324953,0.0329951499999999,0.93736168,2.9895763100000003,-30.40352399,-2.31479463,-0.5714945866000001,0.4851465719,-0.5557022412,0.0514596815999999,0.3338185568,-0.0181846811699999,0.003
08:25:59,0.369401175,0.511804805,-0.7599918649999999,0.03639327,0.33164835,0.0323719249999999,0.8964566600000001,2.953858345,-30.394231005,-2.209996185,-0.5676850417,0.4795915840499999,-0.5534388994,0.0505373592,0.3329672716,-0.017963288915,0.003
08:25:59,0.3683377,0.50595122,-0.75553446,0.03573808,0.3308014,0.0317487,0.8555516400000003,2.91814038,-30.38493802,-2.1051977400000004,-0.5638754967999999,0.4740365962,-0.5511755576,0.0496150368,0.3321159864,-0.01774189666,0.003
08:25:59,0.367274225,0.500097635,-0.7510770549999999,0.03508289,0.32995445,0.031125475,0.81464662,2.882422415,-30.375645035,-2.000399295,-0.5600659519,0.4684816083499999,-0.5489122157999999,0.0486927144,0.3312647012,-0.0175205044049999,0.003
08:25:59,0.36621075,0.49424405,-0.74661965,0.0344277,0.3291075,0.0305022499999999,0.7737416000000001,2.8467044500000003,-30.36635205,-1.89560085,-0.556256407,0.4629266205,-0.546648874,0.0477703919999999,0.330413416,-0.0172991121499999,0.003
08:25:59,0.365147275,0.488390465,-0.7421622449999999,0.03377251,0.32826055,0.0298790249999999,0.7328365800000003,2.810986485,-30.357059065,-1.790802405,-0.5524468621,0.4573716326499999,-0.5443855322,0.0468480696,0.3295621308,-0.017077719895,0.003
08:25:59,0.3640838,0.48253688,-0.7377048399999999,0.03311732,0.3274136,0.0292558,0.69193156,2.77526852,-30.34776608,-1.68600396,-0.5486373172,0.4518166448,-0.5421221904,0.0459257471999999,0.3287108456,-0.0168563276399999,0.003
08:25:59,0.363020325,0.476683295,-0.733247435,0.03246213,0.32656665,0.0286325749999999,0.6510265400000002,2.739550555,-30.338473095,-1.5812055149999995,-0.5448277723,0.44626165695,-0.5398588486,0.0450034248,0.3278595604,-0.0166349353849999,0.003
08:25:59,0.36195685,0.47082971,-0.72879003,0.03180694,0.3257197,0.0280093499999999,0.6101215200000003,2.70383259,-30.32918011,-1.4764070700000005,-0.5410182273999999,0.4407066691,-0.5375955068,0.0440811024,0.3270082752,-0.01641354313,0.003
08:25:59,0.360893375,0.464976125,-0.724332625,0.03115175,0.32487275,0.0273861249999999,0.5692165,2.6681146250000003,-30.319887125,-1.3716086250000004,-0.5372086825,0.43515168125,-0.535332165,0.0431587799999999,0.32615699,-0.016192150875,0.003
08:25:59,0.3598299,0.45912254,-0.7198752199999999,0.03049656,0.3240258,0.0267629,0.5283114800000002,2.63239666,-30.31059414,-1.2668101800000002,-0.5333991376,0.4295966933999999,-0.5330688232,0.0422364576,0.3253057048,-0.0159707586199999,0.003
08:25:59,0.358766425,0.453268955,-0.7154178149999999,0.02984137,0.32317885,0.0261396749999999,0.4874064600000003,2.596678695,-30.301301155,-1.162011735,-0.5295895927000001,0.42404170555,-0.5308054814000001,0.0413141352,0.3244544196,-0.015749366365,0.003
08:25:59,0.3577029499999999,0.44741537,-0.71096041,0.02918618,0.3223319,0.0255164499999999,0.44650144,2.56096073,-30.29200817,-1.05721329,-0.5257800478,0.4184867176999999,-0.5285421396,0.0403918127999999,0.3236031344,-0.0155279741099999,0.003
08:25:59,0.356639475,0.441561785,-0.706503005,0.02853099,0.32148495,0.0248932249999999,0.4055964200000002,2.525242765,-30.282715185,-0.9524148449999998,-0.5219705029,0.41293172985,-0.5262787978,0.0394694904,0.3227518492,-0.0153065818549999,0.003
08:25:59,0.355576,0.4357082,-0.7020455999999999,0.0278758,0.320638,0.02427,0.3646913999999999,2.4895248,-30.2734222,-0.8476163999999997,-0.518160958,0.4073767419999999,-0.524015456,0.0385471679999999,0.321900564,-0.0150851896,0.003
08:25:59,0.3545125249999999,0.429854615,-0.697588195,0.02722061,0.31979105,0.0236467749999999,0.32378638,2.453806835,-30.264129215,-0.7428179549999996,-0.5143514131,0.40182175415,-0.5217521142,0.0376248456,0.3210492788,-0.0148637973449999,0.003
08:25:59,0.35344905,0.42400103,-0.6931307899999999,0.02656542,0.3189441,0.0230235499999999,0.2828813600000002,2.41808887,-30.25483623,-0.6380195099999995,-0.5105418682,0.3962667662999999,-0.5194887724,0.0367025232,0.3201979936,-0.0146424050899999,0.003
08:25:59,0.352385575,0.418147445,-0.688673385,0.02591023,0.31809715,0.022400325,0.2419763399999999,2.382370905,-30.245543245,-0.5332210649999993,-0.5067323233000001,0.39071177845,-0.5172254306,0.0357802007999999,0.3193467084,-0.014421012835,0.003
08:25:59,0.3513220999999999,0.41229386,-0.68421598,0.02525504,0.3172502,0.0217770999999999,0.20107132,2.34665294,-30.23625026,-0.428422620000001,-0.5029227784,0.3851567905999999,-0.5149620887999999,0.0348578784,0.3184954232,-0.0141996205799999,0.003
08:25:59,0.350258625,0.406440275,-0.6797585749999999,0.02459985,0.31640325,0.0211538749999999,0.1601663000000002,2.310934975,-30.226957275,-0.3236241750000008,-0.4991132335,0.37960180275,-0.512698747,0.0339355559999999,0.317644138,-0.0139782283249999,0.003
08:25:59,0.34919515,0.40058669,-0.67530117,0.02394466,0.3155563,0.0205306499999999,0.1192612799999999,2.27521701,-30.21766429,-0.2188257300000007,-0.4953036886,0.3740468148999999,-0.5104354052,0.0330132336,0.3167928528,-0.01375683607,0.003
08:25:59,0.348131675,0.394733105,-0.6708437649999999,0.02328947,0.31470935,0.019907425,0.07835626,2.239499045,-30.208371305,-0.1140272850000005,-0.4914941437,0.3684918270499999,-0.5081720634,0.0320909112,0.3159415676,-0.013535443815,0.003
08:25:59,0.3470682,0.38887952,-0.66638636,0.02263428,0.3138624,0.0192841999999999,0.0374512400000002,2.20378108,-30.19907832,-0.0092288400000004,-0.4876845988,0.3629368391999999,-0.5059087216,0.0311685887999999,0.3150902824,-0.0133140515599999,0.003
08:25:59,0.346004725,0.383025935,-0.6619289549999999,0.02197909,0.31301545,0.0186609749999999,-0.00345378,2.1680631150000003,-30.189785335,0.0955696049999996,-0.4838750539,0.3573818513499999,-0.5036453798,0.0302462664,0.3142389972,-0.013092659305,0.003
08:25:59,0.34494125,0.37717235,-0.6574715499999999,0.0213239,0.3121685,0.0180377499999999,-0.0443587999999999,2.13234515,-30.18049235,0.2003680499999998,-0.480065509,0.3518268635,-0.501382038,0.029323944,0.313387712,-0.01287126705,0.003
08:25:59,0.343877775,0.371318765,-0.653014145,0.02066871,0.31132155,0.0174145249999999,-0.0852638199999997,2.096627185,-30.171199365,0.3051664949999999,-0.4762559641,0.3462718756499999,-0.4991186962,0.0284016215999999,0.3125364268,-0.0126498747949999,0.003
08:25:59,0.3428143,0.36546518,-0.64855674,0.02001352,0.3104746,0.0167912999999999,-0.12616884,2.06090922,-30.16190638,0.40996494,-0.4724464192,0.3407168878,-0.4968553544,0.0274792992,0.3116851416,-0.0124284825399999,0.003
08:25:59,0.341750825,0.359611595,-0.6440993349999999,0.01935833,0.30962765,0.0161680749999999,-0.1670738599999999,2.025191255,-30.152613395,0.5147633850000002,-0.4686368743,0.33516189995,-0.4945920125999999,0.0265569767999999,0.3108338564,-0.012207090285,0.003
08:25:59,0.34068735,0.35375801,-0.63964193,0.01870314,0.3087807,0.0155448499999999,-0.2079788799999997,1.98947329,-30.14332041,0.6195618300000003,-0.4648273294,0.3296069120999999,-0.4923286708,0.0256346543999999,0.3099825712,-0.0119856980299999,0.003
08:25:59,0.339623875,0.3479044250000001,-0.6351845249999999,0.01804795,0.30793375,0.0149216249999999,-0.2488839,1.953755325,-30.134027425,0.7243602750000004,-0.4610177845,0.3240519242499999,-0.490065329,0.024712332,0.309131286,-0.0117643057749999,0.003
08:25:59,0.3385604,0.3420508400000001,-0.63072712,0.01739276,0.3070868,0.0142983999999999,-0.2897889199999999,1.91803736,-30.12473444,0.8291587199999988,-0.4572082396,0.3184969364,-0.4878019872,0.0237900095999999,0.3082800008,-0.01154291352,0.003
08:25:59,0.337496925,0.336197255,-0.626269715,0.01673757,0.30623985,0.0136751749999999,-0.3306939399999997,1.882319395,-30.115441455,0.9339571649999988,-0.4533986947,0.3129419485499999,-0.4855386454,0.0228676872,0.3074287156,-0.0113215212649999,0.003
08:25:59,0.33643345,0.33034367,-0.6218123099999999,0.01608238,0.3053929,0.0130519499999999,-0.37159896,1.84660143,-30.10614847,1.038755609999999,-0.4495891498,0.3073869606999999,-0.4832753036,0.0219453647999999,0.3065774304,-0.0111001290099999,0.003
08:25:59,0.335369975,0.324490085,-0.617354905,0.01542719,0.30454595,0.0124287249999999,-0.4125039800000003,1.810883465,-30.096855485,1.1435540549999992,-0.4457796049,0.3018319728499999,-0.4810119618,0.0210230423999999,0.3057261452,-0.010878736755,0.003
08:25:59,0.3343065,0.3186365,-0.6128974999999999,0.014772,0.303699,0.0118054999999999,-0.4534089999999997,1.7751655,-30.0875625,1.2483524999999993,-0.44197006,0.296276985,-0.4787486199999999,0.02010072,0.30487486,-0.0106573444999999,0.003
08:25:59,0.333243025,0.312782915,-0.608440095,0.01411681,0.30285205,0.0111822749999999,-0.49431402,1.739447535,-30.078269515,1.3531509449999994,-0.4381605151,0.2907219971499999,-0.4764852782,0.0191783975999999,0.3040235748,-0.0104359522449999,0.003
08:25:59,0.33217955,0.30692933,-0.6039826899999999,0.01346162,0.3020051,0.01055905,-0.5352190400000003,1.70372957,-30.06897653,1.4579493899999996,-0.4343509702,0.2851670092999999,-0.4742219364,0.0182560752,0.3031722896,-0.01021455999,0.003
08:25:59,0.331116075,0.301075745,-0.5995252849999999,0.01280643,0.30115815,0.0099358249999999,-0.5761240599999997,1.6680116049999998,-30.059683545,1.5627478349999997,-0.4305414253,0.2796120214499999,-0.4719585946,0.0173337528,0.3023210044,-0.0099931677349999,0.003
08:25:59,0.3300526,0.29522216,-0.59506788,0.01215124,0.3003112,0.0093125999999999,-0.61702908,1.63229364,-30.05039056,1.6675462799999998,-0.4267318804,0.2740570336,-0.4696952528,0.0164114303999999,0.3014697192,-0.0097717754799999,0.003
08:25:59,0.328989125,0.289368575,-0.590610475,0.01149605,0.29946425,0.008689375,-0.6579341000000003,1.596575675,-30.041097575,1.772344725,-0.4229223355,0.2685020457499999,-0.467431911,0.015489108,0.300618434,-0.009550383225,0.003
08:25:59,0.32792565,0.28351499,-0.5861530699999999,0.01084086,0.2986173,0.0080661499999999,-0.6988391199999997,1.56085771,-30.03180459,1.87714317,-0.4191127906,0.2629470578999999,-0.4651685692,0.0145667855999999,0.2997671488,-0.00932899097,0.003
08:25:59,0.326862175,0.277661405,-0.5816956649999999,0.01018567,0.29777035,0.0074429249999999,-0.73974414,1.5251397450000002,-30.022511605,1.981941615,-0.4153032457,0.25739207005,-0.4629052273999999,0.0136444631999999,0.2989158636,-0.0091075987149999,0.003
08:25:59,0.3257987,0.27180782,-0.5772382599999999,0.00953048,0.2969234,0.0068196999999999,-0.7806491600000003,1.4894217799999998,-30.01321862,2.0867400600000003,-0.4114937008,0.2518370821999999,-0.4606418855999999,0.0127221408,0.2980645784,-0.00888620646,0.003
08:25:59,0.324735225,0.265954235,-0.572780855,0.00887529,0.29607645,0.0061964749999999,-0.8215541799999997,1.453703815,-30.003925635,2.1915385049999987,-0.4076841559,0.2462820943499999,-0.4583785438,0.0117998183999999,0.2972132932,-0.008664814205,0.003
08:25:59,0.32367175,0.26010065,-0.56832345,0.0082201,0.2952295,0.00557325,-0.8624592,1.41798585,-29.99463265,2.296336949999999,-0.403874611,0.2407271064999999,-0.456115202,0.010877496,0.296362008,-0.0084434219499999,0.003
08:25:59,0.322608275,0.254247065,-0.5638660449999999,0.00756491,0.29438255,0.0049500249999999,-0.9033642200000004,1.382267885,-29.985339665,2.401135394999999,-0.4000650661,0.2351721186499999,-0.4538518602,0.0099551736,0.2955107228,-0.008222029695,0.003
08:25:59,0.3215447999999999,0.24839348,-0.55940864,0.00690972,0.2935356,0.0043267999999999,-0.9442692399999996,1.3465499200000002,-29.97604668,2.505933839999999,-0.3962555212,0.2296171307999999,-0.4515885183999999,0.0090328511999999,0.2946594376,-0.00800063744,0.003
08:25:59,0.320481325,0.242539895,-0.554951235,0.00625453,0.29268865,0.003703575,-0.98517426,1.3108319550000005,-29.966753695,2.610732284999999,-0.3924459763,0.2240621429499999,-0.4493251766,0.0081105288,0.2938081524,-0.0077792451849999,0.003
08:25:59,0.31941785,0.23668631,-0.55049383,0.00559934,0.2918417,0.0030803499999999,-1.0260792800000005,1.2751139900000004,-29.95746071,2.71553073,-0.3886364314,0.2185071550999999,-0.4470618348,0.0071882063999999,0.2929568672,-0.00755785293,0.003
08:25:59,0.3183543749999999,0.230832725,-0.5460364249999999,0.00494415,0.29099475,0.0024571249999999,-1.0669842999999997,1.2393960249999996,-29.948167725,2.8203291749999995,-0.3848268865,0.21295216725,-0.444798493,0.0062658839999999,0.292105582,-0.007336460675,0.003
08:25:59,0.3172909,0.22497914,-0.5415790199999999,0.00428896,0.2901478,0.0018338999999999,-1.10788932,1.2036780599999997,-29.93887474,2.92512762,-0.3810173416,0.2073971793999999,-0.4425351512,0.0053435616,0.2912542968,-0.0071150684199999,0.003
08:25:59,0.316227425,0.219125555,-0.537121615,0.00363377,0.28930085,0.0012106749999999,-1.1487943400000002,1.1679600949999998,-29.929581755,3.029926065,-0.3772077967,0.2018421915499999,-0.4402718094,0.0044212391999999,0.2904030116,-0.0068936761649999,0.003
08:25:59,0.3151639499999999,0.2132719699999999,-0.53266421,0.00297858,0.2884539,0.0005874499999999,-1.1896993599999997,1.1322421299999998,-29.92028877,3.13472451,-0.3733982518,0.1962872036999999,-0.4380084676,0.0034989168,0.2895517264,-0.00667228391,0.003
08:25:59,0.314100475,0.2074183849999999,-0.528206805,0.00232339,0.28760695,-3.577500000000178e-05,-1.23060438,1.096524165,-29.910995785,3.239522955,-0.3695887069,0.1907322158499999,-0.4357451257999999,0.0025765943999999,0.2887004412,-0.0064508916549999,0.003
08:25:59,0.313037,0.2015648,-0.5237493999999999,0.0016682,0.28676,-0.000659,-1.2715094000000002,1.0608062,-29.9017028,3.3443214,-0.365779162,0.1851772279999999,-0.433481784,0.0016542719999999,0.287849156,-0.0062294993999999,0.003
08:25:59,0.311973525,0.195711215,-0.5192919949999999,0.00101301,0.28591305,-0.001282225,-1.3124144199999996,1.025088235,-29.892409815,3.449119845,-0.3619696171,0.1796222401499999,-0.4312184422,0.0007319496,0.2869978708,-0.006008107145,0.003
08:25:59,0.31091005,0.18985763,-0.51483459,0.00035782,0.2850661,-0.00190545,-1.35331944,0.9893702700000002,-29.88311683,3.5539182899999986,-0.3581600722,0.1740672522999999,-0.4289551004,-0.0001903728,0.2861465856,-0.0057867148899999,0.003
08:25:59,0.309846575,0.184004045,-0.510377185,-0.0002973699999999,0.28421915,-0.002528675,-1.3942244600000002,0.9536523050000004,-29.873823845,3.658716734999999,-0.3543505273,0.1685122644499999,-0.4266917585999999,-0.0011126951999999,0.2852953004,-0.0055653226349999,0.003
08:25:59,0.3087831,0.17815046,-0.5059197799999999,-0.0009525599999999,0.2833722,-0.0031518999999999,-1.4351294799999996,0.9179343399999996,-29.86453086,3.763515179999999,-0.3505409824,0.1629572765999999,-0.4244284168,-0.0020350175999999,0.2844440152,-0.00534393038,0.003
08:25:59,0.307719625,0.172296875,-0.5014623749999999,-0.0016077499999999,0.28252525,-0.003775125,-1.4760345,0.8822163749999996,-29.855237875,3.868313624999999,-0.3467314375,0.1574022887499999,-0.422165075,-0.00295734,0.28359273,-0.0051225381249999,0.003
08:25:59,0.30665615,0.16644329,-0.49700497,-0.0022629399999999,0.2816783,-0.00439835,-1.5169395200000002,0.8464984099999997,-29.84594489,3.973112069999999,-0.3429218926,0.1518473008999999,-0.4199017332,-0.0038796623999999,0.2827414448,-0.0049011458699999,0.003
08:25:59,0.305592675,0.160589705,-0.4925475649999999,-0.0029181299999999,0.28083135,-0.005021575,-1.5578445399999996,0.8107804449999998,-29.836651905,4.077910514999999,-0.3391123477,0.1462923130499999,-0.4176383914,-0.0048019848,0.2818901596,-0.004679753615,0.003
08:25:59,0.3045292,0.15473612,-0.4880901599999999,-0.0035733199999999,0.2799844,-0.0056448,-1.59874956,0.7750624799999999,-29.82735892,4.182708959999999,-0.3353028028,0.1407373251999999,-0.4153750496,-0.0057243072,0.2810388744,-0.0044583613599999,0.003
08:25:59,0.303465725,0.148882535,-0.4836327549999999,-0.0042285099999999,0.27913745,-0.006268025,-1.6396545800000002,0.739344515,-29.818065935,4.287507405,-0.3314932579,0.1351823373499999,-0.4131117078,-0.0066466295999999,0.2801875892,-0.0042369691049999,0.003
08:25:59,0.30240225,0.14302895,-0.4791753499999999,-0.0048836999999999,0.2782905,-0.00689125,-1.6805595999999996,0.7036265500000001,-29.80877295,4.39230585,-0.327683713,0.1296273494999998,-0.4108483659999999,-0.007568952,0.279336304,-0.00401557685,0.003
08:25:59,0.301338775,0.137175365,-0.474717945,-0.0055388899999999,0.27744355,-0.007514475,-1.72146462,0.6679085850000002,-29.799479965,4.497104295,-0.3238741681,0.1240723616499999,-0.4085850242,-0.0084912743999999,0.2784850188,-0.0037941845949999,0.003
08:25:59,0.3002753,0.13132178,-0.4702605399999999,-0.0061940799999999,0.2765966,-0.0081377,-1.7623696400000002,0.6321906200000003,-29.79018698,4.60190274,-0.3200646232,0.1185173737999999,-0.4063216824,-0.0094135968,0.2776337336,-0.0035727923399999,0.003
08:25:59,0.299211825,0.125468195,-0.4658031349999999,-0.0068492699999999,0.27574965,-0.008760925,-1.80327466,0.5964726549999995,-29.780893995,4.706701185,-0.3162550783,0.1129623859499999,-0.4040583406,-0.0103359192,0.2767824484,-0.003351400085,0.003
08:25:59,0.29814835,0.11961461,-0.4613457299999999,-0.0075044599999999,0.2749027,-0.00938415,-1.84417968,0.5607546899999996,-29.77160101,4.81149963,-0.3124455334,0.1074073980999998,-0.4017949987999999,-0.0112582415999999,0.2759311632,-0.00313000783,0.003
08:25:59,0.297084875,0.113761025,-0.456888325,-0.0081596499999999,0.27405575,-0.0100073749999999,-1.8850847,0.5250367249999996,-29.762308025,4.916298074999999,-0.3086359885,0.1018524102499999,-0.399531657,-0.012180564,0.275079878,-0.0029086155749999,0.003
08:25:59,0.2960214,0.10790744,-0.4524309199999999,-0.0088148399999999,0.2732088,-0.0106306,-1.92598972,0.4893187599999997,-29.75301504,5.021096519999999,-0.3048264436,0.0962974223999999,-0.3972683152,-0.0131028864,0.2742285928,-0.00268722332,0.003
08:25:59,0.294957925,0.102053855,-0.4479735149999999,-0.0094700299999999,0.27236185,-0.011253825,-1.96689474,0.4536007949999998,-29.743722055,5.125894964999999,-0.3010168987,0.0907424345499999,-0.3950049734,-0.0140252088,0.2733773076,-0.002465831065,0.003
08:25:59,0.29389445,0.09620027,-0.4435161099999999,-0.0101252199999999,0.2715149,-0.01187705,-2.00779976,0.4178828299999999,-29.73442907,5.230693409999999,-0.2972073538000001,0.0851874466999998,-0.3927416316,-0.0149475311999999,0.2725260224,-0.0022444388099999,0.003
08:25:59,0.292830975,0.0903466849999999,-0.4390587049999999,-0.0107804099999999,0.27066795,-0.012500275,-2.04870478,0.382164865,-29.725136085,5.335491854999999,-0.2933978089,0.0796324588499999,-0.3904782898,-0.0158698535999999,0.2716747372,-0.002023046555,0.003
08:25:59,0.2917675,0.0844930999999999,-0.4346012999999999,-0.0114355999999999,0.269821,-0.0131235,-2.0896098,0.3464469000000001,-29.7158431,5.440290299999999,-0.289588264,0.0740774709999999,-0.388214948,-0.016792176,0.270823452,-0.0018016543,0.003
08:25:59,0.290704025,0.078639515,-0.4301438949999999,-0.0120907899999999,0.26897405,-0.013746725,-2.13051482,0.3107289350000002,-29.706550115,5.545088744999999,-0.2857787191000001,0.0685224831499998,-0.3859516061999999,-0.0177144983999999,0.2699721668,-0.0015802620449999,0.003
08:25:59,0.28964055,0.07278593,-0.4256864899999999,-0.0127459799999999,0.2681271,-0.01436995,-2.1714198399999995,0.2750109699999994,-29.69725713,5.649887189999999,-0.2819691742,0.0629674952999999,-0.3836882644,-0.0186368207999999,0.2691208816,-0.00135886979,0.003
08:25:59,0.2885770749999999,0.066932345,-0.4212290849999999,-0.0134011699999999,0.26728015,-0.014993175,-2.21232486,0.2392930049999995,-29.687964145,5.754685635,-0.2781596293,0.0574125074499999,-0.3814249226,-0.0195591432,0.2682695964,-0.001137477535,0.003
08:25:59,0.2875136,0.06107876,-0.41677168,-0.0140563599999999,0.2664332,-0.0156164,-2.25322988,0.2035750399999996,-29.67867116,5.85948408,-0.2743500843999999,0.0518575195999999,-0.3791615808,-0.0204814656,0.2674183112,-0.0009160852799999,0.003
08:25:59,0.286450125,0.055225175,-0.4123142749999999,-0.0147115499999999,0.26558625,-0.016239625,-2.2941348999999995,0.1678570749999997,-29.669378175,5.964282525,-0.2705405395,0.0463025317499998,-0.3768982389999999,-0.0214037879999999,0.266567026,-0.0006946930249999,0.003
08:25:59,0.2853866499999999,0.04937159,-0.4078568699999999,-0.0153667399999999,0.2647393,-0.01686285,-2.33503992,0.1321391099999997,-29.66008519,6.06908097,-0.2667309946,0.0407475438999999,-0.3746348972,-0.0223261104,0.2657157408,-0.0004733007699999,0.003
08:25:59,0.284323175,0.043518005,-0.4033994649999999,-0.0160219299999999,0.26389235,-0.017486075,-2.37594494,0.0964211449999998,-29.650792205,6.173879415,-0.2629214497,0.0351925560499999,-0.3723715554,-0.0232484328,0.2648644556,-0.000251908515,0.003
08:25:59,0.2832597,0.03766442,-0.39894206,-0.0166771199999999,0.2630454,-0.0181093,-2.4168499599999995,0.0607031799999999,-29.64149922,6.278677859999998,-0.2591119048,0.0296375681999999,-0.3701082136,-0.0241707551999999,0.2640131704,-3.051626000000196e-05,0.003
08:25:59,0.2821962249999999,0.031810835,-0.3944846549999999,-0.0173323099999999,0.2621984499999999,-0.018732525,-2.45775498,0.024985215,-29.632206235,6.383476304999999,-0.2553023599,0.0240825803499998,-0.3678448718,-0.0250930776,0.2631618852,0.0001908759949999,0.003
08:25:59,0.28113275,0.02595725,-0.3900272499999999,-0.0179874999999999,0.2613515,-0.01935575,-2.49866,-0.0107327499999998,-29.62291325,6.488274749999999,-0.251492815,0.0185275924999999,-0.36558153,-0.0260154,0.2623106,0.00041226825,0.003
08:25:59,0.280069275,0.020103665,-0.3855698449999999,-0.0186426899999999,0.26050455,-0.019978975,-2.5395650199999995,-0.0464507150000006,-29.613620265,6.593073194999999,-0.2476832701,0.0129726046499999,-0.3633181882,-0.0269377223999999,0.2614593148,0.000633660505,0.003
08:25:59,0.2790057999999999,0.01425008,-0.3811124399999999,-0.0192978799999999,0.2596576,-0.0206022,-2.58047004,-0.0821686800000005,-29.60432728,6.697871639999999,-0.2438737252,0.0074176167999998,-0.3610548463999999,-0.0278600447999999,0.2606080296,0.00085505276,0.003
08:25:59,0.277942325,0.008396495,-0.3766550349999999,-0.0199530699999999,0.25881065,-0.021225425,-2.62137506,-0.1178866450000004,-29.595034295,6.802670084999999,-0.2400641802999999,0.0018626289499998,-0.3587915046,-0.0287823672,0.2597567444,0.0010764450149999,0.003
08:25:59,0.27687885,0.00254291,-0.3721976299999999,-0.0206082599999999,0.2579637,-0.02184865,-2.6622800799999995,-0.1536046100000003,-29.58574131,6.907468529999999,-0.2362546354,-0.0036923589,-0.3565281628,-0.0297046895999999,0.2589054592,0.0012978372699999,0.003
08:25:59,0.275815375,-0.0033106749999999,-0.3677402249999999,-0.0212634499999999,0.25711675,-0.022471875,-2.7031851,-0.1893225750000002,-29.576448325,7.012266974999999,-0.2324450905,-0.00924734675,-0.354264821,-0.0306270119999999,0.258054174,0.0015192295249999,0.003
08:25:59,0.2747519,-0.0091642599999999,-0.3632828199999999,-0.0219186399999999,0.2562698,-0.0230951,-2.74409012,-0.2250405400000001,-29.56715534,7.117065419999999,-0.2286355456,-0.0148023346000001,-0.3520014791999999,-0.0315493344,0.2572028888,0.0017406217799999,0.003
08:25:59,0.273688425,-0.0150178449999999,-0.358825415,-0.0225738299999999,0.25542285,-0.023718325,-2.7849951399999995,-0.2607585050000001,-29.557862355,7.221863864999999,-0.2248260007,-0.0203573224500001,-0.3497381374,-0.0324716568,0.2563516036,0.001962014035,0.003
08:25:59,0.27262495,-0.0208714299999999,-0.3543680099999999,-0.0232290199999999,0.2545758999999999,-0.02434155,-2.82590016,-0.29647647,-29.54856937,7.32666231,-0.2210164558,-0.0259123103,-0.3474747956,-0.0333939791999999,0.2555003184,0.00218340629,0.003
08:25:59,0.271561475,-0.0267250149999999,-0.3499106049999999,-0.0238842099999999,0.25372895,-0.024964775,-2.86680518,-0.3321944349999999,-29.539276385,7.431460755,-0.2172069109,-0.03146729815,-0.3452114538,-0.0343163016,0.2546490332,0.002404798545,0.003
08:25:59,0.270498,-0.0325786,-0.3454531999999999,-0.0245393999999999,0.252882,-0.025588,-2.9077102000000004,-0.3679124000000007,-29.5299834,7.5362592,-0.213397366,-0.0370222860000001,-0.3429481119999999,-0.035238624,0.253797748,0.0026261907999999,0.003
08:25:59,0.269434525,-0.038432185,-0.3409957949999999,-0.0251945899999999,0.25203505,-0.026211225,-2.94861522,-0.4036303650000006,-29.520690415,7.641057645,-0.2095878211,-0.0425772738500001,-0.3406847702,-0.0361609463999999,0.2529464628,0.0028475830549999,0.003
08:25:59,0.26837105,-0.04428577,-0.3365383899999999,-0.0258497799999999,0.2511881,-0.02683445,-2.98952024,-0.4393483300000005,-29.51139743,7.74585609,-0.2057782762,-0.0481322617,-0.3384214284,-0.0370832688,0.2520951776,0.0030689753099999,0.003
08:25:59,0.267307575,-0.050139355,-0.3320809849999999,-0.0265049699999999,0.25034115,-0.027457675,-3.0304252600000003,-0.4750662950000004,-29.502104445,7.850654535,-0.2019687313,-0.0536872495500001,-0.3361580865999999,-0.0380055912,0.2512438924,0.003290367565,0.003
08:25:59,0.2662441,-0.0559929399999999,-0.3276235799999999,-0.0271601599999999,0.2494942,-0.0280809,-3.07133028,-0.5107842600000003,-29.49281146,7.95545298,-0.1981591864,-0.0592422374000001,-0.3338947448,-0.0389279135999999,0.2503926072,0.00351175982,0.003
08:25:59,0.265180625,-0.0618465249999999,-0.3231661749999999,-0.0278153499999999,0.24864725,-0.028704125,-3.1122353,-0.5465022250000002,-29.483518475,8.060251425,-0.1943496415,-0.06479722525,-0.331631403,-0.039850236,0.249541322,0.003733152075,0.003
08:25:59,0.26411715,-0.0677001099999999,-0.31870877,-0.0284705399999999,0.2478003,-0.02932735,-3.1531403200000003,-0.5822201900000001,-29.47422549,8.16504987,-0.1905400966,-0.0703522131,-0.3293680612,-0.0407725584,0.2486900368,0.0039545443299999,0.003
08:25:59,0.263053675,-0.0735536949999999,-0.3142513649999999,-0.0291257299999999,0.24695335,-0.029950575,-3.19404534,-0.617938155,-29.464932505,8.269848314999997,-0.1867305517,-0.0759072009500001,-0.3271047193999999,-0.0416948807999999,0.2478387516,0.0041759365849999,0.003
08:25:59,0.2619902,-0.0794072799999999,-0.3097939599999999,-0.0297809199999999,0.2461064,-0.0305738,-3.23495036,-0.65365612,-29.45563952,8.374646759999997,-0.1829210068,-0.0814621888000001,-0.3248413776,-0.0426172031999999,0.2469874664,0.0043973288399999,0.003
08:25:59,0.260926725,-0.0852608649999999,-0.3053365549999999,-0.0304361099999999,0.24525945,-0.031197025,-3.2758553800000003,-0.6893740849999999,-29.446346535,8.479445204999998,-0.1791114619,-0.08701717665,-0.3225780358,-0.0435395256,0.2461361812,0.004618721095,0.003
08:25:59,0.25986325,-0.0911144499999999,-0.30087915,-0.0310912999999999,0.2444125,-0.03182025,-3.3167604,-0.7250920500000007,-29.43705355,8.584243649999998,-0.175301917,-0.0925721645,-0.320314694,-0.044461848,0.245284896,0.00484011335,0.003
08:25:59,0.258799775,-0.096968035,-0.2964217449999999,-0.0317464899999999,0.24356555,-0.032443475,-3.35766542,-0.7608100150000006,-29.427760565,8.689042094999998,-0.1714923721,-0.0981271523500001,-0.3180513521999999,-0.0453841703999999,0.2444336108,0.005061505605,0.003
08:25:59,0.2577363,-0.1028216199999999,-0.2919643399999999,-0.0324016799999999,0.2427186,-0.0330667,-3.3985704400000003,-0.7965279800000005,-29.41846758,8.793840539999998,-0.1676828272,-0.1036821402000001,-0.3157880104,-0.0463064928,0.2435823256,0.0052828978599999,0.003
08:25:59,0.256672825,-0.108675205,-0.2875069349999999,-0.0330568699999999,0.24187165,-0.033689925,-3.43947546,-0.8322459450000004,-29.409174595,8.898638984999998,-0.1638732823000001,-0.10923712805,-0.3135246686,-0.0472288152,0.2427310404,0.0055042901149999,0.003
08:25:59,0.25560935,-0.1145287899999999,-0.2830495299999999,-0.0337120599999999,0.2410247,-0.03431315,-3.48038048,-0.8679639100000003,-29.39988161,9.003437429999998,-0.1600637374,-0.1147921159000001,-0.3112613267999999,-0.0481511375999999,0.2418797552,0.0057256823699999,0.003
08:25:59,0.254545875,-0.120382375,-0.2785921249999999,-0.0343672499999999,0.24017775,-0.034936375,-3.5212855000000003,-0.9036818750000002,-29.390588625,9.108235874999998,-0.1562541925,-0.1203471037500001,-0.308997985,-0.04907346,0.24102847,0.005947074625,0.003
08:25:59,0.2534824,-0.1262359599999999,-0.2741347199999999,-0.0350224399999999,0.2393308,-0.0355596,-3.56219052,-0.93939984,-29.38129564,9.213034319999998,-0.1524446476000001,-0.1259020916000001,-0.3067346432,-0.0499957824,0.2401771848,0.00616846688,0.003
08:25:59,0.252418925,-0.132089545,-0.2696773149999999,-0.0356776299999999,0.23848385,-0.036182825,-3.60309554,-0.975117805,-29.372002655,9.317832765,-0.1486351027,-0.13145707945,-0.3044713014,-0.0509181047999999,0.2393258996,0.006389859135,0.003
08:25:59,0.25135545,-0.1379431299999999,-0.2652199099999999,-0.0363328199999999,0.2376369,-0.03680605,-3.64400056,-1.01083577,-29.36270967,9.42263121,-0.1448255578,-0.1370120673000001,-0.3022079595999999,-0.0518404272,0.2384746144,0.0066112513899999,0.003
08:25:59,0.250291975,-0.143796715,-0.260762505,-0.0369880099999999,0.23678995,-0.037429275,-3.68490558,-1.0465537350000007,-29.353416685,9.527429655,-0.1410160129,-0.1425670551500001,-0.2999446178,-0.0527627496,0.2376233292,0.0068326436449999,0.003
08:25:59,0.2492285,-0.1496502999999999,-0.2563050999999999,-0.0376431999999999,0.235943,-0.0380525,-3.7258106,-1.0822717000000006,-29.3441237,9.6322281,-0.137206468,-0.1481220430000001,-0.297681276,-0.0536850719999999,0.236772044,0.0070540358999999,0.003
08:25:59,0.248165025,-0.155503885,-0.2518476949999999,-0.0382983899999999,0.23509605,-0.038675725,-3.76671562,-1.1179896650000003,-29.334830715,9.737026545,-0.1333969231,-0.15367703085,-0.2954179342,-0.0546073943999999,0.2359207588,0.0072754281549999,0.003
08:25:59,0.24710155,-0.1613574699999999,-0.2473902899999999,-0.0389535799999999,0.2342491,-0.03929895,-3.80762064,-1.1537076300000004,-29.32553773,9.84182499,-0.1295873782,-0.1592320187000001,-0.2931545923999999,-0.0555297168,0.2350694736,0.00749682041,0.003
08:25:59,0.246038075,-0.167211055,-0.2429328849999998,-0.0396087699999999,0.23340215,-0.039922175,-3.84852566,-1.1894255950000003,-29.316244745,9.946623435,-0.1257778333,-0.1647870065500002,-0.2908912506,-0.0564520392,0.2342181884,0.007718212665,0.003
08:25:59,0.2449746,-0.1730646399999998,-0.2384754799999999,-0.0402639599999999,0.2325552,-0.0405454,-3.88943068,-1.2251435600000002,-29.30695176,10.05142188,-0.1219682884,-0.1703419944,-0.2886279088,-0.0573743615999999,0.2333669032,0.00793960492,0.003
08:25:59,0.243911125,-0.178918225,-0.2340180749999999,-0.0409191499999999,0.23170825,-0.041168625,-3.9303357,-1.260861525,-29.297658775,10.156220325,-0.1181587435,-0.1758969822500001,-0.2863645669999999,-0.058296684,0.232515618,0.0081609971749999,0.003
08:25:59,0.24284765,-0.1847718099999998,-0.2295606699999999,-0.0415743399999999,0.2308613,-0.04179185,-3.97124072,-1.29657949,-29.28836579,10.26101877,-0.1143491986,-0.1814519701,-0.2841012252,-0.0592190064,0.2316643328,0.0083823894299999,0.003
08:25:59,0.241784175,-0.1906253949999999,-0.2251032649999998,-0.0422295299999999,0.23001435,-0.042415075,-4.01214574,-1.332297455,-29.279072805,10.365817215,-0.1105396537,-0.1870069579500001,-0.2818378834,-0.0601413287999999,0.2308130476,0.0086037816849999,0.003
08:25:59,0.2407207,-0.1964789799999998,-0.2206458599999999,-0.0428847199999999,0.2291674,-0.0430383,-4.05305076,-1.3680154200000008,-29.26977982,10.47061566,-0.1067301088,-0.1925619458000002,-0.2795745416,-0.0610636512,0.2299617624,0.00882517394,0.003
08:25:59,0.239657225,-0.2023325649999999,-0.2161884549999999,-0.0435399099999999,0.22832045,-0.043661525,-4.09395578,-1.4037333850000009,-29.260486835,10.575414105,-0.1029205639,-0.19811693365,-0.2773111997999999,-0.0619859736,0.2291104772,0.009046566195,0.003
08:25:59,0.23859375,-0.2081861499999998,-0.2117310499999999,-0.0441950999999999,0.2274735,-0.04428475,-4.1348608,-1.4394513500000006,-29.25119385,10.68021255,-0.099111019,-0.2036719215000001,-0.275047858,-0.0629082959999999,0.228259192,0.00926795845,0.003
08:25:59,0.237530275,-0.2140397349999999,-0.2072736449999999,-0.0448502899999999,0.22662655,-0.044907975,-4.17576582,-1.4751693150000005,-29.241900865,10.785010995,-0.0953014741,-0.2092269093500002,-0.2727845162,-0.0638306184,0.2274079068,0.0094893507049999,0.003
08:25:59,0.2364668,-0.2198933199999998,-0.2028162399999999,-0.0455054799999999,0.2257796,-0.0455312,-4.21667084,-1.5108872800000004,-29.23260788,10.889809439999995,-0.0914919292,-0.2147818972,-0.2705211744,-0.0647529408,0.2265566216,0.0097107429599999,0.003
08:25:59,0.235403325,-0.2257469049999999,-0.1983588349999999,-0.0461606699999999,0.22493265,-0.046154425,-4.25757586,-1.5466052450000003,-29.223314895,10.994607884999995,-0.0876823843,-0.2203368850500001,-0.2682578325999999,-0.0656752631999999,0.2257053364,0.0099321352149999,0.003
08:25:59,0.23433985,-0.23160049,-0.1939014299999999,-0.0468158599999999,0.2240857,-0.04677765,-4.29848088,-1.5823232100000002,-29.21402191,11.099406329999995,-0.0838728394,-0.2258918729000002,-0.2659944908,-0.0665975856,0.2248540512,0.01015352747,0.003
08:25:59,0.233276375,-0.2374540749999999,-0.1894440249999999,-0.0474710499999999,0.22323875,-0.047400875,-4.3393859,-1.618041175,-29.204728925,11.204204774999996,-0.0800632945,-0.2314468607500001,-0.263731149,-0.067519908,0.224002766,0.010374919725,0.003
08:25:59,0.2322129,-0.24330766,-0.1849866199999998,-0.0481262399999999,0.2223918,-0.0480241,-4.38029092,-1.65375914,-29.19543594,11.309003219999996,-0.0762537496,-0.2370018486000001,-0.2614678071999999,-0.0684422304,0.2231514808,0.01059631198,0.003
08:25:59,0.231149425,-0.2491612449999999,-0.1805292149999999,-0.0487814299999999,0.22154485,-0.048647325,-4.4211959400000005,-1.6894771050000008,-29.186142955,11.413801664999998,-0.0724442047,-0.24255683645,-0.2592044654,-0.0693645527999999,0.2223001956,0.0108177042349999,0.003
08:25:59,0.23008595,-0.25501483,-0.1760718099999999,-0.0494366199999999,0.2206979,-0.04927055,-4.462100960000001,-1.7251950700000007,-29.17684997,11.518600109999998,-0.0686346598,-0.2481118243000001,-0.2569411236,-0.0702868752,0.2214489104,0.0110390964899999,0.003
08:25:59,0.229022475,-0.2608684149999999,-0.1716144049999999,-0.0500918099999999,0.21985095,-0.049893775,-4.503005979999999,-1.7609130350000006,-29.167556985,11.623398554999998,-0.0648251149,-0.2536668121500002,-0.2546777818,-0.0712091976,0.2205976252,0.0112604887449999,0.003
08:26:00,0.227959,-0.266722,-0.167157,-0.050747,0.219004,-0.050517,-4.543911,-1.796631,-29.158264,11.728197,-0.06101557,-0.2592218,-0.25241444,-0.07213152,0.21974634,0.011481881,0.003
08:26:00,0.2213299749999999,-0.26696188,-0.165466335,-0.05042207,0.217081045,-0.050644845,-4.56470793,-1.82297688,-29.135985635,11.8991244,-0.06165410945,-0.26039458365,-0.2454279618,-0.07181824813,0.2179932781,0.0114893224899999,0.003
08:26:00,0.21470095,-0.26720176,-0.16377567,-0.05009714,0.21515809,-0.05077269,-4.58550486,-1.84932276,-29.11370727,12.0700518,-0.0622926489,-0.2615673673,-0.2384414836,-0.07150497626,0.2162402162,0.01149676398,0.003
08:26:00,0.208071925,-0.26744164,-0.162085005,-0.04977221,0.213235135,-0.050900535,-4.60630179,-1.87566864,-29.091428905,12.2409792,-0.06293118835,-0.26274015095,-0.2314550054,-0.07119170439,0.2144871543,0.0115042054699999,0.003
08:26:00,0.2014428999999999,-0.26768152,-0.16039434,-0.04944728,0.21131218,-0.05102838,-4.627098719999999,-1.90201452,-29.06915054,12.4119066,-0.0635697278,-0.2639129346,-0.2244685272,-0.07087843252,0.2127340924,0.01151164696,0.003
08:26:00,0.194813875,-0.2679214,-0.158703675,-0.04912235,0.209389225,-0.051156225,-4.64789565,-1.9283604,-29.046872175,12.582834,-0.0642082672499999,-0.26508571825,-0.217482049,-0.07056516065,0.2109810305,0.01151908845,0.003
08:26:00,0.18818485,-0.26816128,-0.15701301,-0.04879742,0.20746627,-0.05128407,-4.668692579999999,-1.95470628,-29.02459381,12.7537614,-0.0648468067,-0.2662585019,-0.2104955708,-0.07025188878,0.2092279686,0.0115265299399999,0.003
08:26:00,0.181555825,-0.26840116,-0.155322345,-0.04847249,0.205543315,-0.051411915,-4.68948951,-1.98105216,-29.002315445,12.9246888,-0.06548534615,-0.26743128555,-0.2035090926,-0.06993861691,0.2074749067,0.01153397143,0.003
08:26:00,0.1749268,-0.26864104,-0.15363168,-0.04814756,0.20362036,-0.05153976,-4.71028644,-2.00739804,-28.98003708,13.0956162,-0.0661238856,-0.2686040692,-0.1965226144,-0.06962534504,0.2057218448,0.0115414129199999,0.003
08:26:00,0.1682977749999999,-0.26888092,-0.151941015,-0.04782263,0.201697405,-0.051667605,-4.73108337,-2.03374392,-28.957758715,13.2665436,-0.06676242505,-0.26977685285,-0.1895361362,-0.06931207317,0.2039687829,0.01154885441,0.003
08:26:00,0.16166875,-0.2691208,-0.15025035,-0.0474977,0.19977445,-0.05179545,-4.7518803,-2.0600898,-28.93548035,13.437471,-0.0674009645,-0.2709496365,-0.182549658,-0.0689988013,0.202215721,0.0115562959,0.003
08:26:00,0.155039725,-0.26936068,-0.148559685,-0.04717277,0.197851495,-0.051923295,-4.772677229999999,-2.08643568,-28.913201985,13.6083984,-0.06803950395,-0.27212242015,-0.1755631798,-0.06868552943,0.2004626591,0.0115637373899999,0.003
08:26:00,0.1484107,-0.26960056,-0.14686902,-0.04684784,0.19592854,-0.05205114,-4.79347416,-2.11278156,-28.89092362,13.7793258,-0.0686780434,-0.2732952038,-0.1685767016,-0.06837225756,0.1987095972,0.01157117888,0.003
08:26:00,0.141781675,-0.26984044,-0.145178355,-0.04652291,0.194005585,-0.052178985,-4.814271089999999,-2.13912744,-28.868645255,13.9502532,-0.06931658285,-0.27446798745,-0.1615902234,-0.06805898569,0.1969565353,0.0115786203699999,0.003
08:26:00,0.1351526499999999,-0.27008032,-0.14348769,-0.04619798,0.19208263,-0.05230683,-4.83506802,-2.1654733200000003,-28.84636689,14.1211806,-0.0699551223,-0.2756407711,-0.1546037452,-0.06774571382,0.1952034734,0.01158606186,0.003
08:26:00,0.1285236249999999,-0.2703202,-0.141797025,-0.04587305,0.190159675,-0.052434675,-4.85586495,-2.1918192000000003,-28.824088525,14.292108,-0.07059366175,-0.27681355475,-0.147617267,-0.06743244195,0.1934504115,0.01159350335,0.003
08:26:00,0.1218945999999999,-0.27056008,-0.1401063599999999,-0.04554812,0.18823672,-0.05256252,-4.87666188,-2.21816508,-28.80181016,14.4630354,-0.0712322012,-0.2779863384,-0.1406307888,-0.06711917008,0.1916973496,0.0116009448399999,0.003
08:26:00,0.115265575,-0.27079996,-0.138415695,-0.0452231899999999,0.186313765,-0.052690365,-4.89745881,-2.24451096,-28.779531795,14.6339628,-0.07187074065,-0.27915912205,-0.1336443106,-0.06680589821,0.1899442877,0.01160838633,0.003
08:26:00,0.10863655,-0.27103984,-0.13672503,-0.04489826,0.18439081,-0.05281821,-4.918255739999999,-2.27085684,-28.75725343,14.8048902,-0.0725092801,-0.2803319057,-0.1266578324,-0.06649262634,0.1881912258,0.0116158278199999,0.003
08:26:00,0.1020075249999999,-0.27127972,-0.135034365,-0.04457333,0.182467855,-0.052946055,-4.93905267,-2.29720272,-28.734975065,14.9758176,-0.0731478195499999,-0.28150468935,-0.1196713542,-0.06617935447,0.1864381639,0.01162326931,0.003
08:26:00,0.0953785,-0.2715196,-0.1333437,-0.0442484,0.1805449,-0.0530739,-4.959849599999999,-2.3235486,-28.7126967,15.146745,-0.073786359,-0.282677473,-0.112684876,-0.0658660826,0.184685102,0.0116307108,0.003
08:26:00,0.088749475,-0.27175948,-0.131653035,-0.04392347,0.178621945,-0.053201745,-4.98064653,-2.34989448,-28.690418335,15.3176724,-0.07442489845,-0.28385025665,-0.1056983978,-0.06555281073,0.1829320401,0.0116381522899999,0.003
08:26:00,0.0821204499999999,-0.27199936,-0.12996237,-0.04359854,0.17669899,-0.0533295899999999,-5.00144346,-2.37624036,-28.66813997,15.4885998,-0.0750634379,-0.2850230403,-0.0987119196,-0.06523953886,0.1811789782,0.01164559378,0.003
08:26:00,0.075491425,-0.27223924,-0.128271705,-0.04327361,0.174776035,-0.053457435,-5.022240389999999,-2.40258624,-28.645861605,15.6595272,-0.07570197735,-0.28619582395,-0.0917254414,-0.06492626699,0.1794259163,0.0116530352699999,0.003
08:26:00,0.0688623999999999,-0.27247912,-0.12658104,-0.04294868,0.17285308,-0.05358528,-5.04303732,-2.42893212,-28.62358324,15.8304546,-0.0763405168,-0.2873686076,-0.0847389632,-0.06461299512,0.1776728544,0.01166047676,0.003
08:26:00,0.0622333749999999,-0.272719,-0.124890375,-0.04262375,0.170930125,-0.053713125,-5.063834249999999,-2.455278,-28.601304875,16.001382,-0.07697905625,-0.28854139125,-0.077752485,-0.06429972325,0.1759197925,0.01166791825,0.003
08:26:00,0.05560435,-0.27295888,-0.1231997099999999,-0.04229882,0.16900717,-0.05384097,-5.08463118,-2.48162388,-28.57902651,16.1723094,-0.0776175957,-0.2897141749,-0.0707660068,-0.06398645138,0.1741667306,0.01167535974,0.003
08:26:00,0.0489753249999999,-0.27319876,-0.121509045,-0.04197389,0.167084215,-0.053968815,-5.105428109999999,-2.50796976,-28.556748145,16.3432368,-0.07825613515,-0.29088695855,-0.0637795286,-0.06367317951,0.1724136687,0.01168280123,0.003
08:26:00,0.0423462999999999,-0.27343864,-0.11981838,-0.04164896,0.16516126,-0.05409666,-5.12622504,-2.53431564,-28.53446978,16.5141642,-0.0788946745999999,-0.2920597421999999,-0.0567930504,-0.06335990764,0.1706606068,0.0116902427199999,0.003
08:26:00,0.0357172749999999,-0.27367852,-0.118127715,-0.04132403,0.163238305,-0.054224505,-5.147021969999999,-2.56066152,-28.512191415,16.6850916,-0.07953321405,-0.29323252585,-0.0498065722,-0.06304663577,0.1689075449,0.01169768421,0.003
08:26:00,0.0290882499999999,-0.2739184,-0.11643705,-0.0409991,0.16131535,-0.05435235,-5.167818899999999,-2.5870074,-28.48991305,16.856019,-0.0801717535,-0.2944053095,-0.042820094,-0.0627333639,0.167154483,0.0117051257,0.003
08:26:00,0.022459225,-0.27415828,-0.114746385,-0.0406741699999999,0.159392395,-0.054480195,-5.18861583,-2.61335328,-28.467634685,17.0269464,-0.08081029295,-0.29557809315,-0.0358336158,-0.06242009203,0.1654014211,0.01171256719,0.003
08:26:00,0.0158301999999999,-0.27439816,-0.11305572,-0.04034924,0.15746944,-0.05460804,-5.209412759999999,-2.63969916,-28.44535632,17.1978738,-0.0814488324,-0.2967508768,-0.0288471376,-0.06210682016,0.1636483592,0.01172000868,0.003
08:26:00,0.0092011749999999,-0.27463804,-0.1113650549999999,-0.04002431,0.155546485,-0.054735885,-5.23020969,-2.66604504,-28.423077955,17.3688012,-0.08208737185,-0.29792366045,-0.0218606594,-0.06179354829,0.1618952973,0.0117274501699999,0.003
08:26:00,0.0025721499999999,-0.27487792,-0.10967439,-0.03969938,0.15362353,-0.05486373,-5.251006619999999,-2.69239092,-28.40079959,17.5397286,-0.0827259113,-0.2990964441,-0.0148741812,-0.06148027642,0.1601422354,0.01173489166,0.003
08:26:00,-0.004056875,-0.2751178,-0.107983725,-0.03937445,0.151700575,-0.054991575,-5.27180355,-2.7187368000000003,-28.378521225,17.710656,-0.08336445075,-0.30026922775,-0.007887703,-0.06116700455,0.1583891735,0.01174233315,0.003
08:26:00,-0.0106858999999999,-0.27535768,-0.10629306,-0.03904952,0.14977762,-0.05511942,-5.292600479999999,-2.74508268,-28.35624286,17.8815834,-0.0840029902,-0.3014420114,-0.0009012248,-0.06085373268,0.1566361116,0.01174977464,0.003
08:26:00,-0.017314925,-0.27559756,-0.104602395,-0.03872459,0.147854665,-0.055247265,-5.313397409999999,-2.77142856,-28.333964495,18.0525108,-0.08464152965,-0.30261479505,0.0060852533999999,-0.06054046081,0.1548830497,0.01175721613,0.003
08:26:00,-0.02394395,-0.27583744,-0.1029117299999999,-0.03839966,0.14593171,-0.05537511,-5.33419434,-2.79777444,-28.31168613,18.2234382,-0.0852800691,-0.3037875787,0.0130717315999999,-0.06022718894,0.1531299878,0.0117646576199999,0.003
08:26:00,-0.030572975,-0.27607732,-0.101221065,-0.03807473,0.144008755,-0.055502955,-5.354991269999999,-2.82412032,-28.289407765,18.3943656,-0.08591860855,-0.30496036235,0.0200582097999999,-0.05991391707,0.1513769259,0.01177209911,0.003
08:26:00,-0.0372019999999999,-0.2763172,-0.0995303999999999,-0.0377498,0.1420857999999999,-0.0556308,-5.3757882,-2.8504662,-28.2671294,18.565293,-0.086557148,-0.306133146,0.0270446879999999,-0.0596006452,0.149623864,0.0117795406,0.003
08:26:00,-0.0438310249999999,-0.27655708,-0.097839735,-0.03742487,0.140162845,-0.055758645,-5.396585129999999,-2.87681208,-28.244851035,18.7362204,-0.08719568745,-0.30730592965,0.0340311661999999,-0.05928737333,0.1478708021,0.01178698209,0.003
08:26:00,-0.05046005,-0.27679696,-0.09614907,-0.03709994,0.13823989,-0.05588649,-5.41738206,-2.90315796,-28.22257267,18.9071478,-0.0878342269,-0.3084787133,0.0410176443999999,-0.05897410146,0.1461177402,0.01179442358,0.003
08:26:00,-0.057089075,-0.27703684,-0.094458405,-0.03677501,0.136316935,-0.056014335,-5.438178989999999,-2.92950384,-28.200294305,19.0780752,-0.08847276635,-0.30965149695,0.0480041225999999,-0.05866082959,0.1443646783,0.0118018650699999,0.003
08:26:00,-0.0637181,-0.27727672,-0.09276774,-0.0364500799999999,0.13439398,-0.05614218,-5.458975919999999,-2.95584972,-28.17801594,19.2490026,-0.0891113058,-0.3108242806,0.0549906007999999,-0.05834755772,0.1426116164,0.01180930656,0.003
08:26:00,-0.070347125,-0.2775166,-0.091077075,-0.03612515,0.132471025,-0.056270025,-5.47977285,-2.9821956,-28.155737575,19.41993,-0.08974984525,-0.31199706425,0.0619770789999999,-0.05803428585,0.1408585545,0.0118167480499999,0.003
08:26:00,-0.07697615,-0.27775648,-0.08938641,-0.03580022,0.13054807,-0.05639787,-5.500569779999999,-3.00854148,-28.13345921,19.5908574,-0.0903883847,-0.3131698479,0.0689635571999999,-0.05772101398,0.1391054926,0.01182418954,0.003
08:26:00,-0.083605175,-0.27799636,-0.0876957449999999,-0.03547529,0.128625115,-0.056525715,-5.52136671,-3.03488736,-28.111180845,19.7617848,-0.09102692415,-0.31434263155,0.0759500353999999,-0.05740774211,0.1373524307,0.01183163103,0.003
08:26:00,-0.0902342,-0.27823624,-0.08600508,-0.03515036,0.12670216,-0.05665356,-5.542163639999999,-3.06123324,-28.08890248,19.9327122,-0.0916654636,-0.3155154152,0.0829365135999999,-0.05709447024,0.1355993688,0.0118390725199999,0.003
08:26:00,-0.096863225,-0.27847612,-0.084314415,-0.03482543,0.124779205,-0.056781405,-5.56296057,-3.08757912,-28.066624115,20.1036396,-0.09230400305,-0.31668819885,0.0899229917999999,-0.05678119837,0.1338463069,0.01184651401,0.003
08:26:00,-0.10349225,-0.278716,-0.08262375,-0.0345005,0.12285625,-0.05690925,-5.583757499999999,-3.113925,-28.04434575,20.274567,-0.0929425425,-0.3178609825,0.0969094699999999,-0.0564679265,0.132093245,0.0118539554999999,0.003
08:26:00,-0.1101212749999999,-0.27895588,-0.080933085,-0.03417557,0.120933295,-0.057037095,-5.604554429999999,-3.14027088,-28.022067385,20.4454944,-0.09358108195,-0.31903376615,0.1038959481999999,-0.05615465463,0.1303401831,0.01186139699,0.003
08:26:00,-0.1167503,-0.27919576,-0.07924242,-0.03385064,0.11901034,-0.05716494,-5.62535136,-3.16661676,-27.99978902,20.6164218,-0.0942196214,-0.3202065498,0.1108824263999999,-0.05584138276,0.1285871212,0.01186883848,0.003
08:26:00,-0.123379325,-0.27943564,-0.077551755,-0.03352571,0.117087385,-0.057292785,-5.646148289999999,-3.19296264,-27.977510655,20.7873492,-0.09485816085,-0.32137933345,0.1178689045999999,-0.05552811089,0.1268340593,0.0118762799699999,0.003
08:26:00,-0.13000835,-0.27967552,-0.0758610899999999,-0.03320078,0.11516443,-0.05742063,-5.66694522,-3.21930852,-27.95523229,20.9582766,-0.0954967003,-0.3225521171,0.1248553827999999,-0.05521483902,0.1250809974,0.01188372146,0.003
08:26:00,-0.136637375,-0.2799154,-0.074170425,-0.03287585,0.113241475,-0.057548475,-5.687742149999999,-3.2456544000000003,-27.932953925,21.129204,-0.09613523975,-0.32372490075,0.1318418609999999,-0.05490156715,0.1233279355,0.0118911629499999,0.003
08:26:00,-0.1432664,-0.28015528,-0.07247976,-0.03255092,0.11131852,-0.05767632,-5.70853908,-3.2720002800000003,-27.91067556,21.3001314,-0.0967737791999999,-0.3248976844,0.1388283391999999,-0.05458829528,0.1215748736,0.01189860444,0.003
08:26:00,-0.149895425,-0.28039516,-0.070789095,-0.0322259899999999,0.109395565,-0.057804165,-5.729336009999999,-3.29834616,-27.888397195,21.4710588,-0.09741231865,-0.32607046805,0.1458148173999999,-0.05427502341,0.1198218117,0.01190604593,0.003
08:26:00,-0.15652445,-0.28063504,-0.06909843,-0.0319010599999999,0.10747261,-0.05793201,-5.750132939999999,-3.32469204,-27.86611883,21.6419862,-0.0980508581,-0.3272432517,0.1528012955999999,-0.05396175154,0.1180687498,0.0119134874199999,0.003
08:26:00,-0.163153475,-0.28087492,-0.067407765,-0.03157613,0.105549655,-0.058059855,-5.77092987,-3.35103792,-27.843840465,21.8129136,-0.09868939755,-0.3284160353499999,0.1597877737999999,-0.05364847967,0.1163156879,0.01192092891,0.003
08:26:00,-0.1697825,-0.2811148,-0.0657171,-0.0312512,0.1036267,-0.0581877,-5.791726799999999,-3.3773838,-27.8215621,21.983841,-0.099327937,-0.329588819,0.1667742519999999,-0.0533352078,0.114562626,0.0119283703999999,0.003
08:26:00,-0.176411525,-0.28135468,-0.0640264349999999,-0.03092627,0.101703745,-0.058315545,-5.81252373,-3.40372968,-27.799283735,22.1547684,-0.09996647645,-0.33076160265,0.1737607301999999,-0.05302193593,0.1128095641,0.01193581189,0.003
08:26:00,-0.18304055,-0.28159456,-0.06233577,-0.0306013399999999,0.09978079,-0.05844339,-5.833320659999999,-3.43007556,-27.77700537,22.3256958,-0.1006050159,-0.3319343863,0.1807472083999999,-0.05270866406,0.1110565022,0.01194325338,0.003
08:26:00,-0.189669575,-0.28183444,-0.0606451049999999,-0.03027641,0.097857835,-0.058571235,-5.85411759,-3.45642144,-27.754727005,22.4966232,-0.10124355535,-0.33310716995,0.1877336865999999,-0.05239539219,0.1093034403,0.01195069487,0.003
08:26:00,-0.1962986,-0.28207432,-0.05895444,-0.02995148,0.09593488,-0.05869908,-5.874914519999999,-3.48276732,-27.73244864,22.6675506,-0.1018820948,-0.3342799536,0.1947201647999999,-0.05208212032,0.1075503784,0.01195813636,0.003
08:26:00,-0.202927625,-0.2823142,-0.057263775,-0.0296265499999999,0.094011925,-0.058826925,-5.895711449999999,-3.5091132,-27.710170275,22.838478,-0.10252063425,-0.33545273725,0.2017066429999999,-0.05176884845,0.1057973165,0.0119655778499999,0.003
08:26:00,-0.20955665,-0.28255408,-0.0555731099999999,-0.02930162,0.0920889699999999,-0.05895477,-5.91650838,-3.53545908,-27.68789191,23.0094054,-0.1031591737,-0.3366255209,0.2086931211999999,-0.05145557658,0.1040442546,0.01197301934,0.003
08:26:00,-0.216185675,-0.28279396,-0.053882445,-0.02897669,0.0901660149999999,-0.059082615,-5.937305309999999,-3.56180496,-27.665613545,23.1803328,-0.10379771315,-0.33779830455,0.2156795993999999,-0.05114230471,0.1022911927,0.01198046083,0.003
08:26:00,-0.2228147,-0.28303384,-0.0521917799999999,-0.02865176,0.08824306,-0.05921046,-5.95810224,-3.58815084,-27.64333518,23.3512602,-0.1044362526,-0.3389710882,0.2226660775999999,-0.05082903284,0.1005381308,0.01198790232,0.003
08:26:00,-0.229443725,-0.28327372,-0.050501115,-0.0283268299999999,0.086320105,-0.059338305,-5.978899169999999,-3.61449672,-27.621056815,23.5221876,-0.10507479205,-0.34014387185,0.2296525557999999,-0.05051576097,0.0987850689,0.01199534381,0.003
08:26:00,-0.23607275,-0.2835136,-0.0488104499999999,-0.0280019,0.08439715,-0.05946615,-5.9996961,-3.6408426,-27.59877845,23.693115,-0.1057133315,-0.3413166555,0.2366390339999999,-0.0502024891,0.097032007,0.0120027852999999,0.003
08:26:00,-0.242701775,-0.28375348,-0.047119785,-0.02767697,0.082474195,-0.059593995,-6.020493029999999,-3.66718848,-27.576500085,23.8640424,-0.10635187095,-0.34248943915,0.2436255121999999,-0.04988921723,0.0952789451,0.01201022679,0.003
08:26:00,-0.2493308,-0.28399336,-0.0454291199999999,-0.0273520399999999,0.08055124,-0.05972184,-6.041289959999999,-3.69353436,-27.55422172,24.0349698,-0.1069904104,-0.3436622228,0.2506119903999999,-0.04957594536,0.0935258832,0.01201766828,0.003
08:26:00,-0.255959825,-0.28423324,-0.0437384549999999,-0.02702711,0.0786282849999999,-0.059849685,-6.06208689,-3.71988024,-27.531943355,24.2058972,-0.10762894985,-0.34483500645,0.2575984685999999,-0.04926267349,0.0917728213,0.01202510977,0.003
08:26:00,-0.26258885,-0.28447312,-0.04204779,-0.02670218,0.0767053299999999,-0.05997753,-6.082883819999999,-3.74622612,-27.50966499,24.3768246,-0.1082674893,-0.3460077901,0.2645849467999999,-0.04894940162,0.0900197594,0.01203255126,0.003
08:26:00,-0.269217875,-0.284713,-0.0403571249999999,-0.0263772499999999,0.074782375,-0.060105375,-6.10368075,-3.772572,-27.487386625,24.547752,-0.10890602875,-0.34718057375,0.2715714249999998,-0.04863612975,0.0882666975,0.0120399927499999,0.003
08:26:00,-0.2758469,-0.28495288,-0.0386664599999999,-0.02605232,0.07285942,-0.06023322,-6.124477679999999,-3.79891788,-27.46510826,24.7186794,-0.1095445682,-0.3483533574,0.2785579031999999,-0.04832285788,0.0865136356,0.01204743424,0.003
08:26:00,-0.2824759249999999,-0.28519276,-0.036975795,-0.02572739,0.070936465,-0.060361065,-6.14527461,-3.82526376,-27.442829895,24.8896068,-0.11018310765,-0.34952614105,0.2855443813999999,-0.04800958601,0.0847605737,0.01205487573,0.003
08:26:00,-0.28910495,-0.28543264,-0.03528513,-0.0254024599999999,0.06901351,-0.06048891,-6.166071539999999,-3.85160964,-27.42055153,25.0605342,-0.1108216471,-0.3506989246999999,0.2925308595999999,-0.04769631414,0.0830075118,0.01206231722,0.003
08:26:00,-0.295733975,-0.28567252,-0.0335944649999999,-0.0250775299999999,0.067090555,-0.060616755,-6.186868469999999,-3.87795552,-27.398273165,25.2314616,-0.11146018655,-0.35187170835,0.2995173377999999,-0.04738304227,0.0812544499,0.01206975871,0.003
08:26:00,-0.3023629999999999,-0.2859124,-0.0319037999999999,-0.0247526,0.0651675999999999,-0.0607446,-6.2076654,-3.9043014,-27.3759948,25.402389,-0.112098726,-0.353044492,0.3065038159999999,-0.0470697704,0.079501388,0.0120772001999999,0.003
08:26:00,-0.308992025,-0.28615228,-0.030213135,-0.02442767,0.0632446449999999,-0.060872445,-6.228462329999999,-3.93064728,-27.353716435,25.5733164,-0.11273726545,-0.35421727565,0.3134902941999999,-0.04675649853,0.0777483261,0.01208464169,0.003
08:26:00,-0.3156210499999999,-0.28639216,-0.0285224699999999,-0.0241027399999999,0.06132169,-0.06100029,-6.24925926,-3.95699316,-27.33143807,25.7442438,-0.1133758049,-0.3553900593,0.3204767723999999,-0.04644322666,0.0759952642,0.01209208318,0.003
08:26:00,-0.322250075,-0.28663204,-0.0268318049999999,-0.02377781,0.059398735,-0.061128135,-6.270056189999999,-3.98333904,-27.309159705,25.9151712,-0.11401434435,-0.35656284295,0.3274632505999999,-0.04612995479,0.0742422023,0.01209952467,0.003
08:26:00,-0.3288791,-0.28687192,-0.02514114,-0.02345288,0.05747578,-0.06125598,-6.29085312,-4.00968492,-27.28688134,26.0860986,-0.1146528838,-0.3577356266,0.3344497287999999,-0.04581668292,0.0724891404,0.01210696616,0.003
08:26:00,-0.335508125,-0.2871118,-0.023450475,-0.0231279499999999,0.055552825,-0.061383825,-6.311650049999999,-4.0360308,-27.264602975,26.257026,-0.11529142325,-0.35890841025,0.3414362069999999,-0.04550341105,0.0707360785,0.0121144076499999,0.003
08:26:00,-0.34213715,-0.28735168,-0.0217598099999999,-0.02280302,0.0536298699999999,-0.06151167,-6.332446979999999,-4.06237668,-27.24232461,26.4279534,-0.1159299627,-0.3600811939,0.3484226851999998,-0.04519013918,0.0689830166,0.01212184914,0.003
08:26:00,-0.3487661749999999,-0.28759156,-0.0200691449999999,-0.02247809,0.0517069149999999,-0.061639515,-6.35324391,-4.08872256,-27.220046245,26.5988808,-0.11656850215,-0.36125397755,0.3554091633999999,-0.04487686731,0.0672299547,0.01212929063,0.003
08:26:00,-0.3553952,-0.28783144,-0.01837848,-0.0221531599999999,0.0497839599999999,-0.06176736,-6.374040839999999,-4.11506844,-27.19776788,26.7698082,-0.1172070416,-0.3624267612,0.3623956415999999,-0.04456359544,0.0654768927999999,0.01213673212,0.003
08:26:00,-0.362024225,-0.28807132,-0.0166878149999999,-0.0218282299999999,0.047861005,-0.061895205,-6.39483777,-4.14141432,-27.175489515,26.9407356,-0.11784558105,-0.36359954485,0.3693821197999999,-0.04425032357,0.0637238309,0.01214417361,0.003
08:26:00,-0.36865325,-0.2883112,-0.0149971499999999,-0.0215033,0.04593805,-0.06202305,-6.415634699999999,-4.1677602,-27.15321115,27.111663,-0.1184841205,-0.3647723284999999,0.3763685979999999,-0.0439370517,0.061970769,0.0121516150999999,0.003
08:26:00,-0.375282275,-0.28855108,-0.013306485,-0.02117837,0.044015095,-0.062150895,-6.43643163,-4.19410608,-27.130932785,27.2825904,-0.11912265995,-0.36594511215,0.3833550761999998,-0.04362377983,0.0602177071,0.01215905659,0.003
08:26:00,-0.3819112999999999,-0.28879096,-0.0116158199999999,-0.0208534399999999,0.04209214,-0.06227874,-6.457228559999999,-4.22045196,-27.10865442,27.4535178,-0.1197611994,-0.3671178958,0.3903415543999999,-0.04331050796,0.0584646452,0.01216649808,0.003
08:26:00,-0.388540325,-0.28903084,-0.0099251549999999,-0.02052851,0.0401691849999999,-0.062406585,-6.478025489999999,-4.24679784,-27.086376055,27.6244452,-0.12039973885,-0.36829067945,0.3973280325999999,-0.04299723609,0.0567115833,0.01217393957,0.003
08:26:00,-0.39516935,-0.28927072,-0.0082344899999999,-0.02020358,0.0382462299999999,-0.06253443,-6.49882242,-4.27314372,-27.06409769,27.7953726,-0.1210382783,-0.3694634631,0.4043145107999999,-0.04268396422,0.0549585214,0.01218138106,0.003
08:26:00,-0.401798375,-0.2895106,-0.006543825,-0.0198786499999999,0.0363232749999999,-0.062662275,-6.519619349999999,-4.299489599999999,-27.041819325,27.9663,-0.12167681775,-0.37063624675,0.4113009889999999,-0.04237069235,0.0532054594999999,0.0121888225499999,0.003
08:26:00,-0.4084274,-0.28975048,-0.0048531599999999,-0.0195537199999999,0.03440032,-0.06279012,-6.54041628,-4.32583548,-27.01954096,28.1372274,-0.1223153572,-0.3718090304,0.4182874671999999,-0.04205742048,0.0514523976,0.01219626404,0.003
