Timestamp,linacce_x,linacce_y,linacce_z,gyro_x,gyro_y,gyro_z,X-magnetometer,Y-magnetometer,Z-magnetometer,Yaw, worldXAccel,worldYAccel,worldZAccel,worldXgyro,worldYgyro,worldZgyro,Distance
10:11:54,-0.771557,-0.310554,0.105226,-0.183799,-0.176224,-0.229002,28.959074,-14.813858,-31.678947,-81.169235,-0.60857075,-0.40493533,0.11259673,-0.25859398,-0.18162283,-0.09624863,0.0035
10:11:54,-0.789579845,-0.30568238,0.10180706,-0.178173965,-0.17625063,-0.226407875,28.961906690000003,-14.802291075,-31.682353300000003,-80.90778508,-0.6257259112500001,-0.40845354535,0.12408865685,-0.2524846691,-0.1799406302,-0.09784901685,0.0035
10:11:54,-0.8076026900000001,-0.30081076,0.09838812,-0.17254893,-0.17627726,-0.22381375,28.96473938,-14.79072415,-31.6857596,-80.64633516,-0.6428810725,-0.4119717606999999,0.1355805837,-0.2463753582,-0.1782584304,-0.0994494037,0.0035
10:11:54,-0.825625535,-0.29593914,0.09496918,-0.166923895,-0.17630389,-0.221219625,28.967572070000003,-14.779157225,-31.689165900000003,-80.38488524,-0.6600362337500001,-0.41548997605,0.14707251055,-0.2402660473,-0.1765762306,-0.10104979055,0.0035
10:11:54,-0.8436483800000001,-0.29106752,0.09155024,-0.16129886,-0.17633052,-0.2186255,28.97040476,-14.7675903,-31.6925722,-80.12343532,-0.677191395,-0.4190081914,0.1585644374,-0.2341567364,-0.1748940308,-0.1026501774,0.0035
10:11:54,-0.861671225,-0.2861959,0.0881313,-0.155673825,-0.17635715,-0.216031375,28.973237450000003,-14.756023375,-31.6959785,-79.8619854,-0.6943465562500001,-0.4225264067499999,0.17005636425,-0.2280474255,-0.173211831,-0.10425056425,0.0035
10:11:54,-0.87969407,-0.28132428,0.08471236,-0.15004879,-0.17638378,-0.21343725,28.97607014,-14.74445645,-31.6993848,-79.60053548,-0.7115017175,-0.4260446221,0.1815482911,-0.2219381146,-0.1715296312,-0.1058509511,0.0035
10:11:54,-0.8977169150000001,-0.27645266,0.08129342,-0.144423755,-0.17641041,-0.210843125,28.978902830000003,-14.732889525,-31.7027911,-79.33908556,-0.7286568787500001,-0.42956283745,0.19304021795,-0.2158288037,-0.1698474314,-0.10745133795,0.0035
10:11:54,-0.91573976,-0.27158104,0.07787448,-0.13879872,-0.17643704,-0.208249,28.98173552,-14.7213226,-31.7061974,-79.07763564,-0.74581204,-0.4330810528,0.2045321448,-0.2097194928,-0.1681652316,-0.1090517248,0.0035
10:11:54,-0.933762605,-0.26670942,0.0744555399999999,-0.1331736849999999,-0.17646367,-0.205654875,28.984568210000003,-14.709755675,-31.7096037,-78.81618572000001,-0.7629672012500001,-0.43659926815,0.21602407165,-0.2036101819,-0.1664830318,-0.11065211165,0.0035
10:11:54,-0.95178545,-0.2618378,0.0710365999999999,-0.1275486499999999,-0.1764903,-0.20306075,28.9874009,-14.69818875,-31.71301,-78.5547358,-0.7801223625,-0.4401174834999999,0.2275159985,-0.197500871,-0.164800832,-0.1122524985,0.0035
10:11:54,-0.969808295,-0.25696618,0.06761766,-0.1219236149999999,-0.17651693,-0.200466625,28.990233590000003,-14.686621825,-31.7164163,-78.29328588,-0.79727752375,-0.44363569885,0.23900792535,-0.1913915601,-0.1631186322,-0.11385288535,0.0035
10:11:54,-0.98783114,-0.2520945599999999,0.0641987199999999,-0.1162985799999999,-0.17654356,-0.1978725,28.99306628,-14.6750549,-31.7198226,-78.03183596,-0.8144326850000001,-0.4471539142,0.2504998522,-0.1852822492,-0.1614364324,-0.1154532722,0.0035
10:11:54,-1.005853985,-0.24722294,0.0607797799999999,-0.1106735449999999,-0.17657019,-0.195278375,28.99589897,-14.663487975,-31.7232289,-77.77038604,-0.83158784625,-0.4506721295499999,0.26199177905,-0.1791729383,-0.1597542326,-0.11705365905,0.0035
10:11:54,-1.02387683,-0.2423513199999999,0.0573608399999999,-0.1050485099999999,-0.17659682,-0.19268425,28.99873166,-14.65192105,-31.7266352,-77.50893612,-0.8487430075,-0.4541903449,0.2734837059,-0.1730636273999999,-0.1580720328,-0.1186540459,0.0035
10:11:54,-1.041899675,-0.2374797,0.0539418999999999,-0.0994234749999999,-0.17662345,-0.190090125,29.00156435,-14.640354125,-31.7300415,-77.2474862,-0.86589816875,-0.45770856025,0.28497563275,-0.1669543164999999,-0.156389833,-0.12025443275,0.0035
10:11:54,-1.05992252,-0.23260808,0.0505229599999999,-0.0937984399999999,-0.17665008,-0.187496,29.00439704,-14.6287872,-31.7334478,-76.98603628000001,-0.8830533300000001,-0.4612267755999999,0.2964675596,-0.1608450055999999,-0.1547076332,-0.1218548196,0.0035
10:11:54,-1.0779453650000002,-0.22773646,0.0471040199999999,-0.0881734049999999,-0.17667671,-0.184901875,29.00722973,-14.617220275,-31.7368541,-76.72458636,-0.90020849125,-0.46474499095,0.30795948645,-0.1547356946999999,-0.1530254334,-0.12345520645,0.0035
10:11:54,-1.09596821,-0.22286484,0.0436850799999999,-0.0825483699999999,-0.17670334,-0.18230775,29.01006242,-14.60565335,-31.7402604,-76.46313644,-0.9173636525,-0.4682632062999999,0.3194514133,-0.1486263837999999,-0.1513432336,-0.1250555933,0.0035
10:11:54,-1.113991055,-0.21799322,0.0402661399999999,-0.0769233349999999,-0.17672997,-0.179713625,29.01289511,-14.594086425,-31.7436667,-76.20168652,-0.93451881375,-0.47178142165,0.33094334015,-0.1425170728999999,-0.1496610338,-0.12665598015,0.0035
10:11:54,-1.1320139,-0.2131216,0.0368471999999999,-0.0712982999999999,-0.1767565999999999,-0.1771195,29.0157278,-14.5825195,-31.747073,-75.9402366,-0.951673975,-0.475299637,0.342435267,-0.136407762,-0.147978834,-0.128256367,0.0035
10:11:54,-1.150036745,-0.20824998,0.0334282599999999,-0.0656732649999999,-0.1767832299999999,-0.174525375,29.01856049,-14.570952575,-31.7504793,-75.67878668,-0.96882913625,-0.4788178523499999,0.35392719385,-0.1302984511,-0.1462966342,-0.12985675385,0.0035
10:11:54,-1.16805959,-0.2033783599999999,0.0300093199999999,-0.0600482299999999,-0.1768098599999999,-0.17193125,29.02139318,-14.55938565,-31.7538856,-75.41733676,-0.9859842975,-0.4823360677,0.3654191207,-0.1241891401999999,-0.1446144344,-0.1314571407,0.0035
10:11:54,-1.186082435,-0.19850674,0.0265903799999999,-0.0544231949999999,-0.1768364899999999,-0.169337125,29.02422587,-14.547818725,-31.7572919,-75.15588684,-1.00313945875,-0.48585428305,0.37691104755,-0.1180798293,-0.1429322346,-0.13305752755,0.0035
10:11:54,-1.20410528,-0.19363512,0.0231714399999999,-0.0487981599999999,-0.1768631199999999,-0.166743,29.02705856,-14.5362518,-31.7606982,-74.89443692,-1.02029462,-0.4893724983999999,0.3884029744,-0.1119705184,-0.1412500348,-0.1346579144,0.0035
10:11:54,-1.222128125,-0.1887635,0.0197524999999999,-0.0431731249999999,-0.1768897499999999,-0.164148875,29.02989125,-14.524684875,-31.7641045,-74.632987,-1.03744978125,-0.49289071375,0.39989490125,-0.1058612075,-0.139567835,-0.13625830125,0.0035
10:11:54,-1.24015097,-0.18389188,0.0163335599999999,-0.0375480899999999,-0.1769163799999999,-0.16155475,29.03272394,-14.51311795,-31.7675108,-74.37153708,-1.0546049425,-0.4964089291,0.4113868281,-0.0997518966,-0.1378856352,-0.1378586881,0.0035
10:11:54,-1.258173815,-0.17902026,0.0129146199999999,-0.0319230549999999,-0.1769430099999999,-0.158960625,29.03555663,-14.501551025,-31.7709171,-74.11008716,-1.07176010375,-0.4999271444499999,0.42287875495,-0.0936425856999999,-0.1362034354,-0.1394590749499999,0.0035
10:11:54,-1.27619666,-0.17414864,0.0094956799999999,-0.0262980199999999,-0.1769696399999999,-0.1563665,29.03838932,-14.4899841,-31.7743234,-73.84863724,-1.088915265,-0.5034453597999999,0.4343706818,-0.0875332747999999,-0.1345212356,-0.1410594618,0.0035
10:11:54,-1.294219505,-0.16927702,0.0060767399999999,-0.0206729849999999,-0.1769962699999999,-0.153772375,29.04122201,-14.478417175,-31.7777297,-73.58718732,-1.10607042625,-0.50696357515,0.44586260865,-0.0814239638999999,-0.1328390358,-0.14265984865,0.0035
10:11:54,-1.31224235,-0.1644053999999999,0.0026577999999999,-0.0150479499999999,-0.1770228999999999,-0.15117825,29.0440547,-14.46685025,-31.781136,-73.3257374,-1.1232255875,-0.5104817905,0.4573545355,-0.0753146529999999,-0.131156836,-0.1442602355,0.0035
10:11:54,-1.330265195,-0.15953378,-0.00076114,-0.0094229149999999,-0.1770495299999999,-0.148584125,29.04688739,-14.455283325,-31.7845423,-73.06428748,-1.14038074875,-0.5140000058499999,0.46884646235,-0.0692053420999999,-0.1294746362,-0.14586062235,0.0035
10:11:54,-1.34828804,-0.15466216,-0.00418008,-0.0037978799999999,-0.1770761599999999,-0.14599,29.04972008,-14.4437164,-31.7879486,-72.80283756,-1.15753591,-0.5175182212,0.4803383892,-0.0630960311999999,-0.1277924364,-0.1474610092,0.0035
10:11:54,-1.366310885,-0.14979054,-0.00759902,0.001827155,-0.1771027899999999,-0.143395875,29.05255277,-14.432149475,-31.7913549,-72.54138764,-1.17469107125,-0.52103643655,0.49183031605,-0.0569867202999999,-0.1261102366,-0.14906139605,0.0035
10:11:54,-1.38433373,-0.14491892,-0.01101796,0.00745219,-0.1771294199999999,-0.14080175,29.05538546,-14.42058255,-31.7947612,-72.27993771999999,-1.1918462325,-0.5245546519,0.5033222429,-0.0508774093999999,-0.1244280368,-0.1506617828999999,0.0035
10:11:54,-1.402356575,-0.1400472999999999,-0.0144369,0.013077225,-0.1771560499999999,-0.138207625,29.05821815,-14.409015625,-31.7981675,-72.0184878,-1.20900139375,-0.52807286725,0.51481416975,-0.0447680984999999,-0.122745837,-0.15226216975,0.0035
10:11:54,-1.4203794200000002,-0.13517568,-0.01785584,0.01870226,-0.1771826799999999,-0.1356135,29.06105084,-14.3974487,-31.8015738,-71.75703788,-1.226156555,-0.5315910826,0.5263060966,-0.0386587875999999,-0.1210636372,-0.1538625566,0.0035
10:11:54,-1.438402265,-0.13030406,-0.02127478,0.024327295,-0.1772093099999999,-0.133019375,29.06388353,-14.385881775,-31.8049801,-71.49558796,-1.24331171625,-0.53510929795,0.53779802345,-0.0325494766999999,-0.1193814374,-0.15546294345,0.0035
10:11:54,-1.45642511,-0.1254324399999999,-0.02469372,0.02995233,-0.1772359399999999,-0.13042525,29.06671622,-14.37431485,-31.8083864,-71.23413804,-1.2604668775,-0.5386275133,0.5492899503,-0.0264401657999999,-0.1176992376,-0.1570633303,0.0035
10:11:54,-1.474447955,-0.1205608199999999,-0.02811266,0.035577365,-0.1772625699999999,-0.127831125,29.06954891,-14.362747925,-31.8117927,-70.97268812,-1.27762203875,-0.54214572865,0.56078187715,-0.0203308548999999,-0.1160170378,-0.15866371715,0.0035
10:11:54,-1.4924708,-0.1156891999999999,-0.0315316,0.0412024,-0.1772891999999999,-0.125237,29.0723816,-14.351181,-31.815199,-70.7112382,-1.2947772,-0.545663944,0.572273804,-0.0142215439999999,-0.114334838,-0.160264104,0.0035
10:11:54,-1.510493645,-0.11081758,-0.03495054,0.046827435,-0.1773158299999999,-0.122642875,29.07521429,-14.339614075,-31.8186053,-70.44978828,-1.31193236125,-0.54918215935,0.58376573085,-0.0081122330999999,-0.1126526382,-0.16186449085,0.0035
10:11:54,-1.52851649,-0.10594596,-0.03836948,0.05245247,-0.1773424599999999,-0.12004875,29.07804698,-14.32804715,-31.8220116,-70.18833836,-1.3290875225,-0.5527003747,0.5952576577,-0.0020029221999999,-0.1109704384,-0.1634648777,0.0035
10:11:54,-1.5465393349999998,-0.1010743399999999,-0.04178842,0.058077505,-0.1773690899999999,-0.117454625,29.08087967,-14.316480225,-31.8254179,-69.92688844,-1.34624268375,-0.55621859005,0.60674958455,0.0041063887,-0.1092882386,-0.1650652645499999,0.0035
10:11:54,-1.56456218,-0.0962027199999999,-0.04520736,0.06370254,-0.1773957199999999,-0.1148605,29.08371236,-14.3049133,-31.8288242,-69.66543852,-1.363397845,-0.5597368054,0.6182415114,0.0102156996,-0.1076060388,-0.1666656514,0.0035
10:11:54,-1.582585025,-0.0913311,-0.0486263,0.069327575,-0.1774223499999999,-0.112266375,29.08654505,-14.293346375,-31.8322305,-69.4039886,-1.38055300625,-0.56325502075,0.62973343825,0.0163250105,-0.105923839,-0.16826603825,0.0035
10:11:54,-1.6006078700000002,-0.0864594799999999,-0.05204524,0.07495261,-0.1774489799999999,-0.10967225,29.08937774,-14.28177945,-31.8356368,-69.14253868,-1.3977081674999998,-0.5667732361,0.6412253651,0.0224343214,-0.1042416392,-0.1698664251,0.0035
10:11:54,-1.618630715,-0.0815878599999999,-0.05546418,0.080577645,-0.1774756099999999,-0.107078125,29.09221043,-14.270212525,-31.8390431,-68.88108876,-1.41486332875,-0.5702914514499999,0.6527172919500001,0.0285436323,-0.1025594394,-0.17146681195,0.0035
10:11:54,-1.63665356,-0.0767162399999999,-0.05888312,0.08620268,-0.1775022399999999,-0.104484,29.09504312,-14.2586456,-31.8424494,-68.61963884,-1.43201849,-0.5738096668,0.6642092188000001,0.0346529432,-0.1008772396,-0.1730671988,0.0035
10:11:54,-1.654676405,-0.07184462,-0.06230206,0.091827715,-0.1775288699999999,-0.101889875,29.09787581,-14.247078675,-31.8458557,-68.35818892,-1.44917365125,-0.57732788215,0.6757011456500001,0.0407622541,-0.0991950398,-0.17466758565,0.0035
10:11:54,-1.67269925,-0.066973,-0.065721,0.09745275,-0.1775554999999999,-0.09929575,29.1007085,-14.23551175,-31.849262000000003,-68.096739,-1.4663288125,-0.5808460975,0.6871930725000001,0.046871565,-0.09751284,-0.1762679724999999,0.0035
10:11:54,-1.690722095,-0.0621013799999999,-0.06913994,0.103077785,-0.17758213,-0.096701625,29.10354119,-14.223944825,-31.8526683,-67.83528908,-1.48348397375,-0.58436431285,0.6986849993500001,0.0529808759,-0.0958306402,-0.17786835935,0.0035
10:11:54,-1.70874494,-0.05722976,-0.07255888,0.10870282,-0.17760876,-0.0941075,29.10637388,-14.2123779,-31.856074600000003,-67.57383916,-1.500639135,-0.5878825282,0.7101769262000001,0.0590901868,-0.0941484404,-0.1794687462,0.0035
10:11:54,-1.726767785,-0.05235814,-0.07597782,0.114327855,-0.17763539,-0.091513375,29.10920657,-14.200810975,-31.8594809,-67.31238924,-1.51779429625,-0.5914007435499999,0.7216688530500001,0.0651994977,-0.0924662406,-0.18106913305,0.0035
10:11:54,-1.74479063,-0.0474865199999999,-0.07939676,0.11995289,-0.17766202,-0.08891925,29.11203926,-14.18924405,-31.862887200000003,-67.05093932,-1.5349494575,-0.5949189589,0.7331607799000001,0.0713088086,-0.0907840408,-0.1826695199,0.0035
10:11:54,-1.762813475,-0.0426149,-0.0828157,0.125577925,-0.17768865,-0.086325125,29.11487195,-14.177677125,-31.8662935,-66.78948940000001,-1.55210461875,-0.59843717425,0.7446527067500001,0.0774181195,-0.089101841,-0.18426990675,0.0035
10:11:54,-1.78083632,-0.0377432799999999,-0.08623464,0.13120296,-0.17771528,-0.083731,29.11770464,-14.1661102,-31.869699800000003,-66.52803948,-1.56925978,-0.6019553896000001,0.7561446336000001,0.0835274304,-0.0874196412,-0.1858702936,0.0035
10:11:54,-1.798859165,-0.0328716599999999,-0.08965358,0.136827995,-0.17774191,-0.081136875,29.12053733,-14.154543275,-31.8731061,-66.26658956,-1.58641494125,-0.60547360495,0.7676365604500001,0.0896367413,-0.0857374414,-0.1874706804499999,0.0035
10:11:54,-1.81688201,-0.02800004,-0.09307252,0.14245303,-0.17776854,-0.07854275,29.12337002,-14.14297635,-31.876512400000003,-66.00513964,-1.6035701025,-0.6089918203,0.7791284873000001,0.0957460522,-0.0840552416,-0.1890710673,0.0035
10:11:54,-1.834904855,-0.0231284199999999,-0.09649146,0.148078065,-0.17779517,-0.075948625,29.12620271,-14.131409425,-31.8799187,-65.74368972,-1.6207252637499998,-0.61251003565,0.7906204141500001,0.1018553631,-0.0823730418,-0.19067145415,0.0035
10:11:54,-1.8529277,-0.0182567999999999,-0.0999104,0.1537031,-0.1778218,-0.0733545,29.1290354,-14.1198425,-31.883325000000003,-65.4822398,-1.637880425,-0.616028251,0.8021123410000001,0.107964674,-0.080690842,-0.192271841,0.0035
10:11:54,-1.870950545,-0.0133851799999999,-0.10332934,0.159328135,-0.17784843,-0.070760375,29.13186809,-14.108275575,-31.8867313,-65.22078988,-1.65503558625,-0.61954646635,0.8136042678500001,0.1140739849,-0.0790086422,-0.19387222785,0.0035
10:11:54,-1.88897339,-0.0085135599999999,-0.10674828,0.16495317,-0.17787506,-0.06816625,29.13470078,-14.09670865,-31.890137600000003,-64.95933996,-1.6721907474999995,-0.6230646817,0.8250961947000001,0.1201832958,-0.0773264424,-0.1954726147,0.0035
10:11:54,-1.906996235,-0.00364194,-0.11016722,0.170578205,-0.17790169,-0.065572125,29.13753347,-14.085141725,-31.8935439,-64.69789004,-1.68934590875,-0.62658289705,0.8365881215500001,0.1262926067,-0.0756442426,-0.19707300155,0.0035
10:11:54,-1.92501908,0.00122968,-0.11358616,0.17620324,-0.17792832,-0.062978,29.14036616,-14.0735748,-31.896950200000003,-64.43644012,-1.7065010699999998,-0.6301011124,0.8480800484000001,0.1324019176,-0.0739620428,-0.1986733883999999,0.0035
10:11:54,-1.943041925,0.0061013,-0.1170051,0.181828275,-0.17795495,-0.060383875,29.14319885,-14.062007875,-31.9003565,-64.1749902,-1.72365623125,-0.63361932775,0.8595719752500001,0.1385112285,-0.072279843,-0.20027377525,0.0035
10:11:54,-1.96106477,0.0109729199999999,-0.12042404,0.18745331,-0.17798158,-0.05778975,29.14603154,-14.05044095,-31.903762800000003,-63.91354028,-1.7408113925,-0.6371375431,0.8710639021000001,0.1446205394,-0.0705976432,-0.2018741621,0.0035
10:11:54,-1.979087615,0.01584454,-0.12384298,0.193078345,-0.17800821,-0.055195625,29.14886423,-14.038874025,-31.9071691,-63.65209036,-1.7579665537499998,-0.64065575845,0.8825558289500001,0.1507298503,-0.0689154434,-0.20347454895,0.0035
10:11:54,-1.99711046,0.0207161599999999,-0.12726192,0.19870338,-0.17803484,-0.0526014999999999,29.15169692,-14.0273071,-31.910575400000003,-63.39064044,-1.775121715,-0.6441739738,0.8940477558000001,0.1568391612,-0.0672332436,-0.2050749358,0.0035
10:11:54,-2.015133305,0.02558778,-0.13068086,0.204328415,-0.17806147,-0.0500073749999999,29.15452961,-14.015740175,-31.9139817,-63.12919052,-1.79227687625,-0.64769218915,0.90553968265,0.1629484721,-0.0655510438,-0.20667532265,0.0035
10:11:54,-2.03315615,0.0304594,-0.1340998,0.20995345,-0.1780881,-0.04741325,29.1573623,-14.00417325,-31.917388000000003,-62.867740600000005,-1.8094320375,-0.6512104045,0.9170316095,0.169057783,-0.063868844,-0.2082757095,0.0035
10:11:54,-2.051178995,0.0353310199999999,-0.13751874,0.215578485,-0.17811473,-0.044819125,29.16019499,-13.992606325,-31.9207943,-62.60629068,-1.82658719875,-0.65472861985,0.92852353635,0.1751670939,-0.0621866442,-0.2098760963499999,0.0035
10:11:54,-2.06920184,0.04020264,-0.14093768,0.22120352,-0.17814136,-0.042225,29.16302768,-13.9810394,-31.9242006,-62.34484076,-1.84374236,-0.6582468351999999,0.9400154632,0.1812764048,-0.0605044444,-0.2114764832,0.0035
10:11:54,-2.087224685,0.04507426,-0.14435662,0.226828555,-0.17816799,-0.039630875,29.16586037,-13.969472475,-31.9276069,-62.08339084,-1.86089752125,-0.66176505055,0.95150739005,0.1873857157,-0.0588222446,-0.2130768700499999,0.0035
10:11:54,-2.10524753,0.04994588,-0.14777556,0.23245359,-0.17819462,-0.03703675,29.16869306,-13.95790555,-31.9310132,-61.82194092,-1.8780526825,-0.6652832659,0.9629993169,0.1934950266,-0.0571400448,-0.2146772569,0.0035
10:11:54,-2.123270375,0.0548175,-0.1511945,0.238078625,-0.17822125,-0.034442625,29.17152575,-13.946338625,-31.9344195,-61.560491,-1.89520784375,-0.66880148125,0.97449124375,0.1996043375,-0.055457845,-0.21627764375,0.0035
10:11:54,-2.14129322,0.05968912,-0.15461344,0.24370366,-0.17824788,-0.0318485,29.17435844,-13.9347717,-31.9378258,-61.29904108,-1.912363005,-0.6723196966,0.9859831706,0.2057136484,-0.0537756452,-0.2178780306,0.0035
10:11:54,-2.159316065,0.06456074,-0.15803238,0.249328695,-0.17827451,-0.029254375,29.17719113,-13.923204775,-31.9412321,-61.037591160000005,-1.92951816625,-0.67583791195,0.99747509745,0.2118229593,-0.0520934454,-0.21947841745,0.0035
10:11:54,-2.17733891,0.06943236,-0.16145132,0.25495373,-0.17830114,-0.0266602499999999,29.18002382,-13.91163785,-31.9446384,-60.77614124,-1.9466733275,-0.6793561273,1.0089670243,0.2179322702,-0.0504112456,-0.2210788043,0.0035
10:11:54,-2.195361755,0.0743039799999999,-0.16487026,0.260578765,-0.17832777,-0.0240661249999999,29.18285651,-13.900070925,-31.9480447,-60.51469132,-1.96382848875,-0.68287434265,1.02045895115,0.2240415811,-0.0487290458,-0.2226791911499999,0.0035
10:11:54,-2.2133846,0.0791756,-0.1682892,0.2662038,-0.1783544,-0.021472,29.1856892,-13.888504,-31.951451,-60.2532414,-1.98098365,-0.686392558,1.031950878,0.230150892,-0.047046846,-0.224279578,0.0035
10:11:54,-2.231407445,0.08404722,-0.17170814,0.271828835,-0.17838103,-0.018877875,29.18852189,-13.876937075,-31.9548573,-59.99179148,-1.99813881125,-0.6899107733500001,1.04344280485,0.2362602029,-0.0453646462,-0.22587996485,0.0035
10:11:54,-2.2494302900000003,0.08891884,-0.17512708,0.27745387,-0.17840766,-0.01628375,29.19135458,-13.86537015,-31.9582636,-59.73034156,-2.0152939725,-0.6934289887,1.0549347317,0.2423695138,-0.0436824464,-0.2274803517,0.0035
10:11:54,-2.267453135,0.09379046,-0.17854602,0.283078905,-0.17843429,-0.013689625,29.19418727,-13.853803225,-31.9616699,-59.46889164,-2.03244913375,-0.69694720405,1.06642665855,0.2484788247,-0.0420002466,-0.22908073855,0.0035
10:11:54,-2.28547598,0.0986620799999999,-0.18196496,0.28870394,-0.17846092,-0.0110955,29.19701996,-13.8422363,-31.9650762,-59.20744172,-2.049604295,-0.7004654194,1.0779185854,0.2545881356,-0.0403180468,-0.2306811254,0.0035
10:11:54,-2.303498825,0.1035337,-0.1853839,0.294328975,-0.17848755,-0.008501375,29.19985265,-13.830669375,-31.9684825,-58.9459918,-2.06675945625,-0.7039836347499999,1.08941051225,0.2606974465,-0.038635847,-0.23228151225,0.0035
10:11:54,-2.32152167,0.10840532,-0.18880284,0.29995401,-0.17851418,-0.00590725,29.20268534,-13.81910245,-31.9718888,-58.68454188,-2.0839146175,-0.7075018501,1.1009024391,0.2668067574,-0.0369536472,-0.2338818990999999,0.0035
10:11:54,-2.339544515,0.1132769399999999,-0.19222178,0.305579045,-0.17854081,-0.003313125,29.20551803,-13.807535525,-31.9752951,-58.42309196,-2.10106977875,-0.7110200654500001,1.11239436595,0.2729160683,-0.0352714474,-0.23548228595,0.0035
10:11:54,-2.35756736,0.11814856,-0.19564072,0.31120408,-0.17856744,-0.0007189999999999,29.20835072,-13.7959686,-31.9787014,-58.16164204,-2.11822494,-0.7145382808,1.1238862928,0.2790253792,-0.0335892476,-0.2370826728,0.0035
10:11:54,-2.375590205,0.12302018,-0.19905966,0.316829115,-0.17859407,0.001875125,29.21118341,-13.784401675,-31.9821077,-57.90019212,-2.13538010125,-0.71805649615,1.13537821965,0.2851346901,-0.0319070478,-0.23868305965,0.0035
10:11:54,-2.39361305,0.1278918,-0.2024786,0.32245415,-0.1786207,0.00446925,29.2140161,-13.77283475,-31.985514,-57.6387422,-2.1525352625,-0.7215747115,1.1468701465,0.291244001,-0.030224848,-0.2402834465,0.0035
10:11:54,-2.411635895,0.13276342,-0.20589754,0.328079185,-0.17864733,0.0070633749999999,29.21684879,-13.761267825,-31.9889203,-57.37729228,-2.16969042375,-0.7250929268499999,1.15836207335,0.2973533119,-0.0285426482,-0.24188383335,0.0035
10:11:54,-2.42965874,0.13763504,-0.20931648,0.33370422,-0.17867396,0.0096574999999999,29.21968148,-13.7497009,-31.9923266,-57.11584236,-2.186845585,-0.7286111422,1.1698540002,0.3034626228,-0.0268604484,-0.2434842202,0.0035
10:11:54,-2.447681585,0.14250666,-0.21273542,0.339329255,-0.17870059,0.0122516249999999,29.22251417,-13.738133975,-31.9957329,-56.85439244,-2.20400074625,-0.7321293575500001,1.18134592705,0.3095719337,-0.0251782486,-0.24508460705,0.0035
10:11:54,-2.46570443,0.14737828,-0.21615436,0.34495429,-0.17872722,0.0148457499999999,29.22534686,-13.72656705,-31.9991392,-56.59294252,-2.2211559075,-0.7356475729,1.1928378539,0.3156812446,-0.0234960488,-0.2466849938999999,0.0035
10:11:54,-2.483727275,0.1522499,-0.2195733,0.350579325,-0.17875385,0.0174398749999999,29.22817955,-13.715000125,-32.002545500000004,-56.3314926,-2.23831106875,-0.73916578825,1.20432978075,0.3217905555,-0.021813849,-0.24828538075,0.0035
10:11:54,-2.50175012,0.15712152,-0.22299224,0.35620436,-0.17878048,0.0200339999999999,29.23101224,-13.7034332,-32.0059518,-56.07004268,-2.25546623,-0.7426840036,1.2158217076,0.3278998664,-0.0201316492,-0.2498857676,0.0035
10:11:54,-2.519772965,0.16199314,-0.22641118,0.361829395,-0.17880711,0.0226281249999999,29.23384493,-13.691866275,-32.0093581,-55.80859276,-2.27262139125,-0.7462022189499999,1.22731363445,0.3340091773,-0.0184494494,-0.25148615445,0.0035
10:11:54,-2.53779581,0.16686476,-0.22983012,0.36745443,-0.17883374,0.0252222499999999,29.23667762,-13.68029935,-32.0127644,-55.54714284,-2.2897765525,-0.7497204343,1.2388055613,0.3401184882,-0.0167672496,-0.2530865412999999,0.0035
10:11:54,-2.555818655,0.17173638,-0.23324906,0.373079465,-0.17886037,0.0278163749999999,29.23951031,-13.668732425,-32.0161707,-55.28569292,-2.30693171375,-0.75323864965,1.25029748815,0.3462277991,-0.0150850498,-0.25468692815,0.0035
10:11:54,-2.5738415,0.176608,-0.236668,0.3787045,-0.178887,0.0304104999999999,29.242343,-13.6571655,-32.019577,-55.024243,-2.324086875,-0.7567568650000001,1.261789415,0.35233711,-0.01340285,-0.256287315,0.0035
10:11:54,-2.5918643450000003,0.18147962,-0.24008694,0.384329535,-0.17891363,0.0330046249999999,29.24517569,-13.645598575,-32.0229833,-54.76279308,-2.34124203625,-0.76027508035,1.27328134185,0.3584464209,-0.0117206502,-0.25788770185,0.0035
10:11:54,-2.60988719,0.18635124,-0.24350588,0.38995457,-0.17894026,0.0355987499999999,29.24800838,-13.63403165,-32.0263896,-54.501343160000005,-2.3583971975,-0.7637932957,1.2847732687,0.3645557318,-0.0100384504,-0.2594880887,0.0035
10:11:54,-2.627910035,0.19122286,-0.24692482,0.395579605,-0.17896689,0.0381928749999999,29.25084107,-13.622464725,-32.0297959,-54.23989324,-2.37555235875,-0.76731151105,1.29626519555,0.3706650427,-0.0083562506,-0.26108847555,0.0035
10:11:54,-2.64593288,0.1960944799999999,-0.2503437600000001,0.40120464,-0.17899352,0.0407869999999999,29.25367376,-13.6108978,-32.033202200000005,-53.97844332,-2.39270752,-0.7708297264,1.3077571224,0.3767743536,-0.0066740508,-0.2626888624,0.0035
10:11:54,-2.663955725,0.2009661,-0.2537627,0.406829675,-0.17902015,0.0433811249999999,29.25650645,-13.599330875,-32.0366085,-53.7169934,-2.40986268125,-0.77434794175,1.31924904925,0.3828836645,-0.004991851,-0.2642892492499999,0.0035
10:11:54,-2.68197857,0.20583772,-0.25718164,0.41245471,-0.17904678,0.0459752499999999,29.25933914,-13.58776395,-32.0400148,-53.45554348,-2.4270178425,-0.7778661571000001,1.3307409761,0.3889929754,-0.0033096512,-0.2658896361,0.0035
10:11:54,-2.700001415,0.2107093399999999,-0.2606005800000001,0.418079745,-0.17907341,0.048569375,29.26217183,-13.576197025,-32.0434211,-53.19409356,-2.44417300375,-0.78138437245,1.34223290295,0.3951022863000001,-0.0016274514,-0.26749002295,0.0035
10:11:54,-2.71802426,0.21558096,-0.26401952,0.42370478,-0.17910004,0.0511635,29.26500452,-13.5646301,-32.046827400000005,-52.93264364,-2.461328165,-0.7849025878,1.3537248298,0.4012115972000001,5.474839999997094e-05,-0.2690904098,0.0035
10:11:54,-2.736047105,0.22045258,-0.26743846,0.429329815,-0.17912667,0.053757625,29.26783721,-13.553063175,-32.0502337,-52.671193720000005,-2.47848332625,-0.78842080315,1.36521675665,0.4073209081000001,0.0017369481999999,-0.2706907966499999,0.0035
10:11:54,-2.75406995,0.2253241999999999,-0.2708574000000001,0.43495485,-0.1791533,0.05635175,29.2706699,-13.54149625,-32.05364,-52.4097438,-2.4956384875,-0.7919390184999999,1.3767086835,0.4134302190000001,0.0034191479999999,-0.2722911835,0.0035
10:11:54,-2.772092795,0.23019582,-0.27427634,0.440579885,-0.17917993,0.058945875,29.27350259,-13.529929325,-32.0570463,-52.14829388,-2.51279364875,-0.79545723385,1.38820061035,0.4195395299000001,0.0051013477999999,-0.27389157035,0.0035
10:11:54,-2.79011564,0.23506744,-0.27769528,0.44620492,-0.17920656,0.06154,29.27633528,-13.5183624,-32.060452600000005,-51.88684396,-2.52994881,-0.7989754492000001,1.3996925372,0.4256488408000001,0.0067835475999999,-0.2754919571999999,0.0035
10:11:54,-2.808138485,0.2399390599999999,-0.2811142200000001,0.451829955,-0.17923319,0.064134125,29.27916797,-13.506795475,-32.0638589,-51.62539404,-2.54710397125,-0.80249366455,1.41118446405,0.4317581517000001,0.0084657473999999,-0.27709234405,0.0035
10:11:54,-2.82616133,0.24481068,-0.28453316,0.45745499,-0.17925982,0.06672825,29.28200066,-13.49522855,-32.0672652,-51.36394412,-2.5642591325,-0.8060118799,1.4226763909,0.4378674626000001,0.0101479471999999,-0.2786927309,0.0035
10:11:54,-2.844184175,0.2496823,-0.2879521000000001,0.463080025,-0.1792864499999999,0.069322375,29.28483335,-13.483661625,-32.0706715,-51.1024942,-2.58141429375,-0.80953009525,1.43416831775,0.4439767735000001,0.0118301469999999,-0.28029311775,0.0035
10:11:54,-2.86220702,0.25455392,-0.2913710400000001,0.46870506,-0.1793130799999999,0.0719165,29.28766604,-13.4720947,-32.074077800000005,-50.84104428,-2.598569455,-0.8130483105999999,1.4456602446,0.4500860844000001,0.0135123467999999,-0.2818935045999999,0.0035
10:11:54,-2.880229865,0.25942554,-0.29478998,0.474330095,-0.1793397099999999,0.074510625,29.29049873,-13.460527775,-32.0774841,-50.57959436,-2.61572461625,-0.81656652595,1.45715217145,0.4561953953000001,0.0151945465999999,-0.28349389145,0.0035
10:11:54,-2.89825271,0.26429716,-0.2982089200000001,0.47995513,-0.1793663399999999,0.0771047499999999,29.29333142,-13.44896085,-32.0808904,-50.31814444,-2.6328797775,-0.8200847413000001,1.4686440983,0.4623047062000001,0.0168767463999999,-0.2850942783,0.0035
10:11:54,-2.916275555,0.26916878,-0.3016278600000001,0.485580165,-0.1793929699999999,0.0796988749999999,29.29616411,-13.437393925,-32.0842967,-50.05669452,-2.65003493875,-0.82360295665,1.48013602515,0.4684140171000001,0.0185589461999999,-0.2866946651499999,0.0035
10:11:54,-2.9342984,0.2740404000000001,-0.3050468,0.4912052,-0.1794195999999999,0.0822929999999999,29.2989968,-13.425827,-32.087703000000005,-49.7952446,-2.6671901,-0.827121172,1.491627952,0.4745233280000001,0.0202411459999999,-0.288295052,0.0035
10:11:54,-2.952321245,0.27891202,-0.3084657400000001,0.496830235,-0.1794462299999999,0.0848871249999999,29.30182949,-13.414260075,-32.0911093,-49.53379468,-2.68434526125,-0.83063938735,1.50311987885,0.4806326389000001,0.0219233457999999,-0.28989543885,0.0035
10:11:54,-2.97034409,0.28378364,-0.3118846800000001,0.50245527,-0.1794728599999999,0.0874812499999999,29.30466218,-13.40269315,-32.0945156,-49.27234476,-2.7015004225,-0.8341576027,1.5146118057,0.4867419498000001,0.0236055455999999,-0.2914958257,0.0035
10:11:54,-2.988366935,0.2886552599999999,-0.31530362,0.508080305,-0.1794994899999999,0.0900753749999999,29.30749487,-13.391126225,-32.0979219,-49.01089484,-2.71865558375,-0.83767581805,1.52610373255,0.4928512607,0.0252877453999999,-0.2930962125499999,0.0035
10:11:54,-3.00638978,0.29352688,-0.3187225600000001,0.51370534,-0.1795261199999999,0.0926694999999999,29.31032756,-13.3795593,-32.101328200000005,-48.74944492,-2.735810745,-0.8411940334,1.5375956594,0.4989605716,0.0269699451999999,-0.2946965994,0.0035
10:11:54,-3.024412625,0.2983985,-0.3221415000000001,0.519330375,-0.1795527499999999,0.0952636249999999,29.31316025,-13.367992375,-32.1047345,-48.487995,-2.75296590625,-0.8447122487500001,1.54908758625,0.5050698825000001,0.0286521449999999,-0.29629698625,0.0035
10:11:54,-3.04243547,0.30327012,-0.32556044,0.52495541,-0.1795793799999999,0.09785775,29.31599294,-13.35642545,-32.1081408,-48.22654508,-2.7701210675,-0.8482304641,1.5605795131,0.5111791934000001,0.0303343447999999,-0.2978973731,0.0035
10:11:54,-3.060458315,0.30814174,-0.3289793800000001,0.530580445,-0.1796060099999999,0.100451875,29.31882563,-13.344858525,-32.1115471,-47.96509516,-2.78727622875,-0.85174867945,1.57207143995,0.5172885043000001,0.0320165445999999,-0.29949775995,0.0035
10:11:54,-3.07848116,0.31301336,-0.3323983200000001,0.53620548,-0.1796326399999999,0.103046,29.32165832,-13.3332916,-32.114953400000005,-47.70364524,-2.80443139,-0.8552668948,1.5835633668,0.5233978152000001,0.0336987443999999,-0.3010981468,0.0035
10:11:54,-3.096504005,0.31788498,-0.33581726,0.541830515,-0.1796592699999999,0.105640125,29.32449101,-13.321724675,-32.1183597,-47.44219532,-2.82158655125,-0.85878511015,1.59505529365,0.5295071261000001,0.0353809441999999,-0.30269853365,0.0035
10:11:54,-3.11452685,0.3227566,-0.3392362000000001,0.54745555,-0.1796858999999999,0.10823425,29.3273237,-13.31015775,-32.121766,-47.1807454,-2.8387417125,-0.8623033255,1.6065472205,0.5356164370000001,0.0370631439999999,-0.3042989204999999,0.0035
10:11:54,-3.132549695,0.32762822,-0.3426551400000001,0.553080585,-0.1797125299999999,0.110828375,29.33015639,-13.298590825,-32.1251723,-46.91929548,-2.85589687375,-0.8658215408500001,1.61803914735,0.5417257479,0.0387453437999999,-0.30589930735,0.0035
10:11:54,-3.15057254,0.33249984,-0.34607408,0.55870562,-0.1797391599999999,0.1134225,29.33298908,-13.2870239,-32.128578600000004,-46.65784556,-2.873052035,-0.8693397562,1.6295310742,0.5478350588,0.0404275435999999,-0.3074996942,0.0035
10:11:54,-3.168595385,0.33737146,-0.3494930200000001,0.564330655,-0.1797657899999999,0.116016625,29.33582177,-13.275456975,-32.1319849,-46.39639564,-2.89020719625,-0.87285797155,1.64102300105,0.5539443697,0.0421097433999999,-0.30910008105,0.0035
10:11:54,-3.18661823,0.34224308,-0.3529119600000001,0.56995569,-0.1797924199999999,0.11861075,29.33865446,-13.26389005,-32.1353912,-46.13494572,-2.9073623575,-0.8763761869,1.6525149279,0.5600536806,0.0437919431999999,-0.3107004679,0.0035
10:11:54,-3.204641075,0.3471147,-0.3563309,0.575580725,-0.1798190499999999,0.121204875,29.34148715,-13.252323125,-32.1387975,-45.8734958,-2.92451751875,-0.8798944022499999,1.66400685475,0.5661629915,0.0454741429999999,-0.31230085475,0.0035
10:11:54,-3.22266392,0.3519863199999999,-0.3597498400000001,0.58120576,-0.1798456799999999,0.123799,29.34431984,-13.2407562,-32.142203800000004,-45.61204588,-2.94167268,-0.8834126176,1.6754987816,0.5722723024,0.0471563427999999,-0.3139012416,0.0035
10:11:54,-3.240686765,0.35685794,-0.3631687800000001,0.586830795,-0.1798723099999999,0.126393125,29.34715253,-13.229189275,-32.1456101,-45.35059596,-2.95882784125,-0.8869308329500001,1.68699070845,0.5783816133,0.0488385425999999,-0.3155016284499999,0.0035
10:11:54,-3.25870961,0.36172956,-0.36658772,0.59245583,-0.1798989399999999,0.12898725,29.34998522,-13.21762235,-32.1490164,-45.08914604,-2.9759830025,-0.8904490483,1.6984826353,0.5844909242,0.0505207423999999,-0.3171020153,0.0035
10:11:54,-3.276732455,0.3666011799999999,-0.3700066600000001,0.598080865,-0.1799255699999999,0.1315813749999999,29.35281791,-13.206055425,-32.1524227,-44.82769612,-2.99313816375,-0.89396726365,1.70997456215,0.5906002351,0.0522029421999999,-0.31870240215,0.0035
10:11:54,-3.2947553,0.3714728,-0.3734256000000001,0.6037059,-0.1799521999999999,0.1341754999999999,29.3556506,-13.1944885,-32.155829000000004,-44.5662462,-3.010293325,-0.897485479,1.721466489,0.596709546,0.0538851419999999,-0.320302789,0.0035
10:11:54,-3.312778145,0.37634442,-0.37684454,0.609330935,-0.1799788299999999,0.1367696249999999,29.35848329,-13.182921575,-32.1592353,-44.30479628,-3.02744848625,-0.90100369435,1.73295841585,0.6028188569,0.0555673417999999,-0.32190317585,0.0035
10:11:54,-3.33080099,0.38121604,-0.3802634800000001,0.61495597,-0.1800054599999999,0.1393637499999999,29.36131598,-13.17135465,-32.1626416,-44.04334636,-3.0446036475,-0.9045219097,1.7444503427,0.6089281678,0.0572495415999999,-0.3235035627,0.0035
10:11:54,-3.348823835,0.38608766,-0.3836824200000001,0.620581005,-0.1800320899999999,0.1419578749999999,29.36414867,-13.159787725,-32.1660479,-43.78189644,-3.06175880875,-0.90804012505,1.75594226955,0.6150374787,0.0589317413999999,-0.32510394955,0.0035
10:11:54,-3.36684668,0.39095928,-0.3871013600000001,0.62620604,-0.1800587199999999,0.1445519999999999,29.36698136,-13.1482208,-32.169454200000004,-43.52044652,-3.07891397,-0.9115583404,1.7674341964,0.6211467896,0.0606139411999999,-0.3267043363999999,0.0035
10:11:54,-3.384869525,0.3958309,-0.3905203000000001,0.631831075,-0.1800853499999999,0.147146125,29.36981405,-13.136653875,-32.1728605,-43.2589966,-3.09606913125,-0.91507655575,1.77892612325,0.6272561005,0.0622961409999999,-0.32830472325,0.0035
10:11:54,-3.40289237,0.40070252,-0.3939392400000001,0.63745611,-0.1801119799999999,0.14974025,29.37264674,-13.12508695,-32.1762668,-42.99754668,-3.1132242925,-0.9185947711,1.7904180501,0.6333654114,0.0639783407999999,-0.3299051101,0.0035
10:11:54,-3.420915215,0.40557414,-0.39735818,0.643081145,-0.1801386099999999,0.152334375,29.37547943,-13.113520025,-32.1796731,-42.73609676,-3.13037945375,-0.92211298645,1.80190997695,0.6394747223,0.0656605405999999,-0.33150549695,0.0035
10:11:54,-3.43893806,0.41044576,-0.40077712,0.64870618,-0.1801652399999999,0.1549285,29.37831212,-13.1019531,-32.183079400000004,-42.47464684,-3.147534615,-0.9256312018,1.8134019038,0.6455840332,0.0673427403999999,-0.3331058838,0.0035
10:11:54,-3.456960905,0.41531738,-0.4041960600000001,0.654331215,-0.1801918699999999,0.157522625,29.38114481,-13.090386175,-32.186485700000006,-42.21319692,-3.16468977625,-0.92914941715,1.82489383065,0.6516933441,0.0690249402,-0.33470627065,0.0035
10:11:54,-3.47498375,0.420189,-0.4076150000000001,0.65995625,-0.1802185,0.16011675,29.3839775,-13.07881925,-32.189892,-41.951747,-3.1818449375,-0.9326676325,1.8363857575,0.6578026550000001,0.07070714,-0.3363066575,0.0035
10:11:54,-3.493006595,0.42506062,-0.4110339400000001,0.665581285,-0.1802451299999999,0.162710875,29.38681019,-13.067252325,-32.1932983,-41.69029708,-3.19900009875,-0.93618584785,1.84787768435,0.6639119659000001,0.0723893397999999,-0.3379070443499999,0.0035
10:11:54,-3.51102944,0.4299322400000001,-0.4144528800000001,0.67120632,-0.18027176,0.165305,29.38964288,-13.0556854,-32.196704600000004,-41.42884716,-3.21615526,-0.9397040632,1.8593696112,0.6700212768000001,0.0740715395999999,-0.3395074312,0.0035
10:11:54,-3.529052285,0.43480386,-0.41787182,0.676831355,-0.18029839,0.167899125,29.39247557,-13.044118475,-32.200110900000006,-41.16739724,-3.23331042125,-0.94322227855,1.87086153805,0.6761305877000001,0.0757537393999999,-0.34110781805,0.0035
10:11:54,-3.54707513,0.43967548,-0.42129076,0.68245639,-0.18032502,0.17049325,29.39530826,-13.03255155,-32.2035172,-40.90594732,-3.2504655825,-0.9467404939,1.8823534649,0.6822398986000001,0.0774359391999999,-0.3427082049,0.0035
10:11:54,-3.565097975,0.4445471,-0.4247097000000001,0.688081425,-0.18035165,0.173087375,29.39814095,-13.020984625,-32.2069235,-40.6444974,-3.26762074375,-0.95025870925,1.89384539175,0.6883492095000001,0.0791181389999999,-0.34430859175,0.0035
10:11:54,-3.58312082,0.44941872,-0.4281286400000001,0.69370646,-0.18037828,0.1756815,29.40097364,-13.0094177,-32.210329800000004,-40.38304748,-3.284775905,-0.9537769246,1.9053373186,0.6944585204000001,0.0808003387999999,-0.3459089786,0.0035
10:11:54,-3.601143665,0.45429034,-0.4315475800000001,0.699331495,-0.18040491,0.178275625,29.40380633,-12.997850775,-32.213736100000006,-40.12159756,-3.30193106625,-0.95729513995,1.91682924545,0.7005678313000001,0.0824825385999999,-0.34750936545,0.0035
10:11:54,-3.61916651,0.45916196,-0.4349665200000001,0.70495653,-0.18043154,0.18086975,29.40663902,-12.98628385,-32.2171424,-39.86014764,-3.3190862275,-0.9608133553,1.9283211723,0.7066771422000001,0.0841647384,-0.3491097522999999,0.0035
10:11:54,-3.637189355,0.46403358,-0.43838546,0.710581565,-0.18045817,0.183463875,29.40947171,-12.974716925,-32.2205487,-39.59869772,-3.33624138875,-0.96433157065,1.93981309915,0.7127864531000001,0.0858469382,-0.35071013915,0.0035
10:11:54,-3.6552122,0.4689052,-0.4418044000000001,0.7162066,-0.1804848,0.1860579999999999,29.4123044,-12.96315,-32.223955000000004,-39.3372478,-3.35339655,-0.967849786,1.951305026,0.7188957640000001,0.0875291379999999,-0.352310526,0.0035
10:11:54,-3.673235045,0.47377682,-0.4452233400000001,0.721831635,-0.18051143,0.1886521249999999,29.41513709,-12.951583075,-32.227361300000005,-39.07579788,-3.37055171125,-0.97136800135,1.96279695285,0.7250050749000001,0.0892113377999999,-0.35391091285,0.0035
10:11:54,-3.69125789,0.47864844,-0.4486422800000001,0.72745667,-0.18053806,0.1912462499999999,29.41796978,-12.94001615,-32.2307676,-38.81434796,-3.3877068725,-0.9748862167,1.9742888797,0.7311143858000001,0.0908935375999999,-0.3555112997,0.0035
10:11:54,-3.709280735,0.48352006,-0.4520612200000001,0.733081705,-0.18056469,0.1938403749999999,29.42080247,-12.928449225,-32.2341739,-38.55289804,-3.40486203375,-0.97840443205,1.98578080655,0.7372236967000001,0.0925757373999999,-0.35711168655,0.0035
10:11:54,-3.72730358,0.48839168,-0.4554801600000001,0.73870674,-0.18059132,0.1964344999999999,29.42363516,-12.9168823,-32.237580200000004,-38.29144812,-3.422017195,-0.9819226474,1.9972727334,0.7433330076000001,0.0942579371999999,-0.3587120734,0.0035
10:11:54,-3.745326425,0.4932633,-0.4588991,0.744331775,-0.18061795,0.199028625,29.42646785,-12.905315375,-32.240986500000005,-38.0299982,-3.43917235625,-0.98544086275,2.00876466025,0.7494423185,0.0959401369999999,-0.3603124602499999,0.0035
10:11:54,-3.76334927,0.49813492,-0.4623180400000001,0.74995681,-0.18064458,0.20162275,29.42930054,-12.89374845,-32.2443928,-37.76854828,-3.4563275175,-0.9889590781,2.0202565871,0.7555516294000001,0.0976223367999999,-0.3619128471,0.0035
10:11:54,-3.781372115,0.50300654,-0.4657369800000001,0.755581845,-0.18067121,0.204216875,29.43213323,-12.882181525,-32.2477991,-37.50709836,-3.47348267875,-0.99247729345,2.03174851395,0.7616609403,0.0993045365999999,-0.36351323395,0.0035
10:11:54,-3.79939496,0.50787816,-0.4691559200000001,0.76120688,-0.18069784,0.206811,29.43496592,-12.8706146,-32.2512054,-37.24564844,-3.49063784,-0.9959955088,2.0432404408,0.7677702512000001,0.1009867364,-0.3651136208,0.0035
10:11:54,-3.817417805,0.51274978,-0.4725748600000001,0.766831915,-0.18072447,0.209405125,29.43779861,-12.859047675,-32.254611700000005,-36.98419852,-3.50779300125,-0.99951372415,2.05473236765,0.7738795621,0.1026689362,-0.36671400765,0.0035
10:11:54,-3.83544065,0.5176214,-0.4759938000000001,0.77245695,-0.1807511,0.21199925,29.4406313,-12.84748075,-32.258018,-36.7227486,-3.5249481625,-1.0030319395,2.0662242945,0.7799888730000001,0.1043511359999999,-0.3683143945,0.0035
10:11:54,-3.853463495,0.52249302,-0.47941274,0.778081985,-0.18077773,0.214593375,29.44346399,-12.835913825,-32.2614243,-36.46129868,-3.54210332375,-1.00655015485,2.07771622135,0.7860981839000002,0.1060333357999999,-0.36991478135,0.0035
10:11:54,-3.87148634,0.52736464,-0.4828316800000001,0.78370702,-0.18080436,0.2171875,29.44629668,-12.8243469,-32.2648306,-36.19984876,-3.559258485,-1.0100683702,2.0892081482,0.7922074948000001,0.1077155355999999,-0.3715151681999999,0.0035
10:11:54,-3.889509185,0.53223626,-0.4862506200000001,0.789332055,-0.18083099,0.219781625,29.44912937,-12.812779975,-32.268236900000005,-35.93839884,-3.57641364625,-1.01358658555,2.10070007505,0.7983168057000002,0.1093977353999999,-0.37311555505,0.0035
10:11:54,-3.90753203,0.53710788,-0.4896695600000001,0.79495709,-0.18085762,0.22237575,29.45196206,-12.80121305,-32.2716432,-35.67694892,-3.5935688075,-1.0171048009,2.1121920019,0.8044261166000001,0.1110799351999999,-0.3747159419,0.0035
10:11:54,-3.925554875,0.5419795000000001,-0.4930885000000001,0.800582125,-0.18088425,0.224969875,29.45479475,-12.789646125,-32.2750495,-35.415499,-3.61072396875,-1.02062301625,2.12368392875,0.8105354275000002,0.1127621349999999,-0.37631632875,0.0035
10:11:54,-3.94357772,0.54685112,-0.4965074400000001,0.80620716,-0.18091088,0.227564,29.45762744,-12.7780792,-32.2784558,-35.15404908,-3.62787913,-1.0241412316,2.1351758556,0.8166447384000001,0.1144443347999999,-0.3779167156,0.0035
10:11:54,-3.961600565,0.55172274,-0.49992638,0.811832195,-0.18093751,0.230158125,29.46046013,-12.766512275,-32.281862100000005,-34.89259916,-3.64503429125,-1.02765944695,2.14666778245,0.8227540493000002,0.1161265346,-0.37951710245,0.0035
10:11:54,-3.97962341,0.5565943600000001,-0.5033453200000001,0.81745723,-0.18096414,0.23275225,29.46329282,-12.75494535,-32.2852684,-34.63114924,-3.6621894525,-1.0311776623,2.1581597093,0.8288633602000001,0.1178087344,-0.3811174893,0.0035
10:11:54,-3.997646255,0.56146598,-0.5067642600000001,0.823082265,-0.18099077,0.235346375,29.46612551,-12.743378425,-32.2886747,-34.36969932,-3.67934461375,-1.03469587765,2.16965163615,0.8349726711000002,0.1194909341999999,-0.3827178761499999,0.0035
10:11:54,-4.0156691,0.5663376,-0.5101832000000001,0.8287073,-0.1810174,0.2379405,29.4689582,-12.7318115,-32.292081,-34.1082494,-3.696499775,-1.038214093,2.181143563,0.8410819820000001,0.1211731339999999,-0.384318263,0.0035
10:11:54,-4.033691944999999,0.5712092200000001,-0.51360214,0.834332335,-0.18104403,0.240534625,29.47179089,-12.720244575,-32.295487300000005,-33.84679948,-3.71365493625,-1.04173230835,2.19263548985,0.8471912929000002,0.1228553337999999,-0.38591864985,0.0035
10:11:54,-4.05171479,0.57608084,-0.51702108,0.83995737,-0.18107066,0.2431287499999999,29.47462358,-12.70867765,-32.2988936,-33.58534956,-3.7308100975,-1.0452505237,2.2041274167,0.8533006038000001,0.1245375335999999,-0.3875190367,0.0035
10:11:54,-4.069737635,0.58095246,-0.52044002,0.845582405,-0.18109729,0.2457228749999999,29.47745627,-12.697110725,-32.3022999,-33.32389964,-3.74796525875,-1.04876873905,2.21561934355,0.8594099147000002,0.1262197333999999,-0.38911942355,0.0035
10:11:54,-4.08776048,0.5858240800000001,-0.5238589600000001,0.85120744,-0.18112392,0.2483169999999999,29.48028896,-12.6855438,-32.3057062,-33.062449720000004,-3.76512042,-1.0522869544,2.2271112704,0.8655192256,0.1279019331999999,-0.3907198104,0.0035
10:11:54,-4.105783325,0.5906957,-0.5272779000000001,0.856832475,-0.18115055,0.250911125,29.48312165,-12.673976875,-32.309112500000005,-32.8009998,-3.78227558125,-1.05580516975,2.23860319725,0.8716285365000002,0.129584133,-0.39232019725,0.0035
10:11:54,-4.12380617,0.59556732,-0.5306968400000001,0.86245751,-0.18117718,0.25350525,29.48595434,-12.66240995,-32.3125188,-32.53954988,-3.7994307425,-1.0593233851,2.2500951241,0.8777378474,0.1312663328,-0.3939205840999999,0.0035
10:11:54,-4.141829015,0.60043894,-0.53411578,0.868082545,-0.18120381,0.256099375,29.48878703,-12.650843025,-32.3159251,-32.27809996,-3.81658590375,-1.06284160045,2.26158705095,0.8838471583000002,0.1329485326,-0.39552097095,0.0035
10:11:54,-4.15985186,0.60531056,-0.53753472,0.87370758,-0.18123044,0.2586935,29.49161972,-12.6392761,-32.3193314,-32.01665004,-3.833741065,-1.0663598158,2.2730789778,0.8899564692,0.1346307323999999,-0.3971213577999999,0.0035
10:11:54,-4.177874705,0.61018218,-0.54095366,0.879332615,-0.18125707,0.261287625,29.49445241,-12.627709175,-32.322737700000005,-31.75520012,-3.85089622625,-1.06987803115,2.28457090465,0.8960657801000002,0.1363129321999999,-0.39872174465,0.0035
10:11:54,-4.19589755,0.6150538,-0.5443726000000001,0.88495765,-0.1812837,0.26388175,29.4972851,-12.61614225,-32.326144,-31.4937502,-3.8680513875,-1.0733962465,2.2960628315,0.902175091,0.1379951319999999,-0.4003221315,0.0035
10:11:54,-4.213920395,0.6199254200000001,-0.5477915400000001,0.890582685,-0.18131033,0.266475875,29.50011779,-12.604575325,-32.3295503,-31.23230028,-3.88520654875,-1.07691446185,2.30755475835,0.9082844019,0.1396773317999999,-0.40192251835,0.0035
10:11:54,-4.23194324,0.62479704,-0.5512104800000001,0.89620772,-0.18133696,0.26907,29.50295048,-12.5930084,-32.3329566,-30.97085036,-3.90236171,-1.0804326772,2.3190466852,0.9143937128,0.1413595315999999,-0.4035229052,0.0035
10:11:54,-4.2499660850000005,0.62966866,-0.55462942,0.901832755,-0.18136359,0.2716641249999999,29.50578317,-12.581441475,-32.336362900000005,-30.709400440000003,-3.91951687125,-1.08395089255,2.33053861205,0.9205030237,0.1430417313999999,-0.40512329205,0.0035
10:11:54,-4.26798893,0.6345402800000001,-0.55804836,0.90745779,-0.18139022,0.2742582499999999,29.50861586,-12.56987455,-32.3397692,-30.44795052,-3.9366720325,-1.0874691079,2.3420305389,0.9266123346,0.1447239312,-0.4067236789,0.0035
10:11:54,-4.286011775,0.6394119,-0.5614673000000001,0.913082825,-0.18141685,0.2768523749999999,29.51144855,-12.558307625,-32.3431755,-30.1865006,-3.95382719375,-1.09098732325,2.35352246575,0.9327216455,0.146406131,-0.4083240657499999,0.0035
10:11:54,-4.30403462,0.64428352,-0.5648862400000001,0.91870786,-0.18144348,0.2794464999999999,29.51428124,-12.5467407,-32.3465818,-29.92505068,-3.970982355,-1.0945055386,2.3650143926,0.9388309564,0.1480883308,-0.4099244526,0.0035
10:11:54,-4.322057465,0.6491551400000001,-0.5683051800000001,0.924332895,-0.18147011,0.2820406249999999,29.51711393,-12.535173775,-32.349988100000004,-29.66360076,-3.98813751625,-1.09802375395,2.37650631945,0.9449402673,0.1497705305999999,-0.41152483945,0.0035
10:11:54,-4.340080309999999,0.65402676,-0.5717241200000001,0.92995793,-0.18149674,0.2846347499999999,29.51994662,-12.52360685,-32.3533944,-29.40215084,-4.0052926775,-1.1015419693,2.3879982463,0.9510495782,0.1514527303999999,-0.4131252263,0.0035
10:11:54,-4.358103155,0.65889838,-0.57514306,0.935582965,-0.18152337,0.2872288749999999,29.52277931,-12.512039925,-32.3568007,-29.14070092,-4.02244783875,-1.10506018465,2.39949017315,0.9571588891,0.1531349301999999,-0.41472561315,0.0035
10:11:55,-4.376126,0.66377,-0.578562,0.941208,-0.18155,0.289823,29.525612,-12.500473,-32.360207,-28.879251,-4.039603,-1.1085784,2.4109821,0.9632682,0.15481713,-0.416326,0.0035
10:11:55,-4.34476032,0.6552782349999999,-0.58578164,0.934842545,-0.179174275,0.288507295,29.52430375,-12.53295534,-32.332645275000004,-29.167314545,-4.02170971,-1.1114224965,2.387953638,0.9577495724,0.15575284585,-0.4120258127,0.0035
10:11:55,-4.31339464,0.64678647,-0.59300128,0.92847709,-0.17679855,0.28719159,29.5229955,-12.56543768,-32.30508355,-29.45537809,-4.00381642,-1.114266593,2.364925176,0.9522309448,0.1566885617,-0.4077256253999999,0.0035
10:11:55,-4.28202896,0.638294705,-0.60022092,0.922111635,-0.174422825,0.285875885,29.52168725,-12.59792002,-32.277521825,-29.743441635,-3.98592313,-1.1171106895,2.341896714,0.9467123172,0.15762427755,-0.4034254381,0.0035
10:11:55,-4.25066328,0.6298029399999999,-0.60744056,0.91574618,-0.1720470999999999,0.28456018,29.520379,-12.63040236,-32.2499601,-30.03150518,-3.96802984,-1.119954786,2.318868252,0.9411936896,0.1585599934,-0.3991252508,0.0035
10:11:55,-4.2192976,0.621311175,-0.6146602,0.909380725,-0.1696713749999999,0.283244475,29.51907075,-12.6628847,-32.222398375000004,-30.319568725,-3.95013655,-1.1227988825000002,2.29583979,0.935675062,0.15949570925,-0.3948250634999999,0.0035
10:11:55,-4.1879319200000005,0.61281941,-0.6218798400000001,0.90301527,-0.16729565,0.28192877,29.5177625,-12.69536704,-32.19483665,-30.60763227,-3.93224326,-1.125642979,2.272811328,0.9301564344,0.1604314251,-0.3905248762,0.0035
10:11:55,-4.15656624,0.6043276449999999,-0.62909948,0.8966498150000001,-0.164919925,0.280613065,29.51645425,-12.72784938,-32.167274925,-30.895695815,-3.91434997,-1.1284870755,2.249782866,0.9246378068,0.16136714095,-0.3862246888999999,0.0035
10:11:55,-4.125200560000001,0.59583588,-0.63631912,0.89028436,-0.1625442,0.27929736,29.515146,-12.76033172,-32.1397132,-31.18375936,-3.89645668,-1.131331172,2.226754404,0.9191191792,0.1623028568,-0.3819245015999999,0.0035
10:11:55,-4.09383488,0.5873441149999999,-0.64353876,0.883918905,-0.1601684749999999,0.277981655,29.51383775,-12.79281406,-32.112151475000005,-31.471822905,-3.87856339,-1.1341752685000002,2.203725942,0.9136005516,0.16323857265,-0.3776243143,0.0035
10:11:55,-4.0624692,0.57885235,-0.6507584,0.8775534500000001,-0.1577927499999999,0.27666595,29.5125295,-12.8252964,-32.08458975,-31.75988645,-3.8606701,-1.137019365,2.18069748,0.908081924,0.1641742885,-0.3733241269999999,0.0035
10:11:55,-4.03110352,0.570360585,-0.65797804,0.8711879950000001,-0.155417025,0.275350245,29.51122125,-12.85777874,-32.057028025,-32.047949995,-3.84277681,-1.1398634615,2.157669018,0.9025632964,0.16511000435,-0.3690239396999999,0.0035
10:11:55,-3.99973784,0.5618688199999999,-0.66519768,0.86482254,-0.1530413,0.27403454,29.509913,-12.89026108,-32.0294663,-32.33601354,-3.82488352,-1.142707558,2.134640556,0.8970446688,0.1660457202,-0.3647237524,0.0035
10:11:55,-3.96837216,0.553377055,-0.67241732,0.8584570850000001,-0.150665575,0.272718835,29.50860475,-12.92274342,-32.001904575000005,-32.624077085,-3.80699023,-1.1455516545000002,2.111612094,0.8915260412,0.16698143605,-0.3604235650999999,0.0035
10:11:55,-3.93700648,0.54488529,-0.6796369600000001,0.8520916300000001,-0.14828985,0.27140313,29.5072965,-12.95522576,-31.974342850000003,-32.91214063,-3.78909694,-1.148395751,2.088583632,0.8860074136,0.1679171519,-0.3561233778,0.0035
10:11:55,-3.9056408,0.536393525,-0.6868566,0.845726175,-0.145914125,0.270087425,29.50598825,-12.9877081,-31.946781125,-33.200204175,-3.77120365,-1.1512398475,2.06555517,0.880488786,0.16885286775,-0.3518231905,0.0035
10:11:55,-3.87427512,0.52790176,-0.69407624,0.8393607200000001,-0.1435383999999999,0.26877172,29.50468,-13.02019044,-31.919219400000003,-33.48826772,-3.75331036,-1.154083944,2.042526708,0.8749701584,0.1697885836,-0.3475230031999999,0.0035
10:11:55,-3.84290944,0.519409995,-0.70129588,0.8329952650000001,-0.141162675,0.267456015,29.50337175,-13.05267278,-31.891657675,-33.776331265,-3.73541707,-1.1569280405,2.019498246,0.8694515308,0.17072429945,-0.3432228159,0.0035
10:11:55,-3.81154376,0.5109182299999999,-0.70851552,0.82662981,-0.13878695,0.26614031,29.5020635,-13.08515512,-31.864095950000003,-34.06439481,-3.71752378,-1.159772137,1.996469784,0.8639329032,0.1716600153,-0.3389226286,0.0035
10:11:55,-3.78017808,0.502426465,-0.71573516,0.8202643550000001,-0.136411225,0.264824605,29.50075525,-13.11763746,-31.836534225,-34.352458355,-3.69963049,-1.1626162335,1.973441322,0.8584142756,0.17259573115,-0.3346224412999999,0.0035
10:11:55,-3.7488124,0.4939346999999999,-0.7229548,0.8138989000000001,-0.1340354999999999,0.2635089,29.499447,-13.1501198,-31.808972500000003,-34.6405219,-3.6817372,-1.1654603300000002,1.95041286,0.8528956480000001,0.173531447,-0.330322254,0.0035
10:11:55,-3.71744672,0.4854429349999999,-0.73017444,0.807533445,-0.1316597749999999,0.262193195,29.49813875,-13.18260214,-31.781410775,-34.928585445,-3.66384391,-1.1683044265,1.927384398,0.8473770204,0.17446716285,-0.3260220667,0.0035
10:11:55,-3.68608104,0.47695117,-0.7373940800000001,0.80116799,-0.1292840499999999,0.26087749,29.4968305,-13.21508448,-31.753849050000003,-35.21664899,-3.64595062,-1.171148523,1.904355936,0.8418583928000001,0.1754028787,-0.3217218793999999,0.0035
10:11:55,-3.65471536,0.4684594049999999,-0.74461372,0.7948025350000001,-0.126908325,0.259561785,29.49552225,-13.24756682,-31.726287325,-35.504712535,-3.62805733,-1.1739926195,1.881327474,0.8363397652,0.17633859455,-0.3174216921,0.0035
10:11:55,-3.623349680000001,0.4599676399999999,-0.75183336,0.78843708,-0.1245326,0.25824608,29.494214,-13.28004916,-31.698725600000003,-35.79277608,-3.61016404,-1.176836716,1.858299012,0.8308211376,0.1772743104,-0.3131215048,0.0035
10:11:55,-3.591984,0.4514758749999999,-0.759053,0.782071625,-0.122156875,0.256930375,29.49290575,-13.3125315,-31.671163875,-36.080839625,-3.59227075,-1.1796808125,1.83527055,0.82530251,0.17821002625,-0.3088213174999999,0.0035
10:11:55,-3.56061832,0.4429841099999999,-0.76627264,0.7757061700000001,-0.1197811499999999,0.25561467,29.4915975,-13.34501384,-31.643602150000003,-36.36890317,-3.57437746,-1.182524909,1.812242088,0.8197838824,0.1791457421,-0.3045211302,0.0035
10:11:55,-3.52925264,0.434492345,-0.77349228,0.769340715,-0.117405425,0.254298965,29.49028925,-13.37749618,-31.616040425,-36.656966715,-3.55648417,-1.1853690055,1.789213626,0.8142652548,0.18008145795,-0.3002209428999999,0.0035
10:11:55,-3.49788696,0.4260005799999999,-0.78071192,0.76297526,-0.1150296999999999,0.25298326,29.488981,-13.40997852,-31.588478700000003,-36.94503026,-3.53859088,-1.188213102,1.766185164,0.8087466272,0.1810171738,-0.2959207556,0.0035
10:11:55,-3.4665212800000003,0.417508815,-0.78793156,0.7566098050000001,-0.1126539749999999,0.251667555,29.48767275,-13.44246086,-31.560916975,-37.233093805,-3.52069759,-1.1910571985,1.7431567019999998,0.8032279996,0.18195288965,-0.2916205682999999,0.0035
10:11:55,-3.4351556000000003,0.40901705,-0.7951512000000001,0.75024435,-0.11027825,0.25035185,29.4863645,-13.4749432,-31.533355250000003,-37.52115735,-3.5028043,-1.193901295,1.72012824,0.797709372,0.1828886055,-0.2873203809999999,0.0035
10:11:55,-3.4037899200000004,0.4005252849999999,-0.80237084,0.743878895,-0.1079025249999999,0.249036145,29.48505625,-13.50742554,-31.505793525,-37.809220895,-3.48491101,-1.1967453915,1.697099778,0.7921907444,0.18382432135,-0.2830201937,0.0035
10:11:55,-3.37242424,0.3920335199999999,-0.80959048,0.7375134400000001,-0.1055267999999999,0.24772044,29.483748,-13.53990788,-31.478231800000003,-38.09728444,-3.46701772,-1.199589488,1.674071316,0.7866721168,0.1847600372,-0.2787200063999999,0.0035
10:11:55,-3.3410585600000005,0.383541755,-0.81681012,0.731147985,-0.103151075,0.2464047349999999,29.48243975,-13.57239022,-31.450670075,-38.385347985,-3.44912443,-1.2024335845,1.651042854,0.7811534892,0.18569575305,-0.2744198190999999,0.0035
10:11:55,-3.30969288,0.3750499899999999,-0.82402976,0.72478253,-0.1007753499999999,0.2450890299999999,29.4811315,-13.60487256,-31.423108350000003,-38.67341153,-3.4312311399999995,-1.205277681,1.628014392,0.7756348616,0.1866314688999999,-0.2701196318,0.0035
10:11:55,-3.2783272,0.3665582249999999,-0.8312494,0.7184170750000001,-0.0983996249999999,0.2437733249999999,29.47982325,-13.6373549,-31.395546625,-38.961475075,-3.41333785,-1.2081217775000002,1.6049859299999998,0.7701162340000001,0.18756718475,-0.2658194444999999,0.0035
10:11:55,-3.24696152,0.35806646,-0.83846904,0.71205162,-0.0960239,0.2424576199999999,29.478515,-13.66983724,-31.367984900000003,-39.24953862,-3.39544456,-1.210965874,1.581957468,0.7645976064,0.1885029006,-0.2615192571999999,0.0035
10:11:55,-3.21559584,0.349574695,-0.84568868,0.705686165,-0.0936481749999999,0.2411419149999999,29.47720675,-13.70231958,-31.340423175,-39.537602165,-3.37755127,-1.2138099705,1.558929006,0.7590789788000001,0.1894386164499999,-0.2572190699,0.0035
10:11:55,-3.1842301600000003,0.3410829299999999,-0.85290832,0.6993207100000001,-0.0912724499999999,0.2398262099999999,29.4758985,-13.73480192,-31.312861450000003,-39.82566571,-3.35965798,-1.216654067,1.535900544,0.7535603512,0.1903743323,-0.2529188825999999,0.0035
10:11:55,-3.15286448,0.3325911649999999,-0.86012796,0.692955255,-0.088896725,0.2385105049999999,29.47459025,-13.76728426,-31.285299725,-40.113729255,-3.34176469,-1.2194981635,1.512872082,0.7480417236,0.19131004815,-0.2486186952999999,0.0035
10:11:55,-3.1214988000000004,0.3240994,-0.8673476,0.6865898,-0.0865209999999999,0.2371947999999999,29.473282,-13.7997666,-31.257738000000003,-40.4017928,-3.3238714,-1.22234226,1.4898436199999998,0.742523096,0.1922457639999999,-0.2443185079999999,0.0035
10:11:55,-3.09013312,0.3156076349999999,-0.87456724,0.6802243450000001,-0.0841452749999999,0.2358790949999999,29.47197375,-13.83224894,-31.230176275,-40.689856345,-3.30597811,-1.2251863565,1.4668151579999995,0.7370044684,0.19318147985,-0.2400183206999999,0.0035
10:11:55,-3.0587674400000004,0.3071158699999999,-0.8817868799999999,0.67385889,-0.08176955,0.2345633899999999,29.4706655,-13.86473128,-31.202614550000003,-40.97791989,-3.28808482,-1.228030453,1.443786696,0.7314858408,0.1941171957,-0.2357181333999999,0.0035
10:11:55,-3.02740176,0.298624105,-0.88900652,0.667493435,-0.0793938249999999,0.2332476849999999,29.46935725,-13.89721362,-31.175052825,-41.265983435,-3.27019153,-1.2308745495,1.420758234,0.7259672132,0.1950529115499999,-0.2314179460999999,0.0035
10:11:55,-2.99603608,0.29013234,-0.89622616,0.6611279800000001,-0.0770180999999999,0.2319319799999999,29.468049,-13.92969596,-31.147491100000003,-41.55404698,-3.25229824,-1.233718646,1.397729772,0.7204485856,0.1959886274,-0.2271177587999999,0.0035
10:11:55,-2.9646704,0.2816405749999999,-0.9034458,0.654762525,-0.074642375,0.2306162749999999,29.46674075,-13.9621783,-31.119929375,-41.842110525,-3.23440495,-1.2365627425,1.3747013099999998,0.714929958,0.19692434325,-0.2228175714999999,0.0035
10:11:55,-2.93330472,0.2731488099999999,-0.91066544,0.6483970700000001,-0.0722666499999999,0.2293005699999999,29.4654325,-13.99466064,-31.092367650000003,-42.13017407,-3.21651166,-1.239406839,1.351672848,0.7094113304,0.1978600590999999,-0.2185173841999999,0.0035
10:11:55,-2.90193904,0.264657045,-0.91788508,0.642031615,-0.0698909249999999,0.2279848649999999,29.46412425,-14.02714298,-31.064805925,-42.418237615,-3.19861837,-1.2422509355,1.328644386,0.7038927027999999,0.19879577495,-0.2142171968999999,0.0035
10:11:55,-2.8705733600000003,0.2561652799999999,-0.92510472,0.63566616,-0.0675152,0.2266691599999999,29.462816,-14.05962532,-31.037244200000004,-42.70630116,-3.18072508,-1.245095032,1.3056159239999998,0.6983740752,0.1997314908,-0.2099170095999999,0.0035
10:11:55,-2.8392076800000003,0.2476735149999999,-0.93232436,0.6293007050000001,-0.0651394749999999,0.2253534549999999,29.46150775,-14.09210766,-31.009682475,-42.994364705,-3.16283179,-1.2479391285,1.282587462,0.6928554476,0.2006672066499999,-0.2056168222999999,0.0035
10:11:55,-2.807842,0.2391817499999999,-0.939544,0.62293525,-0.06276375,0.2240377499999999,29.4601995,-14.12459,-30.98212075,-43.28242825,-3.1449385,-1.2507832250000002,1.259559,0.6873368200000001,0.2016029225,-0.2013166349999999,0.0035
10:11:55,-2.7764763200000004,0.230689985,-0.94676364,0.616569795,-0.0603880249999999,0.2227220449999999,29.45889125,-14.15707234,-30.954559025,-43.570491795,-3.12704521,-1.2536273215,1.2365305379999998,0.6818181924,0.20253863835,-0.1970164476999999,0.0035
10:11:55,-2.74511064,0.2221982199999999,-0.95398328,0.6102043400000001,-0.0580122999999999,0.2214063399999999,29.457583,-14.18955468,-30.926997300000004,-43.85855534,-3.10915192,-1.256471418,1.213502076,0.6762995648000001,0.2034743541999999,-0.1927162603999999,0.0035
10:11:55,-2.71374496,0.2137064549999999,-0.96120292,0.603838885,-0.0556365749999999,0.2200906349999999,29.45627475,-14.22203702,-30.899435575,-44.146618885,-3.09125863,-1.2593155145,1.1904736139999998,0.6707809372,0.20441007005,-0.1884160730999999,0.0035
10:11:55,-2.68237928,0.2052146899999999,-0.96842256,0.59747343,-0.05326085,0.2187749299999999,29.4549665,-14.25451936,-30.87187385,-44.43468243,-3.07336534,-1.262159611,1.1674451519999998,0.6652623096,0.2053457859,-0.1841158857999999,0.0035
10:11:55,-2.6510136,0.196722925,-0.9756422,0.5911079750000001,-0.050885125,0.2174592249999999,29.45365825,-14.2870017,-30.844312125,-44.722745975,-3.05547205,-1.2650037075,1.14441669,0.659743682,0.2062815017499999,-0.1798156984999999,0.0035
10:11:55,-2.61964792,0.1882311599999999,-0.98286184,0.58474252,-0.0485093999999999,0.2161435199999999,29.45235,-14.31948404,-30.8167504,-45.01080952,-3.03757876,-1.267847804,1.1213882279999998,0.6542250544,0.2072172176,-0.1755155111999999,0.0035
10:11:55,-2.5882822400000003,0.1797393949999999,-0.99008148,0.578377065,-0.0461336749999999,0.2148278149999999,29.45104175,-14.35196638,-30.789188675,-45.298873065,-3.01968547,-1.2706919005,1.0983597659999995,0.6487064268,0.20815293345,-0.1712153238999999,0.0035
10:11:55,-2.5569165600000003,0.1712476299999999,-0.99730112,0.5720116100000001,-0.0437579499999999,0.2135121099999999,29.4497335,-14.38444872,-30.76162695,-45.58693661,-3.00179218,-1.273535997,1.075331304,0.6431877992,0.2090886492999999,-0.1669151365999999,0.0035
10:11:55,-2.52555088,0.1627558649999999,-1.00452076,0.565646155,-0.0413822249999999,0.2121964049999999,29.44842525,-14.41693106,-30.734065225,-45.875000155,-2.98389889,-1.2763800935,1.0523028419999998,0.6376691716,0.21002436515,-0.1626149492999999,0.0035
10:11:55,-2.4941852000000004,0.1542641,-1.0117404,0.5592807000000001,-0.0390065,0.2108806999999999,29.447117,-14.4494134,-30.7065035,-46.1630637,-2.9660056,-1.27922419,1.02927438,0.632150544,0.210960081,-0.1583147619999999,0.0035
10:11:55,-2.46281952,0.1457723349999999,-1.01896004,0.5529152450000001,-0.036630775,0.2095649949999999,29.44580875,-14.48189574,-30.678941775,-46.451127245,-2.94811231,-1.2820682865,1.006245918,0.6266319164,0.2118957968499999,-0.1540145746999999,0.0035
10:11:55,-2.43145384,0.1372805699999999,-1.02617968,0.54654979,-0.0342550499999999,0.2082492899999999,29.4445005,-14.51437808,-30.65138005,-46.73919079,-2.93021902,-1.284912383,0.9832174559999998,0.6211132887999999,0.2128315127,-0.1497143873999999,0.0035
10:11:55,-2.40008816,0.128788805,-1.03339932,0.5401843350000001,-0.0318793249999999,0.2069335849999999,29.44319225,-14.54686042,-30.623818325,-47.027254335,-2.91232573,-1.2877564795,0.960188994,0.6155946612000001,0.21376722855,-0.1454142000999999,0.0035
10:11:55,-2.36872248,0.1202970399999999,-1.04061896,0.5338188800000001,-0.0295035999999999,0.2056178799999999,29.441884,-14.57934276,-30.5962566,-47.31531788,-2.89443244,-1.290600576,0.9371605319999998,0.6100760336,0.2147029443999999,-0.1411140127999999,0.0035
10:11:55,-2.3373568,0.1118052749999999,-1.0478386,0.527453425,-0.0271278749999999,0.2043021749999999,29.44057575,-14.6118251,-30.568694875,-47.603381425,-2.87653915,-1.2934446725000002,0.9141320699999996,0.6045574060000001,0.21563866025,-0.1368138254999999,0.0035
10:11:55,-2.3059911200000003,0.10331351,-1.05505824,0.5210879700000001,-0.02475215,0.2029864699999999,29.4392675,-14.64430744,-30.54113315,-47.89144497,-2.85864586,-1.296288769,0.8911036079999999,0.5990387784,0.2165743761,-0.1325136381999999,0.0035
10:11:55,-2.2746254400000003,0.0948217449999999,-1.06227788,0.5147225150000001,-0.0223764249999999,0.2016707649999999,29.43795925,-14.67678978,-30.513571425,-48.179508515,-2.84075257,-1.2991328655,0.8680751459999998,0.5935201508000001,0.2175100919499999,-0.1282134508999999,0.0035
10:11:55,-2.2432597600000004,0.0863299799999999,-1.06949752,0.50835706,-0.0200006999999999,0.2003550599999999,29.436651,-14.70927212,-30.4860097,-48.46757206,-2.82285928,-1.301976962,0.8450466839999997,0.5880015232,0.2184458078,-0.1239132635999999,0.0035
10:11:55,-2.21189408,0.0778382149999999,-1.0767171599999998,0.5019916050000001,-0.0176249749999999,0.1990393549999999,29.43534275,-14.74175446,-30.458447975,-48.755635605,-2.80496599,-1.3048210585,0.8220182219999999,0.5824828956,0.21938152365,-0.1196130762999999,0.0035
10:11:55,-2.1805284,0.0693464499999999,-1.0839368,0.49562615,-0.0152492499999999,0.1977236499999999,29.4340345,-14.7742368,-30.43088625,-49.04369915,-2.7870727,-1.307665155,0.7989897599999998,0.576964268,0.2203172394999999,-0.1153128889999999,0.0035
10:11:55,-2.14916272,0.060854685,-1.09115644,0.4892606950000001,-0.0128735249999999,0.1964079449999999,29.43272625,-14.806719139999998,-30.403324525,-49.331762695,-2.76917941,-1.3105092515,0.7759612979999999,0.5714456404,0.22125295535,-0.1110127016999999,0.0035
10:11:55,-2.11779704,0.0523629199999999,-1.09837608,0.48289524,-0.0104978,0.1950922399999999,29.431418,-14.83920148,-30.3757628,-49.61982624,-2.75128612,-1.313353348,0.7529328359999998,0.5659270128,0.2221886712,-0.1067125143999999,0.0035
10:11:55,-2.08643136,0.0438711549999999,-1.10559572,0.476529785,-0.0081220749999999,0.1937765349999999,29.43010975,-14.87168382,-30.348201075,-49.907889785,-2.73339283,-1.3161974445,0.7299043739999997,0.5604083852,0.2231243870499999,-0.1024123270999999,0.0035
10:11:55,-2.05506568,0.03537939,-1.11281536,0.4701643300000001,-0.0057463499999999,0.1924608299999999,29.4288015,-14.90416616,-30.32063935,-50.19595333,-2.71549954,-1.319041541,0.7068759119999999,0.5548897576,0.2240601029,-0.0981121397999999,0.0035
10:11:55,-2.0237000000000003,0.0268876249999999,-1.120035,0.463798875,-0.0033706249999999,0.1911451249999999,29.42749325,-14.9366485,-30.293077625,-50.484016875,-2.69760625,-1.3218856375,0.6838474499999998,0.5493711299999999,0.22499581875,-0.0938119524999999,0.0035
10:11:55,-1.9923343200000003,0.0183958599999999,-1.12725464,0.45743342,-0.0009948999999999,0.1898294199999999,29.426185,-14.969130839999998,-30.2655159,-50.77208042,-2.67971296,-1.324729734,0.6608189879999997,0.5438525024,0.2259315345999999,-0.0895117651999999,0.0035
10:11:55,-1.9609686400000004,0.009904095,-1.13447428,0.451067965,0.001380825,0.1885137149999999,29.42487675,-15.00161318,-30.237954175,-51.060143965,-2.66181967,-1.3275738305,0.6377905259999999,0.5383338748,0.22686725045,-0.0852115778999999,0.0035
10:11:55,-1.92960296,0.0014123299999999,-1.14169392,0.44470251,0.0037565499999999,0.1871980099999999,29.4235685,-15.03409552,-30.21039245,-51.34820751,-2.64392638,-1.330417927,0.6147620639999998,0.5328152472000001,0.2278029663,-0.0809113905999999,0.0035
10:11:55,-1.89823728,-0.007079435,-1.14891356,0.4383370550000001,0.006132275,0.1858823049999999,29.42226025,-15.06657786,-30.182830725,-51.636271055,-2.62603309,-1.3332620235,0.5917336019999997,0.5272966196,0.2287386821499999,-0.0766112032999999,0.0035
10:11:55,-1.8668716,-0.0155712,-1.1561332,0.4319716,0.008508,0.1845665999999999,29.420952,-15.0990602,-30.155269,-51.9243346,-2.6081398,-1.3361061200000002,0.5687051399999998,0.5217779920000001,0.229674398,-0.0723110159999999,0.0035
10:11:55,-1.83550592,-0.024062965,-1.16335284,0.425606145,0.010883725,0.1832508949999999,29.41964375,-15.13154254,-30.127707275,-52.212398145,-2.59024651,-1.3389502165,0.5456766779999997,0.5162593644,0.23061011385,-0.0680108286999999,0.0035
10:11:55,-1.80414024,-0.03255473,-1.17057248,0.4192406900000001,0.01325945,0.1819351899999999,29.4183355,-15.16402488,-30.10014555,-52.50046169,-2.57235322,-1.341794313,0.5226482159999997,0.5107407368,0.2315458296999999,-0.0637106413999999,0.0035
10:11:55,-1.7727745600000002,-0.041046495,-1.17779212,0.412875235,0.015635175,0.1806194849999999,29.41702725,-15.19650722,-30.072583825,-52.788525235,-2.55445993,-1.3446384095,0.4996197539999998,0.5052221092,0.23248154555,-0.0594104540999999,0.0035
10:11:55,-1.7414088800000005,-0.04953826,-1.18501176,0.40650978,0.0180108999999999,0.1793037799999999,29.415719,-15.22898956,-30.0450221,-53.07658878,-2.53656664,-1.347482506,0.4765912919999997,0.4997034816,0.2334172614,-0.0551102667999999,0.0035
10:11:55,-1.7100432000000003,-0.0580300249999999,-1.1922313999999998,0.4001443250000001,0.020386625,0.1779880749999999,29.41441075,-15.2614719,-30.017460375,-53.364652325,-2.5186733500000003,-1.3503266025,0.4535628299999998,0.494184854,0.2343529772499999,-0.0508100794999999,0.0035
10:11:55,-1.6786775200000004,-0.06652179,-1.19945104,0.39377887,0.02276235,0.1766723699999999,29.4131025,-15.29395424,-29.98989865,-53.65271587,-2.5007800600000003,-1.353170699,0.4305343679999998,0.4886662264,0.2352886931,-0.0465098921999999,0.0035
10:11:55,-1.64731184,-0.075013555,-1.20667068,0.387413415,0.025138075,0.1753566649999999,29.41179425,-15.32643658,-29.962336925,-53.940779415,-2.48288677,-1.3560147955,0.4075059059999999,0.4831475988,0.23622440895,-0.0422097048999999,0.0035
10:11:55,-1.61594616,-0.08350532,-1.21389032,0.3810479600000001,0.0275138,0.1740409599999999,29.410486,-15.35891892,-29.9347752,-54.22884296,-2.46499348,-1.358858892,0.3844774439999998,0.4776289712,0.2371601247999999,-0.0379095175999999,0.0035
10:11:55,-1.58458048,-0.091997085,-1.22110996,0.374682505,0.029889525,0.1727252549999999,29.40917775,-15.39140126,-29.907213475,-54.516906505,-2.44710019,-1.3617029885,0.3614489819999997,0.4721103436,0.23809584065,-0.0336093302999999,0.0035
10:11:55,-1.5532148,-0.10048885,-1.2283296,0.36831705,0.0322652499999999,0.1714095499999999,29.4078695,-15.4238836,-29.87965175,-54.80497005,-2.4292069,-1.364547085,0.3384205199999996,0.466591716,0.2390315565,-0.0293091429999999,0.0035
10:11:55,-1.5218491200000002,-0.108980615,-1.23554924,0.361951595,0.034640975,0.1700938449999999,29.40656125,-15.45636594,-29.852090025000003,-55.093033595,-2.41131361,-1.3673911815,0.3153920579999996,0.4610730884,0.2399672723499999,-0.0250089556999999,0.0035
10:11:55,-1.4904834400000002,-0.11747238,-1.24276888,0.3555861400000001,0.0370167,0.1687781399999999,29.405253,-15.48884828,-29.8245283,-55.38109714,-2.39342032,-1.370235278,0.2923635959999999,0.4555544608,0.2409029882,-0.0207087683999999,0.0035
10:11:55,-1.4591177600000005,-0.125964145,-1.24998852,0.349220685,0.039392425,0.1674624349999999,29.40394475,-15.52133062,-29.796966575000003,-55.669160685,-2.37552703,-1.3730793745,0.2693351339999998,0.4500358331999999,0.24183870405,-0.0164085810999999,0.0035
10:11:55,-1.4277520800000003,-0.13445591,-1.25720816,0.34285523,0.04176815,0.1661467299999999,29.4026365,-15.553812959999998,-29.76940485,-55.95722423,-2.35763374,-1.375923471,0.2463066719999997,0.4445172055999999,0.2427744198999999,-0.0121083937999999,0.0035
10:11:55,-1.3963864000000004,-0.142947675,-1.2644278,0.3364897750000001,0.044143875,0.1648310249999999,29.40132825,-15.5862953,-29.741843125000003,-56.245287775,-2.33974045,-1.3787675675000002,0.2232782099999997,0.438998578,0.24371013575,-0.0078082064999999,0.0035
10:11:55,-1.3650207200000004,-0.1514394400000001,-1.27164744,0.33012432,0.0465195999999999,0.16351532,29.40002,-15.61877764,-29.7142814,-56.53335132000001,-2.32184716,-1.381611664,0.2002497479999996,0.4334799504,0.2446458516,-0.0035080191999999,0.0035
10:11:55,-1.33365504,-0.159931205,-1.27886708,0.323758865,0.048895325,0.162199615,29.39871175,-15.65125998,-29.686719675,-56.82141486500001,-2.30395387,-1.3844557605,0.1772212859999995,0.4279613228,0.2455815674499999,0.0007921681,0.0035
10:11:55,-1.30228936,-0.16842297,-1.28608672,0.3173934100000001,0.05127105,0.16088391,29.3974035,-15.68374232,-29.65915795,-57.10947841000001,-2.28606058,-1.387299857,0.1541928239999999,0.4224426952,0.2465172833,0.0050923554,0.0035
10:11:55,-1.27092368,-0.176914735,-1.29330636,0.311027955,0.053646775,0.159568205,29.39609525,-15.71622466,-29.631596225000003,-57.39754195500001,-2.26816729,-1.3901439535,0.1311643619999998,0.4169240676,0.24745299915,0.0093925427,0.0035
10:11:55,-1.2395580000000002,-0.1854065,-1.300526,0.3046625,0.0560225,0.1582525,29.394787,-15.748707,-29.6040345,-57.68560550000001,-2.250274,-1.39298805,0.1081358999999997,0.41140544,0.2483887149999999,0.01369273,0.0035
10:11:55,-1.2081923200000002,-0.193898265,-1.3077456399999998,0.2982970450000001,0.058398225,0.156936795,29.39347875,-15.78118934,-29.576472775,-57.97366904500001,-2.23238071,-1.3958321465,0.0851074379999996,0.4058868124,0.24932443085,0.0179929173,0.0035
10:11:55,-1.1768266400000005,-0.20239003,-1.31496528,0.29193159,0.06077395,0.15562109,29.3921705,-15.81367168,-29.54891105,-58.26173259000001,-2.21448742,-1.3986762430000002,0.0620789759999995,0.4003681848,0.2502601467,0.0222931046,0.0035
10:11:55,-1.1454609600000003,-0.210881795,-1.32218492,0.285566135,0.063149675,0.154305385,29.39086225,-15.84615402,-29.521349325000003,-58.54979613500001,-2.1965941300000003,-1.4015203395,0.0390505139999999,0.3948495572,0.25119586255,0.0265932919,0.0035
10:11:55,-1.1140952800000004,-0.21937356,-1.32940456,0.2792006800000001,0.0655254,0.15298968,29.389554,-15.87863636,-29.4937876,-58.83785968000001,-2.1787008400000003,-1.404364436,0.0160220519999998,0.3893309296,0.2521315784,0.0308934792,0.0035
10:11:55,-1.0827296000000004,-0.227865325,-1.3366242,0.272835225,0.067901125,0.151673975,29.38824575,-15.9111187,-29.466225875,-59.12592322500001,-2.1608075500000004,-1.4072085325,-0.0070064100000002,0.383812302,0.25306729425,0.0351936665,0.0035
10:11:55,-1.05136392,-0.23635709,-1.34384384,0.26646977,0.07027685,0.15035827,29.3869375,-15.94360104,-29.43866415,-59.41398677000001,-2.14291426,-1.410052629,-0.0300348720000003,0.3782936744,0.2540030101,0.0394938538,0.0035
10:11:55,-1.01999824,-0.2448488550000001,-1.35106348,0.2601043150000001,0.072652575,0.149042565,29.38562925,-15.97608338,-29.411102425000003,-59.70205031500001,-2.12502097,-1.4128967255,-0.0530633340000004,0.3727750467999999,0.25493872595,0.0437940411,0.0035
10:11:55,-0.98863256,-0.25334062,-1.3582831199999998,0.25373886,0.0750282999999999,0.14772686,29.384321,-16.00856572,-29.3835407,-59.99011386000001,-2.10712768,-1.415740822,-0.0760917960000004,0.3672564191999999,0.2558744418,0.0480942284,0.0035
10:11:55,-0.9572668800000002,-0.261832385,-1.36550276,0.247373405,0.0774040249999999,0.146411155,29.38301275,-16.041048059999998,-29.355978975,-60.27817740500001,-2.08923439,-1.4185849185,-0.0991202580000001,0.3617377915999999,0.25681015765,0.0523944157,0.0035
10:11:55,-0.9259012000000002,-0.27032415,-1.3727224,0.24100795,0.0797797499999999,0.14509545,29.3817045,-16.0735304,-29.32841725,-60.56624095000001,-2.0713411,-1.421429015,-0.1221487200000002,0.356219164,0.2577458735,0.056694603,0.0035
10:11:55,-0.8945355200000003,-0.278815915,-1.37994204,0.234642495,0.082155475,0.143779745,29.38039625,-16.10601274,-29.300855525,-60.85430449500001,-2.05344781,-1.4242731115,-0.1451771820000003,0.3507005364,0.25868158935,0.0609947903,0.0035
10:11:55,-0.8631698400000003,-0.28730768,-1.38716168,0.22827704,0.0845312,0.14246404,29.379088,-16.13849508,-29.2732938,-61.14236804000001,-2.0355545200000003,-1.427117208,-0.1682056440000003,0.3451819088,0.2596173052,0.0652949776,0.0035
10:11:55,-0.8318041600000003,-0.295799445,-1.39438132,0.221911585,0.086906925,0.1411483349999999,29.37777975,-16.17097742,-29.245732075,-61.43043158500001,-2.0176612300000003,-1.4299613045,-0.1912341060000004,0.3396632812,0.26055302105,0.0695951649,0.0035
10:11:55,-0.8004384800000004,-0.30429121,-1.40160096,0.21554613,0.08928265,0.1398326299999999,29.3764715,-16.20345976,-29.21817035,-61.71849513000001,-1.99976794,-1.432805401,-0.2142625680000005,0.3341446536,0.2614887369,0.0738953522,0.0035
10:11:55,-0.7690728,-0.3127829750000001,-1.4088206,0.209180675,0.091658375,0.1385169249999999,29.37516325,-16.2359421,-29.190608625,-62.00655867500001,-1.98187465,-1.4356494975,-0.2372910300000001,0.328626026,0.26242445275,0.0781955395,0.0035
10:11:55,-0.73770712,-0.32127474,-1.41604024,0.20281522,0.0940341,0.1372012199999999,29.373855,-16.26842444,-29.1630469,-62.29462222000001,-1.96398136,-1.438493594,-0.2603194920000002,0.3231073984,0.2633601686,0.0824957268,0.0035
10:11:55,-0.7063414400000001,-0.329766505,-1.4232598799999998,0.1964497650000001,0.096409825,0.1358855149999999,29.37254675,-16.30090678,-29.135485175,-62.58268576500001,-1.94608807,-1.4413376905000002,-0.2833479540000003,0.3175887708,0.26429588445,0.0867959141000001,0.0035
10:11:55,-0.6749757600000001,-0.3382582700000001,-1.43047952,0.19008431,0.09878555,0.1345698099999999,29.3712385,-16.33338912,-29.10792345,-62.87074931000001,-1.92819478,-1.444181787,-0.3063764160000004,0.3120701432,0.2652316003,0.0910961014,0.0035
10:11:55,-0.6436100800000002,-0.3467500350000001,-1.43769916,0.183718855,0.101161275,0.1332541049999999,29.36993025,-16.36587146,-29.080361725,-63.15881285500001,-1.91030149,-1.4470258835,-0.3294048780000005,0.3065515156,0.26616731615,0.0953962887,0.0035
10:11:55,-0.6122444000000002,-0.3552417999999999,-1.4449188,0.1773534000000001,0.1035369999999999,0.1319383999999999,29.368622,-16.3983538,-29.0528,-63.44687640000001,-1.8924082,-1.44986998,-0.3524333400000001,0.301032888,0.267103032,0.099696476,0.0035
10:11:55,-0.5808787200000003,-0.363733565,-1.45213844,0.170987945,0.1059127249999999,0.1306226949999999,29.36731375,-16.43083614,-29.025238275,-63.73493994500001,-1.8745149100000005,-1.4527140765,-0.3754618020000002,0.2955142603999999,0.26803874785,0.1039966633,0.0035
10:11:55,-0.5495130400000003,-0.37222533,-1.45935808,0.16462249,0.1082884499999999,0.1293069899999999,29.3660055,-16.463318479999998,-28.99767655,-64.02300349000001,-1.8566216200000003,-1.455558173,-0.3984902640000003,0.2899956327999999,0.2689744637,0.1082968506,0.0035
10:11:55,-0.5181473600000004,-0.380717095,-1.46657772,0.1582570350000001,0.110664175,0.1279912849999999,29.36469725,-16.49580082,-28.970114825,-64.31106703500001,-1.8387283300000004,-1.4584022695,-0.4215187260000004,0.2844770051999999,0.26991017955,0.1125970379,0.0035
10:11:55,-0.48678168,-0.3892088600000001,-1.4737973599999998,0.15189158,0.1130399,0.1266755799999999,29.363389,-16.52828316,-28.9425531,-64.59913058000001,-1.82083504,-1.461246366,-0.4445471880000005,0.2789583776,0.2708458954,0.1168972252,0.0035
10:11:55,-0.455416,-0.3977006250000001,-1.481017,0.145526125,0.115415625,0.1253598749999999,29.36208075,-16.5607655,-28.914991375,-64.88719412500001,-1.80294175,-1.4640904625,-0.4675756500000005,0.27343975,0.27178161125,0.1211974125,0.0035
10:11:55,-0.4240503200000001,-0.4061923899999999,-1.48823664,0.1391606700000001,0.11779135,0.1240441699999999,29.3607725,-16.59324784,-28.88742965,-65.17525767000001,-1.78504846,-1.466934559,-0.4906041120000002,0.2679211224,0.2727173271,0.1254975998,0.0035
10:11:55,-0.3926846400000001,-0.414684155,-1.49545628,0.132795215,0.120167075,0.1227284649999999,29.35946425,-16.625730179999998,-28.859867925,-65.46332121500001,-1.76715517,-1.4697786555,-0.5136325740000003,0.2624024948,0.27365304295,0.1297977871,0.0035
10:11:55,-0.3613189600000002,-0.42317592,-1.50267592,0.12642976,0.1225428,0.1214127599999999,29.358156,-16.65821252,-28.8323062,-65.75138476000001,-1.7492618800000002,-1.472622752,-0.5366610360000004,0.2568838672,0.2745887588,0.1340979744,0.0035
10:11:55,-0.3299532799999998,-0.4316676850000001,-1.50989556,0.1200643050000001,0.124918525,0.1200970549999999,29.35684775,-16.69069486,-28.804744475,-66.03944830500001,-1.7313685900000002,-1.4754668485,-0.5596894980000005,0.2513652396,0.27552447465,0.1383981617,0.0035
10:11:55,-0.2985876000000003,-0.4401594500000001,-1.5171152,0.11369885,0.12729425,0.1187813499999999,29.3555395,-16.7231772,-28.77718275,-66.32751185000001,-1.7134753000000005,-1.478310945,-0.5827179600000005,0.245846612,0.2764601905,0.142698349,0.0035
10:11:55,-0.2672219199999999,-0.4486512149999999,-1.52433484,0.107333395,0.129669975,0.1174656449999999,29.35423125,-16.75565954,-28.749621025,-66.61557539500001,-1.6955820100000003,-1.4811550415,-0.6057464220000002,0.2403279844,0.27739590635,0.1469985363,0.0035
10:11:55,-0.2358562400000003,-0.45714298,-1.53155448,0.10096794,0.1320457,0.1161499399999999,29.352923,-16.788141879999998,-28.7220593,-66.90363894000001,-1.6776887200000004,-1.4839991380000002,-0.6287748840000003,0.2348093568,0.2783316222,0.1512987236,0.0035
10:11:55,-0.20449056,-0.465634745,-1.5387741199999998,0.094602485,0.1344214249999999,0.1148342349999999,29.35161475,-16.82062422,-28.694497575,-67.19170248500001,-1.65979543,-1.4868432345,-0.6518033460000003,0.2292907292,0.27926733805,0.1555989109,0.0035
10:11:55,-0.1731248800000004,-0.47412651,-1.54599376,0.08823703,0.13679715,0.1135185299999999,29.3503065,-16.85310656,-28.66693585,-67.47976603000001,-1.64190214,-1.489687331,-0.6748318080000004,0.2237721016,0.2802030539,0.1598990982,0.0035
10:11:55,-0.1417592,-0.4826182750000001,-1.5532134,0.081871575,0.139172875,0.1122028249999999,29.34899825,-16.8855889,-28.639374125,-67.76782957500001,-1.62400885,-1.4925314275,-0.6978602700000005,0.218253474,0.2811387697499999,0.1641992855,0.0035
10:11:55,-0.1103935200000005,-0.4911100400000001,-1.56043304,0.07550612,0.1415486,0.1108871199999999,29.34769,-16.91807124,-28.6118124,-68.05589312000001,-1.60611556,-1.495375524,-0.7208887320000006,0.2127348463999999,0.2820744856,0.1684994728,0.0035
10:11:55,-0.0790278400000001,-0.4996018049999999,-1.56765268,0.069140665,0.143924325,0.1095714149999999,29.34638175,-16.950553579999998,-28.584250675,-68.34395666500001,-1.5882222700000002,-1.4982196205,-0.7439171940000002,0.2072162187999999,0.28301020145,0.1727996601,0.0035
10:11:55,-0.0476621599999997,-0.50809357,-1.57487232,0.06277521,0.14630005,0.1082557099999999,29.3450735,-16.98303592,-28.55668895,-68.63202021000001,-1.5703289800000002,-1.501063717,-0.7669456560000003,0.2016975911999999,0.2839459172999999,0.1770998474,0.0035
10:11:55,-0.0162964800000002,-0.516585335,-1.58209196,0.056409755,0.148675775,0.1069400049999999,29.34376525,-17.01551826,-28.529127225,-68.92008375500001,-1.5524356900000005,-1.5039078135,-0.7899741180000004,0.1961789635999999,0.28488163315,0.1814000347,0.0035
10:11:55,0.0150692000000001,-0.5250771000000001,-1.5893116,0.0500443,0.1510515,0.1056242999999999,29.342457,-17.048000599999998,-28.5015655,-69.20814730000001,-1.5345424000000003,-1.50675191,-0.8130025800000005,0.1906603359999999,0.285817349,0.185700222,0.0035
10:11:55,0.0464348799999996,-0.5335688650000001,-1.59653124,0.043678845,0.153427225,0.1043085949999999,29.34114875,-17.08048294,-28.474003775,-69.49621084500001,-1.5166491100000004,-1.5095960065,-0.8360310420000006,0.1851417084,0.2867530648499999,0.1900004093,0.0035
10:11:55,0.07780056,-0.5420606299999999,-1.60375088,0.0373133900000001,0.15580295,0.1029928899999999,29.3398405,-17.112965279999997,-28.44644205,-69.78427439000001,-1.4987558200000004,-1.512440103,-0.8590595040000002,0.1796230808,0.2876887807,0.1943005966000001,0.0035
10:11:55,0.1091662399999995,-0.550552395,-1.61097052,0.030947935,0.158178675,0.1016771849999999,29.33853225,-17.14544762,-28.418880325,-70.07233793500001,-1.48086253,-1.5152841995,-0.8820879660000003,0.1741044532,0.28862449655,0.1986007839,0.0035
10:11:55,0.1405319199999999,-0.55904416,-1.61819016,0.02458248,0.1605543999999999,0.1003614799999999,29.337224,-17.17792996,-28.3913186,-70.36040148000001,-1.46296924,-1.518128296,-0.9051164280000004,0.1685858256,0.2895602123999999,0.2029009712,0.0035
10:11:55,0.1718975999999994,-0.567535925,-1.6254098,0.0182170250000001,0.1629301249999999,0.0990457749999999,29.33591575,-17.210412299999998,-28.363756875,-70.64846502500001,-1.44507595,-1.5209723925,-0.9281448900000004,0.163067198,0.29049592825,0.2072011585000001,0.0035
10:11:55,0.2032632799999998,-0.5760276900000001,-1.63262944,0.01185157,0.16530585,0.0977300699999999,29.3346075,-17.24289464,-28.33619515,-70.93652857000001,-1.4271826600000002,-1.523816489,-0.9511733520000004,0.1575485704,0.2914316441,0.2115013458,0.0035
10:11:55,0.2346289600000002,-0.5845194550000001,-1.6398490799999998,0.005486115,0.167681575,0.0964143649999999,29.33329925,-17.275376979999997,-28.308633425,-71.22459211500001,-1.4092893700000002,-1.5266605855000002,-0.9742018140000006,0.1520299428,0.2923673599499999,0.2158015331,0.0035
10:11:55,0.2659946399999997,-0.59301122,-1.6470687199999998,-0.0008793399999998,0.1700573,0.0950986599999999,29.331991,-17.30785932,-28.2810717,-71.51265566000001,-1.3913960800000005,-1.529504682,-0.9972302760000002,0.1465113152,0.2933030758,0.2201017204000001,0.0035
10:11:55,0.2973603200000001,-0.601502985,-1.65428836,-0.0072447949999999,0.172433025,0.0937829549999999,29.33068275,-17.34034166,-28.253509975,-71.80071920500001,-1.3735027900000003,-1.5323487785,-1.0202587380000003,0.1409926876,0.29423879165,0.2244019077,0.0035
10:11:55,0.3287259999999996,-0.60999475,-1.661508,-0.0136102499999999,0.17480875,0.0924672499999999,29.3293745,-17.372824,-28.22594825,-72.08878275000001,-1.3556095000000004,-1.535192875,-1.0432872000000004,0.1354740599999999,0.2951745074999999,0.228702095,0.0035
10:11:55,0.36009168,-0.6184865150000001,-1.66872764,-0.0199757049999999,0.177184475,0.0911515449999999,29.32806625,-17.40530634,-28.198386525,-72.376846295,-1.3377162100000004,-1.5380369715,-1.0663156620000005,0.1299554323999999,0.29611022335,0.2330022823,0.0035
10:11:55,0.3914573599999995,-0.6269782800000001,-1.67594728,-0.0263411599999999,0.1795602,0.0898358399999999,29.326758,-17.437788679999997,-28.1708248,-72.66490984,-1.3198229200000005,-1.540881068,-1.0893441240000006,0.1244368047999999,0.2970459392,0.2373024696,0.0035
10:11:55,0.4228230399999999,-0.6354700450000001,-1.68316692,-0.0327066149999999,0.181935925,0.0885201349999999,29.32544975,-17.47027102,-28.143263075,-72.952973385,-1.30192963,-1.5437251645,-1.1123725860000009,0.1189181771999999,0.2979816550499999,0.2416026569,0.0035
10:11:55,0.4541887199999994,-0.64396181,-1.69038656,-0.0390720699999999,0.18431165,0.0872044299999999,29.3241415,-17.50275336,-28.11570135,-73.24103693,-1.28403634,-1.546569261,-1.1354010480000003,0.1133995495999999,0.2989173709,0.2459028442,0.0035
10:11:55,0.4855543999999998,-0.652453575,-1.6976061999999998,-0.0454375249999999,0.186687375,0.0858887249999999,29.32283325,-17.5352357,-28.088139625,-73.529100475,-1.2661430500000002,-1.5494133575,-1.1584295100000004,0.1078809219999999,0.29985308675,0.2502030315,0.0035
10:11:55,0.5169200800000002,-0.66094534,-1.70482584,-0.0518029799999999,0.1890630999999999,0.0845730199999999,29.321525,-17.56771804,-28.0605779,-73.81716402,-1.2482497600000002,-1.552257454,-1.1814579720000005,0.1023622944,0.3007888025999999,0.2545032188,0.0035
10:11:55,0.5482857599999997,-0.6694371050000001,-1.71204548,-0.0581684349999999,0.1914388249999999,0.0832573149999999,29.32021675,-17.60020038,-28.033016175,-74.105227565,-1.2303564700000005,-1.5551015505,-1.2044864340000003,0.0968436668,0.30172451845,0.2588034061000001,0.0035
10:11:55,0.5796514400000001,-0.6779288700000001,-1.71926512,-0.0645338899999998,0.19381455,0.0819416099999999,29.3189085,-17.63268272,-28.00545445,-74.39329111,-1.2124631800000003,-1.557945647,-1.2275148960000006,0.0913250392,0.3026602343,0.2631035934,0.0035
10:11:55,0.6110171199999996,-0.686420635,-1.72648476,-0.0708993449999999,0.196190275,0.0806259049999999,29.31760025,-17.66516506,-27.977892725,-74.681354655,-1.1945698900000004,-1.5607897435,-1.2505433580000005,0.0858064116,0.3035959501499999,0.2674037807,0.0035
10:11:55,0.6423828,-0.6949124,-1.7337044,-0.0772648,0.198566,0.0793101999999999,29.316292,-17.6976474,-27.950331,-74.9694182,-1.1766766000000004,-1.56363384,-1.2735718200000004,0.080287784,0.304531666,0.2717039680000001,0.0035
10:11:55,0.6737484799999995,-0.703404165,-1.74092404,-0.0836302549999998,0.200941725,0.0779944949999999,29.31498375,-17.73012974,-27.922769275,-75.257481745,-1.1587833100000005,-1.5664779365,-1.2966002820000004,0.0747691564,0.30546738185,0.2760041553,0.0035
10:11:55,0.7051141599999999,-0.7118959300000001,-1.74814368,-0.0899957099999999,0.20331745,0.0766787899999999,29.3136755,-17.76261208,-27.89520755,-75.54554529,-1.1408900200000005,-1.569322033,-1.3196287440000003,0.0692505288,0.3064030976999999,0.2803043426,0.0035
10:11:55,0.7364798399999994,-0.7203876950000001,-1.7553633199999998,-0.096361165,0.205693175,0.0753630849999999,29.31236725,-17.795094419999998,-27.867645825,-75.833608835,-1.12299673,-1.5721661295,-1.3426572060000006,0.0637319012,0.30733881355,0.2846045299,0.0035
10:11:55,0.7678455199999998,-0.7288794600000001,-1.7625829599999998,-0.1027266199999998,0.2080689,0.0740473799999999,29.311059,-17.82757676,-27.8400841,-76.12167238,-1.1051034400000002,-1.575010226,-1.365685668000001,0.0582132735999999,0.3082745294,0.2889047172,0.0035
10:11:55,0.7992112000000002,-0.737371225,-1.7698026,-0.1090920749999999,0.210444625,0.0727316749999999,29.30975075,-17.8600591,-27.812522375,-76.409735925,-1.0872101500000002,-1.5778543225,-1.3887141300000003,0.0526946459999999,0.3092102452499999,0.2932049045,0.0035
10:11:55,0.8305768799999997,-0.74586299,-1.77702224,-0.11545753,0.21282035,0.0714159699999999,29.3084425,-17.89254144,-27.78496065,-76.69779947,-1.0693168600000005,-1.580698419,-1.4117425920000004,0.0471760183999999,0.3101459611,0.2975050918,0.0035
10:11:55,0.8619425600000001,-0.754354755,-1.78424188,-0.1218229849999998,0.215196075,0.0701002649999999,29.30713425,-17.92502378,-27.757398925,-76.985863015,-1.0514235700000003,-1.5835425155,-1.4347710540000005,0.0416573907999999,0.31108167695,0.3018052791000001,0.0035
10:11:55,0.8933082399999996,-0.7628465200000001,-1.79146152,-0.1281884399999999,0.2175717999999999,0.0687845599999999,29.305826,-17.957506119999998,-27.7298372,-77.27392656,-1.0335302800000004,-1.586386612,-1.4577995160000006,0.0361387631999999,0.3120173927999999,0.3061054664,0.0035
10:11:55,0.92467392,-0.7713382850000001,-1.79868116,-0.134553895,0.219947525,0.0674688549999999,29.30451775,-17.98998846,-27.702275475,-77.561990105,-1.0156369900000004,-1.5892307085,-1.4808279780000009,0.0306201355999999,0.31295310865,0.3104056537,0.0035
10:11:55,0.9560395999999995,-0.7798300499999999,-1.8059008,-0.1409193499999999,0.22232325,0.0661531499999999,29.3032095,-18.0224708,-27.67471375,-77.85005365,-0.9977437000000005,-1.592074805,-1.5038564400000003,0.0251015079999999,0.3138888245,0.3147058410000001,0.0035
10:11:55,0.98740528,-0.788321815,-1.81312044,-0.1472848049999999,0.224698975,0.0648374449999999,29.30190125,-18.05495314,-27.647152025,-78.138117195,-0.9798504100000004,-1.5949189015,-1.5268849020000004,0.0195828804,0.3148245403499999,0.3190060283,0.0035
10:11:55,1.0187709599999994,-0.79681358,-1.82034008,-0.15365026,0.2270747,0.0635217399999999,29.300593,-18.08743548,-27.6195903,-78.42618074,-0.9619571200000006,-1.597762998,-1.5499133640000005,0.0140642528,0.3157602562,0.3233062156,0.0035
10:11:55,1.0501366399999998,-0.8053053450000001,-1.82755972,-0.1600157149999999,0.229450425,0.0622060349999999,29.29928475,-18.11991782,-27.592028575,-78.714244285,-0.9440638300000002,-1.6006070945,-1.5729418260000003,0.0085456252,0.31669597205,0.3276064029000001,0.0035
10:11:55,1.0815023200000002,-0.8137971100000001,-1.83477936,-0.1663811699999999,0.23182615,0.0608903299999999,29.2979765,-18.15240016,-27.56446685,-79.00230783,-0.9261705400000002,-1.603451191,-1.5959702880000002,0.0030269976,0.3176316878999999,0.3319065902,0.0035
10:11:55,1.1128679999999995,-0.8222888750000001,-1.841999,-0.172746625,0.234201875,0.0595746249999999,29.29666825,-18.1848825,-27.536905125,-79.290371375,-0.9082772500000004,-1.6062952875,-1.6189987500000005,-0.0024916299999999,0.31856740375,0.3362067775,0.0035
10:11:55,1.14423368,-0.83078064,-1.84921864,-0.1791120799999999,0.2365776,0.0582589199999999,29.29536,-18.21736484,-27.5093434,-79.57843492,-0.8903839600000003,-1.609139384,-1.6420272120000003,-0.0080102575999999,0.3195031196,0.3405069648000001,0.0035
10:11:55,1.1755993599999996,-0.839272405,-1.85643828,-0.1854775349999999,0.238953325,0.0569432149999999,29.29405175,-18.24984718,-27.481781675,-79.866498465,-0.8724906700000004,-1.6119834805000002,-1.6650556740000004,-0.0135288851999999,0.3204388354499999,0.3448071521,0.0035
10:11:55,1.20696504,-0.84776417,-1.86365792,-0.19184299,0.24132905,0.0556275099999999,29.2927435,-18.28232952,-27.45421995,-80.15456201,-0.8545973800000004,-1.614827577,-1.6880841360000003,-0.0190475128,0.3213745513,0.3491073394,0.0035
10:11:55,1.2383307199999996,-0.8562559350000001,-1.87087756,-0.1982084449999999,0.2437047749999999,0.0543118049999999,29.29143525,-18.31481186,-27.426658225,-80.442625555,-0.8367040900000005,-1.6176716735,-1.7111125980000006,-0.0245661404,0.32231026715,0.3534075267000001,0.0035
10:11:55,1.2696964,-0.8647477000000001,-1.8780972,-0.2045738999999999,0.2460804999999999,0.0529960999999999,29.290127,-18.3472942,-27.3990965,-80.7306891,-0.8188108000000005,-1.62051577,-1.734141060000001,-0.030084768,0.3232459829999999,0.357707714,0.0035
10:11:55,1.3010620799999997,-0.8732394649999999,-1.88531684,-0.2109393549999998,0.248456225,0.0516803949999999,29.28881875,-18.37977654,-27.371534775,-81.018752645,-0.8009175100000006,-1.6233598665,-1.7571695220000008,-0.0356033956,0.32418169885,0.3620079013,0.0035
10:11:55,1.33242776,-0.88173123,-1.89253648,-0.2173048099999999,0.25083195,0.0503646899999999,29.2875105,-18.41225888,-27.34397305,-81.30681619,-0.7830242200000006,-1.626203963,-1.7801979840000008,-0.0411220231999999,0.3251174147,0.3663080886000001,0.0035
10:11:55,1.3637934400000002,-0.890222995,-1.89975612,-0.2236702649999999,0.253207675,0.0490489849999999,29.28620225,-18.44474122,-27.316411325,-81.594879735,-0.7651309300000002,-1.6290480595,-1.803226446000001,-0.0466406508,0.3260531305499999,0.3706082759,0.0035
10:11:55,1.3951591199999998,-0.8987147600000001,-1.90697576,-0.2300357199999998,0.2555834,0.0477332799999999,29.284894,-18.47722356,-27.2888496,-81.88294328,-0.7472376400000003,-1.631892156,-1.826254908,-0.0521592783999999,0.3269888464,0.3749084632,0.0035
10:11:55,1.4265248,-0.907206525,-1.9141954,-0.2364011749999999,0.257959125,0.0464175749999999,29.28358575,-18.5097059,-27.261287875,-82.171006825,-0.7293443500000003,-1.6347362525,-1.84928337,-0.057677906,0.32792456225,0.3792086505000001,0.0035
10:11:55,1.4578904799999997,-0.91569829,-1.92141504,-0.2427666299999999,0.26033485,0.0451018699999999,29.2822775,-18.54218824,-27.23372615,-82.45907037,-0.7114510600000004,-1.637580349,-1.8723118320000005,-0.0631965336000001,0.3288602780999999,0.3835088378,0.0035
10:11:55,1.48925616,-0.924190055,-1.92863468,-0.2491320849999998,0.262710575,0.0437861649999999,29.28096925,-18.57467058,-27.206164425,-82.747133915,-0.6935577700000004,-1.6404244455,-1.8953402940000004,-0.0687151611999999,0.32979599395,0.3878090251,0.0035
10:11:55,1.5206218399999996,-0.93268182,-1.93585432,-0.2554975399999999,0.2650863,0.0424704599999999,29.279661,-18.60715292,-27.1786027,-83.03519746,-0.6756644800000005,-1.643268542,-1.9183687560000005,-0.0742337888,0.3307317098,0.3921092124000001,0.0035
10:11:55,1.55198752,-0.941173585,-1.94307396,-0.261862995,0.267462025,0.0411547549999999,29.27835275,-18.63963526,-27.151040975,-83.323261005,-0.6577711900000005,-1.6461126385,-1.9413972180000003,-0.0797524163999999,0.3316674256499999,0.3964093997,0.0035
10:11:55,1.5833531999999997,-0.94966535,-1.9502936,-0.2682284499999998,0.26983775,0.0398390499999999,29.2770445,-18.6721176,-27.12347925,-83.61132455,-0.6398779000000006,-1.648956735,-1.9644256800000008,-0.085271044,0.3326031415,0.400709587,0.0035
10:11:55,1.61471888,-0.958157115,-1.95751324,-0.2745939049999999,0.272213475,0.0385233449999999,29.27573625,-18.70459994,-27.095917525,-83.899388095,-0.6219846100000006,-1.6518008315,-1.9874541420000007,-0.0907896715999999,0.33353885735,0.4050097743,0.0035
10:11:55,1.6460845599999994,-0.9666488800000002,-1.96473288,-0.28095936,0.2745892,0.0372076399999999,29.274428,-18.73708228,-27.0683558,-84.18745164,-0.6040913200000002,-1.654644928,-2.010482604000001,-0.0963082992,0.3344745731999999,0.4093099616,0.0035
10:11:55,1.6774502399999998,-0.975140645,-1.97195252,-0.2873248149999998,0.276964925,0.0358919349999999,29.27311975,-18.76956462,-27.040794075,-84.475515185,-0.5861980300000003,-1.6574890245,-2.033511066000001,-0.1018269267999999,0.33541028905,0.4136101489,0.0035
10:11:55,1.7088159200000002,-0.98363241,-1.97917216,-0.2936902699999999,0.27934065,0.0345762299999999,29.2718115,-18.80204696,-27.01323235,-84.76357873,-0.5683047400000003,-1.660333121,-2.056539528000001,-0.1073455544,0.3363460049,0.4179103362,0.0035
10:11:55,1.7401815999999997,-0.992124175,-1.9863918,-0.300055725,0.281716375,0.0332605249999999,29.27050325,-18.8345293,-26.985670625,-85.051642275,-0.5504114500000004,-1.6631772175,-2.07956799,-0.1128641819999999,0.33728172075,0.4222105235000001,0.0035
10:11:55,1.77154728,-1.00061594,-1.99361144,-0.3064211799999998,0.2840921,0.0319448199999999,29.269195,-18.86701164,-26.9581089,-85.33970582,-0.5325181600000004,-1.666021314,-2.102596452,-0.1183828096,0.3382174366,0.4265107108,0.0035
10:11:55,1.80291296,-1.009107705,-2.00083108,-0.3127866349999999,0.286467825,0.0306291149999999,29.26788675,-18.89949398,-26.930547175,-85.627769365,-0.5146248700000005,-1.6688654105,-2.1256249140000003,-0.1239014371999999,0.33915315245,0.4308108981,0.0035
10:11:55,1.83427864,-1.01759947,-2.00805072,-0.31915209,0.28884355,0.0293134099999999,29.2665785,-18.93197632,-26.90298545,-85.91583291,-0.4967315800000005,-1.671709507,-2.1486533760000004,-0.1294200648,0.3400888683,0.4351110854000001,0.0035
10:11:55,1.8656443199999997,-1.026091235,-2.01527036,-0.3255175449999998,0.291219275,0.0279977049999999,29.26527025,-18.96445866,-26.875423725,-86.203896455,-0.4788382900000005,-1.6745536035000002,-2.1716818380000005,-0.1349386923999999,0.34102458415,0.4394112727,0.0035
10:11:56,1.89701,-1.034583,-2.02249,-0.331883,0.293595,0.026682,29.263962,-18.996941,-26.847862,-86.49196,-0.460945,-1.6773977,-2.1947103,-0.14045732,0.3419603,0.44371146,0.0035
10:11:56,1.8884029,-1.0257543,-2.008456995,-0.3328737699999999,0.293195495,0.02672994,29.27105581,-18.983287355,-26.841314225,-86.43012225000001,-0.4553044492,-1.665457499,-2.1812290685,-0.1414746906,0.3412321937,0.4441606062,0.0035
10:11:56,1.8797958,-1.0169256,-1.99442399,-0.33386454,0.29279599,0.02677788,29.27814962,-18.96963371,-26.83476645,-86.3682845,-0.4496638984,-1.653517298,-2.1677478370000003,-0.1424920612,0.3405040874,0.4446097524,0.0035
10:11:56,1.8711887,-1.0080969,-1.980390985,-0.3348553099999999,0.292396485,0.02682582,29.28524343,-18.955980065,-26.828218675,-86.30644675,-0.4440233476,-1.641577097,-2.1542666055,-0.1435094318,0.3397759811,0.4450588986,0.0035
10:11:56,1.8625816,-0.9992682,-1.96635798,-0.33584608,0.29199698,0.02687376,29.29233724,-18.94232642,-26.8216709,-86.24460900000001,-0.4383827968,-1.629636896,-2.140785374,-0.1445268024,0.3390478748,0.4455080448,0.0035
10:11:56,1.8539745,-0.9904395,-1.952324975,-0.3368368499999999,0.291597475,0.0269217,29.29943105,-18.928672775,-26.815123125,-86.18277125,-0.432742246,-1.617696695,-2.1273041425,-0.145544173,0.3383197685,0.445957191,0.0035
10:11:56,1.8453674,-0.9816108,-1.93829197,-0.33782762,0.29119797,0.02696964,29.30652486,-18.91501913,-26.80857535,-86.1209335,-0.4271016951999999,-1.605756494,-2.113822911,-0.1465615435999999,0.3375916622,0.4464063372,0.0035
10:11:56,1.8367603,-0.9727821,-1.924258965,-0.3388183899999999,0.290798465,0.02701758,29.31361867,-18.901365485,-26.802027575,-86.05909575000001,-0.4214611444,-1.593816293,-2.1003416795,-0.1475789142,0.3368635559,0.4468554834,0.0035
10:11:56,1.8281532,-0.9639534,-1.91022596,-0.33980916,0.29039896,0.02706552,29.32071248,-18.88771184,-26.7954798,-85.997258,-0.4158205936,-1.581876092,-2.086860448,-0.1485962848,0.3361354495999999,0.4473046296,0.0035
10:11:56,1.8195461,-0.9551247,-1.896192955,-0.34079993,0.289999455,0.02711346,29.32780629,-18.874058195,-26.788932025,-85.93542025,-0.4101800428,-1.569935891,-2.0733792165,-0.1496136554,0.3354073433,0.4477537758,0.0035
10:11:56,1.810939,-0.946296,-1.88215995,-0.3417907,0.28959995,0.0271614,29.3349001,-18.86040455,-26.78238425,-85.87358250000001,-0.404539492,-1.55799569,-2.059897985,-0.150631026,0.334679237,0.448202922,0.0035
10:11:56,1.8023319,-0.9374673,-1.868126945,-0.34278147,0.289200445,0.02720934,29.34199391,-18.846750905,-26.775836475,-85.81174475,-0.3988989411999999,-1.546055489,-2.0464167535,-0.1516483965999999,0.3339511307,0.4486520682,0.0035
10:11:56,1.7937248,-0.9286386,-1.85409394,-0.34377224,0.28880094,0.02725728,29.34908772,-18.83309726,-26.7692887,-85.74990700000001,-0.3932583904,-1.534115288,-2.0329355220000003,-0.1526657672,0.3332230244,0.4491012144,0.0035
10:11:56,1.7851177,-0.9198099,-1.840060935,-0.34476301,0.288401435,0.02730522,29.35618153,-18.819443615,-26.762740925,-85.68806925000001,-0.3876178395999999,-1.522175087,-2.0194542905,-0.1536831377999999,0.3324949181,0.4495503606,0.0035
10:11:56,1.7765106000000002,-0.9109812,-1.82602793,-0.34575378,0.28800193,0.02735316,29.36327534,-18.80578997,-26.75619315,-85.6262315,-0.3819772888,-1.510234886,-2.005973059,-0.1547005084,0.3317668118,0.4499995068,0.0035
10:11:56,1.7679035,-0.9021525,-1.811994925,-0.34674455,0.287602425,0.0274011,29.37036915,-18.792136325,-26.749645375,-85.56439375000001,-0.376336738,-1.498294685,-1.9924918275,-0.155717879,0.3310387055,0.450448653,0.0035
10:11:56,1.7592964,-0.8933238,-1.79796192,-0.3477353199999999,0.28720292,0.02744904,29.37746296,-18.77848268,-26.7430976,-85.502556,-0.3706961871999999,-1.486354484,-1.979010596,-0.1567352496,0.3303105992,0.4508977992,0.0035
10:11:56,1.7506893,-0.8844951000000001,-1.783928915,-0.34872609,0.286803415,0.02749698,29.38455677,-18.764829035,-26.736549825,-85.44071825,-0.3650556364,-1.474414283,-1.9655293645,-0.1577526202,0.3295824928999999,0.4513469454,0.0035
10:11:56,1.7420822,-0.8756664000000001,-1.76989591,-0.3497168599999999,0.28640391,0.02754492,29.39165058,-18.75117539,-26.73000205,-85.37888050000001,-0.3594150856,-1.462474082,-1.952048133,-0.1587699907999999,0.3288543866,0.4517960916,0.0035
10:11:56,1.7334751000000002,-0.8668377,-1.755862905,-0.35070763,0.286004405,0.02759286,29.39874439,-18.737521745,-26.723454275,-85.31704275,-0.3537745348,-1.450533881,-1.9385669015,-0.1597873614,0.3281262803,0.4522452378,0.0035
10:11:56,1.724868,-0.858009,-1.7418299,-0.3516983999999999,0.2856049,0.0276408,29.4058382,-18.7238681,-26.7169065,-85.255205,-0.3481339839999999,-1.43859368,-1.92508567,-0.160804732,0.327398174,0.452694384,0.0035
10:11:56,1.7162609,-0.8491803,-1.727796895,-0.35268917,0.285205395,0.02768874,29.41293201,-18.710214455,-26.710358725,-85.19336725000001,-0.3424934332,-1.426653479,-1.9116044385,-0.1618221026,0.3266700677,0.4531435302,0.0035
10:11:56,1.7076538,-0.8403516,-1.71376389,-0.3536799399999999,0.28480589,0.02773668,29.42002582,-18.69656081,-26.70381095,-85.1315295,-0.3368528824,-1.414713278,-1.898123207,-0.1628394732,0.3259419614,0.4535926764,0.0035
10:11:56,1.6990467,-0.8315229000000001,-1.699730885,-0.35467071,0.284406385,0.02778462,29.42711963,-18.682907165,-26.697263175,-85.06969175,-0.3312123315999999,-1.402773077,-1.8846419755,-0.1638568437999999,0.3252138551,0.4540418226,0.0035
10:11:56,1.6904396,-0.8226942,-1.68569788,-0.35566148,0.28400688,0.02783256,29.43421344,-18.66925352,-26.6907154,-85.00785400000001,-0.3255717808,-1.390832876,-1.871160744,-0.1648742144,0.3244857488,0.4544909688,0.0035
10:11:56,1.6818325,-0.8138655,-1.6716648749999998,-0.35665225,0.283607375,0.0278805,29.44130725,-18.655599875,-26.684167625,-84.94601625,-0.31993123,-1.378892675,-1.8576795125,-0.165891585,0.3237576425,0.454940115,0.0035
10:11:56,1.6732254,-0.8050368,-1.65763187,-0.35764302,0.28320787,0.02792844,29.44840106,-18.64194623,-26.67761985,-84.8841785,-0.3142906792,-1.366952474,-1.844198281,-0.1669089556,0.3230295361999999,0.4553892612,0.0035
10:11:56,1.6646183,-0.7962081000000001,-1.643598865,-0.35863379,0.282808365,0.02797638,29.45549487,-18.628292585,-26.671072075,-84.82234075000001,-0.3086501283999999,-1.355012273,-1.8307170495,-0.1679263262,0.3223014299,0.4558384074,0.0035
10:11:56,1.6560112,-0.7873794000000001,-1.62956586,-0.35962456,0.28240886,0.02802432,29.46258868,-18.61463894,-26.6645243,-84.760503,-0.3030095775999999,-1.343072072,-1.817235818,-0.1689436968,0.3215733236,0.4562875536,0.0035
10:11:56,1.6474041,-0.7785507,-1.615532855,-0.36061533,0.282009355,0.02807226,29.46968249,-18.600985295,-26.657976525,-84.69866525,-0.2973690268,-1.331131871,-1.8037545865,-0.1699610674,0.3208452173,0.4567366998,0.0035
10:11:56,1.638797,-0.769722,-1.60149985,-0.3616061,0.28160985,0.0281202,29.4767763,-18.58733165,-26.65142875,-84.63682750000001,-0.2917284759999999,-1.31919167,-1.790273355,-0.1709784379999999,0.320117111,0.457185846,0.0035
10:11:56,1.6301899,-0.7608933,-1.587466845,-0.3625968699999999,0.281210345,0.02816814,29.48387011,-18.573678005,-26.644880975,-84.57498975,-0.2860879252,-1.307251469,-1.7767921235000002,-0.1719958086,0.3193890047,0.4576349922,0.0035
10:11:56,1.6215828,-0.7520646,-1.57343384,-0.36358764,0.28081084,0.02821608,29.49096392,-18.56002436,-26.6383332,-84.513152,-0.2804473744,-1.295311268,-1.763310892,-0.1730131791999999,0.3186608984,0.4580841384,0.0035
10:11:56,1.6129757,-0.7432359,-1.559400835,-0.3645784099999999,0.280411335,0.02826402,29.49805773,-18.546370715,-26.631785425,-84.45131425000001,-0.2748068235999999,-1.283371067,-1.7498296605,-0.1740305498,0.3179327921,0.4585332846,0.0035
10:11:56,1.6043686,-0.7344072,-1.54536783,-0.36556918,0.28001183,0.02831196,29.50515154,-18.53271707,-26.62523765,-84.3894765,-0.2691662727999999,-1.271430866,-1.736348429,-0.1750479204,0.3172046858,0.4589824308,0.0035
10:11:56,1.5957615,-0.7255785,-1.531334825,-0.3665599499999999,0.279612325,0.0283599,29.51224535,-18.519063425,-26.618689875,-84.32763875,-0.2635257219999999,-1.259490665,-1.7228671975,-0.1760652909999999,0.3164765794999999,0.459431577,0.0035
10:11:56,1.5871544,-0.7167498000000001,-1.51730182,-0.36755072,0.27921282,0.02840784,29.51933916,-18.50540978,-26.6121421,-84.26580100000001,-0.2578851712,-1.247550464,-1.709385966,-0.1770826616,0.3157484732,0.4598807232,0.0035
10:11:56,1.5785473,-0.7079211000000001,-1.503268815,-0.3685414899999999,0.278813315,0.02845578,29.52643297,-18.491756135,-26.605594325,-84.20396325,-0.2522446203999999,-1.235610263,-1.6959047345,-0.1781000321999999,0.3150203669,0.4603298694,0.0035
10:11:56,1.5699402,-0.6990924000000001,-1.4892358099999998,-0.36953226,0.27841381,0.02850372,29.53352678,-18.47810249,-26.59904655,-84.1421255,-0.2466040695999999,-1.223670062,-1.682423503,-0.1791174028,0.3142922606,0.4607790156,0.0035
10:11:56,1.5613331,-0.6902637,-1.475202805,-0.37052303,0.278014305,0.02855166,29.54062059,-18.464448845,-26.592498775,-84.08028775000001,-0.2409635187999999,-1.211729861,-1.6689422715000002,-0.1801347734,0.3135641543,0.4612281618,0.0035
10:11:56,1.552726,-0.681435,-1.4611698,-0.3715138,0.2776148,0.0285996,29.5477144,-18.4507952,-26.585951,-84.01845,-0.2353229679999999,-1.19978966,-1.65546104,-0.181152144,0.312836048,0.461677308,0.0035
10:11:56,1.5441189,-0.6726063,-1.447136795,-0.37250457,0.277215295,0.02864754,29.55480821,-18.437141555,-26.579403225,-83.95661225,-0.2296824171999999,-1.187849459,-1.6419798085,-0.1821695146,0.3121079417,0.4621264542,0.0035
10:11:56,1.5355118,-0.6637776,-1.43310379,-0.3734953399999999,0.27681579,0.02869548,29.56190202,-18.42348791,-26.57285545,-83.89477450000001,-0.2240418663999999,-1.175909258,-1.6284985770000002,-0.1831868851999999,0.3113798353999999,0.4625756004,0.0035
10:11:56,1.5269047,-0.6549489,-1.419070785,-0.37448611,0.276416285,0.02874342,29.56899583,-18.409834265,-26.566307675,-83.83293675,-0.2184013155999999,-1.163969057,-1.6150173455,-0.1842042558,0.3106517291,0.4630247466,0.0035
10:11:56,1.5182976,-0.6461202,-1.40503778,-0.37547688,0.27601678,0.02879136,29.57608964,-18.39618062,-26.5597599,-83.771099,-0.2127607647999999,-1.152028856,-1.601536114,-0.1852216264,0.3099236227999999,0.4634738928,0.0035
10:11:56,1.5096905,-0.6372915,-1.391004775,-0.37646765,0.275617275,0.0288393,29.58318345,-18.382526975,-26.553212125,-83.70926125,-0.2071202139999999,-1.140088655,-1.5880548825,-0.186238997,0.3091955165,0.463923039,0.0035
10:11:56,1.5010834,-0.6284628000000001,-1.37697177,-0.3774584199999999,0.27521777,0.02888724,29.59027726,-18.36887333,-26.54666435,-83.6474235,-0.2014796632,-1.1281484540000002,-1.574573651,-0.1872563675999999,0.3084674102,0.4643721852,0.0035
10:11:56,1.4924763,-0.6196341000000001,-1.362938765,-0.37844919,0.274818265,0.02893518,29.59737107,-18.355219685,-26.540116575,-83.58558575,-0.1958391123999999,-1.116208253,-1.5610924195,-0.1882737381999999,0.3077393039,0.4648213314,0.0035
10:11:56,1.4838692,-0.6108054,-1.34890576,-0.3794399599999999,0.27441876,0.02898312,29.60446488,-18.34156604,-26.5335688,-83.523748,-0.1901985615999999,-1.104268052,-1.547611188,-0.1892911088,0.3070111976,0.4652704776,0.0035
10:11:56,1.4752621,-0.6019767,-1.334872755,-0.38043073,0.274019255,0.02903106,29.61155869,-18.327912395,-26.527021025,-83.46191025,-0.1845580107999999,-1.092327851,-1.5341299565000002,-0.1903084793999999,0.3062830913,0.4657196238,0.0035
10:11:56,1.466655,-0.593148,-1.32083975,-0.3814214999999999,0.27361975,0.029079,29.6186525,-18.31425875,-26.52047325,-83.40007250000001,-0.1789174599999999,-1.08038765,-1.520648725,-0.19132585,0.305554985,0.46616877,0.0035
10:11:56,1.4580479,-0.5843193,-1.306806745,-0.38241227,0.273220245,0.02912694,29.62574631,-18.300605105,-26.513925475,-83.33823475,-0.1732769091999999,-1.068447449,-1.5071674935,-0.1923432205999999,0.3048268786999999,0.4666179162,0.0035
10:11:56,1.4494408,-0.5754906,-1.29277374,-0.38340304,0.27282074,0.02917488,29.63284012,-18.28695146,-26.5073777,-83.276397,-0.1676363583999999,-1.056507248,-1.4936862620000002,-0.1933605912,0.3040987724,0.4670670624,0.0035
10:11:56,1.4408337,-0.5666619,-1.278740735,-0.38439381,0.272421235,0.02922282,29.63993393,-18.273297815,-26.500829925,-83.21455925000001,-0.1619958075999999,-1.044567047,-1.4802050305,-0.1943779618,0.3033706660999999,0.4675162086,0.0035
10:11:56,1.4322266,-0.5578332,-1.26470773,-0.38538458,0.27202173,0.02927076,29.64702774,-18.25964417,-26.49428215,-83.1527215,-0.1563552567999999,-1.032626846,-1.466723799,-0.1953953323999999,0.3026425598,0.4679653548,0.0035
10:11:56,1.4236195,-0.5490045,-1.250674725,-0.38637535,0.271622225,0.0293187,29.65412155,-18.245990525,-26.487734375,-83.09088375,-0.1507147059999999,-1.020686645,-1.4532425675,-0.196412703,0.3019144535,0.468414501,0.0035
10:11:56,1.4150124,-0.5401758000000001,-1.2366417200000002,-0.38736612,0.27122272,0.02936664,29.66121536,-18.23233688,-26.4811866,-83.02904600000001,-0.1450741551999999,-1.008746444,-1.439761336,-0.1974300735999999,0.3011863472,0.4688636472,0.0035
10:11:56,1.4064053,-0.5313471000000001,-1.222608715,-0.3883568899999999,0.270823215,0.02941458,29.66830917,-18.218683235,-26.474638825,-82.96720825,-0.1394336043999999,-0.996806243,-1.4262801045,-0.1984474442,0.3004582409,0.4693127934,0.0035
10:11:56,1.3977982,-0.5225184,-1.20857571,-0.38934766,0.27042371,0.02946252,29.67540298,-18.20502959,-26.46809105,-82.9053705,-0.1337930536,-0.984866042,-1.412798873,-0.1994648148,0.2997301346,0.4697619396,0.0035
10:11:56,1.3891911,-0.5136897,-1.194542705,-0.3903384299999999,0.270024205,0.02951046,29.68249679,-18.191375945,-26.461543275,-82.84353275000001,-0.1281525027999999,-0.972925841,-1.3993176415000002,-0.2004821853999999,0.2990020283,0.4702110858,0.0035
10:11:56,1.380584,-0.504861,-1.1805097,-0.3913292,0.2696247,0.0295584,29.6895906,-18.1777223,-26.4549955,-82.781695,-0.1225119519999999,-0.96098564,-1.38583641,-0.201499556,0.2982739219999999,0.470660232,0.0035
10:11:56,1.3719769,-0.4960323,-1.166476695,-0.3923199699999999,0.269225195,0.02960634,29.69668441,-18.164068655,-26.448447725,-82.71985725,-0.1168714011999999,-0.949045439,-1.3723551785,-0.2025169265999999,0.2975458157,0.4711093782,0.0035
10:11:56,1.3633698,-0.4872036,-1.15244369,-0.39331074,0.26882569,0.0296542799999999,29.70377822,-18.15041501,-26.44189995,-82.65801950000001,-0.1112308503999999,-0.937105238,-1.3588739470000002,-0.2035342972,0.2968177093999999,0.4715585244,0.0035
10:11:56,1.3547627,-0.4783749,-1.1384106850000002,-0.3943015099999999,0.268426185,0.02970222,29.71087203,-18.136761365,-26.435352175,-82.59618175,-0.1055902995999999,-0.925165037,-1.3453927155,-0.2045516678,0.2960896031,0.4720076706,0.0035
10:11:56,1.3461556,-0.4695462,-1.12437768,-0.39529228,0.26802668,0.0297501599999999,29.71796584,-18.12310772,-26.4288044,-82.534344,-0.0999497487999999,-0.913224836,-1.331911484,-0.2055690384,0.2953614968,0.4724568168,0.0035
10:11:56,1.3375485,-0.4607175,-1.110344675,-0.3962830499999999,0.267627175,0.0297981,29.72505965,-18.109454075,-26.422256625,-82.47250625000001,-0.0943091979999999,-0.901284635,-1.3184302525,-0.2065864089999999,0.2946333905,0.472905963,0.0035
10:11:56,1.3289414000000002,-0.4518888,-1.09631167,-0.39727382,0.26722767,0.02984604,29.73215346,-18.09580043,-26.41570885,-82.4106685,-0.0886686471999999,-0.8893444340000001,-1.304949021,-0.2076037795999999,0.2939052842,0.4733551092,0.0035
10:11:56,1.3203342999999998,-0.4430601,-1.082278665,-0.39826459,0.266828165,0.02989398,29.73924727,-18.082146785,-26.409161075,-82.34883075,-0.0830280963999999,-0.877404233,-1.2914677895,-0.2086211502,0.2931771779,0.4738042554,0.0035
10:11:56,1.3117272,-0.4342314,-1.06824566,-0.3992553599999999,0.26642866,0.02994192,29.74634108,-18.06849314,-26.4026133,-82.286993,-0.0773875455999999,-0.865464032,-1.277986558,-0.2096385208,0.2924490716,0.4742534016,0.0035
10:11:56,1.3031201,-0.4254027,-1.0542126550000002,-0.40024613,0.266029155,0.02998986,29.75343489,-18.054839495,-26.396065525,-82.22515525,-0.0717469947999999,-0.8535238310000001,-1.2645053265,-0.2106558914,0.2917209652999999,0.4747025478,0.0035
10:11:56,1.294513,-0.416574,-1.04017965,-0.4012369,0.26562965,0.0300378,29.7605287,-18.04118585,-26.38951775,-82.1633175,-0.0661064439999999,-0.84158363,-1.251024095,-0.2116732619999999,0.290992859,0.475151694,0.0035
10:11:56,1.2859059,-0.4077453,-1.026146645,-0.40222767,0.265230145,0.03008574,29.76762251,-18.027532205,-26.382969975,-82.10147975000001,-0.0604658931999999,-0.8296434290000001,-1.2375428635,-0.2126906325999999,0.2902647526999999,0.4756008402,0.0035
10:11:56,1.2772988,-0.3989166,-1.01211364,-0.4032184399999999,0.26483064,0.03013368,29.77471632,-18.01387856,-26.3764222,-82.039642,-0.0548253423999999,-0.8177032280000001,-1.2240616320000002,-0.2137080032,0.2895366464,0.4760499864,0.0035
10:11:56,1.2686917,-0.3900879,-0.998080635,-0.40420921,0.264431135,0.03018162,29.78181013,-18.000224915,-26.369874425,-81.97780425,-0.0491847915999999,-0.805763027,-1.2105804005,-0.2147253737999999,0.2888085401,0.4764991326,0.0035
10:11:56,1.2600846,-0.3812592,-0.98404763,-0.40519998,0.26403163,0.03022956,29.78890394,-17.98657127,-26.36332665,-81.9159665,-0.0435442407999999,-0.7938228260000001,-1.197099169,-0.2157427444,0.2880804338,0.4769482788,0.0035
10:11:56,1.2514775,-0.3724305,-0.970014625,-0.40619075,0.263632125,0.0302775,29.79599775,-17.972917625,-26.356778875,-81.85412875,-0.0379036899999999,-0.781882625,-1.1836179375,-0.2167601149999999,0.2873523275,0.477397425,0.0035
10:11:56,1.2428704000000002,-0.3636018,-0.95598162,-0.4071815199999999,0.26323262,0.03032544,29.80309156,-17.95926398,-26.3502311,-81.792291,-0.0322631391999999,-0.769942424,-1.170136706,-0.2177774856,0.2866242212,0.4778465712,0.0035
10:11:56,1.2342632999999998,-0.3547731,-0.941948615,-0.40817229,0.262833115,0.03037338,29.81018537,-17.945610334999998,-26.343683325,-81.73045325,-0.0266225883999999,-0.7580022230000001,-1.1566554745,-0.2187948562,0.2858961149,0.4782957174,0.0035
10:11:56,1.2256562,-0.3459444,-0.92791561,-0.4091630599999999,0.26243361,0.0304213199999999,29.81727918,-17.93195669,-26.33713555,-81.6686155,-0.0209820375999999,-0.746062022,-1.143174243,-0.2198122267999999,0.2851680085999999,0.4787448636,0.0035
10:11:56,1.2170491,-0.3371157,-0.9138826050000002,-0.41015383,0.262034105,0.0304692599999999,29.82437299,-17.918303045,-26.330587775,-81.60677775,-0.0153414867999999,-0.734121821,-1.1296930115,-0.2208295973999999,0.2844399023,0.4791940098,0.0035
10:11:56,1.208442,-0.328287,-0.8998496,-0.4111445999999999,0.2616346,0.0305171999999999,29.8314668,-17.9046494,-26.32404,-81.54494,-0.0097009359999999,-0.7221816200000001,-1.11621178,-0.2218469679999999,0.2837117959999999,0.479643156,0.0035
10:11:56,1.1998349,-0.3194583,-0.8858165950000001,-0.41213537,0.261235095,0.0305651399999999,29.83856061,-17.890995755,-26.317492225,-81.48310225,-0.0040603851999999,-0.710241419,-1.1027305485,-0.2228643386,0.2829836897,0.4800923022,0.0035
10:11:56,1.1912278,-0.3106296,-0.8717835900000002,-0.41312614,0.26083559,0.03061308,29.84565442,-17.87734211,-26.31094445,-81.4212645,0.0015801656,-0.698301218,-1.089249317,-0.2238817092,0.2822555834,0.4805414484,0.0035
10:11:56,1.1826207,-0.3018009,-0.857750585,-0.4141169099999999,0.260436085,0.0306610199999999,29.85274823,-17.863688465,-26.304396675,-81.35942675,0.0072207164,-0.6863610170000001,-1.0757680855,-0.2248990797999999,0.2815274771,0.4809905946,0.0035
10:11:56,1.1740136,-0.2929722,-0.8437175800000001,-0.41510768,0.26003658,0.03070896,29.85984204,-17.85003482,-26.2978489,-81.297589,0.0128612672,-0.674420816,-1.062286854,-0.2259164503999999,0.2807993708,0.4814397408,0.0035
10:11:56,1.1654065,-0.2841435,-0.8296845750000001,-0.41609845,0.259637075,0.0307569,29.86693585,-17.836381175,-26.291301125,-81.23575125,0.018501818,-0.662480615,-1.0488056225,-0.2269338209999999,0.2800712645,0.481888887,0.0035
10:11:56,1.1567994,-0.2753147999999999,-0.81565157,-0.41708922,0.25923757,0.03080484,29.87402966,-17.822727529999998,-26.28475335,-81.1739135,0.0241423688,-0.650540414,-1.035324391,-0.2279511916,0.2793431582,0.4823380332,0.0035
10:11:56,1.1481922999999998,-0.2664861,-0.8016185650000001,-0.4180799899999999,0.258838065,0.03085278,29.88112347,-17.809073885,-26.278205575,-81.11207575,0.0297829196,-0.6386002130000001,-1.0218431595,-0.2289685622,0.2786150519,0.4827871794,0.0035
10:11:56,1.1395852,-0.2576574,-0.7875855600000001,-0.41907076,0.25843856,0.03090072,29.88821728,-17.79542024,-26.2716578,-81.05023800000001,0.0354234704,-0.6266600120000001,-1.008361928,-0.2299859328,0.2778869456,0.4832363256,0.0035
10:11:56,1.1309781,-0.2488287,-0.7735525550000002,-0.4200615299999999,0.258039055,0.03094866,29.89531109,-17.781766595,-26.265110025,-80.98840025,0.0410640212,-0.6147198110000001,-0.9948806965,-0.2310033033999999,0.2771588392999999,0.4836854718,0.0035
10:11:56,1.122371,-0.24,-0.75951955,-0.4210523,0.25763955,0.0309966,29.9024049,-17.76811295,-26.25856225,-80.9265625,0.046704572,-0.60277961,-0.981399465,-0.2320206739999999,0.276430733,0.484134618,0.0035
10:11:56,1.1137639,-0.2311712999999999,-0.7454865450000001,-0.4220430699999999,0.257240045,0.03104454,29.90949871,-17.754459305,-26.252014475,-80.86472475000001,0.0523451228,-0.590839409,-0.9679182335,-0.2330380446,0.2757026267,0.4845837642,0.0035
10:11:56,1.1051568,-0.2223426,-0.7314535400000002,-0.42303384,0.25684054,0.03109248,29.91659252,-17.74080566,-26.2454667,-80.802887,0.0579856736,-0.5788992080000002,-0.954437002,-0.2340554151999999,0.2749745204,0.4850329103999999,0.0035
