Timestamp,linacce_x,linacce_y,linacce_z,gyro_x,gyro_y,gyro_z,X-magnetometer,Y-magnetometer,Z-magnetometer,Yaw, worldXAccel,worldYAccel,worldZAccel,worldXgyro,worldYgyro,worldZgyro,Distance
03:38:06,0.57296,-0.560743,-0.14002,0.027478,-0.065847,-0.262831,-5.828548,32.045055,-26.859856,5.536279,0.38499883,-0.5963622,-0.38284472,-0.12176435,-0.07667185,-0.22923124,0.00375
03:38:06,0.561662985,-0.542328705,-0.139752705,0.028303645,-0.06769538,-0.2616857549999999,-5.85242463,32.043841699999994,-26.869392285,5.625874755000001,0.37433183785,-0.579525125,-0.3789135493,-0.1202437133,-0.07821318465,-0.22834379195,0.00375
03:38:06,0.55036597,-0.5239144099999999,-0.13948541,0.02912929,-0.06954376,-0.26054051,-5.87630126,32.0426284,-26.87892857,5.71547051,0.3636648457,-0.56268805,-0.3749823786,-0.1187230765999999,-0.0797545192999999,-0.2274563439,0.00375
03:38:06,0.5390689550000001,-0.505500115,-0.139218115,0.029954935,-0.07139214,-0.259395265,-5.900177889999999,32.041415099999995,-26.888464855,5.805066265000001,0.35299785355,-0.5458509749999999,-0.3710512079,-0.1172024399,-0.08129585395,-0.22656889585,0.00375
03:38:06,0.52777194,-0.48708582,-0.13895082,0.03078058,-0.07324052,-0.2582500199999999,-5.924054519999999,32.0402018,-26.89800114,5.89466202,0.3423308614,-0.5290138999999999,-0.3671200372,-0.1156818031999999,-0.0828371886,-0.2256814478,0.00375
03:38:06,0.516474925,-0.468671525,-0.138683525,0.031606225,-0.0750889,-0.257104775,-5.94793115,32.038988499999995,-26.907537425,5.984257775000001,0.33166386925,-0.512176825,-0.3631888665,-0.1141611665,-0.08437852325,-0.22479399975,0.00375
03:38:06,0.50517791,-0.4502572299999999,-0.13841623,0.03243187,-0.07693728,-0.25595953,-5.97180778,32.0377752,-26.91707371,6.07385353,0.3209968771,-0.4953397499999999,-0.3592576958,-0.1126405298,-0.0859198579,-0.2239065517,0.00375
03:38:06,0.493880895,-0.431842935,-0.138148935,0.033257515,-0.07878566,-0.254814285,-5.99568441,32.036561899999995,-26.926609995,6.163449285,0.31032988495,-0.478502675,-0.3553265251,-0.1111198930999999,-0.08746119255,-0.22301910365,0.00375
03:38:06,0.48258388,-0.41342864,-0.13788164,0.03408316,-0.08063404,-0.2536690399999999,-6.019561039999999,32.0353486,-26.93614628,6.25304504,0.2996628928,-0.4616655999999999,-0.3513953544,-0.1095992564,-0.0890025272,-0.2221316556,0.00375
03:38:06,0.471286865,-0.395014345,-0.137614345,0.034908805,-0.08248242,-0.252523795,-6.043437669999999,32.0341353,-26.945682565,6.342640795,0.28899590065,-0.4448285249999999,-0.3474641837,-0.1080786196999999,-0.09054386185,-0.22124420755,0.00375
03:38:06,0.45998985,-0.3766000499999999,-0.13734705,0.03573445,-0.0843308,-0.25137855,-6.0673143,32.032922,-26.95521885,6.432236550000001,0.2783289085,-0.4279914499999999,-0.343533013,-0.106557983,-0.0920851965,-0.2203567595,0.00375
03:38:06,0.448692835,-0.358185755,-0.137079755,0.036560095,-0.08617918,-0.2502333049999999,-6.09119093,32.0317087,-26.964755135,6.521832305,0.26766191635,-0.4111543749999999,-0.3396018423,-0.1050373463,-0.09362653115,-0.21946931145,0.00375
03:38:06,0.43739582,-0.3397714599999999,-0.13681246,0.03738574,-0.08802756,-0.2490880599999999,-6.11506756,32.0304954,-26.97429142,6.611428060000001,0.2569949242,-0.3943173,-0.3356706716,-0.1035167095999999,-0.0951678658,-0.2185818634,0.00375
03:38:06,0.4260988050000001,-0.321357165,-0.136545165,0.038211385,-0.08987594,-0.2479428149999999,-6.138944189999999,32.0292821,-26.983827705,6.701023815,0.24632793205,-0.3774802249999999,-0.3317395009,-0.1019960729,-0.09670920045,-0.21769441535,0.00375
03:38:06,0.41480179,-0.30294287,-0.13627787,0.03903703,-0.09172432,-0.24679757,-6.162820819999999,32.0280688,-26.99336399,6.7906195700000005,0.2356609399,-0.3606431499999999,-0.3278083302,-0.1004754361999999,-0.0982505351,-0.2168069673,0.00375
03:38:06,0.403504775,-0.284528575,-0.136010575,0.039862675,-0.0935727,-0.2456523249999999,-6.18669745,32.0268555,-27.002900275,6.880215325,0.22499394775,-0.3438060749999999,-0.3238771595,-0.0989547995,-0.09979186975,-0.21591951925,0.00375
03:38:06,0.39220776,-0.26611428,-0.13574328,0.04068832,-0.09542108,-0.24450708,-6.21057408,32.0256422,-27.01243656,6.96981108,0.2143269556,-0.3269689999999999,-0.3199459888,-0.0974341628,-0.1013332044,-0.2150320712,0.00375
03:38:06,0.380910745,-0.2476999849999999,-0.135475985,0.041513965,-0.09726946,-0.2433618349999999,-6.23445071,32.0244289,-27.021972845,7.059406835000001,0.20365996345,-0.310131925,-0.3160148181,-0.0959135261,-0.1028745390499999,-0.21414462315,0.00375
03:38:06,0.3696137300000001,-0.22928569,-0.13520869,0.04233961,-0.09911784,-0.2422165899999999,-6.258327339999999,32.0232156,-27.03150913,7.14900259,0.1929929713,-0.2932948499999999,-0.3120836474,-0.0943928894,-0.1044158737,-0.2132571751,0.00375
03:38:06,0.358316715,-0.2108713949999999,-0.134941395,0.043165255,-0.10096622,-0.241071345,-6.282203969999999,32.0220023,-27.041045415,7.238598345000001,0.18232597915,-0.2764577749999999,-0.3081524767,-0.0928722526999999,-0.10595720835,-0.21236972705,0.00375
03:38:06,0.3470197,-0.1924571,-0.1346741,0.0439909,-0.1028146,-0.2399260999999999,-6.3060806,32.020789,-27.0505817,7.3281941,0.171658987,-0.2596206999999999,-0.304221306,-0.091351616,-0.107498543,-0.211482279,0.00375
03:38:06,0.335722685,-0.1740428049999999,-0.134406805,0.044816545,-0.10466298,-0.238780855,-6.32995723,32.0195757,-27.060117985,7.417789855,0.16099199485,-0.2427836249999999,-0.3002901353,-0.0898309793,-0.10903987765,-0.21059483095,0.00375
03:38:06,0.32442567,-0.15562851,-0.13413951,0.04564219,-0.10651136,-0.23763561,-6.35383386,32.0183624,-27.06965427,7.50738561,0.1503250027,-0.2259465499999999,-0.2963589646,-0.0883103426,-0.1105812123,-0.2097073829,0.00375
03:38:06,0.313128655,-0.1372142149999999,-0.133872215,0.046467835,-0.10835974,-0.2364903649999999,-6.377710489999999,32.0171491,-27.079190555,7.596981365,0.13965801055,-0.2091094749999999,-0.2924277939,-0.0867897058999999,-0.11212254695,-0.20881993485,0.00375
03:38:06,0.30183164,-0.1187999199999999,-0.13360492,0.04729348,-0.1102081199999999,-0.23534512,-6.401587119999999,32.0159358,-27.08872684,7.686577120000001,0.1289910184,-0.1922723999999999,-0.2884966232,-0.0852690691999999,-0.1136638815999999,-0.2079324868,0.00375
03:38:06,0.290534625,-0.1003856249999999,-0.133337625,0.048119125,-0.1120565,-0.2341998749999999,-6.42546375,32.0147225,-27.098263125,7.776172875,0.11832402625,-0.1754353249999999,-0.2845654525,-0.0837484325,-0.1152052162499999,-0.20704503875,0.00375
03:38:06,0.2792376100000001,-0.0819713299999999,-0.13307033,0.04894477,-0.11390488,-0.2330546299999999,-6.44934038,32.0135092,-27.10779941,7.86576863,0.1076570341,-0.1585982499999999,-0.2806342818,-0.0822277958,-0.1167465509,-0.2061575907,0.00375
03:38:06,0.267940595,-0.0635570349999999,-0.132803035,0.049770415,-0.11575326,-0.231909385,-6.47321701,32.0122959,-27.117335695,7.955364385,0.09699004195,-0.1417611749999999,-0.2767031111,-0.0807071591,-0.11828788555,-0.20527014265,0.00375
03:38:06,0.25664358,-0.0451427399999999,-0.13253574,0.05059606,-0.11760164,-0.2307641399999999,-6.497093639999999,32.0110826,-27.12687198,8.04496014,0.0863230498,-0.1249240999999999,-0.2727719404,-0.0791865223999999,-0.1198292202,-0.2043826946,0.00375
03:38:06,0.245346565,-0.0267284449999999,-0.132268445,0.051421705,-0.11945002,-0.229618895,-6.520970269999999,32.0098693,-27.136408265,8.134555895,0.07565605765,-0.1080870249999999,-0.2688407697,-0.0776658856999999,-0.12137055485,-0.20349524655,0.00375
03:38:06,0.23404955,-0.00831415,-0.13200115,0.05224735,-0.1212984,-0.2284736499999999,-6.5448469,32.008655999999995,-27.14594455,8.22415165,0.0649890655,-0.0912499499999999,-0.264909599,-0.076145249,-0.1229118895,-0.2026077985,0.00375
03:38:06,0.222752535,0.010100145,-0.131733855,0.053072995,-0.12314678,-0.2273284049999999,-6.56872353,32.0074427,-27.155480835,8.313747405,0.05432207335,-0.0744128749999999,-0.2609784283,-0.0746246123,-0.12445322415,-0.20172035045,0.00375
03:38:06,0.21145552,0.02851444,-0.13146656,0.05389864,-0.12499516,-0.22618316,-6.59260016,32.006229399999995,-27.16501712,8.40334316,0.0436550812,-0.0575757999999999,-0.2570472576,-0.0731039756,-0.1259945588,-0.2008329024,0.00375
03:38:06,0.200158505,0.046928735,-0.131199265,0.054724285,-0.12684354,-0.2250379149999999,-6.616476789999999,32.0050161,-27.174553405,8.492938915,0.03298808905,-0.0407387249999999,-0.2531160869,-0.0715833388999999,-0.12753589345,-0.19994545435,0.00375
03:38:06,0.18886149,0.06534303,-0.13093197,0.05554993,-0.12869192,-0.22389267,-6.640353419999999,32.003802799999995,-27.18408969,8.582534670000001,0.0223210969,-0.0239016499999999,-0.2491849162,-0.0700627022,-0.1290772281,-0.1990580063,0.00375
03:38:06,0.177564475,0.083757325,-0.130664675,0.056375575,-0.1305403,-0.222747425,-6.66423005,32.0025895,-27.193625975,8.672130425,0.01165410475,-0.0070645749999999,-0.2452537455,-0.0685420655,-0.13061856275,-0.19817055825,0.00375
03:38:06,0.1662674600000001,0.10217162,-0.13039738,0.05720122,-0.1323886799999999,-0.2216021799999999,-6.68810668,32.0013762,-27.20316226,8.76172618,0.0009871126,0.0097725,-0.2413225748,-0.0670214288,-0.1321598974,-0.1972831102,0.00375
03:38:06,0.154970445,0.120585915,-0.130130085,0.058026865,-0.13423706,-0.220456935,-6.71198331,32.0001629,-27.212698545,8.851321935000001,-0.0096798795499999,0.026609575,-0.2373914041,-0.0655007921,-0.13370123205,-0.1963956621499999,0.00375
03:38:06,0.14367343,0.13900021,-0.12986279,0.05885251,-0.13608544,-0.21931169,-6.735859939999999,31.9989496,-27.22223483,8.940917690000001,-0.0203468716999999,0.04344665,-0.2334602334,-0.0639801553999999,-0.1352425667,-0.1955082141,0.00375
03:38:06,0.132376415,0.1574145049999999,-0.129595495,0.059678155,-0.1379338199999999,-0.218166445,-6.759736569999999,31.9977363,-27.231771115,9.030513445,-0.0310138638499999,0.060283725,-0.2295290627,-0.0624595186999999,-0.13678390135,-0.19462076605,0.00375
03:38:06,0.1210794,0.1758288,-0.1293282,0.0605037999999999,-0.1397822,-0.2170212,-6.7836132,31.996523,-27.2413074,9.1201092,-0.0416808559999999,0.0771208000000001,-0.225597892,-0.060938882,-0.138325236,-0.193733318,0.00375
03:38:06,0.1097823850000001,0.194243095,-0.129060905,0.0613294449999999,-0.14163058,-0.2158759549999999,-6.80748983,31.9953097,-27.250843685,9.209704955,-0.0523478481499999,0.093957875,-0.2216667213,-0.0594182453,-0.13986657065,-0.19284586995,0.00375
03:38:06,0.09848537,0.21265739,-0.12879361,0.0621550899999999,-0.14347896,-0.21473071,-6.83136646,31.9940964,-27.26037997,9.29930071,-0.0630148402999999,0.11079495,-0.2177355506,-0.0578976086,-0.1414079053,-0.1919584219,0.00375
03:38:06,0.087188355,0.231071685,-0.128526315,0.062980735,-0.14532734,-0.2135854649999999,-6.85524309,31.9928831,-27.269916255,9.388896465,-0.0736818324499999,0.127632025,-0.2138043799,-0.0563769719,-0.14294923995,-0.19107097385,0.00375
03:38:06,0.07589134,0.24948598,-0.12825902,0.06380638,-0.14717572,-0.2124402199999999,-6.879119719999999,31.9916698,-27.27945254,9.47849222,-0.0843488245999999,0.1444691,-0.2098732092,-0.0548563351999999,-0.1444905745999999,-0.1901835258,0.00375
03:38:06,0.064594325,0.267900275,-0.127991725,0.064632025,-0.1490241,-0.211294975,-6.90299635,31.9904565,-27.288988825,9.568087975,-0.0950158167499999,0.161306175,-0.2059420385,-0.0533356985,-0.1460319092499999,-0.18929607775,0.00375
03:38:06,0.05329731,0.28631457,-0.12772443,0.06545767,-0.15087248,-0.2101497299999999,-6.92687298,31.9892432,-27.29852511,9.65768373,-0.1056828088999999,0.1781432500000001,-0.2020108678,-0.0518150617999999,-0.1475732438999999,-0.1884086297,0.00375
03:38:06,0.0420002950000001,0.304728865,-0.127457135,0.066283315,-0.15272086,-0.209004485,-6.95074961,31.9880299,-27.308061395,9.747279485,-0.1163498010499999,0.194980325,-0.1980796971,-0.0502944251,-0.14911457855,-0.18752118165,0.00375
03:38:06,0.0307032800000001,0.3231431600000001,-0.12718984,0.06710896,-0.15456924,-0.20785924,-6.974626239999999,31.9868166,-27.31759768,9.83687524,-0.1270167931999999,0.2118174,-0.1941485264,-0.0487737883999999,-0.1506559132,-0.1866337336,0.00375
03:38:06,0.019406265,0.341557455,-0.126922545,0.067934605,-0.1564176199999999,-0.2067139949999999,-6.998502869999999,31.9856033,-27.327133965,9.926470995,-0.1376837853499999,0.228654475,-0.1902173557,-0.0472531516999999,-0.15219724785,-0.18574628555,0.00375
03:38:06,0.00810925,0.35997175,-0.12665525,0.06876025,-0.158266,-0.20556875,-7.0223795,31.98439,-27.33667025,10.01606675,-0.1483507774999999,0.24549155,-0.186286185,-0.045732515,-0.1537385825,-0.1848588374999999,0.00375
03:38:06,-0.0031877649999999,0.378386045,-0.126387955,0.069585895,-0.16011438,-0.204423505,-7.04625613,31.9831767,-27.346206535,10.105662505000002,-0.1590177696499999,0.2623286250000001,-0.1823550143,-0.0442118782999999,-0.15527991715,-0.18397138945,0.00375
03:38:06,-0.0144847799999998,0.3968003400000001,-0.12612066,0.07041154,-0.1619627599999999,-0.20327826,-7.07013276,31.9819634,-27.35574282,10.19525826,-0.1696847617999999,0.2791657,-0.1784238436,-0.0426912416,-0.1568212518,-0.1830839414,0.00375
03:38:06,-0.0257817949999998,0.415214635,-0.125853365,0.071237185,-0.16381114,-0.202133015,-7.09400939,31.9807501,-27.365279105,10.284854015,-0.1803517539499999,0.296002775,-0.1744926729,-0.0411706048999999,-0.15836258645,-0.18219649335,0.00375
03:38:06,-0.0370788099999999,0.43362893,-0.12558607,0.07206283,-0.16565952,-0.2009877699999999,-7.117886019999999,31.9795368,-27.37481539,10.37444977,-0.1910187460999999,0.31283985,-0.1705615022,-0.0396499681999999,-0.1599039211,-0.1813090453,0.00375
03:38:06,-0.0483758249999999,0.4520432249999999,-0.125318775,0.072888475,-0.1675079,-0.199842525,-7.14176265,31.9783235,-27.384351675,10.464045525,-0.2016857382499999,0.329676925,-0.1666303315,-0.0381293315,-0.16144525575,-0.18042159725,0.00375
03:38:06,-0.0596728399999999,0.4704575200000001,-0.12505148,0.07371412,-0.16935628,-0.1986972799999999,-7.16563928,31.9771102,-27.39388796,10.55364128,-0.2123527303999999,0.346514,-0.1626991608,-0.0366086947999999,-0.1629865904,-0.1795341492,0.00375
03:38:06,-0.0709698549999998,0.488871815,-0.124784185,0.074539765,-0.17120466,-0.197552035,-7.18951591,31.9758969,-27.403424245,10.643237035,-0.2230197225499999,0.3633510750000001,-0.1587679901,-0.0350880581,-0.16452792505,-0.17864670115,0.00375
03:38:06,-0.0822668699999998,0.5072861100000001,-0.12451689,0.07536541,-0.17305304,-0.19640679,-7.213392539999999,31.9746836,-27.41296053,10.73283279,-0.2336867146999999,0.38018815,-0.1548368194,-0.0335674213999999,-0.1660692597,-0.1777592531,0.00375
03:38:06,-0.0935638849999999,0.525700405,-0.124249595,0.076191055,-0.17490142,-0.1952615449999999,-7.237269169999999,31.9734703,-27.422496815,10.822428545,-0.2443537068499999,0.397025225,-0.1509056487,-0.0320467847,-0.1676105943499999,-0.17687180505,0.00375
03:38:06,-0.1048608999999999,0.5441147,-0.1239823,0.0770167,-0.1767498,-0.1941163,-7.261145799999999,31.972257,-27.4320331,10.9120243,-0.2550206989999999,0.4138623000000001,-0.146974478,-0.030526148,-0.1691519289999999,-0.1759843569999999,0.00375
03:38:06,-0.1161579149999999,0.5625289950000001,-0.123715005,0.077842345,-0.17859818,-0.192971055,-7.28502243,31.9710437,-27.441569385,11.001620055,-0.2656876911499999,0.4306993750000001,-0.1430433073,-0.0290055112999999,-0.1706932636499999,-0.17509690895,0.00375
03:38:06,-0.1274549299999998,0.58094329,-0.12344771,0.07866799,-0.18044656,-0.1918258099999999,-7.30889906,31.9698304,-27.45110567,11.09121581,-0.2763546832999999,0.4475364500000001,-0.1391121366,-0.0274848746,-0.1722345982999999,-0.1742094609,0.00375
03:38:06,-0.1387519449999998,0.5993575850000001,-0.123180415,0.0794936349999999,-0.18229494,-0.190680565,-7.33277569,31.9686171,-27.460641955,11.180811565,-0.2870216754499999,0.464373525,-0.1351809659,-0.0259642378999999,-0.17377593295,-0.1733220128499999,0.00375
03:38:06,-0.1500489599999999,0.61777188,-0.12291312,0.0803192799999999,-0.18414332,-0.18953532,-7.356652319999999,31.9674038,-27.47017824,11.27040732,-0.2976886675999999,0.4812106,-0.1312497952,-0.0244436011999999,-0.1753172676,-0.1724345648,0.00375
03:38:06,-0.1613459749999999,0.636186175,-0.122645825,0.0811449249999999,-0.1859916999999999,-0.188390075,-7.380528949999999,31.9661905,-27.479714525,11.360003075000002,-0.3083556597499999,0.498047675,-0.1273186245,-0.0229229645,-0.17685860225,-0.17154711675,0.00375
03:38:06,-0.1726429899999999,0.6546004700000001,-0.12237853,0.0819705699999999,-0.18784008,-0.1872448299999999,-7.40440558,31.9649772,-27.48925081,11.44959883,-0.3190226518999999,0.51488475,-0.1233874538,-0.0214023277999999,-0.1783999369,-0.1706596687,0.00375
03:38:06,-0.1839400049999998,0.673014765,-0.122111235,0.0827962149999999,-0.18968846,-0.186099585,-7.42828221,31.9637639,-27.498787095,11.539194585,-0.3296896440499999,0.531721825,-0.1194562831,-0.0198816911,-0.17994127155,-0.16977222065,0.00375
03:38:06,-0.1952370199999998,0.6914290600000002,-0.12184394,0.0836218599999999,-0.1915368399999999,-0.18495434,-7.452158839999999,31.9625506,-27.50832338,11.62879034,-0.3403566361999999,0.5485589,-0.1155251124,-0.0183610543999999,-0.1814826062,-0.1688847726,0.00375
03:38:06,-0.2065340349999999,0.7098433550000001,-0.121576645,0.0844475049999999,-0.19338522,-0.1838090949999999,-7.476035469999999,31.9613373,-27.517859665,11.718386095,-0.3510236283499999,0.5653959749999999,-0.1115939417,-0.0168404177,-0.18302394085,-0.16799732455,0.00375
03:38:06,-0.2178310499999999,0.72825765,-0.12130935,0.0852731499999999,-0.1952336,-0.18266385,-7.499912099999999,31.960124,-27.52739595,11.80798185,-0.3616906204999999,0.5822330500000001,-0.1076627709999999,-0.015319781,-0.1845652755,-0.1671098765,0.00375
03:38:06,-0.2291280649999999,0.7466719450000001,-0.121042055,0.0860987949999999,-0.19708198,-0.181518605,-7.52378873,31.9589107,-27.536932235,11.897577605,-0.3723576126499999,0.5990701250000001,-0.1037316003,-0.0137991442999999,-0.18610661015,-0.16622242845,0.00375
03:38:06,-0.2404250799999998,0.76508624,-0.12077476,0.0869244399999999,-0.1989303599999999,-0.1803733599999999,-7.54766536,31.9576974,-27.54646852,11.98717336,-0.3830246047999999,0.6159072000000001,-0.0998004296,-0.0122785076,-0.1876479448,-0.1653349804,0.00375
03:38:06,-0.2517220949999998,0.7835005350000002,-0.120507465,0.0877500849999999,-0.20077874,-0.179228115,-7.57154199,31.9564841,-27.556004805,12.076769115,-0.3936915969499999,0.6327442750000001,-0.0958692589,-0.0107578708999999,-0.18918927945,-0.1644475323499999,0.00375
03:38:06,-0.2630191099999999,0.8019148300000001,-0.12024017,0.0885757299999999,-0.20262712,-0.17808287,-7.595418619999999,31.9552708,-27.56554109,12.16636487,-0.4043585890999999,0.6495813500000001,-0.0919380882,-0.0092372342,-0.1907306140999999,-0.1635600843,0.00375
03:38:06,-0.2743161249999999,0.820329125,-0.119972875,0.0894013749999999,-0.2044754999999999,-0.176937625,-7.619295249999999,31.9540575,-27.575077375,12.255960625,-0.4150255812499999,0.666418425,-0.0880069175,-0.0077165975,-0.1922719487499999,-0.16267263625,0.00375
03:38:06,-0.2856131399999999,0.8387434200000001,-0.11970558,0.09022702,-0.20632388,-0.17579238,-7.64317188,31.9528442,-27.58461366,12.34555638,-0.4256925733999999,0.6832555,-0.0840757468,-0.0061959607999999,-0.1938132833999999,-0.1617851881999999,0.00375
03:38:06,-0.2969101549999998,0.857157715,-0.119438285,0.091052665,-0.20817226,-0.174647135,-7.66704851,31.9516309,-27.594149945,12.435152135,-0.4363595655499999,0.700092575,-0.0801445761,-0.0046753241,-0.1953546180499999,-0.16089774015,0.00375
03:38:06,-0.3082071699999998,0.87557201,-0.11917099,0.09187831,-0.2100206399999999,-0.17350189,-7.690925139999999,31.9504176,-27.60368623,12.52474789,-0.4470265576999999,0.71692965,-0.0762134053999999,-0.0031546873999999,-0.1968959527,-0.1600102921,0.00375
03:38:06,-0.3195041849999999,0.8939863050000001,-0.118903695,0.092703955,-0.21186902,-0.172356645,-7.714801769999999,31.9492043,-27.613222515,12.614343645,-0.4576935498499999,0.733766725,-0.0722822347,-0.0016340507,-0.19843728735,-0.15912284405,0.00375
03:38:06,-0.3308011999999999,0.9124006,-0.1186364,0.0935296,-0.2137174,-0.1712114,-7.738678399999999,31.947991,-27.6227588,12.7039394,-0.4683605419999999,0.7506038000000002,-0.068351064,-0.000113414,-0.199978622,-0.158235396,0.00375
03:38:06,-0.3420982149999999,0.930814895,-0.118369105,0.094355245,-0.2155657799999999,-0.170066155,-7.76255503,31.9467777,-27.632295085,12.793535155,-0.4790275341499999,0.7674408750000001,-0.0644198933,0.0014072227,-0.20151995665,-0.15734794795,0.00375
03:38:06,-0.3533952299999998,0.94922919,-0.11810181,0.09518089,-0.21741416,-0.1689209099999999,-7.78643166,31.9455644,-27.64183137,12.88313091,-0.4896945262999999,0.7842779500000001,-0.0604887226,0.0029278593999999,-0.2030612913,-0.1564604999,0.00375
03:38:06,-0.3646922449999998,0.967643485,-0.117834515,0.096006535,-0.21926254,-0.167775665,-7.81030829,31.9443511,-27.651367655,12.972726665,-0.5003615184499999,0.8011150250000001,-0.0565575519,0.0044484961,-0.20460262595,-0.1555730518499999,0.00375
03:38:06,-0.3759892599999999,0.98605778,-0.11756722,0.09683218,-0.22111092,-0.16663042,-7.83418492,31.9431378,-27.66090394,13.06232242,-0.5110285105999999,0.8179521000000001,-0.0526263812,0.0059691327999999,-0.2061439606,-0.1546856038,0.00375
03:38:06,-0.3872862749999999,1.004472075,-0.117299925,0.097657825,-0.2229592999999999,-0.1654851749999999,-7.858061549999999,31.9419245,-27.670440225,13.151918175,-0.5216955027499999,0.834789175,-0.0486952105,0.0074897694999999,-0.20768529525,-0.15379815575,0.00375
03:38:06,-0.3985832899999999,1.0228863700000002,-0.11703263,0.09848347,-0.22480768,-0.16433993,-7.88193818,31.9407112,-27.67997651,13.24151393,-0.5323624948999999,0.85162625,-0.0447640397999999,0.0090104061999999,-0.2092266299,-0.1529107076999999,0.00375
03:38:06,-0.4098803049999998,1.041300665,-0.116765335,0.099309115,-0.22665606,-0.163194685,-7.905814809999999,31.9394979,-27.689512795,13.331109685,-0.5430294870499999,0.868463325,-0.0408328691,0.0105310429,-0.2107679645499999,-0.15202325965,0.00375
03:38:06,-0.4211773199999998,1.05971496,-0.11649804,0.10013476,-0.2285044399999999,-0.16204944,-7.929691439999999,31.9382846,-27.69904908,13.42070544,-0.5536964791999999,0.8853004,-0.0369016984,0.0120516796,-0.2123092991999999,-0.1511358116,0.00375
03:38:06,-0.4324743349999999,1.078129255,-0.116230745,0.100960405,-0.23035282,-0.160904195,-7.953568069999999,31.9370713,-27.708585365,13.510301195,-0.5643634713499999,0.902137475,-0.0329705277,0.0135723162999999,-0.2138506338499999,-0.1502483635499999,0.00375
03:38:06,-0.4437713499999999,1.09654355,-0.11596345,0.10178605,-0.2322012,-0.15975895,-7.977444699999999,31.935858,-27.71812165,13.59989695,-0.5750304634999999,0.91897455,-0.029039357,0.0150929529999999,-0.2153919684999999,-0.1493609155,0.00375
03:38:06,-0.4550683649999999,1.1149578450000002,-0.115696155,0.102611695,-0.2340495799999999,-0.158613705,-8.00132133,31.9346447,-27.727657935,13.689492705,-0.5856974556499999,0.935811625,-0.0251081863,0.0166135896999999,-0.2169333031499999,-0.14847346745,0.00375
03:38:06,-0.4663653799999999,1.13337214,-0.11542886,0.10343734,-0.23589796,-0.15746846,-8.02519796,31.9334314,-27.73719422,13.77908846,-0.5963644477999999,0.9526487,-0.0211770156,0.0181342264,-0.2184746377999999,-0.1475860194,0.00375
03:38:06,-0.4776623949999999,1.151786435,-0.115161565,0.104262985,-0.23774634,-0.156323215,-8.04907459,31.9322181,-27.746730505,13.868684215,-0.6070314399499999,0.969485775,-0.0172458449,0.0196548631,-0.2200159724499999,-0.1466985713499999,0.00375
03:38:06,-0.4889594099999997,1.17020073,-0.11489427,0.10508863,-0.2395947199999999,-0.15517797,-8.07295122,31.9310048,-27.75626679,13.95827997,-0.6176984320999999,0.98632285,-0.0133146741999999,0.0211754997999999,-0.2215573071,-0.1458111233,0.00375
03:38:06,-0.5002564249999998,1.188615025,-0.114626975,0.105914275,-0.2414431,-0.1540327249999999,-8.09682785,31.9297915,-27.765803075,14.047875725,-0.6283654242499999,1.003159925,-0.0093835035,0.0226961364999999,-0.22309864175,-0.14492367525,0.00375
03:38:06,-0.5115534399999998,1.2070293200000002,-0.11435968,0.10673992,-0.24329148,-0.15288748,-8.12070448,31.9285782,-27.77533936,14.13747148,-0.6390324163999999,1.019997,-0.0054523328,0.0242167732,-0.2246399764,-0.1440362271999999,0.00375
03:38:06,-0.5228504549999998,1.225443615,-0.114092385,0.107565565,-0.24513986,-0.151742235,-8.144581109999999,31.9273649,-27.784875645,14.227067235,-0.6496994085499999,1.036834075,-0.0015211621,0.0257374099,-0.22618131105,-0.14314877915,0.00375
03:38:06,-0.5341474699999998,1.24385791,-0.11382509,0.10839121,-0.2469882399999999,-0.15059699,-8.16845774,31.9261516,-27.79441193,14.31666299,-0.6603664006999999,1.05367115,0.0024100085999999,0.0272580466,-0.2277226457,-0.1422613311,0.00375
03:38:06,-0.5454444849999999,1.262272205,-0.113557795,0.109216855,-0.24883662,-0.149451745,-8.19233437,31.9249383,-27.803948215,14.406258745,-0.6710333928499999,1.070508225,0.0063411792999999,0.0287786832999999,-0.22926398035,-0.1413738830499999,0.00375
03:38:06,-0.5567414999999999,1.2806865,-0.1132905,0.1100425,-0.250685,-0.1483065,-8.216211,31.923725,-27.8134845,14.4958545,-0.6817003849999999,1.0873453,0.0102723499999999,0.0302993199999999,-0.230805315,-0.140486435,0.00375
03:38:06,-0.5680385149999999,1.299100795,-0.113023205,0.110868145,-0.25253338,-0.147161255,-8.24008763,31.9225117,-27.823020785,14.585450255,-0.6923673771499999,1.104182375,0.0142035206999999,0.0318199567,-0.23234664965,-0.13959898695,0.00375
03:38:06,-0.5793355299999999,1.31751509,-0.11275591,0.11169379,-0.25438176,-0.14601601,-8.26396426,31.9212984,-27.83255707,14.67504601,-0.7030343692999999,1.12101945,0.0181346914,0.0333405934,-0.2338879842999999,-0.1387115389,0.00375
03:38:06,-0.590632545,1.335929385,-0.112488615,0.112519435,-0.25623014,-0.144870765,-8.28784089,31.9200851,-27.842093355,14.764641765,-0.7137013614499998,1.137856525,0.0220658621,0.0348612301,-0.2354293189499999,-0.13782409085,0.00375
03:38:06,-0.6019295599999998,1.3543436800000002,-0.11222132,0.11334508,-0.25807852,-0.14372552,-8.31171752,31.9188718,-27.85162964,14.85423752,-0.7243683535999998,1.1546936,0.0259970327999999,0.0363818667999999,-0.2369706535999999,-0.1369366428,0.00375
03:38:06,-0.6132265749999998,1.372757975,-0.111954025,0.114170725,-0.2599269,-0.142580275,-8.335594149999999,31.9176585,-27.861165925,14.943833275,-0.7350353457499998,1.171530675,0.0299282034999999,0.0379025034999999,-0.2385119882499999,-0.13604919475,0.00375
03:38:06,-0.6245235899999998,1.39117227,-0.11168673,0.11499637,-0.26177528,-0.14143503,-8.359470779999999,31.9164452,-27.87070221,15.03342903,-0.7457023378999998,1.18836775,0.0338593741999999,0.0394231402,-0.2400533228999999,-0.1351617466999999,0.00375
03:38:06,-0.6358206049999998,1.409586565,-0.111419435,0.115822015,-0.26362366,-0.140289785,-8.383347409999999,31.9152319,-27.880238495,15.123024785,-0.7563693300499998,1.205204825,0.0377905449,0.0409437769,-0.2415946575499999,-0.1342742986499999,0.00375
03:38:06,-0.6471176199999998,1.42800086,-0.11115214,0.11664766,-0.26547204,-0.1391445399999999,-8.40722404,31.9140186,-27.88977478,15.21262054,-0.7670363221999998,1.2220419,0.0417217155999999,0.0424644136,-0.2431359921999999,-0.1333868506,0.00375
03:38:06,-0.6584146349999999,1.446415155,-0.110884845,0.117473305,-0.26732042,-0.137999295,-8.43110067,31.9128053,-27.899311065,15.302216295,-0.7777033143499998,1.238878975,0.0456528862999999,0.0439850502999999,-0.24467732685,-0.1324994025499999,0.00375
03:38:06,-0.6697116499999999,1.46482945,-0.11061755,0.11829895,-0.2691688,-0.13685405,-8.4549773,31.911592,-27.90884735,15.39181205,-0.7883703064999998,1.25571605,0.049584057,0.0455056869999999,-0.2462186615,-0.1316119545,0.00375
03:38:06,-0.6810086649999999,1.4832437450000002,-0.110350255,0.119124595,-0.27101718,-0.135708805,-8.47885393,31.9103787,-27.918383635,15.481407805,-0.7990372986499998,1.272553125,0.0535152277,0.0470263237,-0.24775999615,-0.13072450645,0.00375
03:38:06,-0.6923056799999999,1.50165804,-0.11008296,0.11995024,-0.27286556,-0.13456356,-8.50273056,31.9091654,-27.92791992,15.57100356,-0.8097042907999998,1.2893902,0.0574463983999999,0.0485469604,-0.2493013308,-0.1298370583999999,0.00375
03:38:06,-0.703602695,1.520072335,-0.109815665,0.120775885,-0.27471394,-0.133418315,-8.52660719,31.9079521,-27.937456205,15.660599315,-0.8203712829499998,1.306227275,0.0613775690999999,0.0500675971,-0.25084266545,-0.12894961035,0.00375
03:38:06,-0.7148997099999997,1.53848663,-0.10954837,0.12160153,-0.27656232,-0.13227307,-8.55048382,31.9067388,-27.94699249,15.75019507,-0.8310382750999998,1.32306435,0.0653087397999999,0.0515882337999999,-0.2523840001,-0.1280621623,0.00375
03:38:06,-0.7261967249999998,1.556900925,-0.109281075,0.122427175,-0.2784107,-0.131127825,-8.57436045,31.9055255,-27.956528775,15.839790825,-0.8417052672499998,1.339901425,0.0692399105,0.0531088704999999,-0.25392533475,-0.12717471425,0.00375
03:38:06,-0.7374937399999998,1.5753152200000002,-0.10901378,0.12325282,-0.28025908,-0.12998258,-8.59823708,31.9043122,-27.96606506,15.92938658,-0.8523722593999998,1.3567385,0.0731710811999999,0.0546295072,-0.2554666694,-0.1262872661999999,0.00375
03:38:06,-0.7487907549999998,1.5937295150000002,-0.108746485,0.124078465,-0.28210746,-0.128837335,-8.622113709999999,31.9030989,-27.975601345,16.018982335,-0.8630392515499998,1.373575575,0.0771022518999999,0.0561501439,-0.2570080040499999,-0.12539981815,0.00375
03:38:06,-0.7600877699999998,1.61214381,-0.10847919,0.12490411,-0.28395584,-0.12769209,-8.645990339999999,31.9018856,-27.98513763,16.10857809,-0.8737062436999998,1.39041265,0.0810334226,0.0576707806,-0.2585493386999999,-0.1245123700999999,0.00375
03:38:06,-0.7713847849999999,1.630558105,-0.108211895,0.125729755,-0.28580422,-0.126546845,-8.66986697,31.9006723,-27.994673915,16.198173845,-0.8843732358499998,1.407249725,0.0849645933,0.0591914172999999,-0.2600906733499999,-0.1236249220499999,0.00375
03:38:06,-0.7826817999999999,1.6489724,-0.1079446,0.1265553999999999,-0.2876526,-0.1254016,-8.6937436,31.899459,-28.0042102,16.2877696,-0.8950402279999998,1.4240868000000002,0.0888957639999999,0.0607120539999999,-0.2616320079999999,-0.1227374739999999,0.00375
03:38:06,-0.7939788149999999,1.6673866950000005,-0.107677305,0.127381045,-0.28950098,-0.124256355,-8.71762023,31.8982457,-28.013746485,16.377365355000002,-0.9057072201499998,1.440923875,0.0928269346999999,0.0622326907,-0.26317334265,-0.1218500259499999,0.00375
03:38:06,-0.8052758299999999,1.6858009900000002,-0.10741001,0.1282066899999999,-0.29134936,-0.12311111,-8.74149686,31.8970324,-28.02328277,16.46696111,-0.9163742122999998,1.4577609500000002,0.0967581053999999,0.0637533274,-0.2647146773,-0.1209625778999999,0.00375
03:38:06,-0.8165728449999999,1.704215285,-0.107142715,0.129032335,-0.29319774,-0.121965865,-8.76537349,31.8958191,-28.032819055,16.556556865,-0.9270412044499998,1.474598025,0.1006892761,0.0652739641,-0.26625601195,-0.1200751298499999,0.00375
03:38:06,-0.8278698599999997,1.72262958,-0.10687542,0.1298579799999999,-0.29504612,-0.12082062,-8.78925012,31.8946058,-28.04235534,16.646152620000002,-0.9377081965999998,1.4914351,0.1046204467999999,0.0667946007999999,-0.2677973466,-0.1191876817999999,0.00375
03:38:06,-0.8391668749999998,1.741043875,-0.106608125,0.130683625,-0.2968945,-0.119675375,-8.813126749999999,31.8933925,-28.051891625,16.735748375,-0.9483751887499998,1.508272175,0.1085516174999999,0.0683152374999999,-0.26933868125,-0.1183002337499999,0.00375
03:38:06,-0.8504638899999998,1.7594581700000005,-0.10634083,0.1315092699999999,-0.29874288,-0.11853013,-8.837003379999999,31.8921792,-28.06142791,16.825344129999998,-0.9590421808999998,1.52510925,0.1124827882,0.0698358742,-0.2708800159,-0.1174127857,0.00375
03:38:06,-0.8617609049999998,1.7778724650000002,-0.106073535,0.132334915,-0.3005912599999999,-0.117384885,-8.860880009999999,31.8909659,-28.070964195,16.914939885000003,-0.9697091730499998,1.5419463249999998,0.1164139589,0.0713565109,-0.27242135055,-0.1165253376499999,0.00375
03:38:06,-0.8730579199999998,1.79628676,-0.10580624,0.1331605599999999,-0.30243964,-0.11623964,-8.884756639999999,31.8897526,-28.08050048,17.00453564,-0.9803761651999998,1.5587834,0.1203451295999999,0.0728771476,-0.2739626852,-0.1156378895999999,0.00375
03:38:06,-0.8843549349999998,1.814701055,-0.105538945,0.133986205,-0.30428802,-0.115094395,-8.90863327,31.8885393,-28.090036765,17.094131394999998,-0.9910431573499998,1.5756204750000002,0.1242763003,0.0743977842999999,-0.27550401985,-0.1147504415499999,0.00375
03:38:06,-0.8956519499999999,1.83311535,-0.10527165,0.1348118499999999,-0.3061364,-0.11394915,-8.9325099,31.887326,-28.09957305,17.183727150000003,-1.0017101494999998,1.59245755,0.1282074709999999,0.0759184209999999,-0.2770453545,-0.1138629934999999,0.00375
03:38:06,-0.906948965,1.8515296450000005,-0.105004355,0.135637495,-0.30798478,-0.112803905,-8.95638653,31.8861127,-28.109109335,17.273322905,-1.0123771416499998,1.6092946250000002,0.1321386417,0.0774390577,-0.27858668915,-0.1129755454499999,0.00375
03:38:06,-0.91824598,1.86994394,-0.1047370599999999,0.1364631399999999,-0.30983316,-0.1116586599999999,-8.98026316,31.8848994,-28.11864562,17.36291866,-1.0230441337999998,1.6261317,0.1360698123999999,0.0789596944,-0.2801280237999999,-0.1120880973999999,0.00375
03:38:06,-0.9295429949999996,1.888358235,-0.104469765,0.137288785,-0.31168154,-0.110513415,-9.00413979,31.8836861,-28.128181905,17.452514415,-1.0337111259499998,1.6429687750000002,0.1400009830999999,0.0804803311,-0.2816693584499999,-0.1112006493499999,0.00375
03:38:06,-0.9408400099999996,1.90677253,-0.10420247,0.1381144299999999,-0.31352992,-0.10936817,-9.02801642,31.8824728,-28.13771819,17.54211017,-1.0443781180999998,1.65980585,0.1439321538,0.0820009677999999,-0.2832106930999999,-0.1103132012999999,0.00375
03:38:06,-0.9521370249999996,1.925186825,-0.103935175,0.138940075,-0.3153783,-0.108222925,-9.05189305,31.8812595,-28.147254475,17.631705925,-1.0550451102499998,1.676642925,0.1478633244999999,0.0835216044999999,-0.2847520277499999,-0.10942575325,0.00375
03:38:06,-0.9634340399999998,1.9436011200000003,-0.10366788,0.1397657199999999,-0.31722668,-0.10707768,-9.07576968,31.8800462,-28.15679076,17.72130168,-1.0657121023999998,1.69348,0.1517944952,0.0850422412,-0.2862933624,-0.1085383051999999,0.00375
03:38:06,-0.9747310549999998,1.962015415,-0.103400585,0.140591365,-0.3190750599999999,-0.105932435,-9.09964631,31.8788329,-28.166327045,17.810897435,-1.0763790945499998,1.710317075,0.1557256659,0.0865628779,-0.28783469705,-0.1076508571499999,0.00375
03:38:06,-0.9860280699999998,1.98042971,-0.10313329,0.1414170099999999,-0.32092344,-0.10478719,-9.12352294,31.8776196,-28.17586333,17.90049319,-1.0870460866999998,1.7271541499999998,0.1596568365999999,0.0880835146,-0.2893760317,-0.1067634090999999,0.00375
03:38:06,-0.9973250849999998,1.998844005,-0.102865995,0.142242655,-0.32277182,-0.103641945,-9.14739957,31.8764063,-28.185399615,17.990088945,-1.0977130788499998,1.743991225,0.1635880073,0.0896041512999999,-0.29091736635,-0.1058759610499999,0.00375
03:38:06,-1.0086220999999995,2.0172583,-0.1025987,0.1430682999999999,-0.3246201999999999,-0.1024967,-9.1712762,31.875193,-28.1949359,18.0796847,-1.1083800709999998,1.7608283000000002,0.167519178,0.0911247879999999,-0.292458701,-0.1049885129999999,0.00375
03:38:06,-1.019919115,2.0356725950000003,-0.102331405,0.143893945,-0.32646858,-0.101351455,-9.19515283,31.8739797,-28.204472185,18.169280455,-1.1190470631499998,1.777665375,0.1714503486999999,0.0926454247,-0.29400003565,-0.1041010649499999,0.00375
03:38:06,-1.0312161299999998,2.05408689,-0.10206411,0.1447195899999999,-0.32831696,-0.10020621,-9.21902946,31.8727664,-28.21400847,18.25887621,-1.1297140552999998,1.7945024500000002,0.1753815194,0.0941660614,-0.2955413703,-0.1032136169,0.00375
03:38:06,-1.0425131449999996,2.072501185,-0.101796815,0.145545235,-0.33016534,-0.099060965,-9.24290609,31.8715531,-28.223544755,18.348471965,-1.1403810474499998,1.811339525,0.1793126900999999,0.0956866981,-0.29708270495,-0.1023261688499999,0.00375
03:38:06,-1.0538101599999998,2.09091548,-0.10152952,0.1463708799999999,-0.3320137199999999,-0.09791572,-9.26678272,31.8703398,-28.23308104,18.43806772,-1.1510480395999998,1.8281766,0.1832438608,0.0972073347999999,-0.2986240396,-0.1014387207999999,0.00375
03:38:06,-1.0651071749999996,2.109329775,-0.101262225,0.147196525,-0.3338621,-0.096770475,-9.29065935,31.8691265,-28.242617325,18.527663475,-1.1617150317499998,1.845013675,0.1871750315,0.0987279714999999,-0.30016537425,-0.1005512727499999,0.00375
03:38:06,-1.07640419,2.1277440700000003,-0.10099493,0.1480221699999999,-0.33571048,-0.09562523,-9.31453598,31.8679132,-28.25215361,18.61725923,-1.1723820238999998,1.86185075,0.1911062021999999,0.1002486082,-0.3017067089,-0.0996638246999999,0.00375
03:38:06,-1.0877012049999997,2.146158365,-0.100727635,0.148847815,-0.3375588599999999,-0.094479985,-9.33841261,31.8666999,-28.261689895,18.706854985,-1.1830490160499998,1.878687825,0.1950373729,0.1017692449,-0.3032480435499999,-0.09877637665,0.00375
03:38:06,-1.09899822,2.16457266,-0.10046034,0.1496734599999999,-0.33940724,-0.09333474,-9.36228924,31.8654866,-28.27122618,18.79645074,-1.1937160081999998,1.8955249,0.1989685435999999,0.1032898816,-0.3047893781999999,-0.0978889285999999,0.00375
03:38:06,-1.1102952349999995,2.182986955,-0.100193045,0.150499105,-0.34125562,-0.092189495,-9.38616587,31.8642733,-28.280762465,18.886046495,-1.2043830003499998,1.912361975,0.2028997142999999,0.1048105182999999,-0.3063307128499999,-0.0970014805499999,0.00375
03:38:06,-1.12159225,2.20140125,-0.09992575,0.1513247499999999,-0.3431039999999999,-0.09104425,-9.4100425,31.86306,-28.29029875,18.97564225,-1.2150499924999998,1.92919905,0.206830885,0.1063311549999999,-0.3078720474999999,-0.0961140324999999,0.00375
03:38:06,-1.1328892649999998,2.219815545,-0.099658455,0.152150395,-0.34495238,-0.089899005,-9.43391913,31.8618467,-28.299835035,19.065238005,-1.2257169846499998,1.946036125,0.2107620556999999,0.1078517917,-0.3094133821499999,-0.0952265844499999,0.00375
03:38:06,-1.14418628,2.23822984,-0.09939116,0.15297604,-0.34680076,-0.08875376,-9.45779576,31.8606334,-28.30937132,19.15483376,-1.2363839767999998,1.9628732,0.2146932264,0.1093724284,-0.3109547168,-0.0943391364,0.00375
03:38:06,-1.1554832949999998,2.256644135,-0.099123865,0.153801685,-0.3486491399999999,-0.087608515,-9.48167239,31.8594201,-28.318907605,19.244429515,-1.2470509689499998,1.979710275,0.2186243971,0.1108930651,-0.31249605145,-0.0934516883499999,0.00375
03:38:06,-1.1667803099999996,2.27505843,-0.09885657,0.15462733,-0.35049752,-0.08646327,-9.50554902,31.8582068,-28.32844389,19.33402527,-1.2577179610999998,1.99654735,0.2225555677999999,0.1124137017999999,-0.3140373861,-0.0925642402999999,0.00375
03:38:06,-1.1780773249999998,2.293472725,-0.098589275,0.155452975,-0.3523459,-0.085318025,-9.52942565,31.8569935,-28.337980175,19.423621025000003,-1.2683849532499998,2.013384425,0.2264867385,0.1139343384999999,-0.31557872075,-0.0916767922499999,0.00375
03:38:06,-1.1893743399999996,2.31188702,-0.09832198,0.15627862,-0.35419428,-0.08417278,-9.55330228,31.8557802,-28.34751646,19.51321678,-1.2790519453999998,2.0302215,0.2304179092,0.1154549752,-0.3171200554,-0.0907893441999999,0.00375
03:38:06,-1.200671355,2.3303013150000003,-0.098054685,0.157104265,-0.3560426599999999,-0.083027535,-9.57717891,31.8545669,-28.357052745,19.602812535,-1.2897189375499998,2.0470585750000003,0.2343490798999999,0.1169756119,-0.31866139005,-0.08990189615,0.00375
03:38:06,-1.2119683699999997,2.34871561,-0.09778739,0.15792991,-0.35789104,-0.08188229,-9.60105554,31.8533536,-28.36658903,19.69240829,-1.3003859296999998,2.06389565,0.2382802506,0.1184962485999999,-0.3202027247,-0.0890144480999999,0.00375
03:38:06,-1.223265385,2.367129905,-0.097520095,0.158755555,-0.35973942,-0.080737045,-9.62493217,31.8521403,-28.376125315,19.782004045,-1.3110529218499998,2.080732725,0.2422114212999999,0.1200168852999999,-0.32174405935,-0.0881270000499999,0.00375
03:38:06,-1.2345623999999995,2.3855442,-0.0972528,0.1595812,-0.3615877999999999,-0.0795918,-9.6488088,31.850927,-28.3856616,19.8715998,-1.3217199139999998,2.0975698000000005,0.246142592,0.1215375219999999,-0.323285394,-0.087239552,0.00375
03:38:06,-1.245859415,2.403958495,-0.096985505,0.160406845,-0.36343618,-0.078446555,-9.67268543,31.8497137,-28.395197885,19.961195555,-1.3323869061499998,2.114406875,0.2500737627,0.1230581587,-0.32482672865,-0.0863521039499999,0.00375
03:38:06,-1.2571564299999998,2.4223727900000003,-0.09671821,0.16123249,-0.36528456,-0.07730131,-9.69656206,31.8485004,-28.40473417,20.05079131,-1.3430538982999998,2.13124395,0.2540049333999999,0.1245787954,-0.3263680632999999,-0.0854646558999999,0.00375
03:38:06,-1.2684534449999996,2.440787085,-0.096450915,0.162058135,-0.3671329399999999,-0.076156065,-9.72043869,31.8472871,-28.414270455,20.140387065,-1.3537208904499998,2.148081025,0.2579361041,0.1260994321,-0.3279093979499999,-0.0845772078499999,0.00375
03:38:06,-1.2797504599999998,2.45920138,-0.09618362,0.16288378,-0.36898132,-0.07501082,-9.74431532,31.8460738,-28.42380674,20.22998282,-1.3643878825999998,2.1649181000000004,0.2618672747999999,0.1276200687999999,-0.3294507325999999,-0.0836897597999999,0.00375
03:38:06,-1.2910474749999996,2.477615675,-0.095916325,0.163709425,-0.3708297,-0.073865575,-9.76819195,31.8448605,-28.433343025,20.319578575,-1.3750548747499998,2.181755175,0.2657984455,0.1291407054999999,-0.3309920672499999,-0.08280231175,0.00375
03:38:06,-1.30234449,2.49602997,-0.09564903,0.16453507,-0.3726780799999999,-0.07272033,-9.79206858,31.8436472,-28.44287931,20.40917433,-1.3857218668999998,2.19859225,0.2697296162,0.1306613422,-0.3325334018999999,-0.0819148636999999,0.00375
03:38:06,-1.3136415049999997,2.5144442650000003,-0.095381735,0.165360715,-0.37452646,-0.071575085,-9.81594521,31.8424339,-28.452415595,20.498770085,-1.3963888590499998,2.215429325,0.2736607868999999,0.1321819788999999,-0.33407473655,-0.0810274156499999,0.00375
03:38:06,-1.32493852,2.53285856,-0.09511444,0.16618636,-0.37637484,-0.07042984,-9.83982184,31.8412206,-28.46195188,20.58836584,-1.4070558511999998,2.2322664000000003,0.2775919576,0.1337026156,-0.3356160712,-0.0801399675999999,0.00375
03:38:06,-1.3362355349999997,2.551272855,-0.094847145,0.167012005,-0.3782232199999999,-0.069284595,-9.86369847,31.8400073,-28.471488165,20.677961595,-1.4177228433499998,2.249103475,0.2815231283,0.1352232523,-0.33715740585,-0.0792525195499999,0.00375
03:38:06,-1.34753255,2.56968715,-0.09457985,0.16783765,-0.3800715999999999,-0.06813935,-9.8875751,31.838794,-28.48102445,20.76755735,-1.4283898354999998,2.26594055,0.2854542989999999,0.1367438889999999,-0.3386987405,-0.0783650715,0.00375
03:38:06,-1.3588295649999995,2.588101445,-0.0943125549999999,0.168663295,-0.38191998,-0.066994105,-9.91145173,31.8375807,-28.490560735,20.857153105,-1.4390568276499998,2.2827776250000005,0.2893854697,0.1382645257,-0.34024007515,-0.0774776234499999,0.00375
03:38:06,-1.37012658,2.6065157400000003,-0.0940452599999999,0.16948894,-0.38376836,-0.06584886,-9.93532836,31.8363674,-28.50009702,20.94674886,-1.4497238197999998,2.2996147,0.2933166404,0.1397851623999999,-0.3417814098,-0.0765901753999999,0.00375
03:38:06,-1.3814235949999998,2.624930035,-0.093777965,0.170314585,-0.3856167399999999,-0.064703615,-9.95920499,31.8351541,-28.509633305,21.036344615,-1.4603908119499998,2.316451775,0.2972478111,0.1413057991,-0.34332274445,-0.0757027273499999,0.00375
03:38:06,-1.3927206099999996,2.64334433,-0.09351067,0.17114023,-0.38746512,-0.06355837,-9.98308162,31.8339408,-28.51916959,21.12594037,-1.4710578040999998,2.33328885,0.3011789818,0.1428264358,-0.3448640790999999,-0.0748152792999999,0.00375
03:38:06,-1.4040176249999998,2.661758625,-0.093243375,0.171965875,-0.3893135,-0.062413125,-10.00695825,31.8327275,-28.528705875,21.215536125,-1.4817247962499998,2.3501259250000004,0.3051101524999999,0.1443470724999999,-0.3464054137499999,-0.0739278312499999,0.00375
03:38:06,-1.4153146399999996,2.68017292,-0.09297608,0.17279152,-0.3911618799999999,-0.06126788,-10.03083488,31.8315142,-28.53824216,21.30513188,-1.4923917883999998,2.366963,0.3090413232,0.1458677092,-0.3479467483999999,-0.0730403831999999,0.00375
03:38:06,-1.426611655,2.6985872150000003,-0.092708785,0.173617165,-0.39301026,-0.060122635,-10.05471151,31.8303009,-28.547778445,21.394727635,-1.5030587805499998,2.383800075,0.3129724939,0.1473883458999999,-0.3494880830499999,-0.0721529351499999,0.00375
03:38:06,-1.4379086699999997,2.71700151,-0.09244149,0.17444281,-0.39485864,-0.05897739,-10.07858814,31.8290876,-28.55731473,21.48432339,-1.5137257726999995,2.40063715,0.3169036645999999,0.1489089826,-0.3510294176999999,-0.0712654870999999,0.00375
03:38:06,-1.4492056849999997,2.735415805,-0.092174195,0.175268455,-0.3967070199999999,-0.057832145,-10.10246477,31.8278743,-28.566851015,21.573919145,-1.5243927648499995,2.4174742250000003,0.3208348353,0.1504296193,-0.3525707523499999,-0.0703780390499999,0.00375
03:38:06,-1.4605026999999997,2.7538301,-0.0919069,0.1760941,-0.3985554,-0.0566869,-10.1263414,31.826661,-28.5763873,21.6635149,-1.5350597569999995,2.4343113,0.3247660059999999,0.1519502559999999,-0.3541120869999999,-0.0694905909999999,0.00375
03:38:06,-1.4717997149999995,2.772244395,-0.091639605,0.176919745,-0.40040378,-0.055541655,-10.15021803,31.8254477,-28.585923585,21.753110655,-1.5457267491499995,2.451148375,0.3286971767,0.1534708927,-0.3556534216499999,-0.0686031429499999,0.00375
03:38:06,-1.4830967299999998,2.7906586900000003,-0.09137231,0.17774539,-0.4022521599999999,-0.05439641,-10.17409466,31.8242344,-28.59545987,21.84270641,-1.5563937412999995,2.4679854500000005,0.3326283474,0.1549915293999999,-0.3571947562999999,-0.0677156948999999,0.00375
03:38:06,-1.4943937449999996,2.809072985,-0.091105015,0.178571035,-0.4041005399999999,-0.053251165,-10.19797129,31.8230211,-28.604996155,21.932302165,-1.5670607334499995,2.484822525,0.3365595180999999,0.1565121661,-0.35873609095,-0.06682824685,0.00375
03:38:06,-1.5056907599999998,2.82748728,-0.09083772,0.17939668,-0.40594892,-0.05210592,-10.221847919999998,31.8218078,-28.61453244,22.02189792,-1.5777277255999995,2.5016596,0.3404906888,0.1580328028,-0.3602774256,-0.0659407987999999,0.00375
03:38:06,-1.5169877749999996,2.845901575,-0.090570425,0.180222325,-0.4077973,-0.050960675,-10.245724549999998,31.8205945,-28.624068725,22.111493675,-1.5883947177499995,2.518496675,0.3444218595,0.1595534394999999,-0.36181876025,-0.0650533507499999,0.00375
03:38:06,-1.5282847899999998,2.86431587,-0.09030313,0.18104797,-0.4096456799999999,-0.04981543,-10.26960118,31.8193812,-28.63360501,22.20108943,-1.5990617098999995,2.5353337500000004,0.3483530301999999,0.1610740762,-0.3633600949,-0.0641659026999999,0.00375
03:38:06,-1.5395818049999996,2.8827301650000003,-0.090035835,0.181873615,-0.41149406,-0.048670185,-10.29347781,31.8181679,-28.643141295,22.290685185,-1.6097287020499995,2.552170825,0.3522842009,0.1625947128999999,-0.36490142955,-0.0632784546499999,0.00375
03:38:06,-1.5508788199999994,2.9011444600000003,-0.08976854,0.18269926,-0.41334244,-0.04752494,-10.31735444,31.8169546,-28.65267758,22.38028094,-1.6203956941999995,2.5690079,0.3562153716,0.1641153496,-0.3664427642,-0.0623910065999999,0.00375
03:38:06,-1.5621758349999997,2.919558755,-0.089501245,0.183524905,-0.4151908199999999,-0.046379695,-10.34123107,31.8157413,-28.662213865,22.469876695,-1.6310626863499995,2.585844975,0.3601465423,0.1656359863,-0.3679840988499999,-0.0615035585499999,0.00375
03:38:06,-1.5734728499999997,2.93797305,-0.08923395,0.18435055,-0.4170392,-0.04523445,-10.3651077,31.814528,-28.67175015,22.55947245,-1.6417296784999995,2.6026820500000003,0.364077713,0.1671566229999999,-0.3695254334999999,-0.0606161104999999,0.00375
03:38:06,-1.5847698649999995,2.956387345,-0.088966655,0.185176195,-0.41888758,-0.044089205,-10.38898433,31.8133147,-28.681286435,22.649068205,-1.6523966706499995,2.619519125,0.3680088836999999,0.1686772597,-0.3710667681499999,-0.0597286624499999,0.00375
03:38:06,-1.5960668799999995,2.9748016400000004,-0.08869936,0.18600184,-0.4207359599999999,-0.04294396,-10.41286096,31.8121014,-28.69082272,22.73866396,-1.6630636627999995,2.6363562,0.3719400544,0.1701978964,-0.3726081027999999,-0.0588412143999999,0.00375
03:38:06,-1.6073638949999998,2.9932159350000003,-0.088432065,0.186827485,-0.42258434,-0.041798715,-10.43673759,31.8108881,-28.700359005,22.828259715,-1.6737306549499995,2.6531932750000005,0.3758712251,0.1717185331,-0.3741494374499999,-0.0579537663499999,0.00375
03:38:06,-1.6186609099999996,3.01163023,-0.08816477,0.18765313,-0.42443272,-0.04065347,-10.46061422,31.8096748,-28.70989529,22.91785547,-1.6843976470999995,2.67003035,0.3798023957999999,0.1732391698,-0.3756907720999999,-0.0570663182999999,0.00375
03:38:06,-1.6299579249999998,3.030044525,-0.087897475,0.188478775,-0.4262810999999999,-0.039508225,-10.48449085,31.8084615,-28.719431575,23.007451225,-1.6950646392499995,2.686867425,0.3837335665,0.1747598064999999,-0.3772321067499999,-0.0561788702499999,0.00375
03:38:06,-1.6412549399999996,3.04845882,-0.08763018,0.18930442,-0.4281294799999999,-0.03836298,-10.50836748,31.8072482,-28.72896786,23.09704698,-1.7057316313999995,2.7037045,0.3876647371999999,0.1762804432,-0.3787734413999999,-0.0552914221999999,0.00375
03:38:06,-1.6525519549999994,3.066873115,-0.087362885,0.190130065,-0.42997786,-0.037217735,-10.53224411,31.8060349,-28.738504145,23.186642735,-1.7163986235499995,2.7205415750000004,0.3915959079,0.1778010799,-0.3803147760499999,-0.0544039741499999,0.00375
03:38:06,-1.6638489699999996,3.0852874100000003,-0.08709559,0.19095571,-0.43182624,-0.03607249,-10.55612074,31.8048216,-28.74804043,23.27623849,-1.7270656156999995,2.73737865,0.3955270786,0.1793217166,-0.3818561107,-0.0535165260999999,0.00375
03:38:06,-1.6751459849999994,3.103701705,-0.086828295,0.191781355,-0.4336746199999999,-0.034927245,-10.57999737,31.8036083,-28.757576715,23.365834245,-1.7377326078499995,2.754215725,0.3994582492999999,0.1808423533,-0.38339744535,-0.0526290780499999,0.00375
03:38:07,-1.686443,3.122116,-0.086561,0.192607,-0.435523,-0.033782,-10.603874,31.802395,-28.767113,23.45543,-1.7483996,2.7710528,0.40338942,0.18236299,-0.38493878,-0.05174163,0.00375
03:38:07,-1.6684665399999998,3.092135265,-0.091875985,0.193560485,-0.43517676,-0.03427206,-10.595877215,31.7895594,-28.786291235,23.357732399,-1.736115675,2.741043479,0.3922049604,0.1825301662,-0.3851724546,-0.05296911185,0.00375
03:38:07,-1.65049008,3.06215453,-0.09719097,0.19451397,-0.43483052,-0.03476212,-10.58788043,31.7767238,-28.80546947,23.260034798,-1.72383175,2.711034158,0.3810205008,0.1826973424,-0.3854061292,-0.0541965937,0.00375
03:38:07,-1.63251362,3.0321737950000003,-0.102505955,0.195467455,-0.43448428,-0.03525218,-10.579883645,31.7638882,-28.824647705,23.162337197,-1.711547825,2.6810248370000003,0.3698360412,0.1828645186,-0.3856398037999999,-0.05542407555,0.00375
03:38:07,-1.6145371599999998,3.00219306,-0.10782094,0.19642094,-0.43413804,-0.03574224,-10.57188686,31.7510526,-28.84382594,23.064639596,-1.6992639,2.651015516,0.3586515816,0.1830316948,-0.3858734783999999,-0.0566515574,0.00375
03:38:07,-1.5965607,2.972212325,-0.113135925,0.197374425,-0.4337918,-0.0362323,-10.563890075,31.738217,-28.863004175,22.966941995,-1.686979975,2.621006195,0.347467122,0.183198871,-0.386107153,-0.05787903925,0.00375
03:38:07,-1.57858424,2.94223159,-0.11845091,0.19832791,-0.43344556,-0.0367223599999999,-10.55589329,31.7253814,-28.88218241,22.869244394,-1.67469605,2.590996874,0.3362826624,0.1833660472,-0.3863408276,-0.0591065211,0.00375
03:38:07,-1.56060778,2.912250855,-0.123765895,0.199281395,-0.43309932,-0.0372124199999999,-10.547896505,31.7125458,-28.901360645,22.771546793,-1.662412125,2.560987553,0.3250982028,0.1835332234,-0.3865745022,-0.06033400295,0.00375
03:38:07,-1.54263132,2.8822701200000003,-0.12908088,0.20023488,-0.43275308,-0.03770248,-10.53989972,31.6997102,-28.92053888,22.673849192,-1.6501282,2.5309782320000003,0.3139137432,0.1837003996,-0.3868081767999999,-0.0615614847999999,0.00375
03:38:07,-1.5246548599999998,2.852289385,-0.134395865,0.201188365,-0.43240684,-0.03819254,-10.531902935,31.6868746,-28.939717115,22.576151591,-1.637844275,2.500968911,0.3027292836,0.1838675758,-0.3870418513999999,-0.06278896665,0.00375
03:38:07,-1.5066784,2.82230865,-0.13971085,0.20214185,-0.4320606,-0.0386826,-10.52390615,31.674039,-28.95889535,22.47845399,-1.62556035,2.47095959,0.291544824,0.184034752,-0.387275526,-0.0640164485,0.00375
03:38:07,-1.48870194,2.792327915,-0.145025835,0.203095335,-0.43171436,-0.03917266,-10.515909365,31.6612034,-28.978073585,22.380756389,-1.613276425,2.440950269,0.2803603644,0.1842019282,-0.3875092006,-0.0652439303499999,0.00375
03:38:07,-1.47072548,2.76234718,-0.15034082,0.20404882,-0.43136812,-0.03966272,-10.50791258,31.6483678,-28.99725182,22.283058788,-1.6009925,2.4109409480000004,0.2691759048,0.1843691044,-0.3877428752,-0.0664714122,0.00375
03:38:07,-1.45274902,2.7323664450000003,-0.155655805,0.205002305,-0.4310218799999999,-0.04015278,-10.499915795,31.6355322,-29.016430055,22.185361187,-1.588708575,2.3809316270000003,0.2579914452,0.1845362806,-0.3879765497999999,-0.06769889405,0.00375
03:38:07,-1.43477256,2.70238571,-0.16097079,0.20595579,-0.4306756399999999,-0.04064284,-10.49191901,31.6226966,-29.03560829,22.087663586,-1.57642465,2.350922306,0.2468069856,0.1847034568,-0.3882102243999999,-0.0689263759,0.00375
03:38:07,-1.4167961,2.672404975,-0.166285775,0.206909275,-0.4303294,-0.0411329,-10.483922225,31.609861,-29.054786525,21.989965985,-1.564140725,2.320912985,0.235622526,0.184870633,-0.388443899,-0.0701538577499999,0.00375
03:38:07,-1.39881964,2.64242424,-0.17160076,0.20786276,-0.42998316,-0.04162296,-10.47592544,31.5970254,-29.07396476,21.892268384,-1.5518568,2.290903664,0.2244380664,0.1850378092,-0.3886775736,-0.0713813396,0.00375
03:38:07,-1.3808431799999998,2.612443505,-0.176915745,0.208816245,-0.42963692,-0.04211302,-10.467928655,31.5841898,-29.093142995,21.794570783,-1.539572875,2.2608943430000004,0.2132536068,0.1852049854,-0.3889112482,-0.07260882145,0.00375
03:38:07,-1.36286672,2.58246277,-0.18223073,0.20976973,-0.42929068,-0.04260308,-10.45993187,31.5713542,-29.11232123,21.696873182,-1.52728895,2.2308850220000003,0.2020691472,0.1853721616,-0.3891449227999999,-0.0738363033,0.00375
03:38:07,-1.34489026,2.552482035,-0.187545715,0.210723215,-0.42894444,-0.04309314,-10.451935085,31.5585186,-29.131499465,21.599175581,-1.515005025,2.200875701,0.1908846876,0.1855393378,-0.3893785973999999,-0.07506378515,0.00375
03:38:07,-1.3269137999999998,2.5225013,-0.1928607,0.2116767,-0.4285982,-0.0435832,-10.4439383,31.545683,-29.1506777,21.50147798,-1.5027211,2.17086638,0.179700228,0.185706514,-0.389612272,-0.076291267,0.00375
03:38:07,-1.30893734,2.492520565,-0.198175685,0.212630185,-0.42825196,-0.0440732599999999,-10.435941515,31.5328474,-29.169855935,21.403780379,-1.4904371749999998,2.140857059,0.1685157684,0.1858736902,-0.3898459466,-0.07751874885,0.00375
03:38:07,-1.29096088,2.46253983,-0.20349067,0.21358367,-0.42790572,-0.04456332,-10.42794473,31.5200118,-29.18903417,21.306082778,-1.47815325,2.1108477380000004,0.1573313087999999,0.1860408664,-0.3900796212,-0.0787462307,0.00375
03:38:07,-1.2729844199999998,2.432559095,-0.208805655,0.214537155,-0.42755948,-0.04505338,-10.419947945,31.5071762,-29.208212405,21.208385177,-1.465869325,2.0808384170000003,0.1461468491999999,0.1862080426,-0.3903132957999999,-0.0799737125499999,0.00375
03:38:07,-1.25500796,2.40257836,-0.21412064,0.21549064,-0.42721324,-0.04554344,-10.41195116,31.4943406,-29.22739064,21.110687576,-1.4535854,2.050829096,0.1349623896,0.1863752188,-0.3905469703999999,-0.0812011944,0.00375
03:38:07,-1.2370315,2.372597625,-0.219435625,0.216444125,-0.426867,-0.0460335,-10.403954375,31.481505,-29.246568875,21.012989975,-1.441301475,2.020819775,0.1237779299999999,0.186542395,-0.390780645,-0.08242867625,0.00375
03:38:07,-1.21905504,2.34261689,-0.22475061,0.21739761,-0.42652076,-0.04652356,-10.39595759,31.4686694,-29.26574711,20.915292374,-1.42901755,1.990810454,0.1125934704,0.1867095712,-0.3910143196,-0.0836561581,0.00375
03:38:07,-1.20107858,2.312636155,-0.230065595,0.218351095,-0.42617452,-0.04701362,-10.387960805,31.4558338,-29.284925345,20.817594773,-1.416733625,1.960801133,0.1014090107999999,0.1868767474,-0.3912479942,-0.08488363995,0.00375
03:38:07,-1.18310212,2.28265542,-0.23538058,0.21930458,-0.42582828,-0.04750368,-10.37996402,31.4429982,-29.30410358,20.719897172,-1.4044497,1.9307918120000005,0.0902245512,0.1870439236,-0.3914816687999999,-0.0861111218,0.00375
03:38:07,-1.16512566,2.252674685,-0.240695565,0.220258065,-0.42548204,-0.04799374,-10.371967235,31.4301626,-29.323281815,20.622199571,-1.392165775,1.900782491,0.0790400915999999,0.1872110998,-0.3917153433999999,-0.08733860365,0.00375
03:38:07,-1.1471492,2.22269395,-0.24601055,0.22121155,-0.4251358,-0.0484838,-10.36397045,31.417327,-29.34246005,20.52450197,-1.37988185,1.87077317,0.067855632,0.187378276,-0.391949018,-0.0885660855,0.00375
03:38:07,-1.12917274,2.192713215,-0.251325535,0.222165035,-0.42478956,-0.0489738599999999,-10.355973665,31.4044914,-29.361638285,20.426804369,-1.367597925,1.840763849,0.0566711723999999,0.1875454522,-0.3921826926,-0.0897935673499999,0.00375
03:38:07,-1.11119628,2.16273248,-0.25664052,0.22311852,-0.42444332,-0.0494639199999999,-10.34797688,31.3916558,-29.38081652,20.329106768,-1.355314,1.810754528,0.0454867127999999,0.1877126284,-0.3924163672,-0.0910210492,0.00375
03:38:07,-1.0932198199999998,2.132751745,-0.261955505,0.224072005,-0.42409708,-0.0499539799999999,-10.339980095,31.3788202,-29.399994755,20.231409167,-1.343030075,1.7807452070000005,0.0343022532,0.1878798046,-0.3926500417999999,-0.09224853105,0.00375
03:38:07,-1.07524336,2.10277101,-0.26727049,0.22502549,-0.42375084,-0.0504440399999999,-10.33198331,31.3659846,-29.41917299,20.133711566,-1.33074615,1.7507358860000002,0.0231177935999999,0.1880469808,-0.3928837163999999,-0.0934760129,0.00375
03:38:07,-1.0572669,2.072790275,-0.2725854750000001,0.225978975,-0.4234046,-0.0509340999999999,-10.323986525,31.353149,-29.438351225,20.036013965,-1.318462225,1.720726565,0.011933334,0.188214157,-0.393117391,-0.09470349475,0.00375
03:38:07,-1.0392904399999998,2.0428095400000004,-0.27790046,0.22693246,-0.42305836,-0.05142416,-10.31598974,31.3403134,-29.45752946,19.938316364,-1.3061783,1.6907172440000002,0.0007488743999999,0.1883813332,-0.3933510656,-0.0959309766,0.00375
03:38:07,-1.02131398,2.012828805,-0.283215445,0.227885945,-0.42271212,-0.05191422,-10.307992955,31.3274778,-29.476707695,19.840618763,-1.293894375,1.660707923,-0.0104355851999999,0.1885485094,-0.3935847402,-0.09715845845,0.00375
03:38:07,-1.00333752,1.98284807,-0.28853043,0.22883943,-0.4223658799999999,-0.05240428,-10.29999617,31.3146422,-29.49588593,19.742921162,-1.28161045,1.630698602,-0.0216200448,0.1887156856,-0.3938184147999999,-0.0983859403,0.00375
03:38:07,-0.98536106,1.952867335,-0.293845415,0.229792915,-0.42201964,-0.05289434,-10.291999385,31.3018066,-29.515064165,19.645223561,-1.269326525,1.6006892810000002,-0.0328045043999999,0.1888828618,-0.3940520893999999,-0.09961342215,0.00375
03:38:07,-0.9673846,1.9228866,-0.2991604,0.2307464,-0.4216734,-0.0533844,-10.2840026,31.288971,-29.5342424,19.54752596,-1.2570426,1.57067996,-0.043988964,0.189050038,-0.394285764,-0.100840904,0.00375
03:38:07,-0.94940814,1.892905865,-0.304475385,0.231699885,-0.42132716,-0.05387446,-10.276005815,31.2761354,-29.553420635,19.449828359,-1.244758675,1.5406706390000002,-0.0551734235999999,0.1892172142,-0.3945194386,-0.10206838585,0.00375
03:38:07,-0.93143168,1.86292513,-0.30979037,0.23265337,-0.42098092,-0.05436452,-10.26800903,31.2632998,-29.57259887,19.352130758,-1.23247475,1.510661318,-0.0663578832,0.1893843904,-0.3947531132,-0.1032958677,0.00375
03:38:07,-0.91345522,1.832944395,-0.315105355,0.233606855,-0.42063468,-0.05485458,-10.260012245,31.2504642,-29.591777105,19.254433157,-1.220190825,1.480651997,-0.0775423428,0.1895515666,-0.3949867877999999,-0.10452334955,0.00375
03:38:07,-0.8954787599999999,1.80296366,-0.3204203400000001,0.23456034,-0.42028844,-0.05534464,-10.25201546,31.2376286,-29.61095534,19.156735556,-1.2079069,1.4506426760000002,-0.0887268024,0.1897187428,-0.3952204623999999,-0.1057508314,0.00375
03:38:07,-0.8775023,1.772982925,-0.325735325,0.235513825,-0.4199422,-0.0558347,-10.244018675,31.224793,-29.630133575,19.059037955,-1.195622975,1.420633355,-0.099911262,0.189885919,-0.395454137,-0.10697831325,0.00375
03:38:07,-0.8595258399999999,1.74300219,-0.33105031,0.23646731,-0.41959596,-0.05632476,-10.23602189,31.2119574,-29.64931181,18.961340354,-1.1833390499999998,1.3906240340000002,-0.1110957216,0.1900530952,-0.3956878116,-0.1082057951,0.00375
03:38:07,-0.8415493799999999,1.713021455,-0.336365295,0.237420795,-0.41924972,-0.05681482,-10.228025105,31.1991218,-29.668490045,18.863642753,-1.171055125,1.360614713,-0.1222801812,0.1902202714,-0.3959214862,-0.10943327695,0.00375
03:38:07,-0.8235729199999999,1.6830407200000002,-0.34168028,0.23837428,-0.41890348,-0.0573048799999999,-10.22002832,31.1862862,-29.68766828,18.765945152,-1.1587712,1.3306053920000005,-0.1334646407999999,0.1903874476,-0.3961551607999999,-0.1106607588,0.00375
03:38:07,-0.80559646,1.653059985,-0.346995265,0.239327765,-0.41855724,-0.0577949399999999,-10.212031535,31.1734506,-29.706846515,18.668247551,-1.146487275,1.3005960710000002,-0.1446491004,0.1905546238,-0.3963888354,-0.11188824065,0.00375
03:38:07,-0.78762,1.62307925,-0.35231025,0.24028125,-0.418211,-0.058285,-10.20403475,31.160615,-29.72602475,18.57054995,-1.13420335,1.27058675,-0.15583356,0.1907218,-0.39662251,-0.1131157225,0.00375
03:38:07,-0.7696435399999999,1.593098515,-0.357625235,0.241234735,-0.41786476,-0.05877506,-10.196037965,31.1477794,-29.745202985,18.472852349,-1.121919425,1.2405774290000002,-0.1670180195999999,0.1908889762,-0.3968561846,-0.11434320435,0.00375
03:38:07,-0.7516670799999999,1.56311778,-0.36294022,0.24218822,-0.41751852,-0.05926512,-10.18804118,31.1349438,-29.76438122,18.375154748,-1.1096355,1.210568108,-0.1782024791999999,0.1910561524,-0.3970898592,-0.1155706862,0.00375
03:38:07,-0.73369062,1.533137045,-0.3682552050000001,0.2431417049999999,-0.41717228,-0.05975518,-10.180044395,31.1221082,-29.783559455,18.277457147,-1.097351575,1.1805587870000005,-0.1893869388,0.1912233286,-0.3973235337999999,-0.11679816805,0.00375
03:38:07,-0.7157141599999999,1.50315631,-0.3735701900000001,0.24409519,-0.41682604,-0.06024524,-10.17204761,31.1092726,-29.80273769,18.179759546,-1.08506765,1.1505494660000002,-0.2005713984,0.1913905048,-0.3975572084,-0.1180256499,0.00375
03:38:07,-0.6977376999999999,1.473175575,-0.3788851750000001,0.245048675,-0.4164798,-0.0607352999999999,-10.164050825,31.096437,-29.821915925,18.082061945,-1.072783725,1.120540145,-0.2117558579999999,0.191557681,-0.397790883,-0.11925313175,0.00375
03:38:07,-0.6797612399999999,1.44319484,-0.38420016,0.24600216,-0.41613356,-0.0612253599999999,-10.15605404,31.0836014,-29.84109416,17.984364344,-1.0604998,1.0905308240000002,-0.2229403176,0.1917248572,-0.3980245576,-0.1204806136,0.00375
03:38:07,-0.6617847799999999,1.413214105,-0.389515145,0.246955645,-0.41578732,-0.0617154199999999,-10.148057255,31.0707658,-29.860272395,17.886666743,-1.048215875,1.060521503,-0.2341247772,0.1918920334,-0.3982582322,-0.12170809545,0.00375
03:38:07,-0.64380832,1.38323337,-0.39483013,0.2479091299999999,-0.41544108,-0.0622054799999999,-10.14006047,31.0579302,-29.87945063,17.788969142,-1.03593195,1.0305121820000005,-0.2453092368,0.1920592096,-0.3984919067999999,-0.1229355773,0.00375
03:38:07,-0.6258318599999999,1.353252635,-0.400145115,0.248862615,-0.41509484,-0.06269554,-10.132063685,31.0450946,-29.898628865,17.691271541,-1.023648025,1.0005028610000002,-0.2564936963999999,0.1922263858,-0.3987255814,-0.12416305915,0.00375
03:38:07,-0.6078553999999998,1.3232719,-0.4054601000000001,0.2498160999999999,-0.4147486,-0.0631856,-10.1240669,31.032259,-29.9178071,17.59357394,-1.0113641,0.97049354,-0.267678156,0.192393562,-0.398959256,-0.125390541,0.00375
03:38:07,-0.58987894,1.293291165,-0.4107750850000001,0.250769585,-0.41440236,-0.06367566,-10.116070115,31.0194234,-29.936985335,17.495876339,-0.999080175,0.9404842190000002,-0.2788626156,0.1925607382,-0.3991929306,-0.12661802285,0.00375
03:38:07,-0.5719024799999999,1.26331043,-0.4160900700000001,0.25172307,-0.41405612,-0.06416572,-10.10807333,31.0065878,-29.95616357,17.398178738,-0.98679625,0.910474898,-0.2900470752,0.1927279144,-0.3994266052,-0.1278455047,0.00375
03:38:07,-0.55392602,1.233329695,-0.4214050550000001,0.2526765549999999,-0.41370988,-0.06465578,-10.100076545,30.9937522,-29.975341805,17.300481137,-0.974512325,0.8804655770000003,-0.3012315348,0.1928950906,-0.3996602797999999,-0.12907298655,0.00375
03:38:07,-0.5359495599999999,1.20334896,-0.4267200400000001,0.25363004,-0.41336364,-0.06514584,-10.09207976,30.9809166,-29.99452004,17.202783536,-0.9622284,0.8504562560000002,-0.3124159944,0.1930622668,-0.3998939544,-0.1303004684,0.00375
03:38:07,-0.5179730999999999,1.173368225,-0.4320350250000001,0.254583525,-0.4130174,-0.0656359,-10.084082975,30.968081,-30.013698275,17.105085934999998,-0.949944475,0.8204469350000001,-0.323600454,0.193229443,-0.400127629,-0.13152795025,0.00375
03:38:07,-0.49999664,1.14338749,-0.43735001,0.25553701,-0.41267116,-0.06612596,-10.07608619,30.955245400000003,-30.03287651,17.007388333999998,-0.93766055,0.7904376140000002,-0.3347849135999999,0.1933966192,-0.4003613036,-0.1327554321,0.00375
03:38:07,-0.4820201799999999,1.1134067550000002,-0.442664995,0.256490495,-0.41232492,-0.06661602,-10.068089405,30.9424098,-30.052054745,16.909690732999998,-0.925376625,0.7604282930000004,-0.3459693732,0.1935637954,-0.4005949782,-0.13398291395,0.00375
03:38:07,-0.46404372,1.08342602,-0.44797998,0.25744398,-0.41197868,-0.06710608,-10.06009262,30.9295742,-30.07123298,16.811993132,-0.9130927,0.7304189720000003,-0.3571538328,0.1937309716,-0.4008286527999999,-0.1352103958,0.00375
03:38:07,-0.4460672599999999,1.053445285,-0.4532949650000001,0.258397465,-0.41163244,-0.06759614,-10.052095835,30.9167386,-30.090411215,16.714295531,-0.900808775,0.7004096510000002,-0.3683382924,0.1938981478,-0.4010623274,-0.13643787765,0.00375
03:38:07,-0.4280907999999999,1.02346455,-0.4586099500000001,0.2593509499999999,-0.4112862,-0.0680862,-10.04409905,30.903903,-30.10958945,16.61659793,-0.88852485,0.6704003300000001,-0.3795227519999999,0.194065324,-0.401296002,-0.1376653595,0.00375
03:38:07,-0.41011434,0.9934838149999998,-0.4639249350000001,0.260304435,-0.41093996,-0.06857626,-10.036102265,30.8910674,-30.128767685,16.518900329,-0.876240925,0.640391009,-0.3907072116,0.1942325002,-0.4015296766,-0.13889284135,0.00375
03:38:07,-0.3921378799999999,0.9635030800000002,-0.4692399200000001,0.26125792,-0.41059372,-0.0690663199999999,-10.02810548,30.8782318,-30.14794592,16.421202728,-0.863957,0.6103816880000004,-0.4018916712,0.1943996764,-0.4017633512,-0.1401203232,0.00375
03:38:07,-0.3741614199999998,0.933522345,-0.4745549050000001,0.262211405,-0.41024748,-0.06955638,-10.020108695,30.8653962,-30.167124155,16.323505127,-0.851673075,0.5803723670000003,-0.4130761308,0.1945668526,-0.4019970257999999,-0.14134780505,0.00375
03:38:07,-0.35618496,0.90354161,-0.4798698900000001,0.26316489,-0.40990124,-0.0700464399999999,-10.01211191,30.8525606,-30.18630239,16.225807526,-0.83938915,0.5503630460000002,-0.4242605903999999,0.1947340288,-0.4022307004,-0.1425752869,0.00375
03:38:07,-0.3382084999999999,0.8735608749999999,-0.485184875,0.264118375,-0.409555,-0.0705365,-10.004115125,30.839725,-30.205480625,16.128109925,-0.8271052249999999,0.5203537250000001,-0.43544505,0.194901205,-0.402464375,-0.14380276875,0.00375
03:38:07,-0.3202320399999998,0.8435801399999998,-0.4904998600000001,0.26507186,-0.40920876,-0.0710265599999999,-9.99611834,30.8268894,-30.22465886,16.030412324,-0.8148213,0.490344404,-0.4466295096,0.1950683812,-0.4026980496,-0.1450302506,0.00375
03:38:07,-0.3022555799999999,0.8135994050000002,-0.4958148450000001,0.2660253449999999,-0.40886252,-0.07151662,-9.988121555,30.8140538,-30.243837095,15.932714723,-0.802537375,0.4603350830000003,-0.4578139692,0.1952355574,-0.4029317242,-0.14625773245,0.00375
03:38:07,-0.2842791199999999,0.7836186700000001,-0.5011298300000001,0.26697883,-0.40851628,-0.0720066799999999,-9.98012477,30.8012182,-30.26301533,15.835017122,-0.79025345,0.4303257620000003,-0.4689984288,0.1954027336,-0.4031653987999999,-0.1474852143,0.00375
03:38:07,-0.26630266,0.753637935,-0.506444815,0.267932315,-0.40817004,-0.07249674,-9.972127985,30.7883826,-30.282193565,15.737319521,-0.7779695249999999,0.4003164410000002,-0.4801828884,0.1955699098,-0.4033990734,-0.14871269615,0.00375
03:38:07,-0.2483261999999999,0.7236571999999999,-0.5117598000000001,0.2688858,-0.4078238,-0.0729867999999999,-9.9641312,30.775547,-30.3013718,15.63962192,-0.7656856,0.3703071200000001,-0.491367348,0.195737086,-0.403632748,-0.149940178,0.00375
03:38:07,-0.2303497399999998,0.6936764649999998,-0.5170747850000001,0.269839285,-0.40747756,-0.07347686,-9.956134415,30.7627114,-30.320550035,15.541924319,-0.753401675,0.340297799,-0.5025518076,0.1959042622,-0.4038664226,-0.15116765985,0.00375
03:38:07,-0.21237328,0.6636957300000002,-0.5223897700000001,0.27079277,-0.40713132,-0.0739669199999999,-9.94813763,30.7498758,-30.33972827,15.444226718,-0.7411177499999999,0.3102884780000003,-0.5137362672,0.1960714384,-0.4041000972,-0.1523951417,0.00375
03:38:07,-0.1943968199999999,0.6337149950000001,-0.527704755,0.271746255,-0.40678508,-0.07445698,-9.940140845,30.737040200000003,-30.358906505,15.346529117,-0.7288338249999999,0.2802791570000003,-0.5249207268,0.1962386146,-0.4043337717999999,-0.15362262355,0.00375
03:38:07,-0.17642036,0.60373426,-0.5330197400000001,0.2726997399999999,-0.40643884,-0.0749470399999999,-9.93214406,30.7242046,-30.37808474,15.248831516,-0.7165499,0.2502698360000002,-0.5361051864,0.1964057908,-0.4045674464,-0.1548501054,0.00375
03:38:07,-0.1584438999999999,0.5737535249999999,-0.5383347250000001,0.273653225,-0.4060926,-0.0754370999999999,-9.924147275,30.711369,-30.397262975,15.151133915,-0.704265975,0.2202605150000001,-0.547289646,0.196572967,-0.404801121,-0.15607758725,0.00375
03:38:07,-0.1404674399999999,0.5437727899999998,-0.5436497100000002,0.27460671,-0.40574636,-0.07592716,-9.91615049,30.6985334,-30.41644121,15.053436314,-0.69198205,0.190251194,-0.5584741056,0.1967401432,-0.4050347956,-0.1573050691,0.00375
03:38:07,-0.12249098,0.5137920550000001,-0.5489646950000001,0.275560195,-0.40540012,-0.07641722,-9.908153705,30.6856978,-30.435619445,14.955738713,-0.679698125,0.1602418730000003,-0.5696585652,0.1969073194,-0.4052684702,-0.15853255095,0.00375
03:38:07,-0.1045145199999999,0.48381132,-0.55427968,0.27651368,-0.40505388,-0.07690728,-9.90015692,30.6728622,-30.45479768,14.858041112,-0.6674142000000001,0.1302325520000002,-0.5808430248,0.1970744956,-0.4055021447999999,-0.1597600328,0.00375
03:38:07,-0.0865380599999998,0.4538305849999999,-0.5595946650000001,0.277467165,-0.40470764,-0.07739734,-9.892160135,30.6600266,-30.473975915,14.760343511,-0.6551302750000001,0.1002232310000001,-0.5920274844,0.1972416718,-0.4057358194,-0.16098751465,0.00375
03:38:07,-0.0685616,0.4238498499999998,-0.5649096500000002,0.27842065,-0.4043614,-0.0778874,-9.88416335,30.647191,-30.49315415,14.66264591,-0.6428463499999999,0.0702139100000001,-0.603211944,0.197408848,-0.405969494,-0.1622149965,0.00375
03:38:07,-0.0505851399999999,0.3938691149999997,-0.5702246350000001,0.2793741349999999,-0.40401516,-0.07837746,-9.876166565,30.6343554,-30.512332385,14.564948309,-0.6305624249999999,0.040204589,-0.6143964035999999,0.1975760242,-0.4062031686,-0.16344247835,0.00375
03:38:07,-0.0326086799999998,0.3638883800000001,-0.5755396200000001,0.28032762,-0.40366892,-0.07886752,-9.86816978,30.6215198,-30.53151062,14.467250708,-0.6182785,0.0101952680000003,-0.6255808632000001,0.1977432004,-0.4064368432,-0.1646699602,0.00375
03:38:07,-0.0146322199999999,0.333907645,-0.5808546050000001,0.281281105,-0.40332268,-0.07935758,-9.860172995,30.608684200000003,-30.550688855,14.369553107,-0.605994575,-0.0198140529999997,-0.6367653228,0.1979103766,-0.4066705177999999,-0.16589744205,0.00375
03:38:07,0.0033442400000001,0.3039269099999999,-0.5861695900000001,0.28223459,-0.40297644,-0.07984764,-9.85217621,30.5958486,-30.56986709,14.271855506,-0.59371065,-0.0498233739999998,-0.6479497824000001,0.1980775528,-0.4069041924,-0.1671249239,0.00375
03:38:07,0.0213206999999999,0.2739461749999998,-0.5914845750000001,0.283188075,-0.4026302,-0.0803377,-9.844179425,30.583013,-30.589045325,14.174157905,-0.581426725,-0.0798326949999999,-0.659134242,0.198244729,-0.407137867,-0.16835240575,0.00375
03:38:07,0.03929716,0.2439654400000002,-0.5967995600000001,0.28414156,-0.40228396,-0.08082776,-9.83618264,30.5701774,-30.60822356,14.076460304,-0.5691428000000001,-0.1098420159999995,-0.6703187016,0.1984119052,-0.4073715416,-0.1695798876,0.00375
03:38:07,0.0572736200000001,0.2139847050000001,-0.6021145450000002,0.285095045,-0.40193772,-0.0813178199999999,-9.828185855,30.5573418,-30.627401795,13.978762703,-0.5568588750000001,-0.1398513369999996,-0.6815031612000001,0.1985790814,-0.4076052162,-0.17080736945,0.00375
03:38:07,0.07525008,0.18400397,-0.6074295300000001,0.2860485299999999,-0.40159148,-0.08180788,-9.82018907,30.5445062,-30.646580030000003,13.881065102,-0.5445749500000001,-0.1698606579999997,-0.6926876208,0.1987462576,-0.4078388907999999,-0.1720348513,0.00375
03:38:07,0.09322654,0.1540232349999999,-0.6127445150000002,0.287002015,-0.40124524,-0.0822979399999999,-9.812192285,30.5316706,-30.665758265,13.783367501,-0.5322910249999999,-0.1998699789999998,-0.7038720803999999,0.1989134338,-0.4080725654,-0.17326233315,0.00375
03:38:07,0.1112029999999999,0.1240424999999998,-0.6180595000000001,0.2879555,-0.400899,-0.082788,-9.8041955,30.518835000000003,-30.6849365,13.6856699,-0.5200070999999999,-0.2298792999999999,-0.7150565400000001,0.19908061,-0.40830624,-0.174489815,0.00375
03:38:07,0.12917946,0.0940617650000001,-0.6233744850000001,0.288908985,-0.40055276,-0.0832780599999999,-9.796198715,30.5059994,-30.704114735,13.587972299,-0.507723175,-0.2598886209999995,-0.7262409996,0.1992477862,-0.4085399146,-0.17571729685,0.00375
03:38:07,0.1471559200000001,0.0640810300000001,-0.6286894700000001,0.28986247,-0.40020652,-0.08376812,-9.78820193,30.4931638,-30.723292970000003,13.490274698,-0.49543925,-0.2898979419999996,-0.7374254591999999,0.1994149624,-0.4087735892,-0.1769447787,0.00375
03:38:07,0.1651323799999999,0.034100295,-0.6340044550000001,0.290815955,-0.39986028,-0.0842581799999999,-9.780205145,30.4803282,-30.742471205,13.392577097,-0.483155325,-0.3199072629999997,-0.7486099188,0.1995821386,-0.4090072637999999,-0.17817226055,0.00375
03:38:07,0.18310884,0.0041195599999999,-0.6393194400000001,0.29176944,-0.39951404,-0.08474824,-9.77220836,30.4674926,-30.76164944,13.294879496,-0.4708714,-0.3499165839999998,-0.7597943784,0.1997493148,-0.4092409384,-0.1793997424,0.00375
03:38:07,0.2010853000000001,-0.0258611750000001,-0.6446344250000001,0.2927229249999999,-0.3991678,-0.0852382999999999,-9.764211575,30.454657,-30.780827675,13.197181895,-0.4585874750000001,-0.3799259049999999,-0.7709788380000001,0.199916491,-0.409474613,-0.18062722425,0.00375
03:38:07,0.21906176,-0.0558419099999998,-0.6499494100000002,0.29367641,-0.39882156,-0.08572836,-9.75621479,30.4418214,-30.800005910000003,13.099484294,-0.4463035500000001,-0.4099352259999995,-0.7821632976,0.2000836672,-0.4097082876,-0.1818547061,0.00375
03:38:07,0.23703822,-0.0858226449999999,-0.6552643950000001,0.294629895,-0.39847532,-0.0862184199999999,-9.748218005,30.4289858,-30.819184145,13.001786693,-0.4340196249999999,-0.4399445469999996,-0.7933477572,0.2002508434,-0.4099419622,-0.18308218795,0.00375
03:38:07,0.2550146800000001,-0.11580338,-0.6605793800000002,0.29558338,-0.39812908,-0.08670848,-9.74022122,30.4161502,-30.83836238,12.904089092,-0.4217356999999999,-0.4699538679999997,-0.8045322168000001,0.2004180196,-0.4101756367999999,-0.1843096698,0.00375
03:38:07,0.27299114,-0.1457841150000001,-0.6658943650000001,0.296536865,-0.39778284,-0.0871985399999999,-9.732224435,30.4033146,-30.857540615,12.806391491,-0.4094517749999999,-0.4999631889999998,-0.8157166764,0.2005851958,-0.4104093114,-0.18553715165,0.00375
03:38:07,0.2909676000000001,-0.1757648500000002,-0.6712093500000001,0.29749035,-0.3974366,-0.0876885999999999,-9.72422765,30.390479000000003,-30.876718850000003,12.70869389,-0.39716785,-0.5299725099999999,-0.8269011359999999,0.200752372,-0.410642986,-0.1867646335,0.00375
03:38:07,0.3089440599999999,-0.2057455849999998,-0.6765243350000001,0.298443835,-0.39709036,-0.0881786599999999,-9.716230865,30.3776434,-30.895897085,12.610996289,-0.384883925,-0.5599818309999995,-0.8380855956000001,0.2009195482,-0.4108766606,-0.18799211535,0.00375
03:38:07,0.32692052,-0.2357263199999999,-0.6818393200000001,0.2993973199999999,-0.39674412,-0.0886687199999999,-9.70823408,30.3648078,-30.91507532,12.513298688,-0.3726,-0.5899911519999996,-0.8492700552,0.2010867244,-0.4111103352,-0.1892195972,0.00375
03:38:07,0.3448969799999999,-0.265707055,-0.6871543050000002,0.300350805,-0.39639788,-0.0891587799999999,-9.700237295,30.3519722,-30.934253555,12.415601087,-0.360316075,-0.6200004729999997,-0.8604545147999999,0.2012539006,-0.4113440097999999,-0.19044707905,0.00375
03:38:07,0.3628734400000002,-0.2956877900000001,-0.6924692900000001,0.30130429,-0.39605164,-0.08964884,-9.69224051,30.3391366,-30.953431790000003,12.317903486,-0.3480321500000001,-0.6500097939999998,-0.8716389744,0.2014210768,-0.4115776844,-0.1916745609,0.00375
03:38:07,0.3808499000000001,-0.3256685250000002,-0.6977842750000002,0.302257775,-0.3957054,-0.0901389,-9.684243725,30.326301,-30.972610025,12.220205885,-0.3357482250000001,-0.6800191149999999,-0.882823434,0.201588253,-0.411811359,-0.19290204275,0.00375
03:38:07,0.3988263599999999,-0.3556492599999998,-0.7030992600000001,0.30321126,-0.39535916,-0.09062896,-9.67624694,30.3134654,-30.99178826,12.122508284,-0.3234642999999999,-0.7100284359999995,-0.8940078936000001,0.2017554292,-0.4120450336,-0.1941295246,0.00375
03:38:07,0.4168028200000002,-0.3856299949999999,-0.7084142450000002,0.304164745,-0.39501292,-0.09111902,-9.668250155,30.300629800000003,-31.010966495,12.024810683,-0.3111803749999999,-0.7400377569999996,-0.9051923532,0.2019226054,-0.4122787082,-0.19535700645,0.00375
03:38:07,0.4347792800000001,-0.41561073,-0.7137292300000001,0.30511823,-0.39466668,-0.09160908,-9.66025337,30.2877942,-31.03014473,11.927113082,-0.29889645,-0.7700470779999997,-0.9163768128,0.2020897816,-0.4125123827999999,-0.1965844883,0.00375
03:38:07,0.4527557399999999,-0.4455914650000001,-0.7190442150000002,0.3060717149999999,-0.39432044,-0.09209914,-9.652256585,30.2749586,-31.049322965,11.829415481,-0.286612525,-0.8000563989999998,-0.9275612724,0.2022569578,-0.4127460574,-0.19781197015,0.00375
03:38:07,0.4707322000000002,-0.4755722000000002,-0.7243592000000002,0.3070252,-0.3939742,-0.0925892,-9.6442598,30.262123000000003,-31.0685012,11.73171788,-0.2743286,-0.8300657199999999,-0.938745732,0.202424134,-0.412979732,-0.199039452,0.00375
03:38:07,0.4887086600000001,-0.5055529349999999,-0.7296741850000001,0.307978685,-0.39362796,-0.09307926,-9.636263015,30.2492874,-31.087679435,11.634020279,-0.262044675,-0.8600750409999995,-0.9499301916,0.2025913102,-0.4132134066,-0.20026693385,0.00375
03:38:07,0.50668512,-0.53553367,-0.7349891700000002,0.30893217,-0.39328172,-0.0935693199999999,-9.62826623,30.2364518,-31.10685767,11.536322678,-0.2497607500000001,-0.8900843619999996,-0.9611146512,0.2027584864,-0.4134470812,-0.2014944157,0.00375
03:38:07,0.5246615799999998,-0.565514405,-0.7403041550000001,0.309885655,-0.39293548,-0.09405938,-9.620269445,30.2236162,-31.126035905,11.438625077,-0.2374768250000001,-0.9200936829999996,-0.9722991108,0.2029256626,-0.4136807557999999,-0.20272189755,0.00375
03:38:07,0.5426380400000002,-0.5954951400000001,-0.7456191400000002,0.31083914,-0.39258924,-0.0945494399999999,-9.61227266,30.2107806,-31.14521414,11.340927476,-0.2251928999999999,-0.9501030039999998,-0.9834835704,0.2030928388,-0.4139144304,-0.2039493794,0.00375
03:38:07,0.5606145,-0.6254758750000002,-0.7509341250000001,0.311792625,-0.392243,-0.0950395,-9.604275875,30.197945,-31.164392375,11.243229875,-0.2129089749999999,-0.980112325,-0.99466803,0.203260015,-0.414148105,-0.20517686125,0.00375
03:38:07,0.5785909599999999,-0.6554566099999999,-0.7562491100000002,0.3127461099999999,-0.39189676,-0.0955295599999999,-9.59627909,30.1851094,-31.18357061,11.145532274,-0.2006250499999999,-1.0101216459999995,-1.0058524896,0.2034271912,-0.4143817796,-0.2064043431,0.00375
03:38:07,0.5965674200000002,-0.685437345,-0.7615640950000001,0.313699595,-0.39155052,-0.09601962,-9.588282305,30.172273800000003,-31.202748845,11.047834673,-0.188341125,-1.0401309669999996,-1.0170369492,0.2035943674,-0.4146154542,-0.20763182495,0.00375
03:38:07,0.61454388,-0.7154180800000001,-0.7668790800000002,0.31465308,-0.39120428,-0.0965096799999999,-9.58028552,30.1594382,-31.22192708,10.950137072,-0.1760572,-1.0701402879999995,-1.0282214088,0.2037615436,-0.4148491287999999,-0.2088593068,0.00375
03:38:07,0.6325203399999999,-0.7453988150000002,-0.7721940650000002,0.315606565,-0.39085804,-0.09699974,-9.572288735,30.1466026,-31.241105315,10.852439471,-0.163773275,-1.1001496089999998,-1.0394058683999998,0.2039287198,-0.4150828034,-0.21008678865,0.00375
03:38:07,0.6504968000000002,-0.7753795500000003,-0.7775090500000001,0.31656005,-0.3905118,-0.0974897999999999,-9.56429195,30.133767,-31.26028355,10.75474187,-0.15148935,-1.13015893,-1.0505903280000002,0.204095896,-0.415316478,-0.2113142705,0.00375
03:38:07,0.6684732600000001,-0.8053602849999999,-0.7828240350000002,0.317513535,-0.39016556,-0.09797986,-9.556295165,30.1209314,-31.279461785,10.657044269,-0.1392054250000001,-1.1601682509999995,-1.0617747876,0.2042630722,-0.4155501526,-0.21254175235,0.00375
03:38:07,0.6864497199999999,-0.83534102,-0.7881390200000001,0.31846702,-0.38981932,-0.0984699199999999,-9.54829838,30.1080958,-31.29864002,10.559346668,-0.1269215000000001,-1.1901775719999996,-1.0729592472,0.2044302484,-0.4157838272,-0.2137692342,0.00375
03:38:07,0.7044261800000002,-0.8653217550000001,-0.7934540050000002,0.3194205049999999,-0.38947308,-0.09895998,-9.540301595,30.0952602,-31.317818255,10.461649067,-0.1146375749999999,-1.2201868929999995,-1.0841437068,0.2045974246,-0.4160175017999999,-0.21499671605,0.00375
03:38:07,0.7224026400000001,-0.8953024899999997,-0.7987689900000001,0.32037399,-0.38912684,-0.0994500399999999,-9.53230481,30.082424600000003,-31.33699649,10.363951466,-0.1023536499999999,-1.2501962139999994,-1.0953281664,0.2047646008,-0.4162511764,-0.2162241979,0.00375
03:38:07,0.7403791,-0.9252832250000004,-0.8040839750000002,0.321327475,-0.3887806,-0.0999401,-9.524308025,30.069589,-31.356174725,10.266253865,-0.0900697249999999,-1.280205535,-1.1065126260000002,0.204931777,-0.416484851,-0.21745167975,0.00375
03:38:07,0.7583555599999998,-0.95526396,-0.8093989600000001,0.3222809599999999,-0.38843436,-0.1004301599999999,-9.51631124,30.0567534,-31.37535296,10.168556264,-0.0777858,-1.3102148559999995,-1.1176970856,0.2050989532,-0.4167185256,-0.2186791616,0.00375
03:38:07,0.7763320200000001,-0.9852446950000004,-0.8147139450000002,0.323234445,-0.38808812,-0.10092022,-9.508314455,30.043917800000003,-31.394531195000003,10.070858663,-0.065501875,-1.340224177,-1.1288815452,0.2052661294,-0.4169522002,-0.21990664345,0.00375
03:38:07,0.79430848,-1.01522543,-0.8200289300000002,0.32418793,-0.38774188,-0.1014102799999999,-9.50031767,30.0310822,-31.41370943,9.973161062,-0.05321795,-1.3702334979999995,-1.1400660048,0.2054333056,-0.4171858747999999,-0.2211341253,0.00375
03:38:07,0.8122849399999998,-1.0452061649999995,-0.8253439150000002,0.325141415,-0.38739564,-0.10190034,-9.492320885,30.0182466,-31.432887665000003,9.875463461,-0.040934025,-1.4002428189999994,-1.1512504644,0.2056004818,-0.4174195494,-0.22236160715,0.00375
03:38:07,0.8302614000000001,-1.0751869000000005,-0.8306589000000002,0.3260948999999999,-0.3870494,-0.1023903999999999,-9.4843241,30.005411,-31.4520659,9.77776586,-0.0286501000000001,-1.43025214,-1.1624349239999998,0.205767658,-0.417653224,-0.223589089,0.00375
03:38:07,0.84823786,-1.105167635,-0.8359738850000001,0.327048385,-0.38670316,-0.1028804599999999,-9.476327315,29.9925754,-31.471244135000003,9.680068259,-0.0163661749999999,-1.4602614609999995,-1.1736193836000002,0.2059348342,-0.4178868986,-0.22481657085,0.00375
03:38:07,0.8662143199999999,-1.1351483700000005,-0.8412888700000002,0.32800187,-0.38635692,-0.10337052,-9.46833053,29.9797398,-31.49042237,9.582370658,-0.0040822499999999,-1.490270782,-1.1848038432,0.2061020104,-0.4181205732,-0.2260440527,0.00375
03:38:07,0.8841907800000002,-1.165129105,-0.8466038550000001,0.3289553549999999,-0.38601068,-0.1038605799999999,-9.460333745,29.9669042,-31.509600605000003,9.484673057,0.008201675,-1.5202801029999995,-1.1959883028,0.2062691866,-0.4183542477999999,-0.22727153455,0.00375
03:38:07,0.90216724,-1.1951098399999998,-0.8519188400000002,0.32990884,-0.38566444,-0.10435064,-9.45233696,29.9540686,-31.52877884,9.386975456,0.0204855999999999,-1.5502894239999994,-1.2071727624,0.2064363628,-0.4185879224,-0.2284990164,0.00375
03:38:07,0.9201437,-1.2250905750000003,-0.8572338250000002,0.330862325,-0.3853182,-0.1048406999999999,-9.444340175,29.941233,-31.547957075000003,9.289277855,0.0327695249999999,-1.580298745,-1.218357222,0.206603539,-0.418821597,-0.22972649825,0.00375
03:38:07,0.9381201600000002,-1.25507131,-0.8625488100000002,0.33181581,-0.38497196,-0.10533076,-9.43634339,29.9283974,-31.56713531,9.191580254,0.0450534499999999,-1.6103080659999995,-1.2295416816000002,0.2067707152,-0.4190552716,-0.2309539801,0.00375
03:38:07,0.95609662,-1.2850520450000005,-0.8678637950000002,0.3327692949999999,-0.38462572,-0.1058208199999999,-9.428346605,29.915561800000003,-31.586313545000003,9.093882653,0.0573373749999999,-1.640317387,-1.2407261412,0.2069378914,-0.4192889462,-0.23218146195,0.00375
03:38:07,0.97407308,-1.31503278,-0.8731787800000002,0.33372278,-0.38427948,-0.10631088,-9.42034982,29.9027262,-31.60549178,8.996185052000001,0.0696212999999998,-1.6703267079999995,-1.2519106008,0.2071050676,-0.4195226207999999,-0.2334089438,0.00375
03:38:07,0.9920495400000002,-1.3450135149999998,-0.8784937650000002,0.334676265,-0.38393324,-0.1068009399999999,-9.412353035,29.8898906,-31.624670015000003,8.898487451000001,0.0819052249999998,-1.7003360289999994,-1.2630950604,0.2072722438,-0.4197562954,-0.23463642565,0.00375
03:38:07,1.010026,-1.3749942500000003,-0.8838087500000001,0.3356297499999999,-0.383587,-0.107291,-9.40435625,29.877055,-31.64384825,8.800789850000001,0.09418915,-1.73034535,-1.27427952,0.20743942,-0.41998997,-0.2358639075,0.00375
03:38:07,1.02800246,-1.404974985,-0.8891237350000002,0.336583235,-0.38324076,-0.1077810599999999,-9.396359465,29.8642194,-31.663026485000003,8.703092249000001,0.106473075,-1.7603546709999995,-1.2854639795999998,0.2076065962,-0.4202236446,-0.23709138935,0.00375
03:38:07,1.0459789200000005,-1.4349557200000005,-0.8944387200000002,0.33753672,-0.38289452,-0.10827112,-9.38836268,29.8513838,-31.68220472,8.605394648,0.118757,-1.790363992,-1.2966484392000002,0.2077737724,-0.4204573192,-0.2383188712,0.00375
03:38:07,1.06395538,-1.464936455,-0.8997537050000002,0.338490205,-0.38254828,-0.1087611799999999,-9.380365895,29.8385482,-31.701382955000003,8.507697047,0.1310409249999999,-1.820373313,-1.3078328988,0.2079409486,-0.4206909937999999,-0.23954635305,0.00375
03:38:07,1.08193184,-1.4949171899999998,-0.9050686900000002,0.3394436899999999,-0.38220204,-0.10925124,-9.37236911,29.825712600000003,-31.72056119,8.409999446,0.1433248499999999,-1.8503826339999996,-1.3190173584,0.2081081248,-0.4209246684,-0.2407738349,0.00375
03:38:07,1.0999082999999998,-1.5248979250000003,-0.9103836750000002,0.340397175,-0.3818558,-0.1097412999999999,-9.364372325,29.812877,-31.739739425000003,8.312301845,0.1556087749999999,-1.880391955,-1.330201818,0.208275301,-0.421158343,-0.24200131675,0.00375
03:38:07,1.11788476,-1.55487866,-0.9156986600000002,0.34135066,-0.38150956,-0.11023136,-9.35637554,29.8000414,-31.75891766,8.214604244,0.1678926999999999,-1.9104012759999995,-1.3413862775999998,0.2084424772,-0.4213920176,-0.2432287986,0.00375
03:38:07,1.13586122,-1.5848593950000005,-0.9210136450000002,0.3423041449999999,-0.38116332,-0.1107214199999999,-9.348378755,29.7872058,-31.778095895000003,8.116906643,0.1801766249999998,-1.940410597,-1.3525707372000002,0.2086096534,-0.4216256922,-0.24445628045,0.00375
03:38:07,1.15383768,-1.6148401300000002,-0.9263286300000002,0.34325763,-0.38081708,-0.11121148,-9.34038197,29.7743702,-31.79727413,8.019209042,0.19246055,-1.970419918,-1.3637551968,0.2087768296,-0.4218593667999999,-0.2456837623,0.00375
03:38:07,1.1718141400000002,-1.6448208649999998,-0.931643615,0.344211115,-0.38047084,-0.1117015399999999,-9.332385185,29.7615346,-31.816452365000004,7.921511441,0.204744475,-2.000429239,-1.3749396564,0.2089440058,-0.4220930414,-0.24691124415,0.00375
03:38:07,1.1897906,-1.6748016000000003,-0.9369586000000002,0.3451646,-0.3801246,-0.1121916,-9.3243884,29.748699,-31.8356306,7.82381384,0.2170284,-2.03043856,-1.386124116,0.209111182,-0.422326716,-0.248138726,0.00375
03:38:07,1.20776706,-1.704782335,-0.9422735850000002,0.3461180849999999,-0.37977836,-0.1126816599999999,-9.316391615,29.7358634,-31.854808835000004,7.726116239000001,0.2293123249999999,-2.0604478809999995,-1.3973085756,0.2092783582,-0.4225603906,-0.24936620785,0.00375
03:38:07,1.2257435200000002,-1.7347630700000003,-0.9475885700000002,0.34707157,-0.37943212,-0.11317172,-9.30839483,29.7230278,-31.87398707,7.628418638000001,0.2415962499999999,-2.090457202,-1.4084930351999998,0.2094455344,-0.4227940652,-0.2505936897,0.00375
03:38:07,1.24371998,-1.7647438050000002,-0.9529035550000002,0.3480250549999999,-0.37908588,-0.1136617799999999,-9.300398045,29.7101922,-31.893165305000004,7.530721037000001,0.2538801749999999,-2.120466523,-1.4196774948000002,0.2096127106,-0.4230277397999999,-0.25182117155,0.00375
03:38:07,1.26169644,-1.7947245399999998,-0.9582185400000002,0.3489785399999999,-0.37873964,-0.11415184,-9.29240126,29.697356600000003,-31.91234354,7.433023435999999,0.2661641000000001,-2.150475844,-1.4308619544,0.2097798868,-0.4232614144,-0.2530486534,0.00375
03:38:07,1.2796729000000002,-1.8247052750000003,-0.9635335250000002,0.349932025,-0.3783934,-0.1146418999999999,-9.284404475,29.684521,-31.931521775000004,7.335325834999999,0.2784480249999999,-2.180485165,-1.442046414,0.209947063,-0.423495089,-0.25427613525,0.00375
03:38:07,1.29764936,-1.85468601,-0.9688485100000002,0.35088551,-0.37804716,-0.11513196,-9.27640769,29.6716854,-31.95070001,7.237628233999999,0.2907319500000001,-2.2104944859999995,-1.4532308736,0.2101142392,-0.4237287636,-0.2555036171,0.00375
03:38:07,1.31562582,-1.8846667450000003,-0.9741634950000002,0.351838995,-0.37770092,-0.1156220199999999,-9.268410905,29.6588498,-31.969878245000004,7.139930633000002,0.3030158749999998,-2.240503807,-1.4644153331999998,0.2102814154,-0.4239624382,-0.25673109895,0.00375
03:38:07,1.3336022799999998,-1.91464748,-0.9794784800000002,0.3527924799999999,-0.37735468,-0.1161120799999999,-9.26041412,29.646014200000003,-31.98905648,7.042233032000002,0.3152998,-2.270513128,-1.4755997928000002,0.2104485916,-0.4241961127999999,-0.2579585808,0.00375
03:38:07,1.35157874,-1.944628215,-0.9847934650000002,0.353745965,-0.37700844,-0.1166021399999999,-9.252417335,29.6331786,-32.008234715,6.944535431000002,0.3275837249999997,-2.300522449,-1.4867842524,0.2106157678,-0.4244297874,-0.25918606265,0.00375
03:38:07,1.3695552,-1.9746089500000004,-0.9901084500000004,0.3546994499999999,-0.3766622,-0.1170921999999999,-9.24442055,29.620343,-32.027412950000006,6.846837830000002,0.3398676499999999,-2.33053177,-1.497968712,0.210782944,-0.424663462,-0.2604135445,0.00375
03:38:07,1.3875316599999998,-2.004589685,-0.9954234350000002,0.3556529349999999,-0.37631596,-0.11758226,-9.236423765,29.607507400000003,-32.046591185000004,6.749140229000002,0.3521515750000001,-2.3605410909999995,-1.5091531716,0.2109501202,-0.4248971366,-0.26164102635,0.00375
03:38:07,1.40550812,-2.0345704200000005,-1.0007384200000002,0.35660642,-0.37596972,-0.1180723199999999,-9.22842698,29.5946718,-32.06576942,6.651442628000002,0.3644354999999999,-2.390550412,-1.5203376312,0.2111172964,-0.4251308112,-0.2628685082,0.00375
03:38:07,1.42348458,-2.064551155,-1.0060534050000003,0.357559905,-0.37562348,-0.11856238,-9.220430195,29.5818362,-32.084947655,6.5537450270000015,0.3767194250000001,-2.420559733,-1.5315220908000002,0.2112844726,-0.4253644857999999,-0.26409599005,0.00375
03:38:07,1.44146104,-2.09453189,-1.0113683900000003,0.35851339,-0.37527724,-0.1190524399999999,-9.21243341,29.569000600000003,-32.104125890000006,6.456047426000001,0.3890033499999998,-2.450569054,-1.5427065504000002,0.2114516488,-0.4255981604,-0.2653234719,0.00375
03:38:07,1.4594375000000002,-2.1245126250000004,-1.0166833750000002,0.3594668749999999,-0.374931,-0.1195425,-9.204436625,29.556165,-32.123304125000004,6.358349825000001,0.401287275,-2.480578375,-1.55389101,0.211618825,-0.425831835,-0.26655095375,0.00375
03:38:07,1.47741396,-2.15449336,-1.0219983600000002,0.36042036,-0.37458476,-0.1200325599999999,-9.19643984,29.5433294,-32.14248236,6.260652224000001,0.4135711999999998,-2.5105876959999995,-1.5650754696,0.2117860012,-0.4260655096,-0.2677784356,0.00375
03:38:07,1.49539042,-2.184474095000001,-1.0273133450000005,0.3613738449999999,-0.37423852,-0.12052262,-9.188443055,29.5304938,-32.161660595,6.162954623000001,0.425855125,-2.540597017,-1.5762599292,0.2119531774,-0.4262991842,-0.26900591745,0.00375
03:38:07,1.5133668800000002,-2.21445483,-1.03262833,0.3623273299999999,-0.37389228,-0.1210126799999999,-9.18044627,29.5176582,-32.180838830000006,6.065257022000001,0.4381390499999997,-2.570606338,-1.5874443887999998,0.2121203536,-0.4265328587999999,-0.2702333993,0.00375
03:38:07,1.53134334,-2.244435565,-1.037943315,0.363280815,-0.37354604,-0.12150274,-9.172449485,29.5048226,-32.200017065000004,5.967559421000001,0.4504229749999999,-2.600615659,-1.5986288484000002,0.2122875298,-0.4267665334,-0.27146088115,0.00375
03:38:07,1.5493198,-2.2744163000000004,-1.0432583000000002,0.3642343,-0.3731998,-0.1219927999999999,-9.1644527,29.491987,-32.2191953,5.869861820000001,0.4627069000000001,-2.63062498,-1.609813308,0.212454706,-0.427000208,-0.272688363,0.00375
03:38:07,1.5672962600000002,-2.304397035,-1.0485732850000002,0.365187785,-0.37285356,-0.12248286,-9.156455915,29.479151400000003,-32.238373535,5.772164219,0.4749908249999999,-2.6606343009999995,-1.6209977676,0.2126218822,-0.4272338826,-0.27391584485,0.00375
03:38:07,1.58527272,-2.334377770000001,-1.0538882700000003,0.3661412699999999,-0.37250732,-0.1229729199999999,-9.14845913,29.4663158,-32.257551770000006,5.674466618,0.4872747500000001,-2.690643622,-1.6321822272,0.2127890584,-0.4274675572,-0.2751433267,0.00375
03:38:07,1.60324918,-2.364358505,-1.0592032550000003,0.367094755,-0.37216108,-0.12346298,-9.140462345,29.4534802,-32.276730005000005,5.576769017,0.4995586749999998,-2.720652943,-1.6433666868000003,0.2129562346,-0.4277012317999999,-0.27637080855,0.00375
03:38:07,1.6212256400000002,-2.39433924,-1.0645182400000004,0.3680482399999999,-0.37181484,-0.1239530399999999,-9.13246556,29.4406446,-32.29590824,5.479071416,0.5118426,-2.750662264,-1.6545511464000002,0.2131234108,-0.4279349064,-0.2775982904,0.00375
03:38:07,1.6392021,-2.4243199750000004,-1.0698332250000002,0.3690017249999999,-0.3714686,-0.1244431,-9.124468775,29.427809000000003,-32.315086475,5.381373815,0.5241265249999998,-2.780671585,-1.665735606,0.213290587,-0.428168581,-0.27882577225,0.00375
03:38:07,1.65717856,-2.45430071,-1.0751482100000005,0.36995521,-0.37112236,-0.1249331599999999,-9.11647199,29.4149734,-32.33426471000001,5.283676214,0.53641045,-2.8106809059999995,-1.6769200656,0.2134577632,-0.4284022556,-0.2800532541,0.00375
03:38:07,1.6751550199999998,-2.4842814450000006,-1.080463195,0.370908695,-0.37077612,-0.12542322,-9.108475205,29.4021378,-32.353442945000005,5.185978613,0.5486943749999997,-2.840690227,-1.6881045252,0.2136249394,-0.4286359302,-0.28128073595,0.00375
03:38:07,1.69313148,-2.51426218,-1.08577818,0.37186218,-0.37042988,-0.12591328,-9.10047842,29.389302200000003,-32.37262118,5.088281012,0.5609782999999999,-2.870699548,-1.6992889848000003,0.2137921156,-0.4288696047999999,-0.2825082178,0.00375
03:38:07,1.71110794,-2.544242915,-1.0910931650000002,0.3728156649999999,-0.37008364,-0.12640334,-9.092481635,29.3764666,-32.391799415,4.990583410999999,0.5732622250000001,-2.900708869,-1.7104734444000005,0.2139592918,-0.4291032794,-0.28373569965,0.00375
03:38:07,1.7290844,-2.5742236500000004,-1.0964081500000002,0.37376915,-0.3697374,-0.1268934,-9.08448485,29.363631,-32.41097765000001,4.892885809999999,0.5855461499999999,-2.93071819,-1.7216579040000002,0.214126468,-0.429336954,-0.2849631815,0.00375
03:38:07,1.7470608600000002,-2.604204385,-1.1017231350000003,0.3747226349999999,-0.36939116,-0.12738346,-9.076488065,29.350795400000003,-32.430155885000005,4.795188208999999,0.5978300750000001,-2.9607275109999995,-1.7328423636,0.2142936442,-0.4295706286,-0.28619066335,0.00375
03:38:07,1.76503732,-2.63418512,-1.1070381200000003,0.3756761199999999,-0.36904492,-0.12787352,-9.06849128,29.3379598,-32.44933412,4.6974906080000025,0.6101139999999998,-2.990736831999999,-1.7440268232,0.2144608204,-0.4298043031999999,-0.2874181452,0.00375
03:38:07,1.78301378,-2.664165855,-1.1123531050000004,0.376629605,-0.36869868,-0.1283635799999999,-9.060494495,29.3251242,-32.468512355,4.599793007000002,0.622397925,-3.020746153,-1.7552112828,0.2146279966,-0.4300379777999999,-0.28864562705,0.00375
03:38:07,1.8009902400000002,-2.69414659,-1.1176680900000004,0.37758309,-0.36835244,-0.12885364,-9.05249771,29.3122886,-32.48769059,4.502095406000002,0.6346818499999998,-3.050755474,-1.7663957424000003,0.2147951728,-0.4302716524,-0.2898731089,0.00375
03:38:07,1.8189667,-2.7241273250000004,-1.122983075,0.378536575,-0.3680062,-0.1293436999999999,-9.044500925,29.299453,-32.506868825000005,4.404397805000002,0.646965775,-3.080764795,-1.7775802020000002,0.214962349,-0.430505327,-0.29110059075,0.00375
03:38:07,1.83694316,-2.75410806,-1.12829806,0.3794900599999999,-0.36765996,-0.12983376,-9.03650414,29.2866174,-32.52604706,4.306700204000002,0.6592496999999997,-3.1107741159999995,-1.7887646616,0.2151295252,-0.4307390016,-0.2923280726,0.00375
03:38:07,1.85491962,-2.784088795,-1.1336130450000002,0.380443545,-0.36731372,-0.1303238199999999,-9.028507355,29.2737818,-32.545225295,4.209002603000002,0.6715336249999999,-3.140783436999999,-1.7999491212,0.2152967014,-0.4309726762,-0.29355555445,0.00375
03:38:07,1.87289608,-2.8140695300000003,-1.1389280300000002,0.3813970299999999,-0.36696748,-0.13081388,-9.02051057,29.260946200000003,-32.56440353000001,4.111305002000002,0.6838175500000001,-3.170792758,-1.8111335808,0.2154638776,-0.4312063507999999,-0.2947830363,0.00375
03:38:07,1.89087254,-2.844050265,-1.1442430150000005,0.3823505149999999,-0.36662124,-0.1313039399999999,-9.012513785,29.2481106,-32.583581765000005,4.013607401000002,0.6961014749999999,-3.200802079,-1.8223180404000003,0.2156310538,-0.4314400254,-0.29601051815,0.00375
03:38:08,1.908849,-2.874031,-1.149558,0.383304,-0.366275,-0.131794,-9.004517,29.235275,-32.60276,3.9159098,0.7083854,-3.2308114,-1.8335025,0.21579823,-0.4316737,-0.297238,0.00375
03:38:08,1.90513544,-2.866565625,-1.145792375,0.3812372249999999,-0.36308961,-0.130393065,-9.018737655,29.22481003,-32.60556762,3.949067676,0.7077442677500001,-3.2221919275,-1.8284552605,0.2151497365,-0.4281037428499999,-0.295279432275,0.00375
03:38:08,1.90142188,-2.85910025,-1.14202675,0.37917045,-0.35990422,-0.1289921299999999,-9.03295831,29.214345060000003,-32.60837524,3.982225552,0.7071031355,-3.213572455,-1.823408021,0.214501243,-0.4245337857,-0.29332086455,0.00375
03:38:08,1.89770832,-2.851634875,-1.138261125,0.3771036749999999,-0.35671883,-0.127591195,-9.047178965,29.20388009,-32.61118286000001,4.015383428,0.7064620032500001,-3.2049529825,-1.8183607815,0.2138527495,-0.42096382855,-0.291362296825,0.00375
03:38:08,1.89399476,-2.8441695,-1.1344955,0.3750369,-0.35353344,-0.12619026,-9.06139962,29.19341512,-32.613990480000005,4.0485413040000005,0.705820871,-3.19633351,-1.813313542,0.213204256,-0.4173938714,-0.2894037291,0.00375
03:38:08,1.8902812,-2.836704125,-1.130729875,0.372970125,-0.35034805,-0.1247893249999999,-9.075620275,29.18295015,-32.616798100000004,4.08169918,0.7051797387500001,-3.1877140375,-1.8082663025,0.2125557625,-0.41382391425,-0.287445161375,0.00375
03:38:08,1.88656764,-2.82923875,-1.12696425,0.3709033499999999,-0.34716266,-0.12338839,-9.08984093,29.17248518,-32.61960572,4.114857056,0.7045386065,-3.179094565,-1.803219063,0.211907269,-0.4102539571,-0.28548659365,0.00375
03:38:08,1.88285408,-2.821773375,-1.123198625,0.368836575,-0.34397727,-0.121987455,-9.104061585,29.16202021,-32.62241334,4.148014932,0.70389747425,-3.1704750925,-1.7981718235,0.2112587755,-0.40668399995,-0.283528025925,0.00375
03:38:08,1.87914052,-2.814308,-1.119433,0.3667698,-0.34079188,-0.12058652,-9.11828224,29.15155524,-32.62522096,4.181172808,0.7032563420000001,-3.16185562,-1.793124584,0.210610282,-0.4031140428,-0.2815694582,0.00375
03:38:08,1.87542696,-2.806842625,-1.115667375,0.3647030249999999,-0.33760649,-0.119185585,-9.132502895,29.141090270000003,-32.628028580000006,4.214330684,0.70261520975,-3.1532361475,-1.7880773445,0.2099617885,-0.39954408565,-0.279610890475,0.00375
03:38:08,1.8717134,-2.79937725,-1.11190175,0.36263625,-0.3344211,-0.1177846499999999,-9.14672355,29.1306253,-32.630836200000005,4.24748856,0.7019740775000001,-3.144616675,-1.783030105,0.209313295,-0.3959741285,-0.27765232275,0.00375
03:38:08,1.86799984,-2.791911875,-1.108136125,0.360569475,-0.33123571,-0.116383715,-9.160944205,29.12016033,-32.63364382,4.2806464360000005,0.70133294525,-3.1359972025,-1.7779828655,0.2086648015,-0.39240417135,-0.275693755025,0.00375
03:38:08,1.86428628,-2.7844465,-1.1043705,0.3585026999999999,-0.32805032,-0.1149827799999999,-9.17516486,29.10969536,-32.63645144,4.313804312,0.700691813,-3.12737773,-1.772935626,0.208016308,-0.3888342142,-0.2737351873,0.00375
03:38:08,1.86057272,-2.776981125,-1.100604875,0.356435925,-0.32486493,-0.113581845,-9.189385515,29.09923039,-32.63925906,4.346962188,0.7000506807500001,-3.1187582575,-1.7678883865,0.2073678145,-0.38526425705,-0.271776619575,0.00375
03:38:08,1.85685916,-2.76951575,-1.0968392500000002,0.3543691499999999,-0.32167954,-0.11218091,-9.20360617,29.08876542,-32.642066680000006,4.380120064,0.6994095485,-3.110138785,-1.762841147,0.206719321,-0.3816942999,-0.26981805185,0.00375
03:38:08,1.8531456,-2.762050375,-1.0930736250000002,0.352302375,-0.31849415,-0.110779975,-9.217826825,29.07830045,-32.644874300000005,4.41327794,0.6987684162500001,-3.1015193125,-1.7577939075,0.2060708275,-0.37812434275,-0.267859484125,0.00375
03:38:08,1.84943204,-2.754585,-1.0893080000000002,0.3502356,-0.31530876,-0.10937904,-9.23204748,29.067835480000003,-32.647681920000004,4.446435816,0.698127284,-3.09289984,-1.752746668,0.205422334,-0.3745543856,-0.2659009164,0.00375
03:38:08,1.84571848,-2.747119625,-1.0855423750000002,0.3481688249999999,-0.31212337,-0.1079781049999999,-9.246268135,29.05737051,-32.65048954,4.479593692,0.6974861517500001,-3.0842803675,-1.7476994285,0.2047738405,-0.37098442845,-0.263942348675,0.00375
03:38:08,1.84200492,-2.73965425,-1.0817767500000002,0.34610205,-0.30893798,-0.10657717,-9.26048879,29.04690554,-32.65329716,4.5127515680000005,0.6968450195,-3.075660895,-1.742652189,0.204125347,-0.3674144713,-0.26198378095,0.00375
03:38:08,1.83829136,-2.732188875,-1.0780111250000002,0.344035275,-0.30575259,-0.1051762349999999,-9.274709445,29.03644057,-32.65610478000001,4.545909444,0.69620388725,-3.0670414225,-1.7376049495,0.2034768535,-0.3638445141499999,-0.260025213225,0.00375
03:38:08,1.8345778,-2.7247235,-1.0742455,0.3419685,-0.3025672,-0.1037753,-9.2889301,29.0259756,-32.658912400000006,4.57906732,0.6955627550000001,-3.05842195,-1.73255771,0.20282836,-0.360274557,-0.2580666455,0.00375
03:38:08,1.83086424,-2.717258125,-1.070479875,0.339901725,-0.29938181,-0.102374365,-9.303150755,29.01551063,-32.661720020000004,4.612225196,0.69492162275,-3.0498024775,-1.7275104705,0.2021798665,-0.35670459985,-0.256108077775,0.00375
03:38:08,1.82715068,-2.70979275,-1.06671425,0.3378349499999999,-0.29619642,-0.10097343,-9.31737141,29.00504566,-32.66452764,4.645383072,0.6942804905000001,-3.041183005,-1.722463231,0.201531373,-0.3531346427,-0.2541495100499999,0.00375
03:38:08,1.82343712,-2.702327375,-1.062948625,0.335768175,-0.29301103,-0.099572495,-9.331592065,28.994580690000003,-32.66733526,4.678540948,0.69363935825,-3.0325635325,-1.7174159915,0.2008828795,-0.34956468555,-0.252190942325,0.00375
03:38:08,1.81972356,-2.694862,-1.059183,0.3337014,-0.28982564,-0.0981715599999999,-9.34581272,28.98411572,-32.67014288,4.711698824,0.692998226,-3.02394406,-1.712368752,0.200234386,-0.3459947284,-0.2502323746,0.00375
03:38:08,1.81601,-2.687396625,-1.055417375,0.3316346249999999,-0.28664025,-0.096770625,-9.360033375,28.97365075,-32.672950500000006,4.7448567,0.6923570937500001,-3.0153245875,-1.7073215125,0.1995858925,-0.34242477125,-0.248273806875,0.00375
03:38:08,1.81229644,-2.67993125,-1.05165175,0.32956785,-0.28345486,-0.09536969,-9.37425403,28.96318578,-32.675758120000005,4.778014576,0.6917159615,-3.006705115,-1.702274273,0.198937399,-0.3388548141,-0.24631523915,0.00375
03:38:08,1.80858288,-2.672465875,-1.047886125,0.327501075,-0.28026947,-0.093968755,-9.388474685,28.95272081,-32.67856574,4.811172452,0.6910748292500001,-2.9980856425,-1.6972270335,0.1982889055,-0.33528485695,-0.244356671425,0.00375
03:38:08,1.80486932,-2.6650005,-1.0441205,0.3254342999999999,-0.27708408,-0.09256782,-9.40269534,28.94225584,-32.68137336,4.844330328,0.690433697,-2.98946617,-1.692179794,0.197640412,-0.3317148998,-0.2423981037,0.00375
03:38:08,1.80115576,-2.657535125,-1.040354875,0.323367525,-0.27389869,-0.091166885,-9.416915995,28.93179087,-32.68418098,4.8774882040000005,0.6897925647500001,-2.9808466975,-1.6871325545,0.1969919185,-0.32814494265,-0.240439535975,0.00375
03:38:08,1.7974422,-2.65006975,-1.03658925,0.3213007499999999,-0.2707133,-0.08976595,-9.43113665,28.921325900000003,-32.68698860000001,4.91064608,0.6891514325,-2.972227225,-1.682085315,0.196343425,-0.3245749854999999,-0.2384809682499999,0.00375
03:38:08,1.79372864,-2.642604375,-1.032823625,0.3192339749999999,-0.26752791,-0.0883650149999999,-9.445357305,28.91086093,-32.689796220000005,4.943803956,0.68851030025,-2.9636077525,-1.6770380755,0.1956949315,-0.32100502835,-0.236522400525,0.00375
03:38:08,1.79001508,-2.635139,-1.029058,0.3171672,-0.26434252,-0.08696408,-9.45957796,28.90039596,-32.692603840000004,4.976961832000001,0.6878691680000001,-2.95498828,-1.671990836,0.195046438,-0.3174350712,-0.2345638327999999,0.00375
03:38:08,1.78630152,-2.627673625,-1.025292375,0.315100425,-0.26115713,-0.085563145,-9.473798615,28.88993099,-32.69541146,5.010119708,0.68722803575,-2.9463688075,-1.6669435965,0.1943979445,-0.31386511405,-0.232605265075,0.00375
03:38:08,1.78258796,-2.62020825,-1.02152675,0.31303365,-0.25797174,-0.08416221,-9.48801927,28.87946602,-32.69821908,5.043277584,0.6865869035000001,-2.937749335,-1.661896357,0.193749451,-0.3102951569,-0.2306466973499999,0.00375
03:38:08,1.7788744,-2.612742875,-1.017761125,0.310966875,-0.25478635,-0.082761275,-9.502239925,28.86900105,-32.7010267,5.07643546,0.68594577125,-2.9291298625,-1.6568491175,0.1931009575,-0.30672519975,-0.228688129625,0.00375
03:38:08,1.77516084,-2.6052775,-1.0139955,0.3089001,-0.25160096,-0.08136034,-9.51646058,28.85853608,-32.703834320000006,5.109593336,0.685304639,-2.92051039,-1.651801878,0.192452464,-0.3031552426,-0.2267295619,0.00375
03:38:08,1.77144728,-2.597812125,-1.010229875,0.306833325,-0.24841557,-0.079959405,-9.530681235,28.848071110000003,-32.706641940000004,5.142751212,0.68466350675,-2.9118909175,-1.6467546385,0.1918039705,-0.29958528545,-0.224770994175,0.00375
03:38:08,1.76773372,-2.59034675,-1.00646425,0.3047665499999999,-0.24523018,-0.0785584699999999,-9.54490189,28.83760614,-32.70944956,5.175909088,0.6840223745,-2.903271445,-1.641707399,0.191155477,-0.2960153283,-0.22281242645,0.00375
03:38:08,1.76402016,-2.582881375,-1.002698625,0.302699775,-0.24204479,-0.077157535,-9.559122545,28.82714117,-32.71225718,5.209066964,0.6833812422500001,-2.8946519725,-1.6366601595,0.1905069835,-0.29244537115,-0.220853858725,0.00375
03:38:08,1.7603066,-2.575416,-0.998933,0.300633,-0.2388594,-0.0757566,-9.5733432,28.8166762,-32.7150648,5.24222484,0.68274011,-2.8860325,-1.63161292,0.18985849,-0.288875414,-0.218895291,0.00375
03:38:08,1.75659304,-2.567950625,-0.995167375,0.2985662249999999,-0.23567401,-0.074355665,-9.587563855,28.80621123,-32.717872420000006,5.275382716,0.6820989777500001,-2.8774130275,-1.6265656805,0.1892099965,-0.2853054568499999,-0.216936723275,0.00375
03:38:08,1.75287948,-2.56048525,-0.99140175,0.29649945,-0.23248862,-0.07295473,-9.60178451,28.79574626,-32.720680040000005,5.308540592,0.6814578455,-2.868793555,-1.621518441,0.188561503,-0.2817354997,-0.21497815555,0.00375
03:38:08,1.74916592,-2.553019875,-0.987636125,0.294432675,-0.22930323,-0.071553795,-9.616005165,28.78528129,-32.72348766,5.341698468000001,0.68081671325,-2.8601740825,-1.6164712015,0.1879130095,-0.27816554255,-0.213019587825,0.00375
03:38:08,1.74545236,-2.5455545,-0.9838705,0.2923658999999999,-0.22611784,-0.07015286,-9.63022582,28.774816320000003,-32.72629528,5.374856344,0.6801755810000001,-2.85155461,-1.611423962,0.187264516,-0.2745955854,-0.2110610201,0.00375
03:38:08,1.7417388,-2.538089125,-0.980104875,0.290299125,-0.22293245,-0.068751925,-9.644446475,28.76435135,-32.7291029,5.40801422,0.67953444875,-2.8429351375,-1.6063767225,0.1866160225,-0.27102562825,-0.209102452375,0.00375
03:38:08,1.73802524,-2.53062375,-0.97633925,0.2882323499999999,-0.21974706,-0.06735099,-9.65866713,28.75388638,-32.73191052000001,5.441172096000001,0.6788933165000001,-2.834315665,-1.601329483,0.185967529,-0.2674556711,-0.20714388465,0.00375
03:38:08,1.73431168,-2.523158375,-0.972573625,0.2861655749999999,-0.21656167,-0.065950055,-9.672887785,28.74342141,-32.734718140000005,5.4743299720000005,0.67825218425,-2.8256961925,-1.5962822435,0.1853190355,-0.26388571395,-0.205185316925,0.00375
03:38:08,1.73059812,-2.515693,-0.968808,0.2840988,-0.21337628,-0.06454912,-9.68710844,28.73295644,-32.737525760000004,5.507487848,0.677611052,-2.81707672,-1.591235004,0.184670542,-0.2603157568,-0.2032267492,0.00375
03:38:08,1.72688456,-2.508227625,-0.965042375,0.282032025,-0.21019089,-0.063148185,-9.701329095,28.72249147,-32.74033338,5.540645724,0.67696991975,-2.8084572475,-1.5861877645,0.1840220485,-0.25674579965,-0.2012681814749999,0.00375
03:38:08,1.723171,-2.50076225,-0.96127675,0.27996525,-0.2070055,-0.06174725,-9.71554975,28.7120265,-32.743141,5.5738036,0.6763287875,-2.799837775,-1.581140525,0.183373555,-0.2531758425,-0.19930961375,0.00375
03:38:08,1.71945744,-2.493296875,-0.957511125,0.277898475,-0.20382011,-0.060346315,-9.729770405,28.701561530000003,-32.74594862,5.606961476,0.6756876552500001,-2.7912183025,-1.5760932855,0.1827250615,-0.24960588535,-0.1973510460249999,0.00375
03:38:08,1.71574388,-2.4858315,-0.9537455,0.2758317,-0.20063472,-0.05894538,-9.74399106,28.69109656,-32.748756240000006,5.640119352,0.675046523,-2.78259883,-1.571046046,0.182076568,-0.2460359282,-0.1953924783,0.00375
03:38:08,1.71203032,-2.478366125,-0.949979875,0.273764925,-0.19744933,-0.057544445,-9.758211715,28.68063159,-32.751563860000005,5.673277228,0.6744053907500001,-2.7739793575,-1.5659988065,0.1814280745,-0.24246597105,-0.1934339105749999,0.00375
03:38:08,1.70831676,-2.47090075,-0.94621425,0.2716981499999999,-0.19426394,-0.05614351,-9.77243237,28.67016662,-32.75437148,5.7064351040000005,0.6737642585,-2.765359885,-1.560951567,0.180779581,-0.2388960139,-0.19147534285,0.00375
03:38:08,1.7046032,-2.463435375,-0.942448625,0.269631375,-0.19107855,-0.054742575,-9.786653025,28.65970165,-32.7571791,5.73959298,0.67312312625,-2.7567404125,-1.5559043275,0.1801310875,-0.23532605675,-0.1895167751249999,0.00375
03:38:08,1.70088964,-2.45597,-0.938683,0.2675646,-0.18789316,-0.0533416399999999,-9.80087368,28.64923668,-32.75998672,5.772750856,0.672481994,-2.74812094,-1.550857088,0.179482594,-0.2317560996,-0.1875582074,0.00375
03:38:08,1.69717608,-2.448504625,-0.934917375,0.2654978249999999,-0.18470777,-0.051940705,-9.815094335,28.63877171,-32.762794340000006,5.805908732000001,0.67184086175,-2.7395014675,-1.5458098485,0.1788341005,-0.22818614245,-0.1855996396749999,0.00375
03:38:08,1.69346252,-2.44103925,-0.93115175,0.26343105,-0.18152238,-0.05053977,-9.82931499,28.628306740000003,-32.765601960000005,5.839066608,0.6711997295000001,-2.730881995,-1.5407626090000002,0.178185607,-0.2246161853,-0.18364107195,0.00375
03:38:08,1.68974896,-2.433573875,-0.927386125,0.261364275,-0.17833699,-0.049138835,-9.843535645,28.61784177,-32.768409580000004,5.872224484,0.67055859725,-2.7222625225,-1.5357153695,0.1775371135,-0.22104622815,-0.1816825042249999,0.00375
03:38:08,1.6860354,-2.4261085,-0.9236205,0.2592974999999999,-0.1751516,-0.0477379,-9.8577563,28.6073768,-32.7712172,5.905382360000001,0.669917465,-2.71364305,-1.53066813,0.17688862,-0.217476271,-0.1797239365,0.00375
03:38:08,1.68232184,-2.418643125,-0.919854875,0.257230725,-0.17196621,-0.046336965,-9.871976955,28.59691183,-32.77402482,5.938540236,0.66927633275,-2.7050235775,-1.5256208905,0.1762401265,-0.21390631385,-0.177765368775,0.00375
03:38:08,1.67860828,-2.41117775,-0.91608925,0.25516395,-0.16878082,-0.04493603,-9.88619761,28.58644686,-32.77683244,5.971698112,0.6686352005,-2.696404105,-1.520573651,0.175591633,-0.2103363567,-0.17580680105,0.00375
03:38:08,1.67489472,-2.403712375,-0.912323625,0.2530971749999999,-0.16559543,-0.043535095,-9.900418265,28.57598189,-32.779640060000006,6.004855988,0.6679940682500001,-2.6877846325,-1.5155264115,0.1749431395,-0.20676639955,-0.173848233325,0.00375
03:38:08,1.67118116,-2.396247,-0.908558,0.2510304,-0.16241004,-0.04213416,-9.91463892,28.56551692,-32.782447680000004,6.038013864,0.667352936,-2.67916516,-1.510479172,0.174294646,-0.2031964424,-0.1718896656,0.00375
03:38:08,1.6674676,-2.388781625,-0.904792375,0.248963625,-0.15922465,-0.040733225,-9.928859575,28.555051950000003,-32.7852553,6.0711717400000005,0.66671180375,-2.6705456875,-1.5054319325,0.1736461525,-0.19962648525,-0.169931097875,0.00375
03:38:08,1.66375404,-2.38131625,-0.90102675,0.24689685,-0.15603926,-0.03933229,-9.94308023,28.54458698,-32.78806292,6.104329616,0.6660706715,-2.661926215,-1.500384693,0.172997659,-0.1960565281,-0.16797253015,0.00375
03:38:08,1.66004048,-2.373850875,-0.897261125,0.2448300749999999,-0.15285387,-0.037931355,-9.957300885,28.53412201,-32.79087054,6.137487492,0.66542953925,-2.6533067425,-1.4953374535,0.1723491655,-0.19248657095,-0.166013962425,0.00375
03:38:08,1.65632692,-2.3663855,-0.8934955,0.2427633,-0.14966848,-0.03653042,-9.97152154,28.52365704,-32.793678160000006,6.170645368000001,0.664788407,-2.64468727,-1.490290214,0.171700672,-0.1889166138,-0.1640553947,0.00375
03:38:08,1.65261336,-2.358920125,-0.889729875,0.240696525,-0.14648309,-0.035129485,-9.985742195,28.51319207,-32.796485780000005,6.203803244,0.66414727475,-2.6360677975,-1.4852429745,0.1710521785,-0.18534665665,-0.162096826975,0.00375
03:38:08,1.6488998,-2.3514547500000003,-0.88596425,0.2386297499999999,-0.1432977,-0.03372855,-9.99996285,28.5027271,-32.7992934,6.23696112,0.6635061425000001,-2.627448325,-1.480195735,0.170403685,-0.1817766995,-0.16013825925,0.00375
03:38:08,1.64518624,-2.343989375,-0.882198625,0.2365629749999999,-0.14011231,-0.032327615,-10.014183505,28.49226213,-32.80210102,6.270118996000001,0.66286501025,-2.6188288525,-1.4751484955,0.1697551915,-0.17820674235,-0.158179691525,0.00375
03:38:08,1.64147268,-2.336524,-0.878433,0.2344962,-0.13692692,-0.03092668,-10.02840416,28.481797160000003,-32.80490864,6.303276872,0.662223878,-2.61020938,-1.470101256,0.169106698,-0.1746367852,-0.1562211238,0.00375
03:38:08,1.63775912,-2.329058625,-0.874667375,0.232429425,-0.13374153,-0.029525745,-10.042624815,28.47133219,-32.80771626000001,6.336434748,0.66158274575,-2.6015899075,-1.4650540165,0.1684582045,-0.17106682805,-0.154262556075,0.00375
03:38:08,1.63404556,-2.3215932500000003,-0.87090175,0.23036265,-0.13055614,-0.02812481,-10.05684547,28.46086722,-32.810523880000005,6.369592624000001,0.6609416135,-2.592970435,-1.460006777,0.167809711,-0.1674968709,-0.15230398835,0.00375
03:38:08,1.630332,-2.314127875,-0.867136125,0.2282958749999999,-0.12737075,-0.026723875,-10.071066125,28.45040225,-32.813331500000004,6.4027505,0.66030048125,-2.5843509625,-1.4549595375,0.1671612175,-0.16392691375,-0.1503454206249999,0.00375
03:38:08,1.62661844,-2.3066625,-0.8633705,0.2262291,-0.12418536,-0.02532294,-10.08528678,28.43993728,-32.81613912,6.435908376,0.659659349,-2.57573149,-1.449912298,0.166512724,-0.1603569566,-0.1483868528999999,0.00375
03:38:08,1.62290488,-2.299197125,-0.859604875,0.224162325,-0.12099997,-0.023922005,-10.099507435,28.42947231,-32.81894674,6.469066252,0.65901821675,-2.5671120175,-1.4448650585,0.1658642305,-0.15678699945,-0.1464282851749999,0.00375
03:38:08,1.61919132,-2.2917317500000003,-0.85583925,0.2220955499999999,-0.11781458,-0.02252107,-10.11372809,28.41900734,-32.82175436,6.502224128,0.6583770845,-2.558492545,-1.439817819,0.165215737,-0.1532170423,-0.1444697174499999,0.00375
03:38:08,1.61547776,-2.284266375,-0.8520736250000001,0.2200287749999999,-0.1146291899999999,-0.021120135,-10.127948745,28.408542370000003,-32.824561980000006,6.535382004000001,0.65773595225,-2.5498730725,-1.4347705795,0.1645672435,-0.14964708515,-0.1425111497249999,0.00375
03:38:08,1.6117642,-2.276801,-0.8483080000000001,0.217962,-0.1114437999999999,-0.0197192,-10.1421694,28.3980774,-32.827369600000004,6.56853988,0.65709482,-2.5412536,-1.42972334,0.16391875,-0.146077128,-0.1405525819999999,0.00375
03:38:08,1.60805064,-2.269335625,-0.8445423750000001,0.215895225,-0.10825841,-0.018318265,-10.156390055,28.38761243,-32.83017722,6.601697756,0.65645368775,-2.5326341275,-1.4246761005000002,0.1632702565,-0.14250717085,-0.1385940142749999,0.00375
03:38:08,1.60433708,-2.26187025,-0.8407767500000001,0.21382845,-0.10507302,-0.01691733,-10.17061071,28.37714746,-32.83298484,6.634855632000001,0.6558125555000001,-2.524014655,-1.419628861,0.162621763,-0.1389372137,-0.1366354465499999,0.00375
03:38:08,1.60062352,-2.254404875,-0.8370111250000001,0.2117616749999999,-0.10188763,-0.015516395,-10.184831365,28.36668249,-32.83579246,6.6680135080000005,0.65517142325,-2.5153951825,-1.4145816215,0.1619732695,-0.13536725655,-0.1346768788249999,0.00375
03:38:08,1.59690996,-2.2469395,-0.8332455000000001,0.2096949,-0.09870224,-0.01411546,-10.19905202,28.35621752,-32.838600080000006,6.701171384,0.654530291,-2.50677571,-1.409534382,0.161324776,-0.1317972994,-0.1327183110999999,0.00375
03:38:08,1.5931964,-2.239474125,-0.8294798750000001,0.207628125,-0.0955168499999999,-0.012714525,-10.213272675,28.34575255,-32.841407700000005,6.734329260000001,0.65388915875,-2.4981562375,-1.4044871425,0.1606762825,-0.12822734225,-0.130759743375,0.00375
03:38:08,1.58948284,-2.23200875,-0.8257142500000001,0.2055613499999999,-0.0923314599999999,-0.01131359,-10.22749333,28.335287580000003,-32.84421532,6.767487136,0.6532480265,-2.489536765,-1.399439903,0.160027789,-0.1246573851,-0.12880117565,0.00375
03:38:08,1.58576928,-2.224543375,-0.8219486250000001,0.2034945749999999,-0.08914607,-0.009912655,-10.241713985,28.32482261,-32.84702294,6.800645012,0.65260689425,-2.4809172925,-1.3943926635,0.1593792955,-0.1210874279499999,-0.126842607925,0.00375
03:38:08,1.58205572,-2.217078,-0.8181830000000001,0.2014278,-0.08596068,-0.00851172,-10.25593464,28.31435764,-32.84983056,6.833802888000001,0.651965762,-2.47229782,-1.389345424,0.158730802,-0.1175174708,-0.1248840401999999,0.00375
