Timestamp,linacce_x,linacce_y,linacce_z,gyro_x,gyro_y,gyro_z,X-magnetometer,Y-magnetometer,Z-magnetometer,Yaw, worldXAccel,worldYAccel,worldZAccel,worldXgyro,worldYgyro,worldZgyro,Distance
03:38:19,-0.67681,0.129142,-0.118241,0.373716,0.391188,-0.236198,-1.95219,-31.398994,-2.584274,174.30238,-0.6154996,0.059003785,0.5019085,0.1120093,0.45273018,-0.07779737,0.00375
03:38:19,-0.675787625,0.12483899,-0.10903965,0.37126037,0.389179815,-0.23524984,-1.931711315,-31.39659723,-2.57685827,172.55313745,-0.6099509015000001,0.054450657075,0.49293969,0.1108281221,0.45037691051,-0.07691493155,0.00375
03:38:19,-0.67476525,0.12053598,-0.0998382999999999,0.36880474,0.38717163,-0.2343016799999999,-1.91123263,-31.39420046,-2.5694425400000003,170.8038949,-0.604402203,0.04989752915,0.48397088,0.1096469442,0.44802364102,-0.0760324931,0.00375
03:38:19,-0.6737428750000001,0.11623297,-0.09063695,0.36634911,0.385163445,-0.2333535199999999,-1.890753945,-31.39180369,-2.5620268100000003,169.05465235,-0.5988535045000001,0.045344401225,0.47500207,0.1084657663,0.44567037153,-0.07515005465,0.00375
03:38:19,-0.6727205,0.11192996,-0.0814356,0.36389348,0.38315526,-0.23240536,-1.87027526,-31.38940692,-2.5546110800000004,167.3054098,-0.593304806,0.0407912733,0.46603326,0.1072845884,0.4433171020399999,-0.0742676162,0.00375
03:38:19,-0.671698125,0.10762695,-0.07223425,0.36143785,0.381147075,-0.2314572,-1.849796575,-31.38701015,-2.54719535,165.55616725,-0.5877561075000001,0.036238145375,0.4570644499999999,0.1061034105,0.44096383255,-0.07338517775,0.00375
03:38:19,-0.67067575,0.10332394,-0.0630329,0.35898222,0.37913889,-0.23050904,-1.82931789,-31.38461338,-2.53977962,163.8069247,-0.582207409,0.03168501745,0.4480956399999999,0.1049222326,0.4386105630599999,-0.0725027393,0.00375
03:38:19,-0.669653375,0.09902093,-0.0538315499999999,0.35652659,0.3771307049999999,-0.22956088,-1.808839205,-31.38221661,-2.53236389,162.05768215,-0.5766587105000001,0.027131889525,0.4391268299999999,0.1037410547,0.43625729357,-0.07162030085,0.00375
03:38:19,-0.668631,0.09471792,-0.0446301999999999,0.35407096,0.3751225199999999,-0.22861272,-1.78836052,-31.37981984,-2.52494816,160.3084396,-0.571110012,0.0225787616,0.43015802,0.1025598768,0.43390402408,-0.0707378624,0.00375
03:38:19,-0.6676086250000001,0.09041491,-0.03542885,0.35161533,0.3731143349999999,-0.22766456,-1.767881835,-31.37742307,-2.51753243,158.55919705,-0.5655613135,0.018025633675,0.42118921,0.1013786989,0.43155075459,-0.06985542395,0.00375
03:38:19,-0.66658625,0.0861119,-0.0262275,0.3491597,0.3711061499999999,-0.2267163999999999,-1.74740315,-31.3750263,-2.5101167,156.8099545,-0.560012615,0.01347250575,0.4122204,0.100197521,0.4291974851,-0.0689729855,0.00375
03:38:19,-0.665563875,0.08180889,-0.0170261499999999,0.34670407,0.369097965,-0.2257682399999999,-1.7269244650000002,-31.37262953,-2.50270097,155.06071194999998,-0.5544639165,0.008919377825,0.40325159,0.0990163431,0.4268442156099999,-0.06809054705,0.00375
03:38:19,-0.6645415,0.07750588,-0.0078247999999999,0.34424844,0.36708978,-0.2248200799999999,-1.70644578,-31.37023276,-2.4952852400000003,153.3114694,-0.5489152180000001,0.0043662499,0.3942827799999999,0.0978351652,0.42449094612,-0.0672081086,0.00375
03:38:19,-0.663519125,0.07320287,0.00137655,0.34179281,0.365081595,-0.22387192,-1.685967095,-31.36783599,-2.4878695100000003,151.56222685,-0.5433665195,-0.0001868780249999,0.38531397,0.0966539873,0.42213767663,-0.06632567015,0.00375
03:38:19,-0.66249675,0.06889986,0.0105779,0.33933718,0.36307341,-0.22292376,-1.66548841,-31.36543922,-2.4804537800000004,149.81298429999998,-0.537817821,-0.00474000595,0.3763451599999999,0.0954728094,0.41978440714,-0.0654432317,0.00375
03:38:19,-0.6614743750000001,0.06459685,0.01977925,0.33688155,0.361065225,-0.2219756,-1.645009725,-31.36304245,-2.47303805,148.06374175,-0.5322691225,-0.0092931338749999,0.3673763499999999,0.0942916315,0.41743113765,-0.06456079325,0.00375
03:38:19,-0.660452,0.06029384,0.0289806,0.33442592,0.35905704,-0.22102744,-1.62453104,-31.36064568,-2.46562232,146.3144992,-0.5267204240000001,-0.0138462617999999,0.3584075399999999,0.0931104536,0.41507786816,-0.0636783548,0.00375
03:38:19,-0.659429625,0.05599083,0.03818195,0.33197029,0.357048855,-0.22007928,-1.604052355,-31.35824891,-2.45820659,144.56525664999998,-0.5211717255,-0.0183993897249999,0.34943873,0.0919292757,0.41272459867,-0.06279591635,0.00375
03:38:19,-0.65840725,0.05168782,0.0473833,0.32951466,0.35504067,-0.2191311199999999,-1.58357367,-31.35585214,-2.45079086,142.8160141,-0.5156230270000001,-0.0229525176499999,0.34046992,0.0907480978,0.4103713291799999,-0.0619134779,0.00375
03:38:19,-0.657384875,0.04738481,0.05658465,0.32705903,0.3530324849999999,-0.2181829599999999,-1.5630949850000002,-31.35345537,-2.44337513,141.06677155,-0.5100743285,-0.027505645575,0.3315011099999999,0.0895669199,0.40801805969,-0.06103103945,0.00375
03:38:19,-0.6563625000000001,0.0430818,0.065786,0.3246034,0.3510242999999999,-0.2172348,-1.5426163000000002,-31.3510586,-2.4359594,139.31752899999998,-0.5045256300000001,-0.0320587735,0.3225323,0.088385742,0.4056647902,-0.060148601,0.00375
03:38:19,-0.655340125,0.03877879,0.07498735,0.32214777,0.3490161149999999,-0.21628664,-1.522137615,-31.34866183,-2.4285436700000003,137.56828645,-0.4989769315,-0.0366119014249999,0.3135634899999999,0.0872045641,0.40331152071,-0.05926616255,0.00375
03:38:19,-0.65431775,0.03447578,0.0841887,0.31969214,0.3470079299999999,-0.21533848,-1.50165893,-31.34626506,-2.4211279400000003,135.8190439,-0.493428233,-0.0411650293499999,0.3045946799999999,0.0860233862,0.40095825122,-0.0583837241,0.00375
03:38:19,-0.653295375,0.03017277,0.09339005,0.3172365099999999,0.3449997449999999,-0.21439032,-1.481180245,-31.34386829,-2.4137122100000004,134.06980135,-0.4878795345,-0.0457181572749999,0.2956258699999999,0.0848422083,0.39860498173,-0.05750128565,0.00375
03:38:19,-0.652273,0.02586976,0.1025914,0.31478088,0.34299156,-0.21344216,-1.46070156,-31.34147152,-2.40629648,132.3205588,-0.482330836,-0.0502712851999999,0.2866570599999999,0.0836610304,0.39625171224,-0.0566188472,0.00375
03:38:19,-0.651250625,0.02156675,0.11179275,0.31232525,0.340983375,-0.212494,-1.440222875,-31.33907475,-2.39888075,130.57131625,-0.4767821375,-0.054824413125,0.2776882499999999,0.0824798525,0.3938984427499999,-0.05573640875,0.00375
03:38:19,-0.6502282500000001,0.01726374,0.1209941,0.30986962,0.33897519,-0.2115458399999999,-1.41974419,-31.33667798,-2.39146502,128.8220737,-0.471233439,-0.0593775410499999,0.26871944,0.0812986746,0.39154517326,-0.0548539703,0.00375
03:38:19,-0.649205875,0.01296073,0.13019545,0.30741399,0.336967005,-0.2105976799999999,-1.3992655050000002,-31.33428121,-2.38404929,127.07283114999998,-0.4656847405,-0.063930668975,0.25975063,0.0801174967,0.38919190377,-0.05397153185,0.00375
03:38:19,-0.6481835,0.00865772,0.1393968,0.30495836,0.33495882,-0.2096495199999999,-1.3787868200000002,-31.33188444,-2.37663356,125.3235886,-0.460136042,-0.0684837969,0.2507818199999999,0.0789363188,0.38683863428,-0.0530890934,0.00375
03:38:19,-0.647161125,0.00435471,0.14859815,0.30250273,0.332950635,-0.20870136,-1.358308135,-31.32948767,-2.36921783,123.57434605,-0.4545873435000001,-0.0730369248249999,0.2418130099999999,0.0777551409,0.38448536479,-0.05220665495,0.00375
03:38:19,-0.64613875,5.170000000001562e-05,0.1577995,0.3000471,0.33094245,-0.2077532,-1.33782945,-31.3270909,-2.3618021,121.8251035,-0.449038645,-0.07759005275,0.2328441999999999,0.076573963,0.3821320953,-0.0513242165,0.00375
03:38:19,-0.645116375,-0.0042513099999999,0.16700085,0.2975914699999999,0.328934265,-0.20680504,-1.317350765,-31.32469413,-2.3543863700000003,120.07586095,-0.4434899465,-0.0821431806749999,0.2238753899999999,0.0753927851,0.37977882581,-0.05044177805,0.00375
03:38:19,-0.644094,-0.0085543199999999,0.1762022,0.29513584,0.32692608,-0.20585688,-1.29687208,-31.32229736,-2.3469706400000003,118.3266184,-0.437941248,-0.0866963086,0.2149065799999999,0.0742116072,0.3774255563199999,-0.0495593396,0.00375
03:38:19,-0.643071625,-0.0128573299999999,0.18540355,0.29268021,0.324917895,-0.20490872,-1.276393395,-31.31990059,-2.3395549100000004,116.57737585,-0.4323925495,-0.091249436525,0.2059377699999999,0.0730304293,0.37507228683,-0.04867690115,0.00375
03:38:19,-0.64204925,-0.0171603399999999,0.1946049,0.29022458,0.3229097099999999,-0.2039605599999999,-1.25591471,-31.31750382,-2.33213918,114.8281333,-0.426843851,-0.0958025644499999,0.1969689599999999,0.0718492514,0.37271901734,-0.0477944627,0.00375
03:38:19,-0.641026875,-0.0214633499999999,0.20380625,0.28776895,0.3209015249999999,-0.2030123999999999,-1.235436025,-31.31510705,-2.32472345,113.07889075,-0.4212951525,-0.100355692375,0.1880001499999999,0.0706680735,0.37036574785,-0.04691202425,0.00375
03:38:19,-0.6400045,-0.0257663599999999,0.2130076,0.28531332,0.3188933399999999,-0.20206424,-1.2149573400000002,-31.31271028,-2.31730772,111.3296482,-0.415746454,-0.1049088202999999,0.1790313399999999,0.0694868956,0.36801247836,-0.0460295858,0.00375
03:38:19,-0.6389821250000001,-0.0300693699999999,0.22220895,0.28285769,0.316885155,-0.2011160799999999,-1.1944786550000002,-31.31031351,-2.30989199,109.58040565,-0.4101977555,-0.109461948225,0.1700625299999999,0.0683057177,0.36565920887,-0.04514714735,0.00375
03:38:19,-0.63795975,-0.0343723799999999,0.2314103,0.28040206,0.31487697,-0.20016792,-1.17399997,-31.30791674,-2.30247626,107.8311631,-0.404649057,-0.11401507615,0.1610937199999999,0.0671245398,0.36330593938,-0.0442647089,0.00375
03:38:19,-0.636937375,-0.0386753899999999,0.24061165,0.2779464299999999,0.312868785,-0.19921976,-1.153521285,-31.30551997,-2.29506053,106.08192055,-0.3991003585,-0.1185682040749999,0.1521249099999999,0.0659433619,0.3609526698899999,-0.04338227045,0.00375
03:38:19,-0.635915,-0.0429783999999999,0.249813,0.2754908,0.3108606,-0.1982716,-1.1330426,-31.3031232,-2.2876448000000003,104.332678,-0.39355166,-0.123121332,0.1431560999999999,0.064762184,0.3585994004,-0.042499832,0.00375
03:38:19,-0.634892625,-0.0472814099999999,0.25901435,0.27303517,0.308852415,-0.19732344,-1.112563915,-31.30072643,-2.2802290700000003,102.58343545,-0.3880029615,-0.1276744599249999,0.1341872899999999,0.0635810061,0.35624613091,-0.04161739355,0.00375
03:38:19,-0.63387025,-0.0515844199999999,0.2682157,0.27057954,0.30684423,-0.1963752799999999,-1.09208523,-31.29832966,-2.2728133400000003,100.8341929,-0.382454263,-0.13222758785,0.1252184799999999,0.0623998282,0.35389286142,-0.0407349551,0.00375
03:38:19,-0.6328478750000001,-0.0558874299999999,0.27741705,0.26812391,0.304836045,-0.19542712,-1.071606545,-31.29593289,-2.26539761,99.08495035,-0.3769055645,-0.136780715775,0.1162496699999999,0.0612186503,0.35153959193,-0.03985251665,0.00375
03:38:19,-0.6318255,-0.0601904399999999,0.2866184,0.26566828,0.3028278599999999,-0.1944789599999999,-1.0511278600000002,-31.29353612,-2.25798188,97.3357078,-0.371356866,-0.1413338437,0.1072808599999999,0.0600374724,0.34918632244,-0.0389700782,0.00375
03:38:19,-0.630803125,-0.0644934499999999,0.29581975,0.26321265,0.3008196749999999,-0.1935308,-1.0306491750000002,-31.29113935,-2.25056615,95.58646525,-0.3658081675,-0.145886971625,0.0983120499999999,0.0588562945,0.34683305295,-0.03808763975,0.00375
03:38:19,-0.62978075,-0.0687964599999999,0.3050211,0.26075702,0.2988114899999999,-0.19258264,-1.01017049,-31.28874258,-2.24315042,93.8372227,-0.360259469,-0.1504400995499999,0.0893432399999999,0.0576751166,0.3444797834599999,-0.0372052013,0.00375
03:38:19,-0.628758375,-0.0730994699999999,0.31422245,0.2583013899999999,0.2968033049999999,-0.19163448,-0.989691805,-31.28634581,-2.23573469,92.08798015,-0.3547107705,-0.154993227475,0.0803744299999999,0.0564939387,0.34212651397,-0.03632276285,0.00375
03:38:19,-0.6277360000000001,-0.0774024799999999,0.3234238,0.25584576,0.2947951199999999,-0.19068632,-0.96921312,-31.28394904,-2.22831896,90.3387376,-0.349162072,-0.1595463553999999,0.0714056199999999,0.0553127608,0.33977324448,-0.0354403244,0.00375
03:38:19,-0.626713625,-0.0817054899999999,0.33262515,0.25339013,0.2927869349999999,-0.18973816,-0.948734435,-31.28155227,-2.22090323,88.58949505,-0.3436133735,-0.164099483325,0.0624368099999999,0.0541315829,0.33741997499,-0.03455788595,0.00375
03:38:19,-0.62569125,-0.0860084999999999,0.3418265,0.2509345,0.29077875,-0.1887899999999999,-0.9282557500000002,-31.2791555,-2.2134875000000003,86.84025249999999,-0.338064675,-0.16865261125,0.0534679999999999,0.052950405,0.3350667055,-0.0336754475,0.00375
03:38:19,-0.624668875,-0.0903115099999999,0.35102785,0.24847887,0.288770565,-0.1878418399999999,-0.907777065,-31.27675873,-2.2060717700000003,85.09100994999999,-0.3325159765,-0.1732057391749999,0.0444991899999999,0.0517692271,0.33271343601,-0.03279300905,0.00375
03:38:19,-0.6236465,-0.0946145199999999,0.3602292,0.24602324,0.28676238,-0.18689368,-0.88729838,-31.27436196,-2.1986560400000004,83.3417674,-0.326967278,-0.1777588671,0.0355303799999999,0.0505880492,0.33036016652,-0.0319105706,0.00375
03:38:19,-0.622624125,-0.0989175299999999,0.36943055,0.24356761,0.284754195,-0.1859455199999999,-0.866819695,-31.27196519,-2.19124031,81.59252484999999,-0.3214185795,-0.1823119950249999,0.0265615699999999,0.0494068713,0.32800689703,-0.03102813215,0.00375
03:38:19,-0.6216017500000001,-0.1032205399999999,0.3786319,0.24111198,0.28274601,-0.18499736,-0.8463410100000002,-31.26956842,-2.18382458,79.84328229999998,-0.315869881,-0.18686512295,0.0175927599999999,0.0482256934,0.32565362754,-0.0301456937,0.00375
03:38:19,-0.620579375,-0.1075235499999999,0.3878332500000001,0.23865635,0.280737825,-0.1840492,-0.8258623250000001,-31.26717165,-2.17640885,78.09403975,-0.3103211825,-0.191418250875,0.0086239499999999,0.0470445155,0.32330035805,-0.02926325525,0.00375
03:38:19,-0.619557,-0.1118265599999999,0.3970346,0.23620072,0.27872964,-0.18310104,-0.8053836400000001,-31.26477488,-2.16899312,76.34479719999999,-0.304772484,-0.1959713788,-0.0003448600000001,0.0458633376,0.32094708856,-0.0283808168,0.00375
03:38:19,-0.618534625,-0.1161295699999999,0.40623595,0.23374509,0.276721455,-0.18215288,-0.784904955,-31.26237811,-2.16157739,74.59555464999998,-0.2992237855,-0.2005245067249999,-0.00931367,0.0446821597,0.31859381907,-0.02749837835,0.00375
03:38:19,-0.61751225,-0.1204325799999999,0.4154373,0.23128946,0.27471327,-0.1812047199999999,-0.7644262700000002,-31.25998134,-2.15416166,72.84631209999999,-0.293675087,-0.2050776346499999,-0.0182824800000001,0.0435009818,0.31624054958,-0.0266159399,0.00375
03:38:19,-0.6164898750000001,-0.1247355899999999,0.42463865,0.22883383,0.272705085,-0.18025656,-0.7439475850000001,-31.25758457,-2.14674593,71.09706954999999,-0.2881263885,-0.209630762575,-0.02725129,0.0423198039,0.31388728009,-0.02573350145,0.00375
03:38:19,-0.6154675000000001,-0.1290385999999999,0.43384,0.2263782,0.2706968999999999,-0.1793083999999999,-0.7234689000000001,-31.2551878,-2.1393302000000003,69.347827,-0.28257769,-0.2141838905,-0.0362201,0.041138626,0.3115340105999999,-0.024851063,0.00375
03:38:19,-0.614445125,-0.1333416099999999,0.44304135,0.22392257,0.2686887149999999,-0.17836024,-0.702990215,-31.25279103,-2.1319144700000003,67.59858444999999,-0.2770289915,-0.218737018425,-0.04518891,0.0399574481,0.30918074111,-0.02396862455,0.00375
03:38:19,-0.61342275,-0.1376446199999999,0.4522427,0.22146694,0.2666805299999999,-0.17741208,-0.6825115300000002,-31.25039426,-2.12449874,65.84934189999998,-0.271480293,-0.2232901463499999,-0.05415772,0.0387762702,0.30682747162,-0.0230861861,0.00375
03:38:19,-0.612400375,-0.1419476299999999,0.46144405,0.21901131,0.264672345,-0.17646392,-0.6620328450000001,-31.24799749,-2.11708301,64.10009935,-0.2659315945,-0.2278432742749999,-0.06312653,0.0375950923,0.30447420213,-0.02220374765,0.00375
03:38:19,-0.611378,-0.1462506399999999,0.4706454,0.21655568,0.26266416,-0.17551576,-0.6415541600000001,-31.24560072,-2.10966728,62.35085679999999,-0.260382896,-0.2323964022,-0.07209534,0.0364139144,0.30212093264,-0.0213213092,0.00375
03:38:19,-0.610355625,-0.1505536499999999,0.47984675,0.21410005,0.260655975,-0.1745676,-0.621075475,-31.24320395,-2.10225155,60.60161424999998,-0.2548341975,-0.236949530125,-0.0810641500000001,0.0352327365,0.29976766315,-0.02043887075,0.00375
03:38:19,-0.60933325,-0.1548566599999999,0.4890481,0.21164442,0.25864779,-0.1736194399999999,-0.60059679,-31.24080718,-2.09483582,58.85237169999999,-0.249285499,-0.24150265805,-0.09003296,0.0340515586,0.29741439366,-0.0195564323,0.00375
03:38:19,-0.608310875,-0.1591596699999999,0.49824945,0.20918879,0.256639605,-0.1726712799999999,-0.5801181050000002,-31.23841041,-2.08742009,57.10312914999999,-0.2437368005,-0.2460557859749999,-0.0990017700000001,0.0328703807,0.2950611241699999,-0.01867399385,0.00375
03:38:19,-0.6072885,-0.1634626799999999,0.5074508,0.20673316,0.2546314199999999,-0.17172312,-0.5596394200000001,-31.23601364,-2.08000436,55.35388659999998,-0.238188102,-0.2506089138999999,-0.10797058,0.0316892028,0.29270785468,-0.0177915554,0.00375
03:38:19,-0.606266125,-0.1677656899999999,0.51665215,0.20427753,0.2526232349999999,-0.1707749599999999,-0.5391607350000001,-31.23361687,-2.0725886300000003,53.60464404999999,-0.2326394035,-0.255162041825,-0.11693939,0.0305080249,0.29035458519,-0.01690911695,0.00375
03:38:19,-0.6052437500000001,-0.1720686999999999,0.5258535,0.2018219,0.2506150499999999,-0.1698268,-0.51868205,-31.2312201,-2.0651729000000003,51.85540149999999,-0.227090705,-0.25971516975,-0.1259082,0.029326847,0.2880013157,-0.0160266785,0.00375
03:38:19,-0.6042213750000001,-0.1763717099999999,0.53505485,0.19936627,0.2486068649999999,-0.16887864,-0.4982033650000002,-31.22882333,-2.0577571700000004,50.10615895,-0.2215420065,-0.264268297675,-0.13487701,0.0281456691,0.28564804621,-0.01514424005,0.00375
03:38:19,-0.603199,-0.1806747199999999,0.5442562,0.19691064,0.24659868,-0.16793048,-0.4777246800000001,-31.22642656,-2.0503414400000004,48.35691639999999,-0.215993308,-0.2688214256,-0.14384582,0.0269644912,0.28329477672,-0.0142618016,0.00375
03:38:19,-0.602176625,-0.1849777299999999,0.55345755,0.19445501,0.244590495,-0.16698232,-0.457245995,-31.22402979,-2.04292571,46.60767384999998,-0.2104446095,-0.2733745535249999,-0.15281463,0.0257833133,0.28094150723,-0.01337936315,0.00375
03:38:19,-0.60115425,-0.1892807399999999,0.5626589,0.19199938,0.2425823099999999,-0.16603416,-0.43676731,-31.22163302,-2.03550998,44.85843129999998,-0.204895911,-0.27792768145,-0.1617834400000001,0.0246021354,0.27858823774,-0.0124969247,0.00375
03:38:19,-0.600131875,-0.1935837499999999,0.57186025,0.18954375,0.2405741249999999,-0.165086,-0.4162886250000002,-31.21923625,-2.02809425,43.10918874999999,-0.1993472125,-0.282480809375,-0.17075225,0.0234209575,0.27623496825,-0.01161448625,0.00375
03:38:19,-0.5991095,-0.1978867599999999,0.5810616,0.18708812,0.2385659399999999,-0.1641378399999999,-0.3958099400000001,-31.21683948,-2.02067852,41.3599462,-0.193798514,-0.2870339373,-0.1797210600000001,0.0222397796,0.27388169876,-0.0107320478,0.00375
03:38:19,-0.598087125,-0.2021897699999999,0.59026295,0.18463249,0.2365577549999999,-0.16318968,-0.3753312550000001,-31.21444271,-2.01326279,39.61070364999998,-0.1882498155,-0.291587065225,-0.18868987,0.0210586017,0.27152842927,-0.00984960935,0.00375
03:38:19,-0.59706475,-0.2064927799999999,0.5994643,0.18217686,0.2345495699999999,-0.16224152,-0.35485257,-31.21204594,-2.00584706,37.86146109999999,-0.182701117,-0.2961401931499999,-0.1976586800000001,0.0198774238,0.26917515978,-0.0089671709,0.00375
03:38:19,-0.596042375,-0.2107957899999999,0.60866565,0.17972123,0.232541385,-0.16129336,-0.3343738850000002,-31.20964917,-1.9984313300000005,36.11221855,-0.1771524185,-0.300693321075,-0.20662749,0.0186962459,0.26682189029,-0.00808473245,0.00375
03:38:19,-0.59502,-0.2150987999999999,0.6178669999999999,0.1772656,0.2305332,-0.1603452,-0.3138952000000001,-31.2072524,-1.9910156,34.362975999999975,-0.17160372,-0.305246449,-0.2155963,0.017515068,0.2644686208,-0.007202294,0.00375
03:38:19,-0.593997625,-0.2194018099999999,0.62706835,0.17480997,0.2285250149999999,-0.15939704,-0.2934165150000001,-31.20485563,-1.98359987,32.613733449999984,-0.1660550215,-0.309799576925,-0.2245651100000001,0.0163338901,0.26211535131,-0.00631985555,0.00375
03:38:19,-0.5929752500000001,-0.2237048199999999,0.6362697,0.17235434,0.2265168299999999,-0.15844888,-0.27293783,-31.20245886,-1.97618414,30.864490899999996,-0.160506323,-0.31435270485,-0.23353392,0.0151527122,0.25976208182,-0.0054374171,0.00375
03:38:19,-0.591952875,-0.2280078299999999,0.64547105,0.16989871,0.2245086449999999,-0.1575007199999999,-0.252459145,-31.20006209,-1.96876841,29.115248349999973,-0.1549576245,-0.3189058327749999,-0.2425027300000001,0.0139715343,0.25740881233,-0.00455497865,0.00375
03:38:19,-0.5909305,-0.2323108399999999,0.6546724,0.16744308,0.2225004599999999,-0.15655256,-0.2319804600000001,-31.19766532,-1.96135268,27.366005799999986,-0.149408926,-0.3234589607,-0.25147154,0.0127903564,0.25505554284,-0.0036725402,0.00375
03:38:19,-0.589908125,-0.2366138499999999,0.66387375,0.16498745,0.220492275,-0.1556043999999999,-0.2115017750000001,-31.19526855,-1.95393695,25.61676324999999,-0.1438602275,-0.328012088625,-0.2604403500000001,0.0116091785,0.25270227335,-0.00279010175,0.00375
03:38:19,-0.58888575,-0.2409168599999999,0.6730751,0.16253182,0.21848409,-0.15465624,-0.19102309,-31.19287178,-1.94652122,23.86752069999997,-0.138311529,-0.33256521655,-0.26940916,0.0104280006,0.25034900386,-0.0019076633,0.00375
03:38:19,-0.587863375,-0.2452198699999999,0.68227645,0.16007619,0.2164759049999999,-0.15370808,-0.170544405,-31.19047501,-1.93910549,22.11827814999998,-0.1327628305,-0.337118344475,-0.2783779700000001,0.0092468227,0.24799573437,-0.00102522485,0.00375
03:38:19,-0.5868410000000001,-0.2495228799999999,0.6914778,0.15762056,0.2144677199999999,-0.15275992,-0.1500657200000001,-31.18807824,-1.9316897600000005,20.36903559999999,-0.127214132,-0.3416714723999999,-0.2873467800000001,0.0080656448,0.24564246488,-0.0001427864,0.00375
03:38:19,-0.585818625,-0.25382589,0.70067915,0.15516493,0.2124595349999999,-0.15181176,-0.1295870350000001,-31.18568147,-1.92427403,18.61979304999997,-0.1216654335,-0.346224600325,-0.2963155900000001,0.0068844669,0.24328919539,0.0007396520499999,0.00375
03:38:19,-0.58479625,-0.2581289,0.7098805,0.1527093,0.2104513499999999,-0.1508636,-0.10910835,-31.1832847,-1.9168583,16.87055049999998,-0.116116735,-0.35077772825,-0.3052844000000001,0.005703289,0.2409359259,0.0016220904999999,0.00375
03:38:19,-0.583773875,-0.26243191,0.71908185,0.15025367,0.2084431649999999,-0.14991544,-0.088629665,-31.18088793,-1.90944257,15.121307949999988,-0.1105680365,-0.355330856175,-0.31425321,0.0045221111,0.23858265641,0.0025045289499999,0.00375
03:38:19,-0.5827515,-0.26673492,0.7282832,0.14779804,0.20643498,-0.1489672799999999,-0.0681509800000002,-31.17849116,-1.90202684,13.372065399999997,-0.105019338,-0.3598839841,-0.3232220200000001,0.0033409332,0.23622938692,0.0033869673999999,0.00375
03:38:19,-0.5817291250000001,-0.27103793,0.73748455,0.14534241,0.2044267949999999,-0.14801912,-0.0476722950000001,-31.17609439,-1.89461111,11.622822849999976,-0.0994706395,-0.3644371120249999,-0.33219083,0.0021597553,0.23387611743,0.0042694058499999,0.00375
03:38:19,-0.58070675,-0.27534094,0.7466859,0.14288678,0.2024186099999999,-0.14707096,-0.02719361,-31.17369762,-1.88719538,9.873580299999986,-0.093921941,-0.36899023995,-0.3411596400000001,0.0009785774,0.23152284794,0.0051518443,0.00375
03:38:19,-0.579684375,-0.27964395,0.75588725,0.14043115,0.2004104249999999,-0.1461228,-0.006714925,-31.17130085,-1.87977965,8.124337749999995,-0.0883732425,-0.373543367875,-0.35012845,-0.0002026004999999,0.22916957845,0.0060342827499999,0.00375
03:38:19,-0.578662,-0.2839469599999999,0.7650886,0.13797552,0.1984022399999999,-0.14517464,0.01376376,-31.16890408,-1.87236392,6.375095199999976,-0.082824544,-0.3780964957999999,-0.3590972600000001,-0.0013837783999999,0.22681630896,0.0069167211999999,0.00375
03:38:19,-0.577639625,-0.2882499699999999,0.77428995,0.13551989,0.1963940549999999,-0.14422648,0.0342424449999998,-31.16650731,-1.86494819,4.625852649999985,-0.0772758455,-0.382649623725,-0.3680660700000001,-0.0025649562999999,0.22446303947,0.0077991596499999,0.00375
03:38:19,-0.57661725,-0.2925529799999999,0.7834913,0.13306426,0.19438587,-0.14327832,0.0547211300000001,-31.16411054,-1.8575324600000005,2.876610099999993,-0.071727147,-0.3872027516499999,-0.37703488,-0.0037461341999999,0.22210976998,0.0086815980999999,0.00375
03:38:19,-0.5755948750000001,-0.2968559899999999,0.79269265,0.13060863,0.192377685,-0.1423301599999999,0.0751998149999997,-31.16171377,-1.85011673,1.127367549999974,-0.0661784484999999,-0.391755879575,-0.3860036900000001,-0.0049273120999999,0.21975650049,0.0095640365499999,0.00375
03:38:19,-0.5745725,-0.3011589999999999,0.801894,0.128153,0.1903694999999999,-0.141382,0.0956784999999997,-31.159317,-1.842701,-0.621875000000017,-0.06062975,-0.3963090075,-0.3949725,-0.0061084899999999,0.217403231,0.0104464749999999,0.00375
03:38:19,-0.573550125,-0.3054620099999999,0.81109535,0.12569737,0.1883613149999999,-0.1404338399999999,0.1161571849999998,-31.15692023,-1.83528527,-2.371117550000008,-0.0550810514999999,-0.4008621354249999,-0.4039413100000001,-0.0072896678999999,0.21504996151,0.0113289134499999,0.00375
03:38:19,-0.57252775,-0.3097650199999999,0.8202967,0.1232417399999999,0.1863531299999999,-0.13948568,0.1366358699999998,-31.15452346,-1.82786954,-4.120360100000028,-0.049532353,-0.40541526335,-0.41291012,-0.0084708457999999,0.21269669202,0.0122113518999999,0.00375
03:38:19,-0.571505375,-0.3140680299999999,0.82949805,0.12078611,0.1843449449999999,-0.13853752,0.1571145549999999,-31.15212669,-1.82045381,-5.869602650000019,-0.0439836545,-0.4099683912749999,-0.4218789300000001,-0.0096520236999999,0.21034342253,0.0130937903499999,0.00375
03:38:19,-0.5704830000000001,-0.3183710399999999,0.8386994,0.11833048,0.18233676,-0.13758936,0.1775932399999999,-31.14972992,-1.81303808,-7.61884520000001,-0.038434956,-0.4145215192,-0.43084774,-0.0108332015999999,0.20799015304,0.0139762287999999,0.00375
03:38:19,-0.569460625,-0.3226740499999999,0.84790075,0.11587485,0.180328575,-0.1366412,0.198071925,-31.14733315,-1.80562235,-9.36808775000003,-0.0328862575,-0.419074647125,-0.4398165500000001,-0.0120143794999999,0.20563688355,0.0148586672499999,0.00375
03:38:19,-0.56843825,-0.3269770599999999,0.8571021,0.1134192199999999,0.1783203899999999,-0.13569304,0.2185506100000001,-31.14493638,-1.7982066200000002,-11.11733030000002,-0.027337559,-0.4236277750499999,-0.4487853600000001,-0.0131955573999999,0.20328361406,0.0157411056999999,0.00375
03:38:19,-0.567415875,-0.3312800699999999,0.86630345,0.11096359,0.1763122049999999,-0.13474488,0.2390292949999997,-31.14253961,-1.7907908900000002,-12.866572850000011,-0.0217888605,-0.428180902975,-0.45775417,-0.0143767352999999,0.20093034457,0.0166235441499999,0.00375
03:38:19,-0.5663935,-0.3355830799999999,0.8755048,0.10850796,0.1743040199999999,-0.1337967199999999,0.2595079799999997,-31.14014284,-1.78337516,-14.61581540000003,-0.016240162,-0.4327340308999999,-0.4667229800000001,-0.0155579131999999,0.19857707508,0.0175059825999999,0.00375
03:38:19,-0.565371125,-0.3398860899999999,0.88470615,0.10605233,0.1722958349999999,-0.13284856,0.2799866649999998,-31.13774607,-1.77595943,-16.365057950000022,-0.0106914635,-0.437287158825,-0.47569179,-0.0167390910999999,0.19622380559,0.0183884210499999,0.00375
03:38:19,-0.56434875,-0.3441890999999999,0.8939075000000001,0.1035966999999999,0.1702876499999999,-0.1319004,0.3004653499999998,-31.1353493,-1.7685437000000002,-18.114300500000013,-0.0051427649999999,-0.44184028675,-0.4846606000000001,-0.0179202689999999,0.1938705361,0.0192708594999999,0.00375
03:38:19,-0.563326375,-0.3484921099999999,0.90310885,0.10114107,0.168279465,-0.13095224,0.3209440349999999,-31.13295253,-1.76112797,-19.863543050000036,0.0004059334999999,-0.4463934146749999,-0.49362941,-0.0191014468999999,0.19151726661,0.0201532979499999,0.00375
03:38:19,-0.562304,-0.3527951199999999,0.9123102,0.09868544,0.1662712799999999,-0.13000408,0.3414227199999999,-31.13055576,-1.75371224,-21.612785600000024,0.005954632,-0.4509465426,-0.5025982200000002,-0.0202826247999999,0.18916399712,0.0210357363999999,0.00375
03:38:19,-0.561281625,-0.3570981299999999,0.92151155,0.09622981,0.1642630949999999,-0.12905592,0.361901405,-31.12815899,-1.74629651,-23.36202815000001,0.0115033304999999,-0.4554996705249999,-0.51156703,-0.0214638026999999,0.18681072763,0.0219181748499999,0.00375
03:38:19,-0.56025925,-0.3614011399999999,0.9307129,0.0937741799999999,0.1622549099999999,-0.12810776,0.38238009,-31.12576222,-1.73888078,-25.111270700000038,0.017052029,-0.4600527984499999,-0.5205358400000001,-0.0226449805999999,0.18445745814,0.0228006132999999,0.00375
03:38:19,-0.5592368750000001,-0.3657041499999999,0.93991425,0.09131855,0.1602467249999999,-0.1271595999999999,0.4028587750000001,-31.12336545,-1.7314650500000002,-26.860513250000025,0.0226007274999999,-0.464605926375,-0.5295046500000001,-0.0238261584999999,0.18210418865,0.0236830517499999,0.00375
03:38:19,-0.5582145000000001,-0.3700071599999999,0.9491156,0.08886292,0.1582385399999999,-0.12621144,0.4233374599999997,-31.12096868,-1.7240493200000002,-28.609755800000016,0.0281494259999999,-0.4691590542999999,-0.5384734600000002,-0.0250073363999999,0.17975091916,0.0245654901999999,0.00375
03:38:19,-0.557192125,-0.37431017,0.95831695,0.08640729,0.156230355,-0.1252632799999999,0.4438161449999998,-31.11857191,-1.7166335900000005,-30.358998350000007,0.0336981244999999,-0.473712182225,-0.54744227,-0.0261885142999999,0.17739764967,0.0254479286499999,0.00375
03:38:19,-0.55616975,-0.37861318,0.9675183,0.0839516599999999,0.15422217,-0.12431512,0.4642948299999998,-31.11617514,-1.70921786,-32.10824090000003,0.0392468229999999,-0.4782653101499999,-0.5564110800000001,-0.0273696921999999,0.17504438018,0.0263303670999999,0.00375
03:38:19,-0.555147375,-0.38291619,0.97671965,0.08149603,0.1522139849999999,-0.12336696,0.4847735149999999,-31.11377837,-1.70180213,-33.85748345000002,0.0447955214999999,-0.4828184380749999,-0.5653798900000001,-0.0285508700999999,0.17269111069,0.0272128055499999,0.00375
03:38:19,-0.554125,-0.3872192,0.985921,0.0790404,0.1502057999999999,-0.1224188,0.5052521999999999,-31.1113816,-1.6943864,-35.60672600000001,0.0503442199999999,-0.487371566,-0.5743487000000002,-0.0297320479999999,0.1703378412,0.0280952439999999,0.00375
03:38:19,-0.553102625,-0.39152221,0.99512235,0.07658477,0.1481976149999999,-0.1214706399999999,0.525730885,-31.10898483,-1.68697067,-37.35596855000003,0.0558929185,-0.4919246939249999,-0.5833175100000002,-0.0309132258999999,0.16798457171,0.0289776824499999,0.00375
03:38:19,-0.55208025,-0.39582522,1.0043237,0.0741291399999999,0.1461894299999999,-0.1205224799999999,0.54620957,-31.10658806,-1.67955494,-39.10521110000002,0.0614416169999999,-0.49647782185,-0.59228632,-0.0320944037999999,0.16563130222,0.0298601208999999,0.00375
03:38:19,-0.551057875,-0.40012823,1.01352505,0.07167351,0.1441812449999999,-0.11957432,0.5666882550000001,-31.10419129,-1.67213921,-40.85445365000001,0.0669903155,-0.501030949775,-0.6012551300000001,-0.0332755816999999,0.16327803273,0.0307425593499999,0.00375
03:38:19,-0.5500355,-0.4044312399999999,1.0227264,0.06921788,0.14217306,-0.11862616,0.5871669399999997,-31.10179452,-1.66472348,-42.60369620000003,0.0725390139999999,-0.5055840776999999,-0.6102239400000001,-0.0344567596,0.16092476324,0.0316249978,0.00375
03:38:19,-0.549013125,-0.4087342499999999,1.03192775,0.06676225,0.1401648749999999,-0.1176779999999999,0.6076456249999997,-31.09939775,-1.6573077500000002,-44.35293875000002,0.0780877125,-0.510137205625,-0.6191927500000002,-0.0356379374999999,0.15857149375,0.0325074362499999,0.00375
03:38:19,-0.5479907500000001,-0.4130372599999999,1.0411291,0.0643066199999999,0.1381566899999999,-0.11672984,0.6281243099999998,-31.09700098,-1.6498920200000002,-46.10218130000001,0.0836364109999999,-0.5146903335499999,-0.62816156,-0.0368191153999999,0.15621822426,0.0333898746999999,0.00375
03:38:19,-0.5469683750000001,-0.4173402699999999,1.05033045,0.0618509899999999,0.1361485049999999,-0.11578168,0.6486029949999998,-31.09460421,-1.64247629,-47.85142385000003,0.0891851095,-0.519243461475,-0.6371303700000001,-0.0380002932999999,0.15386495477,0.03427231315,0.00375
03:38:19,-0.545946,-0.4216432799999999,1.0595318,0.05939536,0.1341403199999999,-0.11483352,0.6690816799999999,-31.09220744,-1.63506056,-49.60066640000002,0.0947338079999999,-0.5237965894,-0.6460991800000001,-0.0391814711999999,0.15151168528,0.0351547515999999,0.00375
03:38:19,-0.544923625,-0.4259462899999999,1.06873315,0.05693973,0.1321321349999999,-0.1138853599999999,0.689560365,-31.08981067,-1.6276448300000002,-51.349908950000014,0.1002825064999999,-0.5283497173249999,-0.6550679900000002,-0.0403626490999999,0.14915841579,0.0360371900499999,0.00375
03:38:19,-0.54390125,-0.4302492999999999,1.0779345,0.0544841,0.13012395,-0.1129371999999999,0.71003905,-31.0874139,-1.6202291,-53.09915150000003,0.1058312049999999,-0.53290284525,-0.6640368000000002,-0.0415438269999999,0.1468051463,0.0369196284999999,0.00375
03:38:19,-0.542878875,-0.4345523099999999,1.08713585,0.0520284699999999,0.128115765,-0.11198904,0.7305177350000001,-31.08501713,-1.61281337,-54.84839405000002,0.1113799034999999,-0.5374559731749999,-0.67300561,-0.0427250048999999,0.14445187681,0.0378020669499999,0.00375
03:38:19,-0.5418565,-0.4388553199999999,1.0963372,0.04957284,0.12610758,-0.1110408799999999,0.7509964200000001,-31.08262036,-1.60539764,-56.597636600000016,0.1169286019999999,-0.5420091011,-0.6819744200000001,-0.0439061827999999,0.14209860732,0.0386845053999999,0.00375
03:38:19,-0.540834125,-0.4431583299999999,1.10553855,0.04711721,0.124099395,-0.11009272,0.7714751049999997,-31.08022359,-1.59798191,-58.34687915000004,0.1224773004999999,-0.546562229025,-0.6909432300000001,-0.0450873606999999,0.13974533783,0.0395669438499999,0.00375
03:38:19,-0.53981175,-0.4474613399999999,1.1147399,0.04466158,0.12209121,-0.10914456,0.7919537899999998,-31.07782682,-1.5905661800000002,-60.096121700000026,0.128025999,-0.5511153569499999,-0.6999120400000002,-0.0462685385999999,0.13739206834,0.0404493822999999,0.00375
03:38:19,-0.538789375,-0.4517643499999999,1.12394125,0.0422059499999999,0.1200830249999999,-0.1081964,0.8124324749999998,-31.07543005,-1.5831504500000002,-61.84536425000002,0.1335746974999999,-0.555668484875,-0.70888085,-0.0474497164999999,0.13503879885,0.04133182075,0.00375
03:38:19,-0.537767,-0.4560673599999999,1.1331426,0.03975032,0.1180748399999999,-0.10724824,0.8329111599999999,-31.07303328,-1.57573472,-63.59460680000004,0.139123396,-0.5602216127999999,-0.7178496600000001,-0.0486308943999999,0.13268552936,0.0422142591999999,0.00375
03:38:19,-0.536744625,-0.4603703699999999,1.14234395,0.03729469,0.1160666549999999,-0.1063000799999999,0.8533898449999999,-31.07063651,-1.56831899,-65.34384935000003,0.1446720944999999,-0.564774740725,-0.7268184700000001,-0.0498120722999999,0.13033225987,0.0430966976499999,0.00375
03:38:19,-0.5357222500000001,-0.4646733799999999,1.1515453,0.03483906,0.1140584699999999,-0.1053519199999999,0.87386853,-31.06823974,-1.56090326,-67.09309190000002,0.150220793,-0.56932786865,-0.7357872800000002,-0.0509932501999999,0.12797899038,0.0439791360999999,0.00375
03:38:19,-0.534699875,-0.4689763899999999,1.16074665,0.0323834299999999,0.1120502849999999,-0.1044037599999999,0.894347215,-31.06584297,-1.5534875300000002,-68.84233445000004,0.1557694914999999,-0.5738809965749999,-0.7447560900000002,-0.0521744280999999,0.12562572089,0.0448615745499999,0.00375
03:38:19,-0.5336775,-0.4732793999999999,1.169948,0.0299278,0.1100420999999999,-0.1034556,0.9148259,-31.0634462,-1.5460718,-70.59157700000003,0.16131819,-0.5784341245,-0.7537249,-0.0533556059999999,0.1232724514,0.0457440129999999,0.00375
03:38:19,-0.532655125,-0.4775824099999999,1.17914935,0.02747217,0.1080339149999999,-0.10250744,0.9353045849999996,-31.06104943,-1.53865607,-72.34081955000002,0.1668668884999999,-0.5829872524249999,-0.7626937100000001,-0.0545367839,0.12091918191,0.0466264514499999,0.00375
03:38:19,-0.53163275,-0.4818854199999999,1.1883507,0.02501654,0.1060257299999999,-0.10155928,0.9557832699999996,-31.05865266,-1.53124034,-74.09006210000001,0.1724155869999999,-0.58754038035,-0.7716625200000001,-0.0557179617999999,0.11856591242,0.0475088898999999,0.00375
03:38:19,-0.530610375,-0.4861884299999999,1.19755205,0.0225609099999999,0.1040175449999999,-0.10061112,0.9762619549999998,-31.05625589,-1.52382461,-75.83930465000003,0.1779642854999999,-0.592093508275,-0.7806313300000002,-0.0568991396999999,0.11621264293,0.0483913283499999,0.00375
03:38:19,-0.529588,-0.4904914399999999,1.2067534,0.02010528,0.10200936,-0.09966296,0.9967406399999998,-31.05385912,-1.5164088800000002,-77.58854720000002,0.1835129839999999,-0.5966466361999999,-0.78960014,-0.0580803175999999,0.11385937344,0.0492737667999999,0.00375
03:38:19,-0.528565625,-0.49479445,1.21595475,0.01764965,0.100001175,-0.0987147999999999,1.017219325,-31.05146235,-1.50899315,-79.33778975000001,0.1890616825,-0.601199764125,-0.79856895,-0.0592614954999999,0.11150610395,0.05015620525,0.00375
03:38:19,-0.52754325,-0.49909746,1.2251561,0.01519402,0.09799299,-0.0977666399999999,1.03769801,-31.04906558,-1.50157742,-81.08703230000003,0.1946103809999999,-0.6057528920499999,-0.8075377600000001,-0.0604426733999999,0.10915283446,0.0510386437,0.00375
03:38:19,-0.526520875,-0.50340047,1.23435745,0.0127383899999999,0.095984805,-0.0968184799999999,1.058176695,-31.04666881,-1.49416169,-82.83627485000002,0.2001590795,-0.610306019975,-0.8165065700000002,-0.0616238512999999,0.10679956497,0.0519210821499999,0.00375
03:38:19,-0.5254985,-0.50770348,1.2435588,0.01028276,0.0939766199999999,-0.0958703199999999,1.07865538,-31.04427204,-1.48674596,-84.58551740000004,0.2057077779999999,-0.6148591479,-0.8254753800000002,-0.0628050291999999,0.10444629548,0.0528035205999999,0.00375
03:38:19,-0.5244761250000001,-0.51200649,1.25276015,0.00782713,0.0919684349999999,-0.09492216,1.099134065,-31.04187527,-1.4793302300000002,-86.33475995,0.2112564765,-0.6194122758249999,-0.83444419,-0.0639862070999999,0.10209302599,0.0536859590499999,0.00375
03:38:19,-0.52345375,-0.5163095,1.2619615,0.0053715,0.0899602499999999,-0.093974,1.1196127499999995,-31.0394785,-1.4719145,-88.08400250000003,0.2168051749999999,-0.62396540375,-0.8434130000000001,-0.065167385,0.0997397565,0.0545683975,0.00375
03:38:19,-0.522431375,-0.52061251,1.27116285,0.0029158699999999,0.0879520649999999,-0.09302584,1.1400914349999998,-31.03708173,-1.46449877,-89.83324505000004,0.2223538735,-0.6285185316749999,-0.8523818100000001,-0.0663485628999999,0.09738648701,0.05545083595,0.00375
03:38:19,-0.521409,-0.52491552,1.2803642,0.00046024,0.0859438799999999,-0.09207768,1.1605701199999998,-31.03468496,-1.45708304,-91.5824876,0.2279025719999999,-0.6330716596,-0.8613506200000002,-0.0675297407999999,0.09503321752,0.0563332743999999,0.00375
03:38:19,-0.520386625,-0.52921853,1.28956555,-0.0019953899999999,0.0839356949999999,-0.0911295199999999,1.181048805,-31.03228819,-1.4496673100000002,-93.33173015000004,0.2334512705,-0.637624787525,-0.8703194300000002,-0.0687109186999999,0.09267994803,0.0572157128499999,0.00375
03:38:19,-0.51936425,-0.53352154,1.2987669,-0.0044510199999999,0.0819275099999999,-0.0901813599999999,1.20152749,-31.02989142,-1.4422515800000002,-95.08097270000005,0.2389999689999999,-0.6421779154499999,-0.87928824,-0.0698920965999999,0.09032667854,0.0580981512999999,0.00375
03:38:19,-0.518341875,-0.53782455,1.30796825,-0.00690665,0.0799193249999999,-0.0892331999999999,1.222006175,-31.02749465,-1.43483585,-96.83021525,0.2445486674999999,-0.646731043375,-0.8882570500000001,-0.0710732744999999,0.08797340905,0.0589805897499999,0.00375
03:38:19,-0.5173195,-0.54212756,1.3171696,-0.00936228,0.0779111399999999,-0.08828504,1.24248486,-31.02509788,-1.42742012,-98.57945780000004,0.250097366,-0.6512841712999999,-0.8972258600000002,-0.0722544523999999,0.08562013956,0.0598630282,0.00375
03:38:19,-0.516297125,-0.54643057,1.32637095,-0.0118179099999999,0.075902955,-0.08733688,1.262963545,-31.02270111,-1.42000439,-100.32870035000003,0.2556460644999999,-0.655837299225,-0.9061946700000002,-0.0734356302999999,0.08326687007,0.0607454666499999,0.00375
03:38:19,-0.51527475,-0.55073358,1.3355723,-0.0142735399999999,0.07389477,-0.08638872,1.2834422299999997,-31.02030434,-1.4125886600000002,-102.0779429,0.261194763,-0.66039042715,-0.91516348,-0.0746168082,0.08091360058,0.0616279050999999,0.00375
03:38:19,-0.514252375,-0.5550365899999999,1.34477365,-0.01672917,0.071886585,-0.08544056,1.3039209149999995,-31.01790757,-1.40517293,-103.82718545000004,0.2667434614999999,-0.6649435550749999,-0.92413229,-0.0757979860999999,0.07856033109,0.0625103435499999,0.00375
03:38:19,-0.5132300000000001,-0.5593395999999999,1.353975,-0.0191848,0.0698784,-0.0844924,1.3243995999999998,-31.0155108,-1.3977572,-105.57642800000004,0.27229216,-0.669496683,-0.9331011,-0.0769791639999999,0.0762070616,0.0633927819999999,0.00375
03:38:19,-0.512207625,-0.5636426099999999,1.36317635,-0.0216404299999999,0.0678702149999999,-0.0835442399999999,1.3448782849999998,-31.01311403,-1.39034147,-107.32567055,0.2778408584999999,-0.6740498109249999,-0.9420699100000002,-0.0781603418999999,0.07385379211,0.06427522045,0.00375
03:38:19,-0.51118525,-0.5679456199999999,1.3723777,-0.0240960599999999,0.0658620299999999,-0.0825960799999999,1.36535697,-31.01071726,-1.38292574,-109.07491310000005,0.283389557,-0.67860293885,-0.9510387200000002,-0.0793415197999999,0.07150052262,0.0651576589,0.00375
03:38:19,-0.510162875,-0.5722486299999999,1.38157905,-0.0265516899999999,0.0638538449999999,-0.0816479199999999,1.385835655,-31.00832049,-1.3755100100000002,-110.82415565000004,0.2889382554999999,-0.683156066775,-0.96000753,-0.0805226976999999,0.06914725313,0.06604009735,0.00375
03:38:19,-0.5091405,-0.5765516399999999,1.3907804,-0.02900732,0.0618456599999999,-0.0806997599999999,1.40631434,-31.00592372,-1.36809428,-112.5733982,0.294486954,-0.6877091946999999,-0.96897634,-0.0817038755999999,0.06679398364,0.0669225357999999,0.00375
03:38:19,-0.508118125,-0.5808546499999999,1.39998175,-0.0314629499999999,0.0598374749999999,-0.0797516,1.426793025,-31.00352695,-1.36067855,-114.32264075000003,0.3000356524999999,-0.692262322625,-0.9779451500000002,-0.0828850534999999,0.06444071415,0.0678049742499999,0.00375
03:38:19,-0.50709575,-0.5851576599999999,1.4091831,-0.0339185799999999,0.0578292899999999,-0.07880344,1.44727171,-31.00113018,-1.35326282,-116.07188330000004,0.305584351,-0.6968154505499999,-0.9869139600000002,-0.0840662313999999,0.06208744466,0.0686874126999999,0.00375
03:38:19,-0.506073375,-0.5894606699999999,1.41838445,-0.0363742099999999,0.0558211049999999,-0.07785528,1.4677503949999997,-30.99873341,-1.34584709,-117.82112585000002,0.3111330495,-0.701368578475,-0.99588277,-0.0852474093,0.05973417517,0.06956985115,0.00375
03:38:19,-0.505051,-0.5937636799999999,1.4275858,-0.03882984,0.0538129199999999,-0.07690712,1.4882290799999998,-30.99633664,-1.3384313600000002,-119.57036840000004,0.3166817479999999,-0.7059217064,-1.00485158,-0.0864285871999999,0.05738090568,0.0704522896,0.00375
03:38:19,-0.504028625,-0.5980666899999999,1.43678715,-0.0412854699999999,0.0518047349999999,-0.0759589599999999,1.5087077649999998,-30.99393987,-1.33101563,-121.31961095000004,0.3222304465,-0.7104748343249999,-1.0138203900000002,-0.0876097650999999,0.05502763619,0.0713347280499999,0.00375
03:38:19,-0.50300625,-0.6023696999999999,1.4459885,-0.0437410999999999,0.0497965499999999,-0.0750107999999999,1.52918645,-30.9915431,-1.3235999,-123.06885350000002,0.3277791449999999,-0.71502796225,-1.0227892,-0.0887909429999999,0.0526743667,0.0722171664999999,0.00375
03:38:19,-0.5019838750000001,-0.6066727099999999,1.45518985,-0.0461967299999999,0.047788365,-0.0740626399999999,1.549665135,-30.98914633,-1.31618417,-124.81809605000004,0.3333278435,-0.7195810901749999,-1.0317580100000003,-0.0899721208999999,0.05032109721,0.0730996049499999,0.00375
03:38:19,-0.5009615000000001,-0.6109757199999999,1.4643912,-0.04865236,0.04578018,-0.07311448,1.57014382,-30.98674956,-1.30876844,-126.56733860000006,0.3388765419999999,-0.7241342181,-1.0407268200000002,-0.0911532987999999,0.04796782772,0.0739820434,0.00375
03:38:19,-0.499939125,-0.6152787299999999,1.47359255,-0.0511079899999999,0.0437719949999999,-0.07216632,1.590622505,-30.98435279,-1.3013527100000002,-128.31658115000002,0.3444252405,-0.728687346025,-1.04969563,-0.0923344766999999,0.04561455823,0.07486448185,0.00375
03:38:19,-0.49891675,-0.6195817399999999,1.4827939,-0.0535636199999999,0.0417638099999999,-0.07121816,1.61110119,-30.98195602,-1.29393698,-130.06582370000004,0.3499739389999999,-0.7332404739499999,-1.0586644400000005,-0.0935156545999999,0.04326128874,0.0757469202999999,0.00375
03:38:19,-0.497894375,-0.6238847499999999,1.49199525,-0.0560192499999999,0.0397556249999999,-0.07027,1.6315798749999997,-30.97955925,-1.28652125,-131.81506625000006,0.3555226375,-0.737793601875,-1.06763325,-0.0946968325,0.04090801925,0.0766293587499999,0.00375
03:38:19,-0.496872,-0.62818776,1.5011966,-0.05847488,0.0377474399999999,-0.06932184,1.6520585599999995,-30.97716248,-1.27910552,-133.56430880000002,0.3610713359999999,-0.7423467297999999,-1.0766020600000004,-0.0958780103999999,0.03855474976,0.0775117971999999,0.00375
03:38:19,-0.495849625,-0.63249077,1.51039795,-0.0609305099999999,0.0357392549999999,-0.0683736799999999,1.6725372449999998,-30.97476571,-1.2716897900000002,-135.31355135000004,0.3666200345,-0.746899857725,-1.0855708700000002,-0.0970591882999999,0.03620148027,0.0783942356499999,0.00375
03:38:19,-0.49482725,-0.63679378,1.5195993,-0.0633861399999999,0.0337310699999999,-0.0674255199999999,1.6930159299999998,-30.97236894,-1.26427406,-137.06279390000006,0.372168733,-0.75145298565,-1.09453968,-0.0982403661999999,0.03384821078,0.0792766741,0.00375
03:38:19,-0.493804875,-0.64109679,1.52880065,-0.0658417699999999,0.0317228849999999,-0.0664773599999999,1.713494615,-30.96997217,-1.25685833,-138.81203645000002,0.3777174315,-0.7560061135749999,-1.1035084900000005,-0.0994215440999999,0.03149494129,0.08015911255,0.00375
03:38:19,-0.4927825,-0.6453998,1.538002,-0.0682974,0.0297146999999999,-0.0655291999999999,1.7339733,-30.9675754,-1.2494426,-140.56127900000004,0.38326613,-0.7605592415,-1.1124773,-0.1006027219999999,0.0291416718,0.0810415509999999,0.00375
03:38:19,-0.491760125,-0.64970281,1.54720335,-0.07075303,0.0277065149999999,-0.06458104,1.754451985,-30.96517863,-1.24202687,-142.31052155,0.3888148285,-0.7651123694249999,-1.12144611,-0.1017838998999999,0.02678840231,0.0819239894499999,0.00375
03:38:19,-0.49073775,-0.65400582,1.5564047,-0.0732086599999999,0.0256983299999999,-0.06363288,1.77493067,-30.96278186,-1.2346111400000002,-144.05976410000002,0.394363527,-0.76966549735,-1.1304149200000002,-0.1029650777999999,0.02443513282,0.0828064278999999,0.00375
03:38:19,-0.489715375,-0.65830883,1.56560605,-0.0756642899999999,0.0236901449999999,-0.06268472,1.795409355,-30.960385090000003,-1.22719541,-145.80900665000004,0.3999122254999999,-0.774218625275,-1.13938373,-0.1041462556999999,0.02208186333,0.08368886635,0.00375
03:38:19,-0.488693,-0.66261184,1.5748074,-0.07811992,0.02168196,-0.0617365599999999,1.81588804,-30.95798832,-1.21977968,-147.5582492,0.4054609239999999,-0.7787717531999999,-1.1483525400000003,-0.1053274335999999,0.01972859384,0.0845713048,0.00375
03:38:19,-0.487670625,-0.66691485,1.58400875,-0.08057555,0.019673775,-0.0607883999999999,1.836366725,-30.95559155,-1.21236395,-149.30749175000005,0.4110096225,-0.783324881125,-1.15732135,-0.1065086114999999,0.01737532435,0.0854537432499999,0.00375
03:38:19,-0.48664825,-0.6712178599999999,1.5932101,-0.0830311799999999,0.0176655899999999,-0.0598402399999999,1.85684541,-30.95319478,-1.20494822,-151.05673430000004,0.416558321,-0.7878780090499999,-1.16629016,-0.1076897893999999,0.01502205486,0.0863361816999999,0.00375
03:38:19,-0.485625875,-0.6755208699999999,1.60241145,-0.0854868099999999,0.0156574049999999,-0.0588920799999999,1.877324095,-30.95079801,-1.1975324900000002,-152.80597685,0.4221070194999999,-0.792431136975,-1.1752589700000002,-0.1088709672999999,0.01266878537,0.0872186201499999,0.00375
03:38:19,-0.4846035,-0.6798238799999999,1.6116128,-0.08794244,0.0136492199999999,-0.05794392,1.89780278,-30.948401240000003,-1.19011676,-154.55521940000003,0.4276557179999999,-0.7969842649,-1.18422778,-0.1100521451999999,0.01031551588,0.0881010586,0.00375
03:38:19,-0.483581125,-0.6841268899999999,1.62081415,-0.09039807,0.0116410349999999,-0.05699576,1.918281465,-30.94600447,-1.18270103,-156.30446195000005,0.4332044165000001,-0.8015373928249999,-1.1931965900000003,-0.1112333230999999,0.00796224639,0.08898349705,0.00375
03:38:19,-0.48255875,-0.6884298999999999,1.6300155,-0.0928536999999999,0.0096328499999999,-0.0560476,1.93876015,-30.9436077,-1.1752853,-158.0537045,0.438753115,-0.80609052075,-1.2021654000000002,-0.1124145009999999,0.0056089769,0.0898659355,0.00375
03:38:19,-0.481536375,-0.6927329099999999,1.63921685,-0.0953093299999999,0.0076246649999999,-0.05509944,1.959238835,-30.94121093,-1.16786957,-159.80294705000003,0.4443018135,-0.8106436486749999,-1.21113421,-0.1135956788999999,0.00325570741,0.0907483739499999,0.00375
03:38:19,-0.480514,-0.6970359199999999,1.6484182,-0.0977649599999999,0.0056164799999999,-0.0541512799999999,1.97971752,-30.93881416,-1.1604538400000002,-161.55218960000005,0.4498505119999999,-0.8151967765999999,-1.2201030200000005,-0.1147768567999999,0.00090243792,0.0916308123999999,0.00375
03:38:19,-0.479491625,-0.7013389299999999,1.6576195500000002,-0.10022059,0.0036082949999999,-0.0532031199999999,2.000196205,-30.936417390000003,-1.15303811,-163.30143215,0.4553992104999999,-0.819749904525,-1.22907183,-0.1159580346999999,-0.0014508315699999,0.0925132508499999,0.00375
03:38:19,-0.47846925,-0.7056419399999999,1.6668209,-0.1026762199999999,0.0016001099999999,-0.0522549599999999,2.02067489,-30.93402062,-1.14562238,-165.05067470000003,0.460947909,-0.8243030324499999,-1.2380406400000004,-0.1171392125999999,-0.0038041010599999,0.0933956893,0.00375
03:38:19,-0.477446875,-0.7099449499999999,1.6760222500000002,-0.1051318499999999,-0.000408075,-0.0513067999999999,2.041153575,-30.93162385,-1.13820665,-166.79991725000005,0.4664966075,-0.828856160375,-1.2470094500000002,-0.1183203904999999,-0.0061573705499999,0.09427812775,0.00375
03:38:19,-0.4764245,-0.7142479599999999,1.6852236,-0.1075874799999999,-0.00241626,-0.0503586399999999,2.0616322600000005,-30.92922708,-1.13079092,-168.5491598,0.4720453059999999,-0.8334092882999999,-1.25597826,-0.1195015683999999,-0.0085106400399999,0.0951605661999999,0.00375
03:38:19,-0.475402125,-0.7185509699999999,1.6944249500000002,-0.11004311,-0.0044244449999999,-0.04941048,2.082110945,-30.92683031,-1.12337519,-170.29840235000003,0.4775940044999999,-0.8379624162249999,-1.2649470700000005,-0.1206827462999999,-0.0108639095299999,0.0960430046499999,0.00375
03:38:19,-0.47437975,-0.7228539799999999,1.7036263,-0.1124987399999999,-0.0064326299999999,-0.04846232,2.10258963,-30.924433540000003,-1.11595946,-172.04764490000005,0.483142703,-0.84251554415,-1.27391588,-0.1218639241999999,-0.0132171790199999,0.0969254430999999,0.00375
03:38:19,-0.4733573749999999,-0.7271569899999999,1.71282765,-0.1149543699999999,-0.008440815,-0.04751416,2.1230683150000003,-30.92203677,-1.10854373,-173.79688745,0.4886914015,-0.8470686720749999,-1.28288469,-0.1230451020999999,-0.0155704485099999,0.09780788155,0.00375
03:38:20,-0.472335,-0.73146,1.722029,-0.11741,-0.010449,-0.046566,2.143547,-30.91964,-1.101128,-175.54613,0.4942401,-0.8516218,-1.2918535,-0.12422628,-0.017923718,0.09869032,0.00375
03:38:20,-0.47279668,-0.72765909,1.710321595,-0.11688798,-0.01071001,-0.04651273,2.126223125,-30.924976645,-1.07951667,-173.77612135,0.4876041102,-0.84718650416,-1.2812110105,-0.1237329807899999,-0.018125915535,0.098375856735,0.00375
03:38:20,-0.47325836,-0.72385818,1.69861419,-0.11636596,-0.01097102,-0.04645946,2.10889925,-30.93031329,-1.05790534,-172.00611270000002,0.4809681204,-0.84275120832,-1.270568521,-0.12323968158,-0.01832811307,0.09806139347,0.00375
03:38:20,-0.47372004,-0.72005727,1.686906785,-0.11584394,-0.01123203,-0.04640619,2.091575375,-30.935649935,-1.0362940100000002,-170.23610405,0.4743321306,-0.83831591248,-1.2599260315,-0.1227463823699999,-0.018530310605,0.097746930205,0.00375
03:38:20,-0.47418172,-0.71625636,1.67519938,-0.11532192,-0.01149304,-0.04635292,2.0742515,-30.94098658,-1.0146826800000002,-168.4660954,0.4676961408,-0.83388061664,-1.249283542,-0.12225308316,-0.01873250814,0.09743246694,0.00375
03:38:20,-0.4746434,-0.71245545,1.663491975,-0.1147999,-0.01175405,-0.04629965,2.056927625,-30.946323225,-0.99307135,-166.69608675,0.461060151,-0.8294453208,-1.2386410525,-0.1217597839499999,-0.018934705675,0.097118003675,0.00375
03:38:20,-0.47510508,-0.7086545399999999,1.65178457,-0.11427788,-0.01201506,-0.04624638,2.03960375,-30.95165987,-0.97146002,-164.9260781,0.4544241612,-0.82501002496,-1.227998563,-0.12126648474,-0.01913690321,0.09680354041,0.00375
03:38:20,-0.47556676,-0.70485363,1.640077165,-0.11375586,-0.01227607,-0.04619311,2.022279875,-30.956996515,-0.94984869,-163.15606945000002,0.4477881714,-0.82057472912,-1.2173560735,-0.12077318553,-0.019339100745,0.096489077145,0.00375
03:38:20,-0.47602844,-0.70105272,1.62836976,-0.11323384,-0.0125370799999999,-0.04613984,2.004956,-30.96233316,-0.92823736,-161.3860608,0.4411521816,-0.8161394332799999,-1.206713584,-0.12027988632,-0.01954129828,0.09617461388,0.00375
03:38:20,-0.47649012,-0.69725181,1.616662355,-0.11271182,-0.01279809,-0.04608657,1.987632125,-30.967669805,-0.9066260300000002,-159.61605215,0.4345161918,-0.81170413744,-1.1960710945,-0.11978658711,-0.019743495815,0.095860150615,0.00375
03:38:20,-0.4769518,-0.6934509,1.60495495,-0.1121898,-0.0130591,-0.0460333,1.97030825,-30.97300645,-0.8850147000000002,-157.8460435,0.427880202,-0.8072688416,-1.185428605,-0.1192932878999999,-0.01994569335,0.0955456873499999,0.00375
03:38:20,-0.47741348,-0.68964999,1.593247545,-0.11166778,-0.01332011,-0.04598003,1.952984375,-30.978343095,-0.8634033700000001,-156.07603485,0.4212442122,-0.80283354576,-1.1747861155,-0.11879998869,-0.020147890885,0.095231224085,0.00375
03:38:20,-0.47787516,-0.68584908,1.58154014,-0.11114576,-0.01358112,-0.04592676,1.9356605,-30.98367974,-0.8417920400000001,-154.30602620000002,0.4146082224,-0.79839824992,-1.164143626,-0.1183066894799999,-0.02035008842,0.09491676082,0.00375
03:38:20,-0.47833684,-0.68204817,1.569832735,-0.11062374,-0.01384213,-0.04587349,1.918336625,-30.989016385,-0.8201807100000001,-152.53601755,0.4079722326,-0.79396295408,-1.1535011365,-0.11781339027,-0.020552285955,0.0946022975549999,0.00375
03:38:20,-0.47879852,-0.67824726,1.55812533,-0.11010172,-0.01410314,-0.04582022,1.90101275,-30.99435303,-0.7985693800000001,-150.7660089,0.4013362428,-0.7895276582399999,-1.142858647,-0.1173200910599999,-0.02075448349,0.09428783429,0.00375
03:38:20,-0.4792602,-0.67444635,1.546417925,-0.1095797,-0.01436415,-0.04576695,1.883688875,-30.999689675000003,-0.7769580500000002,-148.99600025,0.394700253,-0.7850923624,-1.1322161575,-0.11682679185,-0.020956681025,0.093973371025,0.00375
03:38:20,-0.47972188,-0.67064544,1.53471052,-0.10905768,-0.01462516,-0.04571368,1.866365,-31.00502632,-0.7553467200000001,-147.2259916,0.3880642632,-0.78065706656,-1.121573668,-0.11633349264,-0.02115887856,0.09365890776,0.00375
03:38:20,-0.48018356,-0.66684453,1.523003115,-0.10853566,-0.01488617,-0.04566041,1.849041125,-31.010362965,-0.7337353900000001,-145.45598295,0.3814282734,-0.77622177072,-1.1109311785,-0.1158401934299999,-0.021361076095,0.093344444495,0.00375
03:38:20,-0.48064524,-0.6630436200000001,1.51129571,-0.10801364,-0.01514718,-0.04560714,1.83171725,-31.01569961,-0.7121240600000002,-143.6859743,0.3747922836,-0.77178647488,-1.100288689,-0.11534689422,-0.02156327363,0.09302998123,0.00375
03:38:20,-0.48110692,-0.65924271,1.499588305,-0.10749162,-0.0154081899999999,-0.04555387,1.814393375,-31.021036255,-0.6905127300000001,-141.91596565,0.3681562938,-0.7673511790399999,-1.0896461995,-0.1148535950099999,-0.021765471165,0.092715517965,0.00375
03:38:20,-0.4815686,-0.6554418,1.4878809,-0.1069696,-0.0156692,-0.0455006,1.7970695,-31.0263729,-0.6689014000000002,-140.145957,0.361520304,-0.7629158832,-1.0790037099999998,-0.1143602958,-0.0219676687,0.0924010547,0.00375
03:38:20,-0.48203028,-0.65164089,1.476173495,-0.10644758,-0.01593021,-0.04544733,1.779745625,-31.031709545,-0.6472900700000002,-138.37594835,0.3548843142,-0.75848058736,-1.0683612205,-0.1138669965899999,-0.022169866235,0.092086591435,0.00375
03:38:20,-0.48249196,-0.64783998,1.4644660900000002,-0.10592556,-0.01619122,-0.04539406,1.76242175,-31.03704619,-0.6256787400000001,-136.6059397,0.3482483244,-0.75404529152,-1.057718731,-0.11337369738,-0.02237206377,0.09177212817,0.00375
03:38:20,-0.48295364,-0.64403907,1.452758685,-0.10540354,-0.0164522299999999,-0.04534079,1.745097875,-31.042382835,-0.6040674100000001,-134.83593105,0.3416123346,-0.74960999568,-1.0470762415,-0.11288039817,-0.022574261305,0.091457664905,0.00375
03:38:20,-0.48341532,-0.64023816,1.44105128,-0.10488152,-0.01671324,-0.04528752,1.727774,-31.04771948,-0.5824560800000002,-133.0659224,0.3349763448,-0.74517469984,-1.036433752,-0.1123870989599999,-0.02277645884,0.09114320164,0.00375
03:38:20,-0.483877,-0.63643725,1.429343875,-0.1043595,-0.01697425,-0.04523425,1.710450125,-31.053056125,-0.5608447500000001,-131.29591375,0.328340355,-0.7407394039999999,-1.0257912625,-0.11189379975,-0.022978656375,0.090828738375,0.00375
03:38:20,-0.48433868,-0.63263634,1.41763647,-0.10383748,-0.01723526,-0.04518098,1.69312625,-31.05839277,-0.5392334200000002,-129.5259051,0.3217043652,-0.73630410816,-1.015148773,-0.1114005005399999,-0.02318085391,0.09051427511,0.00375
03:38:20,-0.48480036,-0.62883543,1.405929065,-0.10331546,-0.01749627,-0.04512771,1.675802375,-31.063729415,-0.5176220900000001,-127.75589645,0.3150683754,-0.73186881232,-1.0045062835,-0.11090720133,-0.023383051445,0.090199811845,0.00375
03:38:20,-0.48526204,-0.62503452,1.39422166,-0.10279344,-0.01775728,-0.04507444,1.6584785,-31.06906606,-0.4960107600000001,-125.9858878,0.3084323855999999,-0.72743351648,-0.993863794,-0.1104139021199999,-0.02358524898,0.08988534858,0.00375
03:38:20,-0.48572372,-0.62123361,1.382514255,-0.10227142,-0.01801829,-0.04502117,1.641154625,-31.074402705,-0.4743994300000002,-124.21587915,0.3017963958,-0.72299822064,-0.9832213045,-0.10992060291,-0.023787446515,0.089570885315,0.00375
03:38:20,-0.4861854,-0.6174327,1.37080685,-0.1017494,-0.0182793,-0.0449679,1.6238307499999998,-31.07973935,-0.4527881000000001,-122.4458705,0.295160406,-0.7185629248000001,-0.972578815,-0.1094273036999999,-0.02398964405,0.08925642205,0.00375
03:38:20,-0.48664708,-0.61363179,1.359099445,-0.10122738,-0.0185403099999999,-0.04491463,1.606506875,-31.085075995,-0.4311767700000002,-120.67586185,0.2885244162,-0.71412762896,-0.9619363255,-0.1089340044899999,-0.024191841585,0.088941958785,0.00375
03:38:20,-0.48710876,-0.60983088,1.34739204,-0.10070536,-0.01880132,-0.04486136,1.5891829999999998,-31.09041264,-0.4095654400000001,-118.9058532,0.2818884264,-0.70969233312,-0.951293836,-0.10844070528,-0.02439403912,0.08862749552,0.00375
03:38:20,-0.48757044,-0.60602997,1.335684635,-0.10018334,-0.01906233,-0.04480809,1.571859125,-31.095749285,-0.3879541100000001,-117.13584455,0.2752524366,-0.70525703728,-0.9406513465,-0.10794740607,-0.024596236655,0.0883130322549999,0.00375
03:38:20,-0.48803212,-0.60222906,1.32397723,-0.09966132,-0.01932334,-0.04475482,1.5545352499999998,-31.10108593,-0.3663427800000002,-115.3658359,0.2686164467999999,-0.70082174144,-0.930008857,-0.10745410686,-0.02479843419,0.08799856899,0.00375
03:38:20,-0.4884938,-0.5984281499999999,1.312269825,-0.0991393,-0.01958435,-0.04470155,1.537211375,-31.106422575,-0.3447314500000001,-113.59582725,0.261980457,-0.6963864456,-0.9193663675,-0.1069608076499999,-0.025000631725,0.087684105725,0.00375
03:38:20,-0.48895548,-0.59462724,1.30056242,-0.09861728,-0.01984536,-0.04464828,1.5198874999999998,-31.11175922,-0.3231201200000002,-111.8258186,0.2553444672,-0.6919511497599999,-0.908723878,-0.10646750844,-0.02520282926,0.08736964246,0.00375
03:38:20,-0.48941716,-0.59082633,1.288855015,-0.09809526,-0.02010637,-0.04459501,1.502563625,-31.117095865,-0.3015087900000002,-110.05580995,0.2487084774,-0.68751585392,-0.8980813885,-0.1059742092299999,-0.025405026795,0.087055179195,0.00375
03:38:20,-0.48987884,-0.58702542,1.27714761,-0.09757324,-0.0203673799999999,-0.04454174,1.48523975,-31.12243251,-0.2798974600000001,-108.2858013,0.2420724876,-0.68308055808,-0.887438899,-0.1054809100199999,-0.02560722433,0.08674071593,0.00375
03:38:20,-0.49034052,-0.58322451,1.265440205,-0.09705122,-0.02062839,-0.04448847,1.467915875,-31.127769155,-0.2582861300000002,-106.51579265,0.2354364977999999,-0.67864526224,-0.8767964094999999,-0.1049876108099999,-0.025809421865,0.086426252665,0.00375
03:38:20,-0.4908022,-0.5794235999999999,1.2537328,-0.0965292,-0.0208894,-0.0444352,1.450592,-31.1331058,-0.2366748000000001,-104.745784,0.228800508,-0.6742099664,-0.8661539199999999,-0.1044943116,-0.0260116194,0.0861117894,0.00375
03:38:20,-0.49126388,-0.57562269,1.2420253950000002,-0.09600718,-0.02115041,-0.04438193,1.433268125,-31.138442445,-0.2150634700000001,-102.97577535,0.2221645182,-0.66977467056,-0.8555114305,-0.10400101239,-0.026213816935,0.085797326135,0.00375
03:38:20,-0.49172556,-0.5718217800000001,1.23031799,-0.09548516,-0.02141142,-0.04432866,1.41594425,-31.14377909,-0.1934521400000002,-101.2057667,0.2155285283999999,-0.66533937472,-0.8448689409999999,-0.1035077131799999,-0.02641601447,0.08548286287,0.00375
03:38:20,-0.49218724,-0.56802087,1.218610585,-0.09496314,-0.02167243,-0.04427539,1.398620375,-31.149115735,-0.1718408100000001,-99.43575805,0.2088925386,-0.66090407888,-0.8342264515,-0.10301441397,-0.026618212005,0.085168399605,0.00375
03:38:20,-0.49264892,-0.56421996,1.20690318,-0.09444112,-0.02193344,-0.04422212,1.3812965,-31.15445238,-0.1502294800000001,-97.6657494,0.2022565488,-0.65646878304,-0.823583962,-0.1025211147599999,-0.02682040954,0.0848539363399999,0.00375
03:38:20,-0.4931106,-0.56041905,1.1951957750000002,-0.0939191,-0.0221944499999999,-0.04416885,1.363972625,-31.159789025,-0.1286181500000002,-95.89574075,0.1956205589999999,-0.6520334872,-0.8129414724999999,-0.10202781555,-0.027022607075,0.084539473075,0.00375
03:38:20,-0.49357228,-0.55661814,1.18348837,-0.09339708,-0.02245546,-0.04411558,1.34664875,-31.16512567,-0.1070068200000001,-94.1257321,0.1889845692,-0.64759819136,-0.8022989829999999,-0.1015345163399999,-0.02722480461,0.08422500981,0.00375
03:38:20,-0.49403396,-0.55281723,1.171780965,-0.09287506,-0.02271647,-0.04406231,1.329324875,-31.170462315,-0.0853954900000002,-92.35572345,0.1823485794,-0.6431628955199999,-0.7916564934999999,-0.10104121713,-0.027427002145,0.0839105465449999,0.00375
03:38:20,-0.49449564,-0.54901632,1.16007356,-0.09235304,-0.02297748,-0.04400904,1.312001,-31.17579896,-0.0637841600000002,-90.5857148,0.1757125895999999,-0.6387275996799999,-0.781014004,-0.10054791792,-0.02762919968,0.08359608328,0.00375
03:38:20,-0.49495732,-0.54521541,1.1483661550000002,-0.09183102,-0.02323849,-0.04395577,1.2946771249999998,-31.181135605,-0.0421728300000001,-88.81570615,0.1690765998,-0.63429230384,-0.7703715145,-0.1000546187099999,-0.027831397215,0.083281620015,0.00375
03:38:20,-0.495419,-0.5414145,1.13665875,-0.091309,-0.0234995,-0.0439025,1.27735325,-31.18647225,-0.0205615000000001,-87.0456975,0.1624406099999999,-0.629857008,-0.759729025,-0.0995613195,-0.02803359475,0.0829671567499999,0.00375
03:38:20,-0.49588068,-0.53761359,1.124951345,-0.09078698,-0.02376051,-0.04384923,1.2600293749999998,-31.191808895,0.0010498299999996,-85.27568885,0.1558046202,-0.62542171216,-0.7490865354999999,-0.0990680202899999,-0.028235792285,0.082652693485,0.00375
03:38:20,-0.49634236,-0.53381268,1.11324394,-0.09026496,-0.0240215199999999,-0.04379596,1.2427055,-31.19714554,0.0226611599999997,-83.5056802,0.1491686304,-0.62098641632,-0.7384440459999999,-0.09857472108,-0.02843798982,0.08233823022,0.00375
03:38:20,-0.49680404,-0.53001177,1.101536535,-0.08974294,-0.02428253,-0.04374269,1.2253816249999998,-31.202482185,0.0442724899999997,-81.73567155,0.1425326405999999,-0.61655112048,-0.7278015564999999,-0.0980814218699999,-0.028640187355,0.082023766955,0.00375
03:38:20,-0.49726572,-0.52621086,1.08982913,-0.08922092,-0.02454354,-0.04368942,1.20805775,-31.20781883,0.0658838199999998,-79.9656629,0.1358966508,-0.61211582464,-0.7171590669999999,-0.09758812266,-0.02884238489,0.08170930369,0.00375
03:38:20,-0.4977274,-0.52240995,1.078121725,-0.0886989,-0.02480455,-0.04363615,1.1907338749999998,-31.213155475,0.0874951499999998,-78.19565425,0.129260661,-0.6076805288,-0.7065165775,-0.0970948234499999,-0.029044582425,0.081394840425,0.00375
03:38:20,-0.49818908,-0.51860904,1.0664143200000002,-0.08817688,-0.02506556,-0.04358288,1.17341,-31.21849212,0.1091064799999999,-76.4256456,0.1226246711999999,-0.60324523296,-0.695874088,-0.0966015242399999,-0.02924677996,0.08108037716,0.00375
03:38:20,-0.49865076,-0.51480813,1.054706915,-0.08765486,-0.02532657,-0.04352961,1.156086125,-31.223828765,0.1307178099999997,-74.65563695,0.1159886814,-0.59880993712,-0.6852315984999999,-0.09610822503,-0.029448977495,0.080765913895,0.00375
03:38:20,-0.49911244,-0.51100722,1.04299951,-0.08713284,-0.02558758,-0.04347634,1.13876225,-31.22916541,0.1523291399999997,-72.88562830000001,0.1093526916,-0.59437464128,-0.6745891089999999,-0.09561492582,-0.02965117503,0.08045145063,0.00375
03:38:20,-0.49957412,-0.5072063099999999,1.031292105,-0.08661082,-0.0258485899999999,-0.04342307,1.121438375,-31.234502055,0.1739404699999998,-71.11561965,0.1027167017999999,-0.5899393454399999,-0.6639466194999999,-0.09512162661,-0.029853372565,0.080136987365,0.00375
03:38:20,-0.5000358,-0.5034054,1.0195847000000002,-0.0860888,-0.0261096,-0.0433698,1.1041145,-31.2398387,0.1955517999999998,-69.345611,0.096080712,-0.5855040496,-0.6533041299999999,-0.0946283273999999,-0.0300555701,0.0798225241,0.00375
03:38:20,-0.50049748,-0.4996044899999999,1.007877295,-0.08556678,-0.02637061,-0.04331653,1.086790625,-31.245175345,0.2171631299999998,-67.57560235,0.0894447222,-0.58106875376,-0.6426616405,-0.09413502819,-0.030257767635,0.079508060835,0.00375
03:38:20,-0.50095916,-0.49580358,0.99616989,-0.08504476,-0.0266316199999999,-0.04326326,1.06946675,-31.25051199,0.2387744599999997,-65.8055937,0.0828087323999999,-0.57663345792,-0.632019151,-0.0936417289799999,-0.03045996517,0.07919359757,0.00375
03:38:20,-0.50142084,-0.49200267,0.984462485,-0.08452274,-0.02689263,-0.04320999,1.052142875,-31.255848635,0.2603857899999997,-64.03558505,0.0761727426,-0.5721981620800001,-0.6213766614999999,-0.0931484297699999,-0.030662162705,0.078879134305,0.00375
03:38:20,-0.50188252,-0.48820176,0.97275508,-0.08400072,-0.02715364,-0.04315672,1.034819,-31.26118528,0.2819971199999997,-62.2655764,0.0695367527999999,-0.56776286624,-0.6107341719999999,-0.0926551305599999,-0.03086436024,0.07856467104,0.00375
03:38:20,-0.5023442,-0.48440085,0.961047675,-0.0834787,-0.02741465,-0.04310345,1.017495125,-31.266521925,0.3036084499999998,-60.495567750000006,0.0629007629999999,-0.5633275704,-0.6000916824999999,-0.09216183135,-0.031066557775,0.078250207775,0.00375
03:38:20,-0.50280588,-0.48059994,0.94934027,-0.08295668,-0.02767566,-0.04305018,1.00017125,-31.27185857,0.3252197799999998,-58.7255591,0.0562647732,-0.55889227456,-0.5894491929999999,-0.09166853214,-0.03126875531,0.07793574451,0.00375
03:38:20,-0.5032675600000001,-0.4767990299999999,0.937632865,-0.0824346599999999,-0.02793667,-0.04299691,0.982847375,-31.277195215,0.3468311099999996,-56.95555045,0.0496287833999999,-0.55445697872,-0.5788067034999999,-0.0911752329299999,-0.031470952845,0.077621281245,0.00375
03:38:20,-0.50372924,-0.4729981199999999,0.92592546,-0.08191264,-0.02819768,-0.04294364,0.9655235,-31.28253186,0.3684424399999997,-55.1855418,0.0429927935999999,-0.55002168288,-0.568164214,-0.09068193372,-0.03167315038,0.07730681798,0.00375
03:38:20,-0.50419092,-0.46919721,0.914218055,-0.08139062,-0.02845869,-0.04289037,0.948199625,-31.287868505,0.3900537699999997,-53.41553315,0.0363568038,-0.54558638704,-0.5575217244999999,-0.0901886345099999,-0.031875347915,0.076992354715,0.00375
03:38:20,-0.5046526,-0.4653963,0.90251065,-0.0808686,-0.0287197,-0.0428371,0.93087575,-31.29320515,0.4116650999999998,-51.64552449999999,0.0297208139999999,-0.5411510911999999,-0.5468792349999999,-0.0896953352999999,-0.03207754545,0.07667789145,0.00375
03:38:20,-0.50511428,-0.46159539,0.8908032450000001,-0.08034658,-0.02898071,-0.04278383,0.913551875,-31.298541795,0.4332764299999998,-49.87551585,0.0230848241999999,-0.53671579536,-0.5362367454999999,-0.0892020360899999,-0.032279742985,0.076363428185,0.00375
03:38:20,-0.50557596,-0.45779448,0.8790958400000001,-0.07982456,-0.02924172,-0.04273056,0.896228,-31.30387844,0.4548877599999996,-48.105507200000005,0.0164488344,-0.53228049952,-0.5255942559999999,-0.08870873688,-0.03248194052,0.07604896492,0.00375
03:38:20,-0.50603764,-0.4539935699999999,0.8673884350000001,-0.07930254,-0.02950273,-0.04267729,0.878904125,-31.309215085,0.4764990899999997,-46.33549855000001,0.0098128445999999,-0.52784520368,-0.5149517664999999,-0.08821543767,-0.032684138055,0.075734501655,0.00375
03:38:20,-0.50649932,-0.4501926599999999,0.8556810300000001,-0.0787805199999999,-0.02976374,-0.04262402,0.86158025,-31.31455173,0.4981104199999997,-44.56548989999999,0.0031768547999999,-0.5234099078400001,-0.504309277,-0.0877221384599999,-0.03288633559,0.07542003839,0.00375
03:38:20,-0.506961,-0.44639175,0.8439736250000002,-0.0782585,-0.03002475,-0.04257075,0.8442563749999998,-31.319888375,0.5197217499999998,-42.79548125,-0.003459135,-0.5189746120000001,-0.4936667874999999,-0.08722883925,-0.033088533125,0.075105575125,0.00375
03:38:20,-0.50742268,-0.44259084,0.8322662200000002,-0.07773648,-0.03028576,-0.04251748,0.8269324999999998,-31.32522502,0.5413330799999998,-41.0254726,-0.0100951248,-0.51453931616,-0.4830242979999999,-0.0867355400399999,-0.03329073066,0.07479111186,0.00375
03:38:20,-0.50788436,-0.43878993,0.8205588150000002,-0.07721446,-0.03054677,-0.04246421,0.8096086249999999,-31.330561665,0.5629444099999998,-39.255463950000006,-0.0167311146,-0.51010402032,-0.4723818084999999,-0.0862422408299999,-0.033492928195,0.074476648595,0.00375
03:38:20,-0.50834604,-0.43498902,0.8088514100000002,-0.07669244,-0.03080778,-0.04241094,0.7922847499999999,-31.33589831,0.5845557399999997,-37.48545530000001,-0.0233671044,-0.50566872448,-0.4617393189999998,-0.0857489416199999,-0.03369512573,0.0741621853299999,0.00375
03:38:20,-0.50880772,-0.4311881099999999,0.7971440050000002,-0.07617042,-0.03106879,-0.04235767,0.7749608749999999,-31.341234955,0.6061670699999997,-35.71544664999999,-0.0300030941999999,-0.50123342864,-0.4510968294999998,-0.08525564241,-0.033897323265,0.073847722065,0.00375
03:38:20,-0.5092694,-0.4273871999999999,0.7854366000000002,-0.0756484,-0.0313298,-0.0423044,0.7576369999999999,-31.3465716,0.6277783999999997,-33.945438,-0.0366390839999999,-0.4967981328,-0.4404543399999998,-0.0847623431999999,-0.0340995208,0.0735332588,0.00375
03:38:20,-0.50973108,-0.42358629,0.7737291950000001,-0.0751263799999999,-0.03159081,-0.04225113,0.7403131249999999,-31.351908245,0.6493897299999998,-32.17542935,-0.0432750738,-0.49236283696,-0.4298118504999999,-0.0842690439899999,-0.034301718335,0.0732187955349999,0.00375
03:38:20,-0.51019276,-0.41978538,0.7620217900000001,-0.07460436,-0.03185182,-0.04219786,0.7229892499999999,-31.35724489,0.6710010599999998,-30.405420700000008,-0.0499110636,-0.48792754112,-0.4191693609999999,-0.08377574478,-0.03450391587,0.07290433227,0.00375
03:38:20,-0.51065444,-0.41598447,0.7503143850000001,-0.07408234,-0.0321128299999999,-0.04214459,0.7056653749999999,-31.362581535,0.6926123899999996,-28.635412049999985,-0.0565470534,-0.48349224528,-0.4085268714999999,-0.08328244557,-0.034706113405,0.072589869005,0.00375
03:38:20,-0.5111161200000001,-0.41218356,0.7386069800000001,-0.07356032,-0.03237384,-0.04209132,0.6883414999999999,-31.36791818,0.7142237199999997,-26.86540339999999,-0.0631830432,-0.47905694944,-0.3978843819999998,-0.08278914636,-0.03490831094,0.0722754057399999,0.00375
03:38:20,-0.5115778,-0.4083826499999999,0.7268995750000001,-0.0730383,-0.03263485,-0.04203805,0.671017625,-31.373254825,0.7358350499999997,-25.09539475,-0.0698190329999999,-0.4746216536,-0.3872418924999998,-0.0822958471499999,-0.0351105084749999,0.071960942475,0.00375
03:38:20,-0.51203948,-0.4045817399999999,0.7151921700000001,-0.07251628,-0.03289586,-0.04198478,0.65369375,-31.37859147,0.7574463799999998,-23.325386100000003,-0.0764550228,-0.47018635776,-0.3765994029999998,-0.08180254794,-0.03531270601,0.07164647921,0.00375
03:38:20,-0.51250116,-0.40078083,0.7034847650000002,-0.07199426,-0.03315687,-0.04193151,0.636369875,-31.383928115,0.7790577099999998,-21.55537745000001,-0.0830910126,-0.46575106192,-0.3659569134999999,-0.0813092487299999,-0.035514903545,0.071332015945,0.00375
03:38:20,-0.51296284,-0.39697992,0.6917773600000001,-0.0714722399999999,-0.03341788,-0.04187824,0.619046,-31.38926476,0.8006690399999998,-19.785368799999983,-0.0897270024,-0.46131576608,-0.3553144239999999,-0.0808159495199999,-0.03571710108,0.07101755268,0.00375
03:38:20,-0.51342452,-0.39317901,0.6800699550000002,-0.07095022,-0.03367889,-0.04182497,0.601722125,-31.394601405,0.8222803699999996,-18.015360149999992,-0.0963629922,-0.45688047024,-0.3446719344999999,-0.08032265031,-0.035919298615,0.070703089415,0.00375
03:38:20,-0.5138862,-0.3893781,0.6683625500000001,-0.0704282,-0.0339398999999999,-0.0417717,0.58439825,-31.39993805,0.8438916999999997,-16.245351499999998,-0.102998982,-0.4524451744,-0.3340294449999998,-0.0798293511,-0.03612149615,0.07038862615,0.00375
03:38:20,-0.51434788,-0.3855771899999999,0.6566551450000002,-0.06990618,-0.03420091,-0.04171843,0.567074375,-31.405274695,0.8655030299999997,-14.475342850000004,-0.1096349717999999,-0.44800987856,-0.3233869554999998,-0.07933605189,-0.036323693685,0.070074162885,0.00375
03:38:20,-0.51480956,-0.3817762799999999,0.6449477400000001,-0.06938416,-0.03446192,-0.04166516,0.5497505,-31.41061134,0.8871143599999998,-12.70533420000001,-0.1162709616,-0.44357458272,-0.3127444659999998,-0.0788427526799999,-0.03652589122,0.06975969962,0.00375
03:38:20,-0.51527124,-0.37797537,0.6332403350000002,-0.06886214,-0.03472293,-0.04161189,0.532426625,-31.415947985,0.9087256899999998,-10.935325549999988,-0.1229069514,-0.43913928688,-0.3021019764999999,-0.07834945347,-0.036728088755,0.069445236355,0.00375
03:38:20,-0.51573292,-0.37417446,0.6215329300000001,-0.06834012,-0.03498394,-0.04155862,0.51510275,-31.42128463,0.9303370199999996,-9.165316899999992,-0.1295429412,-0.43470399104,-0.2914594869999998,-0.0778561542599999,-0.03693028629,0.06913077309,0.00375
03:38:20,-0.5161946000000001,-0.37037355,0.6098255250000002,-0.0678180999999999,-0.03524495,-0.04150535,0.497778875,-31.426621275,0.95194835,-7.395308249999999,-0.136178931,-0.4302686952,-0.2808169974999999,-0.0773628550499999,-0.037132483825,0.068816309825,0.00375
03:38:20,-0.51665628,-0.36657264,0.5981181200000001,-0.06729608,-0.03550596,-0.04145208,0.4804550000000001,-31.43195792,0.9735596799999996,-5.625299600000005,-0.1428149208,-0.42583339936,-0.270174508,-0.0768695558399999,-0.03733468136,0.06850184656,0.00375
03:38:20,-0.51711796,-0.3627717299999999,0.5864107150000002,-0.06677406,-0.0357669699999999,-0.04139881,0.4631311249999998,-31.437294565,0.9951710099999996,-3.855290950000011,-0.1494509106,-0.42139810352,-0.2595320184999998,-0.07637625663,-0.037536878895,0.068187383295,0.00375
03:38:20,-0.51757964,-0.3589708199999999,0.5747033100000001,-0.06625204,-0.03602798,-0.04134554,0.4458072499999999,-31.44263121,1.0167823399999998,-2.0852822999999887,-0.1560869004,-0.41696280768,-0.2488895289999999,-0.07588295742,-0.03773907643,0.06787292003,0.00375
03:38:20,-0.51804132,-0.35516991,0.5629959050000002,-0.06573002,-0.03628899,-0.04129227,0.4284833749999999,-31.447967855,1.0383936699999996,-0.3152736499999946,-0.1627228902,-0.41252751184,-0.2382470394999998,-0.0753896582099999,-0.037941273965,0.067558456765,0.00375
03:38:20,-0.518503,-0.351369,0.5512885000000001,-0.065208,-0.03655,-0.041239,0.4111594999999999,-31.4533045,1.060005,1.4547349999999994,-0.16935888,-0.408092216,-0.2276045499999999,-0.074896359,-0.0381434715,0.0672439935,0.00375
03:38:20,-0.5189646800000001,-0.34756809,0.5395810950000002,-0.06468598,-0.03681101,-0.04118573,0.3938356249999999,-31.458641145,1.0816163299999997,3.224743649999993,-0.1759948698,-0.40365692016,-0.2169620604999997,-0.0744030597899999,-0.038345669035,0.066929530235,0.00375
03:38:20,-0.51942636,-0.3437671799999999,0.5278736900000001,-0.0641639599999999,-0.03707202,-0.04113246,0.3765117499999999,-31.46397779,1.1032276599999995,4.994752300000016,-0.1826308595999999,-0.39922162432,-0.2063195709999998,-0.0739097605799999,-0.03854786657,0.06661506697,0.00375
03:38:20,-0.51988804,-0.3399662699999999,0.5161662850000002,-0.06364194,-0.03733303,-0.04107919,0.3591878749999999,-31.469314435,1.1248389899999998,6.76476095000001,-0.1892668494,-0.39478632848,-0.1956770814999999,-0.0734164613699999,-0.038750064105,0.066300603705,0.00375
03:38:20,-0.52034972,-0.3361653599999999,0.50445888,-0.06311992,-0.0375940399999999,-0.04102592,0.3418639999999999,-31.47465108,1.1464503199999996,8.534769600000004,-0.1959028392,-0.39035103264,-0.1850345919999998,-0.07292316216,-0.03895226164,0.06598614044,0.00375
03:38:20,-0.5208114,-0.33236445,0.4927514750000001,-0.0625979,-0.03785505,-0.04097265,0.3245401249999999,-31.479987725,1.1680616499999998,10.304778249999998,-0.202538829,-0.3859157368,-0.1743921024999999,-0.0724298629499999,-0.039154459175,0.065671677175,0.00375
03:38:20,-0.52127308,-0.32856354,0.48104407,-0.06207588,-0.03811606,-0.04091938,0.3072162499999999,-31.48532437,1.1896729799999997,12.074786899999992,-0.2091748188,-0.38148044096,-0.1637496129999998,-0.0719365637399999,-0.03935665671,0.0653572139099999,0.00375
03:38:20,-0.52173476,-0.32476263,0.4693366650000001,-0.06155386,-0.03837707,-0.04086611,0.289892375,-31.490661015,1.2112843099999997,13.844795550000017,-0.2158108086,-0.37704514512,-0.1531071234999999,-0.07144326453,-0.039558854245,0.065042750645,0.00375
03:38:20,-0.52219644,-0.3209617199999999,0.4576292600000002,-0.06103184,-0.03863808,-0.04081284,0.2725685,-31.49599766,1.2328956399999995,15.614804200000007,-0.2224467983999999,-0.37260984928,-0.1424646339999997,-0.0709499653199999,-0.03976105178,0.06472828738,0.00375
03:38:20,-0.52265812,-0.3171608099999999,0.4459218550000001,-0.06050982,-0.03889909,-0.04075957,0.255244625,-31.501334305,1.2545069699999996,17.384812850000003,-0.2290827882,-0.36817455344,-0.1318221444999998,-0.0704566661099999,-0.039963249315,0.0644138241149999,0.00375
03:38:20,-0.5231198,-0.3133598999999999,0.4342144500000002,-0.0599878,-0.0391601,-0.0407063,0.23792075,-31.50667095,1.2761182999999998,19.1548215,-0.235718778,-0.3637392576,-0.1211796549999999,-0.0699633668999999,-0.04016544685,0.06409936085,0.00375
03:38:20,-0.52358148,-0.30955899,0.4225070450000001,-0.05946578,-0.0394211099999999,-0.04065303,0.220596875,-31.512007595,1.2977296299999996,20.92483014999999,-0.2423547678,-0.35930396176,-0.1105371654999998,-0.06947006769,-0.040367644385,0.063784897585,0.00375
03:38:20,-0.5240431600000001,-0.30575808,0.4107996400000002,-0.05894376,-0.03968212,-0.04059976,0.203273,-31.51734424,1.31934096,22.694838800000014,-0.2489907576,-0.35486866592,-0.0998946759999999,-0.0689767684799999,-0.04056984192,0.0634704343199999,0.00375
03:38:20,-0.52450484,-0.30195717,0.3990922350000001,-0.05842174,-0.03994313,-0.04054649,0.185949125,-31.522680885,1.3409522899999995,24.464847450000008,-0.2556267474000001,-0.35043337008,-0.0892521864999997,-0.0684834692699999,-0.040772039455,0.063155971055,0.00375
03:38:20,-0.52496652,-0.2981562599999999,0.3873848300000002,-0.05789972,-0.04020414,-0.04049322,0.16862525,-31.52801753,1.3625636199999995,26.2348561,-0.2622627372,-0.3459980742399999,-0.0786096969999998,-0.06799017006,-0.0409742369899999,0.06284150779,0.00375
03:38:20,-0.5254282,-0.2943553499999999,0.3756774250000001,-0.0573777,-0.04046515,-0.04043995,0.151301375,-31.533354175,1.3841749499999998,28.00486475,-0.268898727,-0.3415627784,-0.0679672074999997,-0.06749687085,-0.041176434525,0.0625270445249999,0.00375
03:38:20,-0.52588988,-0.2905544399999999,0.3639700200000002,-0.05685568,-0.04072616,-0.04038668,0.1339774999999998,-31.53869082,1.4057862799999996,29.77487339999999,-0.2755347168,-0.33712748256,-0.0573247179999998,-0.06700357164,-0.04137863206,0.06221258126,0.00375
03:38:20,-0.52635156,-0.28675353,0.3522626150000001,-0.05633366,-0.04098717,-0.04033341,0.1166536250000001,-31.544027465,1.42739761,31.54488205000001,-0.2821707066,-0.33269218672,-0.0466822284999999,-0.0665102724299999,-0.041580829595,0.061898117995,0.00375
03:38:20,-0.5268132400000001,-0.28295262,0.3405552100000002,-0.05581164,-0.0412481799999999,-0.04028014,0.0993297499999998,-31.54936411,1.4490089399999997,33.31489070000001,-0.2888066964,-0.32825689088,-0.0360397389999997,-0.06601697322,-0.04178302713,0.06158365473,0.00375
03:38:20,-0.52727492,-0.27915171,0.3288478050000001,-0.05528962,-0.04150919,-0.04022687,0.0820058750000001,-31.554700755,1.4706202699999995,35.08489935,-0.2954426862000001,-0.3238215950399999,-0.0253972494999998,-0.0655236740099999,-0.041985224665,0.061269191465,0.00375
03:38:20,-0.5277366,-0.2753507999999999,0.3171404000000002,-0.0547676,-0.0417702,-0.0401736,0.0646819999999999,-31.5600374,1.4922315999999998,36.854908,-0.302078676,-0.3193862992,-0.0147547599999997,-0.0650303747999999,-0.0421874222,0.0609547282,0.00375
03:38:20,-0.52819828,-0.2715498899999999,0.3054329950000001,-0.05424558,-0.04203121,-0.04012033,0.0473581250000001,-31.565374045,1.5138429299999996,38.62491665000002,-0.3087146658,-0.31495100336,-0.0041122704999998,-0.0645370755899999,-0.042389619735,0.060640264935,0.00375
03:38:20,-0.52865996,-0.2677489799999999,0.2937255900000002,-0.05372356,-0.04229222,-0.04006706,0.0300342499999999,-31.57071069,1.5354542599999998,40.39492530000001,-0.3153506556,-0.31051570752,0.006530219,-0.06404377638,-0.04259181727,0.06032580167,0.00375
03:38:20,-0.5291216400000001,-0.26394807,0.2820181850000001,-0.05320154,-0.04255323,-0.04001379,0.0127103750000001,-31.576047335,1.5570655899999997,42.164933950000005,-0.3219866454,-0.30608041168,0.0171727085000001,-0.06355047717,-0.042794014805,0.060011338405,0.00375
03:38:20,-0.52958332,-0.26014716,0.2703107800000002,-0.05267952,-0.0428142399999999,-0.03996052,-0.0046135,-31.58138398,1.5786769199999997,43.9349426,-0.3286226352,-0.30164511584,0.027815198,-0.0630571779599999,-0.04299621234,0.05969687514,0.00375
03:38:20,-0.530045,-0.25634625,0.2586033750000001,-0.0521574999999999,-0.04307525,-0.03990725,-0.0219373749999998,-31.586720625,1.6002882499999995,45.70495124999999,-0.3352586250000001,-0.2972098199999999,0.0384576875000002,-0.06256387875,-0.0431984098749999,0.059382411875,0.00375
03:38:20,-0.53050668,-0.2525453399999999,0.2468959700000002,-0.05163548,-0.04333626,-0.03985398,-0.03926125,-31.59205727,1.6218995799999996,47.474959900000016,-0.3418946148,-0.29277452416,0.0491001770000001,-0.0620705795399999,-0.04340060741,0.05906794861,0.00375
03:38:20,-0.53096836,-0.2487444299999999,0.235188565,-0.05111346,-0.04359727,-0.03980071,-0.0565851249999997,-31.597393915,1.6435109099999998,49.24496855000001,-0.3485306046,-0.28833922832,0.0597426665000002,-0.06157728033,-0.043602804945,0.058753485345,0.00375
03:38:20,-0.53143004,-0.2449435199999999,0.2234811600000001,-0.05059144,-0.04385828,-0.03974744,-0.073909,-31.60273056,1.6651222399999996,51.0149772,-0.3551665944,-0.28390393248,0.0703851560000001,-0.0610839811199999,-0.04380500248,0.05843902208,0.00375
03:38:20,-0.5318917200000001,-0.2411426099999999,0.2117737550000002,-0.05006942,-0.04411929,-0.03969417,-0.0912328750000002,-31.608067205,1.6867335699999997,52.78498585,-0.3618025842,-0.27946863664,0.0810276455,-0.0605906819099999,-0.044007200015,0.058124558815,0.00375
03:38:20,-0.5323534,-0.2373417,0.2000663500000001,-0.0495474,-0.0443803,-0.0396409,-0.1085567499999999,-31.61340385,1.7083448999999995,54.55499449999999,-0.3684385740000001,-0.2750333407999999,0.0916701350000002,-0.0600973826999999,-0.04420939755,0.05781009555,0.00375
03:38:20,-0.53281508,-0.2335407899999999,0.1883589450000002,-0.04902538,-0.04464131,-0.03958763,-0.1258806250000002,-31.618740495,1.7299562299999995,56.325003150000015,-0.3750745638,-0.27059804496,0.1023126245000001,-0.0596040834899999,-0.044411595085,0.057495632285,0.00375
03:38:20,-0.53327676,-0.22973988,0.1766515400000001,-0.0485033599999999,-0.04490232,-0.03953436,-0.1432044999999999,-31.62407714,1.7515675599999998,58.09501180000001,-0.3817105536,-0.26616274912,0.1129551140000002,-0.0591107842799999,-0.04461379262,0.05718116902,0.00375
03:38:20,-0.53373844,-0.2259389699999999,0.1649441350000002,-0.04798134,-0.04516333,-0.03948109,-0.1605283750000001,-31.629413785,1.7731788899999996,59.86502045,-0.3883465434,-0.26172745328,0.1235976035000001,-0.0586174850699999,-0.044815990155,0.056866705755,0.00375
03:38:20,-0.5342001200000001,-0.2221380599999999,0.1532367300000001,-0.04745932,-0.04542434,-0.03942782,-0.1778522499999999,-31.63475043,1.7947902199999994,61.6350291,-0.3949825332,-0.25729215744,0.1342400930000002,-0.05812418586,-0.04501818769,0.05655224249,0.00375
03:38:20,-0.5346618000000001,-0.2183371499999999,0.1415293250000002,-0.0469373,-0.04568535,-0.03937455,-0.1951761250000001,-31.640087075,1.81640155,63.40503774999999,-0.401618523,-0.2528568616,0.1448825825000002,-0.0576308866499999,-0.045220385225,0.056237779225,0.00375
03:38:20,-0.53512348,-0.2145362399999999,0.1298219200000001,-0.04641528,-0.04594636,-0.03932128,-0.2124999999999999,-31.64542372,1.8380128799999995,65.17504640000001,-0.4082545128000001,-0.2484215657599999,0.1555250720000001,-0.05713758744,-0.0454225827599999,0.05592331596,0.00375
03:38:20,-0.53558516,-0.21073533,0.1181145150000002,-0.04589326,-0.04620737,-0.03926801,-0.2298238750000001,-31.650760365,1.85962421,66.94505505000001,-0.4148905026,-0.24398626992,0.1661675615000002,-0.0566442882299999,-0.045624780295,0.055608852695,0.00375
03:38:20,-0.53604684,-0.2069344199999999,0.1064071100000001,-0.04537124,-0.04646838,-0.03921474,-0.2471477499999999,-31.65609701,1.88123554,68.7150637,-0.4215264924,-0.23955097408,0.1768100510000001,-0.0561509890199999,-0.04582697783,0.05529438943,0.00375
03:38:20,-0.53650852,-0.20313351,0.0946997050000002,-0.0448492199999999,-0.04672939,-0.03916147,-0.2644716250000001,-31.661433655,1.9028468699999996,70.48507235,-0.4281624822,-0.23511567824,0.1874525405000002,-0.0556576898099999,-0.046029175365,0.054979926165,0.00375
03:38:20,-0.5369702000000001,-0.1993325999999999,0.0829923000000001,-0.0443272,-0.0469904,-0.0391082,-0.2817954999999998,-31.6667703,1.9244582,72.25508100000002,-0.434798472,-0.2306803824,0.1980950300000001,-0.0551643905999999,-0.0462313729,0.0546654629,0.00375
03:38:20,-0.53743188,-0.1955316899999999,0.0712848950000002,-0.04380518,-0.04725141,-0.03905493,-0.2991193750000001,-31.672106945,1.9460695299999995,74.02508965000001,-0.4414344618,-0.2262450865599999,0.2087375195,-0.0546710913899999,-0.046433570435,0.054350999635,0.00375
03:38:20,-0.53789356,-0.19173078,0.0595774900000001,-0.04328316,-0.04751242,-0.03900166,-0.3164432499999998,-31.67744359,1.96768086,75.7950983,-0.4480704516000001,-0.22180979072,0.2193800090000002,-0.0541777921799999,-0.04663576797,0.05403653637,0.00375
03:38:20,-0.53835524,-0.1879298699999999,0.0478700850000002,-0.04276114,-0.04777343,-0.03894839,-0.333767125,-31.682780235,1.98929219,77.56510695,-0.4547064414,-0.21737449488,0.2300224985000001,-0.05368449297,-0.0468379655049999,0.053722073105,0.00375
03:38:20,-0.53881692,-0.18412896,0.0361626800000001,-0.04223912,-0.04803444,-0.03889512,-0.3510909999999998,-31.68811688,2.0109035199999994,79.3351156,-0.4613424312,-0.21293919904,0.2406649880000002,-0.0531911937599999,-0.04704016304,0.05340760984,0.00375
03:38:20,-0.5392786,-0.1803280499999999,0.0244552750000002,-0.0417171,-0.04829545,-0.03884185,-0.368414875,-31.693453525,2.03251485,81.10512425000002,-0.467978421,-0.2085039032,0.2513074775000001,-0.0526978945499999,-0.047242360575,0.053093146575,0.00375
03:38:20,-0.53974028,-0.1765271399999999,0.0127478700000001,-0.0411950799999999,-0.04855646,-0.03878858,-0.3857387499999998,-31.69879017,2.0541261799999995,82.87513289999998,-0.4746144108,-0.20406860736,0.2619499670000003,-0.0522045953399999,-0.04744455811,0.05277868331,0.00375
03:38:20,-0.54020196,-0.1727262299999999,0.0010404650000002,-0.04067306,-0.04881747,-0.03873531,-0.403062625,-31.704126815,2.07573751,84.64514155,-0.4812504006000001,-0.1996333115199999,0.2725924565000002,-0.0517112961299999,-0.047646755645,0.052464220045,0.00375
03:38:20,-0.54066364,-0.1689253199999999,-0.0106669399999999,-0.04015104,-0.04907848,-0.03868204,-0.4203864999999998,-31.70946346,2.0973488399999995,86.41515020000003,-0.4878863904000001,-0.19519801568,0.2832349460000001,-0.0512179969199999,-0.04784895318,0.05214975678,0.00375
03:38:20,-0.54112532,-0.16512441,-0.0223743449999997,-0.03962902,-0.04933949,-0.03862877,-0.437710375,-31.714800105,2.11896017,88.18515885,-0.4945223802,-0.19076271984,0.2938774355000002,-0.0507246977099999,-0.048051150715,0.051835293515,0.00375
03:38:20,-0.541587,-0.1613234999999999,-0.0340817499999996,-0.039107,-0.0496005,-0.0385755,-0.4550342500000002,-31.72013675,2.1405715,89.95516750000002,-0.50115837,-0.186327424,0.3045199250000001,-0.0502313984999999,-0.04825334825,0.05152083025,0.00375
03:38:20,-0.5420486800000001,-0.15752259,-0.0457891549999998,-0.03858498,-0.04986151,-0.03852223,-0.4723581249999999,-31.725473395,2.1621828299999994,91.72517614999998,-0.5077943598000001,-0.18189212816,0.3151624145000002,-0.0497380992899999,-0.048455545785,0.051206366985,0.00375
03:38:20,-0.5425103600000001,-0.1537216799999999,-0.0574965599999997,-0.03806296,-0.05012252,-0.0384689599999999,-0.4896820000000002,-31.73081004,2.18379416,93.4951848,-0.5144303496,-0.1774568323199999,0.3258049040000002,-0.0492448000799999,-0.04865774332,0.05089190372,0.00375
03:38:20,-0.54297204,-0.1499207699999999,-0.0692039649999998,-0.0375409399999999,-0.05038353,-0.03841569,-0.5070058749999999,-31.736146685,2.2054054899999995,95.26519345000004,-0.5210663393999999,-0.1730215364799999,0.3364473935000003,-0.0487515008699999,-0.048859940855,0.050577440455,0.00375
03:38:20,-0.54343372,-0.14611986,-0.0809113699999997,-0.03701892,-0.05064454,-0.03836242,-0.5243297500000001,-31.74148333,2.22701682,97.0352021,-0.5277023292,-0.16858624064,0.3470898830000002,-0.0482582016599999,-0.0490621383899999,0.05026297719,0.00375
03:38:20,-0.5438954,-0.1423189499999999,-0.0926187749999998,-0.0364969,-0.05090555,-0.03830915,-0.5416536249999999,-31.746819975,2.24862815,98.80521075,-0.534338319,-0.1641509448,0.3577323725000001,-0.0477649024499999,-0.049264335925,0.049948513925,0.00375
03:38:20,-0.54435708,-0.13851804,-0.1043261799999997,-0.03597488,-0.05116656,-0.03825588,-0.5589775000000001,-31.75215662,2.2702394799999994,100.57521939999998,-0.5409743088000001,-0.15971564896,0.3683748620000002,-0.0472716032399999,-0.04946653346,0.04963405066,0.00375
03:38:20,-0.5448187600000001,-0.1347171299999999,-0.1160335849999998,-0.03545286,-0.05142757,-0.03820261,-0.5763013749999999,-31.757493265,2.29185081,102.34522805,-0.5476102986,-0.15528035312,0.3790173515000001,-0.0467783040299999,-0.049668730995,0.049319587395,0.00375
03:38:20,-0.54528044,-0.1309162199999999,-0.1277409899999997,-0.03493084,-0.05168858,-0.03814934,-0.5936252500000001,-31.76282991,2.3134621399999995,104.11523670000004,-0.5542462883999999,-0.1508450572799999,0.3896598410000003,-0.0462850048199999,-0.04987092853,0.04900512413,0.00375
03:38:20,-0.54574212,-0.1271153099999999,-0.1394483949999998,-0.03440882,-0.05194959,-0.03809607,-0.6109491249999999,-31.768166555,2.33507347,105.88524535,-0.5608822782,-0.14640976144,0.4003023305000002,-0.04579170561,-0.050073126065,0.048690660865,0.00375
03:38:20,-0.5462038,-0.1233143999999999,-0.1511557999999997,-0.0338868,-0.0522105999999999,-0.0380428,-0.6282730000000001,-31.7735032,2.3566848,107.655254,-0.5675182679999999,-0.1419744656,0.4109448200000003,-0.0452984063999999,-0.0502753236,0.0483761976,0.00375
03:38:20,-0.54666548,-0.11951349,-0.1628632049999998,-0.03336478,-0.05247161,-0.03798953,-0.6455968749999998,-31.778839845,2.3782961299999994,109.42526264999998,-0.5741542578000001,-0.13753916976,0.4215873095000002,-0.0448051071899999,-0.0504775211349999,0.048061734335,0.00375
03:38:20,-0.5471271600000001,-0.1157125799999999,-0.1745706099999997,-0.03284276,-0.05273262,-0.03793626,-0.6629207500000001,-31.78417649,2.39990746,111.1952713,-0.5807902476,-0.13310387392,0.4322297990000001,-0.0443118079799999,-0.05067971867,0.04774727107,0.00375
03:38:20,-0.54758884,-0.1119116699999999,-0.1862780149999998,-0.03232074,-0.05299363,-0.03788299,-0.6802446249999998,-31.789513135,2.4215187899999995,112.96527995000002,-0.5874262373999999,-0.1286685780799999,0.4428722885000002,-0.0438185087699999,-0.050881916205,0.047432807805,0.00375
03:38:20,-0.54805052,-0.1081107599999999,-0.1979854199999997,-0.03179872,-0.05325464,-0.03782972,-0.6975685,-31.79484978,2.44313012,114.7352886,-0.5940622272,-0.1242332822399999,0.4535147780000002,-0.0433252095599999,-0.05108411374,0.04711834454,0.00375
03:38:20,-0.5485122,-0.1043098499999999,-0.2096928249999998,-0.0312767,-0.05351565,-0.03777645,-0.7148923749999998,-31.800186425,2.46474145,116.50529725,-0.6006982169999999,-0.1197979864,0.4641572675000003,-0.0428319103499999,-0.0512863112749999,0.046803881275,0.00375
03:38:20,-0.54897388,-0.1005089399999999,-0.2214002299999997,-0.03075468,-0.05377666,-0.03772318,-0.73221625,-31.80552307,2.48635278,118.27530590000003,-0.6073342068,-0.11536269056,0.4747997570000002,-0.0423386111399999,-0.05148850881,0.04648941801,0.00375
03:38:20,-0.54943556,-0.0967080299999999,-0.2331076349999998,-0.03023266,-0.0540376699999999,-0.03766991,-0.7495401249999998,-31.810859715,2.50796411,120.04531455,-0.6139701966,-0.11092739472,0.4854422465000001,-0.0418453119299999,-0.051690706345,0.046174954745,0.00375
03:38:20,-0.5498972400000001,-0.09290712,-0.2448150399999997,-0.0297106399999999,-0.05429868,-0.03761664,-0.766864,-31.81619636,2.5295754399999995,121.81532320000002,-0.6206061864000001,-0.10649209888,0.4960847360000002,-0.04135201272,-0.0518929038799999,0.04586049148,0.00375
03:38:20,-0.5503589200000001,-0.0891062099999999,-0.2565224449999999,-0.02918862,-0.05455969,-0.03756337,-0.7841878749999998,-31.821533005,2.55118677,123.58533185,-0.6272421762,-0.1020568030399999,0.5067272255000002,-0.0408587135099999,-0.052095101415,0.045546028215,0.00375
03:38:20,-0.5508206,-0.0853052999999999,-0.2682298499999997,-0.0286666,-0.0548207,-0.0375101,-0.80151175,-31.82686965,2.5727980999999995,125.3553405,-0.6338781659999999,-0.0976215072,0.5173697150000003,-0.0403654142999999,-0.05229729895,0.04523156495,0.00375
03:38:20,-0.55128228,-0.0815043899999999,-0.2799372549999996,-0.02814458,-0.05508171,-0.0374568299999999,-0.8188356250000002,-31.832206295,2.59440943,127.12534915000003,-0.6405141558,-0.09318621136,0.5280122045000002,-0.0398721150899999,-0.052499496485,0.044917101685,0.00375
03:38:20,-0.55174396,-0.0777034799999999,-0.2916446599999998,-0.02762256,-0.05534272,-0.03740356,-0.8361594999999999,-31.83754294,2.61602076,128.8953578,-0.6471501456,-0.08875091552,0.5386546940000003,-0.0393788158799999,-0.0527016940199999,0.04460263842,0.00375
03:38:20,-0.55220564,-0.07390257,-0.3033520649999999,-0.02710054,-0.05560373,-0.03735029,-0.8534833750000002,-31.842879585,2.6376320899999994,130.66536645000002,-0.6537861354000001,-0.08431561968,0.5492971835000002,-0.0388855166699999,-0.052903891555,0.044288175155,0.00375
03:38:20,-0.5526673200000001,-0.0701016599999999,-0.3150594699999995,-0.02657852,-0.0558647399999999,-0.03729702,-0.8708072499999999,-31.84821623,2.65924342,132.4353751,-0.6604221252,-0.0798803238399999,0.5599396730000001,-0.0383922174599999,-0.05310608909,0.04397371189,0.00375
03:38:20,-0.553129,-0.0663007499999999,-0.3267668749999997,-0.0260564999999999,-0.05612575,-0.03724375,-0.8881311250000001,-31.853552875,2.6808547499999995,134.20538375,-0.6670581149999999,-0.0754450279999999,0.5705821625000003,-0.03789891825,-0.053308286625,0.043659248625,0.00375
03:38:20,-0.55359068,-0.0624998399999999,-0.3384742799999998,-0.02553448,-0.05638676,-0.03719048,-0.905455,-31.85888952,2.70246608,135.97539240000003,-0.6736941048,-0.07100973216,0.5812246520000002,-0.0374056190399999,-0.0535104841599999,0.04334478536,0.00375
03:38:20,-0.55405236,-0.0586989299999999,-0.3501816849999999,-0.02501246,-0.05664777,-0.03713721,-0.922778875,-31.864226165,2.72407741,137.74540105,-0.6803300945999999,-0.06657443632,0.5918671415000003,-0.0369123198299999,-0.053712681695,0.043030322095,0.00375
03:38:20,-0.55451404,-0.0548980199999999,-0.3618890899999996,-0.02449044,-0.05690878,-0.03708394,-0.94010275,-31.86956281,2.7456887399999994,139.51540970000002,-0.6869660844000001,-0.06213914048,0.6025096310000002,-0.0364190206199999,-0.05391487923,0.04271585883,0.00375
03:38:20,-0.5549757200000001,-0.0510971099999999,-0.3735964949999997,-0.02396842,-0.05716979,-0.03703067,-0.957426625,-31.874899455,2.76730007,141.28541835,-0.6936020742,-0.05770384464,0.6131521205000003,-0.0359257214099999,-0.0541170767649999,0.042401395565,0.00375
03:38:20,-0.5554374,-0.0472962,-0.3853038999999998,-0.0234464,-0.0574308,-0.0369774,-0.9747505,-31.8802361,2.7889113999999995,143.055427,-0.7002380640000001,-0.0532685487999999,0.6237946100000002,-0.0354324221999999,-0.0543192743,0.0420869323,0.00375
03:38:20,-0.55589908,-0.0434952899999999,-0.3970113049999999,-0.02292438,-0.0576918099999999,-0.03692413,-0.992074375,-31.885572745,2.81052273,144.82543565000003,-0.7068740538,-0.04883325296,0.6344370995000002,-0.0349391229899999,-0.054521471835,0.041772469035,0.00375
03:38:20,-0.55636076,-0.0396943799999999,-0.4087187099999996,-0.0224023599999999,-0.05795282,-0.03687086,-1.0093982499999998,-31.89090939,2.83213406,146.5954443,-0.7135100435999999,-0.04439795712,0.6450795890000003,-0.0344458237799999,-0.05472366937,0.04145800577,0.00375
03:38:20,-0.55682244,-0.0358934699999999,-0.4204261149999997,-0.0218803399999999,-0.05821383,-0.03681759,-1.026722125,-31.896246035,2.8537453899999994,148.36545295000002,-0.7201460334,-0.03996266128,0.6557220785000002,-0.0339525245699999,-0.0549258669049999,0.041143542505,0.00375
03:38:20,-0.55728412,-0.0320925599999999,-0.4321335199999998,-0.02135832,-0.05847484,-0.03676432,-1.0440459999999998,-31.90158268,2.87535672,150.1354616,-0.7267820232,-0.03552736544,0.6663645680000003,-0.0334592253599999,-0.05512806444,0.04082907924,0.00375
03:38:20,-0.5577458000000001,-0.02829165,-0.4438409249999999,-0.0208363,-0.05873585,-0.03671105,-1.061369875,-31.906919325,2.8969680499999995,151.90547025,-0.7334180130000001,-0.0310920695999999,0.6770070575000002,-0.0329659261499999,-0.055330261975,0.040514615975,0.00375
03:38:20,-0.5582074800000001,-0.0244907399999999,-0.4555483299999996,-0.02031428,-0.05899686,-0.03665778,-1.0786937499999998,-31.91225597,2.91857938,153.67547890000003,-0.7400540028,-0.0266567737599999,0.6876495470000001,-0.0324726269399999,-0.05553245951,0.04020015271,0.00375
03:38:20,-0.55866916,-0.0206898299999999,-0.4672557349999997,-0.01979226,-0.05925787,-0.03660451,-1.096017625,-31.917592615,2.9401907099999995,155.44548755,-0.7466899925999999,-0.02222147792,0.6982920365000003,-0.0319793277299999,-0.055734657045,0.039885689445,0.00375
03:38:20,-0.55913084,-0.0168889199999999,-0.4789631399999998,-0.01927024,-0.0595188799999999,-0.03655124,-1.1133414999999998,-31.92292926,2.96180204,157.21549620000002,-0.7533259824,-0.01778618208,0.7089345260000004,-0.0314860285199999,-0.05593685458,0.03957122618,0.00375
03:38:20,-0.55959252,-0.0130880099999999,-0.4906705449999999,-0.0187482199999999,-0.05977989,-0.03649797,-1.130665375,-31.928265905,2.983413369999999,158.98550484999998,-0.7599619722,-0.01335088624,0.7195770155000003,-0.0309927293099999,-0.056139052115,0.039256762915,0.00375
03:38:20,-0.5600542000000001,-0.0092870999999999,-0.5023779499999996,-0.0182261999999999,-0.0600409,-0.0364447,-1.1479892499999995,-31.93360255,3.0050247,160.7555135,-0.7665979620000001,-0.0089155904,0.7302195050000002,-0.0304994300999999,-0.0563412496499999,0.03894229965,0.00375
03:38:20,-0.5605158800000001,-0.0054861899999999,-0.5140853549999997,-0.01770418,-0.06030191,-0.03639143,-1.165313125,-31.938939195,3.02663603,162.52552215000003,-0.7732339518,-0.0044802945599999,0.7408619945000001,-0.0300061308899999,-0.056543447185,0.038627836385,0.00375
03:38:20,-0.56097756,-0.00168528,-0.5257927599999999,-0.01718216,-0.06056292,-0.03633816,-1.1826369999999995,-31.94427584,3.0482473599999995,164.2955308,-0.7798699416000001,-4.499871999996685e-05,0.751504484,-0.0295128316799999,-0.05674564472,0.03831337312,0.00375
03:38:20,-0.56143924,0.00211563,-0.5375001649999995,-0.01666014,-0.06082393,-0.03628489,-1.199960875,-31.949612485,3.06985869,166.06553945000002,-0.7865059314,0.0043902971199999,0.7621469735000004,-0.0290195324699999,-0.056947842255,0.037998909855,0.00375
03:38:20,-0.56190092,0.00591654,-0.5492075699999996,-0.01613812,-0.06108494,-0.03623162,-1.21728475,-31.95494913,3.091470019999999,167.83554809999998,-0.7931419211999999,0.0088255929599999,0.7727894630000003,-0.0285262332599999,-0.0571500397899999,0.03768444659,0.00375
03:38:20,-0.5623626,0.00971745,-0.5609149749999998,-0.0156161,-0.0613459499999999,-0.03617835,-1.234608625,-31.960285775,3.11308135,169.60555675,-0.7997779110000001,0.0132608887999999,0.7834319525000002,-0.0280329340499999,-0.057352237325,0.037369983325,0.00375
03:38:20,-0.5628242800000001,0.01351836,-0.5726223799999999,-0.0150940799999999,-0.06160696,-0.03612508,-1.2519325,-31.96562242,3.13469268,171.37556540000003,-0.8064139008,0.01769618464,0.7940744420000001,-0.0275396348399999,-0.05755443486,0.03705552006,0.00375
03:38:20,-0.56328596,0.0173192699999999,-0.5843297849999995,-0.0145720599999999,-0.06186797,-0.0360718099999999,-1.269256375,-31.970959065,3.1563040099999995,173.14557405,-0.8130498906000001,0.02213148048,0.8047169315000005,-0.0270463356299999,-0.0577566323949999,0.036741056795,0.00375
03:38:20,-0.56374764,0.02112018,-0.5960371899999997,-0.01405004,-0.06212898,-0.03601854,-1.28658025,-31.97629571,3.1779153399999998,174.91558270000002,-0.8196858804,0.0265667763199999,0.8153594210000004,-0.0265530364199999,-0.05795882993,0.03642659353,0.00375
03:38:20,-0.56420932,0.02492109,-0.6077445949999998,-0.01352802,-0.06238999,-0.03596527,-1.303904125,-31.981632355,3.199526669999999,176.68559134999998,-0.8263218701999999,0.0310020721599999,0.8260019105000003,-0.0260597372099999,-0.058161027465,0.036112130265,0.00375
03:38:21,-0.564671,0.028722,-0.619452,-0.013006,-0.062651,-0.035912,-1.321228,-31.986969,3.221138,178.4556,-0.83295786,0.035437368,0.8366444,-0.025566438,-0.058363225,0.035797667,0.00375
03:38:21,-0.5560399,0.03113905,-0.619466195,-0.012521265,-0.061873295,-0.035757525,-1.31882352,-31.976180465,3.24055332,178.4465549,-0.8272363822000001,0.03728870826,0.8299420812499999,-0.025156085885,-0.0576334323749999,0.035297125015,0.00375
03:38:21,-0.5474088,0.0335561,-0.61948039,-0.01203653,-0.06109559,-0.03560305,-1.31641904,-31.96539193,3.25996864,178.43750980000002,-0.8215149044000001,0.03914004852,0.8232397625,-0.02474573377,-0.05690363975,0.03479658303,0.00375
03:38:21,-0.5387777,0.03597315,-0.619494585,-0.011551795,-0.060317885,-0.0354485749999999,-1.3140145600000002,-31.954603395,3.27938396,178.4284647,-0.8157934266000001,0.04099138878,0.8165374437499999,-0.024335381655,-0.0561738471249999,0.0342960410449999,0.00375
03:38:21,-0.5301466,0.0383902,-0.61950878,-0.01106706,-0.05954018,-0.0352941,-1.31161008,-31.94381486,3.29879928,178.4194196,-0.8100719488,0.04284272904,0.809835125,-0.02392502954,-0.0554440545,0.03379549906,0.00375
03:38:21,-0.5215155,0.04080725,-0.619522975,-0.010582325,-0.058762475,-0.035139625,-1.3092056,-31.933026325,3.3182146,178.41037450000002,-0.804350471,0.0446940693,0.8031328062499999,-0.023514677425,-0.0547142618749999,0.033294957075,0.00375
03:38:21,-0.5128844,0.0432243,-0.61953717,-0.01009759,-0.05798477,-0.03498515,-1.30680112,-31.92223779,3.33762992,178.4013294,-0.7986289932,0.04654540956,0.7964304874999999,-0.02310432531,-0.05398446925,0.03279441509,0.00375
03:38:21,-0.5042533,0.04564135,-0.619551365,-0.009612855,-0.057207065,-0.034830675,-1.30439664,-31.911449255,3.35704524,178.3922843,-0.7929075154,0.0483967498199999,0.78972816875,-0.022693973195,-0.053254676625,0.0322938731049999,0.00375
03:38:21,-0.4956222,0.0480584,-0.61956556,-0.00912812,-0.05642936,-0.0346762,-1.3019921600000002,-31.90066072,3.37646056,178.3832392,-0.7871860376,0.0502480900799999,0.7830258499999999,-0.02228362108,-0.0525248839999999,0.03179333112,0.00375
03:38:21,-0.4869911,0.05047545,-0.619579755,-0.008643385,-0.055651655,-0.0345217249999999,-1.29958768,-31.889872185,3.39587588,178.3741941,-0.7814645598000001,0.0520994303399999,0.77632353125,-0.021873268965,-0.051795091375,0.031292789135,0.00375
03:38:21,-0.47836,0.0528925,-0.6195939500000001,-0.00815865,-0.05487395,-0.03436725,-1.2971832,-31.87908365,3.4152912,178.365149,-0.7757430820000001,0.0539507705999999,0.7696212124999999,-0.02146291685,-0.0510652987499999,0.03079224715,0.00375
03:38:21,-0.4697289,0.05530955,-0.619608145,-0.007673915,-0.054096245,-0.034212775,-1.29477872,-31.868295115,3.43470652,178.3561039,-0.7700216042000001,0.05580211086,0.76291889375,-0.021052564735,-0.050335506125,0.030291705165,0.00375
03:38:21,-0.4610978,0.0577266,-0.61962234,-0.00718918,-0.05331854,-0.0340583,-1.29237424,-31.85750658,3.45412184,178.3470588,-0.7643001264,0.05765345112,0.756216575,-0.02064221262,-0.0496057134999999,0.02979116318,0.00375
03:38:21,-0.4524667,0.06014365,-0.619636535,-0.006704445,-0.052540835,-0.033903825,-1.28996976,-31.846718045,3.47353716,178.3380137,-0.7585786486,0.05950479138,0.7495142562499999,-0.020231860505,-0.048875920875,0.0292906211949999,0.00375
03:38:21,-0.4438356,0.0625607,-0.61965073,-0.00621971,-0.05176313,-0.03374935,-1.28756528,-31.83592951,3.49295248,178.3289686,-0.7528571708,0.0613561316399999,0.7428119375,-0.01982150839,-0.0481461282499999,0.02879007921,0.00375
03:38:21,-0.4352045,0.06497775,-0.619664925,-0.005734975,-0.050985425,-0.0335948749999999,-1.2851608,-31.825140975,3.5123678,178.31992350000002,-0.747135693,0.0632074718999999,0.7361096187499999,-0.019411156275,-0.047416335625,0.028289537225,0.00375
03:38:21,-0.4265734,0.0673948,-0.61967912,-0.00525024,-0.05020772,-0.0334404,-1.28275632,-31.81435244,3.53178312,178.3108784,-0.7414142152000001,0.0650588121599999,0.7294073,-0.01900080416,-0.046686543,0.02778899524,0.00375
03:38:21,-0.4179423,0.06981185,-0.619693315,-0.004765505,-0.049430015,-0.033285925,-1.28035184,-31.803563905,3.55119844,178.3018333,-0.7356927374000001,0.06691015242,0.7227049812499999,-0.018590452045,-0.0459567503749999,0.0272884532549999,0.00375
03:38:21,-0.4093112,0.0722289,-0.61970751,-0.00428077,-0.04865231,-0.03313145,-1.27794736,-31.79277537,3.57061376,178.2927882,-0.7299712596000001,0.06876149268,0.7160026625,-0.01818009993,-0.04522695775,0.02678791127,0.00375
03:38:21,-0.4006801,0.07464595,-0.619721705,-0.0037960349999999,-0.047874605,-0.032976975,-1.2755428800000002,-31.781986835,3.59002908,178.2837431,-0.7242497818,0.07061283294,0.70930034375,-0.017769747815,-0.0444971651249999,0.026287369285,0.00375
03:38:21,-0.392049,0.077063,-0.6197359,-0.0033112999999999,-0.0470969,-0.0328225,-1.2731384,-31.7711983,3.6094444,178.274698,-0.718528304,0.0724641732,0.7025980249999999,-0.0173593957,-0.0437673725,0.0257868273,0.00375
03:38:21,-0.3834179,0.07948005,-0.619750095,-0.0028265649999999,-0.046319195,-0.0326680249999999,-1.27073392,-31.760409765,3.62885972,178.2656529,-0.7128068262,0.07431551346,0.69589570625,-0.016949043585,-0.0430375798749999,0.025286285315,0.00375
03:38:21,-0.3747868,0.0818971,-0.61976429,-0.0023418299999999,-0.04554149,-0.03251355,-1.26832944,-31.74962123,3.64827504,178.2566078,-0.7070853484,0.07616685372,0.6891933874999999,-0.01653869147,-0.0423077872499999,0.02478574333,0.00375
03:38:21,-0.3661557,0.08431415,-0.619778485,-0.0018570949999999,-0.044763785,-0.032359075,-1.26592496,-31.738832695,3.66769036,178.2475627,-0.7013638706,0.07801819398,0.68249106875,-0.016128339355,-0.0415779946249999,0.024285201345,0.00375
03:38:21,-0.3575246,0.0867312,-0.61979268,-0.0013723599999999,-0.04398608,-0.0322046,-1.26352048,-31.72804416,3.68710568,178.2385176,-0.6956423928000001,0.07986953424,0.6757887499999999,-0.01571798724,-0.040848202,0.02378465936,0.00375
03:38:21,-0.3488935,0.08914825,-0.619806875,-0.0008876249999999,-0.043208375,-0.032050125,-1.261116,-31.717255625,3.706521,178.2294725,-0.6899209150000001,0.0817208745,0.66908643125,-0.015307635125,-0.040118409375,0.023284117375,0.00375
03:38:21,-0.3402624,0.0915653,-0.61982107,-0.0004028899999999,-0.04243067,-0.03189565,-1.25871152,-31.70646709,3.72593632,178.2204274,-0.6841994372,0.08357221476,0.6623841125,-0.01489728301,-0.0393886167499999,0.0227835753899999,0.00375
03:38:21,-0.3316313,0.0939823499999999,-0.619835265,8.184500000000053e-05,-0.041652965,-0.0317411749999999,-1.25630704,-31.695678555,3.74535164,178.2113823,-0.6784779594000001,0.0854235550199999,0.6556817937499999,-0.014486930895,-0.038658824125,0.022283033405,0.00375
03:38:21,-0.3230002,0.0963994,-0.61984946,0.00056658,-0.04087526,-0.0315867,-1.25390256,-31.68489002,3.76476696,178.20233720000002,-0.6727564816,0.0872748952799999,0.648979475,-0.01407657878,-0.0379290314999999,0.02178249142,0.00375
03:38:21,-0.3143691,0.09881645,-0.619863655,0.001051315,-0.040097555,-0.031432225,-1.25149808,-31.674101485,3.78418228,178.1932921,-0.6670350038,0.0891262355399999,0.6422771562499999,-0.013666226665,-0.037199238875,0.021281949435,0.00375
03:38:21,-0.305738,0.1012335,-0.61987785,0.00153605,-0.03931985,-0.03127775,-1.2490936,-31.66331295,3.8035976,178.184247,-0.661313526,0.0909775757999999,0.6355748375,-0.01325587455,-0.0364694462499999,0.02078140745,0.00375
03:38:21,-0.2971069,0.10365055,-0.6198920450000001,0.002020785,-0.038542145,-0.031123275,-1.24668912,-31.652524415,3.82301292,178.1752019,-0.6555920482,0.0928289160599999,0.6288725187499999,-0.012845522435,-0.0357396536249999,0.020280865465,0.00375
03:38:21,-0.2884758,0.1060676,-0.61990624,0.00250552,-0.0377644399999999,-0.0309687999999999,-1.24428464,-31.64173588,3.84242824,178.1661568,-0.6498705704000001,0.0946802563199999,0.6221702,-0.01243517032,-0.0350098609999999,0.01978032348,0.00375
03:38:21,-0.2798447,0.10848465,-0.619920435,0.002990255,-0.036986735,-0.030814325,-1.24188016,-31.630947345,3.86184356,178.1571117,-0.6441490926,0.0965315965799999,0.61546788125,-0.012024818205,-0.034280068375,0.019279781495,0.00375
03:38:21,-0.2712136,0.1109016999999999,-0.61993463,0.00347499,-0.03620903,-0.03065985,-1.23947568,-31.62015881,3.88125888,178.1480666,-0.6384276148000001,0.0983829368399999,0.6087655624999999,-0.01161446609,-0.03355027575,0.01877923951,0.00375
03:38:21,-0.2625825,0.11331875,-0.619948825,0.003959725,-0.035431325,-0.030505375,-1.2370712,-31.609370275,3.9006742,178.1390215,-0.632706137,0.1002342770999999,0.60206324375,-0.0112041139749999,-0.0328204831249999,0.018278697525,0.00375
03:38:21,-0.2539514,0.1157358,-0.61996302,0.00444446,-0.0346536199999999,-0.0303509,-1.23466672,-31.59858174,3.92008952,178.1299764,-0.6269846592,0.1020856173599999,0.5953609249999999,-0.0107937618599999,-0.0320906905,0.01777815554,0.00375
03:38:21,-0.2453203,0.11815285,-0.619977215,0.004929195,-0.033875915,-0.030196425,-1.23226224,-31.587793205,3.93950484,178.1209313,-0.6212631814,0.1039369576199999,0.5886586062499999,-0.0103834097449999,-0.0313608978749999,0.017277613555,0.00375
03:38:21,-0.2366892,0.1205699,-0.61999141,0.00541393,-0.03309821,-0.0300419499999999,-1.22985776,-31.57700467,3.95892016,178.1118862,-0.6155417036,0.1057882978799999,0.5819562875,-0.0099730576299999,-0.0306311052499999,0.01677707157,0.00375
03:38:21,-0.2280580999999999,0.12298695,-0.620005605,0.005898665,-0.032320505,-0.029887475,-1.22745328,-31.566216135,3.97833548,178.1028411,-0.6098202258000001,0.10763963814,0.57525396875,-0.0095627055149999,-0.0299013126249999,0.016276529585,0.00375
03:38:21,-0.2194269999999999,0.125404,-0.6200198,0.0063834,-0.0315427999999999,-0.029733,-1.2250488000000002,-31.5554276,3.9977508,178.093796,-0.6040987480000001,0.1094909784,0.56855165,-0.0091523534,-0.0291715199999999,0.0157759876,0.00375
03:38:21,-0.2107958999999999,0.12782105,-0.620033995,0.006868135,-0.030765095,-0.029578525,-1.22264432,-31.544639065,4.01716612,178.08475090000002,-0.5983772702000001,0.11134231866,0.5618493312499999,-0.0087420012849999,-0.0284417273749999,0.015275445615,0.00375
03:38:21,-0.2021647999999999,0.1302381,-0.62004819,0.00735287,-0.02998739,-0.02942405,-1.22023984,-31.53385053,4.03658144,178.0757058,-0.5926557924,0.11319365892,0.5551470125,-0.00833164917,-0.0277119347499999,0.01477490363,0.00375
03:38:21,-0.1935336999999999,0.13265515,-0.620062385,0.007837605,-0.029209685,-0.029269575,-1.21783536,-31.523061995,4.05599676,178.0666607,-0.5869343146,0.11504499918,0.5484446937499999,-0.0079212970549999,-0.0269821421249999,0.014274361645,0.00375
03:38:21,-0.1849025999999999,0.1350722,-0.62007658,0.00832234,-0.02843198,-0.0291150999999999,-1.21543088,-31.51227346,4.07541208,178.0576156,-0.5812128368,0.11689633944,0.5417423749999999,-0.00751094494,-0.0262523494999999,0.01377381966,0.00375
03:38:21,-0.1762714999999999,0.13748925,-0.620090775,0.008807075,-0.027654275,-0.028960625,-1.2130264,-31.501484925,4.0948274,178.0485705,-0.575491359,0.1187476797,0.53504005625,-0.0071005928249999,-0.0255225568749999,0.013273277675,0.00375
03:38:21,-0.1676403999999999,0.1399063,-0.62010497,0.00929181,-0.02687657,-0.02880615,-1.21062192,-31.49069639,4.11424272,178.0395254,-0.5697698812,0.12059901996,0.5283377375,-0.00669024071,-0.0247927642499999,0.01277273569,0.00375
03:38:21,-0.1590092999999999,0.14232335,-0.620119165,0.009776545,-0.026098865,-0.028651675,-1.20821744,-31.479907855,4.13365804,178.0304803,-0.5640484034000001,0.12245036022,0.52163541875,-0.0062798885949999,-0.024062971625,0.012272193705,0.00375
03:38:21,-0.1503782,0.1447404,-0.62013336,0.01026128,-0.02532116,-0.0284972,-1.20581296,-31.46911932,4.15307336,178.0214352,-0.5583269256000001,0.12430170048,0.5149330999999999,-0.00586953648,-0.0233331789999999,0.01177165172,0.00375
03:38:21,-0.1417471,0.14715745,-0.620147555,0.010746015,-0.024543455,-0.028342725,-1.20340848,-31.458330785,4.17248868,178.0123901,-0.5526054478,0.12615304074,0.50823078125,-0.0054591843649999,-0.0226033863749999,0.011271109735,0.00375
03:38:21,-0.133116,0.1495745,-0.6201617500000001,0.01123075,-0.02376575,-0.0281882499999999,-1.201004,-31.44754225,4.191904,178.003345,-0.5468839700000001,0.128004381,0.5015284624999999,-0.0050488322499999,-0.0218735937499999,0.01077056775,0.00375
03:38:21,-0.1244849,0.15199155,-0.6201759450000001,0.011715485,-0.022988045,-0.0280337749999999,-1.19859952,-31.436753715,4.211319319999999,177.99429990000002,-0.5411624922,0.12985572126,0.4948261437499999,-0.0046384801349999,-0.0211438011249999,0.010270025765,0.00375
03:38:21,-0.1158538,0.1544086,-0.6201901400000001,0.01220022,-0.02221034,-0.0278793,-1.19619504,-31.42596518,4.23073464,177.9852548,-0.5354410144,0.13170706152,0.4881238249999999,-0.0042281280199999,-0.0204140084999999,0.00976948378,0.00375
03:38:21,-0.1072227,0.15682565,-0.620204335,0.012684955,-0.021432635,-0.027724825,-1.19379056,-31.415176645,4.25014996,177.9762097,-0.5297195366,0.13355840178,0.4814215062499999,-0.0038177759049999,-0.0196842158749999,0.009268941795,0.00375
03:38:21,-0.0985916,0.1592427,-0.62021853,0.01316969,-0.02065493,-0.02757035,-1.19138608,-31.40438811,4.26956528,177.9671646,-0.5239980588,0.13540974204,0.4747191875,-0.0034074237899999,-0.0189544232499999,0.00876839981,0.00375
03:38:21,-0.0899605,0.16165975,-0.620232725,0.013654425,-0.019877225,-0.027415875,-1.1889816,-31.393599575,4.2889806,177.9581195,-0.5182765810000001,0.1372610823,0.4680168687499999,-0.0029970716749999,-0.0182246306249999,0.008267857825,0.00375
03:38:21,-0.0813294,0.1640768,-0.62024692,0.01413916,-0.01909952,-0.0272613999999999,-1.18657712,-31.38281104,4.30839592,177.9490744,-0.5125551032,0.13911242256,0.4613145499999999,-0.0025867195599999,-0.0174948379999999,0.00776731584,0.00375
03:38:21,-0.0726983,0.16649385,-0.620261115,0.014623895,-0.0183218149999999,-0.0271069249999999,-1.18417264,-31.372022505,4.32781124,177.9400293,-0.5068336254000001,0.14096376282,0.4546122312499999,-0.0021763674449999,-0.0167650453749999,0.007266773855,0.00375
03:38:21,-0.0640671999999999,0.1689109,-0.62027531,0.01510863,-0.01754411,-0.02695245,-1.18176816,-31.36123397,4.347226559999999,177.9309842,-0.5011121476,0.14281510308,0.4479099124999999,-0.0017660153299999,-0.0160352527499999,0.00676623187,0.00375
03:38:21,-0.0554360999999999,0.17132795,-0.620289505,0.015593365,-0.0167664049999999,-0.026797975,-1.17936368,-31.350445435,4.36664188,177.9219391,-0.4953906698,0.14466644334,0.4412075937499999,-0.0013556632149999,-0.0153054601249999,0.006265689885,0.00375
03:38:21,-0.0468049999999999,0.173745,-0.6203037,0.0160781,-0.0159887,-0.0266435,-1.1769592,-31.3396569,4.3860572,177.912894,-0.489669192,0.1465177836,0.4345052749999999,-0.0009453110999999,-0.0145756674999999,0.0057651479,0.00375
03:38:21,-0.0381738999999999,0.17616205,-0.620317895,0.016562835,-0.0152109949999999,-0.026489025,-1.1745547200000002,-31.328868365,4.40547252,177.9038489,-0.4839477142,0.14836912386,0.4278029562499999,-0.0005349589849999,-0.0138458748749999,0.005264605915,0.00375
03:38:21,-0.0295427999999999,0.1785791,-0.62033209,0.01704757,-0.01443329,-0.0263345499999999,-1.17215024,-31.31807983,4.42488784,177.8948038,-0.4782262364,0.15022046412,0.4211006374999999,-0.0001246068699999,-0.0131160822499999,0.00476406393,0.00375
03:38:21,-0.0209116999999999,0.18099615,-0.620346285,0.017532305,-0.0136555849999999,-0.0261800749999999,-1.16974576,-31.307291295,4.44430316,177.8857587,-0.4725047586,0.15207180438,0.4143983187499999,0.000285745245,-0.0123862896249999,0.004263521945,0.00375
03:38:21,-0.0122805999999999,0.1834132,-0.62036048,0.01801704,-0.01287788,-0.0260256,-1.16734128,-31.29650276,4.46371848,177.87671360000002,-0.4667832808,0.15392314464,0.4076959999999999,0.00069609736,-0.0116564969999999,0.00376297996,0.00375
03:38:21,-0.0036494999999999,0.18583025,-0.620374675,0.018501775,-0.012100175,-0.025871125,-1.1649368,-31.285714225,4.4831338,177.8676685,-0.461061803,0.1557744849,0.4009936812499999,0.001106449475,-0.0109267043749999,0.003262437975,0.00375
03:38:21,0.0049816,0.1882473,-0.62038887,0.01898651,-0.01132247,-0.02571665,-1.16253232,-31.27492569,4.502549119999999,177.8586234,-0.4553403252,0.15762582516,0.3942913624999999,0.00151680159,-0.0101969117499999,0.00276189599,0.00375
03:38:21,0.0136127,0.19066435,-0.620403065,0.019471245,-0.010544765,-0.025562175,-1.16012784,-31.264137155,4.52196444,177.8495783,-0.4496188474,0.15947716542,0.38758904375,0.001927153705,-0.0094671191249999,0.002261354005,0.00375
03:38:21,0.0222438,0.1930814,-0.62041726,0.01995598,-0.00976706,-0.0254077,-1.15772336,-31.25334862,4.54137976,177.8405332,-0.4438973696,0.1613285056799999,0.3808867249999999,0.00233750582,-0.0087373264999999,0.00176081202,0.00375
03:38:21,0.0308749,0.19549845,-0.620431455,0.020440715,-0.008989355,-0.0252532249999999,-1.15531888,-31.242560085,4.56079508,177.8314881,-0.4381758918,0.1631798459399999,0.3741844062499999,0.002747857935,-0.0080075338749999,0.001260270035,0.00375
