Timestamp,linacce_x,linacce_y,linacce_z,gyro_x,gyro_y,gyro_z,X-magnetometer,Y-magnetometer,Z-magnetometer,Yaw, worldXAccel,worldYAccel,worldZAccel,worldXgyro,worldYgyro,worldZgyro,Distance
08:28:33,-0.815359,0.243162,-0.088404,-0.059659,0.557563,-0.092993,-1.01754,-2.972267,-11.228302,26.848045,-0.5279435,0.15030506,0.61979675,-0.23545682,0.5516305,-0.11118589,0.00375
08:28:33,-0.8172567449999999,0.242896525,-0.0875991399999999,-0.0597442299999999,0.55733928,-0.09276928,-1.01745228,-2.970357345,-11.229765469999998,26.86945562,-0.5283166955,0.1493599859,0.6217479487500001,-0.23538967315,0.551300747,-0.1110799163999999,0.00375
08:28:33,-0.81915449,0.24263105,-0.08679428,-0.0598294599999999,0.5571155600000001,-0.09254556,-1.01736456,-2.96844769,-11.23122894,26.89086624,-0.528689891,0.1484149118,0.6236991475,-0.2353225263,0.550970994,-0.1109739427999999,0.00375
08:28:33,-0.8210522349999999,0.242365575,-0.08598942,-0.05991469,0.55689184,-0.09232184,-1.0172768399999998,-2.966538035,-11.23269241,26.91227686,-0.5290630865,0.1474698377,0.62565034625,-0.23525537945,0.550641241,-0.1108679692,0.00375
08:28:33,-0.82294998,0.2421000999999999,-0.0851845599999999,-0.05999992,0.55666812,-0.09209812,-1.0171891199999998,-2.96462838,-11.23415588,26.93368748,-0.529436282,0.1465247636,0.627601545,-0.2351882326,0.5503114880000001,-0.1107619956,0.00375
08:28:33,-0.8248477249999999,0.241834625,-0.0843797,-0.06008515,0.5564444000000001,-0.0918744,-1.0171013999999998,-2.962718725,-11.23561935,26.9550981,-0.5298094775,0.1455796895,0.62955274375,-0.23512108575,0.549981735,-0.1106560219999999,0.00375
08:28:33,-0.82674547,0.2415691499999999,-0.08357484,-0.0601703799999999,0.55622068,-0.09165068,-1.0170136799999998,-2.96080907,-11.23708282,26.97650872,-0.530182673,0.1446346154,0.6315039425,-0.2350539389,0.549651982,-0.1105500483999999,0.00375
08:28:33,-0.8286432149999999,0.241303675,-0.0827699799999999,-0.0602556099999999,0.55599696,-0.09142696,-1.0169259599999998,-2.958899415,-11.23854629,26.99791934,-0.5305558685,0.1436895413,0.63345514125,-0.23498679205,0.549322229,-0.1104440748,0.00375
08:28:33,-0.83054096,0.2410381999999999,-0.08196512,-0.06034084,0.5557732400000001,-0.09120324,-1.0168382399999998,-2.95698976,-11.24000976,27.01932996,-0.5309290640000001,0.1427444672,0.63540634,-0.2349196452,0.548992476,-0.1103381012,0.00375
08:28:33,-0.832438705,0.240772725,-0.08116026,-0.06042607,0.55554952,-0.09097952,-1.01675052,-2.955080105,-11.24147323,27.04074058,-0.5313022595,0.1417993931,0.63735753875,-0.23485249835,0.5486627230000001,-0.1102321276,0.00375
08:28:33,-0.8343364499999999,0.2405072499999999,-0.0803554,-0.0605113,0.5553258,-0.0907558,-1.0166628,-2.95317045,-11.2429367,27.0621512,-0.531675455,0.1408543189999999,0.6393087375000001,-0.2347853515,0.54833297,-0.1101261539999999,0.00375
08:28:33,-0.836234195,0.240241775,-0.07955054,-0.0605965299999999,0.55510208,-0.09053208,-1.01657508,-2.951260795,-11.24440017,27.08356182,-0.5320486505,0.1399092448999999,0.64125993625,-0.23471820465,0.548003217,-0.1100201804,0.00375
08:28:33,-0.8381319399999999,0.2399763,-0.07874568,-0.0606817599999999,0.55487836,-0.09030836,-1.01648736,-2.94935114,-11.24586364,27.10497244,-0.532421846,0.1389641707999999,0.643211135,-0.2346510578,0.547673464,-0.1099142068,0.00375
08:28:33,-0.840029685,0.239710825,-0.07794082,-0.06076699,0.55465464,-0.09008464,-1.01639964,-2.947441485,-11.24732711,27.12638306,-0.5327950415,0.1380190966999999,0.64516233375,-0.23458391095,0.547343711,-0.1098082332,0.00375
08:28:33,-0.8419274299999999,0.23944535,-0.07713596,-0.06085222,0.55443092,-0.08986092,-1.01631192,-2.94553183,-11.24879058,27.14779368,-0.533168237,0.1370740225999999,0.6471135325,-0.2345167641,0.547013958,-0.1097022595999999,0.00375
08:28:33,-0.843825175,0.239179875,-0.0763311,-0.06093745,0.5542072,-0.0896372,-1.0162242,-2.943622175,-11.25025405,27.1692043,-0.5335414325,0.1361289484999999,0.64906473125,-0.23444961725,0.546684205,-0.109596286,0.00375
08:28:33,-0.8457229199999999,0.2389144,-0.07552624,-0.0610226799999999,0.5539834800000001,-0.08941348,-1.01613648,-2.94171252,-11.25171752,27.19061492,-0.533914628,0.1351838744,0.65101593,-0.2343824704,0.546354452,-0.1094903124,0.00375
08:28:33,-0.847620665,0.2386489249999999,-0.07472138,-0.0611079099999999,0.55375976,-0.08918976,-1.01604876,-2.939802865,-11.25318099,27.21202554,-0.5342878235,0.1342388003,0.65296712875,-0.23431532355,0.5460246990000001,-0.1093843388,0.00375
08:28:33,-0.84951841,0.23838345,-0.07391652,-0.0611931399999999,0.55353604,-0.08896604,-1.01596104,-2.93789321,-11.25464446,27.23343616,-0.534661019,0.1332937262,0.6549183275,-0.2342481767,0.545694946,-0.1092783651999999,0.00375
08:28:33,-0.851416155,0.2381179749999999,-0.07311166,-0.06127837,0.5533123200000001,-0.08874232,-1.01587332,-2.935983555,-11.25610793,27.25484678,-0.5350342145,0.1323486521,0.6568695262500001,-0.23418102985,0.545365193,-0.1091723916,0.00375
08:28:33,-0.8533139,0.2378525,-0.0723068,-0.0613636,0.5530886,-0.0885186,-1.0157855999999998,-2.9340739,-11.2575714,27.2762574,-0.53540741,0.131403578,0.658820725,-0.234113883,0.54503544,-0.109066418,0.00375
08:28:33,-0.8552116449999999,0.2375870249999999,-0.07150194,-0.0614488299999999,0.55286488,-0.08829488,-1.0156978799999998,-2.932164245,-11.25903487,27.29766802,-0.5357806055,0.1304585039,0.66077192375,-0.23404673615,0.544705687,-0.1089604444,0.00375
08:28:33,-0.85710939,0.23732155,-0.07069708,-0.0615340599999999,0.5526411600000001,-0.08807116,-1.0156101599999998,-2.93025459,-11.26049834,27.31907864,-0.536153801,0.1295134298,0.6627231225,-0.2339795893,0.5443759340000001,-0.1088544707999999,0.00375
08:28:33,-0.8590071349999999,0.237056075,-0.0698922199999999,-0.0616192899999999,0.55241744,-0.08784744,-1.0155224399999998,-2.928344935,-11.26196181,27.34048926,-0.5365269965,0.1285683557,0.66467432125,-0.23391244245,0.544046181,-0.1087484972,0.00375
08:28:33,-0.86090488,0.2367906,-0.06908736,-0.06170452,0.55219372,-0.08762372,-1.01543472,-2.92643528,-11.26342528,27.36189988,-0.536900192,0.1276232816,0.66662552,-0.2338452956,0.543716428,-0.1086425236,0.00375
08:28:33,-0.8628026249999999,0.236525125,-0.0682825,-0.06178975,0.5519700000000001,-0.0874,-1.015347,-2.924525625,-11.26488875,27.3833105,-0.5372733875,0.1266782075,0.66857671875,-0.23377814875,0.543386675,-0.10853655,0.00375
08:28:33,-0.86470037,0.23625965,-0.0674776399999999,-0.0618749799999999,0.55174628,-0.08717628,-1.01525928,-2.92261597,-11.26635222,27.40472112,-0.537646583,0.1257331334,0.6705279175,-0.2337110019,0.543056922,-0.1084305763999999,0.00375
08:28:33,-0.866598115,0.235994175,-0.06667278,-0.0619602099999999,0.55152256,-0.08695256,-1.01517156,-2.920706315,-11.26781569,27.42613174,-0.5380197785,0.1247880592999999,0.67247911625,-0.23364385505,0.5427271690000001,-0.1083246028,0.00375
08:28:33,-0.86849586,0.2357286999999999,-0.06586792,-0.0620454399999999,0.5512988400000001,-0.08672884,-1.01508384,-2.91879666,-11.26927916,27.44754236,-0.538392974,0.1238429851999999,0.674430315,-0.2335767082,0.542397416,-0.1082186292,0.00375
08:28:33,-0.870393605,0.235463225,-0.0650630599999999,-0.06213067,0.55107512,-0.08650512,-1.01499612,-2.916887005,-11.27074263,27.46895298,-0.5387661695,0.1228979110999999,0.67638151375,-0.23350956135,0.542067663,-0.1081126556,0.00375
08:28:33,-0.87229135,0.2351977499999999,-0.0642581999999999,-0.0622159,0.5508514,-0.0862814,-1.0149084,-2.91497735,-11.2722061,27.4903636,-0.539139365,0.121952837,0.6783327125,-0.2334424145,0.54173791,-0.1080066819999999,0.00375
08:28:33,-0.874189095,0.234932275,-0.06345334,-0.0623011299999999,0.5506276800000001,-0.08605768,-1.01482068,-2.913067695,-11.27366957,27.51177422,-0.5395125605,0.1210077628999999,0.68028391125,-0.23337526765,0.541408157,-0.1079007083999999,0.00375
08:28:33,-0.8760868399999999,0.2346667999999999,-0.0626484799999999,-0.0623863599999999,0.55040396,-0.08583396,-1.01473296,-2.91115804,-11.27513304,27.53318484,-0.539885756,0.1200626887999999,0.68223511,-0.2333081208,0.5410784040000001,-0.1077947348,0.00375
08:28:33,-0.877984585,0.234401325,-0.0618436199999999,-0.0624715899999999,0.55018024,-0.08561024,-1.01464524,-2.909248385,-11.27659651,27.55459546,-0.5402589515,0.1191176146999999,0.68418630875,-0.23324097395,0.540748651,-0.1076887612,0.00375
08:28:33,-0.8798823299999999,0.2341358499999999,-0.06103876,-0.06255682,0.5499565200000001,-0.08538652,-1.01455752,-2.90733873,-11.27805998,27.57600608,-0.540632147,0.1181725405999999,0.6861375075,-0.2331738271,0.540418898,-0.1075827876,0.00375
08:28:33,-0.881780075,0.233870375,-0.0602338999999999,-0.0626420499999999,0.5497328,-0.0851628,-1.0144698,-2.905429075,-11.27952345,27.5974167,-0.5410053425,0.1172274664999999,0.68808870625,-0.23310668025,0.540089145,-0.1074768139999999,0.00375
08:28:33,-0.88367782,0.2336049,-0.0594290399999999,-0.06272728,0.54950908,-0.08493908,-1.01438208,-2.90351942,-11.28098692,27.61882732,-0.541378538,0.1162823923999999,0.690039905,-0.2330395334,0.539759392,-0.1073708404,0.00375
08:28:33,-0.885575565,0.233339425,-0.05862418,-0.06281251,0.5492853600000001,-0.08471536,-1.0142943599999998,-2.901609765,-11.28245039,27.64023794,-0.5417517335,0.1153373182999999,0.69199110375,-0.23297238655,0.5394296390000001,-0.1072648668,0.00375
08:28:33,-0.88747331,0.23307395,-0.0578193199999999,-0.06289774,0.54906164,-0.08449164,-1.0142066399999998,-2.89970011,-11.28391386,27.66164856,-0.542124929,0.1143922441999999,0.6939423025,-0.2329052397,0.539099886,-0.1071588932,0.00375
08:28:33,-0.889371055,0.232808475,-0.0570144599999999,-0.06298297,0.54883792,-0.08426792,-1.0141189199999998,-2.897790455,-11.28537733,27.68305918,-0.5424981245,0.1134471701,0.69589350125,-0.23283809285,0.538770133,-0.1070529195999999,0.00375
08:28:33,-0.8912688,0.232543,-0.0562096,-0.0630681999999999,0.5486142,-0.0840442,-1.0140311999999998,-2.8958808,-11.2868408,27.7044698,-0.54287132,0.112502096,0.6978447,-0.232770946,0.53844038,-0.106946946,0.00375
08:28:33,-0.8931665449999999,0.2322775249999999,-0.0554047399999999,-0.06315343,0.54839048,-0.08382048,-1.01394348,-2.893971145,-11.28830427,27.72588042,-0.5432445155,0.1115570219,0.69979589875,-0.23270379915,0.538110627,-0.1068409724,0.00375
08:28:33,-0.89506429,0.23201205,-0.0545998799999999,-0.06323866,0.54816676,-0.08359676,-1.01385576,-2.89206149,-11.28976774,27.74729104,-0.543617711,0.1106119478,0.7017470975,-0.2326366523,0.537780874,-0.1067349988,0.00375
08:28:33,-0.8969620349999999,0.2317465749999999,-0.05379502,-0.06332389,0.54794304,-0.08337304,-1.01376804,-2.890151835,-11.29123121,27.76870166,-0.5439909065,0.1096668737,0.70369829625,-0.23256950545,0.537451121,-0.1066290251999999,0.00375
08:28:33,-0.89885978,0.2314811,-0.0529901599999999,-0.06340912,0.54771932,-0.08314932,-1.01368032,-2.88824218,-11.29269468,27.79011228,-0.544364102,0.1087217995999999,0.705649495,-0.2325023586,0.537121368,-0.1065230516,0.00375
08:28:33,-0.900757525,0.2312156249999999,-0.0521853,-0.0634943499999999,0.5474956000000001,-0.0829256,-1.0135926,-2.8863325250000003,-11.29415815,27.8115229,-0.5447372975,0.1077767254999999,0.70760069375,-0.23243521175,0.536791615,-0.106417078,0.00375
08:28:33,-0.90265527,0.23095015,-0.0513804399999999,-0.06357958,0.54727188,-0.08270188,-1.01350488,-2.88442287,-11.29562162,27.83293352,-0.545110493,0.1068316513999999,0.7095518925,-0.2323680649,0.536461862,-0.1063111044,0.00375
08:28:33,-0.904553015,0.230684675,-0.0505755799999999,-0.06366481,0.54704816,-0.08247816,-1.01341716,-2.882513215,-11.29708509,27.85434414,-0.5454836885,0.1058865772999999,0.71150309125,-0.23230091805,0.536132109,-0.1062051307999999,0.00375
08:28:33,-0.90645076,0.2304192,-0.04977072,-0.06375004,0.5468244400000001,-0.08225444,-1.01332944,-2.88060356,-11.29854856,27.87575476,-0.545856884,0.1049415032,0.71345429,-0.2322337712,0.535802356,-0.1060991571999999,0.00375
08:28:33,-0.908348505,0.230153725,-0.0489658599999999,-0.06383527,0.54660072,-0.08203072,-1.01324172,-2.878693905,-11.30001203,27.89716538,-0.5462300795,0.1039964290999999,0.71540548875,-0.23216662435,0.535472603,-0.1059931836,0.00375
08:28:33,-0.91024625,0.22988825,-0.0481609999999999,-0.0639204999999999,0.546377,-0.081807,-1.013154,-2.87678425,-11.3014755,27.918576,-0.546603275,0.1030513549999999,0.7173566875,-0.2320994775,0.5351428500000001,-0.10588721,0.00375
08:28:33,-0.912143995,0.229622775,-0.04735614,-0.06400573,0.5461532800000001,-0.08158328,-1.01306628,-2.874874595,-11.30293897,27.93998662,-0.5469764705,0.1021062808999999,0.71930788625,-0.23203233065,0.534813097,-0.1057812363999999,0.00375
08:28:33,-0.91404174,0.2293573,-0.0465512799999999,-0.06409096,0.54592956,-0.08135956,-1.01297856,-2.87296494,-11.30440244,27.96139724,-0.547349666,0.1011612067999999,0.721259085,-0.2319651838,0.534483344,-0.1056752628,0.00375
08:28:33,-0.915939485,0.229091825,-0.0457464199999999,-0.06417619,0.54570584,-0.08113584,-1.0128908399999998,-2.871055285,-11.30586591,27.98280786,-0.5477228615,0.1002161326999999,0.72321028375,-0.23189803695,0.534153591,-0.1055692892,0.00375
08:28:33,-0.91783723,0.2288263499999999,-0.04494156,-0.06426142,0.5454821200000001,-0.08091212,-1.0128031199999998,-2.86914563,-11.30732938,28.00421848,-0.548096057,0.0992710585999999,0.7251614825,-0.2318308901,0.533823838,-0.1054633156,0.00375
08:28:33,-0.919734975,0.228560875,-0.0441366999999999,-0.0643466499999999,0.5452584,-0.0806884,-1.0127153999999998,-2.867235975,-11.30879285,28.0256291,-0.5484692525,0.0983259844999999,0.72711268125,-0.23176374325,0.5334940850000001,-0.1053573419999999,0.00375
08:28:33,-0.92163272,0.2282953999999999,-0.0433318399999999,-0.06443188,0.54503468,-0.08046468,-1.01262768,-2.86532632,-11.31025632,28.04703972,-0.548842448,0.0973809103999999,0.72906388,-0.2316965964,0.533164332,-0.1052513683999999,0.00375
08:28:33,-0.923530465,0.228029925,-0.04252698,-0.06451711,0.5448109600000001,-0.08024096,-1.01253996,-2.863416665,-11.31171979,28.06845034,-0.5492156435,0.0964358363,0.73101507875,-0.23162944955,0.532834579,-0.1051453948,0.00375
08:28:33,-0.92542821,0.22776445,-0.0417221199999999,-0.06460234,0.54458724,-0.08001724,-1.01245224,-2.86150701,-11.31318326,28.08986096,-0.549588839,0.0954907622,0.7329662775,-0.2315623027,0.532504826,-0.1050394212,0.00375
08:28:33,-0.927325955,0.227498975,-0.04091726,-0.06468757,0.54436352,-0.07979352,-1.01236452,-2.859597355,-11.31464673,28.11127158,-0.5499620345,0.0945456881,0.73491747625,-0.23149515585,0.532175073,-0.1049334476,0.00375
08:28:33,-0.9292237,0.2272335,-0.0401123999999999,-0.0647727999999999,0.5441398000000001,-0.0795698,-1.0122768,-2.8576877,-11.3161102,28.1326822,-0.55033523,0.093600614,0.736868675,-0.231428009,0.5318453200000001,-0.1048274739999999,0.00375
08:28:33,-0.931121445,0.226968025,-0.0393075399999999,-0.06485803,0.54391608,-0.07934608,-1.01218908,-2.855778045,-11.31757367,28.15409282,-0.5507084255,0.0926555399,0.73881987375,-0.23136086215,0.531515567,-0.1047215004,0.00375
08:28:33,-0.93301919,0.22670255,-0.03850268,-0.06494326,0.54369236,-0.07912236,-1.01210136,-2.85386839,-11.31903714,28.17550344,-0.551081621,0.0917104657999999,0.7407710725,-0.2312937153,0.531185814,-0.1046155268,0.00375
08:28:33,-0.934916935,0.226437075,-0.0376978199999999,-0.06502849,0.5434686400000001,-0.07889864,-1.01201364,-2.851958735,-11.32050061,28.19691406,-0.5514548165,0.0907653916999999,0.74272227125,-0.23122656845,0.530856061,-0.1045095532,0.00375
08:28:33,-0.93681468,0.2261716,-0.0368929599999999,-0.06511372,0.54324492,-0.07867492,-1.01192592,-2.85004908,-11.32196408,28.21832468,-0.551828012,0.0898203175999999,0.74467347,-0.2311594216,0.530526308,-0.1044035795999999,0.00375
08:28:33,-0.938712425,0.2259061249999999,-0.0360881,-0.0651989499999999,0.5430212,-0.0784512,-1.0118382,-2.8481394250000003,-11.32342755,28.2397353,-0.5522012075,0.0888752434999999,0.74662466875,-0.23109227475,0.5301965550000001,-0.104297606,0.00375
08:28:33,-0.94061017,0.22564065,-0.0352832399999999,-0.06528418,0.54279748,-0.07822748,-1.01175048,-2.84622977,-11.32489102,28.26114592,-0.552574403,0.0879301694,0.7485758675,-0.2310251279,0.529866802,-0.1041916324,0.00375
08:28:33,-0.942507915,0.2253751749999999,-0.0344783799999999,-0.06536941,0.54257376,-0.07800376,-1.01166276,-2.844320115,-11.32635449,28.28255654,-0.5529475985,0.0869850953,0.75052706625,-0.23095798105,0.529537049,-0.1040856588,0.00375
08:28:33,-0.94440566,0.2251097,-0.03367352,-0.06545464,0.54235004,-0.07778004,-1.01157504,-2.84241046,-11.32781796,28.30396716,-0.553320794,0.0860400212,0.752478265,-0.2308908342,0.529207296,-0.1039796851999999,0.00375
08:28:33,-0.946303405,0.224844225,-0.0328686599999999,-0.06553987,0.54212632,-0.07755632,-1.01148732,-2.840500805,-11.32928143,28.32537778,-0.5536939895,0.0850949470999999,0.75442946375,-0.23082368735,0.528877543,-0.1038737116,0.00375
08:28:33,-0.94820115,0.22457875,-0.0320637999999999,-0.0656250999999999,0.5419026,-0.0773326,-1.0113995999999998,-2.83859115,-11.3307449,28.3467884,-0.554067185,0.0841498729999999,0.7563806625,-0.2307565405,0.52854779,-0.103767738,0.00375
08:28:33,-0.950098895,0.224313275,-0.0312589399999999,-0.06571033,0.5416788800000001,-0.07710888,-1.0113118799999998,-2.836681495,-11.33220837,28.36819902,-0.5544403805,0.0832047988999999,0.7583318612500001,-0.23068939365,0.528218037,-0.1036617644,0.00375
08:28:33,-0.95199664,0.2240478,-0.0304540799999999,-0.06579556,0.54145516,-0.07688516,-1.0112241599999998,-2.83477184,-11.33367184,28.38960964,-0.554813576,0.0822597247999999,0.76028306,-0.2306222468,0.527888284,-0.1035557907999999,0.00375
08:28:33,-0.953894385,0.223782325,-0.0296492199999999,-0.06588079,0.54123144,-0.07666144,-1.01113644,-2.832862185,-11.33513531,28.41102026,-0.5551867715,0.0813146506999999,0.76223425875,-0.23055509995,0.527558531,-0.1034498172,0.00375
08:28:33,-0.95579213,0.22351685,-0.0288443599999999,-0.06596602,0.5410077200000001,-0.07643772,-1.01104872,-2.83095253,-11.33659878,28.43243088,-0.555559967,0.0803695765999999,0.7641854575,-0.2304879531,0.527228778,-0.1033438436,0.00375
08:28:33,-0.957689875,0.223251375,-0.0280394999999999,-0.0660512499999999,0.540784,-0.076214,-1.010961,-2.829042875,-11.33806225,28.4538415,-0.5559331625,0.0794245025,0.76613665625,-0.23042080625,0.526899025,-0.10323787,0.00375
08:28:33,-0.95958762,0.2229859,-0.0272346399999999,-0.06613648,0.54056028,-0.07599028,-1.01087328,-2.82713322,-11.33952572,28.47525212,-0.556306358,0.0784794284,0.768087855,-0.2303536594,0.526569272,-0.1031318963999999,0.00375
08:28:33,-0.961485365,0.222720425,-0.0264297799999999,-0.0662217099999999,0.5403365600000001,-0.07576656,-1.01078556,-2.825223565,-11.34098919,28.49666274,-0.5566795535,0.0775343543,0.77003905375,-0.23028651255,0.526239519,-0.1030259228,0.00375
08:28:33,-0.96338311,0.2224549499999999,-0.0256249199999999,-0.06630694,0.54011284,-0.07554284,-1.01069784,-2.82331391,-11.34245266,28.51807336,-0.557052749,0.0765892801999999,0.7719902525,-0.2302193657,0.5259097660000001,-0.1029199492,0.00375
08:28:33,-0.965280855,0.222189475,-0.0248200599999999,-0.06639217,0.53988912,-0.07531912,-1.01061012,-2.821404255,-11.34391613,28.53948398,-0.5574259445,0.0756442060999999,0.77394145125,-0.23015221885,0.525580013,-0.1028139756,0.00375
08:28:33,-0.9671786,0.221924,-0.0240152,-0.0664773999999999,0.5396654000000001,-0.0750954,-1.0105224,-2.8194946,-11.3453796,28.5608946,-0.55779914,0.0746991319999999,0.7758926500000001,-0.230085072,0.52525026,-0.1027080019999999,0.00375
08:28:33,-0.969076345,0.221658525,-0.0232103399999999,-0.06656263,0.53944168,-0.07487168,-1.01043468,-2.817584945,-11.34684307,28.58230522,-0.5581723355,0.0737540578999999,0.77784384875,-0.23001792515,0.524920507,-0.1026020283999999,0.00375
08:28:33,-0.97097409,0.22139305,-0.0224054799999999,-0.06664786,0.53921796,-0.07464796,-1.01034696,-2.81567529,-11.34830654,28.60371584,-0.558545531,0.0728089837999999,0.7797950475,-0.2299507783,0.524590754,-0.1024960548,0.00375
08:28:33,-0.972871835,0.221127575,-0.02160062,-0.06673309,0.5389942400000001,-0.07442424,-1.01025924,-2.813765635,-11.34977001,28.62512646,-0.5589187265,0.0718639096999999,0.78174624625,-0.22988363145,0.5242610010000001,-0.1023900812,0.00375
08:28:33,-0.97476958,0.2208621,-0.0207957599999999,-0.06681832,0.53877052,-0.07420052,-1.01017152,-2.8118559800000003,-11.35123348,28.64653708,-0.559291922,0.0709188356,0.783697445,-0.2298164846,0.523931248,-0.1022841076,0.00375
08:28:33,-0.976667325,0.220596625,-0.0199908999999999,-0.0669035499999999,0.5385468,-0.0739768,-1.0100838,-2.8099463250000003,-11.35269695,28.6679477,-0.5596651175,0.0699737615,0.78564864375,-0.22974933775,0.523601495,-0.1021781339999999,0.00375
08:28:33,-0.97856507,0.22033115,-0.01918604,-0.06698878,0.5383230800000001,-0.07375308,-1.00999608,-2.80803667,-11.35416042,28.68935832,-0.560038313,0.0690286874,0.7875998425,-0.2296821909,0.523271742,-0.1020721604,0.00375
08:28:33,-0.980462815,0.220065675,-0.0183811799999999,-0.0670740099999999,0.53809936,-0.07352936,-1.0099083599999998,-2.806127015,-11.35562389,28.71076894,-0.5604115085,0.0680836132999999,0.78955104125,-0.22961504405,0.522941989,-0.1019661868,0.00375
08:28:33,-0.98236056,0.2198002,-0.0175763199999999,-0.06715924,0.53787564,-0.07330564,-1.00982064,-2.80421736,-11.35708736,28.73217956,-0.560784704,0.0671385391999999,0.79150224,-0.2295478972,0.5226122360000001,-0.1018602132,0.00375
08:28:33,-0.984258305,0.219534725,-0.01677146,-0.06724447,0.5376519200000001,-0.07308192,-1.00973292,-2.802307705,-11.35855083,28.75359018,-0.5611578995,0.0661934650999999,0.79345343875,-0.22948075035,0.522282483,-0.1017542395999999,0.00375
08:28:33,-0.98615605,0.21926925,-0.0159665999999999,-0.0673296999999999,0.5374282,-0.0728582,-1.0096452,-2.80039805,-11.3600143,28.7750008,-0.561531095,0.0652483909999999,0.7954046375,-0.2294136035,0.52195273,-0.101648266,0.00375
08:28:33,-0.988053795,0.219003775,-0.0151617399999999,-0.06741493,0.53720448,-0.07263448,-1.00955748,-2.798488395,-11.36147777,28.79641142,-0.5619042905,0.0643033168999999,0.79735583625,-0.22934645665,0.521622977,-0.1015422924,0.00375
08:28:33,-0.98995154,0.2187383,-0.0143568799999999,-0.06750016,0.5369807600000001,-0.07241076,-1.00946976,-2.79657874,-11.36294124,28.81782204,-0.5622774859999999,0.0633582427999999,0.799307035,-0.2292793098,0.521293224,-0.1014363188,0.00375
08:28:33,-0.991849285,0.218472825,-0.0135520199999999,-0.06758539,0.53675704,-0.07218704,-1.00938204,-2.794669085,-11.36440471,28.83923266,-0.5626506815,0.0624131686999999,0.80125823375,-0.22921216295,0.520963471,-0.1013303451999999,0.00375
08:28:33,-0.99374703,0.21820735,-0.0127471599999999,-0.06767062,0.53653332,-0.07196332,-1.00929432,-2.7927594300000003,-11.36586818,28.86064328,-0.563023877,0.0614680945999999,0.8032094325,-0.2291450161,0.520633718,-0.1012243716,0.00375
08:28:33,-0.995644775,0.217941875,-0.0119422999999999,-0.0677558499999999,0.5363096,-0.0717396,-1.0092066,-2.790849775,-11.36733165,28.8820539,-0.5633970725,0.0605230205,0.80516063125,-0.22907786925,0.520303965,-0.101118398,0.00375
08:28:33,-0.99754252,0.2176764,-0.0111374399999999,-0.06784108,0.53608588,-0.07151588,-1.00911888,-2.78894012,-11.36879512,28.90346452,-0.563770268,0.0595779464,0.80711183,-0.2290107224,0.519974212,-0.1010124244,0.00375
08:28:33,-0.999440265,0.217410925,-0.0103325799999999,-0.0679263099999999,0.53586216,-0.07129216,-1.00903116,-2.787030465,-11.37025859,28.92487514,-0.5641434635,0.0586328722999999,0.80906302875,-0.22894357555,0.519644459,-0.1009064507999999,0.00375
08:28:33,-1.00133801,0.21714545,-0.0095277199999999,-0.06801154,0.53563844,-0.07106844,-1.00894344,-2.78512081,-11.37172206,28.94628576,-0.564516659,0.0576877981999999,0.8110142275,-0.2288764287,0.5193147060000001,-0.1008004771999999,0.00375
08:28:33,-1.003235755,0.216879975,-0.0087228599999999,-0.06809677,0.53541472,-0.07084472,-1.00885572,-2.783211155,-11.37318553,28.96769638,-0.5648898545,0.0567427240999999,0.81296542625,-0.22880928185,0.518984953,-0.1006945036,0.00375
08:28:33,-1.0051335,0.2166145,-0.0079179999999999,-0.0681819999999999,0.535191,-0.070621,-1.008768,-2.7813015,-11.374649,28.989107,-0.56526305,0.0557976499999999,0.814916625,-0.2287421349999999,0.5186552,-0.10058853,0.00375
08:28:33,-1.007031245,0.216349025,-0.0071131399999999,-0.06826723,0.53496728,-0.07039728,-1.00868028,-2.779391845,-11.37611247,29.01051762,-0.5656362455,0.0548525758999999,0.81686782375,-0.22867498815,0.518325447,-0.1004825563999999,0.00375
08:28:33,-1.00892899,0.21608355,-0.0063082799999999,-0.06835246,0.53474356,-0.07017356,-1.00859256,-2.77748219,-11.37757594,29.03192824,-0.566009441,0.0539075017999999,0.8188190225,-0.2286078413,0.517995694,-0.1003765828,0.00375
08:28:33,-1.010826735,0.215818075,-0.0055034199999999,-0.06843769,0.5345198400000001,-0.06994984,-1.0085048399999998,-2.775572535,-11.37903941,29.05333886,-0.5663826365,0.0529624276999999,0.82077022125,-0.22854069445,0.517665941,-0.1002706092,0.00375
08:28:33,-1.01272448,0.2155526,-0.0046985599999999,-0.06852292,0.53429612,-0.06972612,-1.0084171199999998,-2.7736628800000003,-11.38050288,29.07474948,-0.566755832,0.0520173535999999,0.82272142,-0.2284735476,0.517336188,-0.1001646356,0.00375
08:28:33,-1.014622225,0.215287125,-0.0038937,-0.0686081499999999,0.5340724,-0.0695024,-1.0083294,-2.7717532250000003,-11.38196635,29.0961601,-0.5671290274999999,0.0510722795,0.82467261875,-0.22840640075,0.517006435,-0.1000586619999999,0.00375
08:28:33,-1.01651997,0.21502165,-0.0030888399999999,-0.06869338,0.5338486800000001,-0.06927868,-1.00824168,-2.76984357,-11.38342982,29.11757072,-0.567502223,0.0501272053999999,0.8266238175,-0.2283392539,0.516676682,-0.0999526883999999,0.00375
08:28:33,-1.018417715,0.214756175,-0.0022839799999999,-0.0687786099999999,0.53362496,-0.06905496,-1.00815396,-2.767933915,-11.38489329,29.13898134,-0.5678754185,0.0491821312999999,0.82857501625,-0.22827210705,0.516346929,-0.0998467148,0.00375
08:28:33,-1.02031546,0.2144907,-0.00147912,-0.06886384,0.53340124,-0.06883124,-1.00806624,-2.76602426,-11.38635676,29.16039196,-0.568248614,0.0482370571999999,0.830526215,-0.2282049602,0.516017176,-0.0997407412,0.00375
08:28:33,-1.022213205,0.214225225,-0.0006742599999999,-0.06894907,0.5331775200000001,-0.06860752,-1.00797852,-2.764114605,-11.38782023,29.18180258,-0.5686218095,0.0472919830999999,0.83247741375,-0.22813781335,0.515687423,-0.0996347676,0.00375
08:28:33,-1.02411095,0.21395975,0.0001306,-0.0690342999999999,0.5329538,-0.0683838,-1.0078908,-2.76220495,-11.3892837,29.2032132,-0.568995005,0.0463469089999999,0.8344286125,-0.2280706665,0.51535767,-0.0995287939999999,0.00375
08:28:33,-1.026008695,0.213694275,0.0009354599999999,-0.06911953,0.53273008,-0.06816008,-1.00780308,-2.760295295,-11.39074717,29.22462382,-0.5693682005,0.0454018348999999,0.83637981125,-0.2280035196499999,0.5150279170000001,-0.0994228204,0.00375
08:28:33,-1.02790644,0.2134288,0.00174032,-0.06920476,0.5325063600000001,-0.06793636,-1.00771536,-2.75838564,-11.39221064,29.24603444,-0.569741396,0.0444567607999999,0.83833101,-0.2279363728,0.514698164,-0.0993168468,0.00375
08:28:33,-1.029804185,0.213163325,0.00254518,-0.06928999,0.53228264,-0.06771264,-1.00762764,-2.756475985,-11.39367411,29.26744506,-0.5701145915,0.0435116866999999,0.84028220875,-0.22786922595,0.514368411,-0.0992108732,0.00375
08:28:33,-1.03170193,0.21289785,0.0033500399999999,-0.06937522,0.53205892,-0.06748892,-1.00753992,-2.7545663300000003,-11.39513758,29.28885568,-0.570487787,0.0425666126,0.8422334075,-0.2278020791,0.514038658,-0.0991048995999999,0.00375
08:28:33,-1.033599675,0.212632375,0.0041549,-0.0694604499999999,0.5318352000000001,-0.0672652,-1.0074522,-2.752656675,-11.39660105,29.3102663,-0.5708609825,0.0416215384999999,0.84418460625,-0.22773493225,0.513708905,-0.098998926,0.00375
08:28:33,-1.03549742,0.2123669,0.00495976,-0.06954568,0.53161148,-0.06704148,-1.00736448,-2.75074702,-11.39806452,29.33167692,-0.571234178,0.0406764643999999,0.846135805,-0.2276677854,0.5133791520000001,-0.0988929524,0.00375
08:28:33,-1.037395165,0.212101425,0.00576462,-0.0696309099999999,0.53138776,-0.06681776,-1.00727676,-2.748837365,-11.39952799,29.35308754,-0.5716073735,0.0397313902999999,0.84808700375,-0.2276006385499999,0.513049399,-0.0987869788,0.00375
08:28:33,-1.03929291,0.21183595,0.00656948,-0.06971614,0.5311640400000001,-0.06659404,-1.00718904,-2.74692771,-11.40099146,29.37449816,-0.5719805689999999,0.0387863161999999,0.8500382025,-0.2275334917,0.512719646,-0.0986810051999999,0.00375
08:28:33,-1.041190655,0.211570475,0.00737434,-0.06980137,0.53094032,-0.06637032,-1.00710132,-2.745018055,-11.40245493,29.39590878,-0.5723537645,0.0378412420999999,0.85198940125,-0.22746634485,0.512389893,-0.0985750316,0.00375
08:28:33,-1.0430884,0.211305,0.0081792,-0.0698866,0.5307166,-0.0661466,-1.0070136,-2.7431084,-11.4039184,29.4173194,-0.57272696,0.0368961679999999,0.8539406,-0.227399198,0.51206014,-0.098469058,0.00375
08:28:33,-1.044986145,0.211039525,0.00898406,-0.06997183,0.53049288,-0.06592288,-1.00692588,-2.741198745,-11.40538187,29.43873002,-0.5731001554999999,0.0359510938999999,0.85589179875,-0.22733205115,0.5117303870000001,-0.0983630844,0.00375
08:28:33,-1.04688389,0.21077405,0.00978892,-0.0700570599999999,0.53026916,-0.06569916,-1.00683816,-2.73928909,-11.40684534,29.46014064,-0.573473351,0.0350060197999999,0.8578429975,-0.2272649043,0.511400634,-0.0982571107999999,0.00375
08:28:33,-1.048781635,0.210508575,0.01059378,-0.07014229,0.53004544,-0.06547544,-1.00675044,-2.737379435,-11.40830881,29.48155126,-0.5738465465,0.0340609457,0.85979419625,-0.2271977574499999,0.511070881,-0.0981511371999999,0.00375
08:28:33,-1.05067938,0.2102431,0.01139864,-0.07022752,0.52982172,-0.06525172,-1.00666272,-2.7354697800000003,-11.40977228,29.50296188,-0.574219742,0.0331158715999999,0.861745395,-0.2271306106,0.510741128,-0.0980451636,0.00375
08:28:33,-1.052577125,0.209977625,0.0122035,-0.07031275,0.529598,-0.065028,-1.006575,-2.7335601250000003,-11.41123575,29.5243725,-0.5745929375,0.0321707974999999,0.86369659375,-0.22706346375,0.510411375,-0.09793919,0.00375
08:28:33,-1.05447487,0.20971215,0.01300836,-0.07039798,0.52937428,-0.06480428,-1.00648728,-2.73165047,-11.41269922,29.54578312,-0.574966133,0.0312257233999999,0.8656477925,-0.2269963169,0.510081622,-0.0978332163999999,0.00375
08:28:33,-1.056372615,0.209446675,0.01381322,-0.0704832099999999,0.52915056,-0.06458056,-1.00639956,-2.729740815,-11.41416269,29.56719374,-0.5753393285,0.0302806492999999,0.86759899125,-0.22692917005,0.509751869,-0.0977272428,0.00375
08:28:33,-1.05827036,0.2091812,0.01461808,-0.07056844,0.52892684,-0.06435684,-1.00631184,-2.72783116,-11.41562616,29.58860436,-0.575712524,0.0293355751999999,0.86955019,-0.2268620231999999,0.509422116,-0.0976212692,0.00375
08:28:33,-1.060168105,0.208915725,0.01542294,-0.07065367,0.5287031200000001,-0.06413312,-1.00622412,-2.725921505,-11.41708963,29.61001498,-0.5760857195,0.0283905010999999,0.87150138875,-0.22679487635,0.509092363,-0.0975152956,0.00375
08:28:33,-1.06206585,0.20865025,0.0162278,-0.0707389,0.5284794,-0.0639094,-1.0061364,-2.72401185,-11.4185531,29.6314256,-0.576458915,0.0274454269999999,0.8734525875,-0.2267277295,0.50876261,-0.0974093219999999,0.00375
08:28:33,-1.063963595,0.208384775,0.01703266,-0.07082413,0.52825568,-0.06368568,-1.00604868,-2.722102195,-11.42001657,29.65283622,-0.5768321104999999,0.0265003528999999,0.8754037862499999,-0.22666058265,0.508432857,-0.0973033483999999,0.00375
08:28:33,-1.06586134,0.2081193,0.01783752,-0.0709093599999999,0.5280319600000001,-0.06346196,-1.00596096,-2.72019254,-11.42148004,29.67424684,-0.577205306,0.0255552787999999,0.877354985,-0.2265934358,0.508103104,-0.0971973748,0.00375
08:28:33,-1.067759085,0.207853825,0.01864238,-0.07099459,0.52780824,-0.06323824,-1.00587324,-2.7182828850000003,-11.42294351,29.69565746,-0.5775785015,0.0246102047,0.87930618375,-0.22652628895,0.507773351,-0.0970914012,0.00375
08:28:33,-1.06965683,0.20758835,0.01944724,-0.07107982,0.52758452,-0.06301452,-1.00578552,-2.7163732300000003,-11.42440698,29.71706808,-0.5779516969999999,0.0236651306,0.8812573825000001,-0.2264591420999999,0.507443598,-0.0969854276,0.00375
08:28:33,-1.071554575,0.207322875,0.0202521,-0.07116505,0.5273608000000001,-0.0627908,-1.0056978,-2.714463575,-11.42587045,29.7384787,-0.5783248925,0.0227200565,0.88320858125,-0.22639199525,0.507113845,-0.0968794539999999,0.00375
08:28:33,-1.07345232,0.2070574,0.02105696,-0.07125028,0.52713708,-0.06256708,-1.00561008,-2.71255392,-11.42733392,29.75988932,-0.578698088,0.0217749824,0.88515978,-0.2263248484,0.506784092,-0.0967734804,0.00375
08:28:33,-1.075350065,0.206791925,0.02186182,-0.0713355099999999,0.52691336,-0.06234336,-1.00552236,-2.710644265,-11.42879739,29.78129994,-0.5790712835,0.0208299083,0.88711097875,-0.22625770155,0.506454339,-0.0966675068,0.00375
08:28:33,-1.07724781,0.20652645,0.02266668,-0.07142074,0.5266896400000001,-0.06211964,-1.00543464,-2.70873461,-11.43026086,29.80271056,-0.579444479,0.0198848341999999,0.8890621775,-0.2261905547,0.506124586,-0.0965615332,0.00375
08:28:33,-1.079145555,0.206260975,0.02347154,-0.07150597,0.52646592,-0.06189592,-1.00534692,-2.706824955,-11.43172433,29.82412118,-0.5798176745,0.0189397600999999,0.89101337625,-0.2261234078499999,0.505794833,-0.0964555595999999,0.00375
08:28:33,-1.0810433000000002,0.2059955,0.0242764,-0.0715912,0.5262422,-0.0616722,-1.0052592,-2.7049153,-11.4331878,29.8455318,-0.58019087,0.0179946859999999,0.8929645749999999,-0.2260562609999999,0.50546508,-0.096349586,0.00375
08:28:33,-1.082941045,0.205730025,0.02508126,-0.07167643,0.5260184800000001,-0.06144848,-1.00517148,-2.703005645,-11.43465127,29.86694242,-0.5805640655,0.0170496118999999,0.89491577375,-0.22598911415,0.505135327,-0.0962436124,0.00375
08:28:33,-1.08483879,0.20546455,0.02588612,-0.0717616599999999,0.52579476,-0.06122476,-1.00508376,-2.70109599,-11.43611474,29.88835304,-0.580937261,0.0161045377999999,0.8968669725,-0.2259219673,0.504805574,-0.0961376388,0.00375
08:28:33,-1.086736535,0.205199075,0.02669098,-0.07184689,0.52557104,-0.06100104,-1.00499604,-2.6991863350000003,-11.43757821,29.90976366,-0.5813104565,0.0151594636999999,0.8988181712500001,-0.22585482045,0.504475821,-0.0960316651999999,0.00375
08:28:33,-1.08863428,0.2049336,0.02749584,-0.0719321199999999,0.5253473200000001,-0.06077732,-1.00490832,-2.6972766800000003,-11.43904168,29.93117428,-0.5816836519999999,0.0142143895999999,0.90076937,-0.2257876736,0.5041460680000001,-0.0959256916,0.00375
08:28:33,-1.090532025,0.204668125,0.0283007,-0.07201735,0.5251236,-0.0605536,-1.0048206,-2.6953670250000004,-11.44050515,29.9525849,-0.5820568475,0.0132693154999999,0.90272056875,-0.2257205267499999,0.503816315,-0.095819718,0.00375
08:28:33,-1.09242977,0.20440265,0.02910556,-0.07210258,0.52489988,-0.06032988,-1.00473288,-2.69345737,-11.44196862,29.97399552,-0.582430043,0.0123242413999999,0.9046717675,-0.2256533799,0.503486562,-0.0957137444,0.00375
08:28:33,-1.094327515,0.204137175,0.02991042,-0.0721878099999999,0.5246761600000001,-0.06010616,-1.00464516,-2.691547715,-11.44343209,29.99540614,-0.5828032384999999,0.0113791672999999,0.90662296625,-0.22558623305,0.503156809,-0.0956077707999999,0.00375
08:28:33,-1.09622526,0.2038717,0.03071528,-0.07227304,0.52445244,-0.05988244,-1.00455744,-2.68963806,-11.44489556,30.01681676,-0.583176434,0.0104340931999999,0.908574165,-0.2255190862,0.502827056,-0.0955017971999999,0.00375
08:28:33,-1.0981230050000002,0.203606225,0.03152014,-0.07235827,0.52422872,-0.05965872,-1.00446972,-2.687728405,-11.44635903,30.03822738,-0.5835496295,0.0094890190999999,0.91052536375,-0.22545193935,0.502497303,-0.0953958236,0.00375
08:28:33,-1.10002075,0.20334075,0.032325,-0.0724435,0.524005,-0.059435,-1.004382,-2.68581875,-11.4478225,30.059638,-0.5839228249999999,0.0085439449999999,0.9124765625,-0.2253847925,0.50216755,-0.09528985,0.00375
08:28:33,-1.101918495,0.203075275,0.03312986,-0.07252873,0.52378128,-0.05921128,-1.00429428,-2.683909095,-11.44928597,30.08104862,-0.5842960205,0.0075988708999999,0.91442776125,-0.2253176456499999,0.501837797,-0.0951838763999999,0.00375
08:28:33,-1.10381624,0.2028098,0.03393472,-0.0726139599999999,0.52355756,-0.05898756,-1.00420656,-2.68199944,-11.45074944,30.10245924,-0.584669216,0.0066537968,0.91637896,-0.2252504988,0.501508044,-0.0950779028,0.00375
08:28:33,-1.105713985,0.202544325,0.03473958,-0.07269919,0.52333384,-0.05876384,-1.00411884,-2.6800897850000003,-11.45221291,30.12386986,-0.5850424115,0.0057087227,0.91833015875,-0.22518335195,0.501178291,-0.0949719292,0.00375
08:28:33,-1.10761173,0.20227885,0.03554444,-0.0727844199999999,0.52311012,-0.05854012,-1.00403112,-2.6781801300000003,-11.45367638,30.14528048,-0.585415607,0.0047636486,0.9202813575,-0.2251162051,0.500848538,-0.0948659556,0.00375
08:28:33,-1.109509475,0.202013375,0.0363493,-0.07286965,0.5228864,-0.0583164,-1.0039434,-2.676270475,-11.45513985,30.1666911,-0.5857888025,0.0038185745,0.92223255625,-0.22504905825,0.500518785,-0.0947599819999999,0.00375
08:28:33,-1.11140722,0.2017479,0.03715416,-0.07295488,0.52266268,-0.05809268,-1.00385568,-2.67436082,-11.45660332,30.18810172,-0.586161998,0.0028735003999999,0.924183755,-0.2249819113999999,0.500189032,-0.0946540083999999,0.00375
08:28:33,-1.113304965,0.201482425,0.0379590199999999,-0.0730401099999999,0.52243896,-0.05786896,-1.00376796,-2.672451165,-11.45806679,30.20951234,-0.5865351934999999,0.0019284262999999,0.92613495375,-0.2249147645499999,0.499859279,-0.0945480348,0.00375
08:28:33,-1.1152027100000002,0.20121695,0.03876388,-0.07312534,0.52221524,-0.05764524,-1.00368024,-2.67054151,-11.45953026,30.23092296,-0.586908389,0.0009833521999999,0.9280861525,-0.2248476177,0.499529526,-0.0944420612,0.00375
08:28:33,-1.117100455,0.200951475,0.03956874,-0.07321057,0.52199152,-0.05742152,-1.00359252,-2.668631855,-11.46099373,30.25233358,-0.5872815845,3.827809999998322e-05,0.93003735125,-0.22478047085,0.499199773,-0.0943360876,0.00375
08:28:33,-1.1189982,0.200686,0.0403735999999999,-0.0732958,0.5217678,-0.0571978,-1.0035048,-2.6667222,-11.4624572,30.2737442,-0.5876547799999999,-0.000906796,0.93198855,-0.224713324,0.49887002,-0.094230114,0.00375
08:28:33,-1.120895945,0.200420525,0.04117846,-0.07338103,0.5215440800000001,-0.05697408,-1.00341708,-2.664812545,-11.46392067,30.29515482,-0.5880279755,-0.0018518701,0.93393974875,-0.22464617715,0.498540267,-0.0941241404,0.00375
08:28:33,-1.12279369,0.20015505,0.04198332,-0.0734662599999999,0.52132036,-0.05675036,-1.00332936,-2.66290289,-11.46538414,30.31656544,-0.588401171,-0.0027969442,0.9358909475,-0.2245790302999999,0.498210514,-0.0940181668,0.00375
08:28:33,-1.124691435,0.199889575,0.0427881799999999,-0.07355149,0.52109664,-0.05652664,-1.00324164,-2.6609932350000003,-11.46684761,30.33797606,-0.5887743664999999,-0.0037420183,0.93784214625,-0.22451188345,0.497880761,-0.0939121932,0.00375
08:28:33,-1.12658918,0.1996241,0.04359304,-0.0736367199999999,0.5208729200000001,-0.05630292,-1.00315392,-2.6590835800000003,-11.46831108,30.35938668,-0.589147562,-0.0046870924,0.939793345,-0.2244447366,0.497551008,-0.0938062195999999,0.00375
08:28:33,-1.128486925,0.199358625,0.0443979,-0.07372195,0.5206492,-0.0560792,-1.0030662,-2.6571739250000004,-11.46977455,30.3807973,-0.5895207575,-0.0056321665,0.94174454375,-0.22437758975,0.497221255,-0.093700246,0.00375
08:28:33,-1.13038467,0.19909315,0.0452027599999999,-0.07380718,0.52042548,-0.05585548,-1.00297848,-2.65526427,-11.47123802,30.40220792,-0.589893953,-0.0065772406,0.9436957425,-0.2243104429,0.496891502,-0.0935942724,0.00375
08:28:33,-1.1322824150000002,0.198827675,0.04600762,-0.0738924099999999,0.5202017600000001,-0.05563176,-1.00289076,-2.653354615,-11.47270149,30.42361854,-0.5902671485,-0.0075223147,0.94564694125,-0.2242432960499999,0.496561749,-0.0934882988,0.00375
08:28:33,-1.13418016,0.1985622,0.04681248,-0.07397764,0.51997804,-0.05540804,-1.00280304,-2.65144496,-11.47416496,30.44502916,-0.590640344,-0.0084673888,0.94759814,-0.2241761491999999,0.496231996,-0.0933823251999999,0.00375
08:28:33,-1.136077905,0.198296725,0.0476173399999999,-0.07406287,0.51975432,-0.05518432,-1.00271532,-2.649535305,-11.47562843,30.46643978,-0.5910135395,-0.0094124629,0.94954933875,-0.22410900235,0.495902243,-0.0932763516,0.00375
08:28:33,-1.13797565,0.19803125,0.0484222,-0.0741481,0.5195306000000001,-0.0549606,-1.0026276,-2.64762565,-11.4770919,30.4878504,-0.5913867349999999,-0.010357537,0.9515005375,-0.2240418555,0.49557249,-0.093170378,0.00375
08:28:33,-1.139873395,0.197765775,0.04922706,-0.07423333,0.51930688,-0.05473688,-1.00253988,-2.645715995,-11.47855537,30.50926102,-0.5917599305,-0.0113026110999999,0.95345173625,-0.22397470865,0.495242737,-0.0930644044,0.00375
08:28:33,-1.14177114,0.1975003,0.0500319199999999,-0.0743185599999999,0.51908316,-0.05451316,-1.00245216,-2.6438063400000003,-11.48001884,30.53067164,-0.592133126,-0.0122476851999999,0.955402935,-0.2239075618,0.494912984,-0.0929584307999999,0.00375
08:28:33,-1.143668885,0.197234825,0.05083678,-0.07440379,0.5188594400000001,-0.05428944,-1.00236444,-2.6418966850000003,-11.48148231,30.55208226,-0.5925063214999999,-0.0131927592999999,0.95735413375,-0.2238404149499999,0.494583231,-0.0928524571999999,0.00375
08:28:33,-1.14556663,0.19696935,0.05164164,-0.0744890199999999,0.51863572,-0.05406572,-1.00227672,-2.6399870300000003,-11.48294578,30.57349288,-0.592879517,-0.0141378334,0.9593053325,-0.2237732680999999,0.494253478,-0.0927464836,0.00375
08:28:33,-1.147464375,0.196703875,0.0524464999999999,-0.07457425,0.518412,-0.053842,-1.002189,-2.638077375,-11.48440925,30.5949035,-0.5932527125,-0.0150829075,0.96125653125,-0.22370612125,0.493923725,-0.09264051,0.00375
08:28:33,-1.1493621200000002,0.1964384,0.05325136,-0.07465948,0.5181882800000001,-0.05361828,-1.00210128,-2.63616772,-11.48587272,30.61631412,-0.5936259079999999,-0.0160279816,0.96320773,-0.2236389744,0.493593972,-0.0925345363999999,0.00375
08:28:33,-1.151259865,0.196172925,0.05405622,-0.0747447099999999,0.51796456,-0.05339456,-1.00201356,-2.634258065,-11.48733619,30.63772474,-0.5939991035,-0.0169730557,0.96515892875,-0.22357182755,0.493264219,-0.0924285628,0.00375
08:28:33,-1.15315761,0.19590745,0.0548610799999999,-0.07482994,0.51774084,-0.05317084,-1.00192584,-2.63234841,-11.48879966,30.65913536,-0.594372299,-0.0179181298,0.9671101275,-0.2235046806999999,0.492934466,-0.0923225892,0.00375
08:28:33,-1.155055355,0.195641975,0.05566594,-0.07491517,0.51751712,-0.05294712,-1.00183812,-2.630438755,-11.49026313,30.68054598,-0.5947454944999999,-0.0188632039,0.96906132625,-0.2234375338499999,0.4926047129999999,-0.0922166156,0.00375
08:28:33,-1.1569531,0.1953765,0.0564708,-0.0750004,0.5172934,-0.0527234,-1.0017504,-2.6285291,-11.4917266,30.7019566,-0.59511869,-0.019808278,0.971012525,-0.2233703869999999,0.49227496,-0.0921106419999999,0.00375
08:28:33,-1.158850845,0.195111025,0.05727566,-0.07508563,0.51706968,-0.05249968,-1.00166268,-2.626619445,-11.49319007,30.72336722,-0.5954918855,-0.0207533521,0.97296372375,-0.22330324015,0.491945207,-0.0920046683999999,0.00375
08:28:33,-1.16074859,0.19484555,0.05808052,-0.0751708599999999,0.51684596,-0.05227596,-1.00157496,-2.6247097900000003,-11.49465354,30.74477784,-0.595865081,-0.0216984262,0.9749149225,-0.2232360933,0.491615454,-0.0918986948,0.00375
08:28:33,-1.162646335,0.194580075,0.05888538,-0.07525609,0.51662224,-0.05205224,-1.00148724,-2.6228001350000003,-11.49611701,30.76618846,-0.5962382764999999,-0.0226435003,0.97686612125,-0.22316894645,0.491285701,-0.0917927212,0.00375
08:28:33,-1.16454408,0.1943146,0.05969024,-0.0753413199999999,0.5163985200000001,-0.05182852,-1.00139952,-2.6208904800000004,-11.49758048,30.78759908,-0.596611472,-0.0235885744,0.97881732,-0.2231017995999999,0.490955948,-0.0916867476,0.00375
08:28:33,-1.1664418250000002,0.194049125,0.0604951,-0.07542655,0.5161748,-0.0516048,-1.0013118,-2.6189808250000004,-11.49904395,30.8090097,-0.5969846675,-0.0245336485,0.98076851875,-0.2230346527499999,0.490626195,-0.091580774,0.00375
08:28:33,-1.16833957,0.19378365,0.06129996,-0.07551178,0.51595108,-0.05138108,-1.00122408,-2.61707117,-11.50050742,30.83042032,-0.5973578629999999,-0.0254787226,0.9827197175,-0.2229675058999999,0.490296442,-0.0914748004,0.00375
08:28:33,-1.170237315,0.193518175,0.06210482,-0.0755970099999999,0.5157273600000001,-0.05115736,-1.00113636,-2.615161515,-11.50197089,30.85183094,-0.5977310585,-0.0264237967,0.98467091625,-0.22290035905,0.489966689,-0.0913688268,0.00375
08:28:33,-1.17213506,0.1932527,0.06290968,-0.07568224,0.51550364,-0.05093364,-1.00104864,-2.61325186,-11.50343436,30.87324156,-0.598104254,-0.0273688708,0.986622115,-0.2228332122,0.489636936,-0.0912628532,0.00375
08:28:33,-1.174032805,0.192987225,0.06371454,-0.07576747,0.51527992,-0.05070992,-1.00096092,-2.611342205,-11.50489783,30.89465218,-0.5984774494999999,-0.0283139449,0.98857331375,-0.22276606535,0.489307183,-0.0911568795999999,0.00375
08:28:33,-1.17593055,0.19272175,0.0645194,-0.0758527,0.5150562000000001,-0.0504862,-1.0008732,-2.60943255,-11.5063613,30.9160628,-0.598850645,-0.0292590189999999,0.9905245125,-0.2226989184999999,0.48897743,-0.091050906,0.00375
08:28:33,-1.177828295,0.192456275,0.06532426,-0.07593793,0.51483248,-0.05026248,-1.00078548,-2.607522895,-11.50782477,30.93747342,-0.5992238405,-0.0302040930999999,0.99247571125,-0.2226317716499999,0.488647677,-0.0909449324,0.00375
08:28:33,-1.17972604,0.1921908,0.06612912,-0.0760231599999999,0.51460876,-0.05003876,-1.00069776,-2.6056132400000003,-11.50928824,30.95888404,-0.599597036,-0.0311491671999999,0.99442691,-0.2225646248,0.488317924,-0.0908389588,0.00375
08:28:33,-1.181623785,0.191925325,0.06693398,-0.07610839,0.5143850400000001,-0.04981504,-1.00061004,-2.6037035850000003,-11.51075171,30.98029466,-0.5999702315,-0.0320942413,0.99637810875,-0.22249747795,0.487988171,-0.0907329851999999,0.00375
08:28:33,-1.1835215300000002,0.19165985,0.06773884,-0.0761936199999999,0.51416132,-0.04959132,-1.00052232,-2.6017939300000004,-11.51221518,31.00170528,-0.600343427,-0.0330393154,0.9983293075,-0.2224303311,0.487658418,-0.0906270116,0.00375
08:28:33,-1.185419275,0.191394375,0.0685437,-0.07627885,0.5139376,-0.0493676,-1.0004346,-2.599884275,-11.51367865,31.0231159,-0.6007166225,-0.0339843895,1.00028050625,-0.2223631842499999,0.487328665,-0.090521038,0.00375
08:28:33,-1.18731702,0.1911289,0.06934856,-0.07636408,0.5137138800000001,-0.04914388,-1.00034688,-2.59797462,-11.51514212,31.04452652,-0.6010898179999999,-0.0349294636,1.002231705,-0.2222960373999999,0.486998912,-0.0904150644,0.00375
08:28:33,-1.189214765,0.190863425,0.07015342,-0.0764493099999999,0.51349016,-0.04892016,-1.00025916,-2.596064965,-11.51660559,31.06593714,-0.6014630135,-0.0358745377,1.00418290375,-0.2222288905499999,0.486669159,-0.0903090907999999,0.00375
08:28:33,-1.19111251,0.19059795,0.07095828,-0.07653454,0.51326644,-0.04869644,-1.00017144,-2.59415531,-11.51806906,31.08734776,-0.601836209,-0.0368196118,1.0061341025,-0.2221617437,0.486339406,-0.0902031171999999,0.00375
08:28:33,-1.193010255,0.190332475,0.07176314,-0.07661977,0.5130427200000001,-0.04847272,-1.00008372,-2.592245655,-11.51953253,31.10875838,-0.6022094044999999,-0.0377646859,1.00808530125,-0.22209459685,0.486009653,-0.0900971436,0.00375
08:28:34,-1.194908,0.190067,0.072568,-0.076705,0.512819,-0.048249,-0.999996,-2.590336,-11.520996,31.130169,-0.6025826,-0.03870976,1.0100365,-0.22202745,0.4856799,-0.08999117,0.00375
08:28:34,-1.18374155,0.18601287,0.0678966699999999,-0.07680621,0.509622955,-0.04758848,-0.994452005,-2.59392994,-11.54013197,30.926484395,-0.6013654011999999,-0.0423750962,0.9981955565,-0.2208379248949999,0.482699279225,-0.0889694878,0.00375
08:28:34,-1.1725751,0.18195874,0.0632253399999999,-0.0769074199999999,0.5064269100000001,-0.04692796,-0.98890801,-2.59752388,-11.55926794,30.72279979,-0.6001482024,-0.0460404324,0.986354613,-0.2196483997899999,0.47971865845,-0.0879478056,0.00375
08:28:34,-1.16140865,0.17790461,0.05855401,-0.07700863,0.503230865,-0.04626744,-0.983364015,-2.60111782,-11.57840391,30.519115185,-0.5989310036,-0.0497057686,0.9745136695,-0.218458874685,0.476738037675,-0.0869261234,0.00375
08:28:34,-1.1502422,0.17385048,0.0538826799999999,-0.07710984,0.50003482,-0.04560692,-0.97782002,-2.6047117600000003,-11.59753988,30.31543058,-0.5977138047999999,-0.0533711048,0.962672726,-0.21726934958,0.4737574169,-0.0859044412,0.00375
08:28:34,-1.1390757500000002,0.16979635,0.0492113499999999,-0.0772110499999999,0.496838775,-0.0449464,-0.972276025,-2.6083057000000003,-11.61667585,30.111745975,-0.596496606,-0.057036441,0.9508317825,-0.216079824475,0.470776796125,-0.084882759,0.00375
08:28:34,-1.1279093,0.16574222,0.04454002,-0.07731226,0.49364273,-0.04428588,-0.96673203,-2.6118996400000003,-11.63581182,29.90806137,-0.5952794071999999,-0.0607017772,0.938990839,-0.2148902993699999,0.46779617535,-0.0838610767999999,0.00375
08:28:34,-1.11674285,0.16168809,0.03986869,-0.07741347,0.490446685,-0.04362536,-0.961188035,-2.6154935800000003,-11.65494779,29.704376765,-0.5940622084,-0.0643671134,0.9271498955,-0.2137007742649999,0.464815554575,-0.0828393945999999,0.00375
08:28:34,-1.1055764,0.15763396,0.03519736,-0.07751468,0.48725064,-0.04296484,-0.95564404,-2.6190875200000003,-11.67408376,29.50069216,-0.5928450096,-0.0680324496,0.915308952,-0.21251124916,0.4618349338,-0.0818177123999999,0.00375
08:28:34,-1.0944099500000002,0.15357983,0.0305260299999999,-0.0776158899999999,0.484054595,-0.04230432,-0.950100045,-2.6226814600000004,-11.69321973,29.297007555,-0.5916278107999999,-0.0716977858,0.9034680085,-0.211321724055,0.458854313025,-0.0807960302,0.00375
08:28:34,-1.0832435,0.1495257,0.0258546999999999,-0.0777171,0.48085855,-0.0416438,-0.94455605,-2.6262754000000004,-11.7123557,29.09332295,-0.590410612,-0.075363122,0.891627065,-0.21013219895,0.45587369225,-0.079774348,0.00375
08:28:34,-1.07207705,0.14547157,0.02118337,-0.07781831,0.477662505,-0.04098328,-0.939012055,-2.6298693400000004,-11.73149167,28.889638345,-0.5891934132,-0.0790284582,0.8797861215,-0.2089426738449999,0.452893071475,-0.0787526658,0.00375
08:28:34,-1.0609106,0.14141744,0.01651204,-0.0779195199999999,0.47446646,-0.04032276,-0.93346806,-2.6334632800000004,-11.75062764,28.68595374,-0.5879762143999999,-0.0826937943999999,0.867945178,-0.2077531487399999,0.4499124506999999,-0.0777309836,0.00375
08:28:34,-1.04974415,0.13736331,0.0118407099999999,-0.07802073,0.471270415,-0.03966224,-0.927924065,-2.63705722,-11.76976361,28.482269135,-0.5867590156,-0.0863591306,0.8561042345,-0.206563623635,0.446931829925,-0.0767093014,0.00375
08:28:34,-1.0385777,0.13330918,0.00716938,-0.07812194,0.46807437,-0.03900172,-0.92238007,-2.64065116,-11.78889958,28.27858453,-0.5855418168,-0.0900244668,0.844263291,-0.20537409853,0.4439512091499999,-0.0756876192,0.00375
08:28:34,-1.02741125,0.12925505,0.00249805,-0.0782231499999999,0.464878325,-0.0383412,-0.916836075,-2.6442451,-11.80803555,28.074899925,-0.584324618,-0.093689803,0.8324223475,-0.204184573425,0.4409705883749999,-0.074665937,0.00375
08:28:34,-1.0162448,0.12520092,-0.0021732799999999,-0.07832436,0.46168228,-0.03768068,-0.91129208,-2.64783904,-11.82717152,27.87121532,-0.5831074192,-0.0973551392,0.820581404,-0.2029950483199999,0.4379899676,-0.0736442548,0.00375
08:28:34,-1.00507835,0.12114679,-0.00684461,-0.07842557,0.458486235,-0.03702016,-0.905748085,-2.65143298,-11.84630749,27.667530715,-0.5818902203999999,-0.1010204754,0.8087404604999999,-0.201805523215,0.435009346825,-0.0726225725999999,0.00375
08:28:34,-0.9939119,0.11709266,-0.01151594,-0.0785267799999999,0.45529019,-0.03635964,-0.90020409,-2.65502692,-11.86544346,27.46384611,-0.5806730216,-0.1046858116,0.796899517,-0.20061599811,0.43202872605,-0.0716008903999999,0.00375
08:28:34,-0.98274545,0.11303853,-0.01618727,-0.07862799,0.452094145,-0.03569912,-0.894660095,-2.65862086,-11.88457943,27.260161505,-0.5794558228,-0.1083511477999999,0.7850585735,-0.199426473005,0.429048105275,-0.0705792082,0.00375
08:28:34,-0.971579,0.1089844,-0.0208586,-0.0787292,0.4488981,-0.0350386,-0.8891161,-2.6622148,-11.9037154,27.0564769,-0.5782386239999999,-0.112016484,0.77321763,-0.1982369479,0.4260674845,-0.069557526,0.00375
08:28:34,-0.96041255,0.10493027,-0.0255299299999999,-0.0788304099999999,0.445702055,-0.03437808,-0.8835721049999999,-2.66580874,-11.92285137,26.852792295,-0.5770214252,-0.1156818202,0.7613766865,-0.1970474227949999,0.423086863725,-0.0685358438,0.00375
08:28:34,-0.9492461,0.10087614,-0.0302012599999999,-0.07893162,0.44250601,-0.03371756,-0.87802811,-2.66940268,-11.94198734,26.64910769,-0.5758042264,-0.1193471564,0.749535743,-0.19585789769,0.42010624295,-0.0675141616,0.00375
08:28:34,-0.93807965,0.09682201,-0.0348725899999999,-0.07903283,0.439309965,-0.03305704,-0.872484115,-2.67299662,-11.96112331,26.445423085,-0.5745870276,-0.1230124926,0.7376947995,-0.194668372585,0.417125622175,-0.0664924794,0.00375
08:28:34,-0.9269132,0.09276788,-0.0395439199999999,-0.07913404,0.43611392,-0.03239652,-0.86694012,-2.67659056,-11.98025928,26.24173848,-0.5733698288,-0.1266778288,0.725853856,-0.19347884748,0.4141450014,-0.0654707972,0.00375
08:28:34,-0.91574675,0.08871375,-0.04421525,-0.07923525,0.432917875,-0.031736,-0.861396125,-2.6801845,-11.99939525,26.038053875,-0.5721526299999999,-0.130343165,0.7140129125,-0.192289322375,0.411164380625,-0.064449115,0.00375
08:28:34,-0.9045803,0.08465962,-0.04888658,-0.07933646,0.42972183,-0.03107548,-0.8558521299999999,-2.68377844,-12.01853122,25.83436927,-0.5709354312,-0.1340085012,0.7021719689999999,-0.1910997972699999,0.40818375985,-0.0634274327999999,0.00375
08:28:34,-0.8934138500000001,0.08060549,-0.0535579099999999,-0.07943767,0.426525785,-0.03041496,-0.850308135,-2.68737238,-12.03766719,25.630684665,-0.5697182324,-0.1376738374,0.6903310254999999,-0.189910272165,0.405203139075,-0.0624057506,0.00375
08:28:34,-0.8822474,0.07655136,-0.0582292399999999,-0.0795388799999999,0.42332974,-0.02975444,-0.84476414,-2.69096632,-12.05680316,25.42700006,-0.5685010335999999,-0.1413391736,0.6784900819999999,-0.18872074706,0.4022225183,-0.0613840684,0.00375
08:28:34,-0.8710809500000001,0.07249723,-0.0629005699999999,-0.07964009,0.420133695,-0.02909392,-0.839220145,-2.6945602600000003,-12.07593913,25.223315455,-0.5672838348,-0.1450045098,0.6666491385,-0.187531221955,0.399241897525,-0.0603623861999999,0.00375
08:28:34,-0.8599145,0.0684431,-0.0675718999999999,-0.0797413,0.41693765,-0.0284334,-0.83367615,-2.6981542000000003,-12.0950751,25.01963085,-0.566066636,-0.148669846,0.654808195,-0.18634169685,0.39626127675,-0.0593407039999999,0.00375
08:28:34,-0.84874805,0.06438897,-0.0722432299999999,-0.0798425099999999,0.413741605,-0.02777288,-0.828132155,-2.7017481400000003,-12.11421107,24.815946245,-0.5648494372,-0.1523351822,0.6429672515,-0.1851521717449999,0.393280655975,-0.0583190217999999,0.00375
08:28:34,-0.8375816,0.06033484,-0.0769145599999999,-0.07994372,0.41054556,-0.02711236,-0.82258816,-2.7053420800000003,-12.13334704,24.61226164,-0.5636322384,-0.1560005184,0.631126308,-0.18396264664,0.3903000352,-0.0572973396,0.00375
08:28:34,-0.8264151500000001,0.05628071,-0.08158589,-0.08004493,0.407349515,-0.02645184,-0.817044165,-2.7089360200000003,-12.15248301,24.408577035,-0.5624150395999999,-0.1596658546,0.6192853645,-0.182773121535,0.387319414425,-0.0562756574,0.00375
08:28:34,-0.8152487,0.05222658,-0.08625722,-0.0801461399999999,0.40415347,-0.02579132,-0.81150017,-2.7125299600000004,-12.17161898,24.20489243,-0.5611978408,-0.1633311908,0.607444421,-0.18158359643,0.38433879365,-0.0552539752,0.00375
08:28:34,-0.80408225,0.04817245,-0.09092855,-0.08024735,0.400957425,-0.0251308,-0.8059561749999999,-2.7161239000000004,-12.19075495,24.001207825,-0.559980642,-0.166996527,0.5956034775,-0.180394071325,0.381358172875,-0.0542322929999999,0.00375
08:28:34,-0.7929158000000001,0.04411832,-0.09559988,-0.08034856,0.39776138,-0.02447028,-0.8004121799999999,-2.7197178400000004,-12.20989092,23.79752322,-0.5587634431999999,-0.1706618632,0.5837625339999999,-0.1792045462199999,0.3783775521,-0.0532106107999999,0.00375
08:28:34,-0.78174935,0.04006419,-0.10027121,-0.08044977,0.394565335,-0.02380976,-0.794868185,-2.7233117800000004,-12.22902689,23.593838615,-0.5575462444,-0.1743271994,0.5719215904999999,-0.178015021115,0.3753969313249999,-0.0521889286,0.00375
08:28:34,-0.7705829,0.03601006,-0.10494254,-0.08055098,0.39136929,-0.02314924,-0.78932419,-2.7269057200000004,-12.24816286,23.39015401,-0.5563290456,-0.1779925356,0.5600806469999999,-0.17682549601,0.37241631055,-0.0511672464,0.00375
08:28:34,-0.75941645,0.03195593,-0.10961387,-0.08065219,0.388173245,-0.02248872,-0.783780195,-2.73049966,-12.26729883,23.186469405,-0.5551118468,-0.1816578718,0.5482397035,-0.175635970905,0.3694356897749999,-0.0501455642,0.00375
08:28:34,-0.7482500000000001,0.0279018,-0.1142852,-0.0807534,0.3849772,-0.0218282,-0.7782362,-2.7340936,-12.2864348,22.9827848,-0.553894648,-0.185323208,0.53639876,-0.1744464458,0.366455069,-0.0491238819999999,0.00375
08:28:34,-0.73708355,0.02384767,-0.1189565299999999,-0.08085461,0.381781155,-0.02116768,-0.772692205,-2.73768754,-12.30557077,22.779100195,-0.5526774492,-0.1889885442,0.5245578165,-0.1732569206949999,0.3634744482249999,-0.0481021997999999,0.00375
08:28:34,-0.7259171,0.01979354,-0.1236278599999999,-0.08095582,0.37858511,-0.02050716,-0.76714821,-2.74128148,-12.32470674,22.57541559,-0.5514602504,-0.1926538804,0.512716873,-0.17206739559,0.36049382745,-0.0470805175999999,0.00375
08:28:34,-0.71475065,0.01573941,-0.1282991899999999,-0.08105703,0.375389065,-0.01984664,-0.761604215,-2.74487542,-12.34384271,22.371730985,-0.5502430516,-0.1963192166,0.5008759294999999,-0.170877870485,0.357513206675,-0.0460588354,0.00375
08:28:34,-0.7035842,0.01168528,-0.1329705199999999,-0.0811582399999999,0.37219302,-0.01918612,-0.75606022,-2.74846936,-12.36297868,22.16804638,-0.5490258527999999,-0.1999845528,0.4890349859999999,-0.16968834538,0.3545325859,-0.0450371532,0.00375
08:28:34,-0.69241775,0.00763115,-0.1376418499999999,-0.08125945,0.368996975,-0.0185256,-0.7505162249999999,-2.7520633,-12.38211465,21.964361775,-0.547808654,-0.203649889,0.4771940424999999,-0.168498820275,0.351551965125,-0.044015471,0.00375
08:28:34,-0.6812513,0.00357702,-0.1423131799999999,-0.08136066,0.36580093,-0.01786508,-0.7449722299999999,-2.75565724,-12.40125062,21.76067717,-0.5465914552,-0.2073152252,0.465353099,-0.1673092951699999,0.34857134435,-0.0429937887999999,0.00375
08:28:34,-0.6700848500000001,-0.0004771099999999,-0.1469845099999999,-0.0814618699999999,0.362604885,-0.01720456,-0.739428235,-2.75925118,-12.42038659,21.556992565,-0.5453742564,-0.2109805614,0.4535121554999999,-0.166119770065,0.345590723575,-0.0419721065999999,0.00375
08:28:34,-0.6589184,-0.0045312399999999,-0.15165584,-0.08156308,0.35940884,-0.01654404,-0.73388424,-2.76284512,-12.43952256,21.35330796,-0.5441570576,-0.2146458976,0.4416712119999999,-0.16493024496,0.3426101028,-0.0409504244,0.00375
08:28:34,-0.64775195,-0.0085853699999999,-0.15632717,-0.08166429,0.356212795,-0.01588352,-0.728340245,-2.76643906,-12.45865853,21.149623355000003,-0.5429398588,-0.2183112338,0.4298302684999999,-0.163740719855,0.339629482025,-0.0399287422,0.00375
08:28:34,-0.6365855,-0.0126394999999999,-0.1609985,-0.0817654999999999,0.35301675,-0.015223,-0.72279625,-2.770033,-12.4777945,20.94593875,-0.54172266,-0.22197657,0.4179893249999999,-0.16255119475,0.33664886125,-0.03890706,0.00375
08:28:34,-0.62541905,-0.0166936299999999,-0.16566983,-0.08186671,0.349820705,-0.01456248,-0.717252255,-2.77362694,-12.49693047,20.742254145,-0.5405054612,-0.2256419062,0.4061483815,-0.1613616696449999,0.333668240475,-0.0378853777999999,0.00375
08:28:34,-0.6142526,-0.0207477599999999,-0.17034116,-0.08196792,0.34662466,-0.01390196,-0.71170826,-2.77722088,-12.51606644,20.53856954,-0.5392882623999999,-0.2293072424,0.3943074379999999,-0.16017214454,0.3306876197,-0.0368636955999999,0.00375
08:28:34,-0.60308615,-0.0248018899999999,-0.17501249,-0.08206913,0.343428615,-0.01324144,-0.706164265,-2.78081482,-12.53520241,20.334884935,-0.5380710636,-0.2329725786,0.3824664944999999,-0.158982619435,0.327706998925,-0.0358420134,0.00375
08:28:34,-0.5919197,-0.0288560199999999,-0.1796838199999999,-0.08217034,0.34023257,-0.01258092,-0.7006202699999999,-2.7844087600000003,-12.55433838,20.13120033,-0.5368538648,-0.2366379148,0.3706255509999999,-0.15779309433,0.32472637815,-0.0348203312,0.00375
08:28:34,-0.58075325,-0.0329101499999999,-0.18435515,-0.08227155,0.337036525,-0.0119204,-0.6950762749999999,-2.7880027000000003,-12.57347435,19.927515725,-0.535636666,-0.240303251,0.3587846074999999,-0.156603569225,0.321745757375,-0.033798649,0.00375
08:28:34,-0.5695868,-0.0369642799999999,-0.1890264799999999,-0.08237276,0.33384048,-0.01125988,-0.68953228,-2.7915966400000003,-12.59261032,19.72383112,-0.5344194672,-0.2439685872,0.346943664,-0.1554140441199999,0.3187651366,-0.0327769668,0.00375
08:28:34,-0.55842035,-0.0410184099999999,-0.19369781,-0.08247397,0.330644435,-0.01059936,-0.683988285,-2.7951905800000003,-12.61174629,19.520146515,-0.5332022684,-0.2476339234,0.3351027204999999,-0.154224519015,0.315784515825,-0.0317552845999999,0.00375
08:28:34,-0.5472539,-0.0450725399999999,-0.1983691399999999,-0.08257518,0.32744839,-0.00993884,-0.67844429,-2.7987845200000003,-12.63088226,19.31646191,-0.5319850696,-0.2512992596,0.3232617769999999,-0.15303499391,0.3128038950499999,-0.0307336023999999,0.00375
08:28:34,-0.53608745,-0.0491266699999999,-0.20304047,-0.08267639,0.324252345,-0.00927832,-0.672900295,-2.8023784600000003,-12.65001823,19.112777305,-0.5307678708,-0.2549645957999999,0.3114208334999999,-0.151845468805,0.309823274275,-0.0297119202,0.00375
08:28:34,-0.524921,-0.0531807999999999,-0.2077117999999999,-0.0827775999999999,0.3210563,-0.0086178,-0.6673563,-2.8059724000000004,-12.6691542,18.9090927,-0.529550672,-0.258629932,0.2995798899999999,-0.1506559437,0.3068426534999999,-0.028690238,0.00375
08:28:34,-0.51375455,-0.0572349299999999,-0.21238313,-0.08287881,0.317860255,-0.00795728,-0.661812305,-2.8095663400000004,-12.68829017,18.705408095000003,-0.5283334732,-0.2622952682,0.2877389465,-0.1494664185949999,0.303862032725,-0.0276685558,0.00375
08:28:34,-0.5025881,-0.0612890599999999,-0.2170544599999999,-0.08298002,0.31466421,-0.00729676,-0.65626831,-2.81316028,-12.70742614,18.501723490000003,-0.5271162744,-0.2659606044,0.2758980029999999,-0.14827689349,0.3008814119499999,-0.0266468735999999,0.00375
08:28:34,-0.49142165,-0.0653431899999999,-0.22172579,-0.08308123,0.311468165,-0.00663624,-0.6507243149999999,-2.81675422,-12.72656211,18.298038885,-0.5258990755999999,-0.2696259406,0.2640570594999999,-0.147087368385,0.297900791175,-0.0256251913999999,0.00375
08:28:34,-0.4802552,-0.0693973199999999,-0.2263971199999999,-0.08318244,0.30827212,-0.00597572,-0.6451803199999999,-2.82034816,-12.74569808,18.09435428,-0.5246818768,-0.2732912768,0.2522161159999999,-0.14589784328,0.2949201703999999,-0.0246035092,0.00375
08:28:34,-0.4690887499999999,-0.0734514499999999,-0.2310684499999999,-0.08328365,0.305076075,-0.0053152,-0.6396363249999999,-2.8239421,-12.76483405,17.890669675,-0.523464678,-0.276956613,0.2403751724999999,-0.144708318175,0.291939549625,-0.023581827,0.00375
08:28:34,-0.4579223,-0.0775055799999999,-0.2357397799999999,-0.08338486,0.30188003,-0.00465468,-0.63409233,-2.82753604,-12.78397002,17.68698507,-0.5222474792,-0.2806219492,0.2285342289999999,-0.1435187930699999,0.2889589288499999,-0.0225601448,0.00375
08:28:34,-0.4467558499999999,-0.0815597099999999,-0.2404111099999999,-0.08348607,0.298683985,-0.00399416,-0.628548335,-2.83112998,-12.80310599,17.483300465,-0.5210302804,-0.2842872854,0.2166932854999999,-0.142329267965,0.285978308075,-0.0215384626,0.00375
08:28:34,-0.4355894,-0.0856138399999999,-0.2450824399999999,-0.08358728,0.29548794,-0.00333364,-0.62300434,-2.83472392,-12.82224196,17.27961586,-0.5198130816,-0.2879526216,0.2048523419999999,-0.14113974286,0.2829976872999999,-0.0205167804,0.00375
08:28:34,-0.4244229499999999,-0.0896679699999999,-0.2497537699999999,-0.08368849,0.2922918949999999,-0.00267312,-0.617460345,-2.83831786,-12.84137793,17.075931255,-0.5185958828,-0.2916179578,0.1930113984999999,-0.139950217755,0.280017066525,-0.0194950982,0.00375
08:28:34,-0.4132565,-0.0937220999999999,-0.2544250999999999,-0.0837897,0.28909585,-0.0020126,-0.61191635,-2.8419118,-12.8605139,16.87224665,-0.517378684,-0.295283294,0.1811704549999999,-0.13876069265,0.2770364457499999,-0.0184734159999999,0.00375
08:28:34,-0.40209005,-0.0977762299999999,-0.2590964299999999,-0.08389091,0.285899805,-0.00135208,-0.606372355,-2.84550574,-12.87964987,16.668562045,-0.5161614852,-0.2989486302,0.1693295114999999,-0.1375711675449999,0.274055824975,-0.0174517337999999,0.00375
08:28:34,-0.3909236,-0.1018303599999999,-0.26376776,-0.08399212,0.2827037599999999,-0.00069156,-0.60082836,-2.84909968,-12.89878584,16.464877440000002,-0.5149442864,-0.3026139664,0.1574885679999998,-0.13638164244,0.2710752042,-0.0164300515999999,0.00375
08:28:34,-0.37975715,-0.1058844899999999,-0.26843909,-0.08409333,0.279507715,-3.104000000000301e-05,-0.5952843649999999,-2.85269362,-12.91792181,16.261192835000003,-0.5137270876,-0.3062793025999999,0.1456476244999999,-0.135192117335,0.268094583425,-0.0154083693999999,0.00375
08:28:34,-0.3685906999999999,-0.1099386199999999,-0.2731104199999999,-0.08419454,0.27631167,0.0006294799999999,-0.5897403699999999,-2.85628756,-12.93705778,16.057508230000003,-0.5125098888,-0.3099446388,0.1338066809999999,-0.13400259223,0.26511396265,-0.0143866871999999,0.00375
08:28:34,-0.35742425,-0.1139927499999999,-0.2777817499999999,-0.08429575,0.273115625,0.0012899999999999,-0.584196375,-2.8598815,-12.95619375,15.853823625000002,-0.51129269,-0.313609975,0.1219657374999999,-0.132813067125,0.262133341875,-0.013365005,0.00375
08:28:34,-0.3462577999999999,-0.1180468799999999,-0.28245308,-0.08439696,0.26991958,0.0019505199999999,-0.57865238,-2.86347544,-12.97532972,15.65013902,-0.5100754912,-0.3172753111999999,0.1101247939999999,-0.1316235420199999,0.2591527211,-0.0123433228,0.00375
08:28:34,-0.33509135,-0.1221010099999999,-0.28712441,-0.08449817,0.266723535,0.0026110399999999,-0.5731083849999999,-2.86706938,-12.99446569,15.446454415000002,-0.5088582924,-0.3209406474,0.0982838504999998,-0.130434016915,0.256172100325,-0.0113216406,0.00375
08:28:34,-0.3239248999999999,-0.1261551399999999,-0.2917957399999999,-0.08459938,0.26352749,0.0032715599999999,-0.56756439,-2.87066332,-13.01360166,15.242769810000002,-0.5076410936,-0.3246059836,0.0864429069999999,-0.12924449181,0.25319147955,-0.0102999584,0.00375
08:28:34,-0.31275845,-0.1302092699999999,-0.2964670699999999,-0.0847005899999999,0.260331445,0.0039320799999999,-0.562020395,-2.8742572600000003,-13.03273763,15.039085205000005,-0.5064238947999999,-0.3282713197999999,0.0746019634999999,-0.128054966705,0.250210858775,-0.0092782762,0.00375
08:28:34,-0.3015919999999999,-0.1342633999999999,-0.3011384,-0.0848018,0.2571354,0.0045925999999999,-0.5564764,-2.8778512000000003,-13.0518736,14.835400600000003,-0.505206696,-0.331936656,0.0627610199999999,-0.1268654416,0.247230238,-0.0082565939999999,0.00375
08:28:34,-0.2904255499999999,-0.1383175299999999,-0.30580973,-0.08490301,0.253939355,0.0052531199999999,-0.550932405,-2.8814451400000003,-13.07100957,14.631715995,-0.5039894972,-0.3356019922,0.0509200764999999,-0.1256759164949999,0.244249617225,-0.0072349117999999,0.00375
08:28:34,-0.2792591,-0.1423716599999999,-0.31048106,-0.08500422,0.25074331,0.0059136399999999,-0.5453884099999999,-2.8850390800000003,-13.09014554,14.42803139,-0.5027722984,-0.3392673283999999,0.0390791329999998,-0.1244863913899999,0.24126899645,-0.0062132295999999,0.00375
08:28:34,-0.2680926499999999,-0.1464257899999999,-0.3151523899999999,-0.08510543,0.247547265,0.0065741599999999,-0.5398444149999999,-2.8886330200000003,-13.10928151,14.224346785000002,-0.5015550996,-0.3429326646,0.0272381894999999,-0.123296866285,0.238288375675,-0.0051915473999999,0.00375
08:28:34,-0.2569262,-0.1504799199999999,-0.3198237199999999,-0.08520664,0.2443512199999999,0.0072346799999999,-0.5343004199999999,-2.8922269600000003,-13.12841748,14.020662180000002,-0.5003379008,-0.3465980008,0.0153972459999999,-0.12210734118,0.2353077549,-0.0041698651999999,0.00375
08:28:34,-0.2457597499999999,-0.1545340499999999,-0.32449505,-0.08530785,0.241155175,0.0078951999999999,-0.528756425,-2.8958209000000004,-13.14755345,13.816977575000005,-0.499120702,-0.350263337,0.0035563024999998,-0.120917816075,0.232327134125,-0.0031481829999999,0.00375
08:28:34,-0.2345933,-0.1585881799999999,-0.32916638,-0.08540906,0.23795913,0.0085557199999999,-0.52321243,-2.8994148400000004,-13.16668942,13.613292970000003,-0.4979035032,-0.3539286732,-0.0082846410000001,-0.11972829097,0.22934651335,-0.0021265008,0.00375
08:28:34,-0.2234268499999999,-0.1626423099999999,-0.3338377099999999,-0.08551027,0.2347630849999999,0.0092162399999999,-0.517668435,-2.9030087800000004,-13.18582539,13.409608365,-0.4966863044,-0.3575940093999999,-0.0201255845000001,-0.1185387658649999,0.226365892575,-0.0011048186,0.00375
08:28:34,-0.2122603999999999,-0.1666964399999999,-0.3385090399999999,-0.08561148,0.23156704,0.0098767599999999,-0.51212444,-2.9066027200000004,-13.20496136,13.20592376,-0.4954691056,-0.3612593456,-0.0319665280000001,-0.11734924076,0.2233852718,-8.313640000000289e-05,0.00375
08:28:34,-0.2010939499999999,-0.1707505699999999,-0.34318037,-0.08571269,0.228370995,0.0105372799999999,-0.506580445,-2.91019666,-13.22409733,13.002239155000002,-0.4942519068,-0.3649246818,-0.0438074715,-0.116159715655,0.220404651025,0.0009385457999999,0.00375
08:28:34,-0.1899275,-0.1748046999999999,-0.3478517,-0.0858139,0.2251749499999999,0.0111977999999999,-0.50103645,-2.9137906,-13.2432333,12.798554550000002,-0.493034708,-0.3685900179999999,-0.055648415,-0.11497019055,0.2174240302499999,0.0019602279999999,0.00375
08:28:34,-0.1787610499999998,-0.1788588299999999,-0.3525230299999999,-0.08591511,0.221978905,0.0118583199999999,-0.4954924549999999,-2.91738454,-13.26236927,12.594869945000005,-0.4918175092,-0.3722553542,-0.0674893585,-0.113780665445,0.2144434094749999,0.0029819102,0.00375
08:28:34,-0.1675945999999999,-0.1829129599999999,-0.3571943599999999,-0.08601632,0.21878286,0.0125188399999999,-0.4899484599999999,-2.92097848,-13.28150524,12.391185340000003,-0.4906003104,-0.3759206904,-0.079330302,-0.1125911403399999,0.2114627886999999,0.0040035924,0.00375
08:28:34,-0.15642815,-0.1869670899999999,-0.36186569,-0.08611753,0.215586815,0.0131793599999999,-0.484404465,-2.92457242,-13.30064121,12.187500735,-0.4893831116,-0.3795860265999999,-0.0911712455,-0.111401615235,0.2084821679249999,0.0050252746,0.00375
08:28:34,-0.1452617,-0.1910212199999999,-0.36653702,-0.08621874,0.21239077,0.0138398799999999,-0.47886047,-2.92816636,-13.31977718,11.98381613,-0.4881659128,-0.3832513628,-0.1030121890000002,-0.11021209013,0.2055015471499999,0.0060469568,0.00375
08:28:34,-0.1340952499999999,-0.1950753499999999,-0.3712083499999999,-0.08631995,0.209194725,0.0145003999999999,-0.4733164749999999,-2.9317603,-13.33891315,11.780131525000002,-0.486948714,-0.386916699,-0.1148531325000001,-0.109022565025,0.2025209263749999,0.007068639,0.00375
08:28:34,-0.1229287999999999,-0.1991294799999999,-0.3758796799999999,-0.08642116,0.20599868,0.0151609199999999,-0.4677724799999999,-2.93535424,-13.35804912,11.576446920000002,-0.4857315152,-0.3905820351999999,-0.1266940760000001,-0.10783303992,0.1995403055999999,0.0080903212,0.00375
08:28:34,-0.11176235,-0.2031836099999999,-0.3805510099999999,-0.08652237,0.202802635,0.0158214399999999,-0.4622284849999999,-2.93894818,-13.37718509,11.372762315000005,-0.4845143164,-0.3942473714,-0.1385350195000001,-0.1066435148149999,0.1965596848249999,0.0091120033999999,0.00375
08:28:34,-0.1005958999999998,-0.2072377399999999,-0.38522234,-0.08662358,0.19960659,0.0164819599999999,-0.45668449,-2.94254212,-13.39632106,11.169077710000003,-0.4832971176,-0.3979127075999999,-0.1503759630000001,-0.10545398971,0.1935790640499999,0.0101336855999999,0.00375
08:28:34,-0.0894294499999999,-0.2112918699999999,-0.3898936699999999,-0.08672479,0.196410545,0.0171424799999999,-0.451140495,-2.94613606,-13.41545703,10.965393105000004,-0.4820799188,-0.4015780438,-0.1622169065000001,-0.104264464605,0.1905984432749999,0.0111553677999999,0.00375
08:28:34,-0.0782629999999999,-0.2153459999999999,-0.3945649999999999,-0.086826,0.1932145,0.017803,-0.4455964999999999,-2.94973,-13.434593,10.7617085,-0.4808627199999999,-0.40524338,-0.17405785,-0.1030749395,0.1876178224999999,0.0121770499999999,0.00375
08:28:34,-0.06709655,-0.2194001299999999,-0.3992363299999999,-0.08692721,0.1900184549999999,0.0184635199999999,-0.4400525049999999,-2.95332394,-13.45372897,10.558023895000002,-0.4796455212,-0.4089087161999999,-0.1858987935,-0.101885414395,0.1846372017249999,0.0131987321999999,0.00375
08:28:34,-0.0559300999999998,-0.2234542599999999,-0.40390766,-0.08702842,0.18682241,0.0191240399999999,-0.43450851,-2.95691788,-13.47286494,10.354339290000002,-0.4784283224,-0.4125740524,-0.197739737,-0.1006958892899999,0.1816565809499999,0.0142204144,0.00375
08:28:34,-0.0447636499999999,-0.2275083899999999,-0.40857899,-0.08712963,0.183626365,0.0197845599999999,-0.428964515,-2.96051182,-13.49200091,10.150654685000005,-0.4772111236,-0.4162393886,-0.2095806805,-0.099506364185,0.1786759601749999,0.0152420966,0.00375
08:28:34,-0.0335971999999999,-0.2315625199999999,-0.4132503199999999,-0.08723084,0.1804303199999999,0.0204450799999999,-0.4234205199999999,-2.9641057600000003,-13.51113688,9.946970080000003,-0.4759939248,-0.4199047247999999,-0.2214216240000002,-0.09831683908,0.1756953393999999,0.0162637788,0.00375
08:28:34,-0.0224307499999998,-0.2356166499999999,-0.4179216499999999,-0.08733205,0.177234275,0.0211055999999999,-0.4178765249999999,-2.9676997000000003,-13.53027285,9.743285475000004,-0.474776726,-0.423570061,-0.2332625675000001,-0.097127313975,0.1727147186249999,0.017285461,0.00375
08:28:34,-0.0112642999999998,-0.2396707799999999,-0.42259298,-0.08743326,0.17403823,0.02176612,-0.4123325299999999,-2.9712936400000003,-13.54940882,9.53960087,-0.4735595272,-0.4272353972,-0.2451035110000001,-0.09593778887,0.16973409785,0.0183071432,0.00375
08:28:34,-9.784999999995492e-05,-0.2437249099999999,-0.42726431,-0.08753447,0.1708421849999999,0.0224266399999999,-0.406788535,-2.9748875800000003,-13.56854479,9.335916265000002,-0.4723423284,-0.4309007333999999,-0.2569444545000001,-0.094748263765,0.166753477075,0.0193288254,0.00375
08:28:34,0.0110685999999999,-0.2477790399999999,-0.4319356399999999,-0.08763568,0.16764614,0.0230871599999999,-0.40124454,-2.9784815200000003,-13.58768076,9.132231660000002,-0.4711251295999999,-0.4345660696,-0.2687853980000001,-0.09355873866,0.1637728563,0.0203505075999999,0.00375
08:28:34,0.0222350500000001,-0.2518331699999999,-0.43660697,-0.08773689,0.164450095,0.0237476799999999,-0.3957005449999999,-2.9820754600000003,-13.60681673,8.928547055000003,-0.4699079308,-0.4382314058,-0.2806263415000001,-0.092369213555,0.160792235525,0.0213721897999999,0.00375
08:28:34,0.0334015,-0.2558872999999999,-0.4412783,-0.0878381,0.1612540499999999,0.0244081999999999,-0.3901565499999999,-2.9856694000000004,-13.6259527,8.724862450000003,-0.468690732,-0.441896742,-0.2924672850000001,-0.0911796884499999,0.15781161475,0.0223938719999999,0.00375
08:28:34,0.04456795,-0.2599414299999999,-0.44594963,-0.08793931,0.158058005,0.0250687199999999,-0.3846125549999999,-2.98926334,-13.64508867,8.521177845000004,-0.4674735332,-0.4455620782,-0.3043082285,-0.089990163345,0.154830993975,0.0234155541999999,0.00375
08:28:34,0.0557344000000001,-0.2639955599999999,-0.4506209599999999,-0.08804052,0.15486196,0.02572924,-0.37906856,-2.99285728,-13.66422464,8.317493240000001,-0.4662563344,-0.4492274143999999,-0.316149172,-0.08880063824,0.1518503732,0.0244372363999999,0.00375
08:28:34,0.0669008500000001,-0.2680496899999999,-0.4552922899999999,-0.08814173,0.1516659149999999,0.0263897599999999,-0.373524565,-2.99645122,-13.68336061,8.113808635000002,-0.4650391356,-0.4528927506,-0.3279901155,-0.087611113135,0.148869752425,0.0254589186,0.00375
08:28:34,0.0780673,-0.2721038199999999,-0.45996362,-0.08824294,0.14846987,0.0270502799999999,-0.3679805699999999,-3.00004516,-13.70249658,7.910124030000002,-0.4638219368,-0.4565580868,-0.3398310590000002,-0.08642158803,0.14588913165,0.0264806008,0.00375
08:28:34,0.08923375,-0.27615795,-0.46463495,-0.08834415,0.145273825,0.0277107999999999,-0.3624365749999999,-3.0036391,-13.72163255,7.706439425000003,-0.462604738,-0.4602234229999999,-0.3516720025000002,-0.0852320629249999,0.142908510875,0.027502283,0.00375
08:28:34,0.1004002000000001,-0.28021208,-0.4693062799999999,-0.08844536,0.14207778,0.0283713199999999,-0.3568925799999999,-3.00723304,-13.74076852,7.502754820000003,-0.4613875392,-0.4638887592,-0.3635129460000001,-0.08404253782,0.1399278900999999,0.0285239652,0.00375
08:28:34,0.1115666500000001,-0.2842662099999999,-0.4739776099999999,-0.08854657,0.138881735,0.0290318399999999,-0.351348585,-3.01082698,-13.75990449,7.299070215000004,-0.4601703404,-0.4675540954,-0.3753538895000001,-0.082853012715,0.1369472693249999,0.0295456474,0.00375
08:28:34,0.1227331,-0.2883203399999999,-0.47864894,-0.08864778,0.13568569,0.0296923599999999,-0.3458045899999999,-3.01442092,-13.77904046,7.095385610000005,-0.4589531416,-0.4712194315999999,-0.3871948330000001,-0.08166348761,0.1339666485499999,0.0305673296,0.00375
08:28:34,0.1338995499999999,-0.2923744699999999,-0.48332027,-0.08874899,0.132489645,0.03035288,-0.3402605949999999,-3.01801486,-13.798176430000002,6.891701005000002,-0.4577359428,-0.4748847678,-0.3990357765000001,-0.080473962505,0.1309860277749999,0.0315890118,0.00375
08:28:34,0.1450660000000001,-0.2964285999999999,-0.4879915999999999,-0.0888502,0.1292936,0.0310133999999999,-0.3347165999999999,-3.0216088,-13.8173124,6.688016400000002,-0.456518744,-0.478550104,-0.4108767200000001,-0.0792844373999999,0.1280054069999999,0.0326106939999999,0.00375
08:28:34,0.15623245,-0.3004827299999999,-0.4926629299999999,-0.08895141,0.1260975549999999,0.0316739199999999,-0.329172605,-3.02520274,-13.83644837,6.484331795000003,-0.4553015452,-0.4822154401999999,-0.4227176635,-0.078094912295,0.1250247862249999,0.0336323761999999,0.00375
08:28:34,0.1673989,-0.3045368599999999,-0.49733426,-0.08905262,0.1229015099999999,0.0323344399999999,-0.32362861,-3.02879668,-13.85558434,6.280647190000003,-0.4540843464,-0.4858807764,-0.434558607,-0.07690538719,0.1220441654499999,0.0346540583999999,0.00375
08:28:34,0.1785653500000001,-0.3085909899999999,-0.50200559,-0.08915383,0.119705465,0.0329949599999999,-0.3180846149999999,-3.03239062,-13.87472031,6.076962585000004,-0.4528671476,-0.4895461125999999,-0.4463995505,-0.075715862085,0.1190635446749999,0.0356757405999999,0.00375
08:28:34,0.1897318000000001,-0.31264512,-0.50667692,-0.08925504,0.1165094199999999,0.0336554799999999,-0.3125406199999999,-3.03598456,-13.89385628,5.873277980000005,-0.4516499488,-0.4932114488,-0.4582404940000002,-0.07452633698,0.1160829238999999,0.0366974228,0.00375
08:28:34,0.20089825,-0.31669925,-0.51134825,-0.08935625,0.113313375,0.034316,-0.3069966249999999,-3.0395785,-13.91299225,5.669593375000002,-0.45043275,-0.496876785,-0.4700814375000002,-0.0733368118749999,0.1131023031249999,0.0377191049999999,0.00375
08:28:34,0.2120647,-0.32075338,-0.51601958,-0.08945746,0.11011733,0.03497652,-0.30145263,-3.04317244,-13.93212822,5.465908770000002,-0.4492155512,-0.5005421212,-0.4819223810000002,-0.07214728677,0.1101216823499999,0.0387407872,0.00375
08:28:34,0.2232311500000001,-0.3248075099999999,-0.52069091,-0.08955867,0.1069212849999999,0.0356370399999999,-0.295908635,-3.04676638,-13.95126419,5.262224165000003,-0.4479983524,-0.5042074574000001,-0.4937633245000001,-0.070957761665,0.1071410615749999,0.0397624693999999,0.00375
08:28:34,0.2343976000000001,-0.3288616399999999,-0.52536224,-0.08965988,0.10372524,0.0362975599999999,-0.2903646399999999,-3.05036032,-13.97040016,5.058539560000003,-0.4467811536,-0.5078727936,-0.5056042680000001,-0.06976823656,0.1041604407999999,0.0407841516,0.00375
08:28:34,0.24556405,-0.3329157699999999,-0.53003357,-0.08976109,0.100529195,0.0369580799999999,-0.2848206449999999,-3.0539542600000003,-13.98953613,4.854854955000004,-0.4455639548,-0.5115381298,-0.5174452115000001,-0.068578711455,0.1011798200249999,0.0418058338,0.00375
08:28:34,0.2567305000000002,-0.3369698999999999,-0.5347048999999999,-0.0898623,0.0973331499999999,0.0376185999999999,-0.2792766499999999,-3.0575482000000003,-14.0086721,4.651170350000005,-0.444346756,-0.515203466,-0.5292861550000001,-0.0673891863499999,0.0981991992499999,0.0428275159999999,0.00375
08:28:34,0.2678969500000001,-0.3410240299999999,-0.53937623,-0.08996351,0.094137105,0.0382791199999999,-0.273732655,-3.0611421400000003,-14.02780807,4.447485745000005,-0.4431295572,-0.5188688022,-0.5411270985000001,-0.066199661245,0.0952185784749999,0.0438491982,0.00375
08:28:34,0.2790634000000001,-0.3450781599999999,-0.54404756,-0.09006472,0.09094106,0.03893964,-0.2681886599999999,-3.0647360800000003,-14.04694404,4.243801140000002,-0.4419123584,-0.5225341384,-0.552968042,-0.06501013614,0.0922379576999999,0.0448708803999999,0.00375
08:28:34,0.29022985,-0.3491322899999999,-0.54871889,-0.09016593,0.0877450149999999,0.0396001599999999,-0.2626446649999999,-3.0683300200000003,-14.06608001,4.040116535000003,-0.4406951596,-0.5261994746,-0.5648089855000002,-0.063820611035,0.0892573369249999,0.0458925626,0.00375
08:28:34,0.3013963000000002,-0.35318642,-0.5533902199999999,-0.09026714,0.08454897,0.0402606799999999,-0.2571006699999999,-3.0719239600000003,-14.08521598,3.8364319300000034,-0.4394779608,-0.5298648108,-0.5766499290000002,-0.06263108593,0.0862767161499999,0.0469142447999999,0.00375
08:28:34,0.3125627500000001,-0.35724055,-0.55806155,-0.09036835,0.081352925,0.0409211999999999,-0.2515566749999999,-3.0755179000000004,-14.104351950000002,3.632747325000004,-0.4382607619999999,-0.533530147,-0.5884908725000002,-0.0614415608249999,0.0832960953749999,0.047935927,0.00375
08:28:34,0.3237292,-0.36129468,-0.56273288,-0.09046956,0.0781568799999999,0.0415817199999999,-0.2460126799999999,-3.0791118400000004,-14.12348792,3.429062720000005,-0.4370435632,-0.5371954832,-0.6003318160000002,-0.06025203572,0.0803154745999999,0.0489576091999999,0.00375
08:28:34,0.3348956500000002,-0.3653488099999999,-0.56740421,-0.09057077,0.074960835,0.0422422399999999,-0.2404686849999999,-3.0827057800000004,-14.14262389,3.225378115000005,-0.4358263644,-0.5408608194000001,-0.6121727595000002,-0.059062510615,0.077334853825,0.0499792914,0.00375
08:28:34,0.3460621000000001,-0.3694029399999999,-0.5720755399999999,-0.09067198,0.0717647899999999,0.04290276,-0.2349246899999999,-3.0862997200000004,-14.16175986,3.021693510000002,-0.4346091656,-0.5445261556000001,-0.6240137030000001,-0.05787298551,0.07435423305,0.0510009735999999,0.00375
08:28:34,0.3572285500000001,-0.3734570699999999,-0.57674687,-0.09077319,0.0685687449999999,0.0435632799999999,-0.2293806949999999,-3.08989366,-14.18089583,2.818008905000003,-0.4333919668,-0.5481914918,-0.6358546465000001,-0.056683460405,0.071373612275,0.0520226558,0.00375
08:28:34,0.368395,-0.3775111999999999,-0.5814182,-0.0908744,0.0653727,0.0442237999999999,-0.2238367,-3.0934876000000004,-14.2000318,2.614324300000004,-0.432174768,-0.551856828,-0.6476955900000001,-0.0554939352999999,0.0683929915,0.053044338,0.00375
08:28:34,0.3795614500000002,-0.3815653299999999,-0.58608953,-0.09097561,0.0621766549999999,0.0448843199999999,-0.2182927049999999,-3.09708154,-14.21916777,2.410639695000004,-0.4309575692,-0.5555221642,-0.6595365335000001,-0.054304410195,0.0654123707249999,0.0540660201999999,0.00375
08:28:34,0.3907279000000001,-0.3856194599999999,-0.5907608599999999,-0.09107682,0.0589806099999999,0.0455448399999999,-0.2127487099999999,-3.10067548,-14.23830374,2.206955090000005,-0.4297403704,-0.5591875004000001,-0.6713774770000001,-0.05311488509,0.0624317499499999,0.0550877024,0.00375
08:28:34,0.40189435,-0.3896735899999999,-0.59543219,-0.09117803,0.055784565,0.0462053599999999,-0.2072047149999999,-3.10426942,-14.25743971,2.003270485000005,-0.4285231716,-0.5628528366000001,-0.6832184205000003,-0.051925359985,0.0594511291749999,0.0561093845999999,0.00375
08:28:34,0.4130608,-0.39372772,-0.60010352,-0.09127924,0.0525885199999999,0.0468658799999999,-0.2016607199999999,-3.10786336,-14.27657568,1.7995858800000055,-0.4273059728,-0.5665181728,-0.6950593640000002,-0.05073583488,0.0564705083999999,0.0571310668,0.00375
08:28:34,0.4242272500000001,-0.39778185,-0.60477485,-0.09138045,0.0493924749999999,0.0475263999999999,-0.196116725,-3.1114573,-14.29571165,1.5959012750000028,-0.426088774,-0.570183509,-0.7069003075000002,-0.0495463097749999,0.0534898876249999,0.0581527489999999,0.00375
08:28:34,0.4353937000000001,-0.40183598,-0.60944618,-0.09148166,0.04619643,0.0481869199999999,-0.1905727299999999,-3.11505124,-14.31484762,1.3922166700000034,-0.4248715752,-0.5738488452,-0.7187412510000002,-0.04835678467,0.0505092668499999,0.0591744312,0.00375
08:28:34,0.44656015,-0.4058901099999999,-0.6141175099999999,-0.09158287,0.0430003849999999,0.0488474399999999,-0.1850287349999999,-3.11864518,-14.33398359,1.188532065000004,-0.4236543764,-0.5775141814,-0.7305821945000002,-0.047167259565,0.0475286460749999,0.0601961133999999,0.00375
08:28:34,0.4577266000000002,-0.4099442399999999,-0.61878884,-0.09168408,0.0398043399999999,0.0495079599999999,-0.1794847399999999,-3.12223912,-14.35311956,0.9848474600000046,-0.4224371776,-0.5811795176000001,-0.7424231380000001,-0.04597773446,0.0445480252999999,0.0612177956,0.00375
08:28:34,0.4688930500000001,-0.4139983699999999,-0.62346017,-0.09178529,0.036608295,0.0501684799999999,-0.1739407449999999,-3.12583306,-14.37225553,0.7811628550000052,-0.4212199788,-0.5848448538000001,-0.7542640815000001,-0.044788209355,0.0415674045249999,0.0622394777999999,0.00375
08:28:34,0.4800595000000001,-0.4180524999999999,-0.6281315,-0.0918865,0.0334122499999999,0.0508289999999999,-0.1683967499999999,-3.129427,-14.3913915,0.5774782500000057,-0.42000278,-0.58851019,-0.7661050250000001,-0.0435986842499999,0.0385867837499999,0.06326116,0.00375
08:28:34,0.49122595,-0.4221066299999999,-0.6328028299999999,-0.09198771,0.0302162049999999,0.05148952,-0.1628527549999999,-3.13302094,-14.410527470000002,0.3737936450000028,-0.4187855812,-0.5921755262,-0.7779459685000001,-0.042409159145,0.0356061629749999,0.0642828422,0.00375
08:28:34,0.5023924000000002,-0.4261607599999999,-0.63747416,-0.09208892,0.02702016,0.0521500399999999,-0.1573087599999999,-3.13661488,-14.42966344,0.1701090400000033,-0.4175683824,-0.5958408624,-0.7897869120000001,-0.04121963404,0.0326255421999999,0.0653045244,0.00375
08:28:34,0.5135588500000001,-0.4302148899999999,-0.64214549,-0.09219013,0.0238241149999999,0.0528105599999999,-0.1517647649999999,-3.14020882,-14.44879941,-0.033575564999996,-0.4163511836,-0.5995061986,-0.8016278555000003,-0.040030108935,0.0296449214249999,0.0663262066,0.00375
08:28:34,0.5247253000000001,-0.4342690199999999,-0.64681682,-0.09229134,0.02062807,0.0534710799999999,-0.1462207699999999,-3.1438027600000003,-14.46793538,-0.2372601699999954,-0.4151339848,-0.6031715348000001,-0.8134687990000002,-0.03884058383,0.0266643006499999,0.0673478887999999,0.00375
08:28:34,0.5358917500000002,-0.43832315,-0.6514881499999999,-0.09239255,0.017432025,0.0541315999999999,-0.1406767749999999,-3.1473967000000003,-14.48707135,-0.4409447749999948,-0.413916786,-0.606836871,-0.8253097425000002,-0.0376510587249999,0.0236836798749999,0.068369571,0.00375
08:28:34,0.5470582000000002,-0.44237728,-0.65615948,-0.09249376,0.0142359799999999,0.0547921199999999,-0.1351327799999999,-3.1509906400000003,-14.50620732,-0.6446293799999943,-0.4126995872,-0.6105022072,-0.8371506860000002,-0.03646153362,0.0207030590999999,0.0693912531999999,0.00375
08:28:34,0.5582246500000001,-0.44643141,-0.66083081,-0.09259497,0.011039935,0.05545264,-0.1295887849999999,-3.1545845800000003,-14.52534329,-0.8483139849999972,-0.4114823884,-0.6141675434,-0.8489916295000002,-0.035272008515,0.0177224383249999,0.0704129354,0.00375
08:28:34,0.5693911,-0.4504855399999999,-0.66550214,-0.09269618,0.0078438899999999,0.0561131599999999,-0.1240447899999999,-3.1581785200000003,-14.54447926,-1.051998589999993,-0.4102651896,-0.6178328796,-0.8608325730000002,-0.03408248341,0.0147418175499999,0.0714346175999999,0.00375
08:28:34,0.5805575500000002,-0.4545396699999999,-0.6701734699999999,-0.09279739,0.004647845,0.0567736799999999,-0.1185007949999999,-3.1617724600000003,-14.56361523,-1.2556831949999925,-0.4090479908,-0.6214982158000001,-0.8726735165000001,-0.032892958305,0.0117611967749999,0.0724562998,0.00375
08:28:34,0.5917240000000001,-0.4585937999999999,-0.6748448,-0.0928986,0.0014518,0.0574341999999999,-0.1129567999999999,-3.1653664,-14.5827512,-1.459367799999992,-0.407830792,-0.6251635520000001,-0.8845144600000001,-0.0317034331999999,0.0087805759999999,0.073477982,0.00375
08:28:34,0.6028904500000001,-0.4626479299999999,-0.67951613,-0.09299981,-0.001744245,0.0580947199999999,-0.1074128049999999,-3.16896034,-14.60188717,-1.6630524049999984,-0.4066135932,-0.6288288882,-0.8963554035000001,-0.030513908095,0.0057999552249999,0.0744996642,0.00375
08:28:34,0.6140569000000002,-0.4667020599999999,-0.68418746,-0.09310102,-0.0049402899999999,0.0587552399999999,-0.1018688099999999,-3.17255428,-14.62102314,-1.8667370099999976,-0.4053963944,-0.6324942244,-0.908196347,-0.02932438299,0.0028193344499999,0.0755213464,0.00375
08:28:34,0.6252233500000002,-0.4707561899999999,-0.6888587899999999,-0.09320223,-0.0081363349999999,0.0594157599999999,-0.0963248149999999,-3.17614822,-14.64015911,-2.070421614999997,-0.4041791956,-0.6361595606,-0.9200372905000004,-0.028134857885,-0.000161286325,0.0765430286,0.00375
08:28:34,0.6363898000000001,-0.4748103199999999,-0.6935301199999999,-0.09330344,-0.01133238,0.0600762799999999,-0.0907808199999999,-3.17974216,-14.65929508,-2.2741062199999966,-0.4029619968,-0.6398248968,-0.9318782340000002,-0.0269453327799999,-0.0031419071,0.0775647108,0.00375
08:28:34,0.64755625,-0.4788644499999999,-0.69820145,-0.09340465,-0.014528425,0.0607367999999999,-0.0852368249999999,-3.1833361,-14.67843105,-2.477790824999996,-0.401744798,-0.6434902330000001,-0.9437191775000002,-0.025755807675,-0.006122527875,0.0785863929999999,0.00375
08:28:34,0.6587227000000002,-0.48291858,-0.70287278,-0.09350586,-0.0177244699999999,0.0613973199999999,-0.0796928299999999,-3.18693004,-14.69756702,-2.6814754299999954,-0.4005275992,-0.6471555692000001,-0.9555601210000002,-0.02456628257,-0.00910314865,0.0796080752,0.00375
08:28:34,0.6698891500000002,-0.48697271,-0.70754411,-0.09360707,-0.020920515,0.0620578399999999,-0.0741488349999999,-3.19052398,-14.716702990000002,-2.885160034999995,-0.3993104004,-0.6508209054,-0.9674010645000002,-0.023376757465,-0.012083769425,0.0806297573999999,0.00375
08:28:34,0.6810556000000001,-0.4910268399999999,-0.7122154399999999,-0.09370828,-0.02411656,0.0627183599999999,-0.0686048399999998,-3.19411792,-14.73583896,-3.0888446399999943,-0.3980932016,-0.6544862416,-0.9792420080000002,-0.02218723236,-0.0150643902,0.0816514396,0.00375
08:28:34,0.6922220500000003,-0.4950809699999999,-0.71688677,-0.09380949,-0.0273126049999999,0.0633788799999999,-0.0630608449999999,-3.19771186,-14.75497493,-3.2925292449999937,-0.3968760028,-0.6581515778,-0.9910829515,-0.0209977072549999,-0.018045010975,0.0826731217999999,0.00375
08:28:34,0.7033885000000002,-0.4991350999999999,-0.7215581,-0.0939107,-0.03050865,0.0640394,-0.0575168499999999,-3.2013058,-14.7741109,-3.496213849999993,-0.395658804,-0.6618169140000001,-1.0029238950000003,-0.01980818215,-0.0210256317499999,0.083694804,0.00375
08:28:34,0.7145549500000001,-0.5031892299999999,-0.72622943,-0.09401191,-0.033704695,0.06469992,-0.0519728549999999,-3.20489974,-14.79324687,-3.699898454999993,-0.3944416052,-0.6654822502000001,-1.0147648385,-0.018618657045,-0.024006252525,0.0847164862,0.00375
08:28:34,0.7257214000000001,-0.5072433599999999,-0.7309007599999999,-0.09411312,-0.0369007399999999,0.0653604399999999,-0.0464288599999999,-3.20849368,-14.81238284,-3.903583059999992,-0.3932244064,-0.6691475864,-1.0266057820000003,-0.01742913194,-0.0269868732999999,0.0857381684,0.00375
08:28:34,0.7368878500000002,-0.5112974899999999,-0.73557209,-0.09421433,-0.040096785,0.0660209599999999,-0.0408848649999998,-3.21208762,-14.83151881,-4.107267664999998,-0.3920072076,-0.6728129226,-1.0384467255,-0.016239606835,-0.029967494075,0.0867598506,0.00375
08:28:34,0.7480543000000002,-0.5153516199999999,-0.74024342,-0.09431554,-0.04329283,0.0666814799999999,-0.0353408699999999,-3.21568156,-14.85065478,-4.310952269999998,-0.3907900088,-0.6764782588,-1.0502876690000005,-0.0150500817299999,-0.0329481148499999,0.0877815327999999,0.00375
08:28:34,0.7592207500000001,-0.5194057499999999,-0.74491475,-0.09441675,-0.0464888749999999,0.0673419999999999,-0.0297968749999999,-3.2192755,-14.86979075,-4.514636874999997,-0.38957281,-0.680143595,-1.0621286125,-0.013860556625,-0.035928735625,0.088803215,0.00375
08:28:34,0.7703872000000003,-0.5234598799999999,-0.7495860799999999,-0.09451796,-0.04968492,0.06800252,-0.0242528799999999,-3.22286944,-14.88892672,-4.718321479999997,-0.3883556112,-0.6838089312000001,-1.0739695560000002,-0.01267103152,-0.0389093563999999,0.0898248971999999,0.00375
08:28:34,0.7815536500000002,-0.52751401,-0.7542574099999999,-0.09461917,-0.052880965,0.06866304,-0.0187088849999998,-3.22646338,-14.90806269,-4.922006084999996,-0.3871384124,-0.6874742674000001,-1.0858104995,-0.011481506415,-0.041889977175,0.0908465794,0.00375
08:28:34,0.7927201000000001,-0.53156814,-0.75892874,-0.09472038,-0.0560770099999999,0.0693235599999999,-0.0131648899999999,-3.23005732,-14.92719866,-5.125690689999995,-0.3859212136,-0.6911396036,-1.0976514430000002,-0.01029198131,-0.0448705979499999,0.0918682615999999,0.00375
08:28:34,0.8038865500000001,-0.53562227,-0.76360007,-0.09482159,-0.059273055,0.0699840799999999,-0.0076208949999999,-3.23365126,-14.94633463,-5.329375294999995,-0.3847040148,-0.6948049398,-1.1094923865000004,-0.0091024562049999,-0.047851218725,0.0928899438,0.00375
08:28:34,0.815053,-0.5396764,-0.7682713999999999,-0.0949228,-0.0624691,0.0706445999999999,-0.0020768999999999,-3.2372452000000003,-14.9654706,-5.533059899999994,-0.383486816,-0.698470276,-1.12133333,-0.0079129311,-0.0508318395,0.0939116259999999,0.00375
08:28:34,0.8262194500000002,-0.5437305299999999,-0.7729427299999999,-0.09502401,-0.0656651449999999,0.0713051199999999,0.003467095,-3.2408391400000003,-14.98460657,-5.736744504999994,-0.3822696172,-0.7021356122000001,-1.1331742735000003,-0.006723405995,-0.053812460275,0.0949333082,0.00375
08:28:34,0.8373859000000003,-0.5477846599999999,-0.77761406,-0.09512522,-0.06886119,0.0719656399999999,0.0090110900000001,-3.2444330800000003,-15.00374254,-5.940429109999993,-0.3810524184,-0.7058009484000001,-1.145015217,-0.00553388089,-0.05679308105,0.0959549904,0.00375
08:28:34,0.8485523500000001,-0.5518387899999999,-0.78228539,-0.09522643,-0.072057235,0.07262616,0.0145550850000001,-3.2480270200000003,-15.022878510000002,-6.1441137149999925,-0.3798352196,-0.7094662846,-1.1568561605000005,-0.004344355785,-0.059773701825,0.0969766726,0.00375
08:28:34,0.8597188000000002,-0.5558929199999999,-0.7869567199999999,-0.09532764,-0.0752532799999999,0.0732866799999999,0.0200990800000001,-3.2516209600000003,-15.04201448,-6.347798319999992,-0.3786180208,-0.7131316208,-1.168697104,-0.0031548306799999,-0.0627543226,0.0979983548,0.00375
08:28:34,0.8708852500000004,-0.5599470499999999,-0.7916280499999999,-0.09542885,-0.078449325,0.0739471999999999,0.0256430749999999,-3.2552149000000004,-15.06115045,-6.551482924999991,-0.377400822,-0.716796957,-1.1805380475000002,-0.001965305575,-0.065734943375,0.0990200369999999,0.00375
08:28:34,0.8820517000000001,-0.5640011799999999,-0.79629938,-0.09553006,-0.08164537,0.0746077199999999,0.0311870699999999,-3.2588088400000004,-15.08028642,-6.755167529999998,-0.3761836232,-0.7204622932,-1.192378991,-0.00077578047,-0.06871556415,0.1000417192,0.00375
08:28:34,0.8932181500000003,-0.56805531,-0.80097071,-0.09563127,-0.0848414149999999,0.0752682399999999,0.036731065,-3.2624027800000004,-15.09942239,-6.958852134999997,-0.3749664244,-0.7241276294000001,-1.2042199345000002,0.0004137446349999,-0.071696184925,0.1010634013999999,0.00375
08:28:34,0.9043846,-0.57210944,-0.80564204,-0.09573248,-0.08803746,0.0759287599999999,0.04227506,-3.2659967200000004,-15.118558360000002,-7.162536739999997,-0.3737492256,-0.7277929656000001,-1.2160608780000004,0.0016032697399999,-0.0746768057,0.1020850836,0.00375
08:28:34,0.91555105,-0.57616357,-0.8103133699999999,-0.09583369,-0.091233505,0.07658928,0.047819055,-3.2695906600000004,-15.13769433,-7.366221344999996,-0.3725320268,-0.7314583018,-1.2279018215000002,0.002792794845,-0.077657426475,0.1031067657999999,0.00375
08:28:34,0.9267175000000004,-0.5802177,-0.8149847,-0.0959349,-0.0944295499999999,0.0772498,0.05336305,-3.2731846000000004,-15.1568303,-7.569905949999995,-0.371314828,-0.735123638,-1.2397427650000004,0.0039823199499999,-0.08063804725,0.104128448,0.00375
08:28:34,0.93788395,-0.5842718299999999,-0.81965603,-0.09603611,-0.097625595,0.0779103199999999,0.0589070450000001,-3.27677854,-15.17596627,-7.773590554999995,-0.3700976292,-0.7387889742,-1.2515837085,0.0051718450549999,-0.083618668025,0.1051501301999999,0.00375
08:28:34,0.9490504000000002,-0.5883259599999999,-0.82432736,-0.09613732,-0.10082164,0.0785708399999999,0.0644510400000001,-3.28037248,-15.19510224,-7.977275159999994,-0.3688804304,-0.7424543104,-1.2634246520000003,0.0063613701599999,-0.0865992888,0.1061718124,0.00375
08:28:34,0.9602168500000005,-0.5923800899999999,-0.8289986899999999,-0.09623853,-0.1040176849999999,0.0792313599999999,0.0699950350000001,-3.28396642,-15.21423821,-8.180959764999994,-0.3676632316,-0.7461196466000001,-1.2752655955,0.0075508952649999,-0.089579909575,0.1071934946,0.00375
08:28:34,0.9713833,-0.5964342199999999,-0.8336700199999999,-0.09633974,-0.10721373,0.0798918799999999,0.0755390300000001,-3.28756036,-15.23337418,-8.384644369999993,-0.3664460328,-0.7497849828,-1.2871065390000005,0.00874042037,-0.09256053035,0.1082151768,0.00375
08:28:34,0.9825497500000002,-0.6004883499999999,-0.83834135,-0.09644095,-0.110409775,0.0805523999999999,0.0810830249999999,-3.2911543,-15.25251015,-8.588328974999992,-0.365228834,-0.753450319,-1.2989474825,0.0099299454749999,-0.095541151125,0.109236859,0.00375
08:28:34,0.9937162000000004,-0.6045424799999999,-0.84301268,-0.09654216,-0.1136058199999999,0.0812129199999999,0.08662702,-3.29474824,-15.27164612,-8.792013579999992,-0.3640116352,-0.7571156552,-1.3107884260000002,0.0111194705799999,-0.0985217719,0.1102585411999999,0.00375
08:28:34,1.00488265,-0.6085966099999999,-0.8476840099999999,-0.09664337,-0.116801865,0.0818734399999999,0.092171015,-3.29834218,-15.29078209,-8.995698184999991,-0.3627944364,-0.7607809914,-1.3226293695000004,0.0123089956849999,-0.101502392675,0.1112802234,0.00375
08:28:34,1.0160491000000005,-0.61265074,-0.8523553399999999,-0.09674458,-0.11999791,0.0825339599999999,0.09771501,-3.30193612,-15.30991806,-9.19938278999999,-0.3615772376,-0.7644463276000001,-1.3344703130000002,0.0134985207899999,-0.10448301345,0.1123019055999999,0.00375
08:28:34,1.02721555,-0.61670487,-0.85702667,-0.09684579,-0.1231939549999999,0.08319448,0.103259005,-3.30553006,-15.329054030000002,-9.403067394999995,-0.3603600388,-0.7681116638000001,-1.3463112565000004,0.014688045895,-0.107463634225,0.1133235878,0.00375
08:28:35,1.038382,-0.620759,-0.861698,-0.096947,-0.12639,0.083855,0.108803,-3.309124,-15.34819,-9.606752,-0.35914284,-0.771777,-1.3581522,0.015877571,-0.110444255,0.11434527,0.00375
08:28:35,1.03151274,-0.614407465,-0.85576793,-0.09712278,-0.126773525,0.083141215,0.11268415,-3.32335824,-15.355260545,-9.503180365,-0.357310068102,-0.765143448,-1.3494261238499998,0.015386280395,-0.110902418825,0.114302979225,0.00375
08:28:35,1.02464348,-0.6080559299999999,-0.84983786,-0.09729856,-0.12715705,0.08242743,0.1165653,-3.33759248,-15.36233109,-9.39960873,-0.355477296204,-0.7585098960000001,-1.3407000477,0.01489498979,-0.11136058265,0.11426068845,0.00375
08:28:35,1.01777422,-0.601704395,-0.8439077899999999,-0.09747434,-0.127540575,0.081713645,0.12044645,-3.35182672,-15.369401635,-9.296037095,-0.353644524306,-0.751876344,-1.33197397155,0.014403699185,-0.111818746475,0.114218397675,0.00375
08:28:35,1.01090496,-0.59535286,-0.8379777199999999,-0.09765012,-0.1279241,0.0809998599999999,0.1243276,-3.36606096,-15.37647218,-9.19246546,-0.351811752408,-0.7452427920000001,-1.3232478954,0.01391240858,-0.1122769103,0.1141761069,0.00375
08:28:35,1.0040357,-0.5890013249999999,-0.8320476499999999,-0.0978259,-0.128307625,0.080286075,0.1282087499999999,-3.3802952000000004,-15.383542725,-9.088893825,-0.34997898051,-0.7386092400000001,-1.31452181925,0.013421117975,-0.112735074125,0.114133816125,0.00375
08:28:35,0.99716644,-0.58264979,-0.82611758,-0.09800168,-0.12869115,0.07957229,0.1320898999999999,-3.3945294400000003,-15.39061327,-8.98532219,-0.348146208612,-0.731975688,-1.3057957431,0.01292982737,-0.11319323795,0.11409152535,0.00375
08:28:35,0.99029718,-0.576298255,-0.82018751,-0.09817746,-0.129074675,0.078858505,0.1359710499999999,-3.4087636800000003,-15.397683815,-8.881750555,-0.346313436714,-0.7253421360000001,-1.29706966695,0.012438536765,-0.113651401775,0.114049234575,0.00375
08:28:35,0.98342792,-0.5699467199999999,-0.81425744,-0.09835324,-0.1294582,0.07814472,0.1398521999999999,-3.42299792,-15.40475436,-8.77817892,-0.344480664816,-0.718708584,-1.2883435907999998,0.01194724616,-0.1141095656,0.1140069438,0.00375
08:28:35,0.97655866,-0.5635951849999999,-0.80832737,-0.09852902,-0.129841725,0.077430935,0.1437333499999999,-3.43723216,-15.411824905,-8.674607285,-0.342647892918,-0.712075032,-1.27961751465,0.011455955555,-0.114567729425,0.113964653025,0.00375
08:28:35,0.9696894,-0.55724365,-0.8023973,-0.0987048,-0.13022525,0.07671715,0.1476144999999999,-3.4514664,-15.41889545,-8.57103565,-0.34081512102,-0.7054414800000001,-1.2708914385,0.01096466495,-0.11502589325,0.1139223622499999,0.00375
08:28:35,0.96282014,-0.5508921149999999,-0.79646723,-0.09888058,-0.130608775,0.076003365,0.1514956499999999,-3.46570064,-15.425965995,-8.467464015000001,-0.338982349122,-0.698807928,-1.26216536235,0.010473374345,-0.115484057075,0.113880071475,0.00375
08:28:35,0.95595088,-0.5445405799999999,-0.79053716,-0.09905636,-0.1309923,0.07528958,0.1553767999999999,-3.47993488,-15.43303654,-8.36389238,-0.337149577224,-0.6921743760000001,-1.2534392862,0.00998208374,-0.1159422209,0.1138377807,0.00375
08:28:35,0.94908162,-0.538189045,-0.78460709,-0.09923214,-0.131375825,0.074575795,0.1592579499999999,-3.49416912,-15.440107085,-8.260320745,-0.335316805326,-0.685540824,-1.24471321005,0.009490793135,-0.116400384725,0.1137954899249999,0.00375
08:28:35,0.94221236,-0.5318375099999999,-0.7786770199999999,-0.09940792,-0.13175935,0.07386201,0.1631390999999999,-3.50840336,-15.44717763,-8.15674911,-0.333484033428,-0.678907272,-1.2359871339,0.00899950253,-0.11685854855,0.11375319915,0.00375
08:28:35,0.9353431,-0.5254859749999999,-0.7727469499999999,-0.0995837,-0.132142875,0.073148225,0.1670202499999999,-3.5226376000000004,-15.454248175,-8.053177475,-0.33165126153,-0.6722737200000001,-1.2272610577499998,0.008508211925,-0.117316712375,0.113710908375,0.00375
08:28:35,0.92847384,-0.51913444,-0.7668168799999999,-0.09975948,-0.1325264,0.07243444,0.1709013999999999,-3.5368718400000003,-15.46131872,-7.94960584,-0.329818489632,-0.665640168,-1.2185349816,0.00801692132,-0.1177748762,0.1136686176,0.00375
08:28:35,0.92160458,-0.5127829049999999,-0.76088681,-0.09993526,-0.132909925,0.071720655,0.1747825499999999,-3.5511060800000003,-15.468389265,-7.846034205,-0.327985717734,-0.6590066160000001,-1.20980890545,0.007525630715,-0.118233040025,0.113626326825,0.00375
08:28:35,0.91473532,-0.5064313699999999,-0.75495674,-0.10011104,-0.13329345,0.07100687,0.1786636999999999,-3.56534032,-15.47545981,-7.74246257,-0.326152945836,-0.6523730640000001,-1.2010828293,0.00703434011,-0.11869120385,0.11358403605,0.00375
08:28:35,0.90786606,-0.500079835,-0.74902667,-0.10028682,-0.133676975,0.070293085,0.1825448499999999,-3.57957456,-15.482530355,-7.638890935,-0.324320173938,-0.645739512,-1.19235675315,0.006543049505,-0.119149367675,0.113541745275,0.00375
08:28:35,0.9009968,-0.4937282999999999,-0.7430966,-0.1004626,-0.1340605,0.0695793,0.1864259999999999,-3.5938088,-15.4896009,-7.535319299999999,-0.32248740204,-0.6391059600000001,-1.183630677,0.0060517589,-0.1196075315,0.1134994545,0.00375
08:28:35,0.8941275399999999,-0.4873767649999999,-0.73716653,-0.10063838,-0.134444025,0.068865515,0.1903071499999999,-3.60804304,-15.496671445,-7.431747665,-0.320654630142,-0.632472408,-1.17490460085,0.005560468295,-0.120065695325,0.113457163725,0.00375
08:28:35,0.88725828,-0.4810252299999999,-0.73123646,-0.10081416,-0.13482755,0.06815173,0.1941882999999999,-3.62227728,-15.50374199,-7.32817603,-0.318821858244,-0.6258388560000001,-1.1661785246999998,0.00506917769,-0.12052385915,0.11341487295,0.00375
08:28:35,0.88038902,-0.474673695,-0.72530639,-0.10098994,-0.135211075,0.067437945,0.1980694499999999,-3.63651152,-15.510812535,-7.224604395,-0.316989086346,-0.6192053040000001,-1.15745244855,0.004577887085,-0.120982022975,0.113372582175,0.00375
08:28:35,0.87351976,-0.4683221599999999,-0.71937632,-0.10116572,-0.1355946,0.06672416,0.2019505999999999,-3.65074576,-15.51788308,-7.12103276,-0.315156314448,-0.612571752,-1.1487263724,0.0040865964799999,-0.1214401868,0.1133302914,0.00375
08:28:35,0.8666505,-0.4619706249999999,-0.71344625,-0.1013415,-0.135978125,0.066010375,0.2058317499999999,-3.66498,-15.524953625,-7.0174611250000005,-0.31332354255,-0.6059382,-1.14000029625,0.0035953058749999,-0.121898350625,0.113288000625,0.00375
08:28:35,0.8597812399999999,-0.45561909,-0.70751618,-0.10151728,-0.13636165,0.06529659,0.2097128999999999,-3.67921424,-15.53202417,-6.91388949,-0.311490770652,-0.599304648,-1.1312742201,0.0031040152699999,-0.12235651445,0.11324570985,0.00375
08:28:35,0.8529119799999999,-0.4492675549999999,-0.70158611,-0.10169306,-0.136745175,0.064582805,0.2135940499999999,-3.69344848,-15.539094715,-6.810317855,-0.309657998754,-0.592671096,-1.12254814395,0.002612724665,-0.122814678275,0.113203419075,0.00375
08:28:35,0.8460427199999999,-0.4429160199999999,-0.69565604,-0.10186884,-0.1371287,0.06386902,0.2174751999999999,-3.70768272,-15.54616526,-6.706746219999999,-0.307825226856,-0.5860375440000001,-1.1138220678,0.00212143406,-0.1232728421,0.1131611283,0.00375
08:28:35,0.8391734599999999,-0.436564485,-0.68972597,-0.10204462,-0.137512225,0.063155235,0.2213563499999999,-3.72191696,-15.553235805,-6.603174585,-0.305992454958,-0.579403992,-1.1050959916499998,0.001630143455,-0.123731005925,0.113118837525,0.00375
08:28:35,0.8323041999999999,-0.43021295,-0.6837959,-0.1022204,-0.13789575,0.0624414499999999,0.2252374999999999,-3.7361512,-15.56030635,-6.49960295,-0.30415968306,-0.57277044,-1.0963699155,0.00113885285,-0.12418916975,0.11307654675,0.00375
08:28:35,0.82543494,-0.4238614149999999,-0.67786583,-0.10239618,-0.138279275,0.061727665,0.2291186499999999,-3.75038544,-15.567376895,-6.396031315,-0.302326911162,-0.5661368880000001,-1.08764383935,0.000647562245,-0.124647333575,0.113034255975,0.00375
08:28:35,0.81856568,-0.41750988,-0.67193576,-0.10257196,-0.1386628,0.06101388,0.2329997999999999,-3.76461968,-15.57444744,-6.29245968,-0.300494139264,-0.559503336,-1.0789177632,0.00015627164,-0.1251054974,0.1129919652,0.00375
08:28:35,0.81169642,-0.411158345,-0.66600569,-0.10274774,-0.139046325,0.060300095,0.2368809499999999,-3.77885392,-15.581517985,-6.188888045,-0.298661367366,-0.5528697840000001,-1.07019168705,-0.0003350189649999,-0.125563661225,0.112949674425,0.00375
08:28:35,0.8048271599999999,-0.4048068099999999,-0.66007562,-0.10292352,-0.13942985,0.05958631,0.2407620999999999,-3.79308816,-15.58858853,-6.08531641,-0.296828595468,-0.546236232,-1.0614656109,-0.0008263095699999,-0.12602182505,0.11290738365,0.00375
08:28:35,0.7979578999999999,-0.398455275,-0.65414555,-0.1030993,-0.139813375,0.0588725249999999,0.2446432499999999,-3.8073224,-15.595659075,-5.981744774999999,-0.29499582357,-0.53960268,-1.05273953475,-0.0013176001749999,-0.126479988875,0.112865092875,0.00375
08:28:35,0.7910886399999999,-0.39210374,-0.64821548,-0.10327508,-0.1401969,0.05815874,0.2485243999999999,-3.82155664,-15.60272962,-5.87817314,-0.293163051672,-0.5329691280000001,-1.0440134585999998,-0.0018088907799999,-0.1269381527,0.1128228021,0.00375
08:28:35,0.7842193799999999,-0.3857522049999999,-0.64228541,-0.10345086,-0.140580425,0.057444955,0.25240555,-3.83579088,-15.609800165,-5.774601505,-0.291330279774,-0.526335576,-1.03528738245,-0.0023001813849999,-0.127396316525,0.112780511325,0.00375
08:28:35,0.7773501199999999,-0.37940067,-0.6363553399999999,-0.10362664,-0.14096395,0.05673117,0.2562867,-3.85002512,-15.61687071,-5.67102987,-0.289497507876,-0.5197020240000001,-1.0265613063,-0.0027914719899999,-0.12785448035,0.11273822055,0.00375
08:28:35,0.7704808599999999,-0.373049135,-0.63042527,-0.10380242,-0.141347475,0.056017385,0.26016785,-3.86425936,-15.623941255,-5.567458235,-0.287664735978,-0.513068472,-1.01783523015,-0.0032827625949999,-0.128312644175,0.112695929775,0.00375
08:28:35,0.7636116,-0.3666975999999999,-0.6244952,-0.1039782,-0.141731,0.0553036,0.264049,-3.8784936,-15.6310118,-5.4638866,-0.28583196408,-0.50643492,-1.009109154,-0.0037740531999999,-0.128770808,0.112653639,0.00375
08:28:35,0.75674234,-0.360346065,-0.61856513,-0.10415398,-0.142114525,0.054589815,0.26793015,-3.89272784,-15.638082345,-5.360314965,-0.283999192182,-0.499801368,-1.00038307785,-0.0042653438049999,-0.129228971825,0.112611348225,0.00375
08:28:35,0.74987308,-0.35399453,-0.61263506,-0.10432976,-0.14249805,0.05387603,0.2718113,-3.90696208,-15.64515289,-5.25674333,-0.282166420284,-0.493167816,-0.9916570017,-0.0047566344099999,-0.12968713565,0.11256905745,0.00375
08:28:35,0.74300382,-0.3476429949999999,-0.60670499,-0.10450554,-0.142881575,0.053162245,0.27569245,-3.92119632,-15.652223435,-5.153171695,-0.280333648386,-0.486534264,-0.98293092555,-0.0052479250149999,-0.130145299475,0.112526766675,0.00375
08:28:35,0.73613456,-0.34129146,-0.60077492,-0.10468132,-0.1432651,0.05244846,0.2795736,-3.93543056,-15.65929398,-5.04960006,-0.278500876488,-0.479900712,-0.9742048494,-0.0057392156199999,-0.1306034633,0.1124844759,0.00375
08:28:35,0.7292653,-0.3349399249999999,-0.59484485,-0.1048571,-0.143648625,0.051734675,0.28345475,-3.9496648,-15.666364525,-4.946028425,-0.27666810459,-0.47326716,-0.96547877325,-0.0062305062249999,-0.131061627125,0.112442185125,0.00375
08:28:35,0.72239604,-0.32858839,-0.5889147800000001,-0.10503288,-0.14403215,0.05102089,0.2873359,-3.96389904,-15.67343507,-4.84245679,-0.274835332692,-0.466633608,-0.9567526971,-0.0067217968299999,-0.13151979095,0.11239989435,0.00375
08:28:35,0.7155267799999999,-0.322236855,-0.5829847100000001,-0.10520866,-0.144415675,0.050307105,0.29121705,-3.97813328,-15.680505615,-4.738885155,-0.273002560794,-0.460000056,-0.94802662095,-0.0072130874349999,-0.131977954775,0.112357603575,0.00375
08:28:35,0.7086575199999999,-0.3158853199999999,-0.5770546400000001,-0.10538444,-0.1447992,0.0495933199999999,0.2950982,-3.99236752,-15.68757616,-4.63531352,-0.271169788896,-0.453366504,-0.9393005448,-0.00770437804,-0.1324361186,0.1123153128,0.00375
08:28:35,0.7017882599999999,-0.309533785,-0.57112457,-0.10556022,-0.145182725,0.048879535,0.29897935,-4.006601760000001,-15.694646705,-4.531741885,-0.269337016998,-0.446732952,-0.93057446865,-0.008195668645,-0.132894282425,0.112273022025,0.00375
08:28:35,0.694919,-0.30318225,-0.5651945,-0.105736,-0.14556625,0.04816575,0.3028605,-4.020836,-15.70171725,-4.42817025,-0.2675042451,-0.4400994,-0.9218483925,-0.00868695925,-0.13335244625,0.11223073125,0.00375
08:28:35,0.68804974,-0.2968307149999999,-0.55926443,-0.10591178,-0.145949775,0.047451965,0.30674165,-4.0350702400000005,-15.708787795,-4.324598614999999,-0.265671473202,-0.433465848,-0.91312231635,-0.009178249855,-0.133810610075,0.112188440475,0.00375
08:28:35,0.6811804799999999,-0.29047918,-0.55333436,-0.10608756,-0.1463333,0.04673818,0.3106228,-4.04930448,-15.71585834,-4.22102698,-0.263838701304,-0.426832296,-0.9043962402,-0.00966954046,-0.1342687739,0.1121461497,0.00375
08:28:35,0.6743112199999999,-0.284127645,-0.54740429,-0.10626334,-0.146716825,0.046024395,0.31450395,-4.06353872,-15.722928885,-4.117455345,-0.262005929406,-0.420198744,-0.89567016405,-0.010160831065,-0.134726937725,0.112103858925,0.00375
08:28:35,0.6674419599999999,-0.2777761099999999,-0.54147422,-0.10643912,-0.14710035,0.04531061,0.3183851,-4.07777296,-15.72999943,-4.01388371,-0.260173157508,-0.413565192,-0.8869440878999999,-0.01065212167,-0.13518510155,0.11206156815,0.00375
08:28:35,0.6605726999999999,-0.271424575,-0.53554415,-0.1066149,-0.147483875,0.044596825,0.32226625,-4.0920072,-15.737069975,-3.9103120749999993,-0.25834038561,-0.40693164,-0.87821801175,-0.011143412275,-0.135643265375,0.112019277375,0.00375
08:28:35,0.6537034399999999,-0.26507304,-0.52961408,-0.10679068,-0.1478674,0.04388304,0.3261474,-4.10624144,-15.74414052,-3.80674044,-0.256507613712,-0.400298088,-0.8694919355999999,-0.01163470288,-0.1361014292,0.1119769866,0.00375
08:28:35,0.6468341799999999,-0.2587215049999999,-0.52368401,-0.10696646,-0.148250925,0.043169255,0.33002855,-4.12047568,-15.751211065,-3.703168805,-0.254674841814,-0.393664536,-0.86076585945,-0.012125993485,-0.136559593025,0.111934695825,0.00375
08:28:35,0.6399649199999999,-0.25236997,-0.51775394,-0.10714224,-0.14863445,0.04245547,0.3339097,-4.134709920000001,-15.75828161,-3.59959717,-0.252842069916,-0.387030984,-0.8520397833,-0.01261728409,-0.13701775685,0.11189240505,0.00375
08:28:35,0.63309566,-0.2460184349999999,-0.51182387,-0.10731802,-0.149017975,0.041741685,0.33779085,-4.14894416,-15.765352155,-3.496025535,-0.251009298018,-0.380397432,-0.84331370715,-0.013108574695,-0.137475920675,0.111850114275,0.00375
08:28:35,0.6262264,-0.2396669,-0.5058938,-0.1074938,-0.1494015,0.0410279,0.341672,-4.1631784000000005,-15.7724227,-3.3924539,-0.24917652612,-0.37376388,-0.834587631,-0.0135998653,-0.1379340845,0.1118078235,0.00375
08:28:35,0.61935714,-0.233315365,-0.49996373,-0.10766958,-0.149785025,0.040314115,0.34555315,-4.17741264,-15.779493245,-3.288882265,-0.247343754222,-0.367130328,-0.8258615548499999,-0.014091155905,-0.138392248325,0.111765532725,0.00375
08:28:35,0.61248788,-0.2269638299999999,-0.49403366,-0.10784536,-0.15016855,0.03960033,0.3494343,-4.19164688,-15.78656379,-3.18531063,-0.2455109823239999,-0.360496776,-0.8171354786999999,-0.01458244651,-0.13885041215,0.11172324195,0.00375
08:28:35,0.60561862,-0.220612295,-0.48810359,-0.10802114,-0.150552075,0.038886545,0.35331545,-4.20588112,-15.793634335,-3.081738995,-0.243678210426,-0.353863224,-0.8084094025499999,-0.015073737115,-0.139308575975,0.111680951175,0.00375
08:28:35,0.59874936,-0.21426076,-0.48217352,-0.10819692,-0.1509356,0.03817276,0.3571966,-4.22011536,-15.80070488,-2.97816736,-0.241845438528,-0.347229672,-0.7996833264,-0.01556502772,-0.1397667398,0.1116386604,0.00375
08:28:35,0.5918801,-0.2079092249999999,-0.47624345,-0.1083727,-0.151319125,0.037458975,0.36107775,-4.2343496,-15.807775425,-2.874595725,-0.2400126666299999,-0.34059612,-0.79095725025,-0.016056318325,-0.140224903625,0.111596369625,0.00375
08:28:35,0.58501084,-0.20155769,-0.47031338,-0.10854848,-0.15170265,0.03674519,0.3649589,-4.24858384,-15.81484597,-2.771024089999999,-0.238179894732,-0.333962568,-0.7822311741,-0.01654760893,-0.14068306745,0.11155407885,0.00375
08:28:35,0.5781415799999999,-0.195206155,-0.46438331,-0.10872426,-0.152086175,0.036031405,0.36884005,-4.262818080000001,-15.821916515,-2.6674524549999994,-0.236347122834,-0.327329016,-0.77350509795,-0.017038899535,-0.141141231275,0.111511788075,0.00375
08:28:35,0.57127232,-0.1888546199999999,-0.45845324,-0.10890004,-0.1524696999999999,0.03531762,0.3727212,-4.27705232,-15.82898706,-2.56388082,-0.2345143509359999,-0.320695464,-0.7647790217999999,-0.01753019014,-0.1415993951,0.1114694973,0.00375
08:28:35,0.56440306,-0.182503085,-0.45252317,-0.10907582,-0.152853225,0.034603835,0.37660235,-4.2912865600000005,-15.836057605,-2.460309185,-0.232681579038,-0.314061912,-0.7560529456499999,-0.018021480745,-0.142057558925,0.111427206525,0.00375
08:28:35,0.5575338,-0.17615155,-0.4465931,-0.1092516,-0.15323675,0.03389005,0.3804835,-4.3055208,-15.84312815,-2.356737549999999,-0.23084880714,-0.30742836,-0.7473268694999999,-0.01851277135,-0.14251572275,0.11138491575,0.00375
08:28:35,0.55066454,-0.169800015,-0.44066303,-0.10942738,-0.153620275,0.033176265,0.38436465,-4.31975504,-15.850198695,-2.2531659149999994,-0.229016035242,-0.300794808,-0.73860079335,-0.019004061955,-0.142973886575,0.111342624975,0.00375
08:28:35,0.5437952799999999,-0.16344848,-0.43473296,-0.10960316,-0.1540038,0.03246248,0.3882458,-4.33398928,-15.85726924,-2.14959428,-0.227183263344,-0.294161256,-0.7298747172,-0.01949535256,-0.1434320504,0.1113003342,0.00375
08:28:35,0.53692602,-0.157096945,-0.42880289,-0.10977894,-0.154387325,0.031748695,0.39212695,-4.34822352,-15.864339785,-2.046022645,-0.225350491446,-0.287527704,-0.72114864105,-0.0199866431649999,-0.143890214225,0.111258043425,0.00375
08:28:35,0.5300567599999999,-0.15074541,-0.42287282,-0.10995472,-0.15477085,0.03103491,0.3960081,-4.36245776,-15.87141033,-1.9424510099999992,-0.223517719548,-0.280894152,-0.7124225649,-0.0204779337699999,-0.14434837805,0.11121575265,0.00375
08:28:35,0.5231874999999999,-0.144393875,-0.41694275,-0.1101305,-0.155154375,0.0303211249999999,0.39988925,-4.376692,-15.878480875,-1.8388793749999996,-0.22168494765,-0.2742606,-0.7036964887499999,-0.0209692243749999,-0.144806541875,0.111173461875,0.00375
08:28:35,0.5163182399999999,-0.1380423399999999,-0.41101268,-0.11030628,-0.1555379,0.02960734,0.4037704,-4.390926240000001,-15.88555142,-1.7353077399999997,-0.219852175752,-0.267627048,-0.6949704125999999,-0.0214605149799999,-0.1452647057,0.1111311711,0.00375
08:28:35,0.5094489799999999,-0.131690805,-0.40508261,-0.11048206,-0.155921425,0.028893555,0.40765155,-4.40516048,-15.892621965,-1.631736105,-0.218019403854,-0.260993496,-0.6862443364499999,-0.0219518055849999,-0.145722869525,0.111088880325,0.00375
08:28:35,0.50257972,-0.12533927,-0.39915254,-0.11065784,-0.15630495,0.02817977,0.4115327,-4.41939472,-15.89969251,-1.52816447,-0.216186631956,-0.254359944,-0.6775182603,-0.0224430961899999,-0.14618103335,0.11104658955,0.00375
08:28:35,0.4957104599999999,-0.118987735,-0.39322247,-0.11083362,-0.156688475,0.027465985,0.41541385,-4.43362896,-15.906763055,-1.4245928350000003,-0.214353860058,-0.247726392,-0.66879218415,-0.0229343867949999,-0.146639197175,0.111004298775,0.00375
08:28:35,0.4888412,-0.1126361999999999,-0.3872924,-0.1110094,-0.157072,0.0267522,0.419295,-4.4478632000000005,-15.9138336,-1.3210211999999988,-0.2125210881599999,-0.24109284,-0.660066108,-0.0234256773999999,-0.147097361,0.110962008,0.00375
08:28:35,0.48197194,-0.106284665,-0.38136233,-0.11118518,-0.1574555249999999,0.026038415,0.42317615,-4.46209744,-15.920904145,-1.217449564999999,-0.210688316262,-0.234459288,-0.65134003185,-0.0239169680049999,-0.147555524825,0.110919717225,0.00375
08:28:35,0.47510268,-0.09993313,-0.37543226,-0.11136096,-0.15783905,0.02532463,0.4270573,-4.47633168,-15.92797469,-1.1138779299999992,-0.208855544364,-0.227825736,-0.6426139556999999,-0.0244082586099999,-0.14801368865,0.11087742645,0.00375
08:28:35,0.46823342,-0.0935815949999999,-0.36950219,-0.11153674,-0.158222575,0.024610845,0.43093845,-4.49056592,-15.935045235,-1.0103062949999997,-0.2070227724659999,-0.221192184,-0.6338878795499999,-0.0248995492149999,-0.148471852475,0.110835135675,0.00375
08:28:35,0.4613641599999999,-0.08723006,-0.36357212,-0.11171252,-0.1586061,0.0238970599999999,0.4348196,-4.50480016,-15.94211578,-0.9067346599999996,-0.205190000568,-0.214558632,-0.6251618033999999,-0.0253908398199999,-0.1489300163,0.1107928449,0.00375
