Timestamp,linacce_x,linacce_y,linacce_z,gyro_x,gyro_y,gyro_z,X-magnetometer,Y-magnetometer,Z-magnetometer,Yaw, worldXAccel,worldYAccel,worldZAccel,worldXgyro,worldYgyro,worldZgyro,Distance
08:29:43,-0.532572,-0.182286,0.029825,-0.50604,0.032347,0.107292,37.847279,-20.300755,3.552635,-100.5209,-0.20616283,-0.23083961,0.37430647,-0.16040468,-0.029534902,0.44741333,0.00375
08:29:43,-0.533852325,-0.173098085,0.032036775,-0.5039093050000001,0.03262399,0.107249385,37.84657986,-20.298936875,3.553849065,-100.491441025,-0.2068568006499999,-0.22276362845,0.37955470465,-0.15946110529,-0.0291325124799999,0.4457109668,0.00375
08:29:43,-0.5351326500000001,-0.16391017,0.03424855,-0.50177861,0.03290098,0.1072067699999999,37.84588072,-20.29711875,3.55506313,-100.46198205,-0.2075507713,-0.2146876469,0.3848029393,-0.1585175305799999,-0.02873012296,0.4440086036,0.00375
08:29:43,-0.5364129750000001,-0.154722255,0.036460325,-0.499647915,0.03317797,0.107164155,37.84518158,-20.295300625,3.556277195,-100.432523075,-0.2082447419499999,-0.20661166535,0.39005117395,-0.15757395587,-0.02832773344,0.4423062404,0.00375
08:29:43,-0.5376933,-0.14553434,0.0386721,-0.49751722,0.03345496,0.10712154,37.84448244,-20.2934825,3.55749126,-100.4030641,-0.2089387126,-0.1985356838,0.3952994086,-0.15663038116,-0.0279253439199999,0.4406038772,0.00375
08:29:43,-0.538973625,-0.136346425,0.040883875,-0.495386525,0.03373195,0.1070789249999999,37.8437833,-20.291664375,3.558705325,-100.373605125,-0.2096326832499999,-0.19045970225,0.40054764325,-0.15568680645,-0.0275229543999999,0.438901514,0.00375
08:29:43,-0.5402539500000001,-0.12715851,0.04309565,-0.49325583,0.03400894,0.10703631,37.84308416,-20.28984625,3.55991939,-100.34414615,-0.2103266539,-0.1823837206999999,0.4057958779,-0.15474323174,-0.02712056488,0.4371991508,0.00375
08:29:43,-0.5415342750000001,-0.117970595,0.045307425,-0.491125135,0.03428593,0.106993695,37.84238502,-20.288028125,3.561133455,-100.314687175,-0.2110206245499999,-0.1743077391499999,0.41104411255,-0.1537996570299999,-0.02671817536,0.4354967876,0.00375
08:29:43,-0.5428146,-0.10878268,0.0475192,-0.48899444,0.03456292,0.10695108,37.84168588,-20.28621,3.56234752,-100.2852282,-0.2117145952,-0.1662317575999999,0.4162923472,-0.15285608232,-0.0263157858399999,0.4337944244,0.00375
08:29:43,-0.544094925,-0.099594765,0.049730975,-0.486863745,0.03483991,0.106908465,37.84098674,-20.284391875,3.563561585,-100.255769225,-0.2124085658499999,-0.1581557760499999,0.42154058185,-0.15191250761,-0.0259133963199999,0.4320920612,0.00375
08:29:43,-0.5453752500000001,-0.09040685,0.0519427499999999,-0.48473305,0.0351169,0.10686585,37.8402876,-20.28257375,3.56477565,-100.22631025,-0.2131025365,-0.1500797944999999,0.4267888165,-0.1509689329,-0.0255110068,0.430389698,0.00375
08:29:43,-0.5466555750000001,-0.081218935,0.054154525,-0.482602355,0.03539389,0.106823235,37.83958846,-20.280755625,3.565989715,-100.196851275,-0.2137965071499999,-0.1420038129499999,0.43203705115,-0.1500253581899999,-0.02510861728,0.4286873348,0.00375
08:29:43,-0.5479359,-0.07203102,0.0563663,-0.48047166,0.03567088,0.1067806199999999,37.83888932,-20.2789375,3.56720378,-100.1673923,-0.2144904778,-0.1339278313999999,0.4372852858,-0.14908178348,-0.0247062277599999,0.4269849716,0.00375
08:29:43,-0.549216225,-0.062843105,0.058578075,-0.478340965,0.03594787,0.106738005,37.83819018,-20.277119375,3.568417845,-100.137933325,-0.2151844484499999,-0.1258518498499999,0.44253352045,-0.14813820877,-0.02430383824,0.4252826084,0.00375
08:29:43,-0.5504965500000001,-0.05365519,0.06078985,-0.47621027,0.03622486,0.10669539,37.83749104,-20.27530125,3.56963191,-100.10847435,-0.2158784191,-0.1177758682999999,0.4477817551,-0.14719463406,-0.02390144872,0.4235802452,0.00375
08:29:43,-0.551776875,-0.044467275,0.063001625,-0.474079575,0.03650185,0.106652775,37.8367919,-20.273483125,3.570845975,-100.079015375,-0.2165723897499999,-0.1096998867499999,0.45302998975,-0.14625105935,-0.0234990592,0.421877882,0.00375
08:29:43,-0.5530572,-0.03527936,0.0652134,-0.47194888,0.03677884,0.10661016,37.83609276,-20.271665,3.57206004,-100.0495564,-0.2172663604,-0.1016239051999999,0.4582782244,-0.1453074846399999,-0.0230966696799999,0.4201755188,0.00375
08:29:43,-0.554337525,-0.026091445,0.067425175,-0.469818185,0.03705583,0.106567545,37.83539362,-20.269846875,3.573274105,-100.020097425,-0.2179603310499999,-0.0935479236499999,0.46352645905,-0.14436390993,-0.0226942801599999,0.4184731556,0.00375
08:29:43,-0.5556178500000001,-0.01690353,0.06963695,-0.46768749,0.03733282,0.10652493,37.83469448,-20.26802875,3.57448817,-99.99063845,-0.2186543017,-0.0854719420999999,0.4687746937,-0.14342033522,-0.02229189064,0.4167707924,0.00375
08:29:43,-0.556898175,-0.007715615,0.071848725,-0.465556795,0.03760981,0.106482315,37.83399534,-20.266210625,3.575702235,-99.961179475,-0.2193482723499999,-0.0773959605499999,0.47402292835,-0.14247676051,-0.0218895011199999,0.4150684292,0.00375
08:29:43,-0.5581785,0.0014722999999999,0.0740605,-0.4634261,0.0378868,0.1064397,37.8332962,-20.2643925,3.5769163,-99.9317205,-0.220042243,-0.0693199789999999,0.479271163,-0.1415331858,-0.0214871115999999,0.413366066,0.00375
08:29:43,-0.559458825,0.010660215,0.076272275,-0.461295405,0.03816379,0.106397085,37.83259706,-20.262574375,3.578130365,-99.902261525,-0.2207362136499999,-0.0612439974499999,0.48451939765,-0.1405896110899999,-0.02108472208,0.4116637028,0.00375
08:29:43,-0.5607391500000001,0.0198481299999999,0.07848405,-0.45916471,0.03844078,0.1063544699999999,37.83189792,-20.26075625,3.57934443,-99.87280255,-0.2214301843,-0.0531680158999999,0.4897676323,-0.13964603638,-0.02068233256,0.4099613396,0.00375
08:29:43,-0.562019475,0.0290360449999999,0.080695825,-0.457034015,0.03871777,0.106311855,37.83119878,-20.258938125,3.580558495,-99.843343575,-0.2221241549499999,-0.0450920343499999,0.49501586695,-0.13870246167,-0.0202799430399999,0.4082589764,0.00375
08:29:43,-0.5632998,0.03822396,0.0829076,-0.45490332,0.03899476,0.10626924,37.83049964,-20.25712,3.58177256,-99.8138846,-0.2228181256,-0.0370160527999999,0.5002641016,-0.13775888696,-0.01987755352,0.4065566132,0.00375
08:29:43,-0.564580125,0.0474118749999999,0.085119375,-0.452772625,0.03927175,0.1062266249999999,37.8298005,-20.255301875,3.582986625,-99.784425625,-0.22351209625,-0.0289400712499999,0.50551233625,-0.13681531225,-0.0194751639999999,0.4048542499999999,0.00375
08:29:43,-0.5658604500000001,0.0565997899999999,0.08733115,-0.45064193,0.03954874,0.10618401,37.82910136,-20.25348375,3.58420069,-99.75496665,-0.2242060669,-0.0208640896999999,0.5107605709,-0.1358717375399999,-0.01907277448,0.4031518868,0.00375
08:29:43,-0.567140775,0.0657877049999999,0.089542925,-0.448511235,0.03982573,0.106141395,37.82840222,-20.251665625,3.585414755,-99.725507675,-0.22490003755,-0.0127881081499999,0.5160088055500001,-0.13492816283,-0.0186703849599999,0.4014495235999999,0.00375
08:29:43,-0.5684211,0.0749756199999999,0.0917547,-0.44638054,0.04010272,0.10609878,37.82770308,-20.2498475,3.58662882,-99.6960487,-0.2255940081999999,-0.0047121265999999,0.5212570402,-0.13398458812,-0.0182679954399999,0.3997471604,0.00375
08:29:43,-0.5697014250000001,0.084163535,0.093966475,-0.444249845,0.04037971,0.106056165,37.82700394,-20.248029375,3.587842885,-99.666589725,-0.22628797885,0.00336385495,0.52650527485,-0.13304101341,-0.01786560592,0.3980447972,0.00375
08:29:43,-0.5709817500000001,0.09335145,0.09617825,-0.44211915,0.0406567,0.10601355,37.8263048,-20.24621125,3.58905695,-99.63713075,-0.2269819495,0.0114398365,0.5317535095,-0.1320974386999999,-0.0174632164,0.396342434,0.00375
08:29:43,-0.572262075,0.102539365,0.098390025,-0.439988455,0.04093369,0.105970935,37.82560566,-20.244393125,3.590271015,-99.607671775,-0.22767592015,0.01951581805,0.53700174415,-0.13115386399,-0.0170608268799999,0.3946400708,0.00375
08:29:43,-0.5735424,0.1117272799999999,0.1006018,-0.43785776,0.04121068,0.1059283199999999,37.82490652,-20.242575,3.59148508,-99.5782128,-0.2283698907999999,0.0275917996,0.5422499788,-0.13021028928,-0.01665843736,0.3929377076,0.00375
08:29:43,-0.5748227250000001,0.1209151949999999,0.102813575,-0.435727065,0.04148767,0.105885705,37.82420738,-20.240756875,3.592699145,-99.548753825,-0.22906386145,0.03566778115,0.5474982134499999,-0.12926671457,-0.01625604784,0.3912353444,0.00375
08:29:43,-0.5761030500000001,0.1301031099999999,0.10502535,-0.43359637,0.04176466,0.10584309,37.82350824,-20.23893875,3.59391321,-99.51929485,-0.2297578321,0.0437437627,0.5527464481,-0.12832313986,-0.01585365832,0.3895329812,0.00375
08:29:43,-0.577383375,0.1392910249999999,0.107237125,-0.431465675,0.04204165,0.105800475,37.8228091,-20.237120625,3.595127275,-99.489835875,-0.23045180275,0.05181974425,0.55799468275,-0.1273795651499999,-0.0154512688,0.387830618,0.00375
08:29:43,-0.5786637,0.14847894,0.1094489,-0.42933498,0.04231864,0.10575786,37.82210996,-20.2353025,3.59634134,-99.4603769,-0.2311457733999999,0.0598957258,0.5632429174,-0.1264359904399999,-0.0150488792799999,0.3861282548,0.00375
08:29:43,-0.5799440250000001,0.157666855,0.111660675,-0.4272042850000001,0.04259563,0.105715245,37.82141082,-20.233484375,3.597555405,-99.430917925,-0.23183974405,0.06797170735,0.56849115205,-0.12549241573,-0.0146464897599999,0.3844258916,0.00375
08:29:43,-0.5812243500000001,0.1668547699999999,0.11387245,-0.42507359,0.04287262,0.10567263,37.82071168,-20.23166625,3.59876947,-99.40145895,-0.2325337146999999,0.0760476889,0.5737393867,-0.12454884102,-0.0142441002399999,0.3827235284,0.00375
08:29:43,-0.582504675,0.1760426849999999,0.116084225,-0.422942895,0.04314961,0.105630015,37.82001254,-20.229848125,3.599983535,-99.371999975,-0.23322768535,0.08412367045,0.57898762135,-0.1236052663099999,-0.0138417107199999,0.3810211652,0.00375
08:29:43,-0.583785,0.1852305999999999,0.118296,-0.4208122,0.0434266,0.1055874,37.8193134,-20.22803,3.6011976,-99.342541,-0.2339216559999999,0.092199652,0.584235856,-0.1226616916,-0.0134393212,0.379318802,0.00375
08:29:43,-0.5850653250000001,0.1944185149999999,0.120507775,-0.418681505,0.04370359,0.105544785,37.81861426,-20.226211875,3.602411665,-99.313082025,-0.23461562665,0.10027563355,0.5894840906500001,-0.12171811689,-0.0130369316799999,0.3776164388,0.00375
08:29:43,-0.58634565,0.20360643,0.12271955,-0.41655081,0.04398058,0.1055021699999999,37.81791512,-20.22439375,3.60362573,-99.28362305,-0.2353095972999999,0.1083516151,0.5947323253,-0.12077454218,-0.0126345421599999,0.3759140756,0.00375
08:29:43,-0.587625975,0.212794345,0.124931325,-0.414420115,0.04425757,0.105459555,37.81721598,-20.222575625,3.604839795,-99.254164075,-0.23600356795,0.11642759665,0.59998055995,-0.11983096747,-0.0122321526399999,0.3742117124,0.00375
08:29:43,-0.5889063,0.22198226,0.1271431,-0.41228942,0.04453456,0.10541694,37.81651684,-20.2207575,3.60605386,-99.2247051,-0.2366975385999999,0.1245035782,0.6052287946,-0.1188873927599999,-0.01182976312,0.3725093492,0.00375
08:29:43,-0.5901866250000001,0.2311701749999999,0.129354875,-0.410158725,0.04481155,0.105374325,37.8158177,-20.218939375,3.607267925,-99.195246125,-0.23739150925,0.13257955975,0.61047702925,-0.11794381805,-0.0114273735999999,0.370806986,0.00375
08:29:43,-0.59146695,0.2403580899999999,0.13156665,-0.40802803,0.04508854,0.10533171,37.81511856,-20.21712125,3.60848199,-99.16578715,-0.2380854798999999,0.1406555413,0.6157252639,-0.11700024334,-0.0110249840799999,0.3691046228,0.00375
08:29:43,-0.592747275,0.2495460049999999,0.133778425,-0.405897335,0.04536553,0.105289095,37.81441942,-20.215303125,3.609696055,-99.136328175,-0.23877945055,0.14873152285,0.62097349855,-0.11605666863,-0.0106225945599999,0.3674022596,0.00375
08:29:43,-0.5940276,0.25873392,0.1359902,-0.40376664,0.04564252,0.10524648,37.81372028,-20.213485,3.61091012,-99.1068692,-0.2394734211999999,0.1568075044000001,0.6262217332,-0.1151130939199999,-0.01022020504,0.3656998964,0.00375
08:29:43,-0.5953079250000001,0.267921835,0.138201975,-0.401635945,0.04591951,0.105203865,37.81302114,-20.211666875,3.612124185,-99.077410225,-0.24016739185,0.1648834859500001,0.63146996785,-0.1141695192099999,-0.0098178155199999,0.3639975332,0.00375
08:29:43,-0.59658825,0.27710975,0.14041375,-0.39950525,0.0461965,0.10516125,37.812322,-20.20984875,3.61333825,-99.04795125,-0.2408613624999999,0.1729594675000001,0.6367182025,-0.1132259445,-0.0094154259999999,0.36229517,0.00375
08:29:43,-0.597868575,0.286297665,0.142625525,-0.397374555,0.04647349,0.105118635,37.81162286,-20.208030625,3.614552315,-99.018492275,-0.24155533315,0.1810354490500001,0.64196643715,-0.11228236979,-0.00901303648,0.3605928068,0.00375
08:29:43,-0.5991489000000001,0.2954855799999999,0.1448373,-0.39524386,0.04675048,0.1050760199999999,37.81092372,-20.2062125,3.61576638,-98.9890333,-0.2422493037999999,0.1891114306000001,0.6472146718,-0.11133879508,-0.00861064696,0.3588904436,0.00375
08:29:43,-0.6004292250000001,0.3046734949999999,0.147049075,-0.393113165,0.04702747,0.105033405,37.81022458,-20.204394375,3.616980445,-98.959574325,-0.24294327445,0.1971874121500001,0.65246290645,-0.1103952203699999,-0.0082082574399999,0.3571880804,0.00375
08:29:43,-0.60170955,0.3138614099999999,0.14926085,-0.39098247,0.04730446,0.10499079,37.80952544,-20.20257625,3.61819451,-98.93011535,-0.2436372450999999,0.2052633937000001,0.6577111411000001,-0.10945164566,-0.0078058679199999,0.3554857172,0.00375
08:29:43,-0.602989875,0.323049325,0.151472625,-0.388851775,0.04758145,0.104948175,37.8088263,-20.200758125,3.619408575,-98.900656375,-0.24433121575,0.2133393752500001,0.6629593757500001,-0.10850807095,-0.0074034784,0.353783354,0.00375
08:29:43,-0.6042702,0.3322372399999999,0.1536844,-0.38672108,0.04785844,0.10490556,37.80812716,-20.19894,3.62062264,-98.8711974,-0.2450251863999999,0.2214153568000001,0.6682076104,-0.10756449624,-0.0070010888799999,0.3520809908,0.00375
08:29:43,-0.6055505250000001,0.341425155,0.155896175,-0.384590385,0.04813543,0.104862945,37.80742802,-20.197121875,3.621836705,-98.841738425,-0.2457191570499999,0.2294913383500001,0.67345584505,-0.10662092153,-0.0065986993599999,0.3503786276,0.00375
08:29:43,-0.60683085,0.35061307,0.15810795,-0.38245969,0.04841242,0.10482033,37.80672888,-20.19530375,3.62305077,-98.81227945,-0.2464131276999999,0.2375673199000001,0.6787040797,-0.1056773468199999,-0.0061963098399999,0.3486762644,0.00375
08:29:43,-0.608111175,0.3598009849999999,0.160319725,-0.380328995,0.04868941,0.104777715,37.80602974,-20.193485625,3.624264835,-98.782820475,-0.24710709835,0.2456433014500001,0.6839523143499999,-0.10473377211,-0.00579392032,0.3469739012,0.00375
08:29:43,-0.6093915000000001,0.3689889,0.1625315,-0.3781983,0.0489664,0.1047351,37.8053306,-20.1916675,3.6254789,-98.7533615,-0.2478010689999999,0.2537192830000001,0.6892005489999999,-0.1037901974,-0.0053915307999999,0.345271538,0.00375
08:29:43,-0.6106718250000001,0.3781768149999999,0.164743275,-0.376067605,0.04924339,0.104692485,37.80463146,-20.189849375,3.626692965,-98.723902525,-0.2484950396499999,0.2617952645500001,0.69444878365,-0.10284662269,-0.0049891412799999,0.3435691748,0.00375
08:29:43,-0.61195215,0.38736473,0.16695505,-0.37393691,0.04952038,0.1046498699999999,37.80393232,-20.18803125,3.62790703,-98.69444355,-0.2491890102999999,0.2698712461000001,0.6996970183,-0.10190304798,-0.0045867517599999,0.3418668116,0.00375
08:29:43,-0.613232475,0.3965526449999999,0.169166825,-0.371806215,0.04979737,0.104607255,37.80323318,-20.186213125,3.629121095,-98.664984575,-0.24988298095,0.2779472276500001,0.70494525295,-0.1009594732699999,-0.0041843622399999,0.3401644484,0.00375
08:29:43,-0.6145128000000001,0.40574056,0.1713786,-0.36967552,0.05007436,0.10456464,37.80253404,-20.184395,3.63033516,-98.6355256,-0.2505769516,0.2860232092000001,0.7101934876,-0.10001589856,-0.0037819727199999,0.3384620852,0.00375
08:29:43,-0.615793125,0.414928475,0.173590375,-0.3675448250000001,0.05035135,0.1045220249999999,37.8018349,-20.182576875,3.631549225,-98.606066625,-0.25127092225,0.2940991907500001,0.71544172225,-0.09907232385,-0.0033795831999999,0.336759722,0.00375
08:29:43,-0.61707345,0.4241163899999999,0.17580215,-0.36541413,0.05062834,0.10447941,37.80113576,-20.18075875,3.63276329,-98.57660765,-0.2519648929,0.3021751723000001,0.7206899569,-0.09812874914,-0.00297719368,0.3350573588,0.00375
08:29:43,-0.618353775,0.433304305,0.178013925,-0.363283435,0.05090533,0.104436795,37.80043662,-20.178940625,3.633977355,-98.547148675,-0.25265886355,0.3102511538500001,0.7259381915500001,-0.09718517443,-0.0025748041599999,0.3333549956,0.00375
08:29:43,-0.6196341000000001,0.4424922199999999,0.1802257,-0.36115274,0.05118232,0.10439418,37.79973748,-20.1771225,3.63519142,-98.5176897,-0.2533528342,0.3183271354000001,0.7311864262000001,-0.09624159972,-0.0021724146399999,0.3316526324,0.00375
08:29:43,-0.620914425,0.451680135,0.182437475,-0.359022045,0.05145931,0.104351565,37.79903834,-20.175304375,3.636405485,-98.488230725,-0.25404680485,0.3264031169500001,0.7364346608500001,-0.09529802501,-0.0017700251199999,0.3299502692,0.00375
08:29:43,-0.62219475,0.4608680499999999,0.18464925,-0.35689135,0.0517363,0.10430895,37.7983392,-20.17348625,3.63761955,-98.45877175,-0.2547407754999999,0.3344790985000001,0.7416828955,-0.0943544503,-0.0013676356,0.328247906,0.00375
08:29:43,-0.623475075,0.4700559649999999,0.186861025,-0.354760655,0.05201329,0.104266335,37.79764006,-20.171668125,3.638833615,-98.429312775,-0.25543474615,0.3425550800500001,0.74693113015,-0.09341087559,-0.0009652460799999,0.3265455428,0.00375
08:29:43,-0.6247554000000001,0.47924388,0.1890727999999999,-0.35262996,0.05229028,0.1042237199999999,37.79694092,-20.16985,3.64004768,-98.3998538,-0.2561287168,0.3506310616000001,0.7521793648,-0.0924673008799999,-0.0005628565599999,0.3248431796,0.00375
08:29:43,-0.626035725,0.4884317949999999,0.1912845749999999,-0.350499265,0.05256727,0.104181105,37.79624178,-20.168031875,3.641261745,-98.370394825,-0.25682268745,0.3587070431500001,0.7574275994499999,-0.09152372617,-0.0001604670399999,0.3231408164,0.00375
08:29:43,-0.62731605,0.49761971,0.1934963499999999,-0.34836857,0.05284426,0.10413849,37.79554264,-20.16621375,3.64247581,-98.34093585,-0.2575166580999999,0.3667830247000001,0.7626758341,-0.09058015146,0.00024192248,0.3214384532,0.00375
08:29:43,-0.6285963750000001,0.506807625,0.1957081249999999,-0.346237875,0.05312125,0.104095875,37.7948435,-20.164395625,3.643689875,-98.311476875,-0.25821062875,0.3748590062500001,0.76792406875,-0.08963657675,0.000644312,0.31973609,0.00375
08:29:43,-0.6298767000000001,0.51599554,0.1979198999999999,-0.34410718,0.05339824,0.10405326,37.79414436,-20.1625775,3.64490394,-98.2820179,-0.2589045994,0.3829349878000001,0.7731723034,-0.08869300204,0.00104670152,0.3180337267999999,0.00375
08:29:43,-0.631157025,0.5251834550000001,0.2001316749999999,-0.341976485,0.05367523,0.104010645,37.79344522,-20.160759375,3.646118005,-98.252558925,-0.25959857005,0.3910109693500001,0.77842053805,-0.0877494273299999,0.00144909104,0.3163313636,0.00375
08:29:43,-0.63243735,0.5343713699999999,0.2023434499999999,-0.33984579,0.05395222,0.10396803,37.79274608,-20.15894125,3.64733207,-98.22309995,-0.2602925406999999,0.3990869509000001,0.7836687727,-0.08680585262,0.00185148056,0.3146290003999999,0.00375
08:29:43,-0.633717675,0.543559285,0.2045552249999999,-0.337715095,0.05422921,0.103925415,37.79204694,-20.157123125,3.648546135,-98.193640975,-0.26098651135,0.4071629324500001,0.78891700735,-0.0858622779099999,0.00225387008,0.3129266372,0.00375
08:29:43,-0.6349980000000001,0.5527472,0.2067669999999999,-0.3355844,0.0545062,0.1038828,37.7913478,-20.155305,3.6497602,-98.164182,-0.261680482,0.4152389140000001,0.794165242,-0.0849187032,0.0026562595999999,0.3112242739999999,0.00375
08:29:43,-0.636278325,0.561935115,0.208978775,-0.333453705,0.05478319,0.103840185,37.79064866,-20.153486875,3.650974265,-98.134723025,-0.26237445265,0.4233148955500001,0.7994134766500001,-0.08397512849,0.00305864912,0.3095219108,0.00375
08:29:43,-0.63755865,0.5711230299999999,0.21119055,-0.33132301,0.05506018,0.1037975699999999,37.78994952,-20.15166875,3.65218833,-98.10526405,-0.2630684232999999,0.4313908771000001,0.8046617113000001,-0.08303155378,0.00346103864,0.3078195475999999,0.00375
08:29:43,-0.6388389750000001,0.5803109449999999,0.213402325,-0.329192315,0.05533717,0.103754955,37.78925038,-20.149850625,3.653402395,-98.075805075,-0.26376239395,0.4394668586500001,0.80990994595,-0.08208797907,0.0038634281599999,0.3061171844,0.00375
08:29:43,-0.6401193000000001,0.58949886,0.2156141,-0.32706162,0.05561416,0.10371234,37.78855124,-20.1480325,3.65461646,-98.0463461,-0.2644563646,0.4475428402000001,0.8151581806,-0.0811444043599999,0.00426581768,0.3044148211999999,0.00375
08:29:43,-0.641399625,0.598686775,0.217825875,-0.324930925,0.05589115,0.103669725,37.7878521,-20.146214375,3.655830525,-98.016887125,-0.26515033525,0.4556188217500001,0.82040641525,-0.08020082965,0.0046682072,0.302712458,0.00375
08:29:43,-0.64267995,0.60787469,0.22003765,-0.32280023,0.05616814,0.10362711,37.78715296,-20.14439625,3.65704459,-97.98742815,-0.2658443058999999,0.4636948033000001,0.8256546498999999,-0.07925725494,0.00507059672,0.3010100947999999,0.00375
08:29:43,-0.6439602750000001,0.6170626049999999,0.222249425,-0.320669535,0.05644513,0.103584495,37.78645382,-20.142578125,3.658258655,-97.957969175,-0.26653827655,0.4717707848500001,0.8309028845499999,-0.07831368023,0.00547298624,0.2993077316,0.00375
08:29:43,-0.6452406,0.6262505199999999,0.2244612,-0.31853884,0.05672212,0.10354188,37.78575468,-20.14076,3.65947272,-97.9285102,-0.2672322472,0.4798467664000001,0.8361511192,-0.07737010552,0.0058753757599999,0.2976053683999999,0.00375
08:29:43,-0.646520925,0.635438435,0.226672975,-0.316408145,0.05699911,0.103499265,37.78505554,-20.138941875,3.660686785,-97.899051225,-0.26792621785,0.4879227479500001,0.84139935385,-0.07642653081,0.00627776528,0.2959030052,0.00375
08:29:43,-0.64780125,0.64462635,0.22888475,-0.31427745,0.0572761,0.10345665,37.7843564,-20.13712375,3.66190085,-97.86959225,-0.2686201884999999,0.4959987295000001,0.8466475885,-0.0754829561,0.0066801548,0.294200642,0.00375
08:29:43,-0.6490815750000001,0.6538142650000001,0.231096525,-0.312146755,0.05755309,0.103414035,37.78365726,-20.135305625,3.663114915,-97.840133275,-0.26931415915,0.5040747110500001,0.85189582315,-0.0745393813899999,0.0070825443199999,0.2924982788,0.00375
08:29:43,-0.6503619,0.6630021799999999,0.2333083,-0.31001606,0.05783008,0.1033714199999999,37.78295812,-20.1334875,3.66432898,-97.8106743,-0.2700081298,0.5121506926000001,0.8571440578,-0.07359580668,0.00748493384,0.2907959156,0.00375
08:29:43,-0.651642225,0.6721900949999999,0.235520075,-0.307885365,0.05810707,0.103328805,37.78225898,-20.131669375,3.665543045,-97.781215325,-0.27070210045,0.5202266741500001,0.86239229245,-0.07265223197,0.00788732336,0.2890935524,0.00375
08:29:43,-0.65292255,0.68137801,0.23773185,-0.30575467,0.05838406,0.10328619,37.78155984,-20.12985125,3.66675711,-97.75175635,-0.2713960710999999,0.5283026557000001,0.8676405271000001,-0.07170865726,0.00828971288,0.2873911892,0.00375
08:29:43,-0.6542028750000001,0.690565925,0.239943625,-0.303623975,0.05866105,0.103243575,37.7808607,-20.128033125,3.667971175,-97.722297375,-0.2720900417499999,0.5363786372500001,0.8728887617500001,-0.07076508255,0.0086921024,0.285688826,0.00375
08:29:43,-0.6554832,0.6997538400000001,0.2421554,-0.30149328,0.05893804,0.10320096,37.78016156,-20.126215,3.66918524,-97.6928384,-0.2727840124,0.5444546188000002,0.8781369964000001,-0.0698215078399999,0.00909449192,0.2839864628,0.00375
08:29:43,-0.656763525,0.7089417549999999,0.244367175,-0.299362585,0.05921503,0.103158345,37.77946242,-20.124396875,3.670399305,-97.663379425,-0.27347798305,0.5525306003500002,0.8833852310500001,-0.06887793313,0.00949688144,0.2822840996,0.00375
08:29:43,-0.6580438500000001,0.7181296699999999,0.24657895,-0.29723189,0.05949202,0.10311573,37.77876328,-20.12257875,3.67161337,-97.63392045,-0.2741719536999999,0.5606065819000002,0.8886334656999999,-0.06793435842,0.00989927096,0.2805817364,0.00375
08:29:43,-0.6593241750000001,0.727317585,0.248790725,-0.295101195,0.05976901,0.1030731149999999,37.77806414,-20.120760625,3.672827435,-97.604461475,-0.27486592435,0.5686825634500002,0.8938817003499999,-0.06699078371,0.0103016604799999,0.2788793732,0.00375
08:29:43,-0.6606045,0.7365055,0.2510025,-0.2929705,0.060046,0.1030305,37.777365,-20.1189425,3.6740415,-97.5750025,-0.275559895,0.5767585450000002,0.8991299349999999,-0.066047209,0.01070405,0.27717701,0.00375
08:29:43,-0.661884825,0.7456934149999999,0.253214275,-0.290839805,0.06032299,0.102987885,37.77666586,-20.117124375,3.675255565,-97.545543525,-0.27625386565,0.5848345265500002,0.90437816965,-0.06510363429,0.01110643952,0.2754746468,0.00375
08:29:43,-0.66316515,0.7548813299999999,0.25542605,-0.28870911,0.06059998,0.1029452699999999,37.77596672,-20.11530625,3.67646963,-97.51608455,-0.2769478362999999,0.5929105081000002,0.9096264043,-0.06416005958,0.0115088290399999,0.2737722836,0.00375
08:29:43,-0.6644454750000001,0.764069245,0.257637825,-0.286578415,0.06087697,0.102902655,37.77526758,-20.113488125,3.677683695,-97.486625575,-0.2776418069499999,0.6009864896500002,0.91487463895,-0.0632164848699999,0.01191121856,0.2720699204,0.00375
08:29:43,-0.6657258,0.77325716,0.2598496,-0.28444772,0.06115396,0.10286004,37.77456844,-20.11167,3.67889776,-97.4571666,-0.2783357776,0.6090624712000002,0.9201228736,-0.06227291016,0.01231360808,0.2703675572,0.00375
08:29:43,-0.667006125,0.782445075,0.262061375,-0.282317025,0.06143095,0.1028174249999999,37.7738693,-20.109851875,3.680111825,-97.427707625,-0.27902974825,0.6171384527500002,0.92537110825,-0.0613293354499999,0.0127159976,0.268665194,0.00375
08:29:43,-0.6682864500000001,0.7916329899999999,0.26427315,-0.28018633,0.06170794,0.10277481,37.77317016,-20.10803375,3.68132589,-97.39824865,-0.2797237189,0.6252144343000002,0.9306193429,-0.06038576074,0.01311838712,0.2669628308,0.00375
08:29:43,-0.6695667750000001,0.8008209049999999,0.266484925,-0.278055635,0.06198493,0.102732195,37.77247102,-20.106215625,3.682539955,-97.368789675,-0.28041768955,0.6332904158500002,0.93586757755,-0.05944218603,0.01352077664,0.2652604676,0.00375
08:29:43,-0.6708471,0.81000882,0.2686967,-0.27592494,0.06226192,0.10268958,37.77177188,-20.1043975,3.68375402,-97.3393307,-0.2811116602,0.6413663974000002,0.9411158122,-0.05849861132,0.01392316616,0.2635581044,0.00375
08:29:43,-0.672127425,0.819196735,0.270908475,-0.273794245,0.06253891,0.1026469649999999,37.77107274,-20.102579375,3.684968085,-97.309871725,-0.28180563085,0.6494423789500002,0.94636404685,-0.05755503661,0.01432555568,0.2618557412,0.00375
08:29:43,-0.67340775,0.8283846500000001,0.27312025,-0.27166355,0.0628159,0.10260435,37.7703736,-20.10076125,3.68618215,-97.28041275,-0.2824996015,0.6575183605000002,0.9516122815,-0.0566114618999999,0.0147279451999999,0.260153378,0.00375
08:29:43,-0.674688075,0.8375725650000001,0.275332025,-0.269532855,0.06309289,0.102561735,37.76967446,-20.098943125,3.687396215,-97.250953775,-0.2831935721499999,0.6655943420500002,0.95686051615,-0.05566788719,0.01513033472,0.2584510148,0.00375
08:29:43,-0.6759684,0.8467604799999999,0.2775438,-0.26740216,0.06336988,0.1025191199999999,37.76897532,-20.097125,3.68861028,-97.2214948,-0.2838875427999999,0.6736703236000002,0.9621087508,-0.0547243124799999,0.01553272424,0.2567486516,0.00375
08:29:43,-0.677248725,0.855948395,0.279755575,-0.265271465,0.06364687,0.102476505,37.76827618,-20.095306875,3.689824345,-97.192035825,-0.28458151345,0.6817463051500002,0.96735698545,-0.05378073777,0.0159351137599999,0.2550462884,0.00375
08:29:43,-0.6785290500000001,0.86513631,0.28196735,-0.26314077,0.06392386,0.10243389,37.76757704,-20.09348875,3.69103841,-97.16257685,-0.2852754841,0.6898222867000002,0.9726052201,-0.05283716306,0.01633750328,0.2533439252,0.00375
08:29:43,-0.679809375,0.8743242250000001,0.284179125,-0.261010075,0.06420085,0.102391275,37.7668779,-20.091670625,3.692252475,-97.133117875,-0.2859694547499999,0.6978982682500002,0.97785345475,-0.05189358835,0.0167398928,0.251641562,0.00375
08:29:43,-0.6810897,0.8835121400000001,0.2863909,-0.25887938,0.06447784,0.10234866,37.76617876,-20.0898525,3.69346654,-97.1036589,-0.2866634254,0.7059742498000002,0.9831016894,-0.05095001364,0.01714228232,0.2499391988,0.00375
08:29:43,-0.682370025,0.8927000549999999,0.288602675,-0.256748685,0.06475483,0.102306045,37.76547962,-20.088034375,3.694680605,-97.074199925,-0.28735739605,0.7140502313500002,0.98834992405,-0.0500064389299999,0.01754467184,0.2482368356,0.00375
08:29:43,-0.6836503500000001,0.90188797,0.29081445,-0.25461799,0.06503182,0.10226343,37.76478048,-20.08621625,3.69589467,-97.04474095,-0.2880513667,0.7221262129000002,0.9935981587,-0.04906286422,0.01794706136,0.2465344724,0.00375
08:29:43,-0.684930675,0.911075885,0.293026225,-0.252487295,0.06530881,0.1022208149999999,37.76408134,-20.084398125,3.697108735,-97.015281975,-0.2887453373499999,0.7302021944500002,0.99884639335,-0.0481192895099999,0.01834945088,0.2448321092,0.00375
08:29:43,-0.686211,0.9202638,0.295238,-0.2503566,0.0655858,0.1021782,37.7633822,-20.08258,3.6983228,-96.985823,-0.2894393079999999,0.7382781760000002,1.004094628,-0.0471757148,0.0187518404,0.243129746,0.00375
08:29:43,-0.6874913250000001,0.929451715,0.2974497749999999,-0.248225905,0.06586279,0.102135585,37.76268306,-20.080761875,3.699536865,-96.956364025,-0.29013327865,0.7463541575500002,1.00934286265,-0.04623214009,0.0191542299199999,0.2414273828,0.00375
08:29:43,-0.6887716500000001,0.93863963,0.29966155,-0.24609521,0.06613978,0.1020929699999999,37.76198392,-20.07894375,3.70075093,-96.92690505,-0.2908272493,0.7544301391000002,1.0145910973,-0.0452885653799999,0.01955661944,0.2397250196,0.00375
08:29:43,-0.690051975,0.947827545,0.3018733249999999,-0.243964515,0.06641677,0.102050355,37.76128478,-20.077125625,3.701964995,-96.897446075,-0.2915212199499999,0.7625061206500002,1.01983933195,-0.04434499067,0.01995900896,0.2380226564,0.00375
08:29:43,-0.6913323,0.95701546,0.3040851,-0.24183382,0.06669376,0.10200774,37.76058564,-20.0753075,3.70317906,-96.8679871,-0.2922151906,0.7705821022000002,1.0250875666,-0.0434014159599999,0.02036139848,0.2363202932,0.00375
08:29:43,-0.692612625,0.966203375,0.3062968749999999,-0.239703125,0.06697075,0.1019651249999999,37.7598865,-20.073489375,3.704393125,-96.838528125,-0.29290916125,0.7786580837500002,1.03033580125,-0.04245784125,0.020763788,0.23461793,0.00375
08:29:43,-0.6938929500000001,0.97539129,0.30850865,-0.23757243,0.06724774,0.10192251,37.75918736,-20.07167125,3.70560719,-96.80906915,-0.2936031319,0.7867340653000002,1.0355840359,-0.04151426654,0.02116617752,0.2329155668,0.00375
08:29:43,-0.695173275,0.984579205,0.3107204249999999,-0.235441735,0.06752473,0.101879895,37.75848822,-20.069853125,3.706821255,-96.779610175,-0.2942971025499999,0.7948100468500002,1.04083227055,-0.04057069183,0.02156856704,0.2312132036,0.00375
08:29:43,-0.6964536,0.99376712,0.3129322,-0.23331104,0.06780172,0.10183728,37.75778908,-20.068035,3.70803532,-96.7501512,-0.2949910731999999,0.8028860284000002,1.0460805052,-0.03962711712,0.02197095656,0.2295108404,0.00375
08:29:43,-0.6977339250000001,1.002955035,0.315143975,-0.231180345,0.06807871,0.1017946649999999,37.75708994,-20.066216875,3.709249385,-96.720692225,-0.29568504385,0.8109620099500002,1.05132873985,-0.0386835424099999,0.02237334608,0.2278084772,0.00375
08:29:43,-0.6990142500000001,1.01214295,0.31735575,-0.22904965,0.0683557,0.10175205,37.7563908,-20.06439875,3.71046345,-96.69123325,-0.2963790145,0.8190379915000002,1.0565769745,-0.0377399677,0.0227757356,0.226106114,0.00375
08:29:43,-0.700294575,1.021330865,0.319567525,-0.226918955,0.06863269,0.101709435,37.75569166,-20.062580625,3.711677515,-96.661774275,-0.2970729851499999,0.8271139730500002,1.06182520915,-0.0367963929899999,0.02317812512,0.2244037508,0.00375
08:29:43,-0.7015749,1.03051878,0.3217793,-0.22478826,0.06890968,0.1016668199999999,37.75499252,-20.0607625,3.71289158,-96.6323153,-0.2977669558,0.8351899546000002,1.0670734438,-0.03585281828,0.0235805146399999,0.2227013876,0.00375
08:29:43,-0.702855225,1.039706695,0.323991075,-0.222657565,0.06918667,0.101624205,37.75429338,-20.058944375,3.714105645,-96.602856325,-0.29846092645,0.8432659361500002,1.07232167845,-0.03490924357,0.02398290416,0.2209990244,0.00375
08:29:43,-0.70413555,1.04889461,0.32620285,-0.22052687,0.06946366,0.10158159,37.75359424,-20.05712625,3.71531971,-96.57339735,-0.2991548971,0.8513419177000002,1.0775699131,-0.0339656688599999,0.02438529368,0.2192966612,0.00375
08:29:43,-0.705415875,1.058082525,0.328414625,-0.218396175,0.06974065,0.101538975,37.7528951,-20.055308125,3.716533775,-96.543938375,-0.2998488677499999,0.8594178992500002,1.08281814775,-0.0330220941499999,0.0247876832,0.217594298,0.00375
08:29:43,-0.7066962,1.06727044,0.3306264,-0.21626548,0.07001764,0.10149636,37.75219596,-20.05349,3.71774784,-96.5144794,-0.3005428383999999,0.8674938808000002,1.0880663824,-0.03207851944,0.02519007272,0.2158919348,0.00375
08:29:43,-0.7079765250000001,1.076458355,0.332838175,-0.214134785,0.07029463,0.101453745,37.75149682,-20.051671875,3.718961905,-96.485020425,-0.30123680905,0.8755698623500002,1.09331461705,-0.03113494473,0.02559246224,0.2141895716,0.00375
08:29:43,-0.70925685,1.08564627,0.33504995,-0.21200409,0.07057162,0.10141113,37.75079768,-20.04985375,3.72017597,-96.45556145,-0.3019307797,0.8836458439000002,1.0985628517,-0.0301913700199999,0.02599485176,0.2124872084,0.00375
08:29:43,-0.710537175,1.094834185,0.337261725,-0.209873395,0.07084861,0.1013685149999999,37.75009854,-20.048035625,3.721390035,-96.426102475,-0.3026247503499999,0.8917218254500002,1.10381108635,-0.0292477953099999,0.02639724128,0.2107848452,0.00375
08:29:43,-0.7118175,1.1040221,0.3394735,-0.2077427,0.0711256,0.1013259,37.7493994,-20.0462175,3.7226041,-96.3966435,-0.303318721,0.8997978070000002,1.109059321,-0.0283042206,0.0267996307999999,0.209082482,0.00375
08:29:43,-0.7130978250000001,1.113210015,0.341685275,-0.205612005,0.07140259,0.101283285,37.74870026,-20.044399375,3.723818165,-96.367184525,-0.30401269165,0.9078737885500002,1.11430755565,-0.02736064589,0.02720202032,0.2073801188,0.00375
08:29:43,-0.71437815,1.12239793,0.34389705,-0.20348131,0.0716795799999999,0.1012406699999999,37.74800112,-20.04258125,3.72503223,-96.33772555,-0.3047066623,0.9159497701000002,1.1195557903,-0.02641707118,0.02760440984,0.2056777556,0.00375
08:29:43,-0.715658475,1.131585845,0.346108825,-0.201350615,0.07195657,0.101198055,37.74730198,-20.040763125,3.726246295,-96.308266575,-0.30540063295,0.9240257516500002,1.12480402495,-0.0254734964699999,0.02800679936,0.2039753924,0.00375
08:29:43,-0.7169388000000001,1.14077376,0.3483206,-0.19921992,0.07223356,0.10115544,37.74660284,-20.038945,3.72746036,-96.2788076,-0.3060946035999999,0.9321017332000002,1.1300522596,-0.0245299217599999,0.02840918888,0.2022730292,0.00375
08:29:43,-0.7182191250000001,1.149961675,0.350532375,-0.197089225,0.07251055,0.1011128249999999,37.7459037,-20.037126875,3.728674425,-96.249348625,-0.3067885742499999,0.9401777147500002,1.13530049425,-0.02358634705,0.0288115784,0.200570666,0.00375
08:29:43,-0.71949945,1.15914959,0.35274415,-0.19495853,0.07278754,0.10107021,37.74520456,-20.03530875,3.72988849,-96.21988965,-0.3074825449,0.9482536963000002,1.1405487289,-0.02264277234,0.02921396792,0.1988683028,0.00375
08:29:43,-0.720779775,1.168337505,0.354955925,-0.192827835,0.07306453,0.101027595,37.74450542,-20.033490625,3.731102555,-96.190430675,-0.30817651555,0.9563296778500002,1.14579696355,-0.02169919763,0.02961635744,0.1971659396,0.00375
08:29:43,-0.7220601,1.17752542,0.3571677,-0.19069714,0.07334152,0.10098498,37.74380628,-20.0316725,3.73231662,-96.1609717,-0.3088704861999999,0.9644056594000002,1.1510451982,-0.0207556229199999,0.03001874696,0.1954635764,0.00375
08:29:43,-0.7233404250000001,1.186713335,0.359379475,-0.188566445,0.07361851,0.1009423649999999,37.74310714,-20.029854375,3.733530685,-96.131512725,-0.30956445685,0.9724816409500002,1.15629343285,-0.0198120482099999,0.03042113648,0.1937612132,0.00375
08:29:43,-0.72462075,1.19590125,0.36159125,-0.18643575,0.0738955,0.10089975,37.742408,-20.02803625,3.73474475,-96.10205375,-0.3102584275,0.9805576225000002,1.1615416675,-0.0188684735,0.030823526,0.19205885,0.00375
08:29:43,-0.725901075,1.205089165,0.363803025,-0.184305055,0.07417249,0.100857135,37.74170886,-20.026218125,3.735958815,-96.072594775,-0.31095239815,0.9886336040500002,1.16678990215,-0.01792489879,0.0312259155199999,0.1903564868,0.00375
08:29:43,-0.7271814000000001,1.21427708,0.3660148,-0.18217436,0.07444948,0.1008145199999999,37.74100972,-20.0244,3.73717288,-96.0431358,-0.3116463687999999,0.9967095856000002,1.1720381368,-0.01698132408,0.03162830504,0.1886541236,0.00375
08:29:43,-0.7284617250000001,1.223464995,0.368226575,-0.180043665,0.07472647,0.100771905,37.74031058,-20.022581875,3.738386945,-96.013676825,-0.3123403394499999,1.00478556715,1.17728637145,-0.0160377493699999,0.03203069456,0.1869517604,0.00375
08:29:43,-0.72974205,1.23265291,0.3704383499999999,-0.17791297,0.07500346,0.10072929,37.73961144,-20.02076375,3.73960101,-95.98421785,-0.3130343101,1.0128615487,1.1825346061,-0.0150941746599999,0.03243308408,0.1852493972,0.00375
08:29:43,-0.731022375,1.241840825,0.372650125,-0.175782275,0.07528045,0.100686675,37.7389123,-20.018945625,3.740815075,-95.954758875,-0.31372828075,1.02093753025,1.18778284075,-0.01415059995,0.0328354736,0.183547034,0.00375
08:29:43,-0.7323027,1.25102874,0.3748618999999999,-0.17365158,0.07555744,0.10064406,37.73821316,-20.0171275,3.74202914,-95.9252999,-0.3144222513999999,1.0290135118,1.1930310754,-0.01320702524,0.03323786312,0.1818446708,0.00375
08:29:43,-0.733583025,1.260216655,0.377073675,-0.171520885,0.07583443,0.100601445,37.73751402,-20.015309375,3.743243205,-95.895840925,-0.31511622205,1.03708949335,1.19827931005,-0.0122634505299999,0.0336402526399999,0.1801423076,0.00375
08:29:43,-0.73486335,1.26940457,0.3792854499999999,-0.16939019,0.07611142,0.10055883,37.73681488,-20.01349125,3.74445727,-95.86638195,-0.3158101927,1.0451654749,1.2035275447,-0.0113198758199999,0.03404264216,0.1784399444,0.00375
08:29:43,-0.736143675,1.278592485,0.381497225,-0.167259495,0.07638841,0.1005162149999999,37.73611574,-20.011673125,3.745671335,-95.836922975,-0.31650416335,1.05324145645,1.20877577935,-0.01037630111,0.03444503168,0.1767375812,0.00375
08:29:43,-0.7374240000000001,1.2877804,0.3837089999999999,-0.1651288,0.0766654,0.1004736,37.7354166,-20.009855,3.7468854,-95.807464,-0.3171981339999999,1.061317438,1.214024014,-0.0094327264,0.0348474211999999,0.175035218,0.00375
08:29:43,-0.738704325,1.296968315,0.385920775,-0.162998105,0.07694239,0.100430985,37.73471746,-20.008036875,3.748099465,-95.778005025,-0.3178921046499999,1.06939341955,1.21927224865,-0.00848915169,0.03524981072,0.1733328548,0.00375
08:29:43,-0.73998465,1.30615623,0.38813255,-0.16086741,0.07721938,0.1003883699999999,37.73401832,-20.00621875,3.74931353,-95.74854605,-0.3185860753,1.0774694011,1.2245204833,-0.0075455769799999,0.03565220024,0.1716304916,0.00375
08:29:43,-0.741264975,1.315344145,0.390344325,-0.158736715,0.07749637,0.100345755,37.73331918,-20.004400625,3.750527595,-95.719087075,-0.31928004595,1.08554538265,1.22976871795,-0.0066020022699999,0.0360545897599999,0.1699281284,0.00375
08:29:43,-0.7425453,1.32453206,0.3925561,-0.15660602,0.07777336,0.10030314,37.73262004,-20.0025825,3.75174166,-95.6896281,-0.3199740165999999,1.0936213642,1.2350169526,-0.00565842756,0.0364569792799999,0.1682257652,0.00375
08:29:43,-0.743825625,1.333719975,0.394767875,-0.154475325,0.07805035,0.100260525,37.7319209,-20.000764375,3.752955725,-95.660169125,-0.32066798725,1.10169734575,1.24026518725,-0.00471485285,0.0368593688,0.166523402,0.00375
08:29:43,-0.74510595,1.34290789,0.39697965,-0.15234463,0.07832734,0.10021791,37.73122176,-19.99894625,3.75416979,-95.63071015,-0.3213619579,1.1097733273,1.2455134219,-0.00377127814,0.0372617583199999,0.1648210387999999,0.00375
08:29:43,-0.7463862750000001,1.352095805,0.399191425,-0.150213935,0.07860433,0.100175295,37.73052262,-19.997128125,3.755383855,-95.601251175,-0.32205592855,1.11784930885,1.25076165655,-0.0028277034299999,0.0376641478399999,0.1631186755999999,0.00375
08:29:43,-0.7476666000000001,1.36128372,0.4014032,-0.14808324,0.07888132,0.10013268,37.72982348,-19.99531,3.75659792,-95.5717922,-0.3227498991999999,1.1259252904,1.2560098912,-0.0018841287199999,0.03806653736,0.1614163123999999,0.00375
08:29:43,-0.748946925,1.370471635,0.403614975,-0.145952545,0.07915831,0.1000900649999999,37.72912434,-19.993491875,3.757811985,-95.542333225,-0.3234438698499999,1.13400127195,1.26125812585,-0.00094055401,0.03846892688,0.1597139491999999,0.00375
08:29:43,-0.75022725,1.37965955,0.40582675,-0.14382185,0.0794353,0.10004745,37.7284252,-19.99167375,3.75902605,-95.51287425,-0.3241378405,1.1420772535,1.2665063605,3.0206999999948803e-06,0.0388713163999999,0.1580115859999999,0.00375
08:29:43,-0.751507575,1.388847465,0.408038525,-0.141691155,0.07971229,0.100004835,37.72772606,-19.989855625,3.760240115,-95.483415275,-0.32483181115,1.15015323505,1.27175459515,0.00094659541,0.03927370592,0.1563092227999999,0.00375
08:29:43,-0.7527879000000001,1.39803538,0.4102503,-0.13956046,0.07998928,0.0999622199999999,37.72702692,-19.9880375,3.76145418,-95.4539563,-0.3255257817999999,1.1582292166,1.2770028298,0.00189017012,0.03967609544,0.1546068595999999,0.00375
08:29:43,-0.754068225,1.407223295,0.412462075,-0.137429765,0.08026627,0.099919605,37.72632778,-19.986219375,3.762668245,-95.424497325,-0.32621975245,1.16630519815,1.28225106445,0.00283374483,0.0400784849599999,0.1529044963999999,0.00375
08:29:43,-0.75534855,1.41641121,0.41467385,-0.13529907,0.08054326,0.09987699,37.72562864,-19.98440125,3.76388231,-95.39503835,-0.3269137231,1.1743811797,1.2874992991,0.0037773195399999,0.04048087448,0.1512021331999999,0.00375
08:29:43,-0.7566288750000001,1.425599125,0.416885625,-0.133168375,0.08082025,0.099834375,37.7249295,-19.982583125,3.765096375,-95.365579375,-0.32760769375,1.18245716125,1.29274753375,0.0047208942499999,0.040883264,0.1494997699999999,0.00375
08:29:43,-0.7579092000000001,1.43478704,0.4190974,-0.13103768,0.08109724,0.09979176,37.72423036,-19.980765,3.76631044,-95.3361204,-0.3283016643999999,1.1905331428,1.2979957684,0.00566446896,0.0412856535199999,0.1477974067999999,0.00375
08:29:43,-0.759189525,1.443974955,0.421309175,-0.128906985,0.08137423,0.099749145,37.72353122,-19.978946875,3.767524505,-95.306661425,-0.3289956350499999,1.19860912435,1.30324400305,0.00660804367,0.04168804304,0.1460950435999999,0.00375
08:29:43,-0.76046985,1.45316287,0.42352095,-0.12677629,0.08165122,0.09970653,37.72283208,-19.97712875,3.76873857,-95.27720245,-0.3296896056999999,1.2066851059,1.3084922377,0.0075516183799999,0.04209043256,0.1443926803999999,0.00375
08:29:43,-0.761750175,1.462350785,0.425732725,-0.124645595,0.08192821,0.0996639149999999,37.72213294,-19.975310625,3.769952635,-95.247743475,-0.33038357635,1.21476108745,1.31374047235,0.0084951930899999,0.0424928220799999,0.1426903171999999,0.00375
08:29:43,-0.7630305000000001,1.4715387,0.4279445,-0.1225149,0.0822052,0.0996213,37.7214338,-19.9734925,3.7711667,-95.2182845,-0.3310775469999999,1.222837069,1.318988707,0.0094387677999999,0.0428952116,0.140987954,0.00375
08:29:43,-0.764310825,1.480726615,0.430156275,-0.120384205,0.08248219,0.099578685,37.72073466,-19.971674375,3.772380765,-95.188825525,-0.33177151765,1.23091305055,1.32423694165,0.01038234251,0.04329760112,0.1392855908,0.00375
08:29:43,-0.76559115,1.48991453,0.43236805,-0.11825351,0.08275918,0.0995360699999999,37.72003552,-19.96985625,3.77359483,-95.15936655,-0.3324654883,1.2389890321,1.3294851763,0.01132591722,0.0436999906399999,0.1375832276,0.00375
08:29:43,-0.7668714750000001,1.499102445,0.434579825,-0.1161228149999999,0.08303617,0.099493455,37.71933638,-19.968038125,3.774808895,-95.129907575,-0.33315945895,1.24706501365,1.33473341095,0.0122694919299999,0.0441023801599999,0.1358808644,0.00375
08:29:43,-0.7681518,1.50829036,0.4367916,-0.11399212,0.08331316,0.09945084,37.71863724,-19.96622,3.77602296,-95.1004486,-0.3338534296,1.2551409952,1.3399816456,0.0132130666399999,0.04450476968,0.1341785012,0.00375
08:29:43,-0.769432125,1.517478275,0.439003375,-0.111861425,0.08359015,0.0994082249999999,37.7179381,-19.964401875,3.777237025,-95.070989625,-0.3345474002499999,1.26321697675,1.34522988025,0.0141566413499999,0.0449071591999999,0.132476138,0.00375
08:29:43,-0.77071245,1.52666619,0.44121515,-0.10973073,0.08386714,0.09936561,37.71723896,-19.96258375,3.77845109,-95.04153065,-0.3352413708999999,1.2712929583,1.3504781149,0.01510021606,0.0453095487199999,0.1307737748,0.00375
08:29:43,-0.771992775,1.535854105,0.4434269249999999,-0.107600035,0.08414413,0.099322995,37.71653982,-19.960765625,3.779665155,-95.012071675,-0.33593534155,1.27936893985,1.35572634955,0.01604379077,0.04571193824,0.1290714116,0.00375
08:29:43,-0.7732731,1.54504202,0.4456387,-0.10546934,0.08442112,0.09928038,37.71584068,-19.9589475,3.78087922,-94.9826127,-0.3366293122,1.2874449214,1.3609745842,0.0169873654799999,0.04611432776,0.1273690484,0.00375
08:29:43,-0.774553425,1.554229935,0.4478504749999999,-0.103338645,0.08469811,0.0992377649999999,37.71514154,-19.957129375,3.782093285,-94.953153725,-0.33732328285,1.29552090295,1.36622281885,0.0179309401899999,0.0465167172799999,0.1256666852,0.00375
08:29:43,-0.77583375,1.56341785,0.45006225,-0.1012079499999999,0.0849751,0.09919515,37.7144424,-19.95531125,3.78330735,-94.92369475,-0.3380172535,1.3035968845,1.3714710535,0.0188745149,0.0469191068,0.123964322,0.00375
08:29:43,-0.7771140750000001,1.572605765,0.4522740249999999,-0.099077255,0.08525209,0.099152535,37.71374326,-19.953493125,3.784521415,-94.894235775,-0.33871122415,1.31167286605,1.37671928815,0.01981808961,0.04732149632,0.1222619588,0.00375
08:29:43,-0.7783944,1.58179368,0.4544858,-0.09694656,0.08552908,0.0991099199999999,37.71304412,-19.951675,3.78573548,-94.8647768,-0.3394051948,1.3197488476000003,1.3819675228,0.02076166432,0.0477238858399999,0.1205595956,0.00375
08:29:43,-0.779674725,1.590981595,0.456697575,-0.094815865,0.08580607,0.099067305,37.71234498,-19.949856875,3.786949545,-94.835317825,-0.3400991654499999,1.3278248291500003,1.38721575745,0.0217052390299999,0.04812627536,0.1188572324,0.00375
08:29:43,-0.78095505,1.60016951,0.45890935,-0.09268517,0.08608306,0.09902469,37.71164584,-19.94803875,3.78816361,-94.80585885,-0.3407931360999999,1.3359008107000003,1.3924639921000002,0.0226488137399999,0.04852866488,0.1171548692,0.00375
08:29:43,-0.7822353750000001,1.609357425,0.461121125,-0.090554475,0.08636005,0.098982075,37.7109467,-19.946220625,3.789377675,-94.776399875,-0.3414871067499999,1.3439767922500003,1.3977122267500002,0.02359238845,0.0489310543999999,0.115452506,0.00375
08:29:43,-0.7835157,1.61854534,0.4633329,-0.08842378,0.08663704,0.0989394599999999,37.71024756,-19.9444025,3.79059174,-94.7469409,-0.3421810774,1.3520527738000003,1.4029604614,0.02453596316,0.04933344392,0.1137501428,0.00375
08:29:43,-0.784796025,1.627733255,0.465544675,-0.0862930849999999,0.08691403,0.098896845,37.70954842,-19.942584375,3.791805805,-94.717481925,-0.3428750480499999,1.3601287553500003,1.40820869605,0.0254795378699999,0.04973583344,0.1120477796,0.00375
08:29:43,-0.7860763500000001,1.63692117,0.46775645,-0.08416239,0.08719102,0.09885423,37.70884928,-19.94076625,3.79301987,-94.68802295,-0.3435690187,1.3682047369000003,1.4134569307,0.0264231125799999,0.0501382229599999,0.1103454164,0.00375
08:29:43,-0.7873566750000001,1.646109085,0.469968225,-0.082031695,0.08746801,0.0988116149999999,37.70815014,-19.938948125,3.794233935,-94.658563975,-0.34426298935,1.3762807184500003,1.41870516535,0.0273666872899999,0.05054061248,0.1086430532,0.00375
08:29:44,-0.788637,1.655297,0.47218,-0.079901,0.087745,0.098769,37.707451,-19.93713,3.795448,-94.629105,-0.34495696,1.3843567,1.4239534,0.028310262,0.050943002,0.10694069,0.00375
08:29:44,-0.7856621300000001,1.65164149,0.4746313649999999,-0.08321956,0.088506725,0.097719635,37.702729855,-19.910117575,3.792967915,-94.628847575,-0.3407216543999999,1.38081769615,1.4198893432,0.02549929169,0.05149457789,0.11021754955,0.00375
08:29:44,-0.78268726,1.64798598,0.47708273,-0.08653812,0.08926845,0.09667027,37.69800871,-19.88310515,3.79048783,-94.62859015,-0.3364863488,1.3772786923,1.4158252864,0.02268832138,0.05204615378,0.1134944091,0.00375
08:29:44,-0.77971239,1.64433047,0.479534095,-0.08985668,0.090030175,0.0956209049999999,37.693287565,-19.856092725,3.788007745,-94.628332725,-0.3322510432,1.3737396884500002,1.4117612296,0.01987735107,0.05259772967,0.11677126865,0.00375
08:29:44,-0.7767375200000001,1.64067496,0.48198546,-0.0931752399999999,0.0907919,0.09457154,37.68856642,-19.8290803,3.78552766,-94.6280753,-0.3280157375999999,1.3702006846,1.4076971728,0.01706638076,0.05314930556,0.1200481282,0.00375
08:29:44,-0.77376265,1.63701945,0.484436825,-0.0964937999999999,0.091553625,0.093522175,37.683845275,-19.802067875,3.783047575,-94.627817875,-0.3237804319999999,1.36666168075,1.403633116,0.0142554104499999,0.05370088145,0.12332498775,0.00375
08:29:44,-0.77078778,1.63336394,0.48688819,-0.09981236,0.09231535,0.09247281,37.67912413,-19.77505545,3.78056749,-94.62756045,-0.3195451264,1.3631226769,1.3995690592,0.01144444014,0.05425245734,0.1266018473,0.00375
08:29:44,-0.7678129100000001,1.62970843,0.489339555,-0.10313092,0.093077075,0.0914234449999999,37.674402985,-19.748043025,3.778087405,-94.627303025,-0.3153098208,1.3595836730500002,1.3955050024,0.00863346983,0.05480403323,0.12987870685,0.00375
08:29:44,-0.76483804,1.62605292,0.4917909199999999,-0.10644948,0.0938388,0.09037408,37.66968184,-19.7210306,3.77560732,-94.6270456,-0.3110745151999999,1.3560446692,1.3914409456,0.00582249952,0.05535560912,0.1331555664,0.00375
08:29:44,-0.76186317,1.62239741,0.494242285,-0.10976804,0.094600525,0.089324715,37.664960695,-19.694018175,3.773127235,-94.626788175,-0.3068392096,1.35250566535,1.3873768888,0.0030115292099999,0.05590718501,0.13643242595,0.00375
08:29:44,-0.7588883000000001,1.6187419,0.49669365,-0.1130866,0.09536225,0.08827535,37.66023955,-19.66700575,3.77064715,-94.62653075,-0.302603904,1.3489666615,1.383312832,0.0002005588999999,0.0564587609,0.1397092855,0.00375
08:29:44,-0.75591343,1.61508639,0.4991450149999999,-0.11640516,0.096123975,0.0872259849999999,37.655518405,-19.639993325,3.768167065,-94.626273325,-0.2983685983999999,1.3454276576500002,1.3792487752,-0.0026104114099999,0.05701033679,0.14298614505,0.00375
08:29:44,-0.75293856,1.61143088,0.50159638,-0.11972372,0.0968857,0.08617662,37.65079726,-19.6129809,3.76568698,-94.6260159,-0.2941332928,1.3418886538,1.3751847184,-0.0054213817199999,0.05756191268,0.1462630046,0.00375
08:29:44,-0.7499636900000001,1.60777537,0.504047745,-0.12304228,0.097647425,0.085127255,37.646076115,-19.585968475,3.763206895,-94.625758475,-0.2898979872,1.33834964995,1.3711206616,-0.0082323520299999,0.05811348857,0.14953986415,0.00375
08:29:44,-0.74698882,1.60411986,0.50649911,-0.12636084,0.09840915,0.08407789,37.64135497,-19.55895605,3.76072681,-94.62550105,-0.2856626815999999,1.3348106461,1.3670566048,-0.0110433223399999,0.05866506446,0.1528167237,0.00375
08:29:44,-0.74401395,1.60046435,0.508950475,-0.1296794,0.099170875,0.0830285249999999,37.636633825,-19.531943625,3.758246725,-94.625243625,-0.281427376,1.3312716422500002,1.362992548,-0.0138542926499999,0.05921664035,0.15609358325,0.00375
08:29:44,-0.7410390800000001,1.59680884,0.51140184,-0.13299796,0.0999326,0.08197916,37.63191268,-19.5049312,3.75576664,-94.6249862,-0.2771920704,1.3277326384,1.3589284912,-0.01666526296,0.05976821624,0.1593704428,0.00375
08:29:44,-0.73806421,1.59315333,0.513853205,-0.13631652,0.100694325,0.080929795,37.627191535,-19.477918775,3.753286555,-94.624728775,-0.2729567648,1.32419363455,1.3548644344,-0.01947623327,0.06031979213,0.16264730235,0.00375
08:29:44,-0.73508934,1.58949782,0.51630457,-0.13963508,0.10145605,0.07988043,37.62247039,-19.45090635,3.75080647,-94.62447135,-0.2687214591999999,1.3206546307,1.3508003776,-0.02228720358,0.06087136802,0.1659241619,0.00375
08:29:44,-0.7321144700000001,1.58584231,0.518755935,-0.14295364,0.102217775,0.078831065,37.617749245,-19.423893925,3.748326385,-94.624213925,-0.2644861536,1.3171156268500002,1.3467363208,-0.02509817389,0.06142294391,0.16920102145,0.00375
08:29:44,-0.7291396,1.5821868,0.5212073,-0.1462722,0.1029795,0.0777817,37.6130281,-19.3968815,3.7458463,-94.6239565,-0.260250848,1.313576623,1.342672264,-0.0279091442,0.0619745198,0.172477881,0.00375
08:29:44,-0.72616473,1.57853129,0.523658665,-0.14959076,0.103741225,0.076732335,37.608306955,-19.369869075,3.743366215,-94.623699075,-0.2560155423999999,1.31003761915,1.3386082072,-0.0307201145099999,0.06252609569,0.17575474055,0.00375
08:29:44,-0.7231898600000001,1.57487578,0.52611003,-0.15290932,0.10450295,0.07568297,37.60358581,-19.34285665,3.74088613,-94.62344165,-0.2517802367999999,1.3064986153,1.3345441504,-0.03353108482,0.06307767158,0.1790316001,0.00375
08:29:44,-0.72021499,1.57122027,0.528561395,-0.1562278799999999,0.105264675,0.0746336049999999,37.598864665,-19.315844225,3.738406045,-94.623184225,-0.2475449311999999,1.3029596114500002,1.3304800936,-0.0363420551299999,0.06362924747,0.1823084596499999,0.00375
08:29:44,-0.71724012,1.56756476,0.53101276,-0.15954644,0.1060264,0.07358424,37.59414352,-19.2888318,3.73592596,-94.6229268,-0.2433096255999999,1.2994206076,1.3264160368,-0.0391530254399999,0.06418082336,0.1855853192,0.00375
08:29:44,-0.7142652500000001,1.56390925,0.533464125,-0.1628649999999999,0.106788125,0.072534875,37.589422375,-19.261819375,3.733445875,-94.622669375,-0.2390743199999999,1.29588160375,1.32235198,-0.04196399575,0.06473239925,0.18886217875,0.00375
08:29:44,-0.71129038,1.56025374,0.53591549,-0.16618356,0.10754985,0.07148551,37.58470123,-19.23480695,3.73096579,-94.62241195,-0.2348390144,1.2923425999,1.3182879232,-0.0447749660599999,0.06528397514,0.1921390383,0.00375
08:29:44,-0.70831551,1.55659823,0.538366855,-0.1695021199999999,0.108311575,0.070436145,37.579980085,-19.207794525,3.728485705,-94.622154525,-0.2306037087999999,1.2888035960500002,1.3142238664,-0.04758593637,0.06583555103,0.19541589785,0.00375
08:29:44,-0.7053406400000001,1.55294272,0.54081822,-0.17282068,0.1090733,0.06938678,37.57525894,-19.1807821,3.72600562,-94.6218971,-0.2263684031999999,1.2852645922,1.3101598096,-0.0503969066799999,0.06638712692,0.1986927573999999,0.00375
08:29:44,-0.70236577,1.54928721,0.543269585,-0.17613924,0.109835025,0.068337415,37.570537795,-19.153769675,3.723525535,-94.621639675,-0.2221330975999999,1.28172558835,1.3060957528,-0.05320787699,0.06693870281,0.2019696169499999,0.00375
08:29:44,-0.6993909,1.5456317,0.54572095,-0.1794578,0.11059675,0.06728805,37.56581665,-19.12675725,3.72104545,-94.62138225,-0.2178977919999999,1.2781865845,1.302031696,-0.0560188472999999,0.0674902787,0.2052464765,0.00375
08:29:44,-0.6964160300000001,1.54197619,0.548172315,-0.18277636,0.111358475,0.0662386849999999,37.561095505,-19.099744825,3.718565365,-94.621124825,-0.2136624863999999,1.2746475806500002,1.2979676392,-0.05882981761,0.06804185459,0.20852333605,0.00375
08:29:44,-0.69344116,1.53832068,0.55062368,-0.18609492,0.1121202,0.06518932,37.55637436,-19.0727324,3.71608528,-94.6208674,-0.2094271807999999,1.2711085768,1.2939035824,-0.0616407879199999,0.06859343048,0.2118001956,0.00375
08:29:44,-0.69046629,1.53466517,0.5530750449999999,-0.18941348,0.112881925,0.064139955,37.551653215,-19.045719975,3.713605195,-94.620609975,-0.2051918751999999,1.26756957295,1.2898395256,-0.0644517582299999,0.06914500637,0.2150770551499999,0.00375
08:29:44,-0.6874914200000001,1.53100966,0.55552641,-0.19273204,0.11364365,0.06309059,37.54693207,-19.01870755,3.71112511,-94.62035255,-0.2009565695999999,1.2640305691,1.2857754688,-0.06726272854,0.06969658226,0.2183539146999999,0.00375
08:29:44,-0.68451655,1.52735415,0.557977775,-0.1960506,0.114405375,0.062041225,37.542210925,-18.991695125,3.708645025,-94.620095125,-0.1967212639999999,1.2604915652500002,1.281711412,-0.0700736988499999,0.07024815815,0.22163077425,0.00375
08:29:44,-0.68154168,1.52369864,0.56042914,-0.19936916,0.1151671,0.06099186,37.53748978,-18.9646827,3.70616494,-94.6198377,-0.1924859583999999,1.2569525614,1.2776473552,-0.07288466916,0.07079973404,0.2249076338,0.00375
08:29:44,-0.6785668100000001,1.52004313,0.562880505,-0.20268772,0.115928825,0.059942495,37.532768635,-18.937670275,3.703684855,-94.619580275,-0.1882506527999999,1.25341355755,1.2735832984,-0.0756956394699999,0.07135130993,0.22818449335,0.00375
08:29:44,-0.67559194,1.51638762,0.56533187,-0.2060062799999999,0.11669055,0.05889313,37.52804749,-18.91065785,3.70120477,-94.61932285,-0.1840153471999999,1.2498745537,1.2695192416,-0.07850660978,0.07190288582,0.2314613528999999,0.00375
08:29:44,-0.67261707,1.51273211,0.567783235,-0.2093248399999999,0.117452275,0.057843765,37.523326345,-18.883645425,3.698724685,-94.619065425,-0.1797800415999999,1.2463355498500002,1.2654551848,-0.08131758009,0.07245446171,0.2347382124499999,0.00375
08:29:44,-0.6696422,1.5090766,0.5702346,-0.2126433999999999,0.118214,0.0567944,37.5186052,-18.856633,3.6962446,-94.618808,-0.1755447359999999,1.242796546,1.261391128,-0.0841285504,0.0730060376,0.238015072,0.00375
08:29:44,-0.66666733,1.50542109,0.572685965,-0.21596196,0.118975725,0.055745035,37.513884055,-18.829620575,3.693764515,-94.618550575,-0.1713094303999999,1.23925754215,1.2573270712,-0.08693952071,0.07355761349,0.2412919315499999,0.00375
08:29:44,-0.66369246,1.50176558,0.57513733,-0.21928052,0.11973745,0.05469567,37.50916291,-18.80260815,3.69128443,-94.61829315,-0.1670741247999999,1.2357185383,1.2532630144,-0.0897504910199999,0.07410918938,0.2445687911,0.00375
08:29:44,-0.66071759,1.49811007,0.577588695,-0.22259908,0.120499175,0.053646305,37.504441765,-18.775595725,3.688804345,-94.618035725,-0.1628388191999999,1.2321795344500002,1.2491989576,-0.09256146133,0.07466076527,0.24784565065,0.00375
08:29:44,-0.65774272,1.49445456,0.58004006,-0.22591764,0.1212609,0.05259694,37.49972062,-18.7485833,3.68632426,-94.6177783,-0.1586035135999999,1.2286405306,1.2451349008,-0.0953724316399999,0.07521234116,0.2511225102,0.00375
08:29:44,-0.65476785,1.49079905,0.582491425,-0.2292362,0.122022625,0.051547575,37.494999475,-18.721570875,3.683844175,-94.617520875,-0.1543682079999999,1.22510152675,1.241070844,-0.09818340195,0.07576391705,0.25439936975,0.00375
08:29:44,-0.65179298,1.48714354,0.5849427899999999,-0.23255476,0.12278435,0.05049821,37.49027833,-18.69455845,3.68136409,-94.61726345,-0.1501329023999999,1.2215625229,1.2370067872,-0.1009943722599999,0.07631549294,0.2576762293,0.00375
08:29:44,-0.64881811,1.48348803,0.587394155,-0.23587332,0.123546075,0.049448845,37.485557185,-18.667546025,3.678884005,-94.617006025,-0.1458975967999999,1.2180235190500002,1.2329427304,-0.1038053425699999,0.07686706883,0.26095308885,0.00375
08:29:44,-0.64584324,1.47983252,0.58984552,-0.23919188,0.1243078,0.04839948,37.48083604,-18.6405336,3.67640392,-94.6167486,-0.1416622911999999,1.2144845152,1.2288786736,-0.1066163128799999,0.07741864472,0.2642299483999999,0.00375
08:29:44,-0.64286837,1.47617701,0.592296885,-0.24251044,0.125069525,0.047350115,37.476114895,-18.613521175,3.673923835,-94.616491175,-0.1374269855999999,1.21094551135,1.2248146168,-0.10942728319,0.07797022061,0.26750680795,0.00375
08:29:44,-0.6398935,1.4725215,0.59474825,-0.245829,0.12583125,0.04630075,37.47139375,-18.58650875,3.67144375,-94.61623375,-0.1331916799999999,1.2074065075,1.22075056,-0.1122382535,0.0785217965,0.2707836675,0.00375
08:29:44,-0.63691863,1.46886599,0.597199615,-0.24914756,0.126592975,0.045251385,37.466672605,-18.559496325,3.668963665,-94.615976325,-0.1289563743999999,1.2038675036500002,1.2166865032,-0.1150492238099999,0.07907337239,0.2740605270499999,0.00375
08:29:44,-0.63394376,1.46521048,0.5996509800000001,-0.25246612,0.1273547,0.04420202,37.46195146,-18.5324839,3.66648358,-94.6157189,-0.1247210687999999,1.2003284998,1.2126224464,-0.1178601941199999,0.07962494828,0.2773373865999999,0.00375
08:29:44,-0.63096889,1.46155497,0.602102345,-0.25578468,0.128116425,0.043152655,37.457230315,-18.505471475,3.664003495,-94.615461475,-0.1204857631999999,1.19678949595,1.2085583896,-0.12067116443,0.08017652417,0.2806142461499999,0.00375
08:29:44,-0.62799402,1.45789946,0.60455371,-0.2591032399999999,0.12887815,0.04210329,37.45250917,-18.47845905,3.66152341,-94.61520405,-0.1162504575999999,1.1932504921,1.2044943328,-0.12348213474,0.08072810006,0.2838911057,0.00375
08:29:44,-0.62501915,1.45424395,0.607005075,-0.2624218,0.129639875,0.041053925,37.447788025,-18.451446625,3.659043325,-94.614946625,-0.1120151519999999,1.1897114882500002,1.200430276,-0.12629310505,0.08127967595,0.28716796525,0.00375
08:29:44,-0.62204428,1.45058844,0.60945644,-0.26574036,0.1304016,0.04000456,37.44306688,-18.4244342,3.65656324,-94.6146892,-0.1077798463999999,1.1861724844,1.1963662192,-0.12910407536,0.08183125184,0.2904448248,0.00375
08:29:44,-0.61906941,1.44693293,0.611907805,-0.26905892,0.131163325,0.038955195,37.438345735,-18.397421775,3.654083155,-94.614431775,-0.1035445407999999,1.18263348055,1.1923021624,-0.1319150456699999,0.08238282773,0.29372168435,0.00375
08:29:44,-0.61609454,1.44327742,0.61435917,-0.27237748,0.13192505,0.03790583,37.43362459,-18.37040935,3.65160307,-94.61417435,-0.0993092351999999,1.1790944767,1.1882381056,-0.13472601598,0.08293440362,0.2969985438999999,0.00375
08:29:44,-0.61311967,1.43962191,0.6168105349999999,-0.27569604,0.132686775,0.036856465,37.428903445,-18.343396925,3.649122985,-94.613916925,-0.0950739295999999,1.1755554728500002,1.1841740488,-0.13753698629,0.08348597951,0.30027540345,0.00375
08:29:44,-0.6101448,1.4359664,0.6192619,-0.2790146,0.1334485,0.0358071,37.4241823,-18.3163845,3.6466429,-94.6136595,-0.0908386239999999,1.172016469,1.180109992,-0.1403479566,0.0840375554,0.303552263,0.00375
08:29:44,-0.60716993,1.43231089,0.621713265,-0.2823331599999999,0.134210225,0.034757735,37.419461155,-18.289372075,3.644162815,-94.613402075,-0.0866033183999999,1.16847746515,1.1760459352,-0.1431589269099999,0.08458913129,0.3068291225499999,0.00375
08:29:44,-0.60419506,1.42865538,0.62416463,-0.28565172,0.13497195,0.03370837,37.41474001,-18.26235965,3.64168273,-94.61314465,-0.0823680127999999,1.1649384613,1.1719818784,-0.14596989722,0.08514070718,0.3101059820999999,0.00375
08:29:44,-0.60122019,1.42499987,0.626615995,-0.28897028,0.135733675,0.032659005,37.410018865,-18.235347225,3.639202645,-94.612887225,-0.0781327071999999,1.1613994574500002,1.1679178216,-0.14878086753,0.08569228307,0.3133828416499999,0.00375
08:29:44,-0.59824532,1.42134436,0.62906736,-0.29228884,0.1364954,0.03160964,37.40529772,-18.2083348,3.63672256,-94.6126298,-0.0738974015999999,1.1578604536,1.1638537648,-0.15159183784,0.08624385896,0.3166597012,0.00375
08:29:44,-0.59527045,1.41768885,0.6315187250000001,-0.2956073999999999,0.137257125,0.030560275,37.400576575,-18.181322375,3.634242475,-94.612372375,-0.0696620959999999,1.15432144975,1.159789708,-0.15440280815,0.08679543485,0.31993656075,0.00375
08:29:44,-0.59229558,1.41403334,0.63397009,-0.29892596,0.13801885,0.02951091,37.39585543,-18.15430995,3.63176239,-94.61211495,-0.0654267903999999,1.1507824459,1.1557256512,-0.1572137784599999,0.08734701074,0.3232134203,0.00375
08:29:44,-0.58932071,1.41037783,0.636421455,-0.30224452,0.138780575,0.028461545,37.391134285,-18.127297525,3.629282305,-94.611857525,-0.0611914847999999,1.1472434420500002,1.1516615944000002,-0.16002474877,0.08789858663,0.32649027985,0.00375
08:29:44,-0.58634584,1.40672232,0.63887282,-0.30556308,0.1395423,0.02741218,37.38641314,-18.1002851,3.62680222,-94.6116001,-0.0569561791999999,1.1437044382,1.1475975376,-0.16283571908,0.08845016252,0.3297671393999999,0.00375
08:29:44,-0.58337097,1.40306681,0.641324185,-0.3088816399999999,0.140304025,0.026362815,37.381691995,-18.073272675,3.624322135,-94.611342675,-0.0527208735999999,1.14016543435,1.1435334808,-0.16564668939,0.08900173841,0.33304399895,0.00375
08:29:44,-0.5803961,1.3994113,0.64377555,-0.3122002,0.14106575,0.02531345,37.37697085,-18.04626025,3.62184205,-94.61108525,-0.0484855679999999,1.1366264305,1.139469424,-0.1684576596999999,0.0895533143,0.3363208585,0.00375
08:29:44,-0.57742123,1.39575579,0.646226915,-0.31551876,0.141827475,0.024264085,37.372249705,-18.019247825,3.619361965,-94.610827825,-0.0442502623999999,1.13308742665,1.1354053672,-0.17126863001,0.09010489019,0.3395977180499999,0.00375
08:29:44,-0.57444636,1.39210028,0.6486782799999999,-0.31883732,0.1425892,0.02321472,37.36752856,-17.9922354,3.61688188,-94.6105704,-0.0400149567999999,1.1295484228,1.1313413104,-0.17407960032,0.09065646608,0.3428745775999999,0.00375
08:29:44,-0.57147149,1.38844477,0.6511296449999999,-0.32215588,0.143350925,0.022165355,37.362807415,-17.965222975,3.614401795,-94.610312975,-0.0357796511999999,1.12600941895,1.1272772536,-0.17689057063,0.09120804197,0.3461514371499999,0.00375
08:29:44,-0.56849662,1.38478926,0.65358101,-0.32547444,0.14411265,0.02111599,37.35808627,-17.93821055,3.61192171,-94.61005555,-0.0315443455999999,1.1224704151,1.1232131968,-0.17970154094,0.09175961786,0.3494282967,0.00375
08:29:44,-0.56552175,1.38113375,0.656032375,-0.328793,0.144874375,0.020066625,37.353365125,-17.911198125,3.609441625,-94.609798125,-0.0273090399999999,1.1189314112500002,1.11914914,-0.1825125112499999,0.09231119375,0.35270515625,0.00375
08:29:44,-0.56254688,1.37747824,0.65848374,-0.33211156,0.1456361,0.01901726,37.34864398,-17.8841857,3.60696154,-94.6095407,-0.0230737343999999,1.1153924074,1.1150850832,-0.18532348156,0.09286276964,0.3559820158,0.00375
08:29:44,-0.55957201,1.37382273,0.660935105,-0.33543012,0.146397825,0.017967895,37.343922835,-17.857173275,3.604481455,-94.609283275,-0.0188384287999999,1.11185340355,1.1110210264,-0.18813445187,0.09341434553,0.3592588753499999,0.00375
08:29:44,-0.55659714,1.37016722,0.6633864700000001,-0.3387486799999999,0.14715955,0.01691853,37.33920169,-17.83016085,3.60200137,-94.60902585,-0.0146031231999999,1.1083143997,1.1069569696,-0.19094542218,0.09396592142,0.3625357348999999,0.00375
08:29:44,-0.55362227,1.36651171,0.665837835,-0.34206724,0.147921275,0.015869165,37.334480545,-17.803148425,3.599521285,-94.608768425,-0.0103678175999999,1.10477539585,1.1028929128,-0.1937563924899999,0.09451749731,0.36581259445,0.00375
08:29:44,-0.5506474,1.3628562,0.6682892,-0.3453857999999999,0.148683,0.0148198,37.3297594,-17.776136,3.5970412,-94.608511,-0.0061325119999999,1.101236392,1.098828856,-0.1965673628,0.0950690732,0.369089454,0.00375
08:29:44,-0.54767253,1.35920069,0.670740565,-0.34870436,0.149444725,0.013770435,37.325038255,-17.749123575,3.594561115,-94.608253575,-0.0018972063999999,1.09769738815,1.0947647992,-0.19937833311,0.09562064909,0.37236631355,0.00375
08:29:44,-0.54469766,1.35554518,0.67319193,-0.35202292,0.15020645,0.01272107,37.32031711,-17.72211115,3.59208103,-94.60799615,0.0023380992,1.0941583843,1.0907007424,-0.20218930342,0.09617222498,0.3756431730999999,0.00375
08:29:44,-0.54172279,1.35188967,0.675643295,-0.35534148,0.1509681749999999,0.011671705,37.315595965,-17.695098725,3.589600945,-94.607738725,0.0065734048,1.0906193804500002,1.0866366856,-0.20500027373,0.09672380087,0.3789200326499999,0.00375
08:29:44,-0.53874792,1.34823416,0.67809466,-0.35866004,0.1517299,0.01062234,37.31087482,-17.6680863,3.58712086,-94.6074813,0.0108087104,1.0870803766,1.0825726288,-0.2078112440399999,0.09727537676,0.3821968921999999,0.00375
08:29:44,-0.53577305,1.34457865,0.6805460249999999,-0.3619786,0.152491625,0.009572975,37.306153675,-17.641073875,3.584640775,-94.607223875,0.015044016,1.08354137275,1.078508572,-0.21062221435,0.09782695265,0.38547375175,0.00375
08:29:44,-0.53279818,1.34092314,0.6829973899999999,-0.36529716,0.15325335,0.00852361,37.30143253,-17.61406145,3.58216069,-94.60696645,0.0192793216,1.0800023689,1.0744445152,-0.21343318466,0.09837852854,0.3887506113,0.00375
08:29:44,-0.52982331,1.33726763,0.685448755,-0.36861572,0.154015075,0.007474245,37.296711385,-17.587049025,3.579680605,-94.606709025,0.0235146272,1.07646336505,1.0703804584,-0.21624415497,0.09893010443,0.3920274708499999,0.00375
08:29:44,-0.52684844,1.33361212,0.68790012,-0.37193428,0.1547768,0.00642488,37.29199024,-17.5600366,3.57720052,-94.6064516,0.0277499328,1.0729243612,1.0663164016,-0.2190551252799999,0.09948168032,0.3953043303999999,0.00375
08:29:44,-0.52387357,1.32995661,0.690351485,-0.37525284,0.1555385249999999,0.005375515,37.287269095,-17.533024175,3.574720435,-94.606194175,0.0319852384,1.06938535735,1.0622523448,-0.22186609559,0.10003325621,0.3985811899499999,0.00375
08:29:44,-0.5208987,1.3263011,0.69280285,-0.3785714,0.15630025,0.00432615,37.28254795,-17.50601175,3.57224035,-94.60593675,0.036220544,1.0658463535,1.058188288,-0.2246770659,0.1005848321,0.4018580495,0.00375
08:29:44,-0.51792383,1.32264559,0.695254215,-0.38188996,0.157061975,0.003276785,37.277826805,-17.478999325,3.569760265,-94.605679325,0.0404558496,1.0623073496500002,1.0541242312,-0.22748803621,0.10113640799,0.40513490905,0.00375
08:29:44,-0.51494896,1.31899008,0.69770558,-0.38520852,0.1578237,0.00222742,37.27310566,-17.4519869,3.56728018,-94.6054219,0.0446911552,1.0587683458,1.0500601744,-0.23029900652,0.10168798388,0.4084117685999999,0.00375
08:29:44,-0.51197409,1.31533457,0.700156945,-0.3885270799999999,0.158585425,0.001178055,37.268384515,-17.424974475,3.564800095,-94.605164475,0.0489264608,1.05522934195,1.0459961176,-0.2331099768299999,0.10223955977,0.4116886281499999,0.00375
08:29:44,-0.50899922,1.31167906,0.70260831,-0.39184564,0.15934715,0.00012869,37.26366337,-17.39796205,3.56232001,-94.60490705,0.0531617664,1.0516903381,1.0419320608,-0.2359209471399999,0.10279113566,0.4149654876999999,0.00375
08:29:44,-0.50602435,1.30802355,0.705059675,-0.3951641999999999,0.1601088749999999,-0.0009206749999999,37.258942225,-17.370949624999998,3.559839925,-94.604649625,0.057397072,1.04815133425,1.037868004,-0.2387319174499999,0.10334271155,0.41824234725,0.00375
08:29:44,-0.50304948,1.30436804,0.70751104,-0.39848276,0.1608706,-0.0019700399999999,37.25422108,-17.3439372,3.55735984,-94.6043922,0.0616323776,1.0446123304,1.0338039472,-0.2415428877599999,0.10389428744,0.4215192067999999,0.00375
08:29:44,-0.50007461,1.30071253,0.709962405,-0.40180132,0.161632325,-0.0030194049999999,37.249499935,-17.316924775,3.554879755,-94.604134775,0.0658676832,1.04107332655,1.0297398904,-0.24435385807,0.10444586333,0.4247960663499999,0.00375
08:29:44,-0.49709974,1.29705702,0.71241377,-0.40511988,0.16239405,-0.0040687699999999,37.24477879,-17.289912349999998,3.55239967,-94.60387735,0.0701029888,1.0375343227,1.0256758336,-0.24716482838,0.10499743922,0.4280729258999999,0.00375
08:29:44,-0.49412487,1.29340151,0.7148651349999999,-0.40843844,0.163155775,-0.0051181349999999,37.240057645,-17.262899925,3.549919585,-94.603619925,0.0743382944,1.0339953188500002,1.0216117768,-0.24997579869,0.10554901511,0.4313497854499999,0.00375
08:29:44,-0.49115,1.289746,0.7173165,-0.411757,0.1639175,-0.0061674999999999,37.2353365,-17.2358875,3.5474395,-94.6033625,0.0785736,1.030456315,1.01754772,-0.252786769,0.106100591,0.434626645,0.00375
08:29:44,-0.48817513,1.28609049,0.719767865,-0.41507556,0.1646792249999999,-0.0072168649999999,37.230615355,-17.208875074999998,3.544959415,-94.603105075,0.0828089056,1.02691731115,1.0134836632,-0.25559773931,0.10665216689,0.4379035045499999,0.00375
08:29:44,-0.48520026,1.28243498,0.72221923,-0.41839412,0.16544095,-0.0082662299999999,37.22589421,-17.18186265,3.54247933,-94.60284765,0.0870442112,1.0233783073,1.0094196064,-0.25840870962,0.10720374278,0.4411803640999999,0.00375
08:29:44,-0.48222539,1.27877947,0.724670595,-0.42171268,0.166202675,-0.0093155949999999,37.221173065,-17.154850225,3.539999245,-94.602590225,0.0912795168,1.01983930345,1.0053555496,-0.26121967993,0.10775531867,0.4444572236499999,0.00375
08:29:44,-0.47925052,1.27512396,0.7271219600000001,-0.42503124,0.1669644,-0.0103649599999999,37.21645192,-17.1278378,3.53751916,-94.6023328,0.0955148224,1.0163002996,1.0012914928,-0.26403065024,0.10830689456,0.4477340831999999,0.00375
08:29:44,-0.47627565,1.27146845,0.729573325,-0.4283498,0.167726125,-0.0114143249999999,37.211730775,-17.100825375,3.535039075,-94.602075375,0.099750128,1.01276129575,0.997227436,-0.26684162055,0.10885847045,0.45101094275,0.00375
08:29:44,-0.47330078,1.26781294,0.73202469,-0.43166836,0.16848785,-0.0124636899999999,37.20700963,-17.07381295,3.53255899,-94.60181795,0.1039854336,1.0092222919,0.9931633792,-0.26965259086,0.10941004634,0.4542878022999999,0.00375
08:29:44,-0.47032591,1.26415743,0.734476055,-0.43498692,0.1692495749999999,-0.0135130549999999,37.202288485,-17.046800525,3.530078905,-94.601560525,0.1082207392,1.0056832880500002,0.9890993224,-0.27246356117,0.10996162223,0.4575646618499999,0.00375
08:29:44,-0.46735104,1.26050192,0.73692742,-0.4383054799999999,0.1700113,-0.0145624199999999,37.19756734,-17.0197881,3.52759882,-94.6013031,0.1124560448,1.0021442842,0.9850352656,-0.27527453148,0.11051319812,0.4608415213999999,0.00375
08:29:44,-0.46437617,1.25684641,0.739378785,-0.44162404,0.170773025,-0.0156117849999999,37.192846195,-16.992775675,3.525118735,-94.601045675,0.1166913504,0.99860528035,0.9809712088,-0.27808550179,0.11106477401,0.4641183809499999,0.00375
08:29:44,-0.4614013,1.2531909,0.74183015,-0.4449425999999999,0.17153475,-0.0166611499999999,37.18812505,-16.96576325,3.52263865,-94.60078825,0.120926656,0.9950662765,0.976907152,-0.2808964721,0.1116163499,0.4673952405,0.00375
08:29:44,-0.45842643,1.24953539,0.744281515,-0.44826116,0.172296475,-0.0177105149999999,37.183403905,-16.938750825,3.520158565,-94.600530825,0.1251619616,0.99152727265,0.9728430952,-0.28370744241,0.11216792579,0.4706721000499999,0.00375
08:29:44,-0.45545156,1.24587988,0.7467328799999999,-0.45157972,0.1730582,-0.0187598799999999,37.17868276,-16.9117384,3.51767848,-94.6002734,0.1293972672,0.9879882688,0.9687790384,-0.28651841272,0.11271950168,0.4739489595999999,0.00375
08:29:44,-0.45247669,1.24222437,0.7491842449999999,-0.45489828,0.173819925,-0.0198092449999999,37.173961615,-16.884725975,3.515198395,-94.600015975,0.1336325728,0.98444926495,0.9647149816,-0.28932938303,0.11327107757,0.4772258191499999,0.00375
08:29:44,-0.44950182,1.23856886,0.75163561,-0.45821684,0.17458165,-0.0208586099999999,37.16924047,-16.85771355,3.51271831,-94.59975855,0.1378678784,0.9809102611,0.9606509248,-0.29214035334,0.11382265346,0.4805026786999999,0.00375
08:29:44,-0.44652695,1.23491335,0.754086975,-0.4615354,0.175343375,-0.0219079749999999,37.164519325,-16.830701125,3.510238225,-94.599501125,0.142103184,0.97737125725,0.956586868,-0.29495132365,0.11437422935,0.48377953825,0.00375
08:29:44,-0.44355208,1.23125784,0.75653834,-0.46485396,0.1761051,-0.0229573399999999,37.15979818,-16.8036887,3.50775814,-94.5992437,0.1463384896,0.9738322534,0.9525228112,-0.29776229396,0.11492580524,0.4870563977999999,0.00375
08:29:44,-0.44057721,1.22760233,0.7589897050000001,-0.46817252,0.176866825,-0.0240067049999999,37.155077035,-16.776676275,3.505278055,-94.598986275,0.1505737952,0.97029324955,0.9484587544,-0.30057326427,0.11547738113,0.4903332573499999,0.00375
08:29:44,-0.43760234,1.22394682,0.76144107,-0.47149108,0.17762855,-0.0250560699999999,37.15035589,-16.749663849999997,3.50279797,-94.59872885,0.1548091008,0.9667542457,0.9443946976,-0.30338423458,0.11602895702,0.4936101168999999,0.00375
08:29:44,-0.43462747,1.22029131,0.763892435,-0.47480964,0.178390275,-0.0261054349999999,37.145634745,-16.722651425,3.500317885,-94.598471425,0.1590444064,0.96321524185,0.9403306408,-0.30619520489,0.11658053291,0.4968869764499999,0.00375
08:29:44,-0.4316526,1.2166358,0.7663438,-0.4781282,0.179152,-0.0271547999999999,37.1409136,-16.695639,3.4978378,-94.598214,0.163279712,0.959676238,0.936266584,-0.3090061752,0.1171321088,0.500163836,0.00375
08:29:44,-0.42867773,1.21298029,0.768795165,-0.48144676,0.179913725,-0.0282041649999999,37.136192455,-16.668626574999998,3.495357715,-94.597956575,0.1675150176000001,0.95613723415,0.9322025272,-0.31181714551,0.11768368469,0.5034406955499999,0.00375
08:29:44,-0.42570286,1.20932478,0.77124653,-0.48476532,0.18067545,-0.0292535299999999,37.13147131,-16.64161415,3.49287763,-94.59769915,0.1717503232,0.9525982303,0.9281384704,-0.31462811582,0.11823526058,0.5067175550999999,0.00375
08:29:44,-0.42272799,1.20566927,0.773697895,-0.4880838799999999,0.181437175,-0.0303028949999999,37.126750165,-16.614601725,3.490397545,-94.597441725,0.1759856288,0.94905922645,0.9240744136,-0.31743908613,0.11878683647,0.50999441465,0.00375
08:29:44,-0.41975312,1.20201376,0.77614926,-0.49140244,0.1821989,-0.0313522599999999,37.12202902,-16.587589299999998,3.48791746,-94.5971843,0.1802209344000001,0.9455202226,0.9200103568,-0.32025005644,0.11933841236,0.5132712742,0.00375
08:29:44,-0.41677825,1.19835825,0.7786006249999999,-0.4947209999999999,0.182960625,-0.0324016249999999,37.117307875,-16.560576875,3.485437375,-94.596926875,0.18445624,0.94198121875,0.9159463,-0.32306102675,0.11988998825,0.51654813375,0.00375
08:29:44,-0.41380338,1.19470274,0.7810519899999999,-0.49803956,0.18372235,-0.0334509899999999,37.11258673,-16.53356445,3.48295729,-94.59666945,0.1886915456,0.9384422149,0.9118822432,-0.32587199706,0.12044156414,0.5198249932999999,0.00375
08:29:44,-0.41082851,1.19104723,0.783503355,-0.5013581199999999,0.184484075,-0.0345003549999999,37.107865585,-16.506552024999998,3.480477205,-94.596412025,0.1929268512,0.93490321105,0.9078181864,-0.32868296737,0.12099314003,0.52310185285,0.00375
08:29:44,-0.40785364,1.18739172,0.78595472,-0.50467668,0.1852458,-0.0355497199999999,37.10314444,-16.4795396,3.47799712,-94.5961546,0.1971621568,0.9313642072,0.9037541296,-0.33149393768,0.12154471592,0.5263787123999999,0.00375
08:29:44,-0.40487877,1.18373621,0.788406085,-0.5079952400000001,0.186007525,-0.0365990849999999,37.098423295,-16.452527175,3.475517035,-94.595897175,0.2013974624,0.92782520335,0.8996900728,-0.33430490799,0.12209629181,0.52965557195,0.00375
08:29:44,-0.4019039,1.1800807,0.7908574500000001,-0.5113137999999999,0.18676925,-0.0376484499999999,37.09370215,-16.425514749999998,3.47303695,-94.59563975,0.205632768,0.9242861995,0.895626016,-0.3371158783,0.1226478677,0.5329324314999999,0.00375
08:29:44,-0.39892903,1.17642519,0.7933088150000001,-0.51463236,0.187530975,-0.0386978149999999,37.088981005,-16.398502325,3.470556865,-94.595382325,0.2098680736,0.92074719565,0.8915619592,-0.33992684861,0.12319944359,0.5362092910499999,0.00375
08:29:44,-0.39595416,1.17276968,0.79576018,-0.51795092,0.1882927,-0.0397471799999999,37.08425986,-16.3714899,3.46807678,-94.5951249,0.2141033792,0.9172081918,0.8874979024,-0.34273781892,0.12375101948,0.5394861505999999,0.00375
08:29:44,-0.39297929,1.16911417,0.798211545,-0.52126948,0.189054425,-0.0407965449999999,37.079538715,-16.344477474999998,3.465596695,-94.594867475,0.2183386848,0.91366918795,0.8834338456,-0.34554878923,0.12430259537,0.54276301015,0.00375
08:29:44,-0.39000442,1.16545866,0.80066291,-0.52458804,0.18981615,-0.0418459099999999,37.07481757,-16.31746505,3.46311661,-94.59461005,0.2225739904,0.9101301841,0.8793697888,-0.34835975954,0.12485417126,0.5460398697,0.00375
08:29:44,-0.38702955,1.16180315,0.803114275,-0.5279066,0.190577875,-0.0428952749999999,37.070096425,-16.290452625,3.460636525,-94.594352625,0.226809296,0.90659118025,0.8753057320000001,-0.35117072985,0.12540574715,0.54931672925,0.00375
08:29:44,-0.38405468,1.15814764,0.80556564,-0.53122516,0.1913396,-0.0439446399999999,37.06537528,-16.263440199999998,3.45815644,-94.5940952,0.2310446016,0.9030521764,0.8712416752000001,-0.35398170016,0.12595732304,0.5525935888,0.00375
08:29:44,-0.38107981,1.15449213,0.808017005,-0.53454372,0.192101325,-0.0449940049999999,37.060654135,-16.236427775,3.455676355,-94.593837775,0.2352799072,0.8995131725500001,0.8671776184,-0.35679267047,0.12650889893,0.5558704483499999,0.00375
08:29:44,-0.37810494,1.15083662,0.8104683699999999,-0.5378622799999999,0.19286305,-0.0460433699999999,37.05593299,-16.20941535,3.45319627,-94.59358035,0.2395152128000001,0.8959741687,0.8631135616,-0.35960364078,0.12706047482,0.5591473079,0.00375
08:29:44,-0.37513007,1.14718111,0.8129197349999999,-0.54118084,0.193624775,-0.0470927349999999,37.051211845,-16.182402924999998,3.450716185,-94.593322925,0.2437505184,0.8924351648500001,0.8590495048,-0.36241461109,0.12761205071,0.5624241674499999,0.00375
08:29:44,-0.3721552,1.1435256,0.8153711,-0.5444994,0.1943865,-0.0481420999999999,37.0464907,-16.1553905,3.4482361,-94.5930655,0.247985824,0.8888961610000001,0.854985448,-0.3652255814,0.1281636266,0.565701027,0.00375
08:29:44,-0.36918033,1.13987009,0.817822465,-0.5478179599999999,0.195148225,-0.0491914649999999,37.041769555,-16.128378075,3.445756015,-94.592808075,0.2522211296000001,0.8853571571500001,0.8509213912,-0.36803655171,0.12871520249,0.5689778865499999,0.00375
08:29:44,-0.36620546,1.13621458,0.82027383,-0.55113652,0.19590995,-0.0502408299999999,37.03704841,-16.101365649999998,3.44327593,-94.59255065,0.2564564352,0.8818181533,0.8468573344,-0.37084752202,0.12926677838,0.5722547460999999,0.00375
08:29:44,-0.36323059,1.13255907,0.8227251950000001,-0.55445508,0.196671675,-0.0512901949999999,37.032327265,-16.074353225,3.440795845,-94.592293225,0.2606917408,0.8782791494500001,0.8427932776,-0.37365849233,0.12981835427,0.5755316056499999,0.00375
08:29:44,-0.36025572,1.12890356,0.8251765600000001,-0.55777364,0.1974333999999999,-0.0523395599999999,37.02760612,-16.0473408,3.43831576,-94.5920358,0.2649270464000001,0.8747401456,0.8387292208,-0.37646946264,0.13036993016,0.5788084652,0.00375
08:29:44,-0.35728085,1.12524805,0.827627925,-0.5610922,0.198195125,-0.0533889249999999,37.022884975,-16.020328375,3.435835675,-94.591778375,0.269162352,0.8712011417500001,0.834665164,-0.37928043295,0.13092150605,0.58208532475,0.00375
08:29:44,-0.35430598,1.12159254,0.83007929,-0.56441076,0.19895685,-0.0544382899999999,37.01816383,-15.99331595,3.43335559,-94.59152095,0.2733976576,0.8676621379,0.8306011072,-0.38209140326,0.13147308194,0.5853621842999999,0.00375
08:29:44,-0.35133111,1.11793703,0.832530655,-0.56772932,0.199718575,-0.0554876549999999,37.013442685,-15.966303525,3.430875505,-94.591263525,0.2776329632000001,0.8641231340500001,0.8265370504,-0.38490237357,0.13202465783,0.58863904385,0.00375
08:29:44,-0.34835624,1.11428152,0.83498202,-0.5710478800000001,0.2004803,-0.0565370199999999,37.00872154,-15.939291099999998,3.42839542,-94.5910061,0.2818682688,0.8605841302,0.8224729936,-0.38771334388,0.13257623372,0.5919159033999999,0.00375
08:29:44,-0.34538137,1.1106260099999998,0.837433385,-0.5743664399999999,0.201242025,-0.0575863849999999,37.004000395,-15.912278675,3.425915335,-94.590748675,0.2861035744,0.8570451263500001,0.8184089368,-0.39052431419,0.13312780961,0.59519276295,0.00375
08:29:44,-0.3424065,1.1069705,0.83988475,-0.577685,0.2020037499999999,-0.0586357499999999,36.99927925,-15.88526625,3.42343525,-94.59049125,0.2903388800000001,0.8535061225,0.81434488,-0.3933352845,0.1336793855,0.5984696224999999,0.00375
08:29:44,-0.33943163,1.10331499,0.8423361149999999,-0.58100356,0.202765475,-0.0596851149999999,36.994558105,-15.858253824999998,3.420955165,-94.590233825,0.2945741856,0.8499671186500001,0.8102808232,-0.39614625481,0.13423096139,0.6017464820499999,0.00375
08:29:44,-0.33645676,1.09965948,0.8447874799999999,-0.58432212,0.2035272,-0.0607344799999999,36.98983696,-15.8312414,3.41847508,-94.5899764,0.2988094912,0.8464281148,0.8062167664,-0.39895722512,0.13478253728,0.6050233415999999,0.00375
08:29:44,-0.33348189,1.09600397,0.847238845,-0.58764068,0.204288925,-0.0617838449999999,36.985115815,-15.804228975,3.415994995,-94.589718975,0.3030447968,0.8428891109500001,0.8021527096,-0.40176819543,0.13533411317,0.6083002011499998,0.00375
08:29:44,-0.33050702,1.09234846,0.84969021,-0.59095924,0.20505065,-0.0628332099999999,36.98039467,-15.77721655,3.41351491,-94.58946155,0.3072801024,0.8393501071,0.7980886528,-0.40457916574,0.13588568906,0.6115770607,0.00375
08:29:44,-0.32753215,1.08869295,0.852141575,-0.5942778,0.205812375,-0.0638825749999999,36.975673525,-15.750204125,3.411034825,-94.589204125,0.311515408,0.8358111032500001,0.794024596,-0.40739013605,0.13643726495,0.6148539202499999,0.00375
08:29:44,-0.32455728,1.08503744,0.8545929400000001,-0.5975963599999999,0.2065740999999999,-0.0649319399999999,36.97095238,-15.7231917,3.40855474,-94.5889467,0.3157507136,0.8322720994,0.7899605392,-0.41020110636,0.13698884084,0.6181307798,0.00375
08:29:44,-0.32158241,1.08138193,0.8570443050000001,-0.60091492,0.207335825,-0.0659813049999999,36.966231235,-15.696179275,3.406074655,-94.588689275,0.3199860192,0.8287330955500001,0.7858964824,-0.41301207667,0.13754041673,0.6214076393499999,0.00375
08:29:44,-0.31860754,1.07772642,0.85949567,-0.60423348,0.20809755,-0.0670306699999999,36.96151009,-15.66916685,3.40359457,-94.58843185,0.3242213248000001,0.8251940917,0.7818324256,-0.41582304698,0.13809199262,0.6246844989,0.00375
08:29:44,-0.31563267,1.07407091,0.861947035,-0.60755204,0.208859275,-0.0680800349999999,36.956788945,-15.642154425,3.401114485,-94.588174425,0.3284566304,0.8216550878500001,0.7777683688,-0.41863401729,0.13864356851,0.6279613584499999,0.00375
08:29:44,-0.3126578,1.0704154,0.8643984,-0.6108705999999999,0.209621,-0.0691293999999999,36.9520678,-15.615142,3.3986344,-94.587917,0.332691936,0.818116084,0.773704312,-0.4214449876,0.1391951444,0.631238218,0.00375
08:29:44,-0.30968293,1.06675989,0.866849765,-0.61418916,0.210382725,-0.0701787649999999,36.947346655,-15.588129575,3.396154315,-94.587659575,0.3369272416000001,0.8145770801500001,0.7696402552,-0.42425595791,0.13974672029,0.6345150775499999,0.00375
08:29:44,-0.30670806,1.06310438,0.86930113,-0.61750772,0.2111444499999999,-0.0712281299999999,36.94262551,-15.56111715,3.39367423,-94.58740215,0.3411625472,0.8110380763,0.7655761984,-0.42706692822,0.14029829618,0.6377919371,0.00375
08:29:44,-0.30373319,1.05944887,0.871752495,-0.62082628,0.211906175,-0.0722774949999999,36.937904365,-15.534104725,3.391194145,-94.587144725,0.3453978528,0.8074990724500001,0.7615121416,-0.42987789853,0.14084987207,0.6410687966499999,0.00375
08:29:44,-0.30075832,1.05579336,0.8742038599999999,-0.62414484,0.2126679,-0.0733268599999999,36.93318322,-15.5070923,3.38871406,-94.5868873,0.3496331584000001,0.8039600686,0.7574480848,-0.43268886884,0.14140144796,0.6443456561999998,0.00375
08:29:44,-0.29778345,1.0521378499999998,0.8766552249999999,-0.6274634,0.213429625,-0.0743762249999999,36.928462075,-15.480079875,3.386233975,-94.586629875,0.353868464,0.8004210647500001,0.753384028,-0.43549983915,0.14195302385,0.64762251575,0.00375
08:29:44,-0.29480858,1.04848234,0.87910659,-0.63078196,0.21419135,-0.0754255899999999,36.92374093,-15.45306745,3.38375389,-94.58637245,0.3581037696,0.7968820609,0.7493199712,-0.43831080946,0.14250459974,0.6508993752999999,0.00375
08:29:44,-0.29183371,1.04482683,0.881557955,-0.63410052,0.214953075,-0.0764749549999999,36.919019785,-15.426055025,3.381273805,-94.586115025,0.3623390752000001,0.7933430570500001,0.7452559144,-0.44112177977,0.14305617563,0.65417623485,0.00375
08:29:44,-0.28885884,1.04117132,0.88400932,-0.63741908,0.2157147999999999,-0.0775243199999999,36.91429864,-15.3990426,3.37879372,-94.5858576,0.3665743808,0.7898040532,0.7411918576000001,-0.44393275008,0.14360775152,0.6574530943999999,0.00375
08:29:44,-0.28588397,1.03751581,0.886460685,-0.64073764,0.2164765249999999,-0.0785736849999999,36.909577495,-15.372030175,3.376313635,-94.585600175,0.3708096864,0.7862650493500001,0.7371278008,-0.44674372039,0.14415932741,0.66072995395,0.00375
08:29:44,-0.2829091,1.0338603,0.8889120500000001,-0.6440562,0.21723825,-0.0796230499999999,36.90485635,-15.34501775,3.37383355,-94.58534275,0.3750449920000001,0.7827260455,0.733063744,-0.4495546907,0.1447109033,0.6640068134999999,0.00375
08:29:44,-0.27993423,1.03020479,0.891363415,-0.6473747599999999,0.217999975,-0.0806724149999999,36.900135205,-15.318005325,3.371353465,-94.585085325,0.3792802976,0.7791870416500001,0.7289996872,-0.45236566101,0.14526247919,0.66728367305,0.00375
08:29:44,-0.27695936,1.02654928,0.89381478,-0.65069332,0.2187617,-0.0817217799999999,36.89541406,-15.2909929,3.36887338,-94.5848279,0.3835156032,0.7756480378,0.7249356304,-0.45517663132,0.14581405508,0.6705605325999999,0.00375
08:29:44,-0.27398449,1.02289377,0.896266145,-0.65401188,0.219523425,-0.0827711449999999,36.890692915,-15.263980475,3.366393295,-94.584570475,0.3877509088,0.7721090339500001,0.7208715736,-0.45798760163,0.14636563097,0.6738373921499998,0.00375
08:29:44,-0.27100962,1.0192382599999998,0.89871751,-0.65733044,0.2202851499999999,-0.0838205099999999,36.88597177,-15.236968049999998,3.36391321,-94.58431305,0.3919862144,0.7685700301,0.7168075168,-0.46079857194,0.14691720686,0.6771142517,0.00375
08:29:44,-0.26803475,1.01558275,0.901168875,-0.6606489999999999,0.2210468749999999,-0.0848698749999999,36.881250625,-15.209955625,3.361433125,-94.584055625,0.3962215200000001,0.7650310262500001,0.71274346,-0.46360954225,0.14746878275,0.6803911112499998,0.00375
08:29:44,-0.26505988,1.01192724,0.90362024,-0.66396756,0.2218086,-0.0859192399999999,36.87652948,-15.1829432,3.35895304,-94.5837982,0.4004568256,0.7614920224,0.7086794032,-0.46642051256,0.14802035864,0.6836679708,0.00375
08:29:44,-0.26208501,1.00827173,0.906071605,-0.66728612,0.222570325,-0.0869686049999999,36.871808335,-15.155930774999998,3.356472955,-94.583540775,0.4046921312,0.7579530185500001,0.7046153464,-0.46923148287,0.14857193453,0.6869448303499999,0.00375
08:29:44,-0.25911014,1.00461622,0.90852297,-0.67060468,0.22333205,-0.0880179699999999,36.86708719,-15.12891835,3.35399287,-94.58328335,0.4089274368000001,0.7544140147,0.7005512896,-0.47204245318,0.14912351042,0.6902216899,0.00375
08:29:44,-0.25613527,1.00096071,0.910974335,-0.67392324,0.224093775,-0.0890673349999999,36.862366045,-15.101905925,3.351512785,-94.583025925,0.4131627424,0.7508750108500001,0.6964872328,-0.47485342349,0.14967508631,0.6934985494499999,0.00375
08:29:44,-0.2531604,0.9973052,0.9134257,-0.6772418,0.2248554999999999,-0.0901166999999999,36.8576449,-15.074893499999998,3.3490327,-94.5827685,0.417398048,0.747336007,0.692423176,-0.4776643938,0.1502266622,0.696775409,0.00375
08:29:44,-0.25018553,0.99364969,0.915877065,-0.68056036,0.2256172249999999,-0.0911660649999999,36.852923755,-15.047881075,3.346552615,-94.582511075,0.4216333536000001,0.7437970031500001,0.6883591192,-0.48047536411,0.15077823809,0.7000522685499999,0.00375
08:29:44,-0.24721066,0.98999418,0.91832843,-0.68387892,0.22637895,-0.0922154299999999,36.84820261,-15.02086865,3.34407253,-94.58225365,0.4258686592,0.7402579993,0.6842950624,-0.48328633442,0.15132981398,0.7033291281,0.00375
08:29:44,-0.24423579,0.98633867,0.920779795,-0.68719748,0.227140675,-0.0932647949999999,36.843481465,-14.993856224999998,3.341592445,-94.581996225,0.4301039648,0.7367189954500001,0.6802310056,-0.48609730473,0.15188138987,0.7066059876499999,0.00375
08:29:44,-0.24126092,0.98268316,0.92323116,-0.69051604,0.2279024,-0.0943141599999999,36.83876032,-14.9668438,3.33911236,-94.5817388,0.4343392704000001,0.7331799916,0.6761669488,-0.48890827504,0.15243296576,0.7098828471999998,0.00375
08:29:44,-0.23828605,0.97902765,0.925682525,-0.6938346,0.228664125,-0.0953635249999999,36.834039175,-14.939831375,3.336632275,-94.581481375,0.438574576,0.7296409877500001,0.672102892,-0.49171924535,0.15298454165,0.71315970675,0.00375
08:29:44,-0.23531118,0.97537214,0.92813389,-0.6971531599999999,0.22942585,-0.0964128899999999,36.82931803,-14.912818949999998,3.33415219,-94.58122395,0.4428098816,0.7261019839,0.6680388352,-0.49453021566,0.15353611754,0.7164365662999999,0.00375
08:29:44,-0.23233631,0.97171663,0.930585255,-0.70047172,0.2301875749999999,-0.0974622549999999,36.824596885,-14.885806525,3.331672105,-94.580966525,0.4470451872000001,0.7225629800500001,0.6639747784,-0.49734118597,0.15408769343,0.71971342585,0.00375
08:29:44,-0.22936144,0.96806112,0.93303662,-0.70379028,0.2309493,-0.0985116199999999,36.81987574,-14.8587941,3.32919202,-94.5807091,0.4512804928,0.7190239762,0.6599107216,-0.50015215628,0.15463926932,0.7229902853999999,0.00375
08:29:44,-0.22638657,0.96440561,0.935487985,-0.70710884,0.231711025,-0.0995609849999999,36.815154595,-14.831781674999998,3.326711935,-94.580451675,0.4555157984,0.7154849723500001,0.6558466648,-0.50296312659,0.15519084521,0.72626714495,0.00375
08:29:44,-0.2234117,0.9607501,0.93793935,-0.7104273999999999,0.23247275,-0.1006103499999999,36.81043345,-14.80476925,3.32423185,-94.58019425,0.4597511040000001,0.7119459685,0.651782608,-0.5057740969,0.1557424211,0.7295440044999999,0.00375
08:29:44,-0.22043683,0.95709459,0.940390715,-0.71374596,0.233234475,-0.1016597149999999,36.805712305,-14.777756825,3.321751765,-94.579936825,0.4639864096,0.7084069646500001,0.6477185512,-0.50858506721,0.15629399699,0.73282086405,0.00375
08:29:44,-0.21746196,0.95343908,0.94284208,-0.71706452,0.2339962,-0.1027090799999999,36.80099116,-14.7507444,3.31927168,-94.5796794,0.4682217152000001,0.7048679608,0.6436544944,-0.51139603752,0.15684557288,0.7360977235999999,0.00375
08:29:44,-0.21448709,0.94978357,0.945293445,-0.72038308,0.2347579249999999,-0.1037584449999999,36.796270015,-14.723731975,3.316791595,-94.579421975,0.4724570208,0.7013289569500001,0.6395904376,-0.5142070078300001,0.15739714877,0.7393745831499998,0.00375
08:29:44,-0.21151222,0.94612806,0.94774481,-0.72370164,0.23551965,-0.1048078099999999,36.79154887,-14.69671955,3.31431151,-94.57916455,0.4766923264,0.6977899531,0.6355263808,-0.5170179781400001,0.15794872466,0.7426514426999999,0.00375
08:29:44,-0.2085373499999999,0.94247255,0.950196175,-0.7270202,0.236281375,-0.1058571749999999,36.786827725,-14.669707125,3.311831425,-94.578907125,0.4809276320000001,0.6942509492500001,0.631462324,-0.51982894845,0.15850030055,0.7459283022499998,0.00375
08:29:44,-0.20556248,0.93881704,0.95264754,-0.73033876,0.2370431,-0.1069065399999999,36.78210658,-14.6426947,3.30935134,-94.5786497,0.4851629376,0.6907119454,0.6273982672,-0.52263991876,0.15905187644,0.7492051618,0.00375
08:29:44,-0.20258761,0.93516153,0.955098905,-0.73365732,0.237804825,-0.1079559049999999,36.777385435,-14.615682275,3.306871255,-94.578392275,0.4893982432,0.6871729415500001,0.6233342104,-0.52545088907,0.15960345233,0.7524820213499999,0.00375
08:29:44,-0.1996127399999999,0.93150602,0.95755027,-0.73697588,0.23856655,-0.1090052699999999,36.77266429,-14.58866985,3.30439117,-94.57813485,0.4936335488000001,0.6836339377,0.6192701536,-0.52826185938,0.16015502822,0.7557588809,0.00375
08:29:44,-0.19663787,0.92785051,0.960001635,-0.74029444,0.2393282749999999,-0.1100546349999999,36.767943145,-14.561657425,3.301911085,-94.577877425,0.4978688544,0.6800949338500001,0.6152060968,-0.53107282969,0.16070660411,0.7590357404499999,0.00375
08:29:45,-0.193663,0.924195,0.962453,-0.743613,0.24009,-0.111104,36.763222,-14.534645,3.299431,-94.57762,0.50210416,0.67655593,0.61114204,-0.5338838,0.16125818,0.7623126,0.00375
08:29:45,-0.1913913,0.919082695,0.947462945,-0.739980165,0.23900867,-0.1111359599999999,36.783605415,-14.553925875,3.266729775,-94.54776718,0.4900759502,0.67327124205,0.6066431474,-0.531810779375,0.16060254636,0.7586090532750001,0.00375
08:29:45,-0.1891196,0.91397039,0.93247289,-0.73634733,0.23792734,-0.1111679199999999,36.80398883,-14.57320675,3.23402855,-94.51791436,0.4780477404,0.6699865541000001,0.6021442548,-0.5297377587500001,0.15994691272,0.75490550655,0.00375
08:29:45,-0.1868479,0.908858085,0.917482835,-0.732714495,0.23684601,-0.11119988,36.824372245,-14.592487625,3.201327325,-94.48806154,0.4660195306,0.66670186615,0.5976453622000001,-0.527664738125,0.15929127908,0.751201959825,0.00375
08:29:45,-0.1845762,0.90374578,0.90249278,-0.72908166,0.23576468,-0.11123184,36.84475566,-14.6117685,3.1686261,-94.45820872,0.4539913208,0.6634171782,0.5931464696000001,-0.5255917175,0.15863564544,0.7474984131,0.00375
08:29:45,-0.1823045,0.898633475,0.887502725,-0.725448825,0.2346833499999999,-0.1112638,36.865139075,-14.631049375,3.135924875,-94.4283559,0.441963111,0.66013249025,0.588647577,-0.523518696875,0.1579800118,0.743794866375,0.00375
08:29:45,-0.1800328,0.89352117,0.87251267,-0.72181599,0.23360202,-0.11129576,36.88552249,-14.65033025,3.10322365,-94.39850308,0.4299349012,0.6568478023000001,0.5841486844,-0.52144567625,0.15732437816,0.74009131965,0.00375
08:29:45,-0.1777611,0.8884088649999999,0.857522615,-0.718183155,0.23252069,-0.1113277199999999,36.905905905,-14.669611125,3.070522425,-94.36865026,0.4179066914,0.65356311435,0.5796497918000001,-0.519372655625,0.15666874452,0.736387772925,0.00375
08:29:45,-0.1754894,0.88329656,0.84253256,-0.71455032,0.23143936,-0.1113596799999999,36.92628932,-14.688892,3.0378212,-94.33879744,0.4058784816,0.6502784264,0.5751508992000001,-0.517299635,0.15601311088,0.7326842262,0.00375
08:29:45,-0.1732177,0.878184255,0.827542505,-0.710917485,0.23035803,-0.11139164,36.946672735,-14.708172875,3.005119975,-94.30894462,0.3938502718,0.6469937384500001,0.5706520066,-0.5152266143750001,0.15535747724,0.728980679475,0.00375
08:29:45,-0.170946,0.8730719499999999,0.81255245,-0.70728465,0.2292767,-0.1114236,36.96705615,-14.72745375,2.97241875,-94.2790918,0.381822062,0.6437090505,0.566153114,-0.51315359375,0.1547018436,0.72527713275,0.00375
08:29:45,-0.1686743,0.867959645,0.797562395,-0.703651815,0.22819537,-0.11145556,36.987439565,-14.746734625,2.939717525,-94.24923898,0.3697938522,0.64042436255,0.5616542214000001,-0.511080573125,0.15404620996,0.721573586025,0.00375
08:29:45,-0.1664026,0.86284734,0.78257234,-0.70001898,0.22711404,-0.1114875199999999,37.00782298,-14.7660155,2.9070163,-94.21938616,0.3577656424,0.6371396746,0.5571553288000001,-0.5090075525000001,0.15339057632,0.7178700393,0.00375
08:29:45,-0.1641309,0.857735035,0.767582285,-0.696386145,0.22603271,-0.1115194799999999,37.028206395,-14.785296375,2.874315075,-94.18953334,0.3457374326,0.6338549866500001,0.5526564362,-0.506934531875,0.15273494268,0.714166492575,0.00375
08:29:45,-0.1618592,0.85262273,0.75259223,-0.69275331,0.22495138,-0.11155144,37.04858981,-14.80457725,2.84161385,-94.15968052,0.3337092228,0.6305702987,0.5481575436,-0.50486151125,0.15207930904,0.71046294585,0.00375
08:29:45,-0.1595875,0.847510425,0.737602175,-0.689120475,0.22387005,-0.1115834,37.068973225,-14.823858125,2.808912625,-94.1298277,0.321681013,0.62728561075,0.5436586510000001,-0.502788490625,0.1514236754,0.706759399125,0.00375
08:29:45,-0.1573158,0.84239812,0.72261212,-0.68548764,0.22278872,-0.11161536,37.08935664,-14.843139,2.7762114,-94.09997488,0.3096528032,0.6240009228000001,0.5391597584000001,-0.50071547,0.15076804176,0.7030558524,0.00375
08:29:45,-0.1550441,0.837285815,0.707622065,-0.681854805,0.22170739,-0.11164732,37.109740055,-14.862419875,2.743510175,-94.07012206,0.2976245934,0.62071623485,0.5346608658,-0.498642449375,0.15011240812,0.699352305675,0.00375
08:29:45,-0.1527724,0.83217351,0.6926320100000001,-0.67822197,0.22062606,-0.1116792799999999,37.13012347,-14.88170075,2.71080895,-94.04026924,0.2855963836,0.6174315469,0.5301619732,-0.49656942875,0.14945677448,0.69564875895,0.00375
08:29:45,-0.1505007,0.827061205,0.677641955,-0.674589135,0.21954473,-0.1117112399999999,37.150506885,-14.900981625,2.678107725,-94.01041642,0.2735681738,0.61414685895,0.5256630806,-0.494496408125,0.14880114084,0.691945212225,0.00375
08:29:45,-0.148229,0.8219489,0.6626519,-0.6709563,0.2184634,-0.1117432,37.1708903,-14.9202625,2.6454065,-93.9805636,0.261539964,0.6108621710000001,0.5211641880000001,-0.4924233875,0.1481455072,0.6882416655,0.00375
08:29:45,-0.1459573,0.8168365949999999,0.647661845,-0.667323465,0.21738207,-0.11177516,37.191273715,-14.939543375,2.612705275,-93.95071078,0.2495117542,0.60757748305,0.5166652954000001,-0.490350366875,0.14748987356,0.684538118775,0.00375
08:29:45,-0.1436856,0.81172429,0.6326717900000001,-0.66369063,0.21630074,-0.11180712,37.21165713,-14.95882425,2.58000405,-93.92085796,0.2374835444,0.6042927951,0.5121664028,-0.48827734625,0.14683423992,0.68083457205,0.00375
08:29:45,-0.1414139,0.806611985,0.617681735,-0.660057795,0.21521941,-0.11183908,37.232040545,-14.978105125,2.547302825,-93.89100514,0.2254553346,0.60100810715,0.5076675102,-0.486204325625,0.14617860628,0.677131025325,0.00375
08:29:45,-0.1391422,0.80149968,0.60269168,-0.65642496,0.21413808,-0.1118710399999999,37.25242396,-14.997386,2.5146016,-93.86115232,0.2134271248,0.5977234192,0.5031686176000001,-0.484131305,0.14552297264,0.6734274786,0.00375
08:29:45,-0.1368705,0.796387375,0.587701625,-0.652792125,0.21305675,-0.111903,37.272807375,-15.016666875,2.4819003749999995,-93.8312995,0.201398915,0.59443873125,0.498669725,-0.482058284375,0.144867339,0.669723931875,0.00375
08:29:45,-0.1345988,0.79127507,0.5727115700000001,-0.6491592899999999,0.21197542,-0.11193496,37.29319079,-15.03594775,2.44919915,-93.80144668,0.1893707052,0.5911540433,0.4941708324,-0.47998526375,0.14421170536,0.66602038515,0.00375
08:29:45,-0.1323271,0.786162765,0.557721515,-0.6455264549999999,0.21089409,-0.11196692,37.313574205,-15.055228625,2.416497925,-93.77159386,0.1773424954,0.5878693553500001,0.4896719398,-0.477912243125,0.14355607172,0.662316838425,0.00375
08:29:45,-0.1300554,0.78105046,0.5427314599999999,-0.6418936199999999,0.20981276,-0.11199888,37.33395762,-15.0745095,2.3837966999999995,-93.74174104,0.1653142856,0.5845846674,0.4851730472,-0.4758392225,0.14290043808,0.6586132917,0.00375
08:29:45,-0.1277837,0.775938155,0.527741405,-0.6382607849999999,0.20873143,-0.1120308399999999,37.354341035,-15.093790375,2.351095475,-93.71188822,0.1532860758,0.58129997945,0.4806741546,-0.473766201875,0.14224480444,0.654909744975,0.00375
08:29:45,-0.125512,0.77082585,0.51275135,-0.6346279499999999,0.2076501,-0.1120627999999999,37.37472445,-15.11307125,2.31839425,-93.6820354,0.141257866,0.5780152915000001,0.476175262,-0.47169318125,0.1415891708,0.65120619825,0.00375
08:29:45,-0.1232403,0.765713545,0.497761295,-0.6309951149999999,0.20656877,-0.11209476,37.395107865,-15.132352125,2.285693025,-93.65218258,0.1292296562,0.57473060355,0.4716763694,-0.469620160625,0.14093353716,0.647502651525,0.00375
08:29:45,-0.1209686,0.76060124,0.48277124,-0.6273622799999999,0.20548744,-0.11212672,37.41549128,-15.151633,2.2529918,-93.62232976,0.1172014464,0.5714459156,0.4671774768,-0.46754714,0.14027790352,0.6437991048,0.00375
08:29:45,-0.1186969,0.755488935,0.467781185,-0.6237294449999999,0.20440611,-0.11215868,37.435874695,-15.170913875,2.220290575,-93.59247694,0.1051732366,0.56816122765,0.4626785842000001,-0.465474119375,0.13962226988,0.640095558075,0.00375
08:29:45,-0.1164252,0.75037663,0.45279113,-0.6200966099999999,0.20332478,-0.11219064,37.45625811,-15.19019475,2.18758935,-93.56262412,0.0931450268,0.5648765397,0.4581796916,-0.46340109875,0.13896663624,0.63639201135,0.00375
08:29:45,-0.1141535,0.745264325,0.437801075,-0.6164637749999999,0.20224345,-0.1122225999999999,37.476641525,-15.209475625,2.154888125,-93.5327713,0.081116817,0.56159185175,0.453680799,-0.461328078125,0.1383110026,0.632688464625,0.00375
08:29:45,-0.1118818,0.74015202,0.42281102,-0.61283094,0.20116212,-0.1122545599999999,37.49702494,-15.2287565,2.1221869,-93.50291848,0.0690886072,0.5583071638,0.4491819064,-0.4592550575,0.13765536896,0.6289849179,0.00375
08:29:45,-0.1096101,0.735039715,0.407820965,-0.6091981049999999,0.20008079,-0.11228652,37.517408355,-15.248037375,2.089485675,-93.47306566,0.0570603974,0.55502247585,0.4446830138000001,-0.457182036875,0.13699973532,0.625281371175,0.00375
08:29:45,-0.1073384,0.7299274099999999,0.39283091,-0.60556527,0.19899946,-0.11231848,37.53779177,-15.26731825,2.05678445,-93.44321284,0.0450321875999999,0.5517377879,0.4401841212,-0.45510901625,0.13634410168,0.62157782445,0.00375
08:29:45,-0.1050667,0.724815105,0.377840855,-0.6019324349999999,0.19791813,-0.11235044,37.558175185,-15.286599125,2.024083225,-93.41336002,0.0330039778,0.54845309995,0.4356852286,-0.453035995625,0.13568846804,0.617874277725,0.00375
08:29:45,-0.102795,0.7197028,0.3628508,-0.5982996,0.1968368,-0.1123824,37.5785586,-15.30588,1.991382,-93.3835072,0.020975768,0.545168412,0.431186336,-0.450962975,0.1350328344,0.614170731,0.00375
08:29:45,-0.1005233,0.7145904949999999,0.3478607449999999,-0.5946667649999999,0.19575547,-0.1124143599999999,37.598942015,-15.325160875,1.958680775,-93.35365438,0.0089475582,0.5418837240500001,0.4266874434,-0.448889954375,0.13437720076,0.610467184275,0.00375
08:29:45,-0.0982516,0.70947819,0.33287069,-0.59103393,0.19467414,-0.11244632,37.61932543,-15.34444175,1.92597955,-93.32380156,-0.0030806515999999,0.5385990361,0.4221885508,-0.44681693375,0.13372156712,0.6067636375500001,0.00375
08:29:45,-0.0959799,0.704365885,0.3178806349999999,-0.5874010949999999,0.19359281,-0.11247828,37.639708845,-15.363722625,1.893278325,-93.29394874,-0.0151088614,0.53531434815,0.4176896582,-0.444743913125,0.13306593348,0.603060090825,0.00375
08:29:45,-0.0937082,0.6992535799999999,0.30289058,-0.58376826,0.19251148,-0.11251024,37.66009226,-15.3830035,1.8605771,-93.26409592,-0.0271370711999999,0.5320296602000001,0.4131907656,-0.4426708925,0.13241029984,0.5993565440999999,0.00375
08:29:45,-0.0914365,0.694141275,0.2879005249999999,-0.5801354249999999,0.19143015,-0.1125422,37.680475675,-15.402284375,1.827875875,-93.2342431,-0.0391652809999999,0.5287449722500001,0.408691873,-0.440597871875,0.1317546662,0.595652997375,0.00375
08:29:45,-0.0891648,0.68902897,0.27291047,-0.57650259,0.19034882,-0.1125741599999999,37.70085909,-15.42156525,1.79517465,-93.20439028,-0.0511934908,0.5254602843,0.4041929804,-0.43852485125,0.13109903256,0.59194945065,0.00375
08:29:45,-0.0868931,0.6839166649999999,0.2579204149999999,-0.5728697549999999,0.18926749,-0.1126061199999999,37.721242505,-15.440846125,1.7624734249999998,-93.17453746,-0.0632217005999999,0.52217559635,0.3996940878,-0.436451830625,0.13044339892,0.588245903925,0.00375
08:29:45,-0.0846214,0.67880436,0.24293036,-0.56923692,0.18818616,-0.11263808,37.74162592,-15.460127,1.7297721999999998,-93.14468464,-0.0752499103999999,0.5188909084,0.3951951952,-0.43437881,0.12978776528,0.5845423572,0.00375
08:29:45,-0.0823497,0.673692055,0.2279403049999999,-0.5656040849999999,0.18710483,-0.11267004,37.762009335,-15.479407875,1.6970709749999997,-93.11483182,-0.0872781202,0.51560622045,0.3906963026,-0.432305789375,0.12913213164,0.580838810475,0.00375
08:29:45,-0.080078,0.6685797499999999,0.21295025,-0.56197125,0.1860235,-0.112702,37.78239275,-15.49868875,1.6643697499999996,-93.084979,-0.09930633,0.5123215325,0.3861974100000001,-0.43023276875,0.128476498,0.57713526375,0.00375
08:29:45,-0.0778063,0.663467445,0.1979601949999999,-0.5583384149999999,0.18494217,-0.11273396,37.802776165,-15.517969625,1.6316685249999998,-93.05512618,-0.1113345397999999,0.50903684455,0.3816985174,-0.428159748125,0.12782086436,0.5734317170250001,0.00375
08:29:45,-0.0755346,0.6583551400000001,0.18297014,-0.55470558,0.18386084,-0.1127659199999999,37.82315958,-15.5372505,1.5989672999999998,-93.02527336,-0.1233627495999999,0.5057521566000001,0.3771996248,-0.4260867275,0.12716523072,0.5697281703,0.00375
08:29:45,-0.0732629,0.6532428349999999,0.1679800849999999,-0.5510727449999999,0.18277951,-0.11279788,37.843542995,-15.556531375,1.5662660749999997,-92.99542054,-0.1353909594,0.50246746865,0.3727007322,-0.424013706875,0.12650959708,0.5660246235749999,0.00375
08:29:45,-0.0709912,0.64813053,0.15299003,-0.54743991,0.18169818,-0.11282984,37.86392641,-15.57581225,1.53356485,-92.96556772,-0.1474191691999999,0.4991827807,0.3682018396000001,-0.42194068625,0.12585396344,0.56232107685,0.00375
08:29:45,-0.0687195,0.643018225,0.1379999749999999,-0.543807075,0.18061685,-0.1128618,37.884309825,-15.595093125,1.5008636249999998,-92.9357149,-0.1594473789999999,0.49589809275,0.363702947,-0.419867665625,0.1251983298,0.558617530125,0.00375
08:29:45,-0.0664478,0.6379059199999999,0.12300992,-0.54017424,0.17953552,-0.11289376,37.90469324,-15.614374,1.4681623999999998,-92.90586208,-0.1714755888,0.4926134048,0.3592040544,-0.417794645,0.12454269616,0.5549139834,0.00375
08:29:45,-0.0641761,0.632793615,0.1080198649999999,-0.536541405,0.17845419,-0.11292572,37.925076655,-15.633654875,1.4354611749999997,-92.87600926,-0.1835037986,0.48932871685,0.3547051618,-0.415721624375,0.12388706252,0.551210436675,0.00375
08:29:45,-0.0619044,0.62768131,0.0930298099999999,-0.53290857,0.17737286,-0.1129576799999999,37.94546007,-15.65293575,1.4027599499999996,-92.84615644,-0.1955320083999999,0.4860440289,0.3502062692,-0.41364860375,0.12323142888,0.54750688995,0.00375
08:29:45,-0.0596327,0.6225690049999999,0.0780397549999999,-0.529275735,0.17629153,-0.11298964,37.965843485,-15.672216625,1.3700587249999998,-92.81630362,-0.2075602182,0.48275934095,0.3457073766,-0.411575583125,0.12257579524,0.543803343225,0.00375
08:29:45,-0.057361,0.6174567,0.0630496999999999,-0.5256429,0.1752101999999999,-0.1130216,37.9862269,-15.6914975,1.3373574999999998,-92.7864508,-0.219588428,0.479474653,0.341208484,-0.4095025625,0.1219201616,0.5400997965000001,0.00375
08:29:45,-0.0550893,0.612344395,0.0480596449999999,-0.522010065,0.17412887,-0.11305356,38.006610315,-15.710778375,1.3046562749999997,-92.75659798,-0.2316166377999999,0.47618996505,0.3367095914,-0.407429541875,0.12126452796,0.536396249775,0.00375
08:29:45,-0.0528176,0.60723209,0.0330695899999999,-0.51837723,0.17304754,-0.11308552,38.02699373,-15.73005925,1.27195505,-92.72674516,-0.2436448475999999,0.4729052771,0.3322106988,-0.40535652125,0.1206088943199999,0.53269270305,0.00375
08:29:45,-0.0505459,0.602119785,0.0180795349999999,-0.514744395,0.17196621,-0.1131174799999999,38.047377145,-15.749340125,1.2392538249999996,-92.69689234,-0.2556730574,0.46962058915,0.3277118062,-0.403283500625,0.11995326068,0.528989156325,0.00375
08:29:45,-0.0482742,0.59700748,0.0030894799999999,-0.51111156,0.17088488,-0.11314944,38.06776056,-15.768621,1.2065525999999998,-92.66703952,-0.2677012672,0.4663359012,0.3232129136,-0.40121048,0.1192976270399999,0.5252856096,0.00375
08:29:45,-0.0460025,0.591895175,-0.0119005749999999,-0.507478725,0.16980355,-0.1131814,38.088143975,-15.787901875,1.173851375,-92.6371867,-0.2797294769999999,0.46305121325,0.318714021,-0.399137459375,0.1186419934,0.521582062875,0.00375
08:29:45,-0.0437308,0.58678287,-0.02689063,-0.50384589,0.16872222,-0.11321336,38.10852739,-15.80718275,1.1411501499999996,-92.60733388,-0.2917576868,0.4597665253,0.3142151284,-0.39706443875,0.1179863597599999,0.51787851615,0.00375
08:29:45,-0.0414591,0.581670565,-0.0418806849999999,-0.500213055,0.16764089,-0.11324532,38.128910805,-15.826463625,1.1084489249999998,-92.57748106,-0.3037858966,0.45648183735,0.3097162358,-0.394991418125,0.11733072612,0.514174969425,0.00375
08:29:45,-0.0391874,0.57655826,-0.0568707399999999,-0.49658022,0.16655956,-0.11327728,38.14929422,-15.8457445,1.0757476999999995,-92.54762824,-0.3158141063999999,0.4531971494,0.3052173432,-0.3929183975,0.1166750924799999,0.5104714227,0.00375
08:29:45,-0.0369157,0.571445955,-0.071860795,-0.492947385,0.16547823,-0.1133092399999999,38.169677635,-15.865025375,1.0430464749999997,-92.51777542,-0.3278423161999999,0.44991246145,0.3007184506,-0.390845376875,0.11601945884,0.5067678759750001,0.00375
08:29:45,-0.034644,0.56633365,-0.08685085,-0.48931455,0.1643969,-0.1133412,38.19006105,-15.88430625,1.01034525,-92.4879226,-0.339870526,0.4466277735,0.296219558,-0.38877235625,0.1153638251999999,0.50306432925,0.00375
08:29:45,-0.0323723,0.561221345,-0.1018409049999999,-0.485681715,0.16331557,-0.11337316,38.210444465,-15.903587125,0.9776440249999996,-92.45806978,-0.3518987358,0.44334308555,0.2917206654,-0.386699335625,0.11470819156,0.499360782525,0.00375
08:29:45,-0.0301006,0.5561090399999999,-0.1168309599999999,-0.48204888,0.16223424,-0.11340512,38.23082788,-15.922868,0.9449427999999996,-92.42821696,-0.3639269455999999,0.4400583976,0.2872217728,-0.384626315,0.1140525579199999,0.4956572358,0.00375
08:29:45,-0.0278289,0.550996735,-0.1318210150000001,-0.478416045,0.16115291,-0.11343708,38.251211295,-15.942148875,0.912241575,-92.39836414,-0.3759551554,0.43677370965,0.2827228802,-0.3825532943750001,0.11339692428,0.491953689075,0.00375
08:29:45,-0.0255572,0.54588443,-0.14681107,-0.47478321,0.16007158,-0.11346904,38.27159471,-15.96142975,0.8795403499999996,-92.36851132,-0.3879833652,0.4334890217,0.2782239876,-0.38048027375,0.1127412906399999,0.48825014235,0.00375
08:29:45,-0.0232855,0.5407721249999999,-0.161801125,-0.471150375,0.15899025,-0.1135009999999999,38.291978125,-15.980710625,0.8468391249999998,-92.3386585,-0.4000115749999999,0.43020433375,0.273725095,-0.378407253125,0.112085657,0.484546595625,0.00375
08:29:45,-0.0210138,0.53565982,-0.1767911799999999,-0.46751754,0.15790892,-0.11353296,38.31236154,-15.9999915,0.8141379,-92.30880568,-0.4120397848,0.4269196458,0.2692262024,-0.3763342325,0.1114300233599999,0.4808430489,0.00375
08:29:45,-0.0187421,0.530547515,-0.1917812350000001,-0.463884705,0.15682759,-0.11356492,38.332744955,-16.019272375,0.7814366749999997,-92.27895286,-0.4240679946,0.42363495785,0.2647273098,-0.374261211875,0.11077438972,0.477139502175,0.00375
08:29:45,-0.0164704,0.5254352099999999,-0.20677129,-0.46025187,0.15574626,-0.11359688,38.35312837,-16.03855325,0.7487354499999999,-92.24910004,-0.4360962043999999,0.4203502699,0.2602284172,-0.37218819125,0.1101187560799999,0.47343595545,0.00375
08:29:45,-0.0141987,0.520322905,-0.221761345,-0.456619035,0.15466493,-0.11362884,38.373511785,-16.057834125,0.7160342249999996,-92.21924722,-0.4481244141999999,0.41706558195,0.2557295246,-0.370115170625,0.10946312244,0.469732408725,0.00375
08:29:45,-0.011927,0.5152106,-0.2367513999999999,-0.4529862,0.1535836,-0.1136607999999999,38.3938952,-16.077115,0.6833329999999997,-92.1893944,-0.460152624,0.413780894,0.251230632,-0.36804215,0.1088074887999999,0.466028862,0.00375
08:29:45,-0.0096553,0.5100982949999999,-0.2517414550000001,-0.449353365,0.15250227,-0.11369276,38.414278615,-16.096395875,0.6506317749999999,-92.15954158,-0.4721808338,0.41049620605,0.2467317394,-0.365969129375,0.10815185516,0.462325315275,0.00375
08:29:45,-0.0073836,0.50498599,-0.26673151,-0.44572053,0.15142094,-0.11372472,38.43466203,-16.11567675,0.6179305499999996,-92.12968876,-0.4842090435999999,0.4072115181,0.2422328468,-0.36389610875,0.1074962215199999,0.45862176855,0.00375
08:29:45,-0.0051119,0.4998736849999999,-0.281721565,-0.442087695,0.15033961,-0.11375668,38.455045445,-16.134957625,0.5852293249999998,-92.09983594,-0.4962372534,0.40392683015,0.2377339542,-0.3618230881250001,0.10684058788,0.454918221825,0.00375
08:29:45,-0.0028402,0.49476138,-0.2967116199999999,-0.43845486,0.14925828,-0.11378864,38.47542886,-16.1542385,0.5525280999999995,-92.06998312,-0.5082654631999999,0.4006421422,0.2332350616,-0.3597500675,0.1061849542399999,0.4512146751,0.00375
08:29:45,-0.0005685,0.489649075,-0.3117016750000001,-0.434822025,0.14817695,-0.1138206,38.495812275,-16.173519375,0.5198268749999997,-92.0401303,-0.5202936730000001,0.39735745425,0.228736169,-0.357677046875,0.1055293206,0.447511128375,0.00375
08:29:45,0.0017031999999999,0.4845367699999999,-0.32669173,-0.43118919,0.14709562,-0.1138525599999999,38.51619569,-16.19280025,0.4871256499999998,-92.01027748,-0.5323218828,0.3940727663,0.2242372764,-0.35560402625,0.1048736869599999,0.44380758165,0.00375
08:29:45,0.0039748999999999,0.4794244649999999,-0.341681785,-0.427556355,0.14601429,-0.11388452,38.536579105,-16.212081125,0.4544244249999996,-91.98042466,-0.5443500926,0.39078807835,0.2197383838,-0.353531005625,0.10421805332,0.440104034925,0.00375
08:29:45,0.0062465999999999,0.47431216,-0.3566718399999999,-0.42392352,0.14493296,-0.11391648,38.55696252,-16.231362,0.4217231999999997,-91.95057184,-0.5563783024,0.3875033904,0.2152394912,-0.351457985,0.1035624196799999,0.4364004882,0.00375
08:29:45,0.0085182999999999,0.469199855,-0.3716618950000001,-0.420290685,0.14385163,-0.11394844,38.577345935,-16.250642875,0.3890219749999999,-91.92071902,-0.5684065121999999,0.38421870245,0.2107405986,-0.349384964375,0.10290678604,0.432696941475,0.00375
08:29:45,0.0107899999999999,0.4640875499999999,-0.3866519500000001,-0.41665785,0.1427703,-0.1139804,38.59772935,-16.26992375,0.3563207499999996,-91.8908662,-0.5804347219999999,0.3809340145,0.206241706,-0.3473119437500001,0.1022511523999999,0.42899339475,0.00375
08:29:45,0.0130616999999999,0.458975245,-0.401642005,-0.413025015,0.14168897,-0.11401236,38.618112765,-16.289204625,0.3236195249999998,-91.86101338,-0.5924629318000001,0.37764932655,0.2017428134,-0.345238923125,0.10159551876,0.425289848025,0.00375
08:29:45,0.0153333999999999,0.45386294,-0.4166320599999999,-0.40939218,0.14060764,-0.11404432,38.63849618,-16.3084855,0.2909182999999999,-91.83116056,-0.6044911416000001,0.3743646386,0.1972439208,-0.3431659025,0.1009398851199999,0.4215863013,0.00375
08:29:45,0.0176050999999999,0.4487506349999999,-0.4316221150000001,-0.405759345,0.13952631,-0.11407628,38.658879595,-16.327766375,0.2582170749999997,-91.80130774,-0.6165193514,0.37107995065,0.1927450282,-0.341092881875,0.10028425148,0.417882754575,0.00375
08:29:45,0.0198767999999999,0.4436383299999999,-0.4466121700000001,-0.40212651,0.13844498,-0.11410824,38.67926301,-16.34704725,0.2255158499999998,-91.77145492,-0.6285475612,0.3677952627,0.1882461356,-0.33901986125,0.0996286178399999,0.41417920785,0.00375
08:29:45,0.0221484999999999,0.438526025,-0.461602225,-0.398493675,0.13736365,-0.1141402,38.699646425,-16.366328125,0.1928146249999995,-91.7416021,-0.640575771,0.36451057475,0.183747243,-0.336946840625,0.0989729842,0.410475661125,0.00375
08:29:45,0.0244201999999999,0.43341372,-0.47659228,-0.39486084,0.13628232,-0.11417216,38.72002984,-16.385609,0.1601133999999997,-91.71174928,-0.6526039807999999,0.3612258868,0.1792483504,-0.33487382,0.09831735056,0.4067721144,0.00375
08:29:45,0.0266918999999999,0.4283014149999999,-0.4915823349999999,-0.391228005,0.13520099,-0.1142041199999999,38.740413255,-16.404889875000002,0.1274121749999999,-91.68189646,-0.6646321905999999,0.35794119885,0.1747494578,-0.332800799375,0.09766171692,0.403068567675,0.00375
08:29:45,0.0289635999999999,0.4231891099999999,-0.5065723900000001,-0.38759517,0.13411966,-0.11423608,38.76079667,-16.424170750000002,0.0947109499999996,-91.65204364,-0.6766604004000001,0.3546565109,0.1702505652,-0.33072777875,0.09700608328,0.39936502095,0.00375
08:29:45,0.0312352999999999,0.418076805,-0.521562445,-0.383962335,0.13303833,-0.11426804,38.781180085,-16.443451625,0.0620097249999997,-91.62219082,-0.6886886102,0.35137182295,0.1657516726,-0.328654758125,0.09635044964,0.395661474225,0.00375
08:29:45,0.0335069999999999,0.4129644999999999,-0.5365525,-0.3803295,0.131957,-0.1143,38.8015635,-16.4627325,0.0293084999999995,-91.592338,-0.70071682,0.348087135,0.16125278,-0.3265817375000001,0.095694816,0.3919579275,0.00375
08:29:45,0.0357786999999999,0.407852195,-0.5515425549999999,-0.376696665,0.13087567,-0.11433196,38.821946915,-16.482013375,-0.0033927250000003,-91.56248518,-0.7127450298,0.34480244705,0.1567538874,-0.324508716875,0.09503918236,0.388254380775,0.00375
08:29:45,0.0380503999999999,0.40273989,-0.5665326100000001,-0.37306383,0.12979434,-0.11436392,38.84233033,-16.50129425,-0.0360939500000001,-91.53263236,-0.7247732396,0.3415177591,0.1522549948,-0.32243569625,0.09438354872,0.38455083405,0.00375
08:29:45,0.0403220999999999,0.3976275849999999,-0.581522665,-0.369430995,0.12871301,-0.11439588,38.862713745,-16.520575125,-0.0687951750000004,-91.50277954,-0.7368014493999999,0.33823307115,0.1477561022,-0.320362675625,0.09372791508,0.380847287325,0.00375
08:29:45,0.0425937999999999,0.39251528,-0.59651272,-0.36579816,0.12763168,-0.11442784,38.88309716,-16.539856,-0.1014964000000002,-91.47292672,-0.7488296591999999,0.3349483832,0.1432572096,-0.318289655,0.09307228144,0.3771437406,0.00375
08:29:45,0.0448654999999999,0.387402975,-0.6115027749999999,-0.362165325,0.12655035,-0.1144598,38.903480575,-16.559136875,-0.1341976250000001,-91.4430739,-0.7608578690000001,0.33166369525,0.138758317,-0.316216634375,0.0924166478,0.373440193875,0.00375
08:29:45,0.0471371999999999,0.3822906699999999,-0.6264928300000001,-0.35853249,0.12546902,-0.11449176,38.92386399,-16.57841775,-0.1668988500000003,-91.41322108,-0.7728860788,0.3283790073,0.1342594244,-0.31414361375,0.09176101416,0.36973664715,0.00375
