Timestamp,linacce_x,linacce_y,linacce_z,gyro_x,gyro_y,gyro_z,X-magnetometer,Y-magnetometer,Z-magnetometer,Yaw, worldXAccel,worldYAccel,worldZAccel,worldXgyro,worldYgyro,worldZgyro,Distance
09:27:12,0.938873,0.25974,-0.565008,0.151509,0.048686,-0.163573,24.802166,-13.874115,-27.612061,-87.60451,0.4982182,0.07446352,-0.3224139,0.04155644,0.012052347,-0.04891292,0.004
09:27:12,0.930450585,0.26854268,-0.5597108799999999,0.15128528,0.04839836,-0.16540007,24.815030515,-13.87663396,-27.596361915,-87.51044200000001,0.4936199872,0.0833904104,-0.310742127,0.03994889415,0.01228868964,-0.04976073615,0.004
09:27:12,0.92202817,0.27734536,-0.55441376,0.15106156,0.04811072,-0.16722714,24.82789503,-13.87915292,-27.58066283,-87.416374,0.4890217744,0.0923173008,-0.299070354,0.0383413483,0.0125250322799999,-0.0506085523,0.004
09:27:12,0.913605755,0.28614804,-0.5491166399999999,0.15083784,0.04782308,-0.1690542099999999,24.840759545,-13.88167188,-27.564963745,-87.322306,0.4844235616,0.1012441912,-0.287398581,0.03673380245,0.01276137492,-0.05145636845,0.004
09:27:12,0.90518334,0.29495072,-0.54381952,0.15061412,0.04753544,-0.17088128,24.85362406,-13.88419084,-27.54926466,-87.228238,0.4798253488,0.1101710816,-0.275726808,0.0351262566,0.01299771756,-0.0523041846,0.004
09:27:12,0.8967609249999999,0.3037534,-0.5385224,0.1503904,0.0472478,-0.17270835,24.866488575,-13.8867098,-27.533565575,-87.13417000000001,0.475227136,0.119097972,-0.264055035,0.03351871075,0.0132340602,-0.05315200075,0.004
09:27:12,0.88833851,0.31255608,-0.5332252799999999,0.15016668,0.04696016,-0.17453542,24.87935309,-13.88922876,-27.51786649,-87.040102,0.4706289232,0.1280248624,-0.252383262,0.0319111649,0.01347040284,-0.0539998169,0.004
09:27:12,0.879916095,0.32135876,-0.52792816,0.14994296,0.04667252,-0.1763624899999999,24.892217605,-13.89174772,-27.502167405,-86.946034,0.4660307104,0.1369517528,-0.240711489,0.03030361905,0.01370674548,-0.05484763305,0.004
09:27:12,0.8714936799999999,0.33016144,-0.5226310399999999,0.14971924,0.04638488,-0.17818956,24.90508212,-13.89426668,-27.48646832,-86.851966,0.4614324976,0.1458786432,-0.229039716,0.0286960731999999,0.01394308812,-0.0556954492,0.004
09:27:12,0.863071265,0.33896412,-0.51733392,0.14949552,0.04609724,-0.18001663,24.917946635,-13.89678564,-27.470769235,-86.75789800000001,0.4568342848,0.1548055336,-0.217367943,0.02708852735,0.01417943076,-0.05654326535,0.004
09:27:12,0.85464885,0.3477668,-0.5120368,0.1492718,0.0458096,-0.1818437,24.93081115,-13.8993046,-27.45507015,-86.66383,0.452236072,0.163732424,-0.20569617,0.0254809815,0.0144157734,-0.0573910814999999,0.004
09:27:12,0.8462264349999999,0.35656948,-0.5067396799999999,0.14904808,0.04552196,-0.1836707699999999,24.943675665,-13.90182356,-27.439371065,-86.569762,0.4476378592,0.1726593143999999,-0.194024397,0.02387343565,0.01465211604,-0.0582388976499999,0.004
09:27:12,0.83780402,0.36537216,-0.50144256,0.14882436,0.04523432,-0.18549784,24.95654018,-13.90434252,-27.42367198,-86.475694,0.4430396464,0.1815862048,-0.182352624,0.0222658898,0.01488845868,-0.0590867137999999,0.004
09:27:12,0.829381605,0.37417484,-0.4961454399999999,0.14860064,0.04494668,-0.18732491,24.969404695,-13.90686148,-27.407972895,-86.38162600000001,0.4384414336,0.1905130952,-0.170680851,0.02065834395,0.01512480132,-0.0599345299499999,0.004
09:27:12,0.82095919,0.38297752,-0.4908483199999999,0.14837692,0.04465904,-0.18915198,24.98226921,-13.90938044,-27.39227381,-86.287558,0.4338432208,0.1994399856,-0.159009078,0.0190507981,0.01536114396,-0.0607823461,0.004
09:27:12,0.812536775,0.3917802,-0.4855511999999999,0.1481532,0.0443714,-0.1909790499999999,24.995133725,-13.9118994,-27.376574725,-86.19349,0.429245008,0.208366876,-0.147337305,0.01744325225,0.0155974866,-0.06163016225,0.004
09:27:12,0.80411436,0.40058288,-0.4802540799999999,0.14792948,0.04408376,-0.19280612,25.00799824,-13.91441836,-27.36087564,-86.099422,0.4246467952,0.2172937664,-0.135665532,0.0158357064,0.01583382924,-0.0624779784,0.004
09:27:12,0.795691945,0.40938556,-0.47495696,0.14770576,0.04379612,-0.19463319,25.020862755,-13.91693732,-27.345176555,-86.00535400000001,0.4200485824,0.2262206568,-0.123993759,0.01422816055,0.01607017188,-0.06332579455,0.004
09:27:12,0.78726953,0.41818824,-0.4696598399999999,0.14748204,0.04350848,-0.19646026,25.03372727,-13.91945628,-27.32947747,-85.911286,0.4154503696,0.2351475472,-0.112321986,0.0126206147,0.01630651452,-0.0641736107,0.004
09:27:12,0.778847115,0.42699092,-0.4643627199999999,0.14725832,0.04322084,-0.1982873299999999,25.046591785,-13.92197524,-27.313778385,-85.817218,0.4108521568,0.2440744376,-0.100650213,0.0110130688499999,0.01654285716,-0.06502142685,0.004
09:27:12,0.7704247,0.4357936,-0.4590655999999999,0.1470346,0.0429332,-0.2001144,25.0594563,-13.9244942,-27.2980793,-85.72315,0.406253944,0.2530013279999999,-0.08897844,0.0094055229999999,0.0167791998,-0.065869243,0.004
09:27:12,0.762002285,0.44459628,-0.45376848,0.14681088,0.04264556,-0.20194147,25.072320815,-13.92701316,-27.282380215,-85.62908200000001,0.4016557312,0.2619282184,-0.077306667,0.00779797715,0.01701554244,-0.06671705915,0.004
09:27:12,0.75357987,0.45339896,-0.44847136,0.14658716,0.04235792,-0.20376854,25.08518533,-13.92953212,-27.26668113,-85.535014,0.3970575184,0.2708551087999999,-0.065634894,0.0061904313,0.01725188508,-0.0675648753,0.004
09:27:12,0.745157455,0.46220164,-0.4431742399999999,0.14636344,0.04207028,-0.2055956099999999,25.098049845,-13.93205108,-27.250982045,-85.440946,0.3924593056,0.2797819992,-0.053963121,0.0045828854499999,0.01748822772,-0.06841269145,0.004
09:27:12,0.73673504,0.47100432,-0.4378771199999999,0.14613972,0.04178264,-0.20742268,25.11091436,-13.93457004,-27.23528296,-85.346878,0.3878610928,0.2887088896,-0.042291348,0.0029753396,0.01772457036,-0.0692605076,0.004
09:27:12,0.728312625,0.479807,-0.4325799999999999,0.145916,0.041495,-0.20924975,25.123778875,-13.937089,-27.219583875,-85.25281000000001,0.38326288,0.29763578,-0.030619575,0.0013677937499999,0.017960913,-0.07010832375,0.004
09:27:12,0.71989021,0.48860968,-0.4272828799999999,0.14569228,0.04120736,-0.21107682,25.13664339,-13.93960796,-27.20388479,-85.158742,0.3786646672,0.3065626704,-0.018947802,-0.0002397520999999,0.01819725564,-0.0709561398999999,0.004
09:27:12,0.711467795,0.49741236,-0.42198576,0.14546856,0.04091972,-0.2129038899999999,25.149507905,-13.94212692,-27.188185705,-85.064674,0.3740664543999999,0.3154895608,-0.007276029,-0.00184729795,0.01843359828,-0.07180395605,0.004
09:27:12,0.70304538,0.5062150400000001,-0.4166886399999999,0.14524484,0.04063208,-0.21473096,25.16237242,-13.94464588,-27.17248662,-84.970606,0.3694682416,0.3244164512,0.0043957439999999,-0.0034548438,0.01866994092,-0.0726517722,0.004
09:27:12,0.694622965,0.51501772,-0.4113915199999999,0.14502112,0.04034444,-0.21655803,25.175236935,-13.94716484,-27.156787535,-84.87653800000001,0.3648700287999999,0.3333433416,0.0160675169999999,-0.0050623896499999,0.01890628356,-0.07349958835,0.004
09:27:12,0.6862005499999999,0.5238204,-0.4060943999999999,0.1447974,0.0400568,-0.2183851,25.18810145,-13.9496838,-27.14108845,-84.78247,0.360271816,0.342270232,0.0277392899999999,-0.0066699355,0.0191426262,-0.0743474045,0.004
09:27:12,0.6777781350000001,0.53262308,-0.4007972799999999,0.14457368,0.03976916,-0.2202121699999999,25.200965965,-13.95220276,-27.125389365,-84.688402,0.3556736031999999,0.3511971224,0.0394110629999999,-0.0082774813499999,0.01937896884,-0.07519522065,0.004
09:27:12,0.66935572,0.5414257600000001,-0.39550016,0.14434996,0.03948152,-0.22203924,25.21383048,-13.95472172,-27.10969028,-84.594334,0.3510753904,0.3601240128,0.0510828359999999,-0.0098850272,0.01961531148,-0.0760430368,0.004
09:27:12,0.6609333049999999,0.55022844,-0.3902030399999999,0.14412624,0.03919388,-0.22386631,25.226694995,-13.95724068,-27.093991195,-84.50026600000001,0.3464771775999999,0.3690509032,0.0627546089999999,-0.01149257305,0.01985165412,-0.07689085295,0.004
09:27:12,0.6525108900000001,0.55903112,-0.3849059199999999,0.14390252,0.03890624,-0.22569338,25.23955951,-13.95975964,-27.07829211,-84.406198,0.3418789648,0.3779777936,0.0744263819999999,-0.0131001188999999,0.02008799676,-0.0777386691,0.004
09:27:12,0.644088475,0.5678338,-0.3796087999999999,0.1436788,0.0386186,-0.2275204499999999,25.252424025,-13.9622786,-27.062593025,-84.31213,0.3372807519999999,0.386904684,0.0860981549999999,-0.01470766475,0.0203243394,-0.07858648525,0.004
09:27:12,0.6356660599999999,0.5766364800000001,-0.3743116799999999,0.14345508,0.03833096,-0.22934752,25.26528854,-13.96479756,-27.04689394,-84.218062,0.3326825392,0.3958315744,0.0977699279999999,-0.0163152105999999,0.02056068204,-0.0794343014,0.004
09:27:12,0.6272436450000001,0.58543916,-0.36901456,0.14323136,0.03804332,-0.23117459,25.278153055,-13.96731652,-27.031194855,-84.12399400000001,0.3280843263999999,0.4047584648,0.1094417009999999,-0.01792275645,0.02079702468,-0.08028211755,0.004
09:27:12,0.61882123,0.59424184,-0.3637174399999999,0.14300764,0.03775568,-0.23300166,25.29101757,-13.96983548,-27.01549577,-84.029926,0.3234861136,0.4136853552,0.1211134739999999,-0.0195303023,0.02103336732,-0.0811299337,0.004
09:27:12,0.6103988149999999,0.6030445200000001,-0.3584203199999999,0.14278392,0.03746804,-0.2348287299999999,25.303882085,-13.97235444,-26.999796685,-83.935858,0.3188879007999999,0.4226122456,0.1327852469999999,-0.02113784815,0.02126970996,-0.08197774985,0.004
09:27:12,0.6019764,0.6118472,-0.3531231999999999,0.1425602,0.0371804,-0.2366558,25.3167466,-13.9748734,-26.9840976,-83.84179,0.314289688,0.431539136,0.1444570199999999,-0.022745394,0.0215060526,-0.082825566,0.004
09:27:12,0.593553985,0.62064988,-0.3478260799999999,0.14233648,0.03689276,-0.23848287,25.329611115,-13.97739236,-26.968398515,-83.74772200000001,0.3096914751999999,0.4404660264,0.1561287929999999,-0.02435293985,0.02174239524,-0.08367338215,0.004
09:27:12,0.5851315699999999,0.62945256,-0.34252896,0.14211276,0.03660512,-0.24030994,25.34247563,-13.97991132,-26.95269943,-83.653654,0.3050932624,0.4493929168,0.1678005659999999,-0.0259604856999999,0.02197873788,-0.0845211983,0.004
09:27:12,0.576709155,0.6382552400000001,-0.3372318399999999,0.14188904,0.03631748,-0.2421370099999999,25.355340145,-13.98243028,-26.937000345,-83.559586,0.3004950495999999,0.4583198072,0.1794723389999999,-0.0275680315499999,0.02221508052,-0.08536901445,0.004
09:27:12,0.56828674,0.64705792,-0.3319347199999999,0.14166532,0.03602984,-0.24396408,25.36820466,-13.98494924,-26.92130126,-83.465518,0.2958968368,0.4672466976,0.1911441119999999,-0.0291755774,0.02245142316,-0.0862168306,0.004
09:27:12,0.5598643249999999,0.6558606,-0.3266376,0.1414416,0.0357422,-0.24579115,25.381069175,-13.9874682,-26.905602175,-83.37145000000001,0.2912986239999999,0.476173588,0.2028158849999999,-0.03078312325,0.0226877658,-0.08706464675,0.004
09:27:12,0.55144191,0.6646632800000001,-0.3213404799999999,0.14121788,0.03545456,-0.24761822,25.39393369,-13.98998716,-26.88990309,-83.277382,0.2867004112,0.4851004784,0.2144876579999999,-0.0323906691,0.02292410844,-0.0879124629,0.004
09:27:12,0.543019495,0.67346596,-0.31604336,0.14099416,0.03516692,-0.24944529,25.406798205,-13.99250612,-26.874204005,-83.183314,0.2821021983999999,0.4940273688,0.2261594309999999,-0.0339982149499999,0.02316045108,-0.08876027905,0.004
09:27:12,0.53459708,0.68226864,-0.3107462399999999,0.14077044,0.03487928,-0.25127236,25.41966272,-13.99502508,-26.85850492,-83.089246,0.2775039856,0.5029542592,0.2378312039999999,-0.0356057608,0.02339679372,-0.0896080952,0.004
09:27:12,0.526174665,0.69107132,-0.3054491199999999,0.14054672,0.03459164,-0.25309943,25.432527235,-13.99754404,-26.842805835,-82.99517800000001,0.2729057728,0.5118811496,0.2495029769999999,-0.03721330665,0.02363313636,-0.09045591135,0.004
09:27:12,0.51775225,0.6998740000000001,-0.300152,0.140323,0.034304,-0.2549265,25.44539175,-14.000063,-26.82710675,-82.90111,0.26830756,0.52080804,0.2611747499999999,-0.0388208525,0.023869479,-0.0913037275,0.004
09:27:12,0.509329835,0.7086766800000001,-0.29485488,0.14009928,0.03401636,-0.25675357,25.458256265,-14.00258196,-26.811407665,-82.807042,0.2637093472,0.5297349304000001,0.2728465229999999,-0.04042839835,0.02410582164,-0.09215154365,0.004
09:27:12,0.50090742,0.71747936,-0.2895577599999999,0.13987556,0.03372872,-0.25858064,25.47112078,-14.00510092,-26.79570858,-82.712974,0.2591111344,0.5386618208,0.2845182959999999,-0.0420359441999999,0.02434216428,-0.0929993598,0.004
09:27:12,0.492485005,0.7262820400000001,-0.2842606399999999,0.13965184,0.03344108,-0.26040771,25.483985295,-14.00761988,-26.780009495,-82.61890600000001,0.2545129216,0.5475887112,0.2961900689999999,-0.04364349005,0.02457850692,-0.09384717595,0.004
09:27:12,0.48406259,0.73508472,-0.2789635199999999,0.13942812,0.03315344,-0.26223478,25.49684981,-14.01013884,-26.76431041,-82.524838,0.2499147088,0.5565156016,0.3078618419999999,-0.0452510359,0.02481484956,-0.0946949921,0.004
09:27:12,0.475640175,0.7438874,-0.2736664,0.1392044,0.0328658,-0.26406185,25.509714325,-14.0126578,-26.748611325,-82.43077,0.245316496,0.5654424920000001,0.3195336149999999,-0.04685858175,0.0250511922,-0.09554280825,0.004
09:27:12,0.46721776,0.75269008,-0.26836928,0.13898068,0.03257816,-0.26588892,25.52257884,-14.01517676,-26.73291224,-82.336702,0.2407182832,0.5743693824,0.3312053879999999,-0.0484661276,0.02528753484,-0.0963906244,0.004
09:27:12,0.458795345,0.7614927600000001,-0.2630721599999999,0.13875696,0.03229052,-0.26771599,25.535443355,-14.01769572,-26.717213155,-82.24263400000001,0.2361200704,0.5832962728,0.3428771609999999,-0.0500736734499999,0.02552387748,-0.09723844055,0.004
09:27:12,0.45037293,0.7702954399999999,-0.2577750399999999,0.13853324,0.03200288,-0.26954306,25.54830787,-14.02021468,-26.70151407,-82.148566,0.2315218576,0.5922231632,0.3545489339999999,-0.0516812193,0.02576022012,-0.0980862567,0.004
09:27:12,0.441950515,0.77909812,-0.2524779199999999,0.13830952,0.03171524,-0.27137013,25.561172385,-14.02273364,-26.685814985,-82.054498,0.2269236448,0.6011500536,0.3662207069999999,-0.05328876515,0.02599656276,-0.09893407285,0.004
09:27:12,0.4335280999999999,0.7879008000000001,-0.2471807999999999,0.1380858,0.0314276,-0.2731972,25.5740369,-14.0252526,-26.6701159,-81.96043,0.222325432,0.610076944,0.3778924799999999,-0.054896311,0.0262329054,-0.099781889,0.004
09:27:12,0.425105685,0.7967034800000001,-0.24188368,0.13786208,0.03113996,-0.27502427,25.586901415,-14.02777156,-26.654416815,-81.86636200000001,0.2177272192,0.6190038344,0.3895642529999999,-0.05650385685,0.02646924804,-0.10062970515,0.004
09:27:12,0.41668327,0.80550616,-0.2365865599999999,0.13763836,0.03085232,-0.27685134,25.59976593,-14.03029052,-26.63871773,-81.772294,0.2131290064,0.6279307248,0.4012360259999999,-0.0581114026999999,0.02670559068,-0.1014775213,0.004
09:27:12,0.408260855,0.81430884,-0.2312894399999999,0.13741464,0.03056468,-0.27867841,25.612630445,-14.03280948,-26.623018645,-81.678226,0.2085307936,0.6368576152,0.4129077989999999,-0.05971894855,0.02694193332,-0.10232533745,0.004
09:27:12,0.39983844,0.8231115200000001,-0.2259923199999999,0.13719092,0.03027704,-0.28050548,25.62549496,-14.03532844,-26.60731956,-81.584158,0.2039325807999999,0.6457845056,0.4245795719999999,-0.0613264944,0.02717827596,-0.1031731536,0.004
09:27:12,0.391416025,0.8319141999999999,-0.2206951999999999,0.1369672,0.0299894,-0.28233255,25.638359475,-14.0378474,-26.591620475,-81.49009000000001,0.1993343679999999,0.6547113960000001,0.4362513449999999,-0.06293404025,0.0274146186,-0.10402096975,0.004
09:27:12,0.38299361,0.84071688,-0.21539808,0.13674348,0.02970176,-0.28415962,25.65122399,-14.04036636,-26.57592139,-81.396022,0.1947361551999999,0.6636382864,0.4479231179999999,-0.0645415861,0.02765096124,-0.1048687859,0.004
09:27:12,0.374571195,0.8495195600000001,-0.2101009599999999,0.13651976,0.02941412,-0.28598669,25.664088505,-14.04288532,-26.560222305,-81.301954,0.1901379423999999,0.6725651768,0.4595948909999999,-0.06614913195,0.02788730388,-0.10571660205,0.004
09:27:12,0.36614878,0.8583222400000001,-0.2048038399999999,0.13629604,0.02912648,-0.28781376,25.67695302,-14.04540428,-26.54452322,-81.207886,0.1855397295999999,0.6814920672,0.4712666639999999,-0.0677566778,0.02812364652,-0.1065644182,0.004
09:27:12,0.357726365,0.86712492,-0.1995067199999999,0.13607232,0.02883884,-0.2896408299999999,25.689817535,-14.04792324,-26.528824135,-81.11381800000001,0.1809415167999999,0.6904189576,0.4829384369999999,-0.06936422365,0.02835998916,-0.10741223435,0.004
09:27:12,0.34930395,0.8759276,-0.1942095999999999,0.1358486,0.0285512,-0.2914679,25.70268205,-14.0504422,-26.51312505,-81.01975,0.1763433039999999,0.699345848,0.4946102099999999,-0.0709717695,0.0285963318,-0.1082600505,0.004
09:27:12,0.340881535,0.8847302800000001,-0.18891248,0.13562488,0.02826356,-0.29329497,25.715546565,-14.05296116,-26.497425965,-80.925682,0.1717450911999999,0.7082727384,0.5062819829999998,-0.07257931535,0.02883267444,-0.10910786665,0.004
09:27:12,0.33245912,0.8935329600000002,-0.1836153599999999,0.13540116,0.02797592,-0.29512204,25.72841108,-14.05548012,-26.48172688,-80.831614,0.1671468783999999,0.7171996288,0.5179537559999998,-0.0741868612,0.02906901708,-0.1099556828,0.004
09:27:12,0.324036705,0.90233564,-0.1783182399999999,0.13517744,0.02768828,-0.29694911,25.741275595,-14.05799908,-26.466027795,-80.73754600000001,0.1625486655999999,0.7261265192,0.5296255289999998,-0.07579440705,0.02930535972,-0.11080349895,0.004
09:27:12,0.3156142900000001,0.91113832,-0.1730211199999999,0.13495372,0.02740064,-0.29877618,25.75414011,-14.06051804,-26.45032871,-80.643478,0.1579504527999999,0.7350534096,0.5412973019999998,-0.0774019529,0.02954170236,-0.1116513151,0.004
09:27:12,0.307191875,0.919941,-0.1677239999999999,0.13473,0.027113,-0.30060325,25.767004625,-14.063037,-26.434629625,-80.54941,0.1533522399999999,0.7439803,0.5529690749999998,-0.07900949875,0.029778045,-0.11249913125,0.004
09:27:12,0.29876946,0.92874368,-0.16242688,0.13450628,0.02682536,-0.30243032,25.77986914,-14.06555596,-26.41893054,-80.455342,0.1487540271999999,0.7529071904,0.5646408479999998,-0.0806170446,0.03001438764,-0.1133469474,0.004
09:27:12,0.2903470450000001,0.93754636,-0.1571297599999999,0.13428256,0.02653772,-0.3042573899999999,25.792733655,-14.06807492,-26.403231455,-80.36127400000001,0.1441558143999999,0.7618340808,0.5763126209999998,-0.08222459045,0.03025073028,-0.11419476355,0.004
09:27:12,0.28192463,0.94634904,-0.1518326399999999,0.13405884,0.02625008,-0.30608446,25.80559817,-14.07059388,-26.38753237,-80.267206,0.1395576015999999,0.7707609712,0.5879843939999998,-0.0838321363,0.03048707292,-0.1150425797,0.004
09:27:12,0.273502215,0.95515172,-0.1465355199999999,0.13383512,0.02596244,-0.30791153,25.818462685,-14.07311284,-26.371833285,-80.173138,0.1349593887999999,0.7796878616,0.5996561669999998,-0.08543968215,0.03072341556,-0.11589039585,0.004
09:27:12,0.2650798,0.9639544,-0.1412384,0.1336114,0.0256748,-0.3097386,25.8313272,-14.0756318,-26.3561342,-80.07907,0.1303611759999999,0.788614752,0.6113279399999998,-0.087047228,0.0309597582,-0.116738212,0.004
09:27:12,0.256657385,0.97275708,-0.13594128,0.13338768,0.02538716,-0.31156567,25.844191715,-14.07815076,-26.340435115,-79.98500200000001,0.1257629631999999,0.7975416424,0.6229997129999998,-0.08865477385,0.03119610084,-0.11758602815,0.004
09:27:12,0.24823497,0.98155976,-0.1306441599999999,0.13316396,0.02509952,-0.31339274,25.85705623,-14.08066972,-26.32473603,-79.890934,0.1211647503999999,0.8064685328,0.6346714859999998,-0.0902623197,0.03143244348,-0.1184338443,0.004
09:27:12,0.2398125549999999,0.99036244,-0.1253470399999999,0.13294024,0.02481188,-0.31521981,25.869920745,-14.08318868,-26.309036945,-79.796866,0.1165665375999999,0.8153954232,0.6463432589999998,-0.09186986555,0.03166878612,-0.11928166045,0.004
09:27:12,0.23139014,0.99916512,-0.1200499199999999,0.13271652,0.02452424,-0.31704688,25.88278526,-14.08570764,-26.29333786,-79.702798,0.1119683247999999,0.8243223136,0.6580150319999998,-0.0934774113999999,0.03190512876,-0.1201294766,0.004
09:27:12,0.222967725,1.0079678,-0.1147527999999999,0.1324928,0.0242366,-0.3188739499999999,25.895649775,-14.0882266,-26.277638775,-79.60873000000001,0.1073701119999999,0.833249204,0.6696868049999998,-0.0950849572499999,0.0321414714,-0.12097729275,0.004
09:27:12,0.21454531,1.01677048,-0.10945568,0.13226908,0.02394896,-0.32070102,25.90851429,-14.09074556,-26.26193969,-79.514662,0.1027718991999999,0.8421760944,0.681358578,-0.0966925031,0.03237781404,-0.1218251089,0.004
09:27:12,0.206122895,1.02557316,-0.1041585599999999,0.13204536,0.02366132,-0.32252809,25.921378805,-14.09326452,-26.246240605,-79.420594,0.0981736863999999,0.8511029848,0.693030351,-0.09830004895,0.03261415668,-0.12267292505,0.004
09:27:12,0.19770048,1.03437584,-0.0988614399999999,0.13182164,0.02337368,-0.32435516,25.93424332,-14.09578348,-26.23054152,-79.326526,0.0935754735999999,0.8600298752,0.704702124,-0.0999075948,0.03285049932,-0.1235207412,0.004
09:27:12,0.189278065,1.04317852,-0.0935643199999999,0.13159792,0.02308604,-0.32618223,25.947107835,-14.09830244,-26.214842435,-79.23245800000001,0.0889772607999999,0.8689567656,0.716373897,-0.10151514065,0.03308684196,-0.12436855735,0.004
09:27:12,0.18085565,1.0519812,-0.0882671999999999,0.1313742,0.0227984,-0.3280093,25.95997235,-14.1008214,-26.19914335,-79.13839,0.0843790479999999,0.877883656,0.72804567,-0.1031226865,0.0333231846,-0.1252163735,0.004
09:27:12,0.172433235,1.06078388,-0.08297008,0.13115048,0.02251076,-0.32983637,25.972836865,-14.10334036,-26.183444265,-79.044322,0.0797808351999999,0.8868105464,0.739717443,-0.10473023235,0.03355952724,-0.12606418965,0.004
09:27:12,0.16401082,1.06958656,-0.0776729599999999,0.13092676,0.02222312,-0.33166344,25.98570138,-14.10585932,-26.16774518,-78.950254,0.0751826223999999,0.8957374368,0.751389216,-0.1063377782,0.03379586988,-0.1269120058,0.004
09:27:12,0.155588405,1.07838924,-0.0723758399999999,0.13070304,0.02193548,-0.3334905099999999,25.998565895,-14.10837828,-26.152046095,-78.85618600000001,0.0705844095999999,0.9046643272,0.763060989,-0.10794532405,0.03403221252,-0.12775982195,0.004
09:27:12,0.14716599,1.08719192,-0.0670787199999999,0.13047932,0.02164784,-0.33531758,26.01143041,-14.11089724,-26.13634701,-78.762118,0.0659861967999999,0.9135912176,0.774732762,-0.1095528698999999,0.03426855516,-0.1286076381,0.004
09:27:12,0.138743575,1.0959946,-0.0617815999999999,0.1302556,0.0213602,-0.33714465,26.024294925,-14.1134162,-26.120647925,-78.66805,0.0613879839999999,0.922518108,0.786404535,-0.1111604157499999,0.0345048978,-0.12945545425,0.004
09:27:12,0.13032116,1.10479728,-0.0564844799999999,0.13003188,0.02107256,-0.33897172,26.03715944,-14.11593516,-26.10494884,-78.573982,0.0567897712,0.9314449984,0.798076308,-0.1127679616,0.03474124044,-0.1303032704,0.004
09:27:12,0.121898745,1.11359996,-0.05118736,0.12980816,0.02078492,-0.34079879,26.050023955,-14.11845412,-26.089249755,-78.47991400000001,0.0521915584,0.9403718888,0.809748081,-0.11437550745,0.03497758308,-0.13115108655,0.004
09:27:12,0.11347633,1.12240264,-0.0458902399999999,0.12958444,0.02049728,-0.34262586,26.06288847,-14.12097308,-26.07355067,-78.385846,0.0475933456,0.9492987792,0.821419854,-0.1159830533,0.03521392572,-0.1319989027,0.004
09:27:12,0.105053915,1.13120532,-0.0405931199999999,0.12936072,0.02020964,-0.34445293,26.075752985,-14.12349204,-26.057851585,-78.291778,0.0429951328,0.9582256696,0.833091627,-0.11759059915,0.03545026836,-0.13284671885,0.004
09:27:12,0.0966315,1.140008,-0.0352959999999999,0.129137,0.019922,-0.34628,26.0886175,-14.126011,-26.0421525,-78.19771,0.03839692,0.96715256,0.8447633999999999,-0.119198145,0.035686611,-0.133694535,0.004
09:27:12,0.088209085,1.14881068,-0.0299988799999999,0.12891328,0.01963436,-0.3481070699999999,26.101482015,-14.12852996,-26.026453415,-78.10364200000001,0.0337987072,0.9760794504,0.8564351729999999,-0.12080569085,0.03592295364,-0.13454235115,0.004
09:27:12,0.07978667,1.15761336,-0.02470176,0.12868956,0.01934672,-0.34993414,26.11434653,-14.13104892,-26.01075433,-78.009574,0.0292004944,0.9850063408,0.8681069459999999,-0.1224132367,0.03615929628,-0.1353901673,0.004
09:27:12,0.0713642550000001,1.16641604,-0.0194046399999999,0.12846584,0.01905908,-0.35176121,26.127211045,-14.13356788,-25.995055245,-77.915506,0.0246022815999999,0.9939332312,0.8797787189999999,-0.12402078255,0.03639563892,-0.13623798345,0.004
09:27:12,0.06294184,1.1752187200000002,-0.0141075199999999,0.12824212,0.01877144,-0.35358828,26.14007556,-14.13608684,-25.97935616,-77.821438,0.0200040687999999,1.0028601216,0.8914504919999999,-0.1256283284,0.03663198156,-0.1370857996,0.004
09:27:12,0.054519425,1.1840214,-0.0088103999999999,0.1280184,0.0184838,-0.35541535,26.152940075,-14.1386058,-25.963657075,-77.72737000000001,0.0154058559999999,1.011787012,0.903122265,-0.12723587425,0.0368683242,-0.13793361575,0.004
09:27:12,0.0460970100000001,1.19282408,-0.0035132799999999,0.12779468,0.01819616,-0.35724242,26.16580459,-14.14112476,-25.94795799,-77.633302,0.0108076431999999,1.0207139024,0.914794038,-0.1288434201,0.03710466684,-0.1387814319,0.004
09:27:12,0.037674595,1.20162676,0.0017838399999999,0.12757096,0.01790852,-0.35906949,26.178669105,-14.14364372,-25.932258905,-77.539234,0.0062094303999999,1.0296407928,0.926465811,-0.13045096595,0.03734100948,-0.13962924805,0.004
09:27:12,0.02925218,1.21042944,0.00708096,0.12734724,0.01762088,-0.36089656,26.19153362,-14.14616268,-25.91655982,-77.445166,0.0016112175999999,1.0385676832,0.938137584,-0.1320585118,0.03757735212,-0.1404770642,0.004
09:27:12,0.0208297650000001,1.21923212,0.01237808,0.12712352,0.01733324,-0.3627236299999999,26.204398135,-14.14868164,-25.900860735,-77.35109800000001,-0.0029869952,1.0474945736,0.949809357,-0.13366605765,0.03781369476,-0.14132488035,0.004
09:27:12,0.01240735,1.2280348,0.0176752,0.1268998,0.0170456,-0.3645507,26.21726265,-14.1512006,-25.88516165,-77.25703,-0.007585208,1.056421464,0.96148113,-0.1352736035,0.0380500374,-0.1421726965,0.004
09:27:12,0.003984935,1.2368374800000002,0.02297232,0.12667608,0.01675796,-0.36637777,26.230127165,-14.15371956,-25.869462565,-77.162962,-0.0121834208,1.0653483544,0.973152903,-0.13688114935,0.03828638004,-0.14302051265,0.004
09:27:12,-0.0044374799999998,1.24564016,0.0282694399999999,0.1264523599999999,0.01647032,-0.36820484,26.24299168,-14.15623852,-25.85376348,-77.068894,-0.0167816336,1.0742752448,0.984824676,-0.1384886952,0.03852272268,-0.1438683288,0.004
09:27:12,-0.0128598949999999,1.25444284,0.03356656,0.12622864,0.01618268,-0.37003191,26.255856195,-14.15875748,-25.838064395,-76.97482600000001,-0.0213798464,1.0832021352,0.996496449,-0.14009624105,0.03875906532,-0.14471614495,0.004
09:27:12,-0.0212823099999999,1.26324552,0.03886368,0.12600492,0.01589504,-0.37185898,26.26872071,-14.16127644,-25.82236531,-76.880758,-0.0259780592,1.0921290255999998,1.008168222,-0.1417037869,0.03899540796,-0.1455639611,0.004
09:27:12,-0.0297047249999999,1.2720482000000002,0.0441608,0.1257812,0.0156074,-0.37368605,26.281585225,-14.1637954,-25.806666225,-76.78669,-0.030576272,1.101055916,1.019839995,-0.14331133275,0.0392317506,-0.14641177725,0.004
09:27:12,-0.0381271399999999,1.28085088,0.04945792,0.12555748,0.01531976,-0.37551312,26.29444974,-14.16631436,-25.79096714,-76.692622,-0.0351744848,1.1099828064,1.031511768,-0.1449188786,0.03946809324,-0.1472595934,0.004
09:27:12,-0.0465495549999999,1.28965356,0.0547550399999999,0.12533376,0.01503212,-0.3773401899999999,26.307314255,-14.16883332,-25.775268055,-76.59855400000001,-0.0397726976,1.1189096968,1.043183541,-0.14652642445,0.03970443588,-0.14810740955,0.004
09:27:12,-0.0549719699999999,1.2984562400000002,0.06005216,0.12511004,0.01474448,-0.37916726,26.32017877,-14.17135228,-25.75956897,-76.504486,-0.0443709104,1.1278365872,1.054855314,-0.1481339703,0.03994077852,-0.1489552257,0.004
09:27:12,-0.0633943849999999,1.3072589200000002,0.06534928,0.12488632,0.01445684,-0.38099433,26.333043285,-14.17387124,-25.743869885,-76.41041799999999,-0.0489691232,1.1367634776000002,1.066527087,-0.14974151615,0.04017712116,-0.14980304185,0.004
09:27:12,-0.0718168,1.3160616,0.0706464,0.1246626,0.0141692,-0.3828214,26.3459078,-14.1763902,-25.7281708,-76.31635,-0.053567336,1.145690368,1.07819886,-0.151349062,0.0404134638,-0.150650858,0.004
09:27:12,-0.0802392149999998,1.32486428,0.07594352,0.12443888,0.01388156,-0.38464847,26.358772315,-14.17890916,-25.712471715,-76.222282,-0.0581655488,1.1546172584,1.089870633,-0.15295660785,0.04064980644,-0.15149867415,0.004
09:27:12,-0.0886616299999999,1.3336669600000002,0.0812406399999999,0.12421516,0.01359392,-0.38647554,26.37163683,-14.18142812,-25.69677263,-76.128214,-0.0627637616,1.1635441487999998,1.101542406,-0.1545641537,0.04088614908,-0.1523464903,0.004
09:27:12,-0.097084045,1.34246964,0.08653776,0.12399144,0.01330628,-0.38830261,26.384501345,-14.18394708,-25.681073545,-76.03414599999999,-0.0673619744,1.1724710392,1.113214179,-0.15617169955,0.04112249172,-0.15319430645,0.004
09:27:12,-0.1055064599999998,1.35127232,0.09183488,0.12376772,0.01301864,-0.39012968,26.39736586,-14.18646604,-25.66537446,-75.940078,-0.0719601872,1.1813979296,1.124885952,-0.1577792454,0.04135883436,-0.1540421226,0.004
09:27:12,-0.1139288749999999,1.360075,0.097132,0.123544,0.012731,-0.3919567499999999,26.410230375,-14.188985,-25.649675375,-75.84601,-0.0765584,1.1903248199999998,1.136557725,-0.15938679125,0.041595177,-0.15488993875,0.004
09:27:12,-0.12235129,1.3688776800000002,0.10242912,0.12332028,0.01244336,-0.39378382,26.42309489,-14.19150396,-25.63397629,-75.751942,-0.0811566128,1.1992517104,1.1482294979999998,-0.1609943371,0.04183151964,-0.1557377549,0.004
09:27:12,-0.1307737049999998,1.37768036,0.1077262399999999,0.12309656,0.01215572,-0.39561089,26.435959405,-14.19402292,-25.618277205,-75.65787399999999,-0.0857548256,1.2081786008000002,1.1599012709999998,-0.16260188295,0.04206786228,-0.15658557105,0.004
09:27:12,-0.1391961199999999,1.38648304,0.11302336,0.12287284,0.01186808,-0.39743796,26.44882392,-14.19654188,-25.60257812,-75.563806,-0.0903530384,1.2171054912,1.1715730439999998,-0.1642094288,0.04230420492,-0.1574333872,0.004
09:27:12,-0.147618535,1.3952857200000002,0.11832048,0.12264912,0.01158044,-0.39926503,26.461688435,-14.19906084,-25.586879035,-75.469738,-0.0949512511999999,1.2260323816,1.1832448169999998,-0.16581697465,0.04254054756,-0.15828120335,0.004
09:27:12,-0.1560409499999998,1.4040884,0.1236176,0.1224254,0.0112928,-0.4010921,26.47455295,-14.2015798,-25.57117995,-75.37567,-0.099549464,1.2349592720000002,1.1949165899999998,-0.1674245205,0.0427768902,-0.1591290195,0.004
09:27:12,-0.1644633649999999,1.41289108,0.12891472,0.12220168,0.01100516,-0.40291917,26.487417465,-14.20409876,-25.555480865,-75.28160199999999,-0.1041476767999999,1.2438861624,1.2065883629999998,-0.16903206635,0.04301323284,-0.15997683565,0.004
09:27:12,-0.17288578,1.42169376,0.1342118399999999,0.12197796,0.01071752,-0.40474624,26.50028198,-14.20661772,-25.53978178,-75.187534,-0.1087458896,1.2528130528,1.2182601359999998,-0.1706396122,0.04324957548,-0.1608246518,0.004
09:27:12,-0.1813081949999998,1.4304964400000002,0.13950896,0.12175424,0.01042988,-0.4065733099999999,26.513146495,-14.20913668,-25.524082695,-75.093466,-0.1133441023999999,1.2617399431999998,1.2299319089999998,-0.17224715805,0.04348591812,-0.16167246795,0.004
09:27:12,-0.1897306099999999,1.43929912,0.14480608,0.12153052,0.01014224,-0.40840038,26.52601101,-14.21165564,-25.50838361,-74.999398,-0.1179423152,1.2706668336,1.2416036819999998,-0.1738547039,0.04372226076,-0.1625202841,0.004
09:27:12,-0.1981530249999999,1.4481018,0.1501032,0.1213067999999999,0.0098546,-0.41022745,26.538875525,-14.2141746,-25.492684525,-74.90532999999999,-0.1225405279999999,1.2795937240000002,1.2532754549999998,-0.17546224975,0.0439586034,-0.16336810025,0.004
09:27:12,-0.2065754399999998,1.4569044800000002,0.15540032,0.12108308,0.00956696,-0.41205452,26.55174004,-14.21669356,-25.47698544,-74.811262,-0.1271387408,1.2885206144,1.2649472279999998,-0.1770697956,0.04419494604,-0.1642159164,0.004
09:27:12,-0.2149978549999999,1.46570716,0.1606974399999999,0.12085936,0.00927932,-0.41388159,26.564604555,-14.21921252,-25.461286355,-74.717194,-0.1317369535999999,1.2974475048,1.2766190009999998,-0.17867734145,0.04443128868,-0.16506373255,0.004
09:27:12,-0.2234202699999999,1.47450984,0.16599456,0.12063564,0.00899168,-0.4157086599999999,26.57746907,-14.22173148,-25.44558727,-74.623126,-0.1363351664,1.3063743952000002,1.2882907739999998,-0.1802848873,0.04466763132,-0.1659115487,0.004
09:27:12,-0.2318426849999998,1.48331252,0.17129168,0.12041192,0.00870404,-0.41753573,26.590333585,-14.22425044,-25.429888185,-74.52905799999999,-0.1409333792,1.3153012856,1.2999625469999998,-0.18189243315,0.04490397396,-0.16675936485,0.004
09:27:12,-0.2402650999999999,1.4921152000000002,0.1765888,0.1201882,0.0084164,-0.4193628,26.6031981,-14.2267694,-25.4141891,-74.43499,-0.145531592,1.324228176,1.3116343199999998,-0.183499979,0.0451403166,-0.167607181,0.004
09:27:12,-0.2486875149999999,1.50091788,0.18188592,0.11996448,0.00812876,-0.4211898699999999,26.616062615,-14.22928836,-25.398490015,-74.340922,-0.1501298048,1.3331550663999998,1.3233060929999998,-0.18510752485,0.04537665924,-0.16845499715,0.004
09:27:12,-0.2571099299999998,1.50972056,0.1871830399999999,0.11974076,0.00784112,-0.42301694,26.62892713,-14.23180732,-25.38279093,-74.246854,-0.1547280176,1.3420819568,1.3349778659999998,-0.1867150707,0.04561300188,-0.1693028133,0.004
09:27:12,-0.2655323449999999,1.5185232400000002,0.19248016,0.1195170399999999,0.00755348,-0.42484401,26.641791645,-14.23432628,-25.367091845,-74.15278599999999,-0.1593262304,1.3510088472,1.3466496389999998,-0.18832261655,0.04584934452,-0.17015062945,0.004
09:27:12,-0.2739547599999999,1.5273259200000002,0.19777728,0.11929332,0.00726584,-0.42667108,26.65465616,-14.23684524,-25.35139276,-74.058718,-0.1639244432,1.3599357376,1.3583214119999998,-0.1899301624,0.04608568716,-0.1709984456,0.004
09:27:12,-0.2823771749999998,1.5361286,0.2030744,0.1190696,0.0069782,-0.42849815,26.667520675,-14.2393642,-25.335693675,-73.96465,-0.168522656,1.368862628,1.3699931849999998,-0.19153770825,0.0463220298,-0.17184626175,0.004
09:27:12,-0.2907995899999999,1.54493128,0.20837152,0.11884588,0.00669056,-0.4303252199999999,26.68038519,-14.24188316,-25.31999459,-73.870582,-0.1731208688,1.3777895184000002,1.3816649579999998,-0.1931452541,0.04655837244,-0.1726940779,0.004
09:27:12,-0.2992220049999999,1.5537339600000002,0.2136686399999999,0.11862216,0.00640292,-0.43215229,26.693249705,-14.24440212,-25.304295505,-73.77651399999999,-0.1777190816,1.3867164088,1.3933367309999998,-0.19475279995,0.04679471508,-0.17354189405,0.004
09:27:12,-0.3076444199999998,1.56253664,0.21896576,0.11839844,0.00611528,-0.43397936,26.70611422,-14.24692108,-25.28859642,-73.682446,-0.1823172944,1.3956432992,1.4050085039999998,-0.1963603458,0.04703105772,-0.1743897102,0.004
09:27:12,-0.3160668349999999,1.57133932,0.22426288,0.11817472,0.00582764,-0.4358064299999999,26.718978735,-14.24944004,-25.272897335,-73.588378,-0.1869155072,1.4045701895999998,1.4166802769999998,-0.19796789165,0.04726740036,-0.17523752635,0.004
09:27:12,-0.3244892499999999,1.5801420000000002,0.22956,0.117951,0.00554,-0.4376335,26.73184325,-14.251959,-25.25719825,-73.49431,-0.19151372,1.41349708,1.4283520499999998,-0.1995754375,0.047503743,-0.1760853425,0.004
09:27:12,-0.3329116649999998,1.5889446800000002,0.23485712,0.1177272799999999,0.00525236,-0.43946057,26.744707765,-14.25447796,-25.241499165,-73.40024199999999,-0.1961119328,1.4224239704,1.4400238229999998,-0.20118298335,0.04774008564,-0.17693315865,0.004
09:27:12,-0.3413340799999999,1.59774736,0.2401542399999999,0.11750356,0.00496472,-0.44128764,26.75757228,-14.25699692,-25.22580008,-73.306174,-0.2007101456,1.4313508607999998,1.4516955959999998,-0.2027905292,0.04797642828,-0.1777809748,0.004
09:27:12,-0.3497564949999999,1.60655004,0.24545136,0.11727984,0.00467708,-0.44311471,26.770436795,-14.25951588,-25.210100995,-73.212106,-0.2053083584,1.4402777512,1.4633673689999998,-0.20439807505,0.04821277092,-0.17862879095,0.004
09:27:12,-0.3581789099999998,1.6153527200000002,0.25074848,0.11705612,0.00438944,-0.4449417799999999,26.78330131,-14.26203484,-25.19440191,-73.118038,-0.2099065712,1.4492046416000002,1.4750391419999995,-0.2060056209,0.04844911356,-0.1794766071,0.004
09:27:12,-0.3666013249999998,1.6241554,0.2560456,0.1168324,0.0041018,-0.44676885,26.796165825,-14.2645538,-25.178702825,-73.02396999999999,-0.214504784,1.458131532,1.4867109149999995,-0.20761316675,0.0486854562,-0.18032442325,0.004
09:27:12,-0.3750237399999999,1.63295808,0.26134272,0.1166086799999999,0.00381416,-0.44859592,26.80903034,-14.26707276,-25.16300374,-72.929902,-0.2191029968,1.4670584224,1.4983826879999995,-0.2092207126,0.04892179884,-0.1811722394,0.004
09:27:12,-0.3834461549999998,1.6417607600000002,0.2666398399999999,0.11638496,0.00352652,-0.4504229899999999,26.821894855,-14.26959172,-25.147304655,-72.835834,-0.2237012096,1.4759853127999998,1.5100544609999995,-0.21082825845,0.04915814148,-0.18202005555,0.004
09:27:12,-0.3918685699999998,1.6505634400000002,0.27193696,0.11616124,0.00323888,-0.45225006,26.83475937,-14.27211068,-25.13160557,-72.741766,-0.2282994224,1.4849122032,1.5217262339999995,-0.2124358043,0.04939448412,-0.1828678717,0.004
09:27:12,-0.4002909849999999,1.65936612,0.27723408,0.11593752,0.00295124,-0.45407713,26.847623885,-14.27462964,-25.115906485,-72.64769799999999,-0.2328976352,1.4938390936,1.5333980069999995,-0.21404335015,0.04963082676,-0.18371568785,0.004
09:27:12,-0.4087134,1.6681688,0.2825312,0.1157138,0.0026636,-0.4559042,26.8604884,-14.2771486,-25.1002074,-72.55363,-0.237495848,1.5027659839999998,1.5450697799999995,-0.215650896,0.0498671694,-0.184563504,0.004
09:27:12,-0.4171358149999998,1.6769714800000002,0.28782832,0.11549008,0.00237596,-0.45773127,26.873352915,-14.27966756,-25.084508315,-72.459562,-0.2420940608,1.5116928744,1.5567415529999995,-0.21725844185,0.05010351204,-0.18541132015,0.004
09:27:12,-0.4255582299999999,1.68577416,0.2931254399999999,0.11526636,0.00208832,-0.4595583399999999,26.88621743,-14.28218652,-25.06880923,-72.365494,-0.2466922736,1.5206197648000002,1.5684133259999995,-0.2188659877,0.05033985468,-0.1862591363,0.004
09:27:12,-0.433980645,1.69457684,0.29842256,0.11504264,0.00180068,-0.46138541,26.899081945,-14.28470548,-25.053110145,-72.27142599999999,-0.2512904864,1.5295466552,1.5800850989999995,-0.22047353355,0.05057619732,-0.18710695245,0.004
09:27:12,-0.4424030599999998,1.70337952,0.30371968,0.1148189199999999,0.00151304,-0.46321248,26.91194646,-14.28722444,-25.03741106,-72.177358,-0.2558886992,1.5384735456,1.5917568719999995,-0.2220810794,0.05081253996,-0.1879547686,0.004
09:27:12,-0.4508254749999999,1.7121822000000002,0.3090168,0.1145952,0.0012254,-0.4650395499999999,26.924810975,-14.2897434,-25.021711975,-72.08329,-0.260486912,1.5474004360000002,1.6034286449999997,-0.22368862525,0.0510488826,-0.18880258475,0.004
09:27:12,-0.45924789,1.72098488,0.31431392,0.11437148,0.00093776,-0.46686662,26.93767549,-14.29226236,-25.00601289,-71.989222,-0.2650851248,1.5563273264,1.6151004179999997,-0.2252961711,0.05128522524,-0.1896504009,0.004
09:27:12,-0.4676703049999998,1.72978756,0.3196110399999999,0.11414776,0.00065012,-0.46869369,26.950540005,-14.29478132,-24.990313805,-71.89515399999999,-0.2696833376,1.5652542168,1.6267721909999997,-0.22690371695,0.05152156788,-0.19049821705,0.004
09:27:12,-0.4760927199999999,1.7385902400000002,0.32490816,0.11392404,0.00036248,-0.47052076,26.96340452,-14.29730028,-24.97461472,-71.801086,-0.2742815504000001,1.5741811071999998,1.6384439639999997,-0.2285112627999999,0.05175791052,-0.1913460332,0.004
09:27:12,-0.484515135,1.74739292,0.33020528,0.11370032,7.484000000000657e-05,-0.47234783,26.976269035,-14.29981924,-24.958915635,-71.707018,-0.2788797632,1.5831079976,1.6501157369999997,-0.2301188086499999,0.05199425316,-0.19219384935,0.004
09:27:12,-0.4929375499999998,1.7561956,0.3355024,0.1134766,-0.0002127999999999,-0.4741748999999999,26.98913355,-14.3023382,-24.94321655,-71.61295,-0.2834779760000001,1.592034888,1.6617875099999997,-0.2317263544999999,0.0522305958,-0.1930416655,0.004
09:27:12,-0.5013599649999999,1.76499828,0.34079952,0.11325288,-0.0005004399999999,-0.47600197,27.001998065,-14.30485716,-24.927517465,-71.51888199999999,-0.2880761888,1.6009617784,1.6734592829999997,-0.2333339003499999,0.05246693844,-0.19388948165,0.004
09:27:12,-0.50978238,1.7738009600000002,0.3460966399999999,0.1130291599999999,-0.0007880799999999,-0.47782904,27.01486258,-14.30737612,-24.91181838,-71.424814,-0.2926744016000001,1.6098886688,1.685131056,-0.2349414462,0.05270328108,-0.1947372978,0.004
09:27:12,-0.5182047949999998,1.78260364,0.35139376,0.11280544,-0.0010757199999999,-0.4796561099999999,27.027727095,-14.30989508,-24.896119295,-71.330746,-0.2972726144,1.6188155592000002,1.6968028289999997,-0.23654899205,0.05293962372,-0.19558511395,0.004
09:27:12,-0.5266272099999999,1.79140632,0.35669088,0.11258172,-0.0013633599999999,-0.48148318,27.04059161,-14.31241404,-24.88042021,-71.236678,-0.3018708272000001,1.6277424496,1.708474602,-0.2381565379,0.05317596636,-0.1964329301,0.004
09:27:12,-0.535049625,1.8002090000000002,0.361988,0.112358,-0.0016509999999999,-0.48331025,27.053456125,-14.314933,-24.864721125,-71.14260999999999,-0.30646904,1.63666934,1.7201463749999997,-0.23976408375,0.053412309,-0.19728074625,0.004
09:27:12,-0.5434720399999998,1.80901168,0.36728512,0.11213428,-0.0019386399999999,-0.48513732,27.06632064,-14.31745196,-24.84902204,-71.048542,-0.3110672528000001,1.6455962303999998,1.731818148,-0.2413716296,0.05364865164,-0.1981285624,0.004
09:27:12,-0.5518944549999999,1.81781436,0.3725822399999999,0.1119105599999999,-0.0022262799999999,-0.48696439,27.079185155,-14.31997092,-24.833322955,-70.954474,-0.3156654656,1.6545231208,1.7434899209999997,-0.24297917545,0.05388499428,-0.19897637855,0.004
09:27:12,-0.56031687,1.82661704,0.37787936,0.11168684,-0.0025139199999999,-0.4887914599999999,27.09204967,-14.32248988,-24.81762387,-70.860406,-0.3202636784000001,1.6634500112,1.755161694,-0.2445867213,0.05412133692,-0.1998241947,0.004
09:27:12,-0.5687392849999998,1.83541972,0.38317648,0.11146312,-0.0028015599999999,-0.49061853,27.104914185,-14.32500884,-24.801924785,-70.76633799999999,-0.3248618912,1.6723769016,1.7668334669999997,-0.24619426715,0.05435767956,-0.20067201085,0.004
09:27:12,-0.5771616999999999,1.8442224,0.3884736,0.1112394,-0.0030891999999999,-0.4924456,27.1177787,-14.3275278,-24.7862257,-70.67227,-0.3294601040000001,1.681303792,1.77850524,-0.247801813,0.0545940222,-0.201519827,0.004
09:27:12,-0.585584115,1.85302508,0.39377072,0.11101568,-0.0033768399999999,-0.4942726699999999,27.130643215,-14.33004676,-24.770526615,-70.578202,-0.3340583168,1.6902306824000002,1.7901770129999997,-0.24940935885,0.05483036484,-0.20236764315,0.004
09:27:12,-0.5940065299999998,1.86182776,0.3990678399999999,0.11079196,-0.0036644799999999,-0.49609974,27.14350773,-14.33256572,-24.75482753,-70.484134,-0.3386565296000001,1.6991575728,1.801848786,-0.2510169047,0.05506670748,-0.2032154593,0.004
09:27:12,-0.6024289449999999,1.87063044,0.40436496,0.11056824,-0.0039521199999999,-0.49792681,27.156372245,-14.33508468,-24.739128445,-70.39006599999999,-0.3432547424,1.7080844632,1.813520559,-0.25262445055,0.05530305012,-0.20406327545,0.004
09:27:12,-0.61085136,1.87943312,0.40966208,0.11034452,-0.0042397599999999,-0.49975388,27.16923676,-14.33760364,-24.72342936,-70.295998,-0.3478529552000001,1.7170113535999998,1.825192332,-0.2542319964,0.05553939276,-0.2049110916,0.004
09:27:12,-0.6192737749999998,1.8882358,0.4149592,0.1101207999999999,-0.0045273999999999,-0.50158095,27.182101275,-14.3401226,-24.707730275,-70.20193,-0.352451168,1.725938244,1.836864105,-0.25583954225,0.0557757354,-0.20575890775,0.004
09:27:12,-0.6276961899999999,1.89703848,0.42025632,0.10989708,-0.0048150399999999,-0.50340802,27.19496579,-14.34264156,-24.69203119,-70.107862,-0.3570493808000001,1.7348651344,1.848535878,-0.2574470881,0.05601207804,-0.2066067239,0.004
09:27:12,-0.636118605,1.90584116,0.4255534399999999,0.10967336,-0.0051026799999999,-0.50523509,27.207830305,-14.34516052,-24.676332105,-70.01379399999999,-0.3616475936,1.7437920247999998,1.860207651,-0.25905463395,0.05624842068,-0.20745454005,0.004
09:27:12,-0.6445410199999998,1.91464384,0.43085056,0.10944964,-0.0053903199999999,-0.50706216,27.22069482,-14.34767948,-24.66063302,-69.919726,-0.3662458064000001,1.7527189152,1.871879424,-0.2606621797999999,0.05648476332,-0.2083023562,0.004
09:27:12,-0.6529634349999999,1.92344652,0.4361476799999999,0.10922592,-0.0056779599999999,-0.50888923,27.233559335,-14.35019844,-24.644933935,-69.825658,-0.3708440192,1.7616458056000002,1.883551197,-0.2622697256499999,0.05672110596,-0.20915017235,0.004
09:27:12,-0.6613858499999999,1.9322492,0.4414447999999999,0.1090022,-0.0059655999999999,-0.5107163,27.24642385,-14.3527174,-24.62923485,-69.73159,-0.3754422320000001,1.770572696,1.89522297,-0.2638772714999999,0.0569574486,-0.2099979885,0.004
09:27:12,-0.6698082649999998,1.94105188,0.44674192,0.10877848,-0.0062532399999999,-0.51254337,27.259288365,-14.35523636,-24.613535765,-69.63752199999999,-0.3800404448,1.7794995864,1.906894743,-0.2654848173499999,0.05719379124,-0.21084580465,0.004
09:27:12,-0.6782306799999999,1.94985456,0.45203904,0.10855476,-0.0065408799999999,-0.51437044,27.27215288,-14.35775532,-24.59783668,-69.543454,-0.3846386576,1.7884264768000002,1.918566516,-0.2670923631999999,0.05743013388,-0.2116936208,0.004
09:27:12,-0.6866530949999999,1.95865724,0.4573361600000001,0.1083310399999999,-0.0068285199999999,-0.51619751,27.285017395,-14.36027428,-24.582137595,-69.449386,-0.3892368704,1.7973533672,1.930238289,-0.2686999090499999,0.05766647652,-0.21254143695,0.004
09:27:12,-0.6950755099999998,1.96745992,0.4626332799999999,0.10810732,-0.0071161599999999,-0.51802458,27.29788191,-14.36279324,-24.56643851,-69.355318,-0.3938350832,1.8062802576,1.941910062,-0.2703074548999999,0.05790281916,-0.2133892531,0.004
09:27:12,-0.7034979249999999,1.9762626,0.4679303999999999,0.1078836,-0.0074037999999999,-0.51985165,27.310746425,-14.3653122,-24.550739425,-69.26124999999999,-0.398433296,1.815207148,1.953581835,-0.2719150007499999,0.0581391618,-0.21423706925,0.004
09:27:12,-0.7119203399999999,1.98506528,0.47322752,0.10765988,-0.0076914399999999,-0.52167872,27.32361094,-14.36783116,-24.53504034,-69.167182,-0.4030315088,1.8241340384,1.965253608,-0.2735225465999999,0.05837550444,-0.2150848854,0.004
09:27:12,-0.7203427549999998,1.99386796,0.47852464,0.10743616,-0.0079790799999999,-0.52350579,27.336475455,-14.37035012,-24.519341255,-69.073114,-0.4076297216,1.8330609288,1.976925381,-0.27513009245,0.05861184708,-0.21593270155,0.004
09:27:12,-0.7287651699999999,2.00267064,0.4838217600000001,0.1072124399999999,-0.0082667199999999,-0.52533286,27.34933997,-14.37286908,-24.50364217,-68.979046,-0.4122279344,1.8419878192,1.988597154,-0.2767376383,0.05884818972,-0.2167805177,0.004
09:27:12,-0.7371875849999999,2.01147332,0.4891188799999999,0.10698872,-0.0085543599999999,-0.52715993,27.362204485,-14.37538804,-24.487943085,-68.88497799999999,-0.4168261472,1.8509147096,2.000268927,-0.27834518415,0.05908453236,-0.21762833385,0.004
09:27:13,-0.74561,2.020276,0.494416,0.106765,-0.008842,-0.528987,27.375069,-14.377907,-24.472244,-68.79091,-0.42142436,1.8598416,2.0119407,-0.27995273,0.059320875,-0.21847615,0.004
09:27:13,-0.74512304,2.0274765,0.485450835,0.10934314,-0.013854465,-0.52687761,27.39686411,-14.424959,-24.38187466,-68.76389363999999,-0.4333802412,1.868350268,2.0085545065,-0.2759014612,0.055171965825,-0.22171926675,0.004
09:27:13,-0.74463608,2.034677,0.47648567,0.11192128,-0.01886693,-0.52476822,27.41865922,-14.472011,-24.29150532,-68.73687728,-0.4453361224,1.876858936,2.005168313,-0.2718501923999999,0.05102305665,-0.2249623835,0.004
09:27:13,-0.74414912,2.0418775,0.467520505,0.11449942,-0.023879395,-0.52265883,27.44045433,-14.519063,-24.20113598,-68.70986092,-0.4572920036,1.885367604,2.0017821195,-0.2677989235999999,0.046874147475,-0.22820550025,0.004
09:27:13,-0.74366216,2.049078,0.45855534,0.11707756,-0.02889186,-0.52054944,27.46224944,-14.566115,-24.11076664,-68.68284455999999,-0.4692478848,1.893876272,1.998395926,-0.2637476548,0.0427252383,-0.231448617,0.004
09:27:13,-0.7431752,2.0562785,0.449590175,0.1196557,-0.033904325,-0.5184400499999999,27.48404455,-14.613167,-24.0203973,-68.6558282,-0.481203766,1.90238494,1.9950097325,-0.259696386,0.038576329125,-0.23469173375,0.004
09:27:13,-0.74268824,2.063479,0.44062501,0.12223384,-0.03891679,-0.5163306599999999,27.50583966,-14.660219,-23.93002796,-68.62881184,-0.4931596472,1.910893608,1.991623539,-0.2556451172,0.03442741995,-0.2379348505,0.004
09:27:13,-0.74220128,2.0706795,0.431659845,0.12481198,-0.043929255,-0.51422127,27.52763477,-14.707271,-23.83965862,-68.60179547999999,-0.5051155284,1.919402276,1.9882373455,-0.2515938484,0.030278510775,-0.24117796725,0.004
09:27:13,-0.74171432,2.07788,0.42269468,0.12739012,-0.04894172,-0.51211188,27.54942988,-14.754323,-23.74928928,-68.57477912,-0.5170714096,1.927910944,1.984851152,-0.2475425795999999,0.0261296016,-0.244421084,0.004
09:27:13,-0.74122736,2.0850805,0.413729515,0.12996826,-0.053954185,-0.51000249,27.57122499,-14.801375,-23.65891994,-68.54776276,-0.5290272908,1.936419612,1.9814649585,-0.2434913107999999,0.021980692425,-0.24766420075,0.004
09:27:13,-0.7407404,2.092281,0.40476435,0.1325464,-0.05896665,-0.5078931,27.5930201,-14.848427,-23.5685506,-68.5207464,-0.540983172,1.94492828,1.978078765,-0.239440042,0.01783178325,-0.2509073175,0.004
09:27:13,-0.74025344,2.0994815,0.395799185,0.13512454,-0.063979115,-0.50578371,27.61481521,-14.895479,-23.47818126,-68.49373004,-0.5529390532,1.953436948,1.9746925715,-0.2353887731999999,0.013682874075,-0.25415043425,0.004
09:27:13,-0.73976648,2.106682,0.38683402,0.13770268,-0.06899158,-0.50367432,27.63661032,-14.942531,-23.38781192,-68.46671368,-0.5648949344,1.961945616,1.971306378,-0.2313375044,0.0095339649,-0.257393551,0.004
09:27:13,-0.73927952,2.1138825,0.377868855,0.14028082,-0.074004045,-0.50156493,27.65840543,-14.989583,-23.29744258,-68.43969732,-0.5768508156000001,1.970454284,1.9679201845,-0.2272862356,0.005385055725,-0.26063666775,0.004
09:27:13,-0.73879256,2.121083,0.36890369,0.14285896,-0.07901651,-0.49945554,27.68020054,-15.036635,-23.20707324,-68.41268096,-0.5888066968,1.978962952,1.964533991,-0.2232349668,0.00123614655,-0.2638797845,0.004
09:27:13,-0.7383056,2.1282835,0.359938525,0.1454370999999999,-0.084028975,-0.49734615,27.70199565,-15.083687,-23.1167039,-68.3856646,-0.600762578,1.98747162,1.9611477975,-0.2191836979999999,-0.0029127626249999,-0.26712290125,0.004
09:27:13,-0.73781864,2.135484,0.35097336,0.14801524,-0.08904144,-0.49523676,27.72379076,-15.130739,-23.02633456,-68.35864824,-0.6127184592,1.995980288,1.957761604,-0.2151324291999999,-0.0070616717999999,-0.270366018,0.004
09:27:13,-0.73733168,2.1426845,0.342008195,0.15059338,-0.094053905,-0.4931273699999999,27.74558587,-15.177791,-22.93596522,-68.33163188,-0.6246743404,2.004488956,1.9543754105,-0.2110811604,-0.0112105809749999,-0.27360913475,0.004
09:27:13,-0.73684472,2.149885,0.33304303,0.15317152,-0.09906637,-0.4910179799999999,27.76738098,-15.224843,-22.84559588,-68.30461552,-0.6366302216,2.012997624,1.950989217,-0.2070298916,-0.0153594901499999,-0.2768522515,0.004
09:27:13,-0.73635776,2.1570855,0.324077865,0.15574966,-0.104078835,-0.48890859,27.78917609,-15.271895,-22.75522654,-68.27759916,-0.6485861028,2.021506292,1.9476030235,-0.2029786228,-0.019508399325,-0.28009536825,0.004
09:27:13,-0.7358708,2.164286,0.3151127,0.1583278,-0.1090913,-0.4867992,27.8109712,-15.318947,-22.6648572,-68.2505828,-0.660541984,2.03001496,1.94421683,-0.198927354,-0.0236573084999999,-0.283338485,0.004
09:27:13,-0.73538384,2.1714865,0.306147535,0.16090594,-0.114103765,-0.48468981,27.83276631,-15.365999,-22.57448786,-68.22356644,-0.6724978652,2.038523628,1.9408306365,-0.1948760852,-0.0278062176749999,-0.28658160175,0.004
09:27:13,-0.73489688,2.178687,0.29718237,0.16348408,-0.11911623,-0.48258042,27.85456142,-15.413051,-22.48411852,-68.19655008,-0.6844537464,2.047032296,1.937444443,-0.1908248163999999,-0.0319551268499999,-0.2898247185,0.004
09:27:13,-0.7344099199999999,2.1858875,0.288217205,0.1660622199999999,-0.124128695,-0.4804710299999999,27.87635653,-15.460103,-22.39374918,-68.16953372,-0.6964096276,2.055540964,1.9340582495,-0.1867735475999999,-0.036104036025,-0.29306783525,0.004
09:27:13,-0.73392296,2.193088,0.27925204,0.16864036,-0.12914116,-0.47836164,27.89815164,-15.507155,-22.30337984,-68.14251736,-0.7083655088,2.064049632,1.930672056,-0.1827222788,-0.0402529451999999,-0.296310952,0.004
09:27:13,-0.733436,2.2002885,0.270286875,0.1712185,-0.134153625,-0.47625225,27.91994675,-15.554207,-22.2130105,-68.115501,-0.7203213900000001,2.0725583,1.9272858625,-0.17867101,-0.0444018543749999,-0.29955406875,0.004
09:27:13,-0.7329490399999999,2.207489,0.26132171,0.17379664,-0.13916609,-0.47414286,27.94174186,-15.601259,-22.12264116,-68.08848464,-0.7322772712000001,2.081066968,1.923899669,-0.1746197412,-0.0485507635499999,-0.3027971855,0.004
09:27:13,-0.73246208,2.2146895,0.252356545,0.17637478,-0.144178555,-0.4720334699999999,27.96353697,-15.648311,-22.03227182,-68.06146828,-0.7442331524000001,2.089575636,1.9205134755,-0.1705684724,-0.052699672725,-0.30604030225,0.004
09:27:13,-0.73197512,2.22189,0.24339138,0.17895292,-0.14919102,-0.4699240799999999,27.98533208,-15.695363,-21.94190248,-68.03445192,-0.7561890336,2.098084304,1.917127282,-0.1665172036,-0.0568485818999999,-0.309283419,0.004
09:27:13,-0.7314881599999999,2.2290905,0.234426215,0.18153106,-0.154203485,-0.46781469,28.00712719,-15.742415,-21.85153314,-68.00743555999999,-0.7681449148,2.106592972,1.9137410885,-0.1624659348,-0.0609974910749999,-0.31252653575,0.004
09:27:13,-0.7310012,2.236291,0.22546105,0.1841092,-0.15921595,-0.4657053,28.0289223,-15.789467,-21.7611638,-67.9804192,-0.780100796,2.11510164,1.910354895,-0.1584146659999999,-0.0651464002499999,-0.3157696525,0.004
09:27:13,-0.73051424,2.2434915,0.216495885,0.1866873399999999,-0.164228415,-0.46359591,28.05071741,-15.836519,-21.67079446,-67.95340284,-0.7920566772,2.123610308,1.9069687015,-0.1543633972,-0.069295309425,-0.31901276925,0.004
09:27:13,-0.73002728,2.250692,0.20753072,0.1892654799999999,-0.16924088,-0.46148652,28.07251252,-15.883571,-21.58042512,-67.92638647999999,-0.8040125584,2.132118976,1.903582508,-0.1503121284,-0.0734442186,-0.322255886,0.004
09:27:13,-0.72954032,2.2578925,0.198565555,0.19184362,-0.174253345,-0.4593771299999999,28.09430763,-15.930623,-21.49005578,-67.89937012,-0.8159684396,2.140627644,1.9001963145,-0.1462608596,-0.0775931277749999,-0.32549900275,0.004
09:27:13,-0.72905336,2.265093,0.18960039,0.19442176,-0.17926581,-0.45726774,28.11610274,-15.977675,-21.39968644,-67.87235376,-0.8279243208,2.149136312,1.896810121,-0.1422095908,-0.0817420369499999,-0.3287421195,0.004
09:27:13,-0.7285664,2.2722935,0.180635225,0.1969999,-0.184278275,-0.45515835,28.13789785,-16.024727,-21.3093171,-67.84533739999999,-0.839880202,2.15764498,1.8934239275,-0.138158322,-0.085890946125,-0.33198523625,0.004
09:27:13,-0.72807944,2.279494,0.17167006,0.19957804,-0.18929074,-0.45304896,28.15969296,-16.071779,-21.21894776,-67.81832104,-0.8518360832,2.166153648,1.890037734,-0.1341070532,-0.0900398553,-0.335228353,0.004
09:27:13,-0.72759248,2.2866945,0.162704895,0.20215618,-0.194303205,-0.4509395699999999,28.18148807,-16.118831,-21.12857842,-67.79130468,-0.8637919644000001,2.174662316,1.8866515405,-0.1300557843999999,-0.0941887644749999,-0.33847146975,0.004
09:27:13,-0.72710552,2.293895,0.15373973,0.20473432,-0.19931567,-0.4488301799999999,28.20328318,-16.165883,-21.03820908,-67.76428831999999,-0.8757478456000001,2.183170984,1.883265347,-0.1260045156,-0.09833767365,-0.3417145865,0.004
09:27:13,-0.72661856,2.3010955,0.144774565,0.20731246,-0.204328135,-0.44672079,28.22507829,-16.212935,-20.94783974,-67.73727196,-0.8877037268000001,2.191679652,1.8798791535,-0.1219532468,-0.102486582825,-0.34495770325,0.004
09:27:13,-0.7261316,2.308296,0.1358094,0.2098905999999999,-0.2093406,-0.4446114,28.2468734,-16.259987,-20.8574704,-67.7102556,-0.8996596080000001,2.20018832,1.87649296,-0.1179019779999999,-0.106635492,-0.34820082,0.004
09:27:13,-0.72564464,2.3154965,0.126844235,0.21246874,-0.214353065,-0.44250201,28.26866851,-16.307039,-20.76710106,-67.68323923999999,-0.9116154892,2.208696988,1.8731067665,-0.1138507092,-0.1107844011749999,-0.35144393675,0.004
09:27:13,-0.72515768,2.322697,0.11787907,0.21504688,-0.21936553,-0.44039262,28.29046362,-16.354091,-20.67673172,-67.65622288,-0.9235713704,2.217205656,1.869720573,-0.1097994404,-0.1149333103499999,-0.3546870535,0.004
09:27:13,-0.72467072,2.3298975,0.108913905,0.21762502,-0.224377995,-0.4382832299999999,28.31225873,-16.401143,-20.58636238,-67.62920652,-0.9355272516,2.225714324,1.8663343795,-0.1057481716,-0.119082219525,-0.35793017025,0.004
09:27:13,-0.72418376,2.337098,0.09994874,0.22020316,-0.22939046,-0.43617384,28.33405384,-16.448195,-20.49599304,-67.60219015999999,-0.9474831328,2.234222992,1.862948186,-0.1016969027999999,-0.1232311287,-0.361173287,0.004
09:27:13,-0.7236968,2.3442985,0.0909835750000001,0.2227813,-0.234402925,-0.43406445,28.35584895,-16.495247,-20.4056237,-67.5751738,-0.959439014,2.24273166,1.8595619925,-0.097645634,-0.127380037875,-0.36441640375,0.004
09:27:13,-0.72320984,2.351499,0.0820184100000001,0.22535944,-0.23941539,-0.43195506,28.37764406,-16.542299,-20.31525436,-67.54815744,-0.9713948952,2.251240328,1.856175799,-0.0935943652,-0.13152894705,-0.3676595205,0.004
09:27:13,-0.72272288,2.3586995,0.0730532450000001,0.22793758,-0.244427855,-0.4298456699999999,28.39943917,-16.589351,-20.22488502,-67.52114107999999,-0.9833507764,2.259748996,1.8527896055,-0.0895430964,-0.135677856225,-0.37090263725,0.004
09:27:13,-0.72223592,2.3659,0.06408808,0.23051572,-0.24944032,-0.4277362799999999,28.42123428,-16.636403,-20.13451568,-67.49412472,-0.9953066576,2.268257664,1.849403412,-0.0854918276,-0.1398267654,-0.374145754,0.004
09:27:13,-0.72174896,2.3731005,0.055122915,0.23309386,-0.254452785,-0.42562689,28.44302939,-16.683455000000002,-20.04414634,-67.46710836,-1.0072625388,2.276766332,1.8460172185,-0.0814405588,-0.143975674575,-0.37738887075,0.004
09:27:13,-0.721262,2.380301,0.04615775,0.235672,-0.25946525,-0.4235175,28.4648245,-16.730507,-19.953777,-67.44009199999999,-1.01921842,2.285275,1.842631025,-0.07738929,-0.1481245837499999,-0.3806319875,0.004
09:27:13,-0.72077504,2.3875015,0.037192585,0.23825014,-0.264477715,-0.42140811,28.48661961,-16.777559,-19.86340766,-67.41307564,-1.0311743012,2.293783668,1.8392448315,-0.0733380211999999,-0.152273492925,-0.38387510425,0.004
09:27:13,-0.72028808,2.394702,0.02822742,0.24082828,-0.26949018,-0.41929872,28.50841472,-16.824611,-19.77303832,-67.38605928,-1.0431301824,2.302292336,1.835858638,-0.0692867524,-0.1564224021,-0.387118221,0.004
09:27:13,-0.71980112,2.4019025,0.019262255,0.24340642,-0.274502645,-0.4171893299999999,28.53020983,-16.871663,-19.68266898,-67.35904292,-1.0550860636,2.310801004,1.8324724445,-0.0652354836,-0.160571311275,-0.39036133775,0.004
09:27:13,-0.71931416,2.409103,0.01029709,0.24598456,-0.27951511,-0.41507994,28.55200494,-16.918715,-19.59229964,-67.33202656,-1.0670419448,2.319309672,1.829086251,-0.0611842148,-0.16472022045,-0.3936044545,0.004
09:27:13,-0.7188272,2.4163035,0.001331925,0.2485627,-0.284527575,-0.41297055,28.57380005,-16.965767,-19.5019303,-67.3050102,-1.078997826,2.32781834,1.8257000575,-0.0571329459999999,-0.168869129625,-0.39684757125,0.004
09:27:13,-0.71834024,2.423504,-0.0076332399999999,0.25114084,-0.28954004,-0.4108611599999999,28.59559516,-17.012819,-19.41156096,-67.27799384,-1.0909537072,2.336327008,1.822313864,-0.0530816772,-0.1730180388,-0.400090688,0.004
09:27:13,-0.71785328,2.4307045,-0.0165984049999999,0.25371898,-0.2945525050000001,-0.4087517699999999,28.61739027,-17.059871,-19.32119162,-67.25097748,-1.1029095884,2.344835676,1.8189276705,-0.0490304084,-0.177166947975,-0.40333380475,0.004
09:27:13,-0.71736632,2.437905,-0.0255635699999999,0.25629712,-0.29956497,-0.4066423799999999,28.63918538,-17.106923000000002,-19.23082228,-67.22396112,-1.1148654696,2.353344344,1.815541477,-0.0449791395999999,-0.1813158571499999,-0.4065769215,0.004
09:27:13,-0.71687936,2.4451055,-0.0345287349999999,0.25887526,-0.304577435,-0.40453299,28.66098049,-17.153975,-19.14045294,-67.19694476,-1.1268213508,2.361853012,1.8121552835,-0.0409278708,-0.185464766325,-0.40982003825,0.004
09:27:13,-0.7163923999999999,2.452306,-0.0434938999999999,0.2614534,-0.3095899000000001,-0.4024236,28.6827756,-17.201027,-19.0500836,-67.1699284,-1.138777232,2.37036168,1.80876909,-0.036876602,-0.1896136755,-0.413063155,0.004
09:27:13,-0.71590544,2.4595065,-0.0524590649999999,0.26403154,-0.314602365,-0.40031421,28.70457071,-17.248079,-18.95971426,-67.14291204,-1.1507331132,2.378870348,1.8053828965,-0.0328253332,-0.193762584675,-0.41630627175,0.004
09:27:13,-0.71541848,2.466707,-0.0614242299999999,0.2666096799999999,-0.31961483,-0.39820482,28.72636582,-17.295131,-18.86934492,-67.11589568,-1.1626889944,2.387379016,1.801996703,-0.0287740644,-0.19791149385,-0.4195493885,0.004
09:27:13,-0.7149315199999999,2.4739075,-0.0703893949999999,0.2691878199999999,-0.324627295,-0.3960954299999999,28.74816093,-17.342183,-18.77897558,-67.08887932,-1.1746448756,2.395887684,1.7986105094999998,-0.0247227956,-0.202060403025,-0.42279250525,0.004
09:27:13,-0.71444456,2.481108,-0.0793545599999999,0.27176596,-0.32963976,-0.39398604,28.76995604,-17.389235,-18.68860624,-67.06186296,-1.1866007568,2.404396352,1.795224316,-0.0206715268,-0.2062093122,-0.426035622,0.004
09:27:13,-0.7139576,2.4883085,-0.0883197249999999,0.2743441,-0.3346522250000001,-0.39187665,28.79175115,-17.436287,-18.5982369,-67.0348466,-1.198556638,2.41290502,1.7918381225,-0.016620258,-0.210358221375,-0.42927873875,0.004
09:27:13,-0.7134706399999999,2.495509,-0.0972848899999999,0.27692224,-0.33966469,-0.3897672599999999,28.81354626,-17.483339,-18.50786756,-67.00783024,-1.2105125192,2.421413688,1.7884519289999998,-0.0125689891999999,-0.2145071305499999,-0.4325218555,0.004
09:27:13,-0.71298368,2.5027095,-0.1062500549999999,0.27950038,-0.344677155,-0.3876578699999999,28.83534137,-17.530391,-18.41749822,-66.98081388,-1.2224684004000002,2.429922356,1.7850657355,-0.0085177203999999,-0.2186560397249999,-0.43576497225,0.004
09:27:13,-0.71249672,2.50991,-0.1152152199999999,0.28207852,-0.34968962,-0.3855484799999999,28.85713648,-17.577443,-18.32712888,-66.95379752,-1.2344242816,2.438431024,1.781679542,-0.0044664516,-0.2228049488999999,-0.439008089,0.004
09:27:13,-0.7120097599999999,2.5171105000000003,-0.1241803849999999,0.28465666,-0.354702085,-0.38343909,28.87893159,-17.624495,-18.23675954,-66.92678116,-1.2463801628,2.446939692,1.7782933485,-0.0004151828,-0.226953858075,-0.44225120575,0.004
09:27:13,-0.7115228,2.524311,-0.1331455499999999,0.2872348,-0.3597145500000001,-0.3813297,28.9007267,-17.671547,-18.1463902,-66.8997648,-1.258336044,2.45544836,1.774907155,0.0036360859999999,-0.23110276725,-0.4454943225,0.004
09:27:13,-0.71103584,2.5315115,-0.1421107149999999,0.28981294,-0.364727015,-0.37922031,28.92252181,-17.718599,-18.05602086,-66.87274844,-1.2702919252,2.4639570280000003,1.7715209614999998,0.0076873547999999,-0.235251676425,-0.44873743925,0.004
09:27:13,-0.7105488799999999,2.5387120000000003,-0.1510758799999998,0.29239108,-0.36973948,-0.37711092,28.94431692,-17.765651,-17.96565152,-66.84573208,-1.2822478064,2.472465696,1.768134768,0.0117386235999999,-0.2394005856,-0.451980556,0.004
09:27:13,-0.71006192,2.5459125,-0.1600410449999998,0.29496922,-0.3747519450000001,-0.3750015299999999,28.96611203,-17.812703,-17.87528218,-66.81871572,-1.2942036876,2.480974364,1.7647485745,0.0157898924,-0.2435494947749999,-0.45522367275,0.004
09:27:13,-0.70957496,2.553113,-0.1690062099999998,0.29754736,-0.37976441,-0.37289214,28.98790714,-17.859755,-17.78491284,-66.79169936,-1.3061595688,2.489483032,1.761362381,0.0198411612,-0.2476984039499999,-0.4584667895,0.004
09:27:13,-0.7090879999999999,2.5603135,-0.1779713749999998,0.3001255,-0.3847768750000001,-0.37078275,29.00970225,-17.906807,-17.694543499999998,-66.764683,-1.31811545,2.4979917,1.7579761875,0.0238924299999999,-0.2518473131249999,-0.46170990625,0.004
09:27:13,-0.70860104,2.567514,-0.1869365399999998,0.30270364,-0.3897893400000001,-0.3686733599999999,29.03149736,-17.953859,-17.60417416,-66.73766664,-1.3300713312,2.506500368,1.7545899939999998,0.0279436987999999,-0.2559962223,-0.4649530230000001,0.004
09:27:13,-0.70811408,2.5747145,-0.1959017049999998,0.30528178,-0.394801805,-0.3665639699999999,29.05329247,-18.000911000000002,-17.51380482,-66.71065028,-1.3420272124,2.515009036,1.7512038005,0.0319949675999999,-0.260145131475,-0.4681961397500001,0.004
09:27:13,-0.7076271199999999,2.581915,-0.2048668699999998,0.30785992,-0.3998142700000001,-0.36445458,29.07508758,-18.047963,-17.42343548,-66.68363392,-1.3539830936,2.523517704,1.747817607,0.0360462363999999,-0.26429404065,-0.4714392565,0.004
09:27:13,-0.70714016,2.5891155,-0.2138320349999998,0.3104380599999999,-0.404826735,-0.36234519,29.09688269,-18.095015,-17.33306614,-66.65661756,-1.3659389748,2.532026372,1.7444314135,0.0400975051999999,-0.268442949825,-0.47468237325,0.004
09:27:13,-0.7066532,2.596316,-0.2227971999999998,0.3130161999999999,-0.4098392,-0.3602358,29.1186778,-18.142067,-17.242696799999997,-66.6296012,-1.3778948560000002,2.54053504,1.74104522,0.044148774,-0.272591859,-0.47792549,0.004
09:27:13,-0.70616624,2.6035165,-0.2317623649999998,0.31559434,-0.4148516650000001,-0.35812641,29.14047291,-18.189119,-17.15232746,-66.60258484,-1.3898507372,2.549043708,1.7376590264999998,0.0482000428,-0.276740768175,-0.48116860675,0.004
09:27:13,-0.70567928,2.610717,-0.2407275299999998,0.31817248,-0.41986413,-0.35601702,29.16226802,-18.236171,-17.06195812,-66.57556848,-1.4018066184,2.5575523760000003,1.734272833,0.0522513115999999,-0.28088967735,-0.4844117235,0.004
09:27:13,-0.70519232,2.6179175,-0.2496926949999998,0.32075062,-0.4248765950000001,-0.35390763,29.18406313,-18.283223,-16.971588779999998,-66.54855212,-1.4137624996,2.566061044,1.7308866395,0.0563025803999999,-0.2850385865249999,-0.48765484025,0.004
09:27:13,-0.70470536,2.625118,-0.2586578599999998,0.32332876,-0.42988906,-0.35179824,29.20585824,-18.330275,-16.88121944,-66.52153576,-1.4257183808,2.574569712,1.727500446,0.0603538491999999,-0.2891874956999999,-0.490897957,0.004
09:27:13,-0.7042184,2.6323185,-0.2676230249999998,0.3259069,-0.434901525,-0.3496888499999999,29.22765335,-18.377327,-16.7908501,-66.4945194,-1.437674262,2.58307838,1.7241142525,0.0644051179999999,-0.293336404875,-0.49414107375,0.004
09:27:13,-0.70373144,2.639519,-0.2765881899999998,0.32848504,-0.4399139900000001,-0.3475794599999999,29.24944846,-18.424379,-16.700480759999998,-66.46750304,-1.4496301432,2.591587048,1.7207280589999998,0.0684563867999999,-0.29748531405,-0.4973841905,0.004
09:27:13,-0.70324448,2.6467195,-0.2855533549999998,0.33106318,-0.444926455,-0.3454700699999999,29.27124357,-18.471431,-16.61011142,-66.44048667999999,-1.4615860244,2.600095716,1.7173418655,0.0725076556,-0.301634223225,-0.50062730725,0.004
09:27:13,-0.70275752,2.6539200000000003,-0.2945185199999998,0.33364132,-0.4499389200000001,-0.34336068,29.29303868,-18.518483,-16.51974208,-66.41347032,-1.4735419056,2.608604384,1.713955672,0.0765589244,-0.3057831324,-0.503870424,0.004
09:27:13,-0.70227056,2.6611205,-0.3034836849999998,0.33621946,-0.4549513850000001,-0.34125129,29.31483379,-18.565535,-16.429372739999998,-66.38645396,-1.4854977868,2.617113052,1.7105694785,0.0806101931999999,-0.309932041575,-0.50711354075,0.004
09:27:13,-0.7017836,2.668321,-0.3124488499999998,0.3387976,-0.45996385,-0.3391419,29.3366289,-18.612587,-16.3390034,-66.35943759999999,-1.497453668,2.62562172,1.707183285,0.0846614619999999,-0.31408095075,-0.5103566575,0.004
09:27:13,-0.70129664,2.6755215000000003,-0.3214140149999998,0.34137574,-0.4649763150000001,-0.33703251,29.35842401,-18.659639,-16.24863406,-66.33242124,-1.5094095492,2.634130388,1.7037970914999998,0.0887127307999999,-0.3182298599249999,-0.51359977425,0.004
09:27:13,-0.70080968,2.682722,-0.3303791799999998,0.34395388,-0.4699887800000001,-0.33492312,29.38021912,-18.706691,-16.15826472,-66.30540488,-1.5213654304000002,2.642639056,1.700410898,0.0927639995999999,-0.3223787691,-0.516842891,0.004
09:27:13,-0.70032272,2.6899225,-0.3393443449999998,0.34653202,-0.475001245,-0.33281373,29.40201423,-18.753743,-16.06789538,-66.27838852,-1.5333213116000002,2.651147724,1.6970247045,0.0968152683999999,-0.326527678275,-0.52008600775,0.004
09:27:13,-0.69983576,2.697123,-0.3483095099999998,0.34911016,-0.4800137100000001,-0.33070434,29.42380934,-18.800795,-15.97752604,-66.25137216,-1.5452771928000002,2.659656392,1.6936385109999998,0.1008665372,-0.33067658745,-0.5233291245,0.004
09:27:13,-0.6993488,2.7043235,-0.3572746749999998,0.3516883,-0.485026175,-0.3285949499999999,29.44560445,-18.847847,-15.887156699999998,-66.2243558,-1.5572330740000002,2.66816506,1.6902523175,0.104917806,-0.334825496625,-0.52657224125,0.004
09:27:13,-0.69886184,2.711524,-0.3662398399999999,0.35426644,-0.4900386400000001,-0.3264855599999999,29.46739956,-18.894899,-15.79678736,-66.19733944,-1.5691889552,2.676673728,1.6868661239999998,0.1089690747999999,-0.3389744058,-0.529815358,0.004
09:27:13,-0.69837488,2.7187245,-0.3752050049999999,0.35684458,-0.4950511050000001,-0.3243761699999999,29.48919467,-18.941951,-15.70641802,-66.17032308,-1.5811448364,2.685182396,1.6834799305,0.1130203435999999,-0.343123314975,-0.53305847475,0.004
09:27:13,-0.69788792,2.725925,-0.3841701699999999,0.35942272,-0.50006357,-0.32226678,29.51098978,-18.989003,-15.61604868,-66.14330672,-1.5931007176,2.693691064,1.680093737,0.1170716123999999,-0.34727222415,-0.5363015915,0.004
09:27:13,-0.69740096,2.7331255,-0.3931353349999999,0.36200086,-0.5050760350000001,-0.32015739,29.53278489,-19.036055,-15.52567934,-66.11629036,-1.6050565988,2.702199732,1.6767075434999998,0.1211228811999999,-0.3514211333249999,-0.53954470825,0.004
09:27:13,-0.696914,2.740326,-0.4021004999999999,0.364579,-0.5100885000000001,-0.318048,29.55458,-19.083107,-15.43531,-66.089274,-1.61701248,2.7107084,1.67332135,0.1251741499999999,-0.3555700424999999,-0.542787825,0.004
09:27:13,-0.69642704,2.7475265,-0.4110656649999999,0.36715714,-0.5151009650000001,-0.31593861,29.57637511,-19.130159,-15.34494066,-66.06225764,-1.6289683612,2.719217068,1.6699351564999998,0.1292254188,-0.359718951675,-0.54603094175,0.004
09:27:13,-0.69594008,2.754727,-0.4200308299999999,0.36973528,-0.5201134300000001,-0.31382922,29.59817022,-19.177211,-15.254571319999998,-66.03524128,-1.6409242424,2.727725736,1.666548963,0.1332766876,-0.36386786085,-0.5492740585,0.004
09:27:13,-0.69545312,2.7619275,-0.4289959949999999,0.37231342,-0.5251258950000001,-0.31171983,29.61996533,-19.224263,-15.16420198,-66.00822492,-1.6528801236,2.736234404,1.6631627695,0.1373279564,-0.368016770025,-0.55251717525,0.004
09:27:13,-0.69496616,2.7691280000000003,-0.4379611599999999,0.37489156,-0.53013836,-0.30961044,29.64176044,-19.271315,-15.07383264,-65.98120856,-1.6648360048000002,2.744743072,1.659776576,0.1413792251999999,-0.3721656792,-0.555760292,0.004
09:27:13,-0.6944792,2.7763285,-0.4469263249999999,0.3774697,-0.5351508250000001,-0.3075010499999999,29.66355555,-19.318367,-14.9834633,-65.9541922,-1.6767918860000002,2.75325174,1.6563903825,0.1454304939999999,-0.376314588375,-0.5590034087500001,0.004
09:27:13,-0.69399224,2.783529,-0.4558914899999999,0.38004784,-0.5401632900000001,-0.3053916599999999,29.68535066,-19.365419,-14.89309396,-65.92717584,-1.6887477672000002,2.761760408,1.6530041889999998,0.1494817627999999,-0.38046349755,-0.5622465255000001,0.004
09:27:13,-0.69350528,2.7907295000000003,-0.4648566549999999,0.38262598,-0.545175755,-0.3032822699999999,29.70714577,-19.412471,-14.80272462,-65.90015948,-1.7007036484000002,2.770269076,1.6496179955,0.1535330315999999,-0.3846124067249999,-0.5654896422500001,0.004
09:27:13,-0.69301832,2.79793,-0.4738218199999999,0.38520412,-0.5501882200000001,-0.30117288,29.72894088,-19.459523,-14.71235528,-65.87314312,-1.7126595296000002,2.778777744,1.646231802,0.1575843004,-0.3887613159,-0.5687327590000001,0.004
09:27:13,-0.6925313599999999,2.8051305,-0.4827869849999999,0.38778226,-0.5552006850000001,-0.29906349,29.75073599,-19.506575,-14.62198594,-65.84612676,-1.7246154108,2.7872864120000003,1.6428456085,0.1616355692,-0.392910225075,-0.5719758757500001,0.004
09:27:13,-0.6920444,2.8123310000000004,-0.4917521499999999,0.3903604,-0.56021315,-0.2969541,29.7725311,-19.553627,-14.5316166,-65.8191104,-1.736571292,2.79579508,1.639459415,0.165686838,-0.39705913425,-0.5752189925000001,0.004
09:27:13,-0.69155744,2.8195315,-0.5007173149999999,0.39293854,-0.5652256150000001,-0.29484471,29.79432621,-19.600679,-14.44124726,-65.79209404,-1.7485271732,2.804303748,1.6360732215,0.1697381067999999,-0.401208043425,-0.5784621092500001,0.004
09:27:13,-0.6910704799999999,2.826732,-0.5096824799999999,0.39551668,-0.5702380800000001,-0.2927353199999999,29.81612132,-19.647731,-14.35087792,-65.76507768,-1.7604830544,2.812812416,1.632687028,0.1737893755999999,-0.4053569526,-0.5817052260000001,0.004
09:27:13,-0.69058352,2.8339325,-0.5186476449999999,0.39809482,-0.5752505450000001,-0.29062593,29.83791643,-19.694783,-14.26050858,-65.73806132,-1.7724389356,2.821321084,1.6293008345,0.1778406443999999,-0.409505861775,-0.5849483427500001,0.004
09:27:13,-0.69009656,2.841133,-0.5276128099999999,0.40067296,-0.5802630100000001,-0.28851654,29.85971154,-19.741835,-14.17013924,-65.71104496,-1.7843948168,2.829829752,1.625914641,0.1818919131999999,-0.41365477095,-0.5881914595000001,0.004
09:27:13,-0.6896095999999999,2.8483335,-0.5365779749999999,0.4032511,-0.5852754750000001,-0.2864071499999999,29.88150665,-19.788887,-14.0797699,-65.6840286,-1.796350698,2.83833842,1.6225284475,0.1859431819999999,-0.4178036801249999,-0.5914345762500001,0.004
09:27:13,-0.68912264,2.855534,-0.5455431399999999,0.40582924,-0.5902879400000001,-0.2842977599999999,29.90330176,-19.835939,-13.98940056,-65.65701224,-1.8083065792,2.846847088,1.619142254,0.1899944508,-0.4219525892999999,-0.5946776930000001,0.004
09:27:13,-0.68863568,2.8627345,-0.5545083049999999,0.40840738,-0.5953004050000001,-0.2821883699999999,29.92509687,-19.882991,-13.89903122,-65.62999588,-1.8202624604,2.855355756,1.6157560605,0.1940457196,-0.426101498475,-0.5979208097500001,0.004
09:27:13,-0.6881487199999999,2.869935,-0.5634734699999999,0.41098552,-0.6003128700000001,-0.28007898,29.94689198,-19.930043,-13.80866188,-65.60297952,-1.8322183416,2.863864424,1.612369867,0.1980969883999999,-0.43025040765,-0.6011639265000001,0.004
09:27:13,-0.68766176,2.8771355,-0.5724386349999999,0.41356366,-0.6053253350000001,-0.27796959,29.96868709,-19.977095,-13.718292539999998,-65.57596316,-1.8441742228,2.872373092,1.6089836735,0.2021482571999999,-0.434399316825,-0.60440704325,0.004
09:27:13,-0.6871748,2.884336,-0.5814037999999999,0.4161418,-0.6103378000000002,-0.2758602,29.9904822,-20.024147,-13.6279232,-65.5489468,-1.856130104,2.8808817600000003,1.60559748,0.2061995259999999,-0.438548226,-0.60765016,0.004
09:27:13,-0.6866878399999999,2.8915365,-0.5903689649999999,0.41871994,-0.6153502650000001,-0.2737508099999999,30.01227731,-20.071199,-13.53755386,-65.52193044,-1.8680859852,2.889390428,1.6022112865,0.2102507947999999,-0.442697135175,-0.61089327675,0.004
09:27:13,-0.68620088,2.898737,-0.5993341299999999,0.42129808,-0.6203627300000001,-0.2716414199999999,30.03407242,-20.118251,-13.44718452,-65.49491408,-1.8800418664,2.897899096,1.598825093,0.2143020635999999,-0.44684604435,-0.6141363935,0.004
09:27:13,-0.68571392,2.9059375000000003,-0.6082992949999999,0.42387622,-0.625375195,-0.26953203,30.05586753,-20.165303,-13.35681518,-65.46789772,-1.8919977476,2.906407764,1.5954388995,0.2183533324,-0.450994953525,-0.61737951025,0.004
09:27:13,-0.6852269599999999,2.913138,-0.6172644599999999,0.42645436,-0.6303876600000001,-0.26742264,30.07766264,-20.212355,-13.26644584,-65.44088136,-1.9039536288,2.914916432,1.592052706,0.2224046011999999,-0.4551438627,-0.620622627,0.004
09:27:13,-0.68474,2.9203385,-0.6262296249999999,0.4290325,-0.6354001250000001,-0.26531325,30.09945775,-20.259407,-13.1760765,-65.413865,-1.91590951,2.9234251,1.5886665125,0.22645587,-0.459292771875,-0.62386574375,0.004
09:27:13,-0.68425304,2.9275390000000003,-0.6351947899999999,0.43161064,-0.6404125900000001,-0.2632038599999999,30.12125286,-20.306459,-13.085707159999998,-65.38684864,-1.9278653912,2.931933768,1.585280319,0.2305071387999999,-0.46344168105,-0.6271088605,0.004
09:27:13,-0.6837660799999999,2.9347395,-0.6441599549999999,0.43418878,-0.6454250550000001,-0.2610944699999999,30.14304797,-20.353511,-12.99533782,-65.35983228,-1.9398212724,2.940442436,1.5818941255,0.2345584076,-0.467590590225,-0.63035197725,0.004
09:27:13,-0.68327912,2.94194,-0.6531251199999999,0.43676692,-0.6504375200000001,-0.25898508,30.16484308,-20.400563,-12.90496848,-65.33281592,-1.9517771536,2.948951104,1.578507932,0.2386096763999999,-0.4717394994,-0.633595094,0.004
09:27:13,-0.68279216,2.9491405000000004,-0.6620902849999999,0.43934506,-0.6554499850000001,-0.25687569,30.18663819,-20.447615,-12.81459914,-65.30579956,-1.9637330348,2.957459772,1.5751217385,0.2426609451999999,-0.475888408575,-0.63683821075,0.004
09:27:13,-0.6823052,2.956341,-0.6710554499999999,0.4419232,-0.6604624500000001,-0.2547663,30.2084333,-20.494667,-12.7242298,-65.2787832,-1.975688916,2.96596844,1.571735545,0.2467122139999999,-0.4800373177499999,-0.6400813275,0.004
09:27:13,-0.68181824,2.9635415000000003,-0.6800206149999999,0.44450134,-0.6654749150000001,-0.2526569099999999,30.23022841,-20.541719,-12.63386046,-65.25176684,-1.9876447972,2.9744771080000003,1.5683493515,0.2507634827999999,-0.4841862269249999,-0.64332444425,0.004
09:27:13,-0.68133128,2.970742,-0.6889857799999999,0.44707948,-0.6704873800000001,-0.2505475199999999,30.25202352,-20.588771,-12.54349112,-65.22475048,-1.9996006784,2.982985776,1.564963158,0.2548147516,-0.4883351360999999,-0.646567561,0.004
09:27:13,-0.68084432,2.9779425,-0.6979509449999999,0.44965762,-0.6754998450000002,-0.2484381299999999,30.27381863,-20.635823,-12.453121779999998,-65.19773412,-2.0115565596,2.991494444,1.5615769645,0.2588660203999999,-0.4924840452749999,-0.64981067775,0.004
09:27:13,-0.68035736,2.985143,-0.7069161099999999,0.45223576,-0.6805123100000001,-0.24632874,30.29561374,-20.682875,-12.36275244,-65.17071776,-2.0235124408000003,3.000003112,1.558190771,0.2629172892,-0.4966329544499999,-0.6530537945,0.004
09:27:13,-0.6798704,2.9923435,-0.7158812749999999,0.4548139,-0.6855247750000001,-0.24421935,30.31740885,-20.729927,-12.2723831,-65.1437014,-2.035468322,3.00851178,1.5548045775,0.2669685579999999,-0.5007818636249999,-0.65629691125,0.004
09:27:13,-0.67938344,2.999544,-0.7248464399999999,0.45739204,-0.69053724,-0.2421099599999999,30.33920396,-20.776979,-12.182013759999998,-65.11668504000001,-2.0474242032,3.017020448,1.551418384,0.2710198267999999,-0.5049307727999999,-0.659540028,0.004
09:27:13,-0.6788964799999999,3.0067445,-0.7338116049999999,0.45997018,-0.6955497050000001,-0.2400005699999999,30.36099907,-20.824031,-12.09164442,-65.08966868,-2.0593800844,3.025529116,1.5480321904999998,0.2750710956,-0.509079681975,-0.6627831447500001,0.004
09:27:13,-0.67840952,3.013945,-0.7427767699999999,0.46254832,-0.7005621700000001,-0.2378911799999999,30.38279418,-20.871083,-12.00127508,-65.06265232,-2.0713359656,3.034037784,1.544645997,0.2791223643999999,-0.51322859115,-0.6660262615000001,0.004
09:27:13,-0.67792256,3.0211455000000003,-0.7517419349999999,0.46512646,-0.7055746350000001,-0.23578179,30.40458929,-20.918135,-11.91090574,-65.03563596000001,-2.0832918468,3.042546452,1.5412598035,0.2831736332,-0.517377500325,-0.6692693782500001,0.004
09:27:13,-0.6774355999999999,3.028346,-0.7607070999999999,0.4677046,-0.7105871000000001,-0.2336724,30.4263844,-20.965187,-11.820536399999998,-65.0086196,-2.095247728,3.05105512,1.53787361,0.2872249019999999,-0.5215264095,-0.6725124950000001,0.004
09:27:13,-0.67694864,3.0355465,-0.7696722649999999,0.47028274,-0.7155995650000001,-0.2315630099999999,30.44817951,-21.012239,-11.73016706,-64.98160324,-2.1072036092,3.059563788,1.5344874165,0.2912761708,-0.525675318675,-0.6757556117500001,0.004
09:27:13,-0.67646168,3.0427470000000003,-0.7786374299999999,0.47286088,-0.7206120300000001,-0.2294536199999999,30.46997462,-21.059291,-11.63979772,-64.95458688,-2.1191594904,3.0680724560000003,1.5311012229999998,0.2953274395999999,-0.5298242278499999,-0.6789987285000001,0.004
09:27:13,-0.6759747199999999,3.0499475,-0.7876025949999998,0.47543902,-0.7256244950000001,-0.2273442299999999,30.49176973,-21.106343,-11.549428379999998,-64.92757052,-2.1311153716,3.076581124,1.5277150295,0.2993787083999999,-0.5339731370249999,-0.6822418452500001,0.004
09:27:13,-0.67548776,3.057148,-0.7965677599999998,0.47801716,-0.7306369600000001,-0.22523484,30.51356484,-21.153395,-11.45905904,-64.90055416,-2.1430712528,3.085089792,1.524328836,0.3034299772,-0.5381220461999999,-0.6854849620000001,0.004
09:27:13,-0.6750008,3.0643485000000004,-0.8055329249999998,0.4805953,-0.7356494250000001,-0.22312545,30.53535995,-21.200447,-11.3686897,-64.8735378,-2.155027134,3.09359846,1.5209426425,0.3074812459999999,-0.5422709553749999,-0.6887280787500001,0.004
09:27:13,-0.6745138399999999,3.071549,-0.8144980899999998,0.48317344,-0.7406618900000002,-0.2210160599999999,30.55715506,-21.247499,-11.27832036,-64.84652144,-2.1669830152,3.102107128,1.517556449,0.3115325148,-0.5464198645499999,-0.6919711955000001,0.004
09:27:13,-0.67402688,3.0787495,-0.8234632549999998,0.48575158,-0.7456743550000001,-0.2189066699999999,30.57895017,-21.294551,-11.187951019999998,-64.81950508,-2.1789388964,3.1106157960000003,1.5141702554999998,0.3155837835999999,-0.5505687737249999,-0.6952143122500001,0.004
09:27:13,-0.67353992,3.0859500000000004,-0.8324284199999998,0.48832972,-0.7506868200000001,-0.2167972799999999,30.60074528,-21.341603,-11.09758168,-64.79248872,-2.1908947776,3.119124464,1.510784062,0.3196350524,-0.5547176828999999,-0.6984574290000001,0.004
09:27:13,-0.6730529599999999,3.0931505,-0.8413935849999998,0.49090786,-0.7556992850000002,-0.21468789,30.62254039,-21.388655,-11.00721234,-64.76547236,-2.2028506588,3.127633132,1.5073978685,0.3236863211999999,-0.5588665920749999,-0.7017005457500001,0.004
09:27:13,-0.672566,3.100351,-0.8503587499999998,0.493486,-0.7607117500000001,-0.2125785,30.6443355,-21.435707,-10.916842999999998,-64.738456,-2.21480654,3.1361418,1.504011675,0.3277375899999999,-0.5630155012499999,-0.7049436625000001,0.004
09:27:13,-0.67207904,3.1075515000000005,-0.8593239149999998,0.49606414,-0.7657242150000001,-0.2104691099999999,30.66613061,-21.482759,-10.82647366,-64.71143964,-2.2267624212,3.144650468,1.5006254815,0.3317888588,-0.5671644104249999,-0.7081867792500001,0.004
09:27:13,-0.6715920799999999,3.114752,-0.8682890799999998,0.49864228,-0.7707366800000002,-0.2083597199999999,30.68792572,-21.529811,-10.73610432,-64.68442328,-2.2387183024,3.153159136,1.4972392879999998,0.3358401275999999,-0.5713133196,-0.7114298960000001,0.004
09:27:13,-0.67110512,3.1219525,-0.8772542449999998,0.50122042,-0.7757491450000001,-0.2062503299999999,30.70972083,-21.576863,-10.64573498,-64.65740692,-2.2506741836,3.1616678040000004,1.4938530945,0.3398913964,-0.575462228775,-0.7146730127500001,0.004
09:27:13,-0.67061816,3.129153,-0.8862194099999998,0.50379856,-0.7807616100000001,-0.20414094,30.73151594,-21.623915,-10.55536564,-64.63039056,-2.2626300648,3.170176472,1.490466901,0.3439426651999999,-0.57961113795,-0.7179161295,0.004
09:27:13,-0.6701311999999999,3.1363535,-0.8951845749999998,0.5063767,-0.7857740750000001,-0.20203155,30.75331105,-21.670967,-10.4649963,-64.6033742,-2.274585946,3.17868514,1.4870807075,0.347993934,-0.583760047125,-0.72115924625,0.004
09:27:13,-0.66964424,3.143554,-0.9041497399999998,0.50895484,-0.7907865400000001,-0.1999221599999999,30.77510616,-21.718019,-10.37462696,-64.57635784,-2.2865418272,3.187193808,1.483694514,0.3520452027999999,-0.5879089563,-0.724402363,0.004
09:27:13,-0.66915728,3.1507545,-0.9131149049999998,0.51153298,-0.7957990050000001,-0.1978127699999999,30.79690127,-21.765071,-10.284257619999998,-64.54934148,-2.2984977084,3.195702476,1.4803083204999998,0.3560964715999999,-0.592057865475,-0.72764547975,0.004
09:27:13,-0.6686703199999999,3.1579550000000003,-0.9220800699999998,0.5141111199999999,-0.8008114700000001,-0.1957033799999999,30.81869638,-21.812123,-10.19388828,-64.52232512,-2.3104535896,3.2042111440000003,1.476922127,0.3601477403999999,-0.5962067746499999,-0.7308885965,0.004
09:27:13,-0.66818336,3.1651555,-0.9310452349999998,0.5166892599999999,-0.8058239350000002,-0.19359399,30.84049149,-21.859175,-10.10351894,-64.49530876,-2.3224094708000003,3.212719812,1.4735359335,0.3641990091999999,-0.6003556838249999,-0.73413171325,0.004
09:27:13,-0.6676964,3.172356,-0.9400103999999998,0.5192673999999999,-0.8108364000000001,-0.1914846,30.8622866,-21.906227,-10.013149599999998,-64.4682924,-2.3343653520000003,3.22122848,1.47014974,0.368250278,-0.6045045929999999,-0.73737483,0.004
09:27:13,-0.6672094399999999,3.1795565000000003,-0.9489755649999998,0.5218455399999999,-0.8158488650000001,-0.1893752099999999,30.88408171,-21.953279,-9.92278026,-64.44127604,-2.3463212332,3.229737148,1.4667635465,0.3723015467999999,-0.6086535021749999,-0.74061794675,0.004
09:27:13,-0.66672248,3.186757,-0.9579407299999998,0.52442368,-0.8208613300000002,-0.1872658199999999,30.90587682,-22.000331,-9.83241092,-64.41425968,-2.3582771144,3.238245816,1.4633773529999998,0.3763528156,-0.6128024113499999,-0.7438610635,0.004
09:27:13,-0.66623552,3.1939575,-0.9669058949999998,0.52700182,-0.8258737950000001,-0.1851564299999999,30.92767193,-22.047383,-9.74204158,-64.38724332,-2.3702329956,3.246754484,1.4599911595,0.3804040843999999,-0.6169513205249999,-0.74710418025,0.004
09:27:13,-0.6657485599999999,3.2011580000000004,-0.9758710599999998,0.52957996,-0.8308862600000001,-0.18304704,30.94946704,-22.094435,-9.651672239999998,-64.36022696,-2.3821888768,3.2552631520000004,1.456604966,0.3844553531999999,-0.6211002296999999,-0.750347297,0.004
09:27:13,-0.6652616,3.2083585,-0.9848362249999998,0.5321581,-0.8358987250000002,-0.1809376499999999,30.97126215,-22.141487,-9.5613029,-64.3332106,-2.394144758,3.26377182,1.4532187725,0.3885066219999999,-0.6252491388749999,-0.75359041375,0.004
09:27:13,-0.66477464,3.215559,-0.9938013899999998,0.53473624,-0.8409111900000001,-0.1788282599999999,30.99305726,-22.188539,-9.47093356,-64.30619424,-2.4061006392,3.272280488,1.449832579,0.3925578907999999,-0.6293980480499999,-0.7568335305,0.004
09:27:13,-0.6642876799999999,3.2227595000000004,-1.0027665549999998,0.53731438,-0.8459236550000001,-0.1767188699999999,31.01485237,-22.235591,-9.380564219999998,-64.27917788,-2.4180565204,3.280789156,1.4464463855,0.3966091596,-0.6335469572249999,-0.76007664725,0.004
09:27:13,-0.66380072,3.22996,-1.0117317199999998,0.53989252,-0.8509361200000001,-0.1746094799999999,31.03664748,-22.282643,-9.29019488,-64.25216152,-2.4300124016,3.289297824,1.443060192,0.4006604283999999,-0.6376958663999999,-0.763319764,0.004
09:27:13,-0.66331376,3.2371605,-1.0206968849999998,0.54247066,-0.8559485850000002,-0.17250009,31.05844259,-22.329695,-9.19982554,-64.22514516,-2.4419682828,3.2978064920000003,1.4396739985,0.4047116972,-0.641844775575,-0.76656288075,0.004
09:27:13,-0.6628267999999999,3.244361,-1.0296620499999998,0.5450488,-0.8609610500000001,-0.1703906999999999,31.0802377,-22.376747,-9.1094562,-64.1981288,-2.453924164,3.30631516,1.436287805,0.4087629659999999,-0.64599368475,-0.7698059975,0.004
09:27:13,-0.66233984,3.2515615,-1.0386272149999998,0.54762694,-0.8659735150000001,-0.1682813099999999,31.10203281,-22.423799,-9.019086859999998,-64.17111244,-2.4658800452,3.314823828,1.4329016115,0.4128142347999999,-0.650142593925,-0.77304911425,0.004
09:27:13,-0.66185288,3.258762,-1.0475923799999998,0.55020508,-0.8709859800000002,-0.1661719199999999,31.12382792,-22.470851,-8.92871752,-64.14409608,-2.4778359264,3.323332496,1.429515418,0.4168655035999999,-0.6542915031,-0.776292231,0.004
09:27:13,-0.6613659199999999,3.2659625,-1.0565575449999998,0.55278322,-0.8759984450000001,-0.1640625299999999,31.14562303,-22.517903,-8.838348179999999,-64.11707972,-2.4897918076,3.331841164,1.4261292245,0.4209167723999999,-0.6584404122749999,-0.77953534775,0.004
09:27:13,-0.66087896,3.2731630000000003,-1.0655227099999998,0.55536136,-0.8810109100000001,-0.16195314,31.16741814,-22.564955,-8.747978839999998,-64.09006336,-2.5017476888,3.340349832,1.422743031,0.4249680412,-0.6625893214499999,-0.7827784645,0.004
09:27:13,-0.660392,3.2803635,-1.0744878749999998,0.5579395,-0.8860233750000002,-0.1598437499999999,31.18921325,-22.612007,-8.6576095,-64.063047,-2.51370357,3.3488585,1.4193568375,0.4290193099999999,-0.6667382306249999,-0.78602158125,0.004
09:27:13,-0.6599050399999999,3.287564,-1.0834530399999998,0.56051764,-0.8910358400000001,-0.1577343599999999,31.21100836,-22.659059,-8.567240159999999,-64.03603064,-2.5256594512,3.357367168,1.415970644,0.4330705788,-0.6708871397999999,-0.7892646980000001,0.004
09:27:13,-0.65941808,3.2947645000000003,-1.0924182049999998,0.56309578,-0.8960483050000001,-0.1556249699999999,31.23280347,-22.706111,-8.476870819999998,-64.00901428,-2.5376153324,3.365875836,1.4125844505,0.4371218475999999,-0.6750360489749999,-0.7925078147500001,0.004
09:27:13,-0.65893112,3.301965,-1.1013833699999998,0.56567392,-0.9010607700000002,-0.1535155799999999,31.25459858,-22.753163,-8.38650148,-63.98199792,-2.5495712136,3.374384504,1.409198257,0.4411731163999999,-0.6791849581499999,-0.7957509315000001,0.004
09:27:13,-0.65844416,3.3091655,-1.1103485349999995,0.5682520600000001,-0.906073235,-0.15140619,31.27639369,-22.800215,-8.296132139999997,-63.95498156,-2.5615270948,3.382893172,1.4058120635,0.4452243851999999,-0.6833338673249999,-0.7989940482500001,0.004
09:27:13,-0.6579572,3.3163660000000004,-1.1193136999999995,0.5708302000000001,-0.9110857,-0.1492967999999999,31.2981888,-22.847267,-8.205762799999999,-63.9279652,-2.573482976,3.3914018400000003,1.40242587,0.4492756539999999,-0.6874827764999999,-0.8022371650000001,0.004
09:27:13,-0.65747024,3.3235665,-1.1282788649999995,0.5734083400000001,-0.9160981650000002,-0.1471874099999999,31.31998391,-22.894319,-8.11539346,-63.90094884,-2.5854388572,3.399910508,1.3990396765000002,0.4533269228,-0.6916316856749999,-0.8054802817500001,0.004
09:27:13,-0.65698328,3.3307670000000003,-1.1372440299999995,0.5759864800000001,-0.9211106300000002,-0.1450780199999999,31.34177902,-22.941371,-8.025024119999998,-63.87393248,-2.5973947384,3.408419176,1.395653483,0.4573781915999999,-0.6957805948499999,-0.8087233985000001,0.004
09:27:13,-0.65649632,3.3379675000000004,-1.1462091949999995,0.5785646200000001,-0.926123095,-0.1429686299999999,31.36357413,-22.988423,-7.934654779999999,-63.84691612,-2.6093506196000003,3.416927844,1.3922672895,0.4614294604,-0.6999295040249999,-0.8119665152500001,0.004
09:27:13,-0.65600936,3.345168,-1.1551743599999995,0.58114276,-0.9311355600000002,-0.14085924,31.38536924,-23.035475,-7.84428544,-63.81989976,-2.6213065008000003,3.425436512,1.388881096,0.4654807291999999,-0.7040784132,-0.8152096320000001,0.004
09:27:13,-0.6555224,3.3523685,-1.1641395249999995,0.5837209,-0.9361480250000002,-0.1387498499999999,31.40716435,-23.082527,-7.753916099999998,-63.7928834,-2.6332623820000003,3.4339451800000003,1.3854949025,0.4695319979999999,-0.708227322375,-0.8184527487500001,0.004
09:27:13,-0.65503544,3.3595690000000005,-1.1731046899999995,0.58629904,-0.94116049,-0.1366404599999999,31.42895946,-23.129579,-7.663546759999999,-63.76586704,-2.6452182632000003,3.442453848,1.3821087090000002,0.4735832667999999,-0.71237623155,-0.8216958655000001,0.004
09:27:13,-0.65454848,3.3667695,-1.1820698549999995,0.58887718,-0.946172955,-0.1345310699999999,31.45075457,-23.176631,-7.57317742,-63.73885068,-2.6571741444000003,3.450962516,1.3787225155,0.4776345355999999,-0.716525140725,-0.8249389822500001,0.004
09:27:13,-0.65406152,3.37397,-1.1910350199999995,0.59145532,-0.9511854200000002,-0.1324216799999999,31.47254968,-23.223683,-7.482808079999998,-63.71183432,-2.6691300256000003,3.459471184,1.375336322,0.4816858044,-0.7206740499,-0.8281820990000001,0.004
09:27:13,-0.65357456,3.3811705,-1.2000001849999995,0.59403346,-0.956197885,-0.13031229,31.49434479,-23.270735,-7.392438739999999,-63.68481796,-2.6810859068000004,3.467979852,1.3719501285,0.4857370731999999,-0.7248229590749999,-0.8314252157500001,0.004
09:27:13,-0.6530876,3.388371,-1.2089653499999995,0.5966116,-0.96121035,-0.1282028999999999,31.5161399,-23.317787,-7.302069399999997,-63.6578016,-2.6930417880000004,3.47648852,1.368563935,0.489788342,-0.7289718682499999,-0.8346683325,0.004
09:27:13,-0.65260064,3.3955715,-1.2179305149999995,0.59918974,-0.9662228150000002,-0.1260935099999999,31.53793501,-23.364839,-7.211700059999998,-63.63078524,-2.7049976692000004,3.4849971880000004,1.3651777415000002,0.4938396107999999,-0.7331207774249999,-0.83791144925,0.004
09:27:13,-0.65211368,3.402772,-1.22689568,0.60176788,-0.97123528,-0.1239841199999999,31.55973012,-23.411891,-7.12133072,-63.60376888,-2.7169535504,3.493505856,1.361791548,0.4978908795999999,-0.7372696865999999,-0.841154566,0.004
09:27:13,-0.65162672,3.4099725000000003,-1.235860845,0.6043460199999999,-0.976247745,-0.1218747299999999,31.58152523,-23.458943,-7.030961379999997,-63.57675252,-2.7289094316,3.502014524,1.3584053545,0.5019421484,-0.7414185957749999,-0.84439768275,0.004
09:27:13,-0.65113976,3.417173,-1.24482601,0.60692416,-0.9812602100000002,-0.11976534,31.60332034,-23.505995,-6.940592039999999,-63.54973616,-2.7408653128,3.510523192,1.355019161,0.5059934171999999,-0.7455675049499999,-0.8476407995,0.004
09:27:13,-0.6506527999999999,3.4243735,-1.253791175,0.6095023,-0.9862726750000002,-0.1176559499999999,31.62511545,-23.553047,-6.8502227,-63.5227198,-2.752821194,3.51903186,1.3516329675,0.510044686,-0.7497164141249999,-0.85088391625,0.004
09:27:13,-0.65016584,3.4315740000000003,-1.26275634,0.6120804400000001,-0.99128514,-0.1155465599999999,31.64691056,-23.600099,-6.7598533599999975,-63.49570344,-2.7647770752,3.5275405280000003,1.348246774,0.5140959547999999,-0.7538653232999999,-0.854127033,0.004
09:27:13,-0.64967888,3.4387745,-1.271721505,0.61465858,-0.9962976050000002,-0.1134371699999999,31.66870567,-23.647151,-6.669484019999999,-63.46868708,-2.7767329564,3.536049196,1.3448605805,0.5181472236,-0.7580142324749999,-0.85737014975,0.004
09:27:13,-0.6491919199999999,3.445975,-1.28068667,0.61723672,-1.0013100700000002,-0.1113277799999999,31.69050078,-23.694203,-6.57911468,-63.441670720000005,-2.7886888376,3.544557864,1.341474387,0.5221984923999999,-0.7621631416499999,-0.8606132665,0.004
09:27:13,-0.64870496,3.4531755000000004,-1.289651835,0.61981486,-1.006322535,-0.10921839,31.71229589,-23.741255,-6.488745339999998,-63.41465436,-2.8006447188,3.553066532,1.3380881935,0.5262497612,-0.7663120508249999,-0.86385638325,0.004
09:27:14,-0.648218,3.460376,-1.298617,0.622393,-1.011335,-0.107109,31.734091,-23.788307,-6.398376,-63.387638,-2.8126006,3.5615752,1.334702,0.53030103,-0.77046096,-0.8670995,0.004
09:27:14,-0.6327581999999999,3.452516425,-1.281962785,0.6167466549999999,-1.0083733300000002,-0.10521268,31.72460188,-23.78047764,-6.442522045,-63.62409486,-2.7806130655000003,3.5528179805,1.3209604315,0.5264214624,-0.7673098685499999,-0.8620670422000001,0.004
09:27:14,-0.6172983999999999,3.4446568500000003,-1.26530857,0.61110031,-1.00541166,-0.10331636,31.71511276,-23.77264828,-6.48666809,-63.86055172,-2.748625531,3.544060761,1.307218863,0.5225418947999999,-0.7641587771,-0.8570345844,0.004
09:27:14,-0.6018386,3.436797275,-1.248654355,0.6054539649999999,-1.00244999,-0.1014200399999999,31.70562364,-23.76481892,-6.530814135,-64.09700858000001,-2.7166379965000003,3.5353035415000003,1.2934772945000002,0.5186623271999999,-0.76100768565,-0.8520021266000001,0.004
09:27:14,-0.5863788,3.4289377,-1.2320001399999998,0.59980762,-0.99948832,-0.09952372,31.69613452,-23.75698956,-6.57496018,-64.33346544,-2.684650462,3.526546322,1.279735726,0.5147827596,-0.7578565942,-0.8469696688,0.004
09:27:14,-0.570919,3.421078125,-1.2153459249999998,0.5941612749999999,-0.99652665,-0.0976274,31.6866454,-23.7491602,-6.619106225,-64.5699223,-2.6526629275,3.5177891025,1.2659941575,0.510903192,-0.7547055027499999,-0.8419372110000001,0.004
09:27:14,-0.5554591999999999,3.4132185500000003,-1.19869171,0.58851493,-0.99356498,-0.09573108,31.67715628,-23.74133084,-6.66325227,-64.80637916,-2.620675393,3.509031883,1.252252589,0.5070236243999999,-0.7515544113,-0.8369047532,0.004
09:27:14,-0.5399993999999999,3.405358975,-1.182037495,0.5828685849999999,-0.99060331,-0.0938347599999999,31.66766716,-23.73350148,-6.707398315,-65.04283602,-2.5886878585,3.5002746635,1.2385110205,0.5031440568,-0.74840331985,-0.8318722954000001,0.004
09:27:14,-0.5245396,3.3974994,-1.16538328,0.57722224,-0.98764164,-0.09193844,31.65817804,-23.72567212,-6.75154436,-65.27929288,-2.5567003240000004,3.491517444,1.224769452,0.4992644891999999,-0.7452522283999999,-0.8268398376,0.004
09:27:14,-0.5090798,3.389639825,-1.148729065,0.571575895,-0.98467997,-0.09004212,31.64868892,-23.71784276,-6.795690405,-65.51574974,-2.5247127895,3.4827602245,1.2110278835,0.4953849215999999,-0.74210113695,-0.8218073798000001,0.004
09:27:14,-0.4936199999999999,3.3817802500000003,-1.13207485,0.56592955,-0.9817183,-0.0881458,31.6391998,-23.7100134,-6.83983645,-65.75220660000001,-2.4927252550000003,3.474003005,1.1972863150000002,0.4915053539999999,-0.7389500455,-0.816774922,0.004
09:27:14,-0.4781602,3.373920675,-1.115420635,0.560283205,-0.97875663,-0.0862494799999999,31.62971068,-23.70218404,-6.883982495,-65.98866346,-2.4607377205,3.4652457855,1.1835447465,0.4876257864,-0.73579895405,-0.8117424642000001,0.004
09:27:14,-0.4627003999999999,3.3660611,-1.09876642,0.55463686,-0.97579496,-0.08435316,31.62022156,-23.69435468,-6.92812854,-66.22512032,-2.4287501860000003,3.456488566,1.169803178,0.4837462187999999,-0.7326478625999999,-0.8067100064,0.004
09:27:14,-0.4472406,3.358201525,-1.0821122049999998,0.548990515,-0.97283329,-0.08245684,31.61073244,-23.68652532,-6.972274585,-66.46157718,-2.3967626515,3.4477313465,1.1560616095,0.4798666511999999,-0.72949677115,-0.8016775486000001,0.004
09:27:14,-0.4317807999999999,3.35034195,-1.06545799,0.54334417,-0.96987162,-0.08056052,31.60124332,-23.67869596,-7.01642063,-66.69803404,-2.364775117,3.438974127,1.142320041,0.4759870835999999,-0.7263456797,-0.7966450908,0.004
09:27:14,-0.4163209999999999,3.3424823750000003,-1.048803775,0.537697825,-0.96690995,-0.0786641999999999,31.5917542,-23.6708666,-7.060566675,-66.9344909,-2.3327875825,3.4302169075,1.1285784725,0.4721075159999999,-0.7231945882499999,-0.7916126330000001,0.004
09:27:14,-0.4008612,3.3346228,-1.03214956,0.53205148,-0.96394828,-0.07676788,31.58226508,-23.66303724,-7.10471272,-67.17094776,-2.300800048,3.421459688,1.114836904,0.4682279483999999,-0.7200434968,-0.7865801752,0.004
09:27:14,-0.3854013999999999,3.326763225,-1.015495345,0.526405135,-0.96098661,-0.07487156,31.57277596,-23.65520788,-7.148858765,-67.40740462000001,-2.2688125135000003,3.4127024685,1.1010953355000002,0.4643483807999999,-0.71689240535,-0.7815477174000001,0.004
09:27:14,-0.3699416,3.31890365,-0.99884113,0.52075879,-0.95802494,-0.07297524,31.56328684,-23.64737852,-7.19300481,-67.64386148,-2.236824979,3.403945249,1.0873537670000002,0.4604688131999999,-0.7137413139,-0.7765152596,0.004
09:27:14,-0.3544817999999999,3.3110440750000003,-0.982186915,0.515112445,-0.95506327,-0.0710789199999999,31.55379772,-23.63954916,-7.237150854999999,-67.88031834,-2.2048374445000003,3.3951880295,1.0736121985,0.4565892455999999,-0.71059022245,-0.7714828018000001,0.004
09:27:14,-0.339022,3.3031845,-0.9655327,0.5094661,-0.9521016,-0.0691826,31.5443086,-23.6317198,-7.2812969,-68.1167752,-2.17284991,3.38643081,1.05987063,0.4527096779999999,-0.707439131,-0.766450344,0.004
09:27:14,-0.3235621999999999,3.295324925,-0.948878485,0.503819755,-0.94913993,-0.06728628,31.53481948,-23.62389044,-7.325442945,-68.35323206000001,-2.1408623755,3.3776735905,1.0461290615,0.4488301104,-0.70428803955,-0.7614178862000001,0.004
09:27:14,-0.3081024,3.28746535,-0.93222427,0.49817341,-0.94617826,-0.06538996,31.52533036,-23.61606108,-7.36958899,-68.58968892,-2.1088748410000004,3.368916371,1.032387493,0.4449505427999999,-0.7011369480999999,-0.7563854284,0.004
09:27:14,-0.2926426,3.2796057750000003,-0.915570055,0.492527065,-0.94321659,-0.0634936399999999,31.51584124,-23.60823172,-7.413735035,-68.82614578,-2.0768873065,3.3601591515,1.0186459245,0.4410709751999999,-0.69798585665,-0.7513529706000001,0.004
09:27:14,-0.2771827999999999,3.2717462,-0.8989158399999999,0.48688072,-0.94025492,-0.06159732,31.50635212,-23.60040236,-7.45788108,-69.06260264000001,-2.044899772,3.351401932,1.004904356,0.4371914075999999,-0.6948347652,-0.7463205128,0.004
09:27:14,-0.261723,3.263886625,-0.8822616249999999,0.481234375,-0.93729325,-0.059701,31.496863,-23.592573,-7.502027125,-69.2990595,-2.0129122375,3.3426447125000003,0.9911627875,0.4333118399999999,-0.69168367375,-0.7412880550000001,0.004
09:27:14,-0.2462631999999999,3.25602705,-0.86560741,0.47558803,-0.93433158,-0.05780468,31.48737388,-23.58474364,-7.546173169999999,-69.53551636,-1.980924703,3.333887493,0.977421219,0.4294322723999999,-0.6885325822999999,-0.7362555972,0.004
09:27:14,-0.2308034,3.248167475,-0.8489531949999999,0.469941685,-0.93136991,-0.05590836,31.47788476,-23.57691428,-7.590319214999999,-69.77197322,-1.9489371685,3.3251302735,0.9636796505,0.4255527047999999,-0.68538149085,-0.7312231394,0.004
09:27:14,-0.2153435999999999,3.2403079,-0.8322989799999999,0.4642953399999999,-0.92840824,-0.05401204,31.46839564,-23.56908492,-7.63446526,-70.00843008,-1.9169496340000003,3.316373054,0.949938082,0.4216731372,-0.6822303994,-0.7261906816,0.004
09:27:14,-0.1998838,3.232448325,-0.8156447649999999,0.458648995,-0.92544657,-0.05211572,31.45890652,-23.56125556,-7.678611304999999,-70.24488694,-1.8849620995,3.3076158345,0.9361965135,0.4177935695999999,-0.6790793079499999,-0.7211582238,0.004
09:27:14,-0.1844239999999999,3.22458875,-0.7989905499999999,0.4530026499999999,-0.9224849,-0.0502194,31.4494174,-23.5534262,-7.72275735,-70.4813438,-1.852974565,3.298858615,0.922454945,0.4139140019999999,-0.6759282165,-0.716125766,0.004
09:27:14,-0.1689642,3.216729175,-0.7823363349999999,0.447356305,-0.91952323,-0.04832308,31.43992828,-23.54559684,-7.766903395,-70.71780066000001,-1.8209870305,3.2901013955,0.9087133765000002,0.4100344344,-0.67277712505,-0.7110933082,0.004
09:27:14,-0.1535043999999999,3.2088696,-0.7656821199999999,0.4417099599999999,-0.91656156,-0.04642676,31.43043916,-23.53776748,-7.81104944,-70.95425752,-1.7889994960000002,3.281344176,0.8949718080000001,0.4061548667999999,-0.6696260336,-0.7060608504,0.004
09:27:14,-0.1380445999999999,3.201010025,-0.7490279049999999,0.436063615,-0.91359989,-0.0445304399999999,31.42095004,-23.52993812,-7.855195484999999,-71.19071438,-1.7570119615000002,3.2725869565,0.8812302395,0.4022752991999999,-0.66647494215,-0.7010283926,0.004
09:27:14,-0.1225847999999999,3.19315045,-0.73237369,0.4304172699999999,-0.91063822,-0.04263412,31.41146092,-23.52210876,-7.899341529999999,-71.42717124,-1.725024427,3.263829737,0.867488671,0.3983957315999999,-0.6633238507,-0.6959959348,0.004
09:27:14,-0.107125,3.185290875,-0.7157194749999999,0.424770925,-0.90767655,-0.0407378,31.4019718,-23.5142794,-7.943487575,-71.66362810000001,-1.6930368925,3.2550725175,0.8537471025000001,0.3945161639999999,-0.66017275925,-0.690963477,0.004
09:27:14,-0.0916652,3.1774313000000003,-0.6990652599999999,0.4191245799999999,-0.90471488,-0.03884148,31.39248268,-23.50645004,-7.987633619999999,-71.90008496,-1.661049358,3.246315298,0.8400055340000001,0.3906365963999999,-0.6570216677999999,-0.6859310192,0.004
09:27:14,-0.0762053999999999,3.169571725,-0.6824110449999999,0.413478235,-0.90175321,-0.0369451599999999,31.38299356,-23.49862068,-8.031779665,-72.13654182,-1.6290618235000005,3.2375580785,0.8262639655000001,0.3867570287999999,-0.65387057635,-0.6808985614,0.004
09:27:14,-0.0607455999999999,3.16171215,-0.6657568299999999,0.40783189,-0.89879154,-0.03504884,31.37350444,-23.49079132,-8.07592571,-72.37299868000001,-1.5970742890000005,3.228800859,0.8125223970000001,0.3828774612,-0.6507194849,-0.6758661036,0.004
09:27:14,-0.0452858,3.153852575,-0.6491026149999999,0.402185545,-0.89582987,-0.03315252,31.36401532,-23.48296196,-8.120071755,-72.60945554,-1.5650867545000002,3.2200436395,0.7987808285000001,0.3789978935999999,-0.64756839345,-0.6708336458,0.004
09:27:14,-0.029826,3.1459930000000003,-0.6324483999999999,0.3965392,-0.8928682000000001,-0.0312562,31.3545262,-23.4751326,-8.1642178,-72.8459124,-1.5330992200000002,3.21128642,0.7850392600000001,0.3751183259999999,-0.6444173019999999,-0.665801188,0.004
09:27:14,-0.0143661999999999,3.138133425,-0.6157941849999999,0.390892855,-0.8899065300000001,-0.0293598799999999,31.34503708,-23.46730324,-8.208363845,-73.08236926000001,-1.5011116855000002,3.2025292005,0.7712976915,0.3712387584,-0.64126621055,-0.6607687302,0.004
09:27:14,0.0010936,3.13027385,-0.59913997,0.38524651,-0.8869448600000001,-0.0274635599999999,31.33554796,-23.45947388,-8.252509889999999,-73.31882612000001,-1.4691241510000002,3.1937719810000003,0.7575561230000001,0.3673591907999999,-0.6381151191,-0.6557362724,0.004
09:27:14,0.0165534,3.122414275,-0.5824857549999999,0.379600165,-0.88398319,-0.02556724,31.32605884,-23.45164452,-8.296655935,-73.55528298,-1.4371366165,3.1850147615,0.7438145545000001,0.3634796231999999,-0.6349640276499999,-0.6507038146,0.004
09:27:14,0.0320131999999999,3.1145547,-0.5658315399999999,0.37395382,-0.88102152,-0.0236709199999999,31.31656972,-23.44381516,-8.34080198,-73.79173984,-1.4051490820000003,3.176257542,0.7300729860000001,0.3596000555999999,-0.6318129362,-0.6456713568,0.004
09:27:14,0.0474729999999999,3.106695125,-0.5491773249999999,0.368307475,-0.8780598500000001,-0.0217745999999999,31.3070806,-23.4359858,-8.384948025,-74.02819670000001,-1.3731615475000003,3.1675003225,0.7163314175000001,0.355720488,-0.62866184475,-0.640638899,0.004
09:27:14,0.0629328,3.09883555,-0.5325231099999999,0.36266113,-0.8750981800000001,-0.0198782799999999,31.29759148,-23.42815644,-8.42909407,-74.26465356,-1.3411740130000005,3.158743103,0.7025898490000001,0.3518409203999999,-0.6255107532999999,-0.6356064412,0.004
09:27:14,0.0783926,3.090975975,-0.5158688949999999,0.357014785,-0.87213651,-0.01798196,31.28810236,-23.42032708,-8.473240115,-74.50111042,-1.3091864785000005,3.1499858835000003,0.6888482805000001,0.3479613527999999,-0.62235966185,-0.6305739834,0.004
09:27:14,0.0938524,3.0831164,-0.4992146799999999,0.35136844,-0.8691748400000001,-0.01608564,31.27861324,-23.41249772,-8.51738616,-74.73756728000001,-1.2771989440000002,3.141228664,0.675106712,0.3440817852,-0.6192085704,-0.6255415256000001,0.004
09:27:14,0.1093121999999999,3.0752568250000003,-0.4825604649999999,0.345722095,-0.8662131700000001,-0.0141893199999999,31.26912412,-23.40466836,-8.561532204999999,-74.97402414,-1.2452114095000002,3.1324714445,0.6613651435000001,0.3402022175999999,-0.61605747895,-0.6205090678,0.004
09:27:14,0.124772,3.06739725,-0.4659062499999999,0.34007575,-0.8632515000000001,-0.0122929999999999,31.259635,-23.396839,-8.60567825,-75.210481,-1.2132238750000002,3.123714225,0.6476235750000001,0.3363226499999999,-0.6129063875,-0.61547661,0.004
09:27:14,0.1402318,3.059537675,-0.4492520349999999,0.334429405,-0.86028983,-0.01039668,31.25014588,-23.38900964,-8.649824295,-75.44693786,-1.1812363405,3.1149570055,0.6338820065000002,0.3324430824,-0.60975529605,-0.6104441522,0.004
09:27:14,0.1556916,3.0516781,-0.4325978199999999,0.32878306,-0.85732816,-0.0085003599999999,31.24065676,-23.38118028,-8.69397034,-75.68339472000001,-1.149248806,3.106199786,0.6201404380000001,0.3285635147999999,-0.6066042046,-0.6054116944000001,0.004
09:27:14,0.1711513999999999,3.0438185250000003,-0.4159436049999999,0.323136715,-0.8543664900000001,-0.0066040399999999,31.23116764,-23.37335092,-8.738116385,-75.91985158,-1.1172612715000003,3.0974425665,0.6063988695000001,0.3246839471999999,-0.6034531131499999,-0.6003792366,0.004
09:27:14,0.1866111999999999,3.03595895,-0.3992893899999998,0.3174903699999999,-0.8514048200000001,-0.0047077199999999,31.22167852,-23.36552156,-8.78226243,-76.15630844,-1.0852737370000003,3.088685347,0.5926573010000001,0.3208043795999999,-0.6003020216999999,-0.5953467788,0.004
09:27:14,0.202071,3.028099375,-0.3826351749999999,0.3118440249999999,-0.84844315,-0.0028114,31.2121894,-23.3576922,-8.826408475,-76.39276530000001,-1.0532862025000005,3.0799281275,0.5789157325000002,0.316924812,-0.59715093025,-0.590314321,0.004
09:27:14,0.2175308,3.0202398,-0.3659809599999999,0.3061976799999999,-0.84548148,-0.0009150799999999,31.20270028,-23.34986284,-8.870554519999999,-76.62922216,-1.0212986680000002,3.071170908,0.5651741640000001,0.3130452444,-0.5939998388,-0.5852818632000001,0.004
09:27:14,0.2329906,3.012380225,-0.3493267449999999,0.300551335,-0.84251981,0.00098124,31.19321116,-23.34203348,-8.914700565,-76.86567902,-0.9893111335000002,3.0624136885,0.5514325955000001,0.3091656767999999,-0.5908487473499999,-0.5802494054,0.004
09:27:14,0.2484503999999999,3.00452065,-0.3326725299999999,0.29490499,-0.8395581400000001,0.00287756,31.18372204,-23.33420412,-8.95884661,-77.10213588,-0.9573235990000002,3.053656469,0.5376910270000002,0.3052861092,-0.5876976559,-0.5752169476,0.004
09:27:14,0.2639102,2.996661075,-0.3160183149999999,0.289258645,-0.83659647,0.0047738799999999,31.17423292,-23.32637476,-9.002992655,-77.33859274,-0.9253360645000002,3.0448992495,0.5239494585000001,0.3014065415999999,-0.58454656445,-0.5701844898,0.004
09:27:14,0.27937,2.9888015,-0.2993640999999999,0.2836123,-0.8336348,0.0066702,31.1647438,-23.3185454,-9.0471387,-77.5750496,-0.8933485300000004,3.03614203,0.5102078900000001,0.2975269739999999,-0.5813954729999999,-0.5651520320000001,0.004
09:27:14,0.2948298,2.980941925,-0.2827098849999998,0.277965955,-0.8306731300000001,0.00856652,31.15525468,-23.31071604,-9.091284745,-77.81150646,-0.8613609955000003,3.0273848105,0.4964663215000001,0.2936474064,-0.57824438155,-0.5601195742,0.004
09:27:14,0.3102895999999999,2.9730823500000003,-0.2660556699999998,0.27231961,-0.8277114600000001,0.01046284,31.14576556,-23.30288668,-9.13543079,-78.04796332000001,-0.8293734610000003,3.018627591,0.4827247530000002,0.2897678387999999,-0.5750932901,-0.5550871164,0.004
09:27:14,0.3257493999999999,2.965222775,-0.2494014549999998,0.266673265,-0.82474979,0.0123591599999999,31.13627644,-23.29505732,-9.179576835,-78.28442018,-0.7973859265000001,3.0098703715,0.4689831845000001,0.2858882711999999,-0.57194219865,-0.5500546586,0.004
09:27:14,0.3412092,2.9573632,-0.2327472399999999,0.26102692,-0.82178812,0.01425548,31.12678732,-23.28722796,-9.22372288,-78.52087704,-0.7653983920000003,3.0011131520000003,0.4552416160000001,0.2820087035999999,-0.5687911072,-0.5450222008000001,0.004
09:27:14,0.3566689999999999,2.949503625,-0.2160930249999999,0.255380575,-0.81882645,0.0161518,31.1172982,-23.2793986,-9.267868925,-78.7573339,-0.7334108575000005,2.9923559325,0.4415000475000001,0.2781291359999999,-0.56564001575,-0.539989743,0.004
09:27:14,0.3721288,2.94164405,-0.1994388099999999,0.24973423,-0.8158647800000001,0.01804812,31.10780908,-23.27156924,-9.31201497,-78.99379076,-0.7014233230000002,2.983598713,0.4277584790000001,0.2742495684,-0.5624889243,-0.5349572852,0.004
09:27:14,0.3875885999999999,2.933784475,-0.182784595,0.244087885,-0.81290311,0.0199444399999999,31.09831996,-23.26373988,-9.356161015,-79.23024762,-0.6694357885000004,2.9748414935,0.4140169105000001,0.2703700007999999,-0.5593378328499999,-0.5299248274,0.004
09:27:14,0.4030484000000001,2.9259249,-0.16613038,0.23844154,-0.80994144,0.02184076,31.08883084,-23.25591052,-9.40030706,-79.46670448,-0.6374482540000002,2.966084274,0.4002753420000001,0.2664904332,-0.5561867414,-0.5248923696000001,0.004
09:27:14,0.4185082,2.918065325,-0.1494761649999998,0.232795195,-0.8069797700000001,0.02373708,31.07934172,-23.24808116,-9.444453105,-79.70316134000001,-0.6054607195000004,2.9573270545000003,0.3865337735000002,0.2626108655999999,-0.55303564995,-0.5198599118,0.004
09:27:14,0.4339679999999999,2.9102057500000003,-0.1328219499999998,0.22714885,-0.8040181000000001,0.0256333999999999,31.0698526,-23.2402518,-9.48859915,-79.93961820000001,-0.5734731850000001,2.948569835,0.3727922050000001,0.2587312979999999,-0.5498845585,-0.514827454,0.004
09:27:14,0.4494278,2.902346175,-0.1161677349999998,0.221502505,-0.80105643,0.0275297199999999,31.06036348,-23.23242244,-9.532745195,-80.17607506,-0.5414856505000003,2.9398126155,0.3590506365000001,0.2548517304,-0.5467334670499999,-0.5097949962,0.004
09:27:14,0.4648875999999999,2.8944866,-0.0995135199999999,0.21585616,-0.79809476,0.02942604,31.05087436,-23.22459308,-9.576891239999998,-80.41253192,-0.5094981160000001,2.931055396,0.3453090680000001,0.2509721627999999,-0.5435823756,-0.5047625384000001,0.004
09:27:14,0.4803474000000001,2.886627025,-0.0828593049999999,0.210209815,-0.79513309,0.03132236,31.04138524,-23.21676372,-9.621037285,-80.64898878,-0.4775105815000002,2.9222981765,0.3315674995000002,0.2470925952,-0.54043128415,-0.4997300806,0.004
09:27:14,0.4958072,2.87876745,-0.0662050899999999,0.20456347,-0.7921714200000001,0.03321868,31.03189612,-23.20893436,-9.66518333,-80.88544564,-0.4455230470000004,2.913540957,0.3178259310000002,0.2432130275999999,-0.5372801926999999,-0.4946976228,0.004
09:27:14,0.5112669999999999,2.8709078750000003,-0.0495508749999999,0.1989171249999999,-0.78920975,0.0351149999999999,31.022407,-23.201105,-9.709329375,-81.1219025,-0.4135355125000002,2.9047837375,0.3040843625,0.2393334599999999,-0.53412910125,-0.489665165,0.004
09:27:14,0.5267268,2.8630483,-0.0328966599999998,0.1932707799999999,-0.78624808,0.03701132,31.01291788,-23.19327564,-9.75347542,-81.35835936000001,-0.3815479780000004,2.896026518,0.290342794,0.2354538923999999,-0.5309780098,-0.4846327072,0.004
09:27:14,0.5421866,2.855188725,-0.0162424449999998,0.1876244349999999,-0.78328641,0.03890764,31.00342876,-23.18544628,-9.797621465,-81.59481622000001,-0.3495604435000001,2.8872692985,0.2766012255000001,0.2315743247999999,-0.52782691835,-0.4796002494,0.004
09:27:14,0.5576463999999999,2.84732915,0.0004117700000001,0.1819780899999999,-0.78032474,0.0408039599999999,30.99393964,-23.17761692,-9.84176751,-81.83127308,-0.3175729090000003,2.878512079,0.2628596570000001,0.2276947572,-0.5246758269,-0.4745677916,0.004
09:27:14,0.5731062,2.839469575,0.0170659850000001,0.1763317449999999,-0.77736307,0.0427002799999999,30.98445052,-23.16978756,-9.885913554999998,-82.06772994,-0.2855853745000001,2.8697548595,0.2491180885000001,0.2238151895999999,-0.52152473545,-0.4695353338,0.004
09:27:14,0.5885659999999999,2.83161,0.0337202,0.1706854,-0.7744014,0.0445966,30.9749614,-23.1619582,-9.9300596,-82.3041868,-0.2535978400000003,2.86099764,0.2353765200000002,0.2199356219999999,-0.518373644,-0.464502876,0.004
09:27:14,0.6040258000000001,2.823750425,0.050374415,0.165039055,-0.77143973,0.04649292,30.96547228,-23.15412884,-9.974205645,-82.54064366,-0.2216103055000005,2.8522404205000003,0.2216349515000002,0.2160560543999999,-0.51522255255,-0.4594704182,0.004
09:27:14,0.6194856,2.81589085,0.06702863,0.15939271,-0.7684780600000001,0.04838924,30.95598316,-23.14629948,-10.01835169,-82.77710052,-0.1896227710000002,2.843483201,0.207893383,0.2121764867999999,-0.5120714610999999,-0.4544379604,0.004
09:27:14,0.6349453999999999,2.8080312750000003,0.083682845,0.153746365,-0.76551639,0.0502855599999999,30.94649404,-23.13847012,-10.062497735,-83.01355738000001,-0.1576352365000004,2.8347259815,0.1941518145,0.2082969191999999,-0.50892036965,-0.4494055026,0.004
09:27:14,0.6504052,2.8001717,0.1003370599999999,0.14810002,-0.76255472,0.05218188,30.93700492,-23.13064076,-10.10664378,-83.25001424000001,-0.1256477020000002,2.825968762,0.1804102460000001,0.2044173515999999,-0.5057692782000001,-0.4443730448,0.004
09:27:14,0.6658649999999999,2.792312125,0.1169912750000001,0.142453675,-0.7595930500000001,0.0540782,30.9275158,-23.1228114,-10.150789825,-83.4864711,-0.0936601675000003,2.8172115425,0.1666686775000001,0.200537784,-0.5026181867499999,-0.439340587,0.004
09:27:14,0.6813248000000001,2.78445255,0.1336454900000001,0.13680733,-0.75663138,0.0559745199999999,30.91802668,-23.11498204,-10.194935869999998,-83.72292796,-0.0616726330000001,2.8084543230000003,0.1529271090000001,0.1966582163999999,-0.4994670953,-0.4343081292,0.004
09:27:14,0.6967846,2.776592975,0.1502997050000001,0.131160985,-0.75366971,0.0578708399999999,30.90853756,-23.10715268,-10.239081915,-83.95938482,-0.0296850985000003,2.7996971035,0.1391855405000002,0.1927786487999999,-0.4963160038499999,-0.4292756714,0.004
09:27:14,0.7122443999999999,2.7687334000000003,0.1669539200000001,0.12551464,-0.75070804,0.05976716,30.89904844,-23.09932332,-10.28322796,-84.19584168,0.0023024359999994,2.790939884,0.1254439720000002,0.1888990811999999,-0.4931649124,-0.4242432136,0.004
09:27:14,0.7277042,2.760873825,0.183608135,0.1198682949999999,-0.74774637,0.06166348,30.88955932,-23.09149396,-10.327374005,-84.43229854,0.0342899704999997,2.7821826645,0.1117024035,0.1850195135999999,-0.4900138209499999,-0.4192107558,0.004
09:27:14,0.7431639999999999,2.75301425,0.20026235,0.11422195,-0.7447847000000001,0.0635598,30.8800702,-23.0836646,-10.37152005,-84.66875540000001,0.0662775049999995,2.773425445,0.097960835,0.181139946,-0.4868627295,-0.414178298,0.004
09:27:14,0.7586238000000001,2.745154675,0.216916565,0.1085756049999999,-0.7418230299999999,0.0654561199999999,30.87058108,-23.07583524,-10.415666095,-84.90521226,0.0982650394999997,2.7646682255,0.0842192665000001,0.1772603783999999,-0.48371163805,-0.4091458402,0.004
09:27:14,0.7740836,2.7372951,0.2335707800000002,0.10292926,-0.73886136,0.06735244,30.86109196,-23.06800588,-10.45981214,-85.14166912,0.1302525739999995,2.755911006,0.0704776980000001,0.1733808107999999,-0.4805605465999999,-0.4041133824,0.004
09:27:14,0.7895433999999999,2.729435525,0.2502249950000001,0.0972829149999999,-0.73589969,0.06924876,30.85160284,-23.06017652,-10.503958184999998,-85.37812598000001,0.1622401084999998,2.7471537865,0.0567361295000001,0.1695012431999999,-0.47740945515,-0.3990809246,0.004
09:27:14,0.8050032,2.72157595,0.2668792100000001,0.09163657,-0.73293802,0.0711450799999999,30.84211372,-23.05234716,-10.54810423,-85.61458284,0.1942276429999996,2.738396567,0.0429945610000002,0.1656216755999999,-0.4742583636999999,-0.3940484668,0.004
09:27:14,0.8204629999999999,2.713716375,0.2835334250000001,0.0859902249999999,-0.72997635,0.0730413999999999,30.8326246,-23.0445178,-10.592250275,-85.8510397,0.2262151774999998,2.7296393475,0.0292529925000002,0.161742108,-0.47110727225,-0.389016009,0.004
09:27:14,0.8359228000000001,2.7058568000000003,0.3001876400000001,0.08034388,-0.72701468,0.07493772,30.82313548,-23.03668844,-10.63639632,-86.08749656,0.2582027119999996,2.720882128,0.015511424,0.1578625403999999,-0.4679561808,-0.3839835512,0.004
09:27:14,0.8513826,2.697997225,0.316841855,0.0746975349999999,-0.72405301,0.07683404,30.81364636,-23.02885908,-10.680542365,-86.32395342000001,0.2901902464999994,2.7121249085,0.0017698555,0.1539829727999999,-0.46480508935,-0.3789510934,0.004
09:27:14,0.8668423999999999,2.69013765,0.33349607,0.06905119,-0.7210913400000001,0.07873036,30.80415724,-23.02102972,-10.72468841,-86.56041028,0.3221777809999997,2.703367689,-0.0119717129999998,0.1501034051999999,-0.4616539979,-0.3739186356,0.004
09:27:14,0.8823022,2.682278075,0.350150285,0.0634048449999999,-0.7181296699999999,0.0806266799999999,30.79466812,-23.01320036,-10.768834455,-86.79686714,0.3541653154999995,2.6946104695,-0.0257132814999998,0.1462238375999999,-0.4585029064499999,-0.3688861778,0.004
