Timestamp,linacce_x,linacce_y,linacce_z,gyro_x,gyro_y,gyro_z,X-magnetometer,Y-magnetometer,Z-magnetometer,Yaw, worldXAccel,worldYAccel,worldZAccel,worldXgyro,worldYgyro,worldZgyro
10:22:19,-0.915092,1.306692,-1.996111,0.326215,0.239685,-0.49927,25.030428,-13.643997,-35.573135,-46.191826,-2.1966836,1.413383,0.3507324,-0.15307902,0.32692888,-0.35429692
10:22:19,-0.91778136,1.308172015,-1.98148485,0.322214615,0.24140021,-0.49761870999999996,25.035483105,-13.63614952,-35.56689843,-46.28183504,-2.19024987575,1.412728268,0.360644415,-0.1550308649,0.32789173359999996,-0.3493681119
10:22:19,-0.92047072,1.3096520299999999,-1.9668587,0.31821423,0.24311542,-0.49596742,25.04053821,-13.628302040000001,-35.56066186,-46.37184408,-2.1838161515,1.412073536,0.37055643,-0.1569827098,0.3288545872,-0.34443930380000004
10:22:19,-0.92316008,1.311132045,-1.95223255,0.314213845,0.24483063000000002,-0.49431612999999996,25.045593315,-13.62045456,-35.55442529,-46.46185312,-2.17738242725,1.411418804,0.380468445,-0.1589345547,0.3298174408,-0.3395104957
10:22:19,-0.92584944,1.31261206,-1.9376064,0.31021346,0.24654584000000002,-0.49266484,25.05064842,-13.61260708,-35.54818872,-46.55186216,-2.170948703,1.410764072,0.39038046,-0.1608863996,0.33078029439999995,-0.3345816876
10:22:19,-0.9285388,1.314092075,-1.92298025,0.306213075,0.24826105,-0.49101354999999997,25.055703525000002,-13.604759600000001,-35.54195215,-46.6418712,-2.16451497875,1.41010934,0.400292475,-0.1628382445,0.331743148,-0.3296528795
10:22:19,-0.93122816,1.3155720899999999,-1.9083541,0.30221268999999995,0.24997626,-0.48936226,25.060758630000002,-13.59691212,-35.53571558,-46.73188024,-2.1580812545,1.409454608,0.41020449000000003,-0.1647900894,0.33270600159999997,-0.32472407140000004
10:22:19,-0.9339175200000001,1.317052105,-1.89372795,0.29821230499999996,0.25169147000000003,-0.48771096999999997,25.065813735,-13.58906464,-35.52947901,-46.82188928,-2.15164753025,1.408799876,0.42011650500000003,-0.1667419343,0.3336688552,-0.3197952633
10:22:19,-0.93660688,1.31853212,-1.8791018,0.29421191999999996,0.25340668,-0.48605968,25.07086884,-13.581217160000001,-35.52324244,-46.91189832,-2.145213806,1.4081451440000001,0.43002852,-0.1686937792,0.3346317088,-0.3148664552
10:22:19,-0.93929624,1.320012135,-1.86447565,0.29021153499999996,0.25512189,-0.48440838999999997,25.075923945,-13.57336968,-35.51700587,-47.00190736,-2.1387800817500002,1.407490412,0.439940535,-0.1706456241,0.33559456239999996,-0.3099376471
10:22:19,-0.9419856,1.3214921499999999,-1.8498495,0.28621114999999997,0.2568371,-0.4827571,25.08097905,-13.5655222,-35.5107693,-47.0919164,-2.1323463575,1.4068356800000001,0.44985255,-0.172597469,0.336557416,-0.30500883900000003
10:22:19,-0.9446749600000001,1.322972165,-1.83522335,0.282210765,0.25855231,-0.48110580999999997,25.086034155,-13.557674720000001,-35.50453273,-47.18192544,-2.12591263325,1.406180948,0.459764565,-0.1745493139,0.3375202696,-0.3000800309
10:22:19,-0.94736432,1.32445218,-1.8205972,0.27821038,0.26026752000000003,-0.47945452,25.09108926,-13.54982724,-35.49829616,-47.27193448,-2.119478909,1.4055262160000002,0.46967658,-0.1765011588,0.33848312319999996,-0.2951512228
10:22:19,-0.95005368,1.325932195,-1.80597105,0.274209995,0.26198273,-0.47780322999999997,25.096144365,-13.54197976,-35.492059590000004,-47.36194352,-2.1130451847500002,1.404871484,0.479588595,-0.1784530037,0.3394459768,-0.2902224147
10:22:19,-0.95274304,1.3274122099999999,-1.7913449,0.27020961,0.26369794,-0.47615194,25.10119947,-13.53413228,-35.48582302,-47.45195256,-2.1066114605,1.404216752,0.48950061,-0.1804048486,0.3404088304,-0.2852936066
10:22:19,-0.9554324,1.328892225,-1.77671875,0.266209225,0.26541315,-0.47450064999999997,25.106254575,-13.5262848,-35.47958645,-47.5419616,-2.10017773625,1.40356202,0.49941262500000005,-0.1823566935,0.34137168399999995,-0.2803647985
10:22:19,-0.95812176,1.33037224,-1.7620926,0.26220884,0.26712836,-0.47284936,25.11130968,-13.51843732,-35.47334988,-47.63197064,-2.093744012,1.402907288,0.50932464,-0.1843085384,0.3423345376,-0.2754359904
10:22:19,-0.96081112,1.331852255,-1.74746645,0.258208455,0.26884357000000003,-0.47119806999999997,25.116364785000002,-13.51058984,-35.46711331,-47.72197968,-2.0873102877500003,1.402252556,0.519236655,-0.1862603833,0.34329739119999997,-0.27050718230000004
10:22:19,-0.96350048,1.3333322699999999,-1.7328403,0.25420807,0.27055878,-0.46954678,25.121419890000002,-13.502742360000001,-35.46087674,-47.81198872,-2.0808765635,1.401597824,0.52914867,-0.1882122282,0.34426024479999995,-0.2655783742
10:22:19,-0.96618984,1.334812285,-1.71821415,0.250207685,0.27227399,-0.46789548999999997,25.126474995,-13.49489488,-35.45464017,-47.90199776,-2.07444283925,1.4009430920000001,0.539060685,-0.1901640731,0.3452230984,-0.2606495661
10:22:19,-0.9688792,1.3362923,-1.7035879999999999,0.2462073,0.2739892,-0.4662442,25.1315301,-13.4870474,-35.4484036,-47.9920068,-2.068009115,1.40028836,0.5489727,-0.192115918,0.34618595199999996,-0.255720758
10:22:19,-0.97156856,1.337772315,-1.68896185,0.24220691499999997,0.27570441,-0.46459290999999997,25.136585205,-13.479199920000001,-35.44216703,-48.08201584,-2.06157539075,1.3996336280000001,0.558884715,-0.19406776290000002,0.3471488056,-0.2507919499
10:22:19,-0.97425792,1.3392523299999999,-1.6743356999999999,0.23820652999999997,0.27741962,-0.46294162,25.14164031,-13.47135244,-35.43593046,-48.17202488,-2.0551416665,1.398978896,0.5687967300000001,-0.19601960780000002,0.3481116592,-0.24586314180000002
10:22:19,-0.97694728,1.340732345,-1.65970955,0.23420614499999998,0.27913483,-0.46129032999999997,25.146695415,-13.46350496,-35.42969389,-48.26203392,-2.04870794225,1.3983241640000001,0.578708745,-0.19797145270000002,0.34907451279999996,-0.2409343337
10:22:19,-0.9796366400000001,1.34221236,-1.6450833999999999,0.23020575999999998,0.28085004,-0.45963904,25.15175052,-13.455657480000001,-35.42345732,-48.35204296,-2.042274218,1.397669432,0.58862076,-0.19992329760000002,0.3500373664,-0.23600552560000002
10:22:19,-0.982326,1.343692375,-1.63045725,0.226205375,0.28256525,-0.45798774999999997,25.156805625,-13.44781,-35.41722075,-48.442052,-2.03584049375,1.3970147000000002,0.598532775,-0.20187514250000002,0.35100022,-0.23107671750000003
10:22:19,-0.98501536,1.3451723899999999,-1.6158310999999999,0.22220499,0.28428046,-0.45633646,25.16186073,-13.43996252,-35.41098418,-48.53206104,-2.0294067695,1.396359968,0.6084447900000001,-0.20382698740000002,0.35196307359999995,-0.2261479094
10:22:19,-0.98770472,1.346652405,-1.60120495,0.218204605,0.28599567,-0.45468516999999997,25.166915835,-13.432115040000001,-35.40474761,-48.62207008,-2.02297304525,1.395705236,0.6183568050000001,-0.20577883230000002,0.3529259272,-0.2212191013
10:22:19,-0.99039408,1.34813242,-1.5865788,0.21420422,0.28771088,-0.45303388,25.17197094,-13.42426756,-35.39851104,-48.71207912,-2.016539321,1.395050504,0.6282688200000001,-0.20773067720000002,0.35388878079999997,-0.2162902932
10:22:19,-0.99308344,1.349612435,-1.57195265,0.210203835,0.28942609,-0.45138259,25.177026045,-13.41642008,-35.39227447,-48.80208816,-2.01010559675,1.394395772,0.638180835,-0.20968252210000002,0.35485163439999995,-0.2113614851
10:22:19,-0.9957728,1.35109245,-1.5573265,0.20620345,0.2911413,-0.4497313,25.182081150000002,-13.408572600000001,-35.3860379,-48.8920972,-2.0036718725,1.39374104,0.64809285,-0.21163436700000002,0.355814488,-0.206432677
10:22:19,-0.99846216,1.352572465,-1.54270035,0.202203065,0.29285651,-0.44808001,25.187136255000002,-13.40072512,-35.37980133,-48.98210624,-1.9972381482500001,1.393086308,0.6580048650000001,-0.21358621190000002,0.35677734159999996,-0.2015038689
10:22:19,-1.00115152,1.35405248,-1.5280742,0.19820268,0.29457172,-0.44642872,25.19219136,-13.39287764,-35.37356476,-49.07211528,-1.990804424,1.3924315760000001,0.66791688,-0.21553805680000002,0.3577401952,-0.1965750608
10:22:19,-1.00384088,1.355532495,-1.51344805,0.194202295,0.29628693,-0.44477743,25.197246465,-13.385030160000001,-35.36732819,-49.16212432,-1.9843706997500001,1.391776844,0.677828895,-0.21748990170000002,0.3587030488,-0.19164625270000002
10:22:19,-1.00653024,1.35701251,-1.4988219,0.19020191,0.29800214,-0.44312614,25.20230157,-13.37718268,-35.36109162,-49.25213336,-1.9779369755,1.3911221120000001,0.68774091,-0.21944174660000001,0.35966590239999996,-0.1867174446
10:22:19,-1.0092196,1.358492525,-1.48419575,0.186201525,0.29971735,-0.44147485,25.207356675,-13.3693352,-35.35485505,-49.3421424,-1.9715032512500001,1.39046738,0.6976529250000001,-0.22139359150000001,0.360628756,-0.18178863650000002
10:22:19,-1.01190896,1.35997254,-1.4695696,0.18220113999999998,0.30143256,-0.43982356,25.21241178,-13.361487720000001,-35.34861848,-49.43215144,-1.965069527,1.3898126480000002,0.70756494,-0.2233454364,0.3615916096,-0.1768598284
10:22:19,-1.01459832,1.361452555,-1.45494345,0.178200755,0.30314777,-0.43817227,25.217466885,-13.35364024,-35.34238191,-49.52216048,-1.9586358027500002,1.389157916,0.717476955,-0.2252972813,0.36255446319999995,-0.17193102030000001
10:22:19,-1.01728768,1.36293257,-1.4403173,0.17420037,0.30486298,-0.43652098,25.22252199,-13.34579276,-35.33614534,-49.61216952,-1.9522020785,1.388503184,0.72738897,-0.2272491262,0.3635173168,-0.1670022122
10:22:19,-1.0199770400000001,1.364412585,-1.42569115,0.170199985,0.30657819,-0.43486969,25.227577095,-13.33794528,-35.32990877,-49.70217856,-1.9457683542500002,1.387848452,0.7373009850000001,-0.2292009711,0.36448017039999997,-0.1620734041
10:22:19,-1.0226664,1.3658926,-1.411065,0.1661996,0.3082934,-0.4332184,25.2326322,-13.3300978,-35.3236722,-49.7921876,-1.93933463,1.38719372,0.7472130000000001,-0.231152816,0.36544302399999995,-0.157144596
10:22:19,-1.02535576,1.367372615,-1.39643885,0.162199215,0.31000861,-0.43156711,25.237687305,-13.32225032,-35.31743563,-49.882196640000004,-1.93290090575,1.386538988,0.7571250150000001,-0.23310466090000004,0.3664058776,-0.1522157879
10:22:19,-1.02804512,1.36885263,-1.3818127,0.15819882999999998,0.31172382,-0.42991582,25.24274241,-13.31440284,-35.31119906,-49.97220568,-1.9264671815,1.385884256,0.76703703,-0.23505650580000004,0.36736873119999996,-0.1472869798
10:22:19,-1.03073448,1.370332645,-1.36718655,0.154198445,0.31343903,-0.42826453,25.247797515000002,-13.30655536,-35.30496249,-50.06221472,-1.9200334572500002,1.385229524,0.7769490450000001,-0.23700835070000004,0.36833158479999994,-0.1423581717
10:22:19,-1.03342384,1.37181266,-1.3525604,0.15019806,0.31515424000000003,-0.42661324,25.25285262,-13.29870788,-35.29872592,-50.15222376,-1.913599733,1.384574792,0.7868610600000001,-0.23896019560000004,0.3692944384,-0.1374293636
10:22:19,-1.0361132,1.373292675,-1.33793425,0.146197675,0.31686945,-0.42496195,25.257907725,-13.2908604,-35.29248935,-50.2422328,-1.90716600875,1.3839200600000001,0.796773075,-0.24091204050000004,0.37025729199999996,-0.1325005555
10:22:19,-1.03880256,1.37477269,-1.3233081,0.14219729,0.31858466,-0.42331066,25.26296283,-13.283012920000001,-35.28625278,-50.33224184,-1.9007322845,1.383265328,0.80668509,-0.24286388540000003,0.37122014559999994,-0.1275717474
10:22:19,-1.04149192,1.376252705,-1.30868195,0.138196905,0.32029987,-0.42165937,25.268017935,-13.27516544,-35.28001621,-50.42225088,-1.8942985602500002,1.3826105960000001,0.816597105,-0.24481573030000003,0.3721829992,-0.1226429393
10:22:19,-1.04418128,1.37773272,-1.2940558,0.13419651999999999,0.32201508,-0.42000808,25.27307304,-13.26731796,-35.27377964,-50.51225992,-1.887864836,1.381955864,0.8265091200000001,-0.24676757520000003,0.37314585279999996,-0.11771413120000002
10:22:19,-1.04687064,1.3792127349999999,-1.27942965,0.130196135,0.32373029,-0.41835679,25.278128145,-13.259470480000001,-35.26754307,-50.60226896,-1.88143111175,1.3813011320000002,0.8364211350000001,-0.24871942010000003,0.3741087064,-0.1127853231
10:22:19,-1.04956,1.38069275,-1.2648035,0.12619575,0.3254455,-0.4167055,25.28318325,-13.251623,-35.2613065,-50.692278,-1.8749973875000001,1.3806464,0.8463331500000001,-0.25067126500000003,0.37507155999999997,-0.10785651500000001
10:22:19,-1.05224936,1.382172765,-1.25017735,0.122195365,0.32716071,-0.41505421,25.288238355,-13.24377552,-35.25506993,-50.78228704,-1.86856366325,1.379991668,0.856245165,-0.25262310990000003,0.37603441359999995,-0.10292770690000003
10:22:19,-1.05493872,1.38365278,-1.2355512,0.11819498,0.32887592,-0.41340292,25.29329346,-13.235928040000001,-35.24883336,-50.87229608,-1.8621299390000001,1.379336936,0.8661571800000001,-0.25457495480000003,0.3769972672,-0.09799889880000001
10:22:19,-1.05762808,1.385132795,-1.22092505,0.11419459500000001,0.33059113,-0.41175163,25.298348565,-13.22808056,-35.24259679,-50.962305119999996,-1.85569621475,1.378682204,0.8760691950000001,-0.25652679970000003,0.37796012079999997,-0.0930700907
10:22:19,-1.06031744,1.38661281,-1.2062989000000002,0.11019421000000001,0.33230634,-0.41010034,25.30340367,-13.22023308,-35.23636022,-51.05231416,-1.8492624905000001,1.378027472,0.8859812100000002,-0.25847864460000003,0.37892297439999995,-0.08814128259999998
10:22:19,-1.0630068,1.388092825,-1.19167275,0.10619382499999999,0.33402155,-0.40844905,25.308458775000002,-13.212385600000001,-35.23012365,-51.1423232,-1.84282876625,1.37737274,0.895893225,-0.26043048950000003,0.379885828,-0.08321247450000002
10:22:19,-1.06569616,1.38957284,-1.1770466000000002,0.10219344,0.33573675999999997,-0.40679776,25.313513880000002,-13.20453812,-35.22388708,-51.23233224,-1.8363950420000001,1.376718008,0.9058052400000001,-0.26238233440000003,0.38084868159999996,-0.07828366640000001
10:22:19,-1.06838552,1.3910528549999999,-1.16242045,0.098193055,0.33745197,-0.40514647,25.318568985,-13.19669064,-35.21765051,-51.32234128,-1.82996131775,1.376063276,0.9157172550000001,-0.2643341793,0.3818115352,-0.07335485829999999
10:22:19,-1.07107488,1.39253287,-1.1477943000000002,0.09419267,0.33916718,-0.40349518,25.32362409,-13.188843160000001,-35.21141394,-51.41235032,-1.8235275935000002,1.3754085440000001,0.9256292700000002,-0.2662860242,0.3827743888,-0.06842605019999998
10:22:19,-1.07376424,1.394012885,-1.13316815,0.09019228500000001,0.34088239,-0.40184389,25.328679195,-13.18099568,-35.20517737,-51.50235936,-1.81709386925,1.374753812,0.935541285,-0.2682378691,0.38373724239999996,-0.06349724210000002
10:22:19,-1.0764536,1.3954929,-1.1185420000000001,0.08619190000000002,0.3425976,-0.4001926,25.3337343,-13.1731482,-35.1989408,-51.5923684,-1.810660145,1.3740990800000001,0.9454533,-0.270189714,0.384700096,-0.058568434
10:22:19,-1.07914296,1.3969729149999999,-1.10391585,0.08219151499999999,0.34431281,-0.39854131,25.338789405,-13.165300720000001,-35.19270423,-51.68237744,-1.80422642075,1.373444348,0.9553653150000001,-0.2721415589,0.38566294959999997,-0.05363962589999999
10:22:19,-1.08183232,1.39845293,-1.0892897000000001,0.07819113,0.34602802,-0.39689002,25.34384451,-13.15745324,-35.18646766,-51.77238648,-1.7977926965000002,1.3727896160000002,0.9652773300000002,-0.2740934038,0.38662580319999995,-0.04871081779999997
10:22:19,-1.08452168,1.399932945,-1.07466355,0.074190745,0.34774323,-0.39523873,25.348899615,-13.14960576,-35.18023109,-51.86239552,-1.79135897225,1.372134884,0.975189345,-0.2760452487,0.3875886568,-0.04378200970000001
10:22:19,-1.08721104,1.40141296,-1.0600374000000001,0.07019036000000001,0.34945844,-0.39358744,25.35395472,-13.141758280000001,-35.17399452,-51.95240456,-1.784925248,1.371480152,0.98510136,-0.2779970936,0.38855151039999997,-0.0388532016
10:22:19,-1.0899003999999999,1.4028929749999999,-1.04541125,0.06618997500000001,0.35117365,-0.39193615,25.359009825,-13.1339108,-35.16775795,-52.0424136,-1.77849152375,1.37082542,0.9950133750000001,-0.2799489385,0.38951436399999995,-0.03392439349999998
10:22:19,-1.09258976,1.40437299,-1.0307851000000001,0.06218959000000002,0.35288885999999997,-0.39028486,25.36406493,-13.12606332,-35.161521379999996,-52.13242264,-1.7720577995000002,1.370170688,1.0049253900000001,-0.2819007834,0.3904772176,-0.028995585400000023
10:22:19,-1.09527912,1.405853005,-1.01615895,0.05818920500000002,0.35460407,-0.38863357,25.369120035,-13.11821584,-35.15528481,-52.22243168,-1.76562407525,1.369515956,1.0148374050000002,-0.2838526283,0.39144007119999996,-0.02406677730000001
10:22:19,-1.09796848,1.40733302,-1.0015328000000001,0.054188820000000026,0.35631928,-0.38698228,25.374175140000002,-13.11036836,-35.14904824,-52.31244072,-1.759190351,1.368861224,1.02474942,-0.2858044732,0.39240292479999994,-0.019137969199999993
10:22:19,-1.10065784,1.4088130349999999,-0.9869066500000001,0.05018843500000003,0.35803449,-0.38533099,25.379230245,-13.10252088,-35.14281167,-52.40244976,-1.75275662675,1.368206492,1.034661435,-0.2877563181,0.3933657784,-0.014209161099999978
10:22:19,-1.1033472,1.41029305,-0.9722805000000001,0.046188050000000036,0.3597497,-0.3836797,25.38428535,-13.0946734,-35.1365751,-52.4924588,-1.7463229025,1.36755176,1.0445734500000001,-0.289708163,0.39432863199999996,-0.009280353000000019
10:22:19,-1.10603656,1.411773065,-0.9576543500000001,0.042187664999999985,0.36146491000000003,-0.38202841,25.389340455,-13.08682592,-35.13033853,-52.58246784,-1.7398891782500001,1.3668970280000001,1.0544854650000002,-0.2916600079,0.39529148559999994,-0.004351544900000004
10:22:19,-1.10872592,1.41325308,-0.9430282000000001,0.03818727999999999,0.36318012,-0.38037712,25.39439556,-13.07897844,-35.12410196,-52.67247688,-1.733455454,1.366242296,1.06439748,-0.2936118528,0.39625433919999997,0.0005772632000000111
10:22:19,-1.11141528,1.4147330949999999,-0.9284020500000001,0.034186894999999995,0.36489532999999996,-0.37872583,25.399450665,-13.07113096,-35.11786539,-52.76248592,-1.7270217297500001,1.3655875640000001,1.074309495,-0.2955636977,0.39721719279999995,0.005506071300000026
10:22:19,-1.1141046399999999,1.41621311,-0.9137759000000001,0.03018651,0.36661054,-0.37707454,25.40450577,-13.06328348,-35.11162882,-52.85249496,-1.7205880055,1.364932832,1.08422151,-0.2975155426,0.39818004639999993,0.010434879399999986
10:22:19,-1.116794,1.417693125,-0.8991497500000001,0.026186125000000005,0.36832575,-0.37542325,25.409560875,-13.055436,-35.10539225,-52.942504,-1.7141542812500001,1.3642781,1.0941335250000002,-0.2994673875,0.39914289999999997,0.0153636875
10:22:19,-1.11948336,1.41917314,-0.8845236000000001,0.02218574000000001,0.37004096,-0.37377196,25.41461598,-13.04758852,-35.09915568,-53.03251304,-1.707720557,1.363623368,1.1040455400000002,-0.3014192324,0.40010575359999995,0.020292495600000016
10:22:19,-1.12217272,1.420653155,-0.8698974500000001,0.018185355000000014,0.37175617,-0.37212067,25.419671085,-13.039741040000001,-35.09291911,-53.12252208,-1.7012868327500001,1.362968636,1.113957555,-0.3033710773,0.4010686072,0.02522130370000003
10:22:19,-1.12486208,1.42213317,-0.8552713000000001,0.014184970000000019,0.37347138,-0.37046937999999996,25.42472619,-13.03189356,-35.08668254,-53.21253112,-1.6948531085,1.362313904,1.12386957,-0.3053229222,0.40203146079999996,0.03015011179999999
10:22:19,-1.12755144,1.423613185,-0.8406451500000001,0.010184585000000024,0.37518659,-0.36881809,25.429781295,-13.02404608,-35.08044597,-53.30254016,-1.68841938425,1.361659172,1.1337815850000001,-0.3072747671,0.4029943144,0.035078919900000005
10:22:19,-1.1302408,1.4250932,-0.8260190000000001,0.0061842000000000286,0.37690179999999995,-0.3671668,25.434836400000002,-13.016198600000001,-35.0742094,-53.392549200000005,-1.68198566,1.36100444,1.1436936000000002,-0.309226612,0.403957168,0.04000772800000002
10:22:19,-1.13293016,1.426573215,-0.81139285,0.0021838150000000334,0.37861701000000003,-0.36551551,25.439891505000002,-13.00835112,-35.06797283,-53.48255824,-1.6755519357500002,1.360349708,1.153605615,-0.3111784569,0.40492002159999996,0.04493653609999998
10:22:19,-1.13561952,1.42805323,-0.7967667,-0.0018165699999999618,0.38033222,-0.36386421999999996,25.44494661,-13.00050364,-35.061736259999996,-53.57256728,-1.6691182115,1.359694976,1.16351763,-0.3131303018,0.4058828752,0.049865344199999995
10:22:19,-1.13830888,1.429533245,-0.78214055,-0.005816954999999957,0.38204742999999997,-0.36221293,25.450001715,-12.992656160000001,-35.05549969,-53.66257632,-1.66268448725,1.359040244,1.1734296450000001,-0.3150821467,0.4068457288,0.05479415230000001
10:22:19,-1.14099824,1.43101326,-0.7675144,-0.009817340000000008,0.38376264,-0.36056164,25.45505682,-12.98480868,-35.04926312,-53.75258536,-1.656250763,1.3583855120000001,1.1833416600000002,-0.3170339916,0.40780858239999995,0.059722960400000025
10:22:19,-1.1436876,1.432493275,-0.75288825,-0.013817725000000003,0.38547785,-0.35891035,25.460111925,-12.9769612,-35.04302655,-53.8425944,-1.6498170387500002,1.35773078,1.193253675,-0.3189858365,0.408771436,0.06465176849999998
10:22:19,-1.14637696,1.43397329,-0.7382621,-0.017818109999999998,0.38719306,-0.35725905999999996,25.46516703,-12.969113720000001,-35.03678998,-53.93260344,-1.6433833145,1.3570760480000001,1.20316569,-0.3209376814,0.40973428959999997,0.0695805766
10:22:19,-1.14906632,1.435453305,-0.72363595,-0.021818494999999993,0.38890827,-0.35560777,25.470222135,-12.96126624,-35.030553409999996,-54.02261248,-1.63694959025,1.356421316,1.2130777050000001,-0.3228895263,0.41069714319999995,0.07450938470000001
10:22:19,-1.15175568,1.43693332,-0.7090098,-0.02581887999999999,0.39062348,-0.35395648,25.47527724,-12.95341876,-35.02431684,-54.112621520000005,-1.630515866,1.355766584,1.2229897200000002,-0.3248413712,0.4116599968,0.07943819280000003
10:22:19,-1.15444504,1.438413335,-0.69438365,-0.029819264999999984,0.39233869,-0.35230519,25.480332345,-12.94557128,-35.01808027,-54.20263056,-1.6240821417500002,1.355111852,1.2329017350000002,-0.3267932161,0.41262285039999996,0.08436700089999999
10:22:19,-1.1571344,1.43989335,-0.6797575,-0.03381964999999998,0.39405389999999996,-0.35065389999999996,25.48538745,-12.9377238,-35.0118437,-54.2926396,-1.6176484175,1.35445712,1.24281375,-0.328745061,0.41358570399999994,0.089295809
10:22:19,-1.15982376,1.441373365,-0.66513135,-0.037820034999999974,0.39576911,-0.34900261,25.490442555,-12.92987632,-35.00560713,-54.38264864,-1.61121469325,1.353802388,1.252725765,-0.3306969059,0.4145485576,0.09422461710000002
10:22:19,-1.16251312,1.4428533799999999,-0.6505052,-0.04182041999999997,0.39748432,-0.34735132,25.49549766,-12.92202884,-34.99937056,-54.47265768,-1.6047809690000001,1.353147656,1.2626377800000002,-0.3326487508,0.41551141119999996,0.09915342520000003
10:22:19,-1.16520248,1.444333395,-0.63587905,-0.045820804999999964,0.39919952999999997,-0.34570003,25.500552765000002,-12.91418136,-34.99313399,-54.56266672,-1.5983472447500002,1.352492924,1.2725497950000002,-0.3346005957,0.41647426479999994,0.1040822333
10:22:19,-1.16789184,1.44581341,-0.6212529,-0.04982118999999996,0.40091474,-0.34404873999999996,25.50560787,-12.90633388,-34.98689742,-54.65267576,-1.5919135205000001,1.351838192,1.28246181,-0.3365524406,0.4174371184,0.10901104140000001
10:22:19,-1.1705812,1.447293425,-0.60662675,-0.053821574999999955,0.40262995,-0.34239745,25.510662975,-12.8984864,-34.98066085,-54.7426848,-1.58547979625,1.3511834600000001,1.292373825,-0.3385042855,0.41839997199999995,0.11393984950000002
10:22:19,-1.17327056,1.44877344,-0.5920006,-0.057821960000000006,0.40434516,-0.34074616,25.51571808,-12.89063892,-34.97442428,-54.832693840000005,-1.5790460720000001,1.350528728,1.3022858400000001,-0.3404561304,0.41936282559999993,0.11886865759999998
10:22:19,-1.17595992,1.450253455,-0.57737445,-0.061822345,0.40606036999999995,-0.33909487,25.520773185,-12.88279144,-34.96818771,-54.92270288,-1.57261234775,1.3498739960000001,1.3121978550000002,-0.3424079753,0.42032567919999997,0.1237974657
10:22:19,-1.17864928,1.45173347,-0.5627483,-0.06582273,0.40777558,-0.33744357999999997,25.52582829,-12.87494396,-34.96195114,-55.01271192,-1.5661786235,1.349219264,1.3221098700000002,-0.3443598202,0.42128853279999995,0.1287262738
10:22:19,-1.1813386399999999,1.453213485,-0.54812215,-0.06982311499999999,0.40949079,-0.33579229,25.530883395,-12.86709648,-34.95571457,-55.10272096,-1.55974489925,1.3485645320000001,1.332021885,-0.3463116651,0.42225138639999993,0.13365508190000003
10:22:19,-1.184028,1.4546934999999999,-0.533496,-0.07382349999999999,0.41120599999999996,-0.334141,25.5359385,-12.859249,-34.949478,-55.19273,-1.5533111750000002,1.3479098,1.3419339000000001,-0.34826351,0.42321423999999996,0.13858389
10:22:19,-1.18671736,1.456173515,-0.51886985,-0.07782388499999998,0.41292121,-0.33248971,25.540993605,-12.85140152,-34.94324143,-55.28273904,-1.54687745075,1.347255068,1.3518459150000002,-0.3502153549,0.42417709359999994,0.1435126981
10:22:19,-1.18940672,1.45765353,-0.5042437,-0.08182426999999998,0.41463642,-0.33083841999999997,25.54604871,-12.84355404,-34.93700486,-55.37274808,-1.5404437265,1.346600336,1.3617579300000002,-0.3521671998,0.4251399472,0.14844150619999996
10:22:19,-1.19209608,1.459133545,-0.48961754999999996,-0.08582465499999997,0.41635163,-0.32918713,25.551103815,-12.83570656,-34.930768289999996,-55.46275712,-1.53401000225,1.345945604,1.3716699450000003,-0.3541190447,0.42610280079999996,0.15337031430000003
10:22:19,-1.19478544,1.46061356,-0.47499139999999995,-0.08982503999999997,0.41806684,-0.32753584,25.55615892,-12.82785908,-34.92453172,-55.552766160000004,-1.5275762780000002,1.345290872,1.38158196,-0.3560708896,0.4270656544,0.1582991224
10:22:19,-1.1974748,1.462093575,-0.46036524999999995,-0.09382542499999996,0.41978205,-0.32588455,25.561214025,-12.8200116,-34.91829515,-55.6427752,-1.52114255375,1.34463614,1.3914939750000002,-0.3580227345,0.428028508,0.16322793050000006
10:22:19,-1.20016416,1.46357359,-0.44573909999999994,-0.09782580999999996,0.42149726,-0.32423325999999997,25.566269130000002,-12.81216412,-34.91205858,-55.73278424,-1.5147088295,1.343981408,1.4014059900000002,-0.3599745794,0.42899136159999995,0.16815673860000002
10:22:19,-1.20285352,1.465053605,-0.43111295000000016,-0.10182619499999995,0.42321246999999995,-0.32258197,25.571324235,-12.80431664,-34.90582201,-55.82279328,-1.50827510525,1.343326676,1.4113180050000003,-0.3619264243,0.4299542152,0.17308554669999998
10:22:19,-1.2055428799999999,1.4665336199999999,-0.41648680000000016,-0.10582657999999995,0.42492768,-0.32093068,25.57637934,-12.796469160000001,-34.899585439999996,-55.912802320000004,-1.5018413810000002,1.3426719440000001,1.4212300200000003,-0.3638782692,0.43091706879999997,0.17801435480000005
10:22:19,-1.20823224,1.468013635,-0.40186065000000015,-0.109826965,0.42664289,-0.31927939,25.581434445,-12.78862168,-34.89334887,-56.00281136,-1.49540765675,1.342017212,1.4311420350000001,-0.3658301141,0.43187992239999995,0.1829431629
10:22:19,-1.2109216,1.46949365,-0.38723450000000015,-0.11382735,0.42835809999999996,-0.31762809999999997,25.58648955,-12.7807742,-34.8871123,-56.0928204,-1.4889739325,1.3413624800000001,1.4410540500000002,-0.367781959,0.432842776,0.18787197099999997
10:22:19,-1.21361096,1.470973665,-0.37260835000000014,-0.11782773499999999,0.43007331,-0.31597681,25.591544655,-12.772926720000001,-34.88087573,-56.182829440000006,-1.48254020825,1.340707748,1.4509660650000002,-0.3697338039,0.43380562959999996,0.19280077910000004
10:22:19,-1.21630032,1.47245368,-0.35798220000000014,-0.12182811999999998,0.43178852,-0.31432552,25.59659976,-12.76507924,-34.87463916,-56.272838480000004,-1.4761064840000002,1.3400530160000002,1.4608780800000003,-0.37168564880000005,0.43476848319999994,0.1977295872
10:22:19,-1.21898968,1.473933695,-0.34335605000000013,-0.12582850499999998,0.43350373,-0.31267423,25.601654865,-12.75723176,-34.86840259,-56.36284752,-1.4696727597500001,1.339398284,1.4707900950000001,-0.37363749370000005,0.4357313368,0.20265839529999996
10:22:19,-1.22167904,1.47541371,-0.32872990000000013,-0.12982888999999997,0.43521893999999994,-0.31102293999999997,25.60670997,-12.749384280000001,-34.86216602,-56.45285656,-1.4632390355,1.338743552,1.4807021100000002,-0.37558933860000004,0.43669419039999996,0.20758720340000003
10:22:19,-1.2243684,1.476893725,-0.3141037500000001,-0.13382927499999997,0.43693415,-0.30937165,25.611765075,-12.7415368,-34.85592945,-56.5428656,-1.4568053112500001,1.33808882,1.4906141250000002,-0.37754118350000004,0.43765704399999994,0.2125160115
10:22:19,-1.2270577599999999,1.4783737399999999,-0.2994776000000001,-0.13782965999999996,0.43864936,-0.30772036,25.61682018,-12.73368932,-34.84969288,-56.632874640000004,-1.4503715870000002,1.337434088,1.5005261400000003,-0.37949302840000004,0.4386198976,0.21744481960000006
10:22:19,-1.2297471199999999,1.479853755,-0.2848514500000001,-0.14183004499999996,0.44036456999999996,-0.30606907,25.621875285,-12.725841840000001,-34.84345631,-56.72288368,-1.4439378627500001,1.336779356,1.5104381550000001,-0.38144487330000004,0.43958275119999995,0.22237362770000002
10:22:19,-1.23243648,1.48133377,-0.2702253000000001,-0.14583042999999996,0.44207978,-0.30441777999999997,25.626930390000002,-12.71799436,-34.83721974,-56.81289272,-1.4375041385,1.336124624,1.5203501700000002,-0.38339671820000004,0.44054560479999993,0.22730243579999998
10:22:19,-1.23512584,1.482813785,-0.2555991500000001,-0.14983081499999995,0.44379499,-0.30276649,25.631985495,-12.71014688,-34.830983169999996,-56.902901760000006,-1.4310704142500001,1.335469892,1.5302621850000002,-0.38534856310000004,0.44150845839999997,0.23223124390000005
10:22:19,-1.2378152,1.4842937999999999,-0.2409730000000001,-0.15383119999999995,0.44551019999999997,-0.3011152,25.6370406,-12.7022994,-34.8247466,-56.992910800000004,-1.42463669,1.33481516,1.5401742000000003,-0.38730040800000004,0.44247131199999995,0.237160052
10:22:19,-1.24050456,1.485773815,-0.2263468500000001,-0.15783158499999994,0.44722541,-0.29946391,25.642095705,-12.69445192,-34.81851003,-57.08291984,-1.41820296575,1.3341604280000001,1.5500862150000003,-0.38925225290000004,0.44343416559999993,0.24208886009999997
10:22:19,-1.24319392,1.48725383,-0.2117207000000001,-0.16183197,0.44894062,-0.29781262,25.64715081,-12.68660444,-34.81227346,-57.17292888,-1.4117692415,1.333505696,1.5599982300000002,-0.39120409780000004,0.44439701919999997,0.24701766820000004
10:22:19,-1.24588328,1.488733845,-0.1970945500000001,-0.165832355,0.45065583,-0.29616133,25.652205915,-12.67875696,-34.80603689,-57.26293792,-1.4053355172500002,1.3328509640000001,1.5699102450000002,-0.39315594270000004,0.44535987279999995,0.2519464763
10:22:19,-1.24857264,1.49021386,-0.18246840000000009,-0.16983273999999998,0.45237103999999995,-0.29451004000000003,25.65726102,-12.67090948,-34.799800319999996,-57.352946960000004,-1.398901793,1.332196232,1.5798222600000003,-0.39510778760000004,0.4463227263999999,0.25687528440000007
10:22:19,-1.251262,1.491693875,-0.16784225000000008,-0.17383312499999998,0.45408624999999997,-0.29285875,25.662316125,-12.663062,-34.79356375,-57.442956,-1.39246806875,1.3315415000000002,1.5897342750000003,-0.39705963250000004,0.44728557999999996,0.26180409250000003
10:22:19,-1.2539513599999998,1.49317389,-0.15321610000000008,-0.17783350999999997,0.45580146,-0.29120746,25.66737123,-12.65521452,-34.78732718,-57.53296504,-1.3860343445,1.330886768,1.5996462900000001,-0.39901147740000004,0.44824843359999994,0.2667329006
10:22:19,-1.25664072,1.494653905,-0.13858995000000007,-0.18183389499999997,0.45751666999999996,-0.28955617,25.672426335,-12.64736704,-34.78109061,-57.622974080000006,-1.3796006202500002,1.330232036,1.6095583050000002,-0.40096332230000004,0.4492112872,0.27166170870000006
10:22:19,-1.25933008,1.49613392,-0.12396380000000007,-0.18583427999999996,0.45923188,-0.28790488000000003,25.67748144,-12.63951956,-34.77485404,-57.712983120000004,-1.373166896,1.329577304,1.6194703200000002,-0.40291516720000004,0.45017414079999996,0.2765905168
10:22:19,-1.26201944,1.497613935,-0.10933765000000006,-0.18983466499999996,0.46094709,-0.28625359,25.682536545,-12.63167208,-34.768617469999995,-57.80299216,-1.36673317175,1.328922572,1.6293823350000003,-0.40486701210000003,0.45113699439999994,0.2815193249
10:22:19,-1.2647088,1.49909395,-0.09471150000000006,-0.19383504999999995,0.46266229999999997,-0.2846023,25.68759165,-12.6238246,-34.7623809,-57.8930012,-1.3602994475,1.32826784,1.6392943500000003,-0.40681885700000003,0.4520998479999999,0.28644813300000005
10:22:19,-1.26739816,1.500573965,-0.08008535000000006,-0.19783543499999995,0.46437751,-0.28295101,25.692646755,-12.61597712,-34.75614433,-57.98301024,-1.3538657232500002,1.327613108,1.6492063650000002,-0.40877070190000003,0.45306270159999995,0.2913769411
10:22:19,-1.27008752,1.50205398,-0.06545920000000005,-0.20183581999999994,0.46609272,-0.28129972000000003,25.69770186,-12.60812964,-34.74990776,-58.073019280000004,-1.347431999,1.326958376,1.6591183800000002,-0.41072254680000003,0.4540255552,0.29630574919999997
10:22:19,-1.2727768799999999,1.503533995,-0.050833050000000046,-0.20583620499999994,0.46780793,-0.27964843,25.702756965,-12.60028216,-34.74367119,-58.16302832,-1.34099827475,1.326303644,1.6690303950000003,-0.41267439170000003,0.45498840879999997,0.30123455730000004
10:22:19,-1.27546624,1.50501401,-0.03620690000000004,-0.20983658999999993,0.46952313999999995,-0.27799714,25.70781207,-12.59243468,-34.73743462,-58.25303736,-1.3345645505000001,1.3256489120000001,1.6789424100000003,-0.41462623660000003,0.45595126239999995,0.3061633654
10:22:19,-1.2781555999999998,1.506494025,-0.021580750000000037,-0.21383697499999993,0.47123835,-0.27634585,25.712867175,-12.5845872,-34.731198049999996,-58.343046400000006,-1.3281308262500002,1.32499418,1.6888544250000002,-0.41657808150000003,0.456914116,0.31109217350000007
10:22:19,-1.28084496,1.50797404,-0.006954600000000033,-0.21783735999999992,0.47295356,-0.27469456000000003,25.71792228,-12.576739719999999,-34.72496148,-58.433055440000004,-1.3216971020000001,1.3243394480000001,1.6987664400000002,-0.41852992640000003,0.45787696959999996,0.31602098160000003
10:22:19,-1.28353432,1.509454055,0.0076715499999999714,-0.22183774499999992,0.47466876999999996,-0.27304327,25.722977385,-12.56889224,-34.71872491,-58.52306448,-1.31526337775,1.323684716,1.7086784550000003,-0.42048177130000003,0.45883982319999994,0.3209497897
10:22:19,-1.28622368,1.51093407,0.022297699999999754,-0.22583812999999991,0.47638398,-0.27139198,25.72803249,-12.56104476,-34.71248834,-58.61307352,-1.3088296535000001,1.3230299840000002,1.7185904700000003,-0.42243361620000003,0.4598026768,0.32587859780000006
10:22:19,-1.28891304,1.512414085,0.03692384999999998,-0.2298385149999999,0.47809919,-0.26974069,25.733087595,-12.55319728,-34.70625177,-58.70308256,-1.30239592925,1.322375252,1.7285024850000004,-0.4243854611,0.46076553039999996,0.3308074059
10:22:19,-1.2916024,1.5138941,0.05154999999999976,-0.2338388999999999,0.4798144,-0.26808940000000003,25.7381427,-12.5453498,-34.700015199999996,-58.793091600000004,-1.295962205,1.32172052,1.7384145000000002,-0.426337306,0.46172838399999994,0.335736214
10:22:19,-1.29429176,1.515374115,0.06617614999999999,-0.237839285,0.48152960999999994,-0.26643811,25.743197805,-12.53750232,-34.69377863,-58.88310064,-1.28952848075,1.321065788,1.7483265150000002,-0.4282891509,0.46269123759999997,0.34066502210000005
10:22:19,-1.2969811199999999,1.51685413,0.08080229999999977,-0.24183967,0.48324482,-0.26478682,25.74825291,-12.52965484,-34.68754206,-58.97310968,-1.2830947565000002,1.320411056,1.7582385300000003,-0.4302409958,0.46365409119999995,0.3455938302
10:22:19,-1.29967048,1.5183341449999999,0.09542845,-0.245840055,0.48496003,-0.26313553,25.753308015,-12.52180736,-34.68130549,-59.063118720000006,-1.27666103225,1.319756324,1.7681505450000004,-0.4321928407,0.46461694479999993,0.3505226383000001
10:22:19,-1.3023598399999998,1.51981416,0.11005459999999978,-0.24984044,0.48667523999999995,-0.26148424000000003,25.75836312,-12.51395988,-34.67506892,-59.153127760000004,-1.270227308,1.319101592,1.7780625600000002,-0.4341446856,0.46557979839999997,0.35545144640000004
10:22:19,-1.3050492,1.521294175,0.12468075,-0.253840825,0.48839045,-0.25983295,25.763418225,-12.5061124,-34.668832349999995,-59.2431368,-1.26379358375,1.31844686,1.7879745750000002,-0.4360965305,0.46654265199999995,0.3603802545
10:22:19,-1.30773856,1.52277419,0.1393068999999998,-0.25784121,0.49010566,-0.25818166,25.76847333,-12.49826492,-34.66259578,-59.33314584,-1.2573598595000002,1.317792128,1.7978865900000003,-0.4380483754,0.4675055055999999,0.36530906260000007
10:22:19,-1.31042792,1.524254205,0.15393305000000002,-0.261841595,0.49182086999999997,-0.25653037,25.773528435,-12.49041744,-34.65635921,-59.42315488,-1.25092613525,1.3171373960000001,1.8077986050000003,-0.4400002203,0.46846835919999996,0.3702378707
10:22:19,-1.31311728,1.52573422,0.1685591999999998,-0.26584198,0.49353607999999993,-0.25487908000000004,25.77858354,-12.48256996,-34.65012264,-59.513163920000004,-1.244492411,1.316482664,1.8177106200000002,-0.4419520652,0.46943121279999994,0.3751666788
10:22:19,-1.31580664,1.527214235,0.18318535000000002,-0.269842365,0.49525129,-0.25322779,25.783638645,-12.47472248,-34.64388607,-59.60317296,-1.23805868675,1.3158279320000001,1.8276226350000002,-0.4439039101,0.4703940663999999,0.38009548690000006
10:22:19,-1.318496,1.52869425,0.1978114999999998,-0.27384274999999997,0.4969665,-0.2515765,25.78869375,-12.466875,-34.6376495,-59.69318200000001,-1.2316249625000002,1.3151732,1.8375346500000003,-0.445855755,0.47135691999999996,0.385024295
10:22:19,-1.3211853599999999,1.5301742649999999,0.21243765000000003,-0.27784313499999996,0.49868170999999994,-0.24992521,25.793748855,-12.45902752,-34.631412929999996,-59.783191040000006,-1.22519123825,1.314518468,1.8474466650000003,-0.4478075999,0.4723197736,0.3899531031
10:22:19,-1.32387472,1.53165428,0.22706379999999982,-0.28184351999999996,0.50039692,-0.24827391999999998,25.79880396,-12.45118004,-34.62517636,-59.873200080000004,-1.218757514,1.313863736,1.8573586800000004,-0.4497594448,0.4732826271999999,0.39488191120000005
10:22:19,-1.32656408,1.533134295,0.24168995000000004,-0.28584390499999995,0.50211213,-0.24662263,25.803859065,-12.44333256,-34.61893979,-59.96320912,-1.21232378975,1.313209004,1.8672706950000002,-0.4517112897,0.47424548079999995,0.3998107193
10:22:19,-1.32925344,1.53461431,0.2563160999999998,-0.28984428999999995,0.50382734,-0.24497133999999998,25.80891417,-12.43548508,-34.61270322,-60.05321816,-1.2058900655000002,1.312554272,1.8771827100000003,-0.4536631346,0.4752083344,0.4047395274000001
10:22:19,-1.3319428,1.536094325,0.27094225000000005,-0.29384467499999994,0.5055425499999999,-0.24332005,25.813969275,-12.4276376,-34.60646665,-60.143227200000005,-1.1994563412500001,1.31189954,1.8870947250000003,-0.4556149795,0.4761711879999999,0.40966833550000004
10:22:19,-1.33463216,1.53757434,0.28556839999999983,-0.29784505999999994,0.50725776,-0.24166875999999998,25.819024380000002,-12.41979012,-34.600230079999996,-60.233236240000004,-1.193022617,1.311244808,1.8970067400000004,-0.4575668244,0.47713404159999995,0.4145971436
10:22:19,-1.33732152,1.539054355,0.30019455000000006,-0.30184544499999993,0.50897297,-0.24001747,25.824079485,-12.41194264,-34.59399351,-60.32324528,-1.1865888927500001,1.310590076,1.9069187550000002,-0.4595186693,0.4780968952,0.41952595170000007
10:22:19,-1.34001088,1.54053437,0.31482069999999984,-0.30584582999999993,0.5106881799999999,-0.23836617999999998,25.82913459,-12.40409516,-34.58775694,-60.41325432000001,-1.1801551685,1.3099353440000001,1.9168307700000002,-0.4614705142,0.47905974879999996,0.4244547598
10:22:19,-1.3427002399999999,1.5420143849999999,0.32944685000000007,-0.3098462149999999,0.51240339,-0.23671489,25.834189695,-12.39624768,-34.58152037,-60.503263360000005,-1.1737214442500001,1.309280612,1.9267427850000003,-0.4634223591,0.48002260239999994,0.4293835679
10:22:19,-1.3453895999999999,1.5434944,0.34407299999999985,-0.3138465999999999,0.5141186,-0.23506359999999998,25.8392448,-12.3884002,-34.5752838,-60.593272400000004,-1.16728772,1.3086258800000001,1.9366548000000003,-0.465374204,0.480985456,0.43431237600000006
10:22:19,-1.34807896,1.544974415,0.3586991500000001,-0.3178469849999999,0.51583381,-0.23341231,25.844299905,-12.38055272,-34.569047229999995,-60.68328144,-1.1608539957500001,1.307971148,1.9465668150000004,-0.46732604890000007,0.48194830959999996,0.4392411841
10:22:19,-1.35076832,1.54645443,0.37332529999999986,-0.3218473699999999,0.51754902,-0.23176101999999998,25.84935501,-12.37270524,-34.56281066,-60.77329048,-1.1544202715,1.307316416,1.9564788300000002,-0.46927789380000007,0.48291116319999994,0.4441699922
10:22:19,-1.35345768,1.547934445,0.3879514500000001,-0.3258477549999999,0.51926423,-0.23010973,25.854410115,-12.36485776,-34.55657409,-60.863299520000005,-1.1479865472500002,1.306661684,1.9663908450000003,-0.47122973870000007,0.4838740168,0.44909880030000005
10:22:19,-1.35614704,1.54941446,0.40257759999999987,-0.3298481399999999,0.52097944,-0.22845843999999998,25.85946522,-12.35701028,-34.55033752,-60.95330856,-1.141552823,1.306006952,1.9763028600000003,-0.47318158360000007,0.48483687039999995,0.4540276084
10:22:19,-1.3588364,1.550894475,0.4172037500000001,-0.3338485249999999,0.5226946499999999,-0.22680715,25.864520325,-12.3491628,-34.54410095,-61.0433176,-1.1351190987500002,1.30535222,1.9862148750000004,-0.47513342850000007,0.48579972399999993,0.4589564165000001
10:22:19,-1.36152576,1.55237449,0.4318298999999999,-0.3378489099999999,0.52440986,-0.22515585999999999,25.86957543,-12.34131532,-34.537864379999995,-61.13332664000001,-1.1286853745,1.304697488,1.9961268900000002,-0.47708527340000007,0.48676257759999997,0.46388522460000003
10:22:19,-1.36421512,1.5538545049999999,0.4464560500000001,-0.341849295,0.52612507,-0.22350457,25.874630535,-12.33346784,-34.531627809999996,-61.223335680000005,-1.1222516502500002,1.304042756,2.006038905,-0.47903711830000006,0.48772543119999995,0.4688140327
10:22:19,-1.3669044799999999,1.55533452,0.4610821999999999,-0.34584968,0.5278402799999999,-0.22185327999999999,25.87968564,-12.32562036,-34.52539124,-61.31334472,-1.115817926,1.303388024,2.0159509200000003,-0.48098896320000006,0.48868828479999993,0.47374284080000006
10:22:19,-1.3695938399999998,1.556814535,0.4757083500000001,-0.349850065,0.52955549,-0.22020199000000001,25.884740745,-12.31777288,-34.51915467,-61.40335376,-1.1093842017500002,1.302733292,2.025862935,-0.48294080810000006,0.48965113839999996,0.4786716489
10:22:19,-1.3722832,1.55829455,0.4903344999999999,-0.35385045,0.5312707,-0.2185507,25.88979585,-12.309925400000001,-34.5129181,-61.4933628,-1.1029504775,1.30207856,2.03577495,-0.48489265300000006,0.49061399199999994,0.483600457
10:22:19,-1.37497256,1.5597745650000001,0.5049606499999997,-0.357850835,0.53298591,-0.21689941000000001,25.894850955,-12.30207792,-34.50668153,-61.583371840000005,-1.09651675325,1.3014238280000001,2.0456869650000002,-0.48684449790000006,0.4915768455999999,0.48852926510000005
10:22:19,-1.37766192,1.56125458,0.5195867999999999,-0.36185122,0.5347011199999999,-0.21524812,25.89990606,-12.29423044,-34.500444959999996,-61.67338088,-1.090083029,1.300769096,2.05559898,-0.48879634280000006,0.49253969919999996,0.4934580732
10:22:19,-1.38035128,1.562734595,0.5342129499999997,-0.36585160499999997,0.53641633,-0.21359683000000002,25.904961165,-12.28638296,-34.49420839,-61.76338992,-1.08364930475,1.3001143640000001,2.0655109950000003,-0.49074818770000006,0.49350255279999994,0.4983868813000001
10:22:19,-1.38304064,1.56421461,0.5488390999999999,-0.36985198999999996,0.53813154,-0.21194554,25.91001627,-12.27853548,-34.48797182,-61.85339896000001,-1.0772155805,1.299459632,2.07542301,-0.49270003260000006,0.4944654063999999,0.5033156894
10:22:19,-1.38573,1.565694625,0.5634652499999997,-0.37385237499999996,0.5398467499999999,-0.21029425000000002,25.915071375,-12.270688,-34.48173525,-61.943408000000005,-1.07078185625,1.2988049,2.085335025,-0.49465187750000006,0.49542825999999995,0.5082444975
10:22:19,-1.3884193599999999,1.56717464,0.5780913999999999,-0.37785275999999995,0.54156196,-0.20864296,25.92012648,-12.26284052,-34.47549868,-62.03341704,-1.0643481320000001,1.298150168,2.0952470400000003,-0.49660372240000006,0.49639111359999993,0.5131733056000001
10:22:19,-1.39110872,1.568654655,0.5927175499999997,-0.38185314499999995,0.54327717,-0.20699167000000002,25.925181585,-12.25499304,-34.469262109999995,-62.12342608,-1.05791440775,1.297495436,2.105159055,-0.49855556730000006,0.4973539671999999,0.5181021137
10:22:19,-1.3937980799999998,1.57013467,0.6073436999999999,-0.38585352999999994,0.5449923799999999,-0.20534038,25.93023669,-12.24714556,-34.46302554,-62.21343512,-1.0514806835000001,1.296840704,2.1150710700000004,-0.5005074122000001,0.49831682079999995,0.5230309218
10:22:19,-1.39648744,1.5716146850000001,0.6219698499999997,-0.38985391499999994,0.54670759,-0.20368909000000002,25.935291795,-12.23929808,-34.45678897,-62.303444160000005,-1.04504695925,1.296185972,2.124983085,-0.5024592571000001,0.4992796744,0.5279597299000001
10:22:19,-1.3991768,1.5730947,0.6365959999999999,-0.39385429999999994,0.5484228,-0.2020378,25.9403469,-12.2314506,-34.4505524,-62.3934532,-1.0386132350000001,1.29553124,2.1348951,-0.5044111020000001,0.5002425279999999,0.532888538
10:22:19,-1.40186616,1.574574715,0.6512221499999997,-0.39785468499999993,0.55013801,-0.20038651000000002,25.945402005,-12.22360312,-34.44431583,-62.48346224000001,-1.03217951075,1.294876508,2.1448071150000003,-0.5063629469,0.5012053815999999,0.5378173461
10:22:19,-1.40455552,1.57605473,0.6658483,-0.4018550699999999,0.5518532199999999,-0.19873522,25.95045711,-12.21575564,-34.438079259999995,-62.57347128000001,-1.0257457865000001,1.294221776,2.15471913,-0.5083147918,0.5021682352,0.5427461542
10:22:19,-1.40724488,1.577534745,0.6804744499999997,-0.4058554549999999,0.55356843,-0.19708393000000002,25.955512215,-12.20790816,-34.431842689999996,-62.663480320000005,-1.01931206225,1.293567044,2.1646311450000004,-0.5102666367,0.5031310888,0.5476749623
10:22:19,-1.40993424,1.57901476,0.6951006,-0.4098558399999999,0.55528364,-0.19543264,25.96056732,-12.20006068,-34.42560612,-62.75348936,-1.0128783380000002,1.2929123120000001,2.1745431600000003,-0.5122184816,0.5040939423999999,0.5526037704000001
10:22:19,-1.4126235999999999,1.580494775,0.7097267499999997,-0.4138562249999999,0.5569988499999999,-0.19378135000000002,25.965622425,-12.1922132,-34.41936955,-62.8434984,-1.00644461375,1.29225758,2.184455175,-0.5141703265,0.505056796,0.5575325785
10:22:19,-1.41531296,1.5819747899999999,0.7243529,-0.4178566099999999,0.55871406,-0.19213006,25.97067753,-12.18436572,-34.41313298,-62.93350744,-1.0000108895000002,1.2916028480000001,2.1943671900000004,-0.5161221714,0.5060196496,0.5624613866
10:22:19,-1.4180023199999998,1.583454805,0.7389790499999997,-0.4218569949999999,0.56042927,-0.19047877000000002,25.975732635,-12.17651824,-34.406896409999995,-63.023516480000005,-0.9935771652500001,1.290948116,2.204279205,-0.5180740163,0.5069825031999999,0.5673901947000001
10:22:19,-1.42069168,1.58493482,0.7536052,-0.4258573799999999,0.56214448,-0.18882748,25.98078774,-12.16867076,-34.400659839999996,-63.11352552,-0.9871434410000002,1.290293384,2.21419122,-0.5200258612,0.5079453568,0.5723190028
10:22:19,-1.42338104,1.586414835,0.7682313499999998,-0.4298577649999999,0.5638596899999999,-0.18717619000000002,25.985842845,-12.160823279999999,-34.39442327,-63.20353456000001,-0.9807097167500001,1.289638652,2.2241032350000003,-0.5219777061,0.5089082104,0.5772478109
10:22:19,-1.4260704,1.58789485,0.7828575,-0.4338581499999999,0.5655749,-0.1855249,25.99089795,-12.1529758,-34.3881867,-63.29354360000001,-0.9742759925000002,1.28898392,2.23401525,-0.523929551,0.5098710639999999,0.5821766190000001
10:22:19,-1.42875976,1.589374865,0.7974836499999998,-0.4378585349999999,0.56729011,-0.18387361000000002,25.995953055,-12.14512832,-34.38195013,-63.383552640000005,-0.9678422682500001,1.288329188,2.2439272650000004,-0.5258813959,0.5108339176,0.5871054271
10:22:19,-1.43144912,1.59085488,0.8121098,-0.44185892,0.5690053199999999,-0.18222232,26.00100816,-12.137280839999999,-34.37571356,-63.47356168,-0.9614085440000002,1.287674456,2.2538392800000002,-0.5278332408,0.5117967712,0.5920342352
10:22:19,-1.4341384799999999,1.592334895,0.8267359499999998,-0.445859305,0.57072053,-0.18057103000000002,26.006063265,-12.12943336,-34.369476989999995,-63.56357072,-0.9549748197500001,1.287019724,2.263751295,-0.5297850857,0.5127596247999999,0.5969630433
10:22:19,-1.4368278399999999,1.5938149099999999,0.8413621,-0.44985969,0.57243574,-0.17891974,26.01111837,-12.12158588,-34.36324042,-63.65357976,-0.9485410955,1.286364992,2.2736633100000003,-0.5317369306,0.5137224784,0.6018918514
10:22:19,-1.4395172,1.595294925,0.8559882499999998,-0.453860075,0.5741509499999999,-0.17726845000000002,26.016173475,-12.113738399999999,-34.35700385,-63.743588800000005,-0.9421073712500001,1.28571026,2.283575325,-0.5336887755,0.514685332,0.6068206595000001
10:22:19,-1.4422065599999998,1.59677494,0.8706144,-0.45786045999999997,0.57586616,-0.17561716,26.02122858,-12.10589092,-34.35076728,-63.83359784,-0.935673647,1.285055528,2.2934873400000004,-0.5356406204,0.5156481855999999,0.6117494676
10:22:19,-1.44489592,1.598254955,0.8852405499999998,-0.46186084499999996,0.57758137,-0.17396587000000002,26.026283685,-12.09804344,-34.34453071,-63.92360688000001,-0.9292399227500001,1.2844007960000001,2.3033993550000003,-0.5375924653,0.5166110392,0.6166782757
10:22:19,-1.44758528,1.59973497,0.8998667,-0.46586122999999996,0.57929658,-0.17231458,26.03133879,-12.090195959999999,-34.338294139999995,-64.01361592,-0.9228061985,1.283746064,2.31331137,-0.5395443102,0.5175738928,0.6216070838000001
10:22:19,-1.45027464,1.601214985,0.9144928499999998,-0.46986161499999995,0.5810117899999999,-0.17066329000000002,26.036393895,-12.08234848,-34.332057569999996,-64.10362496,-0.9163724742500001,1.2830913320000001,2.3232233850000004,-0.5414961551,0.5185367463999999,0.6265358919
10:22:20,-1.452964,1.602695,0.929119,-0.473862,0.582727,-0.169012,26.041449,-12.074501,-34.325821,-64.193634,-0.90993875,1.2824366,2.3331354,-0.543448,0.5194996,0.6314647
10:22:20,-1.4547759249999999,1.61218925,0.9440788,-0.469344925,0.582492625,-0.17123858,26.05767874,-12.093942225,-34.292907334999995,-64.20921633,-0.9035406566,1.287961572,2.3456923400000003,-0.5413208421000001,0.5204172486499999,0.6279816194
10:22:20,-1.45658785,1.6216835,0.9590386000000001,-0.46482785,0.58225825,-0.17346516,26.07390848,-12.113383449999999,-34.25999367,-64.22479866,-0.8971425632,1.293486544,2.3582492800000003,-0.5391936842,0.5213348972999999,0.6244985388
10:22:20,-1.458399775,1.63117775,0.9739984,-0.460310775,0.582023875,-0.17569173999999999,26.09013822,-12.132824675,-34.227080005,-64.24038099,-0.8907444698,1.299011516,2.3708062200000004,-0.5370665263000001,0.5222525459499999,0.6210154582
10:22:20,-1.4602117,1.640672,0.9889582,-0.4557937,0.5817895,-0.17791832,26.10636796,-12.1522659,-34.194166339999995,-64.25596332,-0.8843463764,1.304536488,2.38336316,-0.5349393684,0.5231701945999999,0.6175323776
10:22:20,-1.4620236249999998,1.65016625,1.003918,-0.451276625,0.581555125,-0.1801449,26.1225977,-12.171707125,-34.161252675,-64.27154565000001,-0.877948283,1.31006146,2.3959201,-0.5328122105,0.5240878432499999,0.614049297
10:22:20,-1.46383555,1.6596605,1.0188778,-0.44675955,0.5813207499999999,-0.18237148,26.13882744,-12.191148349999999,-34.12833901,-64.28712798000001,-0.8715501896,1.3155864320000001,2.40847704,-0.5306850526000001,0.5250054918999999,0.6105662164
10:22:20,-1.465647475,1.66915475,1.0338376,-0.442242475,0.581086375,-0.18459806,26.15505718,-12.210589575,-34.095425344999995,-64.30271031000001,-0.8651520962,1.321111404,2.4210339800000003,-0.5285578947,0.52592314055,0.6070831358
10:22:20,-1.4674593999999999,1.678649,1.0487974,-0.4377254,0.580852,-0.18682464,26.17128692,-12.2300308,-34.06251168,-64.31829264000001,-0.8587540028,1.326636376,2.4335909200000003,-0.5264307368000001,0.5268407892,0.6036000552
10:22:20,-1.469271325,1.68814325,1.0637572,-0.433208325,0.580617625,-0.18905122,26.18751666,-12.249472025,-34.029598015,-64.33387497,-0.8523559094000001,1.332161348,2.4461478600000004,-0.5243035789,0.52775843785,0.6001169746
10:22:20,-1.47108325,1.6976375,1.0787170000000001,-0.42869124999999997,0.58038325,-0.1912778,26.2037464,-12.268913249999999,-33.996684349999995,-64.3494573,-0.845957816,1.33768632,2.4587048,-0.5221764210000001,0.5286760865,0.596633894
10:22:20,-1.472895175,1.70713175,1.0936768000000001,-0.424174175,0.580148875,-0.19350438,26.21997614,-12.288354475,-33.963770685,-64.36503963,-0.8395597226,1.3432112920000001,2.47126174,-0.5200492631,0.52959373515,0.5931508134
10:22:20,-1.4747070999999998,1.716626,1.1086366,-0.4196571,0.5799145,-0.19573096,26.23620588,-12.3077957,-33.93085702,-64.38062196,-0.8331616292,1.348736264,2.48381868,-0.5179221052,0.5305113838,0.5896677328
10:22:20,-1.476519025,1.72612025,1.1235964,-0.415140025,0.579680125,-0.19795754,26.25243562,-12.327236925,-33.897943354999995,-64.39620429,-0.8267635358000001,1.3542612360000001,2.4963756200000002,-0.5157949473000001,0.53142903245,0.5861846522
10:22:20,-1.47833095,1.7356145,1.1385562,-0.41062295,0.57944575,-0.20018412,26.26866536,-12.346678149999999,-33.86502969,-64.41178662,-0.8203654424,1.359786208,2.5089325600000003,-0.5136677894,0.5323466810999999,0.5827015716
10:22:20,-1.4801428749999999,1.74510875,1.153516,-0.406105875,0.579211375,-0.2024107,26.2848951,-12.366119375,-33.832116025,-64.42736895,-0.813967349,1.36531118,2.5214895000000004,-0.5115406315000001,0.5332643297499999,0.579218491
10:22:20,-1.4819548,1.754603,1.1684758,-0.40158879999999997,0.578977,-0.20463728,26.30112484,-12.3855606,-33.799202359999995,-64.44295128,-0.8075692556,1.370836152,2.53404644,-0.5094134736,0.5341819783999999,0.5757354104
10:22:20,-1.483766725,1.76409725,1.1834356000000001,-0.397071725,0.578742625,-0.20686386,26.31735458,-12.405001825,-33.766288695,-64.45853361,-0.8011711622000001,1.376361124,2.54660338,-0.5072863157,0.5350996270499999,0.5722523298
10:22:20,-1.48557865,1.7735915,1.1983954,-0.39255465,0.57850825,-0.20909044,26.33358432,-12.424443049999999,-33.73337503,-64.47411594,-0.7947730688,1.3818860960000001,2.55916032,-0.5051591578000001,0.5360172756999999,0.5687692492
10:22:20,-1.487390575,1.78308575,1.2133552,-0.388037575,0.578273875,-0.21131702,26.34981406,-12.443884275,-33.700461364999995,-64.48969827,-0.7883749754,1.387411068,2.5717172600000002,-0.5030319999,0.53693492435,0.5652861686
10:22:20,-1.4892025,1.79258,1.228315,-0.3835205,0.5780395,-0.2135436,26.3660438,-12.4633255,-33.6675477,-64.5052806,-0.781976882,1.39293604,2.5842742000000003,-0.5009048420000001,0.537852573,0.561803088
10:22:20,-1.491014425,1.80207425,1.2432748,-0.379003425,0.577805125,-0.21577018,26.38227354,-12.482766725,-33.634634035,-64.52086293,-0.7755787886000001,1.398461012,2.59683114,-0.49877768410000006,0.53877022165,0.5583200074
10:22:20,-1.4928263499999999,1.8115685,1.2582346,-0.37448634999999997,0.57757075,-0.21799676,26.39850328,-12.502207949999999,-33.601720369999995,-64.53644526000001,-0.7691806952,1.403985984,2.60938808,-0.49665052620000005,0.5396878703,0.5548369268
10:22:20,-1.494638275,1.82106275,1.2731944,-0.369969275,0.577336375,-0.22022334,26.41473302,-12.521649175,-33.568806705,-64.55202759000001,-0.7627826018,1.409510956,2.62194502,-0.49452336830000004,0.54060551895,0.5513538462
10:22:20,-1.4964502,1.830557,1.2881542000000001,-0.3654522,0.577102,-0.22244992,26.43096276,-12.5410904,-33.53589304,-64.56760992000001,-0.7563845084,1.415035928,2.63450196,-0.49239621040000003,0.5415231676,0.5478707656
10:22:20,-1.498262125,1.84005125,1.303114,-0.360935125,0.576867625,-0.2246765,26.4471925,-12.560531625,-33.502979374999995,-64.58319225,-0.749986415,1.4205609,2.6470589,-0.4902690525,0.54244081625,0.544387685
10:22:20,-1.50007405,1.8495455,1.3180738,-0.35641805,0.57663325,-0.22690308,26.46342224,-12.579972849999999,-33.47006571,-64.59877458,-0.7435883216,1.426085872,2.6596158400000003,-0.4881418946,0.5433584649,0.5409046044
10:22:20,-1.501885975,1.85903975,1.3330336,-0.351900975,0.576398875,-0.22912966,26.47965198,-12.599414075,-33.437152045,-64.61435691,-0.7371902282,1.431610844,2.6721727800000004,-0.48601473670000006,0.5442761135499999,0.5374215238
10:22:20,-1.5036979,1.868534,1.3479934,-0.34738389999999997,0.5761645,-0.23135624,26.49588172,-12.6188553,-33.404238379999995,-64.62993924,-0.7307921348,1.437135816,2.68472972,-0.48388757880000005,0.5451937621999999,0.5339384432000001
10:22:20,-1.5055098249999999,1.87802825,1.3629532,-0.342866825,0.575930125,-0.23358282,26.51211146,-12.638296525,-33.371324715,-64.64552157,-0.7243940414000001,1.442660788,2.69728666,-0.48176042090000004,0.5461114108499999,0.5304553626
10:22:20,-1.50732175,1.8875225,1.377913,-0.33834975,0.57569575,-0.2358094,26.5283412,-12.657737749999999,-33.33841105,-64.6611039,-0.717995948,1.44818576,2.7098436,-0.47963326300000003,0.5470290594999999,0.526972282
10:22:20,-1.509133675,1.8970167500000001,1.3928728000000001,-0.333832675,0.5754613749999999,-0.23803597999999998,26.54457094,-12.677178975,-33.305497384999995,-64.67668623,-0.7115978546,1.453710732,2.72240054,-0.4775061051,0.5479467081499999,0.5234892014
10:22:20,-1.5109455999999999,1.906511,1.4078326,-0.3293156,0.575227,-0.24026256000000001,26.56080068,-12.6966202,-33.27258372,-64.69226856,-0.7051997612,1.4592357040000001,2.7349574800000003,-0.47537894720000007,0.5488643568,0.5200061208
10:22:20,-1.512757525,1.91600525,1.4227924,-0.32479852499999995,0.574992625,-0.24248914,26.57703042,-12.716061425,-33.239670055,-64.70785089,-0.6988016678,1.464760676,2.7475144200000003,-0.47325178930000006,0.54978200545,0.5165230402000001
10:22:20,-1.51456945,1.9254995,1.4377522,-0.32028144999999997,0.57475825,-0.24471572,26.59326016,-12.735502649999999,-33.206756389999995,-64.72343322,-0.6924035744,1.470285648,2.76007136,-0.47112463140000005,0.5506996541,0.5130399596
10:22:20,-1.516381375,1.93499375,1.452712,-0.315764375,0.574523875,-0.2469423,26.6094899,-12.754943875,-33.173842725,-64.73901555,-0.686005481,1.47581062,2.7726283,-0.46899747350000004,0.55161730275,0.509556879
10:22:20,-1.5181932999999999,1.944488,1.4676718000000002,-0.3112473,0.5742895,-0.24916887999999998,26.62571964,-12.7743851,-33.14092906,-64.75459788,-0.6796073876000001,1.481335592,2.78518524,-0.46687031560000003,0.5525349514,0.5060737984
10:22:20,-1.520005225,1.9539822500000001,1.4826316,-0.306730225,0.574055125,-0.25139546,26.64194938,-12.793826325,-33.108015394999995,-64.77018021,-0.6732092942000001,1.486860564,2.79774218,-0.4647431577,0.55345260005,0.5025907178
10:22:20,-1.52181715,1.9634765,1.4975914000000001,-0.30221315,0.57382075,-0.25362204,26.65817912,-12.813267549999999,-33.07510173,-64.78576254000001,-0.6668112008,1.492385536,2.8102991200000003,-0.4626159998,0.5543702487,0.4991076372
10:22:20,-1.5236290749999999,1.97297075,1.5125512,-0.29769607499999995,0.573586375,-0.25584861999999997,26.67440886,-12.832708775,-33.042188065,-64.80134487000001,-0.6604131074,1.497910508,2.8228560600000003,-0.46048884190000006,0.55528789735,0.4956245566
10:22:20,-1.525441,1.982465,1.527511,-0.29317899999999997,0.573352,-0.2580752,26.6906386,-12.85215,-33.009274399999995,-64.81692720000001,-0.6540150140000001,1.50343548,2.835413,-0.45836168400000005,0.5562055459999999,0.492141476
10:22:20,-1.527252925,1.99195925,1.5424708,-0.288661925,0.573117625,-0.26030178,26.70686834,-12.871591225,-32.976360735,-64.83250953000001,-0.6476169206,1.508960452,2.84796994,-0.45623452610000004,0.5571231946499999,0.4886583954
10:22:20,-1.52906485,2.0014535,1.5574306,-0.28414485,0.57288325,-0.26252836,26.72309808,-12.891032449999999,-32.94344707,-64.84809186,-0.6412188272,1.514485424,2.86052688,-0.45410736820000003,0.5580408432999999,0.4851753148
10:22:20,-1.5308767749999999,2.01094775,1.5723904000000002,-0.27962777499999997,0.572648875,-0.26475494,26.73932782,-12.910473674999999,-32.910533404999995,-64.86367419,-0.6348207338,1.520010396,2.87308382,-0.4519802103,0.5589584919499999,0.4816922342
10:22:20,-1.5326887,2.020442,1.5873502,-0.2751107,0.5724145,-0.26698151999999997,26.75555756,-12.9299149,-32.87761974,-64.87925652,-0.6284226404,1.525535368,2.8856407600000002,-0.44985305240000006,0.5598761405999999,0.4782091536
10:22:20,-1.534500625,2.02993625,1.6023100000000001,-0.27059362499999995,0.572180125,-0.2692081,26.7717873,-12.949356125,-32.844706075,-64.89483885,-0.6220245470000001,1.53106034,2.8981977,-0.44772589450000005,0.56079378925,0.474726073
10:22:20,-1.5363125499999999,2.0394305,1.6172698,-0.26607654999999997,0.57194575,-0.27143468,26.78801704,-12.96879735,-32.811792409999995,-64.91042118,-0.6156264536,1.5365853120000001,2.9107546400000004,-0.44559873660000004,0.5617114379,0.4712429924
10:22:20,-1.538124475,2.04892475,1.6322296,-0.261559475,0.571711375,-0.27366126,26.80424678,-12.988238575,-32.778878745,-64.92600351,-0.6092283602,1.542110284,2.92331158,-0.44347157870000004,0.56262908655,0.4677599118
10:22:20,-1.5399364,2.0584189999999998,1.6471894,-0.2570424,0.571477,-0.27588784,26.82047652,-13.0076798,-32.74596508,-64.94158584,-0.6028302668000001,1.547635256,2.93586852,-0.4413444208,0.5635467352,0.4642768312
10:22:20,-1.541748325,2.06791325,1.6621492,-0.25252532499999997,0.571242625,-0.27811442,26.83670626,-13.027121025,-32.713051414999995,-64.95716817,-0.5964321734,1.553160228,2.94842546,-0.43921726290000007,0.56446438385,0.4607937506
10:22:20,-1.54356025,2.0774075,1.6771090000000002,-0.24800824999999999,0.57100825,-0.280341,26.852936,-13.04656225,-32.68013775,-64.9727505,-0.59003408,1.5586852,2.9609824000000002,-0.437090105,0.5653820325,0.45731067000000003
10:22:20,-1.545372175,2.08690175,1.6920688,-0.24349117499999998,0.570773875,-0.28256758,26.86916574,-13.066003474999999,-32.647224085,-64.98833283,-0.5836359866,1.5642101720000001,2.9735393400000003,-0.43496294710000005,0.56629968115,0.4538275894
10:22:20,-1.5471841,2.096396,1.7070286000000001,-0.23897409999999997,0.5705395,-0.28479416,26.88539548,-13.0854447,-32.614310419999995,-65.00391516,-0.5772378932,1.569735144,2.98609628,-0.43283578920000004,0.5672173298,0.4503445088
10:22:20,-1.5489960249999999,2.10589025,1.7219884,-0.23445702499999999,0.570305125,-0.28702074,26.90162522,-13.104885925,-32.581396755,-65.01949749,-0.5708397998000001,1.575260116,2.99865322,-0.43070863130000003,0.5681349784499999,0.44686142819999997
10:22:20,-1.55080795,2.1153845000000002,1.7369482,-0.22993994999999998,0.57007075,-0.28924732,26.91785496,-13.12432715,-32.54848309,-65.03507982,-0.5644417064,1.580785088,3.01121016,-0.4285814734,0.5690526270999999,0.4433783476
10:22:20,-1.552619875,2.12487875,1.751908,-0.22542287499999997,0.569836375,-0.2914739,26.9340847,-13.143768374999999,-32.515569424999995,-65.05066215000001,-0.558043613,1.58631006,3.0237671,-0.4264543155,0.5699702757499999,0.43989526700000003
10:22:20,-1.5544318,2.134373,1.7668678,-0.22090579999999999,0.5696019999999999,-0.29370048,26.95031444,-13.1632096,-32.48265576,-65.06624448000001,-0.5516455196000001,1.591835032,3.0363240400000002,-0.42432715760000006,0.5708879244,0.4364121864
10:22:20,-1.556243725,2.14386725,1.7818276000000002,-0.21638872499999995,0.569367625,-0.29592706,26.96654418,-13.182650825,-32.449742095,-65.08182681000001,-0.5452474262,1.597360004,3.0488809800000003,-0.42219999970000005,0.57180557305,0.4329291058
10:22:20,-1.55805565,2.1533615,1.7967874,-0.21187164999999997,0.56913325,-0.29815364,26.98277392,-13.20209205,-32.416828429999995,-65.09740914000001,-0.5388493328,1.602884976,3.0614379200000004,-0.42007284180000004,0.5727232217,0.42944602519999997
10:22:20,-1.559867575,2.1628557500000003,1.8117472000000001,-0.20735457499999999,0.568898875,-0.30038022,26.99900366,-13.221533274999999,-32.383914765,-65.11299147,-0.5324512394,1.608409948,3.07399486,-0.41794568390000003,0.57364087035,0.4259629446
10:22:20,-1.5616794999999999,2.17235,1.826707,-0.20283749999999995,0.5686645,-0.3026068,27.0152334,-13.2409745,-32.3510011,-65.1285738,-0.526053146,1.61393492,3.0865518,-0.415818526,0.574558519,0.42247986400000004
10:22:20,-1.563491425,2.18184425,1.8416668,-0.19832042499999997,0.568430125,-0.30483338000000004,27.03146314,-13.260415725,-32.318087434999995,-65.14415613,-0.5196550526000001,1.619459892,3.09910874,-0.41369136810000007,0.57547616765,0.4189967834
10:22:20,-1.56530335,2.1913385,1.8566266,-0.19380334999999999,0.56819575,-0.30705996,27.04769288,-13.27985695,-32.28517377,-65.15973846,-0.5132569592,1.624984864,3.11166568,-0.4115642102,0.5763938163,0.4155137028
10:22:20,-1.567115275,2.20083275,1.8715864,-0.18928627499999995,0.567961375,-0.30928654,27.06392262,-13.299298174999999,-32.252260105,-65.17532079,-0.5068588658000001,1.6305098359999999,3.1242226200000003,-0.40943705230000005,0.57731146495,0.4120306222
10:22:20,-1.5689272,2.210327,1.8865462000000002,-0.18476919999999997,0.567727,-0.31151312,27.08015236,-13.3187394,-32.219346439999995,-65.19090312,-0.5004607724000001,1.636034808,3.13677956,-0.40730989440000004,0.5782291136,0.4085475416
10:22:20,-1.570739125,2.21982125,1.901506,-0.18025212499999999,0.567492625,-0.3137397,27.0963821,-13.338180625,-32.186432775,-65.20648545,-0.494062679,1.6415597800000001,3.1493365,-0.40518273650000003,0.57914676225,0.40506446100000004
10:22:20,-1.57255105,2.2293155000000002,1.9164658,-0.17573504999999995,0.56725825,-0.31596628000000004,27.11261184,-13.35762185,-32.15351911,-65.22206778,-0.48766458560000003,1.647084752,3.16189344,-0.4030555786000001,0.5800644108999999,0.4015813804
10:22:20,-1.5743629749999999,2.23880975,1.9314256,-0.17121797499999997,0.567023875,-0.31819286,27.12884158,-13.377063074999999,-32.120605444999995,-65.23765011,-0.4812664922,1.652609724,3.17445038,-0.4009284207,0.5809820595499999,0.3980982998
10:22:20,-1.5761749,2.248304,1.9463854,-0.16670089999999999,0.5667895,-0.32041944,27.14507132,-13.3965043,-32.08769178,-65.25323244,-0.47486839880000004,1.658134696,3.18700732,-0.39880126280000006,0.5818997081999999,0.3946152192
10:22:20,-1.577986825,2.25779825,1.9613452,-0.16218382499999995,0.566555125,-0.32264602,27.16130106,-13.415945525,-32.054778115,-65.26881477,-0.4684703054,1.663659668,3.1995642600000003,-0.39667410490000005,0.5828173568499999,0.3911321386
10:22:20,-1.57979875,2.2672925,1.976305,-0.15766674999999997,0.56632075,-0.3248726,27.1775308,-13.43538675,-32.021864449999995,-65.2843971,-0.46207221200000004,1.66918464,3.2121212000000003,-0.39454694700000004,0.5837350055,0.38764905800000005
10:22:20,-1.581610675,2.2767867500000003,1.9912648000000002,-0.15314967499999999,0.566086375,-0.32709918000000004,27.19376054,-13.454827974999999,-31.988950785,-65.29997943000001,-0.4556741186,1.674709612,3.22467814,-0.3924197891,0.58465265415,0.3841659774
10:22:20,-1.5834226,2.286281,2.0062246000000004,-0.14863259999999995,0.565852,-0.32932576,27.20999028,-13.4742692,-31.956037119999998,-65.31556176000001,-0.44927602520000004,1.680234584,3.23723508,-0.3902926312,0.5855703028,0.3806828968
10:22:20,-1.585234525,2.29577525,2.0211844,-0.14411552499999997,0.565617625,-0.33155234,27.22622002,-13.493710425,-31.923123455,-65.33114409000001,-0.4428779318,1.685759556,3.24979202,-0.38816547330000006,0.58648795145,0.37719981620000004
10:22:20,-1.5870464499999999,2.3052695,2.0361442,-0.13959844999999999,0.56538325,-0.33377892,27.24244976,-13.51315165,-31.89020979,-65.34672642000001,-0.43647983840000004,1.691284528,3.26234896,-0.3860383154,0.5874056001,0.3737167356
10:22:20,-1.588858375,2.31476375,2.051104,-0.13508137499999995,0.565148875,-0.3360055,27.2586795,-13.532592874999999,-31.857296124999998,-65.36230875000001,-0.430081745,1.6968095,3.2749059000000003,-0.38391115750000004,0.58832324875,0.370233655
10:22:20,-1.5906703,2.324258,2.0660638000000002,-0.13056429999999997,0.5649145,-0.33823208000000005,27.27490924,-13.5520341,-31.82438246,-65.37789108,-0.42368365160000004,1.702334472,3.28746284,-0.38178399960000003,0.5892408974,0.36675057440000003
10:22:20,-1.592482225,2.33375225,2.0810236,-0.12604722499999998,0.564680125,-0.34045866,27.29113898,-13.571475325,-31.791468795,-65.39347341,-0.4172855582,1.707859444,3.30001978,-0.3796568417,0.59015854605,0.3632674938
10:22:20,-1.59429415,2.3432465000000002,2.0959834,-0.12153014999999995,0.56444575,-0.34268524,27.30736872,-13.59091655,-31.758555129999998,-65.40905574,-0.41088746480000005,1.713384416,3.31257672,-0.37752968380000007,0.5910761947,0.3597844132
10:22:20,-1.596106075,2.35274075,2.1109432000000004,-0.11701307499999997,0.564211375,-0.34491182,27.32359846,-13.610357774999999,-31.725641465,-65.42463807,-0.4044893714000001,1.718909388,3.32513366,-0.3754025259,0.5919938433499999,0.3563013326
10:22:20,-1.597918,2.362235,2.125903,-0.11249599999999993,0.563977,-0.3471384,27.3398282,-13.629798999999998,-31.6927278,-65.4402204,-0.398091278,1.72443436,3.3376906,-0.37327536800000005,0.5929114919999999,0.352818252
10:22:20,-1.599729925,2.37172925,2.1408628,-0.10797892499999995,0.5637426249999999,-0.34936498000000005,27.35605794,-13.649240225,-31.659814134999998,-65.45580273,-0.3916931846,1.729959332,3.35024754,-0.37114821010000004,0.59382914065,0.34933517140000003
10:22:20,-1.60154185,2.3812235,2.1558226,-0.10346184999999997,0.56350825,-0.35159156,27.37228768,-13.66868145,-31.62690047,-65.47138506,-0.38529509120000005,1.7354843039999999,3.3628044800000003,-0.36902105220000003,0.5947467893,0.3458520908
10:22:20,-1.603353775,2.3907177500000003,2.1707824000000002,-0.09894477499999993,0.563273875,-0.35381814,27.38851742,-13.688122674999999,-31.593986805,-65.48696739,-0.3788969978000001,1.741009276,3.37536142,-0.3668938943000001,0.59566443795,0.3423690102
10:22:20,-1.6051657,2.400212,2.1857422,-0.09442769999999995,0.5630395,-0.35604472,27.40474716,-13.7075639,-31.561073139999998,-65.50254972,-0.3724989044,1.7465342480000001,3.38791836,-0.3647667364,0.5965820866,0.3388859296
10:22:20,-1.606977625,2.40970625,2.200702,-0.08991062499999997,0.562805125,-0.3582713,27.4209769,-13.727005125,-31.528159475,-65.51813205,-0.366100811,1.75205922,3.4004753,-0.36263957850000006,0.59749973525,0.335402849
10:22:20,-1.60878955,2.4192005,2.2156618000000003,-0.08539354999999993,0.56257075,-0.36049788000000005,27.43720664,-13.74644635,-31.49524581,-65.53371438,-0.35970271760000005,1.757584192,3.41303224,-0.36051242060000005,0.5984173839,0.33191976840000004
10:22:20,-1.610601475,2.42869475,2.2306216,-0.08087647499999995,0.562336375,-0.36272446,27.45343638,-13.765887574999999,-31.462332144999998,-65.54929671000001,-0.3533046242000001,1.763109164,3.4255891800000002,-0.35838526270000004,0.59933503255,0.3284366878
10:22:20,-1.6124133999999999,2.438189,2.2455814,-0.07635939999999997,0.562102,-0.36495104,27.46966612,-13.785328799999998,-31.42941848,-65.56487904000001,-0.3469065308,1.768634136,3.43814612,-0.35625810480000003,0.6002526812,0.3249536072
10:22:20,-1.614225325,2.44768325,2.2605412,-0.07184232499999993,0.561867625,-0.36717762,27.48589586,-13.804770025,-31.396504815,-65.58046137000001,-0.34050843740000003,1.774159108,3.4507030600000004,-0.3541309469,0.60117032985,0.32147052660000003
10:22:20,-1.61603725,2.4571775000000002,2.275501,-0.06732524999999995,0.56163325,-0.3694042,27.5021256,-13.82421125,-31.363591149999998,-65.59604370000001,-0.33411034400000006,1.77968408,3.46326,-0.35200378900000007,0.6020879785,0.317987446
10:22:20,-1.617849175,2.46667175,2.2904608,-0.06280817499999997,0.561398875,-0.37163078000000005,27.51835534,-13.843652474999999,-31.330677485,-65.61162603000001,-0.3277122506000001,1.785209052,3.47581694,-0.3498766311,0.60300562715,0.31450436540000004
10:22:20,-1.6196611,2.476166,2.3054206,-0.05829109999999993,0.5611645,-0.37385736,27.53458508,-13.8630937,-31.29776382,-65.62720836,-0.3213141572,1.790734024,3.48837388,-0.34774947320000005,0.6039232757999999,0.3110212848
10:22:20,-1.621473025,2.48566025,2.3203804000000003,-0.05377402499999995,0.560930125,-0.37608394,27.55081482,-13.882534925,-31.264850154999998,-65.64279069,-0.31491606380000003,1.796258996,3.5009308199999998,-0.34562231530000004,0.6048409244499999,0.3075382042
10:22:20,-1.62328495,2.4951545,2.3353402,-0.049256949999999966,0.56069575,-0.37831052,27.56704456,-13.90197615,-31.23193649,-65.65837302,-0.30851797040000006,1.801783968,3.5134877600000003,-0.34349515740000003,0.6057585730999999,0.30405512360000003
10:22:20,-1.625096875,2.5046487500000003,2.3503,-0.04473987499999993,0.560461375,-0.3805371,27.5832743,-13.921417374999999,-31.199022825,-65.67395535,-0.3021198770000001,1.80730894,3.5260447,-0.3413679995000001,0.60667622175,0.300572043
10:22:20,-1.6269088,2.514143,2.3652598,-0.04022279999999995,0.560227,-0.38276368,27.59950404,-13.940858599999999,-31.166109159999998,-65.68953768,-0.2957217836,1.8128339119999999,3.53860164,-0.3392408416,0.6075938704,0.29708896240000005
10:22:20,-1.628720725,2.52363725,2.3802196,-0.035705724999999966,0.559992625,-0.38499026000000003,27.61573378,-13.960299825,-31.133195495,-65.70512001,-0.28932369020000004,1.818358884,3.55115858,-0.33711368370000006,0.60851151905,0.2936058818
10:22:20,-1.63053265,2.5331315,2.3951794,-0.03118864999999993,0.55975825,-0.38721684,27.63196352,-13.97974105,-31.10028183,-65.72070234,-0.28292559680000007,1.8238838560000001,3.56371552,-0.33498652580000005,0.6094291677,0.2901228012
10:22:20,-1.632344575,2.54262575,2.4101392,-0.026671574999999947,0.559523875,-0.38944342,27.64819326,-13.999182274999999,-31.067368164999998,-65.73628467,-0.2765275034,1.829408828,3.57627246,-0.33285936790000004,0.61034681635,0.28663972060000004
10:22:20,-1.6341565,2.55212,2.4250990000000003,-0.022154499999999966,0.5592895,-0.39167,27.664423,-14.018623499999999,-31.0344545,-65.751867,-0.27012941,1.8349338,3.5888294,-0.33073221,0.611264465,0.28315664
10:22:20,-1.635968425,2.56161425,2.4400588,-0.01763742499999993,0.559055125,-0.39389658,27.68065274,-14.038064725,-31.001540835,-65.76744933,-0.26373131660000004,1.8404587719999999,3.6013863400000004,-0.3286050521,0.61218211365,0.2796735594
10:22:20,-1.63778035,2.5711085000000002,2.4550186,-0.013120349999999947,0.55882075,-0.39612316000000003,27.69688248,-14.05750595,-30.968627169999998,-65.78303166,-0.25733322320000007,1.845983744,3.61394328,-0.32647789420000006,0.6130997623,0.2761904788
10:22:20,-1.639592275,2.58060275,2.4699784,-0.008603274999999966,0.558586375,-0.39834974,27.71311222,-14.076947174999999,-30.935713505,-65.79861399,-0.2509351298,1.851508716,3.62650022,-0.3243507363,0.61401741095,0.2727073982
10:22:20,-1.6414042,2.590097,2.4849382,-0.004086199999999929,0.558352,-0.40057632,27.72934196,-14.096388399999999,-30.90279984,-65.81419632000001,-0.24453703640000002,1.857033688,3.63905716,-0.32222357840000004,0.6149350596,0.26922431760000004
10:22:20,-1.643216125,2.59959125,2.499898,0.00043087500000005274,0.558117625,-0.4028029,27.7455717,-14.115829625,-30.869886174999998,-65.82977865000001,-0.23813894300000005,1.86255866,3.6516141,-0.32009642050000003,0.6158527082499999,0.265741237
10:22:20,-1.64502805,2.6090855,2.5148578,0.004947950000000034,0.5578832499999999,-0.40502948,27.76180144,-14.13527085,-30.83697251,-65.84536098000001,-0.23174084960000008,1.8680836319999998,3.6641710400000003,-0.3179692626,0.6167703569,0.2622581564
10:22:20,-1.646839975,2.6185797500000003,2.5298176000000003,0.009465025000000071,0.557648875,-0.40725606000000003,27.77803118,-14.154712074999999,-30.804058845,-65.86094331000001,-0.2253427562,1.873608604,3.67672798,-0.31584210470000007,0.61768800555,0.25877507580000003
10:22:20,-1.6486519,2.628074,2.5447774,0.013982100000000053,0.5574145,-0.40948264,27.79426092,-14.174153299999999,-30.771145179999998,-65.87652564000001,-0.21894466280000002,1.879133576,3.6892849200000004,-0.3137149468,0.6186056542,0.2552919952
10:22:20,-1.650463825,2.63756825,2.5597372,0.018499175000000034,0.557180125,-0.41170922,27.81049066,-14.193594524999998,-30.738231515,-65.89210797,-0.21254656940000005,1.884658548,3.70184186,-0.31158778890000005,0.61952330285,0.25180891460000004
10:22:20,-1.65227575,2.6470625,2.574697,0.02301625000000007,0.55694575,-0.4139358,27.8267204,-14.21303575,-30.70531785,-65.9076903,-0.20614847600000008,1.89018352,3.7143988,-0.30946063100000004,0.6204409515,0.24832583400000002
10:22:20,-1.654087675,2.65655675,2.5896568,0.027533325000000053,0.556711375,-0.41616238,27.84295014,-14.232476974999999,-30.672404184999998,-65.92327263,-0.1997503826,1.895708492,3.72695574,-0.30733347310000003,0.62135860015,0.2448427534
10:22:20,-1.6558996000000001,2.6660510000000004,2.6046166,0.032050400000000034,0.556477,-0.41838896000000003,27.85917988,-14.251918199999999,-30.63949052,-65.93885496,-0.19335228920000003,1.901233464,3.73951268,-0.3052063152,0.6222762488,0.24135967280000004
10:22:20,-1.657711525,2.67554525,2.6195764,0.036567475000000016,0.556242625,-0.42061554,27.87540962,-14.271359425,-30.606576855,-65.95443729,-0.18695419580000006,1.906758436,3.7520696200000003,-0.3030791573,0.62319389745,0.23787659220000001
10:22:20,-1.65952345,2.6850395000000002,2.6345362000000003,0.04108455000000011,0.55600825,-0.42284212,27.89163936,-14.29080065,-30.573663189999998,-65.97001962,-0.18055610240000008,1.912283408,3.76462656,-0.30095199940000006,0.6241115461,0.23439351160000005
10:22:20,-1.661335375,2.69453375,2.649496,0.04560162500000009,0.555773875,-0.4250687,27.9078691,-14.310241875,-30.540749525,-65.98560195,-0.174158009,1.9178083799999999,3.7771835,-0.29882484150000005,0.62502919475,0.23091043100000003
10:22:20,-1.6631473,2.704028,2.6644558,0.05011870000000007,0.5555395,-0.42729528,27.92409884,-14.329683099999999,-30.50783586,-66.00118428,-0.16775991560000003,1.923333352,3.78974044,-0.29669768360000004,0.6259468434,0.2274273504
10:22:20,-1.664959225,2.71352225,2.6794156,0.05463577500000005,0.555305125,-0.42952186000000003,27.94032858,-14.349124324999998,-30.474922194999998,-66.01676661,-0.16136182220000006,1.9288583240000001,3.80229738,-0.29457052570000003,0.6268644920499999,0.22394426980000004
10:22:20,-1.66677115,2.7230165,2.6943754,0.059152850000000035,0.55507075,-0.43174844,27.95655832,-14.36856555,-30.44200853,-66.03234894,-0.1549637288000001,1.934383296,3.8148543200000002,-0.2924433678,0.6277821406999999,0.22046118920000002
10:22:20,-1.668583075,2.7325107500000003,2.7093352,0.06366992500000002,0.554836375,-0.43397502,27.97278806,-14.388006775,-30.409094865,-66.04793127,-0.1485656354,1.939908268,3.82741126,-0.2903162099,0.6286997893499999,0.2169781086
10:22:20,-1.670395,2.742005,2.724295,0.06818700000000011,0.554602,-0.4362016,27.9890178,-14.407447999999999,-30.376181199999998,-66.06351360000001,-0.14216754200000004,1.9454332399999998,3.8399682000000004,-0.28818905200000006,0.629617438,0.21349502800000003
10:22:20,-1.672206925,2.75149925,2.7392548000000003,0.07270407500000009,0.554367625,-0.43842818,28.00524754,-14.426889225,-30.343267535,-66.07909593000001,-0.13576944860000006,1.950958212,3.85252514,-0.28606189410000005,0.63053508665,0.2100119474
10:22:20,-1.67401885,2.7609935,2.7542146,0.07722115000000007,0.55413325,-0.44065476000000003,28.02147728,-14.44633045,-30.31035387,-66.09467826000001,-0.1293713552000001,1.956483184,3.86508208,-0.28393473620000004,0.6314527353,0.20652886680000004
10:22:20,-1.675830775,2.77048775,2.7691744,0.08173822500000005,0.553898875,-0.44288134,28.03770702,-14.465771675,-30.277440204999998,-66.11026059000001,-0.12297326180000001,1.962008156,3.87763902,-0.28180757830000003,0.63237038395,0.20304578620000002
10:22:20,-1.6776427,2.7799820000000004,2.7841342,0.08625530000000003,0.5536645,-0.44510792,28.05393676,-14.485212899999999,-30.24452654,-66.12584292000001,-0.11657516840000004,1.967533128,3.89019596,-0.2796804204,0.6332880326,0.1995627056
10:22:20,-1.679454625,2.78947625,2.799094,0.09077237500000002,0.553430125,-0.4473345,28.0701665,-14.504654124999998,-30.211612875,-66.14142525,-0.11017707500000007,1.9730580999999998,3.9027529000000003,-0.2775532625,0.63420568125,0.19607962500000004
10:22:20,-1.6812665500000001,2.7989705000000002,2.8140538,0.09528945000000011,0.55319575,-0.44956108,28.08639624,-14.52409535,-30.178699209999998,-66.15700758,-0.1037789816000001,1.978583072,3.91530984,-0.27542610460000005,0.6351233299,0.1925965444
10:22:20,-1.683078475,2.80846475,2.8290136,0.09980652500000009,0.552961375,-0.45178766000000004,28.10262598,-14.543536575,-30.145785545,-66.17258991,-0.09738088820000002,1.984108044,3.92786678,-0.27329894670000004,0.63604097855,0.18911346380000005
10:22:20,-1.6848904,2.817959,2.8439734000000003,0.10432360000000007,0.552727,-0.45401424,28.11885572,-14.562977799999999,-30.11287188,-66.18817224,-0.09098279480000004,1.989633016,3.94042372,-0.27117178880000004,0.6369586272,0.18563038320000003
10:22:20,-1.686702325,2.82745325,2.8589332,0.10884067500000005,0.552492625,-0.45624082,28.13508546,-14.582419025,-30.079958214999998,-66.20375457,-0.08458470140000007,1.9951579879999999,3.95298066,-0.2690446309,0.63787627585,0.1821473026
10:22:20,-1.68851425,2.8369475,2.873893,0.11335775000000003,0.55225825,-0.4584674,28.1513152,-14.60186025,-30.04704455,-66.2193369,-0.07818660799999999,2.00068296,3.9655376,-0.266917473,0.6387939244999999,0.17866422200000004
10:22:20,-1.690326175,2.8464417500000003,2.8888528,0.11787482500000013,0.5520238749999999,-0.46069398,28.16754494,-14.621301475,-30.014130885,-66.23491923,-0.07178851460000002,2.006207932,3.97809454,-0.26479031510000006,0.63971157315,0.17518114140000002
10:22:20,-1.6921381,2.855936,2.9038126,0.12239190000000011,0.5517895,-0.46292056000000004,28.18377468,-14.640742699999999,-29.981217219999998,-66.25050156,-0.06539042120000005,2.011732904,3.9906514800000004,-0.26266315720000005,0.6406292218,0.17169806080000005
10:22:20,-1.6939500250000001,2.86543025,2.9187724,0.1269089750000001,0.551555125,-0.46514714,28.20000442,-14.660183924999998,-29.948303555,-66.26608389,-0.05899232780000008,2.017257876,4.00320842,-0.26053599930000004,0.64154687045,0.16821498020000003
10:22:20,-1.69576195,2.8749245,2.9337322,0.13142605000000007,0.55132075,-0.46737372,28.21623416,-14.67962515,-29.91538989,-66.28166622,-0.052594234399999995,2.022782848,4.01576536,-0.25840884140000003,0.6424645191,0.1647318996
10:22:20,-1.697573875,2.88441875,2.9486920000000003,0.13594312500000005,0.551086375,-0.4696003,28.2324639,-14.699066375,-29.882476224999998,-66.29724855,-0.046196141000000024,2.02830782,4.0283223,-0.2562816835,0.64338216775,0.16124881900000004
10:22:20,-1.6993858,2.8939130000000004,2.9636518,0.14046020000000004,0.550852,-0.47182688,28.24869364,-14.718507599999999,-29.84956256,-66.31283088,-0.03979804760000005,2.033832792,4.04087924,-0.2541545256,0.6442998164,0.15776573840000002
10:22:20,-1.701197725,2.90340725,2.9786116000000002,0.14497727500000013,0.550617625,-0.47405346000000004,28.26492338,-14.737948825,-29.816648895,-66.32841321000001,-0.03339995420000008,2.039357764,4.05343618,-0.25202736770000006,0.64521746505,0.15428265780000006
10:22:20,-1.70300965,2.9129015000000003,2.9935714,0.1494943500000001,0.55038325,-0.47628004,28.28115312,-14.75739005,-29.783735229999998,-66.34399554000001,-0.0270018608,2.044882736,4.06599312,-0.24990020980000005,0.6461351137,0.15079957720000003
10:22:20,-1.704821575,2.92239575,3.0085312,0.1540114250000001,0.550148875,-0.47850662,28.29738286,-14.776831275,-29.750821565,-66.35957787000001,-0.020603767400000028,2.050407708,4.0785500599999995,-0.24777305190000004,0.64705276235,0.1473164966
10:22:20,-1.7066335000000001,2.93189,3.023491,0.15852850000000007,0.5499145,-0.4807332,28.3136126,-14.796272499999999,-29.7179079,-66.37516020000001,-0.014205674000000057,2.0559326799999997,4.091107,-0.24564589400000003,0.647970411,0.14383341600000005
10:22:20,-1.708445425,2.94138425,3.0384508,0.16304557500000005,0.549680125,-0.48295978,28.32984234,-14.815713724999998,-29.684994234999998,-66.39074253000001,-0.007807580600000086,2.061457652,4.103663940000001,-0.24351873610000002,0.64888805965,0.14035033540000003
10:22:20,-1.71025735,2.9508785,3.0534106000000003,0.16756265000000004,0.54944575,-0.48518636000000004,28.34607208,-14.83515495,-29.65208057,-66.40632486,-0.0014094872000000036,2.066982624,4.11622088,-0.2413915782,0.6498057083,0.1368672548
10:22:20,-1.7120692750000002,2.9603727500000003,3.0683704,0.17207972500000013,0.549211375,-0.48741294,28.36230182,-14.854596175,-29.619166905,-66.42190719,0.004988606199999968,2.072507596,4.12877782,-0.23926442030000006,0.6507233569499999,0.13338417420000004
10:22:20,-1.7138812,2.969867,3.0833302000000002,0.1765968000000001,0.548977,-0.48963952,28.37853156,-14.874037399999999,-29.586253239999998,-66.43748952,0.011386699599999939,2.0780325680000002,4.14133476,-0.23713726240000005,0.6516410055999999,0.12990109360000002
10:22:20,-1.715693125,2.97936125,3.09829,0.1811138750000001,0.548742625,-0.49186610000000003,28.3947613,-14.893478625,-29.553339575,-66.45307185,0.01778479299999991,2.08355754,4.1538917,-0.23501010450000004,0.6525586542499999,0.126418013
10:22:20,-1.71750505,2.9888555,3.1132498,0.18563095000000007,0.54850825,-0.49409268,28.41099104,-14.91291985,-29.52042591,-66.46865418,0.024182886399999992,2.089082512,4.1664486400000005,-0.23288294660000003,0.6534763029,0.12293493240000009
10:22:20,-1.7193169750000001,2.99834975,3.1282096,0.19014802500000005,0.548273875,-0.49631926000000004,28.42722078,-14.932361075,-29.487512244999998,-66.48423651,0.030580979799999963,2.094607484,4.17900558,-0.23075578870000002,0.65439395155,0.11945185180000006
10:22:20,-1.7211289,3.0078440000000004,3.1431694,0.19466510000000004,0.5480395,-0.49854584,28.44345052,-14.951802299999999,-29.45459858,-66.49981884,0.036979073199999934,2.100132456,4.19156252,-0.2286286308,0.6553116002,0.11596877120000004
10:22:20,-1.722940825,3.01733825,3.1581292000000003,0.19918217500000013,0.547805125,-0.50077242,28.45968026,-14.971243524999998,-29.421684915,-66.51540117,0.043377166599999906,2.1056574279999998,4.20411946,-0.22650147290000006,0.65622924885,0.11248569060000002
10:22:20,-1.72475275,3.0268325000000003,3.173089,0.2036992500000001,0.54757075,-0.502999,28.47591,-14.99068475,-29.388771249999998,-66.5309835,0.04977525999999999,2.1111824,4.2166764,-0.22437431500000005,0.6571468975,0.10900261
10:22:20,-1.726564675,3.03632675,3.1880488000000002,0.2082163250000001,0.547336375,-0.5052255800000001,28.49213974,-15.010125975,-29.355857585,-66.54656583,0.05617335339999996,2.116707372,4.22923334,-0.22224715710000004,0.65806454615,0.10551952939999998
10:22:20,-1.7283766,3.045821,3.2030086,0.21273340000000007,0.547102,-0.50745216,28.50836948,-15.029567199999999,-29.32294392,-66.56214816,0.06257144679999993,2.122232344,4.24179028,-0.22011999920000003,0.6589821948,0.10203644880000007
10:22:20,-1.730188525,3.05531525,3.2179684,0.21725047500000005,0.546867625,-0.50967874,28.52459922,-15.049008424999998,-29.290030254999998,-66.57773049000001,0.0689695401999999,2.127757316,4.25434722,-0.21799284130000002,0.65989984345,0.09855336820000005
10:22:20,-1.7320004500000001,3.0648095,3.2329282,0.22176755000000004,0.54663325,-0.51190532,28.54082896,-15.068449649999998,-29.25711659,-66.59331282000001,0.07536763359999998,2.133282288,4.26690416,-0.2158656834,0.6608174921,0.09507028760000003
10:22:20,-1.733812375,3.0743037500000003,3.247888,0.22628462500000013,0.546398875,-0.5141319,28.5570587,-15.087890875,-29.224202925,-66.60889515000001,0.08176572699999995,2.13880726,4.2794611,-0.21373852550000005,0.6617351407500001,0.091587207
10:22:20,-1.7356243,3.083798,3.2628478000000003,0.2308017000000001,0.5461644999999999,-0.5163584800000001,28.57328844,-15.107332099999999,-29.191289259999998,-66.62447748000001,0.08816382039999993,2.144332232,4.29201804,-0.21161136760000004,0.6626527894,0.08810412639999998
10:22:20,-1.7374362250000002,3.09329225,3.2778076,0.2353187750000001,0.545930125,-0.51858506,28.58951818,-15.126773324999998,-29.158375595,-66.64005981000001,0.09456191380000001,2.149857204,4.30457498,-0.20948420970000003,0.66357043805,0.08462104580000007
10:22:20,-1.73924815,3.1027865,3.2927674000000002,0.23983585000000007,0.54569575,-0.52081164,28.60574792,-15.14621455,-29.12546193,-66.65564214,0.10096000719999987,2.155382176,4.31713192,-0.20735705180000003,0.6644880867,0.08113796520000005
10:22:20,-1.741060075,3.11228075,3.3077272,0.24435292500000005,0.545461375,-0.52303822,28.62197766,-15.165655775,-29.092548264999998,-66.67122447,0.10735810059999995,2.1609071479999997,4.32968886,-0.20522989390000002,0.66540573535,0.07765488460000003
10:22:20,-1.7428720000000002,3.1217750000000004,3.322687,0.24887000000000015,0.545227,-0.5252648,28.6382074,-15.185096999999999,-29.0596346,-66.6868068,0.11375619400000003,2.16643212,4.342245800000001,-0.20310273600000006,0.666323384,0.07417180400000001
10:22:20,-1.7446839250000001,3.13126925,3.3376468,0.25338707500000013,0.544992625,-0.5274913800000001,28.65443714,-15.204538224999999,-29.026720935,-66.70238913,0.12015428739999989,2.171957092,4.35480274,-0.20097557810000005,0.66724103265,0.07068872339999999
10:22:20,-1.74649585,3.1407635000000003,3.3526066,0.2579041500000001,0.54475825,-0.52971796,28.67066688,-15.223979449999998,-28.993807269999998,-66.71797146,0.12655238079999998,2.177482064,4.36735968,-0.19884842020000004,0.6681586813,0.06720564280000008
10:22:20,-1.748307775,3.15025775,3.3675664000000003,0.2624212250000001,0.544523875,-0.53194454,28.68689662,-15.243420675,-28.960893605,-66.73355379,0.13295047420000006,2.1830070360000002,4.3799166199999995,-0.19672126230000003,0.66907632995,0.06372256220000005
10:22:20,-1.7501197,3.159752,3.3825262,0.2669383000000001,0.5442895,-0.53417112,28.70312636,-15.262861899999999,-28.92797994,-66.74913612,0.13934856759999992,2.188532008,4.39247356,-0.19459410440000002,0.6699939786,0.06023948160000003
10:22:20,-1.751931625,3.16924625,3.3974860000000002,0.27145537500000005,0.544055125,-0.5363977,28.7193561,-15.282303124999999,-28.895066274999998,-66.76471845,0.145746661,2.19405698,4.4050305000000005,-0.1924669465,0.67091162725,0.05675640100000001
10:22:20,-1.75374355,3.1787405,3.4124458,0.27597245000000015,0.54382075,-0.5386242800000001,28.73558584,-15.30174435,-28.86215261,-66.78030078,0.15214475439999986,2.199581952,4.41758744,-0.19033978860000006,0.6718292759,0.05327332039999999
10:22:20,-1.755555475,3.1882347500000003,3.4274056,0.28048952500000013,0.543586375,-0.54085086,28.75181558,-15.321185575,-28.829238945,-66.79588311,0.15854284779999994,2.205106924,4.43014438,-0.18821263070000005,0.67274692455,0.04979023980000008
10:22:20,-1.7573674000000001,3.197729,3.4423654,0.2850066000000001,0.543352,-0.54307744,28.76804532,-15.340626799999999,-28.796325279999998,-66.81146544,0.16494094120000002,2.2106318959999998,4.442701319999999,-0.18608547280000004,0.6736645732,0.04630715920000006
10:22:20,-1.759179325,3.20722325,3.4573252,0.2895236750000001,0.543117625,-0.54530402,28.78427506,-15.360068024999999,-28.763411615,-66.82704777000001,0.17133903459999988,2.216156868,4.45525826,-0.18395831490000003,0.6745822218499999,0.04282407860000004
10:22:20,-1.76099125,3.2167175,3.4722850000000003,0.2940407500000001,0.54288325,-0.5475306,28.8005048,-15.379509249999998,-28.73049795,-66.84263010000001,0.17773712799999997,2.22168184,4.4678152,-0.18183115700000002,0.6754998704999999,0.039340998000000016
10:22:20,-1.7628031750000002,3.22621175,3.4872448,0.29855782500000005,0.542648875,-0.5497571800000001,28.81673454,-15.398950475,-28.697584284999998,-66.85821243000001,0.18413522140000005,2.227206812,4.48037214,-0.1797039991,0.67641751915,0.035857917399999995
10:22:20,-1.7646151,3.2357060000000004,3.5022046000000002,0.30307490000000015,0.5424145,-0.55198376,28.83296428,-15.418391699999999,-28.66467062,-66.87379476000001,0.1905333147999999,2.232731784,4.49292908,-0.17757684120000006,0.6773351678,0.032374836800000084
10:22:20,-1.766427025,3.24520025,3.5171644,0.30759197500000013,0.542180125,-0.55421034,28.84919402,-15.437832924999999,-28.631756955,-66.88937709000001,0.1969314082,2.238256756,4.50548602,-0.17544968330000005,0.67825281645,0.028891756200000063
10:22:20,-1.7682389500000002,3.2546945000000003,3.5321242,0.3121090500000001,0.54194575,-0.55643692,28.86542376,-15.45727415,-28.598843289999998,-66.90495942000001,0.20332950159999985,2.243781728,4.51804296,-0.17332252540000004,0.6791704651,0.02540867560000004
10:22:20,-1.7700508750000001,3.26418875,3.547084,0.3166261250000001,0.541711375,-0.5586635,28.8816535,-15.476715375,-28.565929625,-66.92054175000001,0.20972759499999993,2.2493067,4.5305999,-0.17119536750000003,0.68008811375,0.02192559500000002
10:22:20,-1.7718628,3.273683,3.5620438,0.3211432000000001,0.541477,-0.5608900800000001,28.89788324,-15.496156599999999,-28.53301596,-66.93612408,0.21612568840000002,2.254831672,4.54315684,-0.16906820960000002,0.6810057624,0.0184425144
10:22:20,-1.773674725,3.28317725,3.5770036000000003,0.32566027500000005,0.541242625,-0.56311666,28.91411298,-15.515597824999999,-28.500102294999998,-66.95170641,0.22252378179999988,2.260356644,4.55571378,-0.1669410517,0.68192341105,0.014959433800000088
10:22:20,-1.7754866500000002,3.2926715,3.5919634,0.33017735000000015,0.54100825,-0.56534324,28.93034272,-15.535039049999998,-28.46718863,-66.96728874,0.22892187519999996,2.2658816159999997,4.56827072,-0.16481389380000006,0.6828410597,0.011476353200000067
10:22:20,-1.777298575,3.3021657500000003,3.6069232,0.33469442500000013,0.540773875,-0.56756982,28.94657246,-15.554480275,-28.434274965,-66.98287107,0.23531996860000004,2.271406588,4.580827660000001,-0.16268673590000005,0.68375870835,0.007993272600000045
10:22:20,-1.7791105,3.31166,3.621883,0.3392115000000001,0.5405395,-0.5697964,28.9628022,-15.573921499999999,-28.401361299999998,-66.9984534,0.2417180619999999,2.27693156,4.5933846,-0.16055957800000004,0.6846763570000001,0.004510192000000024
10:22:20,-1.780922425,3.32115425,3.6368428,0.3437285750000001,0.5403051249999999,-0.5720229800000001,28.97903194,-15.593362724999999,-28.368447635,-67.01403573,0.24811615539999998,2.282456532,4.60594154,-0.15843242010000003,0.6855940056500001,0.0010271114000000026
10:22:20,-1.7827343500000001,3.3306485,3.6518026000000003,0.3482456500000001,0.54007075,-0.57424956,28.99526168,-15.61280395,-28.33553397,-67.02961806,0.25451424879999984,2.287981504,4.6184984799999995,-0.15630526220000002,0.6865116543,-0.002455969199999908
10:22:20,-1.784546275,3.34014275,3.6667624,0.35276272500000005,0.539836375,-0.57647614,29.01149142,-15.632245175,-28.302620304999998,-67.04520039,0.2609123421999999,2.293506476,4.63105542,-0.1541781043,0.68742930295,-0.005939049799999929
10:22:20,-1.7863582,3.3496370000000004,3.6817222000000003,0.35727980000000015,0.539602,-0.57870272,29.02772116,-15.651686399999999,-28.26970664,-67.06078272,0.2673104356,2.299031448,4.6436123600000005,-0.15205094640000005,0.6883469516,-0.00942213039999995
10:22:20,-1.7881701250000002,3.35913125,3.696682,0.36179687500000013,0.539367625,-0.5809293,29.0439509,-15.671127624999999,-28.236792975,-67.07636505,0.27370852899999987,2.30455642,4.6561693,-0.14992378850000004,0.68926460025,-0.012905210999999972
10:22:20,-1.78998205,3.3686255000000003,3.7116418,0.3663139500000001,0.53913325,-0.5831558800000001,29.06018064,-15.690568849999998,-28.203879309999998,-67.09194738000001,0.28010662239999995,2.310081392,4.66872624,-0.14779663060000003,0.6901822489,-0.016388291599999993
10:22:20,-1.791793975,3.37811975,3.7266016,0.3708310250000001,0.538898875,-0.58538246,29.07641038,-15.710010075,-28.170965645,-67.10752971000001,0.28650471580000003,2.3156063639999998,4.681283179999999,-0.14566947270000002,0.69109989755,-0.019871372199999904
10:22:20,-1.7936059000000002,3.387614,3.7415614,0.3753481000000001,0.5386645,-0.58760904,29.09264012,-15.7294513,-28.13805198,-67.12311204000001,0.2929028091999999,2.3211313359999997,4.69384012,-0.14354231480000001,0.6920175462,-0.023354452799999925
10:22:20,-1.7954178250000001,3.39710825,3.7565212000000003,0.37986517500000005,0.538430125,-0.58983562,29.10886986,-15.748892524999999,-28.105138314999998,-67.13869437000001,0.2993009026,2.326656308,4.7063970600000005,-0.1414151569,0.69293519485,-0.026837533399999947
10:22:20,-1.79722975,3.4066025,3.771481,0.38438225000000015,0.53819575,-0.5920622,29.1250996,-15.76833375,-28.07222465,-67.15427670000001,0.30569899599999983,2.33218128,4.718954,-0.13928799900000005,0.6938528435,-0.030320613999999968
10:22:20,-1.7990416750000002,3.4160967500000003,3.7864408000000003,0.38889932500000013,0.537961375,-0.5942887800000001,29.14132934,-15.787774975,-28.039310985,-67.16985903000001,0.3120970893999999,2.3377062520000003,4.73151094,-0.13716084110000004,0.69477049215,-0.03380369459999999
10:22:20,-1.8008536000000002,3.425591,3.8014006,0.3934164000000001,0.537727,-0.5965153599999999,29.15755908,-15.8072162,-28.006397319999998,-67.18544136,0.3184951828,2.343231224,4.744067879999999,-0.13503368320000003,0.6956881408,-0.0372867751999999
10:22:20,-1.802665525,3.43508525,3.8163604,0.3979334750000001,0.537492625,-0.59874194,29.17378882,-15.826657424999999,-27.973483655,-67.20102369,0.32489327619999986,2.348756196,4.75662482,-0.13290652530000002,0.69660578945,-0.04076985579999992
10:22:20,-1.80447745,3.4445795,3.8313202,0.4024505500000001,0.53725825,-0.60096852,29.19001856,-15.846098649999998,-27.94056999,-67.21660602,0.33129136959999994,2.354281168,4.76918176,-0.1307793674,0.6975234381,-0.04425293639999994
10:22:20,-1.806289375,3.45407375,3.84628,0.40696762500000017,0.537023875,-0.6031951,29.2062483,-15.865539875,-27.907656325,-67.23218835,0.337689463,2.35980614,4.7817387,-0.12865220950000006,0.6984410867499999,-0.047736016999999964
10:22:20,-1.8081013000000001,3.4635680000000004,3.8612398000000003,0.41148470000000015,0.5367895,-0.6054216800000001,29.22247804,-15.8849811,-27.87474266,-67.24777068,0.3440875563999999,2.365331112,4.79429564,-0.12652505160000005,0.6993587354,-0.051219097599999985
10:22:20,-1.809913225,3.47306225,3.8761996,0.41600177500000013,0.536555125,-0.6076482599999999,29.23870778,-15.904422324999999,-27.841828995,-67.26335301,0.35048564979999997,2.3708560839999997,4.80685258,-0.12439789370000004,0.70027638405,-0.05470217820000001
10:22:20,-1.81172515,3.4825565000000003,3.8911594000000003,0.4205188500000001,0.53632075,-0.60987484,29.25493752,-15.923863549999998,-27.80891533,-67.27893534,0.35688374320000005,2.376381056,4.819409520000001,-0.12227073580000003,0.7011940327,-0.05818525879999992
10:22:20,-1.8135370750000002,3.49205075,3.9061192,0.4250359250000001,0.536086375,-0.61210142,29.27116726,-15.943304774999998,-27.776001665,-67.29451767,0.3632818365999999,2.381906028,4.83196646,-0.12014357790000002,0.70211168135,-0.06166833939999994
10:22:21,-1.815349,3.501545,3.921079,0.429553,0.535852,-0.614328,29.287397,-15.962746,-27.743088,-67.3101,0.36967993,2.387431,4.8445234,-0.11801642,0.70302933,-0.06515142
10:22:21,-1.8051927550000002,3.4990989000000003,3.9155058400000002,0.429350585,0.53193152,-0.614775445,29.321536759999997,-15.935524509999999,-27.75457306,-67.3178271,0.37898130885,2.390723783,4.8326186505,-0.1186696711,0.69820294805,-0.0679059009
10:22:21,-1.79503651,3.4966528,3.9099326800000003,0.42914817,0.52801104,-0.61522289,29.35567652,-15.90830302,-27.76605812,-67.3255542,0.38828268769999996,2.394016566,4.8207139009999995,-0.1193229222,0.6933765661,-0.0706603818
10:22:21,-1.7848802650000002,3.4942067000000003,3.9043595200000003,0.42894575500000004,0.52409056,-0.615670335,29.389816279999998,-15.88108153,-27.77754318,-67.33328130000001,0.39758406655,2.397309349,4.8088091515,-0.1199761733,0.68855018415,-0.0734148627
10:22:21,-1.77472402,3.4917606,3.8987863600000003,0.42874334000000003,0.52017008,-0.61611778,29.42395604,-15.853860039999999,-27.78902824,-67.3410084,0.4068854454,2.400602132,4.796904402,-0.12062942439999999,0.6837238022000001,-0.07616934360000001
10:22:21,-1.7645677750000002,3.4893145000000003,3.8932132000000004,0.428540925,0.5162496,-0.616565225,29.4580958,-15.826638549999998,-27.8005133,-67.3487355,0.41618682425,2.403894915,4.7849996525,-0.12128267549999999,0.67889742025,-0.0789238245
10:22:21,-1.75441153,3.4868684,3.8876400400000004,0.42833851,0.51232912,-0.61701267,29.492235559999997,-15.79941706,-27.81199836,-67.3564626,0.4254882031,2.407187698,4.773094903,-0.1219359266,0.6740710383,-0.08167830540000001
10:22:21,-1.7442552850000002,3.4844223000000003,3.88206688,0.428136095,0.50840864,-0.617460115,29.52637532,-15.77219557,-27.82348342,-67.36418970000001,0.43478958195,2.410480481,4.7611901535,-0.1225891777,0.66924465635,-0.0844327863
10:22:21,-1.73409904,3.4819762,3.87649372,0.42793368000000004,0.50448816,-0.61790756,29.56051508,-15.744974079999999,-27.83496848,-67.37191680000001,0.4440909608,2.413773264,4.749285404,-0.1232424288,0.6644182744,-0.0871872672
10:22:21,-1.7239427950000001,3.4795301000000003,3.87092056,0.427731265,0.50056768,-0.618355005,29.59465484,-15.71775259,-27.84645354,-67.3796439,0.45339233965,2.417066047,4.7373806545,-0.1238956799,0.65959189245,-0.08994174810000001
10:22:21,-1.71378655,3.477084,3.8653474,0.42752885,0.4966472,-0.61880245,29.6287946,-15.6905311,-27.8579386,-67.387371,0.46269371849999996,2.42035883,4.725475905,-0.124548931,0.6547655105,-0.092696229
10:22:21,-1.7036303050000001,3.4746379000000003,3.85977424,0.427326435,0.49272672,-0.6192498949999999,29.662934359999998,-15.663309609999999,-27.86942366,-67.3950981,0.47199509735,2.4236516129999996,4.7135711554999995,-0.1252021821,0.64993912855,-0.09545070990000001
10:22:21,-1.69347406,3.4721918,3.85420108,0.42712402,0.48880624,-0.61969734,29.69707412,-15.636088119999998,-27.88090872,-67.40282520000001,0.4812964762,2.4269443959999997,4.701666406,-0.1258554332,0.6451127466,-0.09820519080000001
10:22:21,-1.683317815,3.4697457000000003,3.84862792,0.42692160500000004,0.48488576,-0.620144785,29.73121388,-15.60886663,-27.89239378,-67.4105523,0.49059785505,2.4302371789999997,4.6897616565,-0.1265086843,0.64028636465,-0.1009596717
10:22:21,-1.67316157,3.4672996,3.8430547600000002,0.42671919,0.48096528,-0.62059223,29.765353639999997,-15.58164514,-27.90387884,-67.4182794,0.4998992339,2.4335299619999997,4.677856907,-0.12716193539999998,0.6354599827,-0.1037141526
10:22:21,-1.663005325,3.4648535000000003,3.8374816000000003,0.426516775,0.4770448,-0.621039675,29.7994934,-15.554423649999999,-27.9153639,-67.4260065,0.50920061275,2.4368227449999997,4.6659521575,-0.12781518649999998,0.63063360075,-0.1064686335
10:22:21,-1.6528490800000002,3.4624074,3.8319084400000003,0.42631436,0.47312432,-0.62148712,29.833633159999998,-15.52720216,-27.92684896,-67.43373360000001,0.5185019916,2.4401155279999998,4.654047408,-0.12846843759999999,0.6258072188,-0.10922311440000002
10:22:21,-1.642692835,3.4599613000000002,3.8263352800000003,0.426111945,0.46920384,-0.621934565,29.86777292,-15.49998067,-27.93833402,-67.44146070000001,0.52780337045,2.4434083109999998,4.6421426585,-0.1291216887,0.62098083685,-0.11197759530000001
10:22:21,-1.63253659,3.4575152,3.8207621200000004,0.42590953000000004,0.46528336,-0.62238201,29.90191268,-15.472759179999999,-27.94981908,-67.4491878,0.5371047493,2.446701094,4.630237909,-0.1297749398,0.6161544549,-0.1147320762
10:22:21,-1.622380345,3.4550691000000002,3.81518896,0.425707115,0.46136288,-0.622829455,29.936052439999997,-15.445537689999998,-27.96130414,-67.4569149,0.54640612815,2.449993877,4.6183331595,-0.1304281909,0.61132807295,-0.1174865571
10:22:21,-1.6122241000000002,3.452623,3.8096158,0.4255047,0.45744239999999997,-0.6232769,29.9701922,-15.4183162,-27.9727892,-67.464642,0.5557075069999999,2.45328666,4.6064284099999995,-0.131081442,0.6065016910000001,-0.12024103800000001
10:22:21,-1.602067855,3.4501769,3.80404264,0.425302285,0.45352191999999997,-0.623724345,30.00433196,-15.391094709999999,-27.98427426,-67.47236910000001,0.56500888585,2.456579443,4.5945236605,-0.1317346931,0.60167530905,-0.12299551890000002
10:22:21,-1.5919116100000001,3.4477308,3.79846948,0.42509987000000005,0.44960144,-0.62417179,30.03847172,-15.363873219999999,-27.99575932,-67.4800962,0.5743102647,2.459872226,4.582618911,-0.1323879442,0.5968489271,-0.1257499998
10:22:21,-1.581755365,3.4452847,3.79289632,0.42489745500000003,0.44568096,-0.6246192349999999,30.07261148,-15.33665173,-28.00724438,-67.4878233,0.5836116435500001,2.463165009,4.5707141615,-0.1330411953,0.59202254515,-0.1285044807
10:22:21,-1.5715991200000001,3.4428386,3.78732316,0.42469504,0.44176048,-0.62506668,30.106751239999998,-15.30943024,-28.01872944,-67.4955504,0.5929130224,2.466457792,4.558809412,-0.1336944464,0.5871961632,-0.1312589616
10:22:21,-1.561442875,3.4403925,3.78175,0.424492625,0.43784,-0.625514125,30.140891,-15.282208749999999,-28.0302145,-67.50327750000001,0.6022144012499999,2.469750575,4.5469046625,-0.1343476975,0.58236978125,-0.13401344250000002
10:22:21,-1.55128663,3.4379464,3.77617684,0.42429021,0.43391952,-0.62596157,30.17503076,-15.25498726,-28.04169956,-67.5110046,0.6115157801,2.473043358,4.534999913,-0.1350009486,0.5775433993,-0.13676792340000002
10:22:21,-1.541130385,3.4355003,3.7706036800000002,0.42408779500000005,0.42999904,-0.626409015,30.20917052,-15.22776577,-28.05318462,-67.5187317,0.62081715895,2.476336141,4.5230951635,-0.1356541997,0.57271701735,-0.1395224043
10:22:21,-1.53097414,3.4330542,3.7650305200000003,0.42388538000000003,0.42607856,-0.62685646,30.24331028,-15.200544279999999,-28.06466968,-67.5264588,0.6301185378,2.479628924,4.511190414,-0.1363074508,0.5678906354,-0.1422768852
10:22:21,-1.520817895,3.4306081,3.7594573600000003,0.423682965,0.42215808,-0.627303905,30.277450039999998,-15.173322789999999,-28.07615474,-67.53418590000001,0.63941991665,2.482921707,4.4992856645,-0.13696070189999998,0.56306425345,-0.1450313661
10:22:21,-1.51066165,3.428162,3.7538842000000003,0.42348055,0.4182376,-0.62775135,30.3115898,-15.1461013,-28.0876398,-67.54191300000001,0.6487212955,2.48621449,4.487380915,-0.13761395299999998,0.5582378715,-0.14778584700000003
10:22:21,-1.5005054050000002,3.4257159,3.74831104,0.423278135,0.41431712,-0.628198795,30.34572956,-15.11887981,-28.09912486,-67.5496401,0.65802267435,2.489507273,4.4754761655,-0.13826720409999999,0.55341148955,-0.15054032790000002
10:22:21,-1.49034916,3.4232698,3.74273788,0.42307572000000004,0.41039664,-0.62864624,30.379869319999997,-15.091658319999999,-28.11060992,-67.5573672,0.6673240532,2.492800056,4.463571416,-0.1389204552,0.5485851076,-0.15329480880000002
10:22:21,-1.480192915,3.4208237,3.73716472,0.42287330500000003,0.40647616,-0.629093685,30.41400908,-15.06443683,-28.12209498,-67.5650943,0.67662543205,2.496092839,4.4516666664999995,-0.1395737063,0.54375872565,-0.1560492897
10:22:21,-1.47003667,3.4183776000000003,3.73159156,0.42267089,0.40255567999999997,-0.62954113,30.448148839999998,-15.03721534,-28.13358004,-67.57282140000001,0.6859268109,2.4993856219999997,4.439761917,-0.1402269574,0.5389323437,-0.1588037706
10:22:21,-1.4598804250000001,3.4159315,3.7260184,0.422468475,0.39863519999999997,-0.6299885749999999,30.4822886,-15.009993849999999,-28.1450651,-67.5805485,0.69522818975,2.5026784049999997,4.4278571675,-0.1408802085,0.53410596175,-0.16155825150000003
10:22:21,-1.44972418,3.4134854000000003,3.72044524,0.42226606,0.39471471999999996,-0.63043602,30.51642836,-14.982772359999998,-28.15655016,-67.5882756,0.7045295685999999,2.5059711879999997,4.415952418,-0.1415334596,0.5292795798000001,-0.16431273240000002
10:22:21,-1.4395679350000001,3.4110393,3.71487208,0.42206364500000004,0.39079423999999996,-0.630883465,30.550568119999998,-14.95555087,-28.16803522,-67.5960027,0.71383094745,2.5092639709999998,4.4040476685,-0.1421867107,0.52445319785,-0.16706721330000002
10:22:21,-1.42941169,3.4085932000000003,3.70929892,0.42186123000000003,0.38687375999999996,-0.63133091,30.58470788,-14.92832938,-28.17952028,-67.60372980000001,0.7231323263,2.512556754,4.392142919,-0.1428399618,0.5196268159,-0.1698216942
10:22:21,-1.4192554450000001,3.4061471,3.70372576,0.421658815,0.38295327999999995,-0.631778355,30.61884764,-14.901107889999999,-28.19100534,-67.61145690000001,0.7324337051500001,2.515849537,4.3802381695,-0.1434932129,0.5148004339500001,-0.1725761751
10:22:21,-1.4090992,3.4037010000000003,3.6981526000000002,0.4214564,0.37903279999999995,-0.6322258,30.6529874,-14.8738864,-28.2024904,-67.619184,0.741735084,2.51914232,4.36833342,-0.144146464,0.509974052,-0.17533065600000003
10:22:21,-1.398942955,3.4012549,3.6925794400000003,0.421253985,0.37511231999999994,-0.632673245,30.68712716,-14.84666491,-28.21397546,-67.6269111,0.7510364628499999,2.522435103,4.3564286705,-0.1447997151,0.5051476700499999,-0.17808513690000002
10:22:21,-1.38878671,3.3988088000000003,3.6870062800000003,0.42105157000000004,0.37119183999999994,-0.63312069,30.721266919999998,-14.819443419999999,-28.22546052,-67.6346382,0.7603378417,2.525727886,4.3445239209999995,-0.14545296619999998,0.5003212881,-0.18083961780000002
10:22:21,-1.378630465,3.3963627,3.6814331200000003,0.42084915500000003,0.36727135999999994,-0.633568135,30.75540668,-14.792221929999998,-28.23694558,-67.64236530000001,0.76963922055,2.529020669,4.3326191715,-0.1461062173,0.49549490615,-0.1835940987
10:22:21,-1.36847422,3.3939166000000003,3.6758599600000004,0.42064674,0.36335088,-0.63401558,30.78954644,-14.76500044,-28.24843064,-67.6500924,0.7789405994,2.532313452,4.320714422,-0.14675946839999998,0.4906685242,-0.1863485796
10:22:21,-1.358317975,3.3914705,3.6702868,0.420444325,0.3594304,-0.634463025,30.8236862,-14.73777895,-28.2599157,-67.6578195,0.78824197825,2.535606235,4.3088096725,-0.14741271949999998,0.48584214225,-0.18910306050000003
10:22:21,-1.3481617300000002,3.3890244000000003,3.66471364,0.42024191,0.35550992,-0.63491047,30.85782596,-14.710557459999999,-28.27140076,-67.6655466,0.7975433571,2.538899018,4.296904923,-0.14806597059999999,0.48101576030000004,-0.1918575414
10:22:21,-1.338005485,3.3865783,3.65914048,0.42003949500000004,0.35158944,-0.6353579149999999,30.891965719999998,-14.68333597,-28.28288582,-67.67327370000001,0.80684473595,2.542191801,4.2850001735,-0.1487192217,0.47618937835,-0.19461202230000002
10:22:21,-1.32784924,3.3841322000000003,3.65356732,0.41983708000000003,0.34766895999999997,-0.63580536,30.92610548,-14.65611448,-28.29437088,-67.6810008,0.8161461148,2.545484584,4.273095424,-0.1493724728,0.4713629964,-0.19736650320000004
10:22:21,-1.317692995,3.3816861,3.64799416,0.419634665,0.34374847999999997,-0.636252805,30.96024524,-14.628892989999999,-28.30585594,-67.6887279,0.82544749365,2.548777367,4.2611906745,-0.1500257239,0.46653661445,-0.2001209841
10:22:21,-1.3075367500000001,3.3792400000000002,3.642421,0.41943225,0.33982799999999996,-0.63670025,30.994385,-14.601671499999998,-28.317341,-67.696455,0.8347488725,2.55207015,4.249285925,-0.150678975,0.4617102325,-0.20287546500000003
10:22:21,-1.297380505,3.3767939,3.63684784,0.419229835,0.33590751999999996,-0.637147695,31.02852476,-14.57445001,-28.32882606,-67.7041821,0.84405025135,2.555362933,4.2373811754999995,-0.1513322261,0.45688385055,-0.2056299459
10:22:21,-1.28722426,3.3743478000000002,3.63127468,0.41902742000000004,0.33198703999999996,-0.63759514,31.06266452,-14.547228519999999,-28.34031112,-67.71190920000001,0.8533516301999999,2.558655716,4.225476426,-0.1519854772,0.4520574686,-0.20838442680000002
10:22:21,-1.277068015,3.3719017,3.6257015200000002,0.41882500500000003,0.32806656,-0.638042585,31.09680428,-14.520007029999999,-28.35179618,-67.7196363,0.86265300905,2.561948499,4.2135716765,-0.1526387283,0.44723108665,-0.21113890770000004
10:22:21,-1.26691177,3.3694556,3.6201283600000003,0.41862259,0.32414608,-0.63849003,31.13094404,-14.49278554,-28.36328124,-67.7273634,0.8719543879,2.565241282,4.201666927,-0.1532919794,0.44240470470000004,-0.2138933886
10:22:21,-1.256755525,3.3670095,3.6145552000000003,0.418420175,0.3202256,-0.638937475,31.165083799999998,-14.46556405,-28.3747663,-67.7350905,0.88125576675,2.5685340649999997,4.1897621775,-0.1539452305,0.43757832275,-0.21664786950000003
10:22:21,-1.24659928,3.3645634,3.60898204,0.41821776,0.31630512,-0.63938492,31.19922356,-14.438342559999999,-28.38625136,-67.74281760000001,0.8905571456,2.5718268479999997,4.177857428,-0.1545984816,0.4327519408,-0.2194023504
10:22:21,-1.2364430350000002,3.3621173,3.60340888,0.41801534500000004,0.31238464,-0.639832365,31.23336332,-14.41112107,-28.39773642,-67.7505447,0.89985852445,2.5751196309999997,4.1659526785,-0.15525173269999998,0.42792555885,-0.22215683130000002
10:22:21,-1.22628679,3.3596712,3.59783572,0.41781293,0.30846416,-0.64027981,31.26750308,-14.38389958,-28.40922148,-67.7582718,0.9091599033,2.5784124139999998,4.154047929,-0.1559049838,0.4230991769,-0.22491131220000005
10:22:21,-1.216130545,3.3572251,3.59226256,0.417610515,0.30454368,-0.640727255,31.30164284,-14.356678089999999,-28.42070654,-67.7659989,0.91846128215,2.581705197,4.1421431795,-0.15655823489999998,0.41827279495,-0.2276657931
10:22:21,-1.2059743,3.354779,3.5866894,0.4174081,0.3006232,-0.6411747,31.3357826,-14.329456599999999,-28.4321916,-67.77372600000001,0.927762661,2.58499798,4.13023843,-0.15721148599999998,0.413446413,-0.23042027400000004
10:22:21,-1.1958180550000002,3.3523329,3.58111624,0.417205685,0.29670272,-0.641622145,31.36992236,-14.30223511,-28.44367666,-67.78145310000001,0.93706403985,2.588290763,4.1183336805,-0.15786473709999999,0.40862003105,-0.2331747549
10:22:21,-1.18566181,3.3498868,3.57554308,0.41700327000000004,0.29278223999999997,-0.64206959,31.40406212,-14.27501362,-28.45516172,-67.7891802,0.9463654187,2.591583546,4.106428931,-0.1585179882,0.40379364910000004,-0.23592923580000003
10:22:21,-1.175505565,3.3474407,3.56996992,0.416800855,0.28886175999999997,-0.642517035,31.43820188,-14.247792129999999,-28.46664678,-67.7969073,0.95566679755,2.594876329,4.0945241815,-0.1591712393,0.39896726715,-0.23868371670000005
10:22:21,-1.16534932,3.3449946,3.56439676,0.41659844,0.28494127999999996,-0.64296448,31.47234164,-14.220570639999998,-28.47813184,-67.8046344,0.9649681764,2.598169112,4.0826194319999995,-0.1598244904,0.3941408852,-0.24143819760000002
10:22:21,-1.1551930750000001,3.3425485,3.5588236,0.416396025,0.28102079999999996,-0.643411925,31.5064814,-14.19334915,-28.4896169,-67.81236150000001,0.97426955525,2.601461895,4.0707146825,-0.1604777415,0.38931450325,-0.24419267850000004
10:22:21,-1.14503683,3.3401024,3.5532504400000002,0.41619361000000005,0.27710031999999996,-0.64385937,31.54062116,-14.166127659999999,-28.50110196,-67.8200886,0.9835709341,2.604754678,4.058809933,-0.1611309926,0.3844881213,-0.2469471594
10:22:21,-1.1348805849999999,3.3376563,3.5476772800000003,0.41599119500000004,0.27317983999999995,-0.644306815,31.57476092,-14.138906169999998,-28.512587019999998,-67.8278157,0.99287231295,2.608047461,4.0469051835,-0.1617842437,0.37966173935,-0.24970164030000003
10:22:21,-1.12472434,3.3352102,3.5421041200000003,0.41578878,0.26925935999999995,-0.64475426,31.608900679999998,-14.11168468,-28.52407208,-67.8355428,1.0021736918,2.611340244,4.035000434,-0.1624374948,0.3748353574,-0.25245612120000005
10:22:21,-1.114568095,3.3327641000000003,3.5365309600000003,0.415586365,0.26533887999999994,-0.645201705,31.64304044,-14.08446319,-28.535557139999998,-67.84326990000001,1.01147507065,2.614633027,4.023095684499999,-0.1630907459,0.37000897545,-0.2552106021
10:22:21,-1.10441185,3.330318,3.5309578,0.41538395,0.26141839999999994,-0.64564915,31.6771802,-14.057241699999999,-28.5470422,-67.850997,1.0207764495,2.61792581,4.011190935,-0.16374399699999997,0.36518259350000004,-0.25796508300000004
10:22:21,-1.0942556049999999,3.3278719000000003,3.52538464,0.41518153500000005,0.25749791999999994,-0.646096595,31.71131996,-14.03002021,-28.558527259999998,-67.8587241,1.03007782835,2.621218593,3.9992861855,-0.1643972481,0.36035621155,-0.2607195639
10:22:21,-1.08409936,3.3254258,3.51981148,0.41497912000000003,0.25357743999999993,-0.64654404,31.74545972,-14.00279872,-28.57001232,-67.8664512,1.0393792072,2.624511376,3.9873814359999997,-0.16505049919999998,0.3555298296,-0.26347404480000003
10:22:21,-1.073943115,3.3229797000000003,3.51423832,0.414776705,0.24965695999999998,-0.646991485,31.77959948,-13.975577229999999,-28.58149738,-67.8741783,1.0486805860500001,2.627804159,3.9754766865,-0.16570375029999998,0.35070344765,-0.26622852570000005
10:22:21,-1.06378687,3.3205336,3.50866516,0.41457429,0.24573647999999998,-0.64743893,31.81373924,-13.94835574,-28.59298244,-67.88190540000001,1.0579819649,2.631096942,3.9635719369999998,-0.16635700139999998,0.3458770657,-0.2689830066
10:22:21,-1.053630625,3.3180875000000003,3.503092,0.414371875,0.24181599999999998,-0.647886375,31.847879,-13.92113425,-28.6044675,-67.8896325,1.06728334375,2.634389725,3.9516671875,-0.16701025249999998,0.34105068375,-0.27173748750000004
10:22:21,-1.0434743800000001,3.3156414,3.49751884,0.41416946000000004,0.23789551999999997,-0.64833382,31.88201876,-13.89391276,-28.61595256,-67.8973596,1.0765847226,2.637682508,3.939762438,-0.16766350359999999,0.3362243018,-0.2744919684
10:22:21,-1.033318135,3.3131953000000003,3.49194568,0.41396704500000003,0.23397503999999997,-0.648781265,31.91615852,-13.866691269999999,-28.62743762,-67.9050867,1.0858861014499999,2.640975291,3.9278576884999996,-0.1683167547,0.33139791985,-0.27724644930000003
10:22:21,-1.02316189,3.3107492,3.48637252,0.41376463,0.23005455999999996,-0.64922871,31.95029828,-13.839469779999998,-28.63892268,-67.91281380000001,1.0951874803,2.644268074,3.915952939,-0.1689700058,0.32657153790000004,-0.28000093020000005
10:22:21,-1.013005645,3.3083031000000003,3.4807993600000002,0.413562215,0.22613407999999996,-0.649676155,31.98443804,-13.81224829,-28.65040774,-67.9205409,1.10448885915,2.647560857,3.9040481895,-0.1696232569,0.32174515595000003,-0.2827554111
10:22:21,-1.0028494000000001,3.305857,3.4752262000000003,0.4133598,0.22221359999999996,-0.6501236,32.0185778,-13.785026799999999,-28.6618928,-67.928268,1.113790238,2.65085364,3.89214344,-0.170276508,0.316918774,-0.28550989200000004
10:22:21,-0.992693155,3.3034109000000003,3.46965304,0.41315738500000004,0.21829311999999995,-0.650571045,32.05271756,-13.757805309999998,-28.67337786,-67.9359951,1.12309161685,2.654146423,3.8802386904999997,-0.1709297591,0.31209239205,-0.2882643729
10:22:21,-0.98253691,3.3009648,3.46407988,0.41295497000000003,0.21437263999999995,-0.65101849,32.08685732,-13.73058382,-28.68486292,-67.9437222,1.1323929957,2.657439206,3.868333941,-0.1715830102,0.3072660101,-0.29101885380000003
10:22:21,-0.972380665,3.2985187000000002,3.45850672,0.412752555,0.21045215999999994,-0.651465935,32.12099708,-13.70336233,-28.69634798,-67.95144930000001,1.1416943745500001,2.660731989,3.8564291914999997,-0.1722362613,0.30243962815000003,-0.29377333470000005
10:22:21,-0.96222442,3.2960726,3.45293356,0.41255014,0.20653167999999994,-0.65191338,32.15513684,-13.676140839999999,-28.70783304,-67.9591764,1.1509957534,2.664024772,3.844524442,-0.1728895124,0.2976132462,-0.2965278156
10:22:21,-0.952068175,3.2936265000000002,3.4473604,0.412347725,0.20261119999999994,-0.652360825,32.1892766,-13.64891935,-28.7193181,-67.9669035,1.16029713225,2.667317555,3.8326196925,-0.17354276349999997,0.29278686425,-0.29928229650000004
10:22:21,-0.94191193,3.2911804,3.44178724,0.41214531000000004,0.19869071999999993,-0.65280827,32.22341636,-13.62169786,-28.73080316,-67.9746306,1.1695985111,2.670610338,3.8207149429999996,-0.1741960146,0.28796048230000004,-0.3020367774
10:22:21,-0.931755685,3.2887343,3.43621408,0.41194289500000003,0.19477023999999993,-0.653255715,32.257556120000004,-13.594476369999999,-28.74228822,-67.98235770000001,1.1788998899499998,2.673903121,3.8088101935,-0.17484926569999998,0.28313410035000003,-0.30479125830000003
10:22:21,-0.92159944,3.2862882,3.43064092,0.41174048,0.19084975999999998,-0.6537031600000001,32.29169588,-13.56725488,-28.75377328,-67.9900848,1.1882012687999999,2.677195904,3.796905444,-0.17550251679999998,0.2783077184,-0.30754573920000006
10:22:21,-0.911443195,3.2838421,3.42506776,0.411538065,0.18692927999999998,-0.654150605,32.32583564,-13.54003339,-28.76525834,-67.9978119,1.19750264765,2.680488687,3.7850006945,-0.17615576789999998,0.27348133645,-0.3103002201
10:22:21,-0.90128695,3.281396,3.4194946,0.41133565,0.18300879999999997,-0.65459805,32.3599754,-13.512811899999999,-28.7767434,-68.005539,1.2068040265,2.68378147,3.7730959449999997,-0.17680901899999998,0.2686549545,-0.31305470100000005
10:22:21,-0.891130705,3.2789499,3.41392144,0.41113323500000004,0.17908831999999997,-0.655045495,32.39411516,-13.485590409999999,-28.78822846,-68.0132661,1.21610540535,2.687074253,3.7611911955,-0.17746227009999999,0.26382857255000003,-0.31580918190000007
10:22:21,-0.88097446,3.2765038,3.4083482800000002,0.41093082000000003,0.17516783999999996,-0.65549294,32.42825492,-13.458368919999998,-28.79971352,-68.0209932,1.2254067842,2.690367036,3.749286446,-0.1781155212,0.2590021906,-0.31856366280000004
