Timestamp,linacce_x,linacce_y,linacce_z,gyro_x,gyro_y,gyro_z,X-magnetometer,Y-magnetometer,Z-magnetometer,Yaw, worldXAccel,worldYAccel,worldZAccel,worldXgyro,worldYgyro,worldZgyro
10:25:42,-0.562565,0.197775,-2.712702,-0.073291,-0.121468,-0.344795,-32.940434,-0.049606,-16.405762,68.53648,-2.6617901,0.2864018,-0.060174227,-0.3337687,-0.11011039,0.05839446
10:25:42,-0.55004706,0.204112875,-2.7000714450000003,-0.07310989,-0.119662235,-0.34472575,-32.89914795000001,-0.063261015,-16.422545905,68.43246925,-2.6416298360000003,0.29043505,-0.071203534865,-0.33323434189999995,-0.1086710366,0.056966436
10:25:42,-0.53752912,0.21045075000000002,-2.68744089,-0.07292878,-0.11785647,-0.34465650000000003,-32.8578619,-0.07691603,-16.43932981,68.3284585,-2.621469572,0.29446829999999996,-0.08223284272999999,-0.3326999838,-0.1072316832,0.055538412
10:25:42,-0.52501118,0.216788625,-2.674810335,-0.07274767,-0.116050705,-0.34458725,-32.81657585000001,-0.090571045,-16.456113715,68.22444775,-2.6013093080000003,0.29850155,-0.093262150595,-0.33216562569999997,-0.1057923298,0.054110388
10:25:42,-0.51249324,0.2231265,-2.66217978,-0.07256655999999999,-0.11424494,-0.344518,-32.7752898,-0.10422606000000001,-16.472897619999998,68.120437,-2.581149044,0.3025348,-0.10429145845999999,-0.3316312676,-0.1043529764,0.052682364
10:25:42,-0.4999753,0.229464375,-2.6495492250000003,-0.07238544999999999,-0.112439175,-0.34444875,-32.73400375000001,-0.117881075,-16.489681524999998,68.01642625,-2.56098878,0.30656805,-0.11532076632499999,-0.3310969095,-0.10291362300000001,0.05125434
10:25:42,-0.48745736,0.23580225,-2.63691867,-0.07220433999999999,-0.11063341,-0.3443795,-32.6927177,-0.13153609,-16.50646543,67.9124155,-2.540828516,0.31060129999999997,-0.12635007419,-0.33056255139999996,-0.1014742696,0.049826316
10:25:42,-0.47493942,0.242140125,-2.624288115,-0.07202323,-0.108827645,-0.34431025000000004,-32.651431650000006,-0.145191105,-16.523249335,67.80840475,-2.520668252,0.31463454999999996,-0.137379382055,-0.3300281933,-0.1000349162,0.048398292
10:25:42,-0.46242148,0.248478,-2.6116575600000003,-0.07184212,-0.10702188000000001,-0.344241,-32.6101456,-0.15884612,-16.54003324,67.704394,-2.5005079880000003,0.3186678,-0.14840868992,-0.3294938352,-0.09859556280000001,0.046970268
10:25:42,-0.44990354,0.254815875,-2.599027005,-0.07166101,-0.105216115,-0.34417175,-32.568859550000006,-0.17250113500000003,-16.556817145,67.60038325,-2.480347724,0.32270105,-0.159437997785,-0.32895947709999995,-0.0971562094,0.045542244
10:25:42,-0.4373856,0.26115375,-2.58639645,-0.0714799,-0.10341035000000001,-0.34410250000000003,-32.5275735,-0.18615615000000002,-16.57360105,67.49637249999999,-2.46018746,0.3267343,-0.17046730564999998,-0.328425119,-0.095716856,0.04411422
10:25:42,-0.42486766,0.267491625,-2.573765895,-0.07129879,-0.10160458500000001,-0.34403325,-32.486287450000006,-0.199811165,-16.590384955,67.39236174999999,-2.440027196,0.33076754999999997,-0.181496613515,-0.32789076089999997,-0.09427750260000001,0.042686196
10:25:42,-0.41234972000000003,0.2738295,-2.5611353400000003,-0.07111767999999999,-0.09979882000000001,-0.343964,-32.4450014,-0.21346618,-16.607168859999998,67.28835099999999,-2.419866932,0.3348008,-0.19252592138,-0.3273564028,-0.0928381492,0.041258172
10:25:42,-0.39983177999999997,0.280167375,-2.548504785,-0.07093656999999999,-0.09799305500000001,-0.34389475,-32.403715350000006,-0.227121195,-16.623952765,67.18434024999999,-2.3997066680000003,0.33883405,-0.203555229245,-0.3268220447,-0.0913987958,0.039830148
10:25:42,-0.38731384,0.28650525,-2.53587423,-0.07075545999999999,-0.09618729000000001,-0.3438255,-32.3624293,-0.24077621,-16.64073667,67.0803295,-2.379546404,0.3428673,-0.21458453710999997,-0.32628768659999996,-0.0899594424,0.038402124
10:25:42,-0.3747959,0.292843125,-2.5232436750000002,-0.07057435,-0.09438152500000001,-0.34375625000000004,-32.321143250000006,-0.25443122500000004,-16.657520575,66.97631875,-2.3593861400000002,0.34690055,-0.22561384497499998,-0.3257533285,-0.088520089,0.0369741
10:25:42,-0.36227796,0.29918100000000003,-2.5106131200000004,-0.07039324,-0.09257576,-0.343687,-32.2798572,-0.26808624000000003,-16.67430448,66.872308,-2.339225876,0.35093379999999996,-0.23664315283999998,-0.3252189704,-0.0870807356,0.035546076
10:25:42,-0.34976002,0.30551887499999997,-2.497982565,-0.07021213,-0.090769995,-0.34361775,-32.238571150000006,-0.281741255,-16.691088385,66.76829725,-2.319065612,0.35496705,-0.24767246070499999,-0.32468461229999995,-0.0856413822,0.034118052
10:25:42,-0.33724208,0.31185675,-2.48535201,-0.07003102,-0.08896423,-0.34354850000000003,-32.1972851,-0.29539627,-16.70787229,66.6642865,-2.298905348,0.3590003,-0.25870176857,-0.3241502542,-0.08420202880000001,0.032690028
10:25:42,-0.32472414000000005,0.318194625,-2.4727214550000003,-0.06984991,-0.087158465,-0.34347925,-32.155999050000005,-0.309051285,-16.724656194999998,66.56027575,-2.278745084,0.36303355,-0.26973107643499994,-0.32361589609999997,-0.0827626754,0.031262004
10:25:42,-0.3122062,0.3245325,-2.4600909,-0.06966879999999999,-0.0853527,-0.34341,-32.114713,-0.3227063,-16.7414401,66.456265,-2.2585848200000003,0.3670668,-0.28076038429999994,-0.323081538,-0.081323322,0.029833980000000003
10:25:42,-0.29968826000000004,0.330870375,-2.447460345,-0.06948768999999999,-0.08354693500000002,-0.34334075000000003,-32.073426950000005,-0.336361315,-16.758224005,66.35225425,-2.238424556,0.37110005,-0.29178969216499995,-0.3225471799,-0.07988396860000001,0.028405956000000003
10:25:42,-0.28717032000000003,0.33720825,-2.43482979,-0.06930657999999999,-0.08174117,-0.3432715,-32.0321409,-0.35001633,-16.77500791,66.2482435,-2.218264292,0.3751333,-0.30281900002999995,-0.32201282179999996,-0.07844461520000001,0.026977932000000003
10:25:42,-0.27465238000000003,0.34354612500000004,-2.422199235,-0.06912547,-0.07993540500000001,-0.34320225000000004,-31.99085485,-0.36367134500000003,-16.791791815,66.14423275,-2.198104028,0.37916655,-0.31384830789499996,-0.3214784637,-0.0770052618,0.025549908000000003
10:25:42,-0.26213444,0.349884,-2.40956868,-0.06894436,-0.07812964,-0.343133,-31.9495688,-0.37732636,-16.80857572,66.040222,-2.177943764,0.3831998,-0.32487761575999996,-0.3209441056,-0.0755659084,0.024121884000000003
10:25:42,-0.24961650000000002,0.356221875,-2.396938125,-0.06876325,-0.07632387500000001,-0.34306375,-31.90828275,-0.390981375,-16.825359625,65.93621125,-2.1577835,0.38723304999999997,-0.33590692362499996,-0.32040974749999995,-0.07412655500000001,0.022693860000000003
10:25:42,-0.23709856,0.36255974999999996,-2.3843075700000003,-0.06858214,-0.07451811,-0.34299450000000004,-31.8669967,-0.40463639,-16.84214353,65.8322005,-2.137623236,0.3912663,-0.34693623148999997,-0.3198753894,-0.0726872016,0.021265836000000003
10:25:42,-0.22458062,0.368897625,-2.371677015,-0.06840103,-0.07271234500000001,-0.34292525,-31.82571065,-0.418291405,-16.858927435,65.72818975,-2.117462972,0.39529955,-0.357965539355,-0.31934103129999997,-0.0712478482,0.019837812000000003
10:25:42,-0.21206268000000006,0.3752355,-2.35904646,-0.06821991999999999,-0.07090658000000001,-0.342856,-31.7844246,-0.43194642,-16.87571134,65.624179,-2.097302708,0.3993328,-0.36899484722,-0.3188066732,-0.06980849480000001,0.018409788000000003
10:25:42,-0.19954474000000005,0.381573375,-2.346415905,-0.06803880999999999,-0.06910081500000001,-0.34278675000000003,-31.74313855,-0.44560143500000005,-16.892495245,65.52016825,-2.077142444,0.40336605,-0.380024155085,-0.3182723151,-0.0683691414,0.016981764000000003
10:25:42,-0.18702680000000005,0.38791125000000004,-2.3337853500000003,-0.06785769999999999,-0.06729505000000001,-0.3427175,-31.7018525,-0.45925645000000004,-16.90927915,65.4161575,-2.05698218,0.4073993,-0.39105346295,-0.31773795699999996,-0.066929788,0.015553740000000003
10:25:42,-0.17450886000000004,0.394249125,-2.321154795,-0.06767659,-0.06548928500000001,-0.34264825,-31.660566450000005,-0.47291146500000003,-16.926063055,65.31214675,-2.036821916,0.41143255,-0.402082770815,-0.3172035989,-0.06549043460000001,0.014125716000000003
10:25:42,-0.16199092000000004,0.400587,-2.30852424,-0.06749548,-0.06368352000000001,-0.342579,-31.6192804,-0.48656648,-16.94284696,65.208136,-2.016661652,0.4154658,-0.41311207868,-0.3166692408,-0.0640510812,0.012697692000000003
10:25:42,-0.14947298000000003,0.40692487499999996,-2.2958936850000002,-0.06731437,-0.061877755000000007,-0.34250975,-31.577994350000004,-0.500221495,-16.959630865,65.10412525,-1.996501388,0.41949905,-0.424141386545,-0.31613488269999995,-0.0626117278,0.011269668000000004
10:25:42,-0.13695504000000003,0.41326275,-2.28326313,-0.06713326,-0.060071990000000006,-0.34244050000000004,-31.5367083,-0.51387651,-16.976414769999998,65.0001145,-1.9763411240000002,0.4235323,-0.43517069441,-0.3156005246,-0.06117237440000001,0.009841644000000004
10:25:42,-0.12443710000000002,0.419600625,-2.270632575,-0.06695215,-0.058266225000000005,-0.34237125,-31.495422250000004,-0.527531525,-16.993198675,64.89610375,-1.95618086,0.42756554999999996,-0.446200002275,-0.31506616649999997,-0.059733021000000004,0.008413620000000004
10:25:42,-0.11191916000000002,0.4259385,-2.25800202,-0.06677103999999999,-0.056460460000000004,-0.342302,-31.454136200000004,-0.5411865400000001,-17.00998258,64.792093,-1.936020596,0.4315988,-0.45722931014,-0.3145318084,-0.05829366760000001,0.006985596000000004
10:25:42,-0.09940122000000007,0.432276375,-2.2453714650000003,-0.06658992999999999,-0.054654695,-0.34223275000000003,-31.412850150000004,-0.5548415550000001,-17.026766485,64.68808225,-1.915860332,0.43563205,-0.468258618005,-0.3139974503,-0.056854314200000006,0.005557572000000004
10:25:42,-0.08688328000000006,0.43861425,-2.23274091,-0.06640882,-0.05284893,-0.3421635,-31.371564100000004,-0.5684965700000001,-17.04355039,64.5840715,-1.895700068,0.43966530000000004,-0.4792879258699999,-0.31346309219999996,-0.0554149608,0.004129548000000004
10:25:42,-0.07436534000000006,0.44495212500000003,-2.220110355,-0.06622771,-0.051043165,-0.34209425,-31.330278050000004,-0.5821515850000001,-17.060334295,64.48006074999999,-1.875539804,0.44369855,-0.4903172337349999,-0.3129287341,-0.05397560740000001,0.0027015240000000038
10:25:42,-0.0618474,0.45128999999999997,-2.2074798,-0.0660466,-0.0492374,-0.342025,-31.288992000000004,-0.5958066000000001,-17.0771182,64.37604999999999,-1.85537954,0.4477318,-0.5013465415999999,-0.312394376,-0.052536254000000004,0.0012735000000000038
10:25:42,-0.04932946000000005,0.457627875,-2.1948492450000003,-0.06586549,-0.047431635000000014,-0.34195575,-31.247705950000004,-0.6094616150000001,-17.093902104999998,64.27203924999999,-1.8352192760000001,0.45176505,-0.5123758494649999,-0.31186001789999995,-0.05109690060000001,-0.00015452399999999616
10:25:42,-0.0368115200000001,0.46396574999999995,-2.18221869,-0.06568438,-0.04562587000000001,-0.34188650000000004,-31.206419900000004,-0.6231166300000001,-17.11068601,64.16802849999999,-1.8150590119999999,0.4557983,-0.5234051573299999,-0.3113256598,-0.049657547200000006,-0.0015825479999999961
10:25:42,-0.024293580000000037,0.470303625,-2.169588135,-0.06550327,-0.04382010500000001,-0.34181725,-31.165133850000004,-0.636771645,-17.127469915,64.06401775,-1.794898748,0.45983155,-0.5344344651949999,-0.31079130169999997,-0.0482181938,-0.003010571999999996
10:25:42,-0.011775640000000087,0.47664150000000005,-2.1569575800000003,-0.06532215999999999,-0.04201434000000001,-0.341748,-31.123847800000004,-0.65042666,-17.14425382,63.960007,-1.774738484,0.46386479999999997,-0.5454637730599999,-0.3102569436,-0.04677884040000001,-0.004438595999999996
10:25:42,0.0007422999999999735,0.482979375,-2.144327025,-0.06514104999999999,-0.04020857500000001,-0.34167875000000003,-31.082561750000004,-0.6640816750000001,-17.161037725,63.85599625,-1.75457822,0.46789805,-0.5564930809249999,-0.3097225855,-0.04533948700000001,-0.005866619999999996
10:25:42,0.013260239999999923,0.48931725000000004,-2.13169647,-0.06495994,-0.03840281000000001,-0.3416095,-31.041275700000003,-0.6777366900000001,-17.17782163,63.751985499999996,-1.734417956,0.4719313,-0.5675223887899999,-0.30918822739999996,-0.0439001336,-0.007294643999999996
10:25:42,0.025778179999999984,0.495655125,-2.119065915,-0.06477883,-0.03659704500000001,-0.34154025,-30.999989650000003,-0.6913917050000001,-17.194605535,63.647974749999996,-1.7142576919999999,0.47596455000000004,-0.578551696655,-0.3086538693,-0.042460780200000006,-0.008722667999999996
10:25:42,0.038296119999999934,0.501993,-2.10643536,-0.06459772,-0.03479128000000001,-0.341471,-30.958703600000003,-0.7050467200000001,-17.21138944,63.543963999999995,-1.694097428,0.47999780000000003,-0.58958100452,-0.3081195112,-0.04102142680000001,-0.010150691999999996
10:25:42,0.05081405999999988,0.508330875,-2.093804805,-0.06441661,-0.03298551500000001,-0.34140175,-30.917417550000003,-0.7187017350000001,-17.228173345,63.43995325,-1.6739371639999998,0.48403105,-0.600610312385,-0.3075851531,-0.0395820734,-0.011578715999999996
10:25:42,0.06333199999999994,0.51466875,-2.08117425,-0.0642355,-0.031179750000000006,-0.34133250000000004,-30.876131500000003,-0.7323567500000001,-17.24495725,63.3359425,-1.6537769,0.4880643,-0.61163962025,-0.307050795,-0.038142720000000005,-0.013006739999999996
10:25:42,0.0758499399999999,0.521006625,-2.0685436950000002,-0.06405438999999999,-0.029373985000000005,-0.34126325,-30.834845450000003,-0.7460117650000001,-17.261741155,63.23193175,-1.633616636,0.49209755,-0.622668928115,-0.30651643689999997,-0.03670336660000001,-0.014434763999999996
10:25:42,0.08836787999999995,0.5273445,-2.0559131400000004,-0.06387327999999999,-0.027568220000000004,-0.341194,-30.793559400000003,-0.7596667800000001,-17.27852506,63.127921,-1.613456372,0.4961308,-0.63369823598,-0.3059820788,-0.03526401320000001,-0.015862787999999996
10:25:42,0.1008858199999999,0.533682375,-2.043282585,-0.06369216999999999,-0.025762455000000004,-0.34112475000000003,-30.752273350000003,-0.7733217950000001,-17.295308965,63.02391025,-1.5932961079999999,0.50016405,-0.644727543845,-0.3054477207,-0.033824659800000004,-0.017290811999999996
10:25:42,0.11340375999999996,0.54002025,-2.03065203,-0.06351106,-0.023956690000000003,-0.3410555,-30.710987300000003,-0.7869768100000001,-17.31209287,62.9198995,-1.5731358439999998,0.5041973,-0.6557568517099999,-0.30491336259999996,-0.03238530640000001,-0.018718835999999996
10:25:42,0.12592169999999991,0.546358125,-2.0180214750000003,-0.06332995,-0.022150925000000002,-0.34098625,-30.669701250000003,-0.8006318250000001,-17.328876775,62.81588875,-1.55297558,0.50823055,-0.6667861595749999,-0.3043790045,-0.030945953000000012,-0.020146859999999996
10:25:42,0.13843963999999986,0.552696,-2.00539092,-0.06314884,-0.020345160000000015,-0.340917,-30.628415200000003,-0.8142868400000001,-17.345660679999998,62.711878,-1.532815316,0.5122637999999999,-0.6778154674399999,-0.3038446464,-0.029506599600000002,-0.021574883999999996
10:25:42,0.15095757999999992,0.559033875,-1.992760365,-0.06296773,-0.018539395000000014,-0.34084775,-30.587129150000003,-0.8279418550000001,-17.362444585,62.60786725,-1.512655052,0.51629705,-0.6888447753049999,-0.30331028829999995,-0.028067246200000007,-0.023002907999999996
10:25:42,0.16347551999999987,0.56537175,-1.9801298100000002,-0.06278662,-0.016733630000000013,-0.3407785,-30.545843100000003,-0.8415968700000002,-17.37922849,62.5038565,-1.492494788,0.5203303,-0.6998740831699999,-0.3027759302,-0.02662789280000001,-0.024430931999999995
10:25:42,0.17599345999999993,0.571709625,-1.9674992550000001,-0.06260551,-0.014927865000000012,-0.34070925,-30.504557050000003,-0.8552518850000002,-17.396012395,62.39984575,-1.4723345239999999,0.52436355,-0.7109033910349999,-0.30224157209999997,-0.0251885394,-0.025858955999999995
10:25:42,0.18851139999999988,0.5780475,-1.9548687,-0.0624244,-0.013122100000000012,-0.34064,-30.463271000000002,-0.8689069000000001,-17.4127963,62.295835,-1.4521742599999998,0.5283968,-0.7219326988999999,-0.301707214,-0.023749186000000005,-0.027286979999999995
10:25:42,0.20102933999999995,0.584385375,-1.9422381450000001,-0.06224328999999999,-0.01131633500000001,-0.34057075000000003,-30.421984950000002,-0.8825619150000001,-17.429580205,62.191824249999996,-1.432013996,0.53243005,-0.7329620067649999,-0.3011728559,-0.02230983260000001,-0.028715003999999995
10:25:42,0.2135472799999999,0.59072325,-1.92960759,-0.062062179999999995,-0.00951057000000001,-0.3405015,-30.380698900000002,-0.8962169300000001,-17.44636411,62.087813499999996,-1.411853732,0.5364633000000001,-0.7439913146299999,-0.30063849779999996,-0.020870479200000014,-0.030143027999999995
10:25:42,0.22606521999999996,0.597061125,-1.916977035,-0.061881069999999996,-0.007704805000000009,-0.34043225,-30.339412850000002,-0.9098719450000001,-17.463148015,61.983802749999995,-1.391693468,0.5404965500000001,-0.7550206224949999,-0.3001041397,-0.019431125800000004,-0.031571051999999995
10:25:42,0.2385831599999999,0.603399,-1.90434648,-0.06169996,-0.005899040000000008,-0.340363,-30.298126800000002,-0.9235269600000001,-17.47993192,61.879791999999995,-1.371533204,0.5445298000000001,-0.7660499303599999,-0.2995697816,-0.01799177240000001,-0.032999075999999995
10:25:42,0.25110109999999985,0.609736875,-1.8917159250000002,-0.06151885,-0.004093275000000007,-0.34029375,-30.256840750000002,-0.9371819750000001,-17.496715825,61.77578125,-1.3513729399999999,0.54856305,-0.7770792382249999,-0.2990354235,-0.016552419000000013,-0.034427099999999995
10:25:42,0.2636190399999999,0.61607475,-1.87908537,-0.061337739999999995,-0.0022875100000000065,-0.3402245,-30.215554700000002,-0.9508369900000001,-17.51349973,61.6717705,-1.3312126759999998,0.5525963,-0.7881085460899999,-0.2985010654,-0.015113065600000003,-0.035855123999999995
10:25:42,0.27613697999999987,0.6224126249999999,-1.866454815,-0.06115663,-0.00048174500000000564,-0.34015525,-30.174268650000002,-0.9644920050000001,-17.530283635,61.56775975,-1.3110524119999998,0.55662955,-0.7991378539549999,-0.29796670729999997,-0.013673712200000007,-0.037283147999999995
10:25:42,0.2886549199999999,0.6287505,-1.8538242600000001,-0.06097552,0.0013240199999999952,-0.340086,-30.132982600000002,-0.9781470200000001,-17.54706754,61.463749,-1.290892148,0.5606628,-0.8101671618199999,-0.2974323492,-0.012234358800000011,-0.038711171999999995
10:25:42,0.3011728599999999,0.635088375,-1.841193705,-0.06079440999999999,0.003129784999999996,-0.34001675000000003,-30.09169655,-0.9918020350000001,-17.563851445,61.35973825,-1.270731884,0.56469605,-0.8211964696849999,-0.2968979911,-0.010795005400000016,-0.040139195999999995
10:25:42,0.31369079999999994,0.64142625,-1.82856315,-0.060613299999999995,0.004935549999999997,-0.3399475,-30.0504105,-1.00545705,-17.58063535,61.2557275,-1.2505716199999999,0.5687293,-0.8322257775499999,-0.29636363299999996,-0.009355652000000006,-0.041567219999999995
10:25:42,0.3262087399999999,0.647764125,-1.815932595,-0.06043219,0.006741314999999984,-0.33987825,-30.00912445,-1.019112065,-17.597419255,61.15171675,-1.2304113559999998,0.57276255,-0.8432550854149999,-0.2958292749,-0.00791629860000001,-0.042995243999999995
10:25:42,0.33872667999999995,0.654102,-1.8033020400000002,-0.06025108,0.008547079999999999,-0.339809,-29.9678384,-1.0327670800000002,-17.61420316,61.047706,-1.2102510919999998,0.5767958,-0.8542843932799999,-0.2952949168,-0.006476945200000014,-0.044423267999999995
10:25:42,0.3512446199999999,0.660439875,-1.790671485,-0.06006997,0.010352844999999986,-0.33973975,-29.92655235,-1.046422095,-17.630987065,60.94369525,-1.1900908279999998,0.58082905,-0.865313701145,-0.29476055869999995,-0.005037591800000005,-0.045851291999999995
10:25:42,0.36376255999999985,0.66677775,-1.77804093,-0.059888859999999995,0.01215861,-0.3396705,-29.8852663,-1.0600771100000002,-17.64777097,60.8396845,-1.169930564,0.5848623,-0.87634300901,-0.2942262006,-0.003598238400000009,-0.047279315999999995
10:25:42,0.3762804999999999,0.673115625,-1.765410375,-0.05970775,0.013964374999999987,-0.33960125,-29.84398025,-1.073732125,-17.664554875,60.73567375,-1.1497703,0.5888955499999999,-0.8873723168749998,-0.29369184249999997,-0.002158885000000013,-0.048707339999999995
10:25:42,0.38879843999999986,0.6794535,-1.75277982,-0.05952664,0.015770140000000002,-0.339532,-29.8026942,-1.0873871400000001,-17.68133878,60.631662999999996,-1.1296100359999999,0.5929288,-0.8984016247399998,-0.2931574844,-0.0007195316000000035,-0.050135363999999995
10:25:42,0.4013163799999999,0.685791375,-1.740149265,-0.059345529999999994,0.01757590499999999,-0.33946275000000004,-29.76140815,-1.1010421550000002,-17.698122685,60.52765225,-1.1094497719999998,0.59696205,-0.9094309326049999,-0.2926231263,0.0007198217999999923,-0.051563387999999995
10:25:42,0.41383431999999987,0.69212925,-1.72751871,-0.059164419999999995,0.019381670000000004,-0.3393935,-29.7201221,-1.1146971700000001,-17.71490659,60.4236415,-1.0892895079999998,0.6009953,-0.9204602404699999,-0.29208876819999996,0.002159175199999988,-0.052991411999999995
10:25:42,0.4263522599999999,0.698467125,-1.7148881550000001,-0.05898331,0.02118743499999999,-0.33932425,-29.67883605,-1.1283521850000002,-17.731690495,60.31963075,-1.0691292439999998,0.60502855,-0.9314895483349999,-0.2915544101,0.003598528599999984,-0.054419435999999995
10:25:42,0.4388702,0.704805,-1.7022576,-0.0588022,0.022993200000000005,-0.33925500000000003,-29.63755,-1.1420072000000001,-17.7484744,60.21562,-1.0489689799999997,0.6090618000000001,-0.9425188561999999,-0.291020052,0.0050378819999999935,-0.055847459999999995
10:25:42,0.45138813999999994,0.7111428750000001,-1.689627045,-0.05862109,0.024798964999999992,-0.33918575,-29.59626395,-1.1556622150000002,-17.765258305,60.11160925,-1.028808716,0.6130950500000001,-0.9535481640649999,-0.2904856939,0.006477235399999989,-0.057275483999999995
10:25:42,0.4639060799999999,0.71748075,-1.67699649,-0.058439979999999996,0.02660472999999998,-0.3391165,-29.5549779,-1.16931723,-17.78204221,60.0075985,-1.0086484519999999,0.6171283000000001,-0.9645774719299999,-0.2899513358,0.007916588799999985,-0.058703507999999995
10:25:42,0.47642401999999984,0.723818625,-1.664365935,-0.05825887,0.028410494999999994,-0.33904725,-29.51369185,-1.1829722450000002,-17.798826115,59.90358775,-0.9884881879999998,0.6211615500000001,-0.9756067797949999,-0.28941697769999997,0.009355942199999995,-0.060131531999999994
10:25:42,0.4889419599999998,0.7301565,-1.65173538,-0.05807776,0.03021625999999998,-0.338978,-29.4724058,-1.19662726,-17.81561002,59.799577,-0.9683279239999998,0.6251948,-0.9866360876599999,-0.2888826196,0.01079529559999999,-0.061559555999999994
10:25:42,0.5014599,0.736494375,-1.639104825,-0.057896649999999994,0.032022024999999996,-0.33890875,-29.43111975,-1.2102822750000002,-17.832393925,59.69556625,-0.9481676599999997,0.62922805,-0.9976653955249999,-0.2883482615,0.012234648999999986,-0.06298757999999999
10:25:42,0.5139778399999999,0.74283225,-1.62647427,-0.057715539999999996,0.03382778999999998,-0.3388395,-29.3898337,-1.22393729,-17.84917783,59.5915555,-0.9280073959999997,0.6332613,-1.00869470339,-0.28781390339999996,0.013674002399999996,-0.06441560399999999
10:25:42,0.5264957799999999,0.749170125,-1.613843715,-0.05753443,0.035633555,-0.33877025,-29.34854765,-1.2375923050000002,-17.865961735,59.48754475,-0.9078471319999999,0.63729455,-1.019724011255,-0.2872795453,0.015113355799999978,-0.06584362799999999
10:25:42,0.5390137199999998,0.7555080000000001,-1.60121316,-0.05735332,0.037439319999999984,-0.33870100000000003,-29.3072616,-1.25124732,-17.88274564,59.383534,-0.8876868679999999,0.6413278,-1.03075331912,-0.2867451872,0.016552709199999988,-0.06727165199999999
10:25:42,0.5515316599999998,0.761845875,-1.588582605,-0.05717221,0.039245085,-0.33863175,-29.26597555,-1.2649023350000002,-17.899529545,59.27952325,-0.8675266039999998,0.64536105,-1.041782626985,-0.28621082909999995,0.017992062599999997,-0.06869967599999999
10:25:42,0.5640495999999999,0.76818375,-1.57595205,-0.056991099999999996,0.041050849999999986,-0.3385625,-29.2246895,-1.2785573500000003,-17.91631345,59.175512499999996,-0.8473663399999998,0.6493943,-1.05281193485,-0.285676471,0.01943141599999998,-0.07012769999999999
10:25:42,0.5765675399999999,0.774521625,-1.563321495,-0.05680999,0.042856615,-0.33849325,-29.18340345,-1.2922123650000001,-17.933097355,59.071501749999996,-0.8272060759999997,0.65342755,-1.063841242715,-0.28514211289999997,0.02087076939999999,-0.07155572399999999
10:25:42,0.5890854799999998,0.7808595,-1.55069094,-0.05662887999999999,0.04466237999999999,-0.338424,-29.142117400000004,-1.3058673800000002,-17.94988126,58.967490999999995,-0.8070458119999997,0.6574608,-1.07487055058,-0.2846077548,0.0223101228,-0.07298374799999999
10:25:42,0.6016034199999998,0.787197375,-1.538060385,-0.056447769999999994,0.046468145,-0.33835475,-29.10083135,-1.3195223950000001,-17.966665165,58.863480249999995,-0.7868855479999999,0.66149405,-1.085899858445,-0.2840733967,0.02374947619999998,-0.07441177199999999
10:25:42,0.61412136,0.79353525,-1.52542983,-0.056266659999999996,0.04827390999999999,-0.3382855,-29.059545300000003,-1.3331774100000002,-17.98344907,58.759469499999994,-0.7667252839999998,0.6655273,-1.09692916631,-0.28353903859999996,0.02518882959999999,-0.07583979599999999
10:25:42,0.6266392999999999,0.799873125,-1.512799275,-0.05608555,0.050079675000000004,-0.33821625,-29.01825925,-1.346832425,-18.000232975,58.65545875,-0.7465650199999998,0.66956055,-1.107958474175,-0.2830046805,0.026628183,-0.07726781999999999
10:25:42,0.6391572399999998,0.806211,-1.50016872,-0.05590444,0.05188543999999999,-0.33814700000000003,-28.976973200000003,-1.3604874400000002,-18.01701688,58.551448,-0.7264047559999998,0.6735938,-1.11898778204,-0.2824703224,0.02806753639999998,-0.07869584399999999
10:25:42,0.6516751799999998,0.8125488750000001,-1.487538165,-0.05572333,0.05369120499999998,-0.33807775,-28.93568715,-1.374142455,-18.033800785,58.44743725,-0.7062444919999997,0.67762705,-1.130017089905,-0.2819359643,0.02950688979999999,-0.08012386799999999
10:25:42,0.6641931199999997,0.81888675,-1.47490761,-0.055542219999999996,0.05549696999999999,-0.3380085,-28.894401100000003,-1.3877974700000002,-18.05058469,58.3434265,-0.6860842279999997,0.6816603,-1.14104639777,-0.2814016062,0.0309462432,-0.08155189199999999
10:25:42,0.6767110599999999,0.825224625,-1.462277055,-0.05536111,0.05730273499999998,-0.33793925,-28.85311505,-1.401452485,-18.067368595,58.23941575,-0.6659239639999996,0.6856935500000001,-1.152075705635,-0.28086724809999997,0.03238559659999998,-0.08297991599999999
10:25:42,0.6892289999999999,0.8315625,-1.4496465,-0.05517999999999999,0.059108499999999994,-0.33787,-28.811829000000003,-1.4151075000000002,-18.084152500000002,58.135405,-0.6457636999999998,0.6897268000000001,-1.1631050135,-0.28033289,0.03382494999999999,-0.08440793999999999
10:25:42,0.7017469399999998,0.837900375,-1.437015945,-0.054998889999999995,0.06091426499999998,-0.33780075,-28.77054295,-1.428762515,-18.100936405,58.03139425,-0.6256034359999996,0.6937600500000001,-1.174134321365,-0.2797985319,0.035264303399999974,-0.08583596399999999
10:25:42,0.7142648799999998,0.84423825,-1.42438539,-0.054817779999999997,0.06272003,-0.3377315,-28.729256900000003,-1.4424175300000002,-18.11772031,57.9273835,-0.6054431719999998,0.6977933000000001,-1.18516362923,-0.2792641738,0.036703656799999984,-0.08726398799999999
10:25:42,0.7267828199999999,0.850576125,-1.411754835,-0.05463667,0.06452579499999998,-0.33766225,-28.68797085,-1.4560725450000003,-18.134504215,57.82337275,-0.5852829079999999,0.70182655,-1.196192937095,-0.2787298157,0.038143010199999994,-0.08869201199999999
10:25:42,0.7393007599999999,0.856914,-1.39912428,-0.05445556,0.06633156,-0.33759300000000003,-28.646684800000003,-1.4697275600000002,-18.15128812,57.719362,-0.5651226439999997,0.7058598,-1.20722224496,-0.2781954576,0.039582363599999976,-0.09012003599999999
10:25:42,0.7518186999999998,0.863251875,-1.386493725,-0.05427445,0.06813732499999998,-0.33752375,-28.605398750000003,-1.4833825750000003,-18.168072025,57.61535125,-0.5449623799999999,0.70989305,-1.218251552825,-0.2776610995,0.041021716999999985,-0.09154805999999999
10:25:42,0.7643366399999998,0.86958975,-1.37386317,-0.05409334,0.06994309,-0.3374545,-28.564112700000003,-1.4970375900000001,-18.18485593,57.5113405,-0.5248021159999996,0.7139263,-1.22928086069,-0.2771267414,0.042461070399999995,-0.09297608399999999
10:25:42,0.7768545799999997,0.875927625,-1.361232615,-0.05391223,0.07174885499999999,-0.33738525,-28.522826650000003,-1.5106926050000002,-18.201639835,57.40732975,-0.5046418519999998,0.71795955,-1.240310168555,-0.27659238329999997,0.04390042379999998,-0.09440410799999999
10:25:42,0.7893725199999999,0.8822655,-1.34860206,-0.05373111999999999,0.07355462,-0.337316,-28.481540600000002,-1.5243476200000001,-18.21842374,57.303319,-0.4844815879999995,0.7219928,-1.2513394764199999,-0.2760580252,0.04533977719999999,-0.09583213199999999
10:25:42,0.8018904599999999,0.888603375,-1.335971505,-0.053550009999999995,0.07536038499999999,-0.33724675,-28.440254550000002,-1.5380026350000002,-18.235207645,57.19930825,-0.4643213239999997,0.72602605,-1.262368784285,-0.2755236671,0.046779130599999996,-0.09726015599999999
10:25:42,0.8144083999999998,0.89494125,-1.32334095,-0.0533689,0.07716615,-0.3371775,-28.398968500000002,-1.55165765,-18.25199155,57.0952975,-0.4441610599999999,0.7300593,-1.2733980921499999,-0.27498930899999996,0.04821848399999998,-0.09868817999999999
10:25:42,0.8269263399999998,0.901279125,-1.310710395,-0.05318779,0.07897191499999999,-0.33710825,-28.357682450000002,-1.5653126650000002,-18.268775455,56.99128675,-0.4240007959999996,0.73409255,-1.284427400015,-0.2744549509,0.04965783739999999,-0.10011620399999999
10:25:42,0.8394442799999997,0.907617,-1.29807984,-0.05300668,0.08077767999999998,-0.337039,-28.316396400000002,-1.57896768,-18.28555936,56.887276,-0.4038405319999998,0.7381257999999999,-1.29545670788,-0.2739205928,0.0510971908,-0.10154422799999999
10:25:42,0.8519622199999999,0.913954875,-1.2854492849999999,-0.05282557,0.08258344499999999,-0.33696975,-28.275110350000002,-1.5926226950000002,-18.302343265,56.78326525,-0.38368026799999955,0.74215905,-1.306486015745,-0.2733862347,0.05253654419999998,-0.10297225199999999
10:25:42,0.8644801599999998,0.92029275,-1.27281873,-0.05264446,0.08438920999999998,-0.3369005,-28.233824300000002,-1.60627771,-18.31912717,56.6792545,-0.36352000399999973,0.7461923,-1.31751532361,-0.2728518766,0.05397589759999999,-0.10440027599999999
10:25:42,0.8769980999999998,0.926630625,-1.260188175,-0.05246335,0.086194975,-0.33683125,-28.192538250000002,-1.6199327250000002,-18.335911075,56.57524375,-0.34335973999999947,0.75022555,-1.328544631475,-0.27231751849999997,0.055415251,-0.10582829999999999
10:25:42,0.8895160399999997,0.9329685,-1.24755762,-0.052282239999999994,0.08800073999999998,-0.336762,-28.151252200000002,-1.6335877400000003,-18.35269498,56.471233,-0.32319947599999965,0.7542588,-1.33957393934,-0.2717831604,0.05685460439999998,-0.10725632399999999
10:25:42,0.9020339799999999,0.939306375,-1.234927065,-0.052101129999999996,0.089806505,-0.33669275,-28.10996615,-1.6472427550000002,-18.369478885,56.36722225,-0.30303921199999984,0.7582920500000001,-1.350603247205,-0.2712488023,0.05829395779999999,-0.10868434799999999
10:25:42,0.9145519199999999,0.94564425,-1.22229651,-0.05192002,0.09161226999999998,-0.3366235,-28.0686801,-1.6608977700000003,-18.38626279,56.2632115,-0.2828789479999996,0.7623253000000001,-1.36163255507,-0.2707144442,0.0597333112,-0.11011237199999999
10:25:42,0.9270698599999998,0.951982125,-1.209665955,-0.05173891,0.093418035,-0.33655425,-28.02739405,-1.6745527850000002,-18.403046695,56.15920075,-0.26271868399999976,0.7663585500000001,-1.372661862935,-0.2701800861,0.06117266459999998,-0.11154039599999999
10:25:42,0.9395877999999998,0.9583200000000001,-1.1970353999999999,-0.0515578,0.09522379999999998,-0.336485,-27.986108,-1.6882078000000003,-18.4198306,56.055189999999996,-0.2425584199999995,0.7703918000000001,-1.3836911708,-0.269645728,0.06261201799999999,-0.11296841999999999
10:25:42,0.9521057399999997,0.964657875,-1.184404845,-0.05137669,0.097029565,-0.33641575,-27.94482195,-1.7018628150000001,-18.436614505,55.951179249999996,-0.22239815599999968,0.7744250500000001,-1.394720478665,-0.26911136989999995,0.06405137139999997,-0.11439644399999999
10:25:42,0.9646236799999999,0.97099575,-1.1717742899999999,-0.05119558,0.09883532999999999,-0.3363465,-27.9035359,-1.7155178300000002,-18.45339841,55.847168499999995,-0.20223789199999986,0.7784583,-1.40574978653,-0.2685770118,0.06549072479999998,-0.11582446799999999
10:25:42,0.9771416199999998,0.977333625,-1.159143735,-0.05101447,0.100641095,-0.33627725,-27.86224985,-1.7291728450000001,-18.470182315,55.74315775,-0.1820776279999996,0.78249155,-1.416779094395,-0.26804265369999997,0.06693007819999999,-0.11725249199999999
10:25:42,0.9896595599999998,0.9836715,-1.14651318,-0.050833359999999994,0.10244685999999999,-0.336208,-27.8209638,-1.7428278600000002,-18.48696622,55.639147,-0.16191736399999979,0.7865248,-1.42780840226,-0.2675082956,0.06836943159999997,-0.11868051599999999
10:25:42,1.0021774999999997,0.990009375,-1.133882625,-0.050652249999999996,0.104252625,-0.33613875,-27.77967775,-1.756482875,-18.503750125,55.53513625,-0.14175709999999953,0.79055805,-1.438837710125,-0.2669739375,0.06980878499999998,-0.12010853999999999
10:25:42,1.01469544,0.99634725,-1.12125207,-0.05047114,0.10605838999999999,-0.3360695,-27.7383917,-1.7701378900000002,-18.52053403,55.4311255,-0.12159683599999971,0.7945913,-1.44986701799,-0.26643957939999996,0.0712481384,-0.12153656399999999
10:25:42,1.0272133799999998,1.002685125,-1.108621515,-0.05029003,0.107864155,-0.33600025,-27.69710565,-1.783792905,-18.537317935,55.32711475,-0.10143657199999945,0.79862455,-1.460896325855,-0.2659052213,0.07268749179999998,-0.12296458799999999
10:25:42,1.0397313199999998,1.009023,-1.09599096,-0.05010892,0.10966991999999999,-0.335931,-27.6558196,-1.7974479200000002,-18.55410184,55.223104,-0.08127630799999963,0.8026578,-1.47192563372,-0.2653708632,0.07412684519999999,-0.12439261199999999
10:25:42,1.0522492599999997,1.015360875,-1.0833604049999999,-0.049927809999999996,0.11147568499999998,-0.33586175,-27.61453355,-1.8111029350000003,-18.570885745000002,55.11909325,-0.061116043999999814,0.80669105,-1.4829549415849999,-0.2648365051,0.0755661986,-0.12582063599999999
10:25:42,1.0647671999999997,1.0216987499999999,-1.07072985,-0.0497467,0.11328144999999999,-0.3357925,-27.5732475,-1.8247579500000002,-18.587669650000002,55.0150825,-0.04095577999999955,0.8107243,-1.49398424945,-0.264302147,0.07700555199999998,-0.12724865999999999
10:25:42,1.0772851399999999,1.028036625,-1.0580992949999999,-0.04956558999999999,0.11508721499999998,-0.33572325000000003,-27.53196145,-1.8384129650000003,-18.604453555,54.91107175,-0.020795515999999736,0.8147575499999999,-1.5050135573149999,-0.26376778889999997,0.07844490539999999,-0.12867668399999999
10:25:42,1.0898030799999998,1.0343745,-1.04546874,-0.049384479999999994,0.11689298,-0.335654,-27.4906754,-1.8520679800000002,-18.62123746,54.807061,-0.0006352519999994755,0.8187907999999999,-1.51604286518,-0.2632334308,0.0798842588,-0.13010470799999999
10:25:42,1.1023210199999998,1.040712375,-1.032838185,-0.049203369999999996,0.11869874499999998,-0.33558475,-27.44938935,-1.8657229950000003,-18.638021365,54.70305025,0.01952501200000034,0.8228240500000001,-1.5270721730449999,-0.2626990727,0.08132361219999998,-0.13153273199999999
10:25:42,1.1148389599999997,1.0470502499999998,-1.02020763,-0.04902226,0.12050451,-0.3355155,-27.4081033,-1.8793780100000002,-18.65480527,54.5990395,0.0396852760000006,0.8268573000000001,-1.53810148091,-0.2621647146,0.08276296559999999,-0.13296075599999999
10:25:42,1.1273568999999999,1.053388125,-1.007577075,-0.04884115,0.12231027499999998,-0.33544625,-27.36681725,-1.8930330250000003,-18.671589175,54.49502875,0.05984554000000042,0.8308905500000001,-1.5491307887749999,-0.2616303565,0.084202319,-0.13438877999999999
10:25:42,1.1398748399999998,1.059726,-0.9949465200000001,-0.04866004,0.12411604,-0.335377,-27.3255312,-1.9066880400000001,-18.68837308,54.391018,0.08000580400000024,0.8349238000000001,-1.56016009664,-0.2610959984,0.08564167239999998,-0.13581680399999999
10:25:42,1.1523927799999998,1.066063875,-0.982315965,-0.048478929999999996,0.125921805,-0.33530775,-27.28424515,-1.9203430550000002,-18.705156985000002,54.28700725,0.1001660680000005,0.8389570500000001,-1.5711894045049999,-0.2605616403,0.08708102579999999,-0.13724482799999999
10:25:42,1.1649107199999997,1.07240175,-0.9696854099999999,-0.04829782,0.12772757,-0.3352385,-27.2429591,-1.9339980700000001,-18.72194089,54.1829965,0.12032633200000031,0.8429903000000001,-1.58221871237,-0.2600272822,0.08852037919999997,-0.13867285199999999
10:25:42,1.1774286599999997,1.0787396249999999,-0.957054855,-0.04811670999999999,0.12953333499999997,-0.33516925,-27.20167305,-1.9476530850000002,-18.738724795,54.07898575,0.14048659600000057,0.8470235500000001,-1.593248020235,-0.2594929241,0.08995973259999998,-0.14010087599999999
10:25:42,1.1899465999999999,1.0850775,-0.9444242999999999,-0.047935599999999995,0.1313391,-0.3351,-27.160387,-1.9613081,-18.7555087,53.974975,0.1606468600000004,0.8510568000000001,-1.6042773281,-0.258958566,0.09139908599999999,-0.14152889999999999
10:25:42,1.2024645399999998,1.091415375,-0.931793745,-0.04775449,0.133144865,-0.33503075,-27.11910095,-1.9749631150000002,-18.772292605,53.87096425,0.1808071240000002,0.85509005,-1.615306635965,-0.2584242079,0.09283843939999997,-0.14295692399999999
10:25:42,1.2149824799999998,1.09775325,-0.9191631899999999,-0.04757338,0.13495062999999996,-0.3349615,-27.0778149,-1.9886181300000003,-18.78907651,53.7669535,0.20096738800000047,0.8591233,-1.62633594383,-0.25788984979999996,0.09427779279999998,-0.14438494799999999
10:25:42,1.2275004199999997,1.1040911249999998,-0.906532635,-0.04739227,0.13675639499999998,-0.33489225,-27.03652885,-2.002273145,-18.805860415,53.66294275,0.22112765200000029,0.86315655,-1.637365251695,-0.2573554917,0.09571714619999999,-0.14581297199999999
10:25:42,1.2400183599999999,1.1104289999999999,-0.8939020799999999,-0.04721116,0.13856216,-0.334823,-26.9952428,-2.01592816,-18.822644320000002,53.558932,0.24128791600000055,0.8671898,-1.64839455956,-0.2568211336,0.09715649959999997,-0.14724099599999999
10:25:42,1.2525362999999998,1.116766875,-0.8812715249999998,-0.04703005,0.14036792499999995,-0.33475375,-26.95395675,-2.029583175,-18.839428225,53.45492125,0.26144818000000036,0.87122305,-1.659423867425,-0.2562867755,0.09859585299999998,-0.14866901999999999
10:25:42,1.2650542399999998,1.12310475,-0.86864097,-0.04684894,0.14217368999999996,-0.3346845,-26.9126707,-2.0432381900000003,-18.85621213,53.3509105,0.2816084440000006,0.8752563,-1.67045317529,-0.2557524174,0.10003520639999999,-0.15009704399999999
10:25:42,1.2775721799999997,1.129442625,-0.8560104149999999,-0.046667829999999993,0.14397945499999998,-0.33461525,-26.87138465,-2.056893205,-18.872996035,53.24689975,0.30176870800000044,0.87928955,-1.681482483155,-0.25521805929999997,0.10147455979999997,-0.15152506799999998
10:25:42,1.2900901199999997,1.1357804999999999,-0.84337986,-0.046486719999999995,0.14578522,-0.334546,-26.8300986,-2.07054822,-18.88977994,53.142889,0.32192897200000026,0.8833228,-1.69251179102,-0.2546837012,0.10291391319999998,-0.15295309199999998
10:25:42,1.3026080599999998,1.142118375,-0.8307493049999999,-0.04630561,0.14759098499999995,-0.33447675,-26.78881255,-2.084203235,-18.906563845,53.038878249999996,0.3420892360000005,0.88735605,-1.703541098885,-0.2541493431,0.1043532666,-0.15438111599999998
10:25:42,1.3151259999999998,1.14845625,-0.81811875,-0.0461245,0.14939674999999997,-0.3344075,-26.7475265,-2.09785825,-18.92334775,52.934867499999996,0.36224950000000034,0.8913892999999999,-1.7145704067499998,-0.253614985,0.10579261999999998,-0.15580913999999998
10:25:42,1.3276439399999997,1.154794125,-0.8054881949999999,-0.04594339,0.15120251499999998,-0.33433825,-26.70624045,-2.111513265,-18.940131655000002,52.830856749999995,0.3824097640000006,0.8954225500000002,-1.725599714615,-0.2530806269,0.10723197339999999,-0.15723716399999998
10:25:42,1.3401618799999997,1.161132,-0.7928576399999998,-0.04576228,0.15300828,-0.334269,-26.6649544,-2.12516828,-18.95691556,52.726846,0.4025700280000004,0.8994558000000001,-1.7366290224799998,-0.2525462688,0.1086713268,-0.15866518799999998
10:25:42,1.3526798199999996,1.1674698749999999,-0.7802270849999999,-0.04558117,0.15481404499999996,-0.33419975,-26.623668350000003,-2.138823295,-18.973699465,52.62283525,0.4227302920000007,0.9034890500000001,-1.747658330345,-0.2520119107,0.11011068019999998,-0.16009321199999998
10:25:42,1.3651977599999998,1.17380775,-0.7675965299999998,-0.04540006,0.15661980999999997,-0.3341305,-26.5823823,-2.1524783100000002,-18.99048337,52.5188245,0.4428905560000005,0.9075223000000001,-1.7586876382099998,-0.2514775526,0.11155003359999999,-0.16152123599999998
10:25:42,1.3777156999999998,1.180145625,-0.754965975,-0.045218949999999994,0.15842557499999999,-0.33406125,-26.541096250000002,-2.166133325,-19.007267275,52.41481375,0.4630508200000003,0.9115555500000001,-1.769716946075,-0.2509431945,0.112989387,-0.16294925999999998
10:25:42,1.3902336399999997,1.1864835,-0.7423354199999999,-0.045037839999999996,0.16023134,-0.333992,-26.4998102,-2.17978834,-19.02405118,52.310803,0.48321108400000057,0.9155888000000001,-1.7807462539399999,-0.2504088364,0.11442874039999998,-0.16437728399999998
10:25:42,1.4027515799999997,1.1928213749999999,-0.729704865,-0.04485673,0.16203710499999996,-0.33392275,-26.458524150000002,-2.193443355,-19.040835085,52.20679225,0.5033713480000004,0.9196220500000001,-1.791775561805,-0.24987447829999998,0.11586809379999999,-0.16580530799999998
10:25:42,1.4152695199999998,1.19915925,-0.7170743099999999,-0.04467562,0.16384286999999997,-0.33385349999999997,-26.4172381,-2.20709837,-19.05761899,52.1027815,0.5235316120000006,0.9236553000000001,-1.8028048696699999,-0.2493401202,0.11730744719999997,-0.16723333199999998
10:25:42,1.4277874599999998,1.205497125,-0.7044437549999998,-0.04449451,0.165648635,-0.33378425,-26.375952050000002,-2.220753385,-19.074402895000002,51.99877075,0.5436918760000005,0.9276885500000001,-1.813834177535,-0.2488057621,0.11874680059999998,-0.16866135599999998
10:25:42,1.4403054,1.211835,-0.6918131999999999,-0.0443134,0.1674544,-0.333715,-26.334666,-2.2344084,-19.091186800000003,51.89476,0.5638521400000007,0.9317218,-1.8248634853999999,-0.24827140399999997,0.12018615399999999,-0.17008937999999998
10:25:42,1.45282334,1.218172875,-0.679182645,-0.04413229,0.16926016499999996,-0.33364575,-26.293379950000002,-2.248063415,-19.107970705,51.790749250000005,0.5840124040000005,0.93575505,-1.835892793265,-0.2477370459,0.12162550739999997,-0.17151740399999998
10:25:42,1.4653412799999999,1.22451075,-0.6665520899999997,-0.04395118,0.17106592999999998,-0.3335765,-26.2520939,-2.26171843,-19.12475461,51.686738500000004,0.6041726680000004,0.9397883,-1.8469221011299999,-0.2472026878,0.12306486079999998,-0.17294542799999998
10:25:42,1.4778592199999998,1.230848625,-0.6539215349999998,-0.043770069999999994,0.172871695,-0.33350725,-26.210807850000002,-2.275373445,-19.141538515,51.582727750000004,0.6243329320000006,0.94382155,-1.857951408995,-0.2466683297,0.12450421419999999,-0.17437345199999998
10:25:42,1.4903771599999998,1.2371865,-0.64129098,-0.043588959999999996,0.17467745999999995,-0.333438,-26.1695218,-2.28902846,-19.15832242,51.478717,0.6444931960000004,0.9478548,-1.86898071686,-0.2461339716,0.12594356759999997,-0.17580147599999998
10:25:42,1.5028950999999997,1.243524375,-0.6286604250000001,-0.04340785,0.17648322499999997,-0.33336875,-26.12823575,-2.302683475,-19.175106325,51.37470625,0.6646534600000007,0.95188805,-1.880010024725,-0.24559961349999998,0.12738292099999998,-0.17722949999999998
10:25:42,1.5154130399999997,1.24986225,-0.6160298699999998,-0.04322674,0.17828898999999998,-0.33329949999999997,-26.086949699999998,-2.31633849,-19.191890230000002,51.2706955,0.6848137240000005,0.9559213,-1.89103933259,-0.2450652554,0.1288222744,-0.17865752399999998
10:25:42,1.5279309799999996,1.256200125,-0.6033993149999999,-0.04304563,0.180094755,-0.33323025,-26.04566365,-2.329993505,-19.208674135000003,51.16668475,0.7049739880000003,0.95995455,-1.902068640455,-0.2445308973,0.13026162779999997,-0.18008554799999998
10:25:42,1.5404489199999996,1.262538,-0.59076876,-0.04286452,0.18190051999999995,-0.333161,-26.004377599999998,-2.34364852,-19.22545804,51.062674,0.7251342520000006,0.9639878,-1.91309794832,-0.24399653919999997,0.13170098119999998,-0.18151357199999998
10:25:42,1.5529668599999995,1.268875875,-0.5781382049999997,-0.04268341,0.18370628499999997,-0.33309175,-25.96309155,-2.3573035350000002,-19.242241945,50.95866325,0.7452945160000004,0.9680210499999999,-1.924127256185,-0.2434621811,0.1331403346,-0.18294159599999998
10:25:42,1.5654848,1.27521375,-0.5655076499999998,-0.0425023,0.18551204999999998,-0.3330225,-25.9218055,-2.37095855,-19.25902585,50.8546525,0.7654547800000007,0.9720543000000001,-1.93515656405,-0.242927823,0.13457968799999998,-0.18436961999999998
10:25:42,1.5780027399999998,1.281551625,-0.5528770949999999,-0.042321189999999995,0.187317815,-0.33295325,-25.88051945,-2.384613565,-19.275809755,50.75064175,0.7856150440000005,0.9760875500000001,-1.9461858719149998,-0.2423934649,0.13601904139999998,-0.18579764399999998
10:25:42,1.5905206799999998,1.2878895,-0.54024654,-0.042140079999999996,0.18912357999999996,-0.332884,-25.8392334,-2.39826858,-19.29259366,50.646631,0.8057753080000007,0.9801208000000001,-1.95721517978,-0.2418591068,0.1374583948,-0.18722566799999998
10:25:42,1.6030386199999997,1.294227375,-0.5276159849999997,-0.04195897,0.19092934499999997,-0.33281475,-25.79794735,-2.411923595,-19.309377565000002,50.54262025,0.8259355720000006,0.9841540500000001,-1.9682444876449998,-0.24132474869999998,0.13889774819999998,-0.18865369199999998
10:25:42,1.6155565599999997,1.30056525,-0.5149854299999999,-0.04177786,0.19273511,-0.33274549999999997,-25.7566613,-2.42557861,-19.326161470000002,50.4386095,0.8460958360000004,0.9881873000000001,-1.97927379551,-0.2407903906,0.14033710159999996,-0.19008171599999998
10:25:42,1.6280744999999996,1.306903125,-0.502354875,-0.04159675,0.194540875,-0.33267625,-25.71537525,-2.439233625,-19.342945375,50.33459875,0.8662561000000006,0.9922205500000001,-1.9903031033749998,-0.2402560325,0.14177645499999997,-0.19150973999999998
10:25:42,1.6405924399999996,1.313241,-0.48972431999999966,-0.04141564,0.19634663999999996,-0.332607,-25.6740892,-2.45288864,-19.35972928,50.230588,0.8864163640000005,0.9962538000000001,-2.00133241124,-0.23972167439999997,0.14321580839999998,-0.19293776399999998
10:25:42,1.6531103799999995,1.319578875,-0.4770937649999998,-0.04123453,0.19815240499999998,-0.33253774999999997,-25.63280315,-2.466543655,-19.376513185,50.12657725,0.9065766280000007,1.00028705,-2.012361719105,-0.2391873163,0.1446551618,-0.19436578799999996
10:25:42,1.6656283199999995,1.32591675,-0.4644632099999999,-0.04105342,0.19995817,-0.3324685,-25.5915171,-2.48019867,-19.39329709,50.022566499999996,0.9267368920000005,1.0043203,-2.0233910269699997,-0.2386529582,0.1460945152,-0.19579381199999998
10:25:42,1.67814626,1.332254625,-0.451832655,-0.04087231,0.20176393499999995,-0.33239925,-25.55023105,-2.493853685,-19.410080995,49.918555749999996,0.9468971560000008,1.00835355,-2.0344203348349996,-0.2381186001,0.1475338686,-0.197221836
10:25:42,1.6906641999999998,1.3385925,-0.4392020999999997,-0.0406912,0.20356969999999996,-0.33233,-25.508945,-2.5075087000000003,-19.4268649,49.814544999999995,0.9670574200000006,1.0123868,-2.0454496427,-0.237584242,0.14897322199999996,-0.19864985999999998
10:25:42,1.7031821399999998,1.344930375,-0.42657154499999983,-0.04051009,0.20537546499999998,-0.33226075,-25.46765895,-2.521163715,-19.443648805000002,49.710534249999995,0.9872176840000004,1.01642005,-2.056478950565,-0.23704988389999998,0.15041257539999997,-0.20007788399999996
10:25:42,1.7157000799999997,1.35126825,-0.41394098999999995,-0.04032898,0.20718123,-0.3321915,-25.4263729,-2.53481873,-19.46043271,49.6065235,1.0073779480000007,1.0204533,-2.0675082584299997,-0.2365155258,0.15185192879999998,-0.20150590799999998
10:25:42,1.7282180199999997,1.357606125,-0.4013104350000001,-0.04014787,0.20898699499999995,-0.33212225,-25.38508685,-2.548473745,-19.477216615,49.50251275,1.0275382120000005,1.02448655,-2.078537566295,-0.2359811677,0.1532912822,-0.202933932
10:25:42,1.7407359599999996,1.363944,-0.38867987999999976,-0.03996676,0.21079275999999997,-0.332053,-25.3438008,-2.5621287600000002,-19.49400052,49.398502,1.0476984760000008,1.0285198,-2.08956687416,-0.23544680959999997,0.1547306356,-0.20436195599999998
10:25:42,1.7532538999999996,1.370281875,-0.3760493249999999,-0.03978565,0.21259852499999998,-0.33198374999999997,-25.30251475,-2.575783775,-19.510784425,49.29449125,1.0678587400000006,1.03255305,-2.100596182025,-0.2349124515,0.15616998899999995,-0.20578997999999996
10:25:42,1.7657718399999995,1.37661975,-0.36341877,-0.03960454,0.21440429,-0.3319145,-25.2612287,-2.58943879,-19.52756833,49.1904805,1.0880190040000004,1.0365863,-2.1116254898899998,-0.2343780934,0.15760934239999996,-0.20721800399999998
10:25:42,1.7782897799999995,1.382957625,-0.3507882149999997,-0.03942343,0.21621005499999996,-0.33184525,-25.21994265,-2.603093805,-19.544352235,49.08646975,1.1081792680000007,1.04061955,-2.122654797755,-0.2338437353,0.15904869579999997,-0.208646028
10:25:42,1.7908077199999999,1.3892955,-0.3381576599999998,-0.03924232,0.21801581999999997,-0.331776,-25.1786566,-2.61674882,-19.561136140000002,48.982459,1.1283395320000005,1.0446528000000002,-2.13368410562,-0.2333093772,0.16048804919999998,-0.21007405199999998
10:25:42,1.8033256599999998,1.395633375,-0.32552710499999993,-0.03906121,0.21982158499999999,-0.33170675,-25.13737055,-2.630403835,-19.577920045,48.878448250000005,1.1484997960000007,1.0486860500000001,-2.144713413485,-0.23277501909999998,0.1619274026,-0.21150207599999996
10:25:42,1.8158435999999998,1.40197125,-0.31289655000000005,-0.0388801,0.22162735,-0.3316375,-25.0960845,-2.64405885,-19.59470395,48.774437500000005,1.1686600600000006,1.0527193000000001,-2.15574272135,-0.232240661,0.163366756,-0.21293009999999998
10:25:42,1.8283615399999997,1.408309125,-0.30026599499999973,-0.03869899,0.22343311499999996,-0.33156825,-25.05479845,-2.657713865,-19.611487855,48.670426750000004,1.1888203240000008,1.0567525500000001,-2.166772029215,-0.2317063029,0.16480610939999996,-0.214358124
10:25:42,1.8408794799999997,1.414647,-0.28763543999999985,-0.03851788,0.22523887999999997,-0.331499,-25.0135124,-2.67136888,-19.62827176,48.566416000000004,1.2089805880000006,1.0607858000000001,-2.17780133708,-0.2311719448,0.16624546279999997,-0.21578614799999998
10:25:42,1.8533974199999996,1.420984875,-0.275004885,-0.03833677,0.227044645,-0.33142974999999997,-24.97222635,-2.685023895,-19.645055665,48.46240525,1.2291408520000005,1.06481905,-2.188830644945,-0.2306375867,0.16768481619999998,-0.21721417199999996
10:25:42,1.8659153599999996,1.42732275,-0.26237432999999966,-0.03815566,0.22885040999999995,-0.3313605,-24.9309403,-2.69867891,-19.66183957,48.3583945,1.2493011160000007,1.0688523,-2.19985995281,-0.2301032286,0.16912416959999999,-0.21864219599999998
10:25:42,1.8784332999999995,1.433660625,-0.24974377499999978,-0.037974549999999996,0.23065617499999996,-0.33129125,-24.88965425,-2.7123339250000003,-19.678623475000002,48.25438375,1.2694613800000005,1.07288555,-2.2108892606749997,-0.2295688705,0.170563523,-0.22007022
10:25:42,1.8909512399999995,1.4399985,-0.2371132199999999,-0.03779344,0.23246193999999998,-0.331222,-24.8483682,-2.72598894,-19.695407380000002,48.150373,1.2896216440000008,1.0769188,-2.22191856854,-0.2290345124,0.1720028764,-0.22149824399999998
10:25:42,1.9034691799999999,1.446336375,-0.22448266500000003,-0.03761233,0.234267705,-0.33115275,-24.80708215,-2.739643955,-19.712191285000003,48.04636225,1.3097819080000006,1.08095205,-2.232947876405,-0.22850015429999998,0.17344222979999996,-0.22292626799999996
10:25:42,1.9159871199999998,1.45267425,-0.2118521099999997,-0.03743122,0.23607346999999995,-0.3310835,-24.7657961,-2.75329897,-19.72897519,47.9423515,1.3299421720000009,1.0849853,-2.24397718427,-0.22796579620000001,0.17488158319999997,-0.22435429199999998
10:25:42,1.9285050599999998,1.4590121249999999,-0.19922155499999983,-0.037250109999999996,0.23787923499999997,-0.33101425,-24.72451005,-2.7669539850000002,-19.745759095,47.83834075,1.3501024360000002,1.08901855,-2.2550064921349997,-0.2274314381,0.17632093659999998,-0.225782316
10:25:43,1.941023,1.46535,-0.186591,-0.037069,0.239685,-0.330945,-24.683224,-2.780609,-19.762543,47.73433,1.3702627,1.0930518,-2.2660358,-0.22689708,0.17776029,-0.22721034
10:25:43,1.936229585,1.450043405,-0.192530175,-0.0413517,0.24046803,-0.329975535,-24.65169999,-2.80029757,-19.73080075,47.805862285,1.3603702022500002,1.0781484805000001,-2.2559176880000003,-0.22890812185,0.17927530544999998,-0.22404976410000002
10:25:43,1.93143617,1.43473681,-0.19846935000000002,-0.0456344,0.24125106000000002,-0.32900607,-24.62017598,-2.81998614,-19.6990585,47.87739457,1.3504777045,1.063245161,-2.245799576,-0.2309191637,0.1807903209,-0.2208891882
10:25:43,1.926642755,1.419430215,-0.204408525,-0.04991709999999999,0.24203409,-0.328036605,-24.58865197,-2.83967471,-19.667316250000002,47.948926855,1.3405852067500001,1.0483418415,-2.2356814640000002,-0.23293020555,0.18230533634999999,-0.2177286123
10:25:43,1.9218493399999999,1.40412362,-0.2103477,-0.05419979999999999,0.24281712,-0.32706714,-24.55712796,-2.85936328,-19.635574000000002,48.02045914,1.330692709,1.033438522,-2.225563352,-0.2349412474,0.18382035179999998,-0.21456803640000002
10:25:43,1.9170559249999999,1.3888170249999998,-0.216286875,-0.05848249999999999,0.24360015000000002,-0.326097675,-24.52560395,-2.87905185,-19.60383175,48.091991425,1.3208002112500001,1.0185352025,-2.21544524,-0.23695228925,0.18533536725,-0.2114074605
10:25:43,1.91226251,1.3735104299999998,-0.22222605,-0.0627652,0.24438318,-0.32512821,-24.49407994,-2.89874042,-19.5720895,48.16352371,1.3109077135,1.003631883,-2.205327128,-0.2389633311,0.18685038269999998,-0.20824688460000002
10:25:43,1.907469095,1.3582038349999999,-0.228165225,-0.0670479,0.24516621,-0.32415874499999997,-24.46255593,-2.9184289900000002,-19.54034725,48.235055995,1.3010152157500001,0.9887285635,-2.195209016,-0.24097437295000002,0.18836539814999997,-0.2050863087
10:25:43,1.90267568,1.3428972399999999,-0.2341044,-0.0713306,0.24594924,-0.32318927999999997,-24.43103192,-2.9381175600000002,-19.508605,48.30658828,1.291122718,0.973825244,-2.185090904,-0.2429854148,0.1898804136,-0.2019257328
10:25:43,1.897882265,1.327590645,-0.240043575,-0.0756133,0.24673227,-0.32221981499999997,-24.39950791,-2.9578061300000003,-19.476862750000002,48.378120565,1.28123022025,0.9589219245,-2.174972792,-0.24499645665,0.19139542904999998,-0.19876515690000002
10:25:43,1.89308885,1.31228405,-0.24598275,-0.079896,0.24751530000000002,-0.32125035,-24.3679839,-2.9774947000000003,-19.4451205,48.44965285,1.2713377225,0.944018605,-2.16485468,-0.2470074985,0.1929104445,-0.195604581
10:25:43,1.8882954349999999,1.296977455,-0.251921925,-0.0841787,0.24829833,-0.320280885,-24.33645989,-2.9971832700000003,-19.41337825,48.521185135,1.26144522475,0.9291152855,-2.154736568,-0.24901854035,0.19442545995,-0.1924440051
10:25:43,1.8835020199999999,1.28167086,-0.2578611,-0.0884614,0.24908136,-0.31931142,-24.30493588,-3.0168718400000003,-19.381636,48.59271742,1.251552727,0.9142119660000001,-2.144618456,-0.2510295822,0.19594047539999998,-0.18928342920000002
10:25:43,1.878708605,1.266364265,-0.26380027500000003,-0.0927441,0.24986439000000002,-0.318341955,-24.27341187,-3.03656041,-19.34989375,48.664249705,1.24166022925,0.8993086465,-2.134500344,-0.25304062405,0.19745549085,-0.1861228533
10:25:43,1.87391519,1.25105767,-0.26973945,-0.0970268,0.25064742,-0.31737249,-24.24188786,-3.0562489800000003,-19.3181515,48.73578199,1.2317677315000002,0.8844053270000001,-2.124382232,-0.2550516659,0.1989705063,-0.1829622774
10:25:43,1.869121775,1.235751075,-0.275678625,-0.1013095,0.25143045,-0.316403025,-24.21036385,-3.07593755,-19.286409250000002,48.807314275,1.22187523375,0.8695020075000001,-2.11426412,-0.25706270775,0.20048552174999998,-0.17980170150000002
10:25:43,1.86432836,1.2204444799999998,-0.28161780000000003,-0.1055922,0.25221348,-0.31543356,-24.17883984,-3.09562612,-19.254667,48.87884656,1.211982736,0.854598688,-2.104146008,-0.2590737496,0.2020005372,-0.1766411256
10:25:43,1.859534945,1.2051378849999999,-0.287556975,-0.1098749,0.25299651,-0.314464095,-24.14731583,-3.11531469,-19.22292475,48.950378845,1.20209023825,0.8396953685,-2.094027896,-0.26108479145,0.20351555265,-0.17348054970000001
10:25:43,1.8547415299999999,1.1898312899999999,-0.29349615,-0.1141576,0.25377954,-0.31349463,-24.11579182,-3.13500326,-19.1911825,49.02191113,1.1921977405000002,0.824792049,-2.0839097840000003,-0.26309583329999997,0.20503056809999998,-0.17031997380000002
10:25:43,1.849948115,1.174524695,-0.29943532500000003,-0.1184403,0.25456257,-0.312525165,-24.08426781,-3.15469183,-19.15944025,49.093443415,1.18230524275,0.8098887295000001,-2.073791672,-0.26510687515,0.20654558355,-0.1671593979
10:25:43,1.8451547,1.1592181,-0.3053745,-0.122723,0.2553456,-0.3115557,-24.0527438,-3.1743804,-19.127698000000002,49.1649757,1.1724127450000001,0.79498541,-2.0636735600000002,-0.267117917,0.20806059899999998,-0.16399882200000002
10:25:43,1.840361285,1.143911505,-0.311313675,-0.1270057,0.25612863,-0.310586235,-24.02121979,-3.19406897,-19.09595575,49.236507985,1.16252024725,0.7800820905000001,-2.053555448,-0.26912895885,0.20957561445,-0.16083824610000003
10:25:43,1.83556787,1.12860491,-0.31725285000000003,-0.1312884,0.25691166,-0.30961677,-23.989695779999998,-3.21375754,-19.0642135,49.30804027,1.1526277495000001,0.7651787710000001,-2.043437336,-0.2711400007,0.2110906299,-0.1576776702
10:25:43,1.830774455,1.113298315,-0.323192025,-0.1355711,0.25769469,-0.308647305,-23.95817177,-3.23344611,-19.03247125,49.379572555,1.14273525175,0.7502754515000001,-2.033319224,-0.27315104255,0.21260564534999998,-0.1545170943
10:25:43,1.8259810399999998,1.09799172,-0.3291312,-0.13985379999999997,0.25847772,-0.30767784,-23.926647759999998,-3.25313468,-19.000729,49.45110484,1.1328427540000001,0.7353721320000001,-2.023201112,-0.2751620844,0.21412066079999997,-0.15135651840000003
10:25:43,1.8211876249999999,1.0826851249999998,-0.33507037500000003,-0.14413649999999997,0.25926075,-0.306708375,-23.89512375,-3.27282325,-18.96898675,49.522637125,1.12295025625,0.7204688125,-2.013083,-0.27717312625,0.21563567625,-0.1481959425
10:25:43,1.81639421,1.0673785299999998,-0.34100955,-0.14841919999999997,0.26004378,-0.30573891,-23.863599739999998,-3.29251182,-18.937244500000002,49.59416941,1.1130577585,0.705565493,-2.002964888,-0.2791841681,0.21715069169999998,-0.1450353666
10:25:43,1.811600795,1.0520719349999998,-0.34694872499999996,-0.15270189999999997,0.26082681,-0.30476944499999997,-23.83207573,-3.31220039,-18.90550225,49.665701695,1.10316526075,0.6906621735,-1.9928467760000002,-0.28119520995,0.21866570715,-0.14187479070000003
10:25:43,1.80680738,1.0367653399999999,-0.35288790000000003,-0.15698459999999997,0.26160984,-0.30379997999999997,-23.800551719999998,-3.33188896,-18.87376,49.73723398,1.093272763,0.6757588540000001,-1.9827286640000001,-0.28320625180000003,0.2201807226,-0.1387142148
10:25:43,1.802013965,1.021458745,-0.358827075,-0.16126729999999997,0.26239287,-0.302830515,-23.76902771,-3.35157753,-18.84201775,49.808766265,1.0833802652500002,0.6608555345,-1.9726105520000001,-0.28521729365,0.22169573804999998,-0.1355536389
10:25:43,1.79722055,1.00615215,-0.36476624999999996,-0.16554999999999997,0.2631759,-0.30186104999999996,-23.737503699999998,-3.3712661,-18.8102755,49.88029855,1.0734877675,0.6459522150000001,-1.9624924400000001,-0.2872283355,0.2232107535,-0.132393063
10:25:43,1.792427135,0.9908455549999999,-0.37070542500000003,-0.16983269999999998,0.26395893000000004,-0.300891585,-23.70597969,-3.39095467,-18.778533250000002,49.951830835,1.06359526975,0.6310488955000001,-1.952374328,-0.28923937735,0.22472576895,-0.12923248710000002
10:25:43,1.7876337199999999,0.97553896,-0.3766446,-0.17411539999999998,0.26474196,-0.29992212,-23.67445568,-3.41064324,-18.746791,50.02336312,1.053702772,0.6161455760000001,-1.942256216,-0.2912504192,0.2262407844,-0.1260719112
10:25:43,1.782840305,0.9602323649999999,-0.38258377499999996,-0.17839809999999998,0.26552499,-0.298952655,-23.64293167,-3.43033181,-18.71504875,50.094895405,1.0438102742500002,0.6012422565000001,-1.932138104,-0.29326146105,0.22775579985,-0.12291133530000001
10:25:43,1.77804689,0.9449257699999999,-0.38852295000000003,-0.18268079999999998,0.26630802000000003,-0.29798319,-23.611407659999998,-3.45002038,-18.6833065,50.16642769,1.0339177765,0.5863389370000001,-1.922019992,-0.2952725029,0.22927081529999999,-0.11975075940000002
10:25:43,1.773253475,0.9296191749999999,-0.394462125,-0.18696349999999998,0.26709105,-0.297013725,-23.57988365,-3.4697089500000002,-18.65156425,50.237959975,1.02402527875,0.5714356175,-1.91190188,-0.29728354475,0.23078583074999998,-0.11659018350000001
10:25:43,1.76846006,0.9143125799999999,-0.40040129999999996,-0.19124619999999998,0.26787408,-0.29604426,-23.54835964,-3.48939752,-18.619822,50.30949226,1.014132781,0.556532298,-1.901783768,-0.29929458659999997,0.2323008462,-0.11342960760000001
10:25:43,1.763666645,0.8990059849999998,-0.40634047500000003,-0.19552889999999998,0.26865711000000003,-0.295074795,-23.51683563,-3.5090860900000003,-18.588079750000002,50.381024545,1.0042402832500001,0.5416289785000001,-1.891665656,-0.30130562845,0.23381586164999998,-0.1102690317
10:25:43,1.7588732299999998,0.8836993899999999,-0.41227965,-0.19981159999999998,0.26944014,-0.29410533,-23.48531162,-3.52877466,-18.5563375,50.45255683,0.9943477855,0.5267256590000001,-1.881547544,-0.3033166703,0.2353308771,-0.10710845580000002
10:25:43,1.7540798149999999,0.8683927949999999,-0.41821882499999996,-0.20409429999999998,0.27022317,-0.293135865,-23.45378761,-3.5484632300000003,-18.52459525,50.524089115,0.9844552877500001,0.5118223395000001,-1.8714294320000002,-0.30532771215,0.23684589255,-0.10394787990000001
10:25:43,1.7492864,0.8530861999999999,-0.424158,-0.20837699999999998,0.27100620000000003,-0.2921664,-23.4222636,-3.5681518,-18.492853,50.5956214,0.97456279,0.4969190200000001,-1.86131132,-0.307338754,0.23836090799999998,-0.10078730400000002
10:25:43,1.744492985,0.8377796049999999,-0.430097175,-0.21265969999999998,0.27178923,-0.291196935,-23.39073959,-3.5878403700000003,-18.46111075,50.667153685,0.9646702922500001,0.4820157005000001,-1.8511932080000002,-0.30934979585,0.23987592345,-0.0976267281
10:25:43,1.73969957,0.8224730099999998,-0.43603634999999996,-0.21694239999999998,0.27257226,-0.29022747,-23.35921558,-3.60752894,-18.4293685,50.73868597,0.9547777945,0.4671123810000001,-1.841075096,-0.3113608377,0.2413909389,-0.09446615220000001
10:25:43,1.734906155,0.8071664149999999,-0.441975525,-0.22122509999999998,0.27335529000000003,-0.289258005,-23.32769157,-3.62721751,-18.397626250000002,50.810218255,0.9448852967500001,0.45220906150000006,-1.8309569840000002,-0.31337187955,0.24290595435,-0.09130557630000002
10:25:43,1.73011274,0.7918598199999999,-0.4479147,-0.22550779999999998,0.27413832,-0.28828854,-23.29616756,-3.64690608,-18.365884,50.88175054,0.9349927990000001,0.43730574200000016,-1.8208388720000002,-0.3153829214,0.2444209698,-0.0881450004
10:25:43,1.725319325,0.7765532249999999,-0.453853875,-0.22979049999999998,0.27492135,-0.287319075,-23.26464355,-3.66659465,-18.33414175,50.953282825,0.9251003012500001,0.42240242250000015,-1.8107207600000002,-0.31739396325,0.24593598525,-0.08498442450000002
10:25:43,1.7205259099999999,0.7612466299999999,-0.45979305,-0.23407319999999998,0.27570438,-0.28634961,-23.23311954,-3.68628322,-18.3023995,51.02481511,0.9152078035000001,0.40749910300000014,-1.8006026480000001,-0.31940500510000003,0.24745100069999998,-0.0818238486
10:25:43,1.715732495,0.7459400349999998,-0.465732225,-0.23835589999999998,0.27648741,-0.285380145,-23.20159553,-3.70597179,-18.27065725,51.096347395,0.9053153057500001,0.39259578350000013,-1.7904845360000001,-0.32141604695,0.24896601615,-0.07866327270000001
10:25:43,1.71093908,0.7306334399999999,-0.4716714,-0.24263859999999995,0.27727044,-0.28441068,-23.17007152,-3.72566036,-18.238915,51.16787968,0.8954228080000001,0.3776924640000001,-1.7803664240000001,-0.3234270888,0.2504810316,-0.07550269680000002
10:25:43,1.706145665,0.7153268449999999,-0.477610575,-0.24692129999999995,0.27805347,-0.28344121499999997,-23.13854751,-3.74534893,-18.20717275,51.239411965,0.8855303102500001,0.3627891445000001,-1.770248312,-0.32543813065,0.25199604705,-0.0723421209
10:25:43,1.70135225,0.7000202499999999,-0.48354975,-0.251204,0.2788365,-0.28247175,-23.1070235,-3.7650375,-18.1754305,51.31094425,0.8756378125000001,0.3478858250000001,-1.7601302,-0.3274491725,0.2535110625,-0.06918154500000001
10:25:43,1.696558835,0.6847136549999999,-0.48948892499999996,-0.25548669999999996,0.27961953,-0.281502285,-23.07549949,-3.78472607,-18.14368825,51.382476535,0.86574531475,0.3329825055000001,-1.750012088,-0.32946021435,0.25502607795,-0.06602096910000002
10:25:43,1.6917654199999999,0.6694070599999998,-0.4954281,-0.2597694,0.28040256,-0.28053282,-23.04397548,-3.80441464,-18.111946,51.45400882,0.855852817,0.31807918600000007,-1.739893976,-0.3314712562,0.2565410934,-0.0628603932
10:25:43,1.6869720049999999,0.6541004649999999,-0.501367275,-0.26405209999999996,0.28118559,-0.279563355,-23.01245147,-3.82410321,-18.08020375,51.525541105,0.84596031925,0.30317586650000017,-1.729775864,-0.33348229805,0.25805610884999997,-0.05969981730000001
10:25:43,1.68217859,0.6387938699999999,-0.50730645,-0.2683348,0.28196862,-0.27859389,-22.98092746,-3.84379178,-18.048461500000002,51.59707339,0.8360678215,0.28827254700000016,-1.7196577520000003,-0.33549333989999996,0.2595711243,-0.05653924140000002
10:25:43,1.677385175,0.6234872749999999,-0.5132456249999999,-0.27261749999999996,0.28275165,-0.277624425,-22.94940345,-3.86348035,-18.01671925,51.668605675,0.82617532375,0.27336922750000014,-1.70953964,-0.33750438174999997,0.26108613975,-0.053378665500000005
10:25:43,1.67259176,0.6081806799999999,-0.5191848,-0.2769002,0.28353468000000004,-0.27665496,-22.91787944,-3.88316892,-17.984977,51.74013796,0.8162828260000001,0.25846590800000013,-1.6994215280000002,-0.3395154236,0.2626011552,-0.050218089600000015
10:25:43,1.667798345,0.5928740849999998,-0.525123975,-0.28118289999999996,0.28431771,-0.275685495,-22.88635543,-3.90285749,-17.95323475,51.811670245,0.8063903282500001,0.24356258850000012,-1.689303416,-0.34152646545,0.26411617065,-0.047057513700000025
10:25:43,1.66300493,0.5775674899999999,-0.53106315,-0.2854656,0.28510074,-0.27471603,-22.85483142,-3.92254606,-17.9214925,51.88320253,0.7964978305000001,0.2286592690000001,-1.6791853040000002,-0.3435375073,0.2656311861,-0.04389693780000001
10:25:43,1.658211515,0.5622608949999999,-0.537002325,-0.2897483,0.28588377,-0.273746565,-22.823307409999998,-3.9422346299999997,-17.88975025,51.954734815,0.7866053327500001,0.2137559495000001,-1.669067192,-0.34554854915,0.26714620155,-0.04073636190000002
10:25:43,1.6534181,0.5469542999999999,-0.5429415,-0.294031,0.2866668,-0.2727771,-22.7917834,-3.9619232,-17.858008,52.0262671,0.7767128350000001,0.1988526300000002,-1.6589490800000002,-0.347559591,0.268661217,-0.037575786
10:25:43,1.648624685,0.5316477049999999,-0.5488806749999999,-0.2983137,0.28744983,-0.271807635,-22.760259389999998,-3.9816117699999998,-17.82626575,52.097799385,0.7668203372500001,0.18394931050000018,-1.6488309680000002,-0.34957063285,0.27017623245,-0.03441521010000001
10:25:43,1.64383127,0.5163411099999998,-0.55481985,-0.3025964,0.28823286000000004,-0.27083817,-22.72873538,-4.00130034,-17.7945235,52.16933167,0.7569278395000001,0.16904599100000017,-1.6387128560000002,-0.3515816747,0.2716912479,-0.03125463420000002
10:25:43,1.639037855,0.5010345149999998,-0.560759025,-0.3068791,0.28901589,-0.269868705,-22.697211369999998,-4.02098891,-17.76278125,52.240863955,0.7470353417500001,0.15414267150000016,-1.6285947440000001,-0.35359271655,0.27320626335,-0.028094058300000002
10:25:43,1.63424444,0.48572791999999987,-0.5666982,-0.3111618,0.28979892,-0.26889924,-22.66568736,-4.04067748,-17.731039,52.31239624,0.7371428440000001,0.13923935200000015,-1.6184766320000001,-0.3556037584,0.27472127879999997,-0.024933482400000012
10:25:43,1.6294510249999998,0.4704213249999999,-0.572637375,-0.31544449999999996,0.29058195,-0.267929775,-22.63416335,-4.06036605,-17.699296750000002,52.383928525,0.7272503462500001,0.12433603250000014,-1.6083585200000001,-0.35761480025000003,0.27623629425,-0.021772906500000022
10:25:43,1.6246576099999999,0.4551147299999998,-0.57857655,-0.3197272,0.29136498,-0.26696031,-22.60263934,-4.08005462,-17.6675545,52.45546081,0.7173578485000001,0.10943271300000013,-1.5982404080000001,-0.35962584210000004,0.2777513097,-0.018612330600000004
10:25:43,1.619864195,0.4398081349999998,-0.5845157249999999,-0.32400989999999996,0.29214801,-0.26599084500000003,-22.571115329999998,-4.09974319,-17.63581225,52.526993095,0.70746535075,0.09452939350000011,-1.588122296,-0.36163688395,0.27926632515,-0.015451754700000014
10:25:43,1.61507078,0.42450153999999984,-0.5904549,-0.3282926,0.29293104000000003,-0.26502138,-22.53959132,-4.11943176,-17.60407,52.59852538,0.697572853,0.0796260740000001,-1.578004184,-0.3636479258,0.2807813406,-0.012291178800000024
10:25:43,1.610277365,0.40919494499999987,-0.596394075,-0.33257529999999996,0.29371407,-0.264051915,-22.50806731,-4.13912033,-17.57232775,52.670057665,0.68768035525,0.0647227545000002,-1.5678860720000003,-0.36565896765,0.28229635605000003,-0.009130602900000007
10:25:43,1.60548395,0.3938883499999999,-0.60233325,-0.336858,0.2944971,-0.26308244999999997,-22.4765433,-4.1588089,-17.5405855,52.74158995,0.6777878575,0.04981943500000008,-1.55776796,-0.3676700095,0.2838113715,-0.005970027000000017
10:25:43,1.600690535,0.3785817549999999,-0.608272425,-0.34114069999999996,0.29528013000000003,-0.262112985,-22.44501929,-4.17849747,-17.50884325,52.813122235,0.66789535975,0.03491611550000018,-1.5476498480000003,-0.36968105134999996,0.28532638695,-0.002809451099999999
10:25:43,1.59589712,0.36327515999999993,-0.6142116,-0.3454234,0.29606316,-0.26114352,-22.41349528,-4.1981860399999995,-17.477101,52.88465452,0.658002862,0.020012796000000055,-1.537531736,-0.37169209319999996,0.2868414024,0.00035112479999999113
10:25:43,1.591103705,0.34796856499999995,-0.6201507749999999,-0.34970609999999996,0.29684619,-0.260174055,-22.38197127,-4.21787461,-17.44535875,52.956186805,0.6481103642500001,0.005109476500000154,-1.5274136240000002,-0.37370313504999997,0.28835641785,0.003511700699999981
10:25:43,1.58631029,0.33266196999999975,-0.62608995,-0.3539888,0.29762922,-0.25920459,-22.35044726,-4.23756318,-17.4136165,53.02771909,0.6382178665000001,-0.009793842999999747,-1.517295512,-0.3757141769,0.2898714333,0.006672276599999999
10:25:43,1.581516875,0.3173553749999998,-0.632029125,-0.35827149999999996,0.29841225,-0.258235125,-22.31892325,-4.25725175,-17.38187425,53.099251375,0.6283253687500001,-0.02469716249999987,-1.5071774000000002,-0.37772521875,0.29138644874999997,0.009832852499999989
10:25:43,1.57672346,0.3020487799999998,-0.6379683,-0.3625542,0.29919528,-0.25726566,-22.28739924,-4.27694032,-17.350132000000002,53.17078366,0.6184328710000001,-0.03960048199999977,-1.4970592880000002,-0.3797362606,0.2929014642,0.012993428399999979
10:25:43,1.571930045,0.2867421849999998,-0.643907475,-0.36683689999999997,0.29997831,-0.256296195,-22.25587523,-4.29662889,-17.31838975,53.242315945,0.6085403732500001,-0.05450380149999989,-1.4869411760000002,-0.38174730245,0.29441647965,0.016154004299999997
10:25:43,1.56713663,0.27143558999999984,-0.64984665,-0.3711196,0.30076134,-0.25532673,-22.22435122,-4.3163174600000005,-17.2866475,53.313848230000005,0.5986478755000001,-0.0694071209999998,-1.4768230640000002,-0.3837583443,0.2959314951,0.019314580199999987
10:25:43,1.5623432149999998,0.25612899499999986,-0.6557858249999999,-0.37540229999999997,0.30154437,-0.254357265,-22.19282721,-4.33600603,-17.25490525,53.385380515,0.5887553777500001,-0.08431044049999992,-1.4667049520000002,-0.38576938615,0.29744651055,0.022475156099999977
10:25:43,1.5575497999999999,0.24082239999999988,-0.6617249999999999,-0.379685,0.3023274,-0.2533878,-22.1613032,-4.3556946,-17.223163,53.4569128,0.5788628800000001,-0.09921375999999982,-1.4565868400000002,-0.387780428,0.29896152600000003,0.025635731999999967
10:25:43,1.552756385,0.2255158049999999,-0.667664175,-0.38396769999999997,0.30311043000000004,-0.252418335,-22.12977919,-4.37538317,-17.19142075,53.528445085,0.5689703822500001,-0.11411707949999972,-1.4464687280000001,-0.38979146985,0.30047654145,0.028796307899999984
10:25:43,1.54796297,0.21020920999999992,-0.67360335,-0.3882504,0.30389346,-0.25144887,-22.09825518,-4.395071740000001,-17.159678500000002,53.599977370000005,0.5590778845000001,-0.12902039899999984,-1.4363506160000001,-0.3918025117,0.3019915569,0.0319568838
10:25:43,1.543169555,0.19490261499999995,-0.679542525,-0.39253309999999997,0.30467649,-0.250479405,-22.06673117,-4.41476031,-17.12793625,53.671509655,0.5491853867500001,-0.14392371849999974,-1.4262325040000001,-0.39381355355000003,0.30350657235,0.035117459699999964
10:25:43,1.53837614,0.17959601999999975,-0.6854817,-0.3968158,0.30545952,-0.24950993999999999,-22.03520716,-4.43444888,-17.096194,53.74304194,0.539292889,-0.15882703799999986,-1.416114392,-0.39582459540000003,0.3050215878,0.03827803559999998
10:25:43,1.533582725,0.16428942499999977,-0.6914208749999999,-0.40109849999999997,0.30624255,-0.24854047499999998,-22.00368315,-4.45413745,-17.06445175,53.814574225,0.52940039125,-0.17373035749999977,-1.40599628,-0.39783563725,0.30653660325,0.0414386115
10:25:43,1.52878931,0.1489828299999998,-0.6973600499999999,-0.4053812,0.30702558,-0.24757100999999998,-21.97215914,-4.47382602,-17.0327095,53.886106510000005,0.5195078935,-0.1886336769999999,-1.3958781680000003,-0.3998466791,0.3080516187,0.04459918739999996
10:25:43,1.523995895,0.1336762349999998,-0.7032992250000001,-0.40966389999999997,0.30780861000000004,-0.246601545,-21.94063513,-4.49351459,-17.000967250000002,53.957638795,0.50961539575,-0.2035369964999998,-1.385760056,-0.40185772095,0.30956663414999996,0.04775976329999998
10:25:43,1.51920248,0.11836963999999983,-0.7092384,-0.4139466,0.30859164,-0.24563208,-21.90911112,-4.51320316,-16.969225,54.02917108,0.49972289800000014,-0.2184403159999997,-1.3756419440000003,-0.4038687628,0.3110816496,0.0509203392
10:25:43,1.514409065,0.10306304499999985,-0.715177575,-0.41822929999999997,0.30937467,-0.244662615,-21.87758711,-4.53289173,-16.93748275,54.100703365,0.48983040025000013,-0.2333436354999998,-1.365523832,-0.40587980465,0.31259666505,0.05408091509999996
10:25:43,1.50961565,0.08775644999999987,-0.72111675,-0.422512,0.3101577,-0.24369315,-21.8460631,-4.5525803,-16.9057405,54.172235650000005,0.4799379025000001,-0.2482469549999997,-1.3554057200000003,-0.40789084649999996,0.3141116805,0.05724149099999998
10:25:43,1.504822235,0.0724498549999999,-0.7270559249999999,-0.42679469999999997,0.31094073,-0.242723685,-21.81453909,-4.57226887,-16.87399825,54.243767935,0.4700454047500001,-0.26315027449999984,-1.345287608,-0.40990188834999997,0.31562669595000004,0.060402066899999995
10:25:43,1.50002882,0.05714325999999992,-0.7329950999999999,-0.4310774,0.31172376,-0.24175422000000002,-21.78301508,-4.59195744,-16.842256,54.31530022,0.4601529070000001,-0.27805359399999974,-1.3351694960000002,-0.41191293019999997,0.3171417114,0.06356264280000001
10:25:43,1.4952354049999999,0.04183666499999994,-0.7389342750000001,-0.43536009999999997,0.31250679000000003,-0.24078475500000002,-21.75149107,-4.61164601,-16.81051375,54.386832505,0.4502604092500001,-0.29295691349999986,-1.3250513840000002,-0.41392397205,0.31865672685,0.06672321869999998
10:25:43,1.4904419899999999,0.02653006999999974,-0.74487345,-0.4396428,0.31328982,-0.23981529000000001,-21.719967060000002,-4.63133458,-16.7787715,54.458364790000005,0.4403679115000001,-0.30786023299999976,-1.3149332720000002,-0.4159350139,0.3201717423,0.0698837946
10:25:43,1.485648575,0.01122347499999976,-0.750812625,-0.4439255,0.31407285,-0.238845825,-21.68844305,-4.65102315,-16.74702925,54.529897075,0.4304754137500001,-0.3227635524999999,-1.3048151600000002,-0.41794605575,0.32168675775,0.07304437050000001
10:25:43,1.48085516,-0.004083120000000218,-0.7567518,-0.44820819999999995,0.31485588,-0.23787636,-21.65691904,-4.67071172,-16.715287,54.60142936,0.4205829160000001,-0.3376668719999998,-1.2946970480000002,-0.4199570976,0.3232017732,0.07620494639999997
10:25:43,1.476061745,-0.019389715000000196,-0.7626909749999999,-0.4524909,0.31563891,-0.236906895,-21.62539503,-4.6904002899999995,-16.68354475,54.672961645,0.4106904182500001,-0.3525701914999997,-1.2845789360000002,-0.42196813945,0.32471678865,0.07936552229999999
10:25:43,1.47126833,-0.034696310000000175,-0.7686301499999999,-0.45677359999999995,0.31642194,-0.23593743,-21.59387102,-4.71008886,-16.6518025,54.744493930000004,0.40079792050000007,-0.3674735109999998,-1.2744608240000002,-0.4239791813,0.32623180409999997,0.08252609820000001
10:25:43,1.466474915,-0.05000290500000015,-0.7745693249999999,-0.4610563,0.31720497000000003,-0.234967965,-21.56234701,-4.72977743,-16.62006025,54.816026215,0.39090542275000006,-0.3823768304999997,-1.2643427120000001,-0.42599022315,0.32774681955,0.08568667409999997
10:25:43,1.4616815,-0.06530950000000013,-0.7805085,-0.46533899999999995,0.317988,-0.2339985,-21.530822999999998,-4.749466,-16.588318,54.887558500000004,0.38101292500000006,-0.39728014999999983,-1.2542246000000001,-0.428001265,0.329261835,0.08884724999999999
10:25:43,1.456888085,-0.08061609500000011,-0.786447675,-0.4696217,0.31877103,-0.233029035,-21.49929899,-4.7691545699999995,-16.55657575,54.959090785,0.37112042725000005,-0.41218346949999973,-1.2441064880000001,-0.43001230685,0.33077685045,0.0920078259
10:25:43,1.45209467,-0.09592269000000009,-0.79238685,-0.47390439999999995,0.31955406000000003,-0.23205957,-21.46777498,-4.78884314,-16.5248335,55.030623070000004,0.36122792950000004,-0.42708678899999986,-1.233988376,-0.43202334870000003,0.33229186590000004,0.09516840179999997
10:25:43,1.447301255,-0.11122928500000007,-0.7983260249999999,-0.4781871,0.32033709,-0.231090105,-21.43625097,-4.8085317100000005,-16.49309125,55.102155355,0.35133543175000015,-0.44199010849999976,-1.223870264,-0.43403439055,0.33380688135000003,0.09832897769999999
10:25:43,1.44250784,-0.12653588000000027,-0.8042651999999999,-0.48246979999999995,0.32112012,-0.23012064,-21.40472696,-4.82822028,-16.461349,55.173687640000004,0.34144293400000003,-0.4568934279999999,-1.213752152,-0.4360454324,0.3353218968,0.1014895536
10:25:43,1.437714425,-0.14184247500000025,-0.8102043749999999,-0.4867525,0.32190315,-0.22915117499999998,-21.37320295,-4.84790885,-16.42960675,55.245219925,0.33155043625000014,-0.4717967474999998,-1.2036340400000003,-0.43805647425,0.33683691225,0.10465012949999997
10:25:43,1.4329210099999998,-0.15714907000000022,-0.81614355,-0.49103519999999995,0.32268618,-0.22818171,-21.34167894,-4.86759742,-16.3978645,55.316752210000004,0.3216579385,-0.4867000669999997,-1.1935159280000003,-0.4400675161,0.3383519277,0.10781070539999998
10:25:43,1.4281275949999999,-0.1724556650000002,-0.822082725,-0.4953179,0.32346921,-0.227212245,-21.31015493,-4.8872859900000005,-16.36612225,55.388284495,0.3117654407500001,-0.5016033864999998,-1.1833978160000003,-0.44207855795,0.33986694315,0.1109712813
10:25:43,1.42333418,-0.18776226000000018,-0.8280219,-0.49960059999999995,0.32425224,-0.22624278,-21.27863092,-4.90697456,-16.33438,55.459816780000004,0.301872943,-0.5165067059999997,-1.1732797040000003,-0.44408959979999996,0.3413819586,0.11413185719999996
10:25:43,1.418540765,-0.20306885500000016,-0.8339610749999999,-0.5038832999999999,0.32503527,-0.225273315,-21.24710691,-4.92666313,-16.30263775,55.531349065,0.2919804452500001,-0.5314100254999998,-1.1631615920000002,-0.44610064164999996,0.34289697404999997,0.11729243309999998
10:25:43,1.41374735,-0.21837545000000014,-0.8399002499999999,-0.5081659999999999,0.3258183,-0.22430385,-21.2155829,-4.9463517,-16.2708955,55.602881350000004,0.2820879475,-0.5463133449999997,-1.1530434800000002,-0.44811168349999997,0.3444119895,0.120453009
10:25:43,1.408953935,-0.23368204500000012,-0.8458394249999999,-0.5124487,0.32660133,-0.22333438500000002,-21.18405889,-4.966040270000001,-16.23915325,55.674413635,0.2721954497500001,-0.5612166644999999,-1.1429253680000002,-0.45012272535,0.34592700495,0.12361358489999996
10:25:43,1.40416052,-0.2489886400000001,-0.8517786,-0.5167314,0.32738436000000004,-0.22236492000000002,-21.15253488,-4.98572884,-16.207411,55.745945920000004,0.2623029520000002,-0.5761199839999998,-1.1328072560000002,-0.4521337672,0.3474420204,0.12677416079999998
10:25:43,1.399367105,-0.2642952350000001,-0.857717775,-0.5210140999999999,0.32816739,-0.22139545500000002,-21.12101087,-5.00541741,-16.17566875,55.817478205,0.2524104542500001,-0.5910233034999997,-1.1226891440000002,-0.45414480905,0.34895703585000004,0.1299347367
10:25:43,1.39457369,-0.2796018300000003,-0.86365695,-0.5252967999999999,0.32895042,-0.22042599000000002,-21.08948686,-5.02510598,-16.1439265,55.889010490000004,0.2425179565000002,-0.6059266229999998,-1.1125710320000002,-0.4561558509,0.35047205130000003,0.13309531259999996
10:25:43,1.3897802750000001,-0.29490842500000025,-0.8695961249999999,-0.5295795,0.32973345,-0.219456525,-21.05796285,-5.044794550000001,-16.11218425,55.960542775,0.23262545875000007,-0.6208299424999997,-1.1024529200000002,-0.45816689275,0.35198706675,0.13625588849999998
10:25:43,1.38498686,-0.31021502000000023,-0.8755352999999999,-0.5338622,0.33051648,-0.21848706,-21.02643884,-5.06448312,-16.080442,56.032075060000004,0.22273296100000017,-0.6357332619999998,-1.0923348080000002,-0.4601779346,0.3535020822,0.1394164644
10:25:43,1.380193445,-0.3255216150000002,-0.8814744749999999,-0.5381448999999999,0.33129951,-0.217517595,-20.99491483,-5.08417169,-16.04869975,56.103607345,0.21284046325000006,-0.6506365814999997,-1.0822166960000001,-0.46218897645,0.35501709765,0.1425770403
10:25:43,1.37540003,-0.3408282100000002,-0.88741365,-0.5424276,0.33208254000000004,-0.21654813,-20.96339082,-5.103860259999999,-16.0169575,56.175139630000004,0.20294796550000016,-0.6655399009999998,-1.0720985840000001,-0.4642000183,0.3565321131,0.14573761619999998
10:25:43,1.370606615,-0.35613480500000017,-0.893352825,-0.5467103,0.33286557,-0.215578665,-20.93186681,-5.12354883,-15.98521525,56.246671915,0.19305546775000004,-0.6804432204999997,-1.0619804720000001,-0.46621106015,0.35804712855,0.1488981921
10:25:43,1.3658131999999998,-0.37144140000000014,-0.899292,-0.550993,0.3336486,-0.2146092,-20.9003428,-5.1432374,-15.953473,56.318204200000004,0.18316297000000015,-0.6953465399999996,-1.0518623600000003,-0.46822210200000003,0.359562144,0.152058768
10:25:43,1.3610197849999999,-0.3867479950000001,-0.9052311749999999,-0.5552756999999999,0.33443163,-0.213639735,-20.86881879,-5.16292597,-15.92173075,56.389736485,0.17327047225000003,-0.7102498594999997,-1.0417442480000003,-0.47023314385000003,0.36107715944999996,0.15521934389999997
10:25:43,1.35622637,-0.4020545900000001,-0.9111703499999999,-0.5595584,0.33521466,-0.21267027,-20.83729478,-5.182614539999999,-15.8899885,56.461268770000004,0.16337797450000013,-0.7251531789999996,-1.0316261360000003,-0.4722441857,0.3625921749,0.1583799198
10:25:43,1.351432955,-0.4173611850000001,-0.9171095249999999,-0.5638411,0.33599769,-0.211700805,-20.80577077,-5.20230311,-15.85824625,56.532801055,0.15348547675000002,-0.7400564984999998,-1.0215080240000003,-0.47425522755,0.36410719035,0.1615404957
10:25:43,1.34663954,-0.4326677800000003,-0.9230487,-0.5681238,0.33678072000000003,-0.21073134,-20.77424676,-5.22199168,-15.826504,56.604333340000004,0.14359297900000012,-0.7549598179999997,-1.0113899120000003,-0.4762662694,0.36562220580000004,0.16470107159999997
10:25:43,1.341846125,-0.44797437500000026,-0.928987875,-0.5724064999999999,0.33756375,-0.209761875,-20.74272275,-5.24168025,-15.79476175,56.675865625,0.13370048125,-0.7698631374999998,-1.0012718000000003,-0.47827731124999995,0.36713722125000003,0.1678616475
10:25:43,1.33705271,-0.46328097000000024,-0.93492705,-0.5766892,0.33834678,-0.20879241,-20.71119874,-5.2613688199999995,-15.7630195,56.747397910000004,0.12380798350000011,-0.7847664569999997,-0.9911536880000003,-0.48028835309999995,0.3686522367,0.1710222234
10:25:43,1.332259295,-0.4785875650000002,-0.940866225,-0.5809719,0.33912981,-0.207822945,-20.679674730000002,-5.28105739,-15.73127725,56.818930195,0.11391548574999999,-0.7996697764999998,-0.9810355760000002,-0.48229939494999996,0.37016725215,0.17418279929999997
10:25:43,1.32746588,-0.4938941600000002,-0.9468053999999999,-0.5852546,0.33991284,-0.20685348,-20.64815072,-5.30074596,-15.699535000000001,56.890462480000004,0.1040229880000001,-0.8145730959999997,-0.9709174640000002,-0.48431043679999997,0.3716822676,0.1773433752
10:25:43,1.3226724650000001,-0.5092007550000002,-0.9527445749999999,-0.5895372999999999,0.34069587,-0.205884015,-20.61662671,-5.32043453,-15.66779275,56.961994765,0.0941304902500002,-0.8294764154999996,-0.9607993520000002,-0.48632147864999997,0.37319728305,0.1805039511
10:25:43,1.31787905,-0.5245073500000001,-0.9586837500000001,-0.5938199999999999,0.34147890000000003,-0.20491455,-20.5851027,-5.3401231,-15.6360505,57.033527050000004,0.08423799250000008,-0.8443797349999997,-0.9506812400000002,-0.4883325205,0.3747122985,0.18366452699999997
10:25:43,1.313085635,-0.5398139450000001,-0.964622925,-0.5981027,0.34226193,-0.203945085,-20.553578690000002,-5.35981167,-15.604308249999999,57.105059335,0.07434549475000019,-0.8592830544999996,-0.9405631280000002,-0.49034356235,0.37622731395,0.18682510289999998
10:25:43,1.30829222,-0.5551205400000003,-0.9705621,-0.6023854,0.34304496,-0.20297562,-20.52205468,-5.3795002400000005,-15.572566,57.17659162,0.06445299700000007,-0.8741863739999998,-0.9304450160000002,-0.4923546042,0.37774232939999997,0.1899856788
10:25:43,1.303498805,-0.5704271350000001,-0.976501275,-0.6066680999999999,0.34382799000000003,-0.20200615500000002,-20.49053067,-5.39918881,-15.540823750000001,57.248123905,0.05456049925000017,-0.8890896934999997,-0.9203269040000002,-0.49436564605,0.37925734485,0.19314625469999996
10:25:43,1.2987053899999998,-0.5857337300000003,-0.9824404499999999,-0.6109507999999999,0.34461102,-0.20103669000000002,-20.45900666,-5.41887738,-15.5090815,57.31965619,0.044668001500000054,-0.9039930129999998,-0.9102087920000002,-0.4963766879,0.3807723603,0.19630683059999998
10:25:43,1.2939119749999999,-0.601040325,-0.9883796249999999,-0.6152335,0.34539405,-0.20006722500000002,-20.42748265,-5.43856595,-15.47733925,57.391188475,0.03477550375000016,-0.9188963324999997,-0.9000906800000001,-0.49838772975,0.38228737575000005,0.1994674065
10:25:43,1.28911856,-0.6163469200000002,-0.9943188000000001,-0.6195162,0.34617708,-0.19909776,-20.39595864,-5.4582545200000006,-15.445597,57.46272076,0.02488300600000004,-0.9337996519999998,-0.8899725680000001,-0.5003987716,0.38380239120000004,0.20262798239999996
10:25:43,1.284325145,-0.631653515,-1.000257975,-0.6237988999999999,0.34696011,-0.198128295,-20.36443463,-5.47794309,-15.413854749999999,57.534253045,0.014990508250000145,-0.9487029714999995,-0.8798544560000003,-0.50240981345,0.38531740665,0.20578855829999998
10:25:43,1.27953173,-0.6469601100000002,-1.00619715,-0.6280815999999999,0.34774314,-0.19715883,-20.33291062,-5.49763166,-15.3821125,57.60578533,0.0050980105000000275,-0.9636062909999996,-0.8697363440000003,-0.5044208553,0.3868324221,0.2089491342
10:25:43,1.274738315,-0.6622667050000004,-1.012136325,-0.6323643,0.34852617,-0.196189365,-20.30138661,-5.51732023,-15.350370250000001,57.677317615,-0.004794487249999868,-0.9785096104999997,-0.8596182320000003,-0.50643189715,0.38834743755,0.21210971009999996
10:25:43,1.2699449,-0.6775733000000002,-1.0180755,-0.636647,0.3493092,-0.1952199,-20.2698626,-5.537008800000001,-15.318628,57.7488499,-0.014686984999999986,-0.9934129299999999,-0.8495001200000003,-0.508442939,0.389862453,0.21527028599999998
10:25:43,1.265151485,-0.6928798950000004,-1.0240146749999999,-0.6409296999999999,0.35009223,-0.194250435,-20.23833859,-5.55669737,-15.28688575,57.820382185,-0.02457948274999988,-1.0083162494999995,-0.8393820080000003,-0.51045398085,0.39137746845,0.2184308619
10:25:43,1.26035807,-0.7081864900000001,-1.02995385,-0.6452123999999999,0.35087526,-0.19328097,-20.20681458,-5.57638594,-15.255143499999999,57.89191447,-0.0344719805,-1.0232195689999997,-0.8292638960000003,-0.5124650226999999,0.3928924839,0.2215914378
10:25:43,1.2555646550000001,-0.7234930850000003,-1.035893025,-0.6494951,0.35165829000000004,-0.19231150500000002,-20.17529057,-5.596074509999999,-15.22340125,57.963446755,-0.044364478249999895,-1.0381228884999998,-0.8191457840000003,-0.51447606455,0.39440749934999997,0.22475201369999998
10:25:43,1.25077124,-0.7387996800000001,-1.0418322,-0.6537778,0.35244132,-0.19134204000000002,-20.14376656,-5.61576308,-15.191659,58.03497904,-0.05425697600000001,-1.053026208,-0.8090276720000003,-0.5164871064,0.3959225148,0.2279125896
10:25:43,1.245977825,-0.7541062750000003,-1.047771375,-0.6580604999999999,0.35322435,-0.19037257500000002,-20.11224255,-5.63545165,-15.15991675,58.106511325,-0.06414947374999991,-1.0679295274999996,-0.7989095600000002,-0.51849814825,0.39743753025,0.2310731655
10:25:43,1.24118441,-0.76941287,-1.05371055,-0.6623431999999999,0.35400738,-0.18940311,-20.08071854,-5.65514022,-15.1281745,58.17804361,-0.0740419714999998,-1.0828328469999997,-0.7887914480000002,-0.5205091901,0.3989525457,0.23423374139999997
10:25:43,1.236390995,-0.7847194650000002,-1.0596497249999999,-0.6666259,0.35479041,-0.188433645,-20.04919453,-5.674828789999999,-15.09643225,58.249575895,-0.08393446924999992,-1.0977361664999998,-0.7786733360000002,-0.52252023195,0.40046756115000004,0.2373943173
10:25:43,1.2315975799999999,-0.8000260600000004,-1.0655889,-0.6709086,0.35557344,-0.18746418,-20.01767052,-5.69451736,-15.064689999999999,58.32110818,-0.09382696699999982,-1.1126394859999995,-0.7685552240000002,-0.5245312738,0.40198257660000003,0.2405548932
10:25:43,1.226804165,-0.8153326550000002,-1.071528075,-0.6751912999999999,0.35635647000000004,-0.186494715,-19.98614651,-5.71420593,-15.03294775,58.392640465,-0.10371946474999993,-1.1275428054999996,-0.7584371120000002,-0.52654231565,0.40349759205,0.24371546909999997
10:25:43,1.22201075,-0.8306392500000004,-1.07746725,-0.6794739999999999,0.3571395,-0.18552525,-19.9546225,-5.7338945,-15.001205500000001,58.46417275,-0.11361196249999983,-1.1424461249999998,-0.7483190000000002,-0.5285533575,0.4050126075,0.246876045
10:25:43,1.217217335,-0.8459458450000001,-1.083406425,-0.6837567,0.35792253,-0.184555785,-19.92309849,-5.7535830699999995,-14.96946325,58.53570503500001,-0.12350446024999995,-1.1573494444999999,-0.7382008880000002,-0.53056439935,0.40652762295,0.2500366209
10:25:43,1.21242392,-0.8612524400000003,-1.0893456,-0.6880394,0.35870556,-0.18358632,-19.891574480000003,-5.77327164,-14.937721,58.60723732,-0.13339695799999984,-1.1722527639999996,-0.7280827760000004,-0.5325754412,0.4080426384,0.25319719679999997
10:25:43,1.207630505,-0.8765590350000001,-1.0952847749999999,-0.6923220999999999,0.35948859,-0.18261685500000002,-19.86005047,-5.79296021,-14.90597875,58.678769605,-0.14328945574999996,-1.1871560834999997,-0.7179646640000004,-0.53458648305,0.40955765385,0.2563577727
10:25:43,1.20283709,-0.8918656300000003,-1.10122395,-0.6966047999999999,0.36027162,-0.18164739000000002,-19.82852646,-5.81264878,-14.874236499999999,58.75030189,-0.15318195349999986,-1.2020594029999998,-0.7078465520000004,-0.5365975249,0.41107266929999997,0.2595183486
10:25:43,1.198043675,-0.907172225,-1.107163125,-0.7008875,0.36105465000000003,-0.18067792500000002,-19.79700245,-5.8323373499999995,-14.84249425,58.821834175000006,-0.16307445124999997,-1.2169627224999995,-0.6977284400000003,-0.53860856675,0.41258768475,0.26267892449999997
10:25:43,1.1932502600000001,-0.9224788200000003,-1.1131023,-0.7051702,0.36183768,-0.17970846000000001,-19.765478440000003,-5.85202592,-14.810752,58.89336646,-0.17296694899999987,-1.2318660419999996,-0.6876103280000003,-0.5406196086,0.4141027002,0.2658395004
10:25:43,1.1884568450000002,-0.937785415,-1.119041475,-0.7094528999999999,0.36262071,-0.178738995,-19.73395443,-5.8717144900000005,-14.77900975,58.964898745,-0.18285944675,-1.2467693614999997,-0.6774922160000003,-0.54263065045,0.41561771565,0.2690000763
10:25:43,1.18366343,-0.9530920100000002,-1.12498065,-0.7137355999999999,0.36340374,-0.17776953,-19.70243042,-5.89140306,-14.7472675,59.03643103,-0.19275194449999988,-1.2616726809999999,-0.6673741040000003,-0.5446416923,0.41713273110000004,0.27216065219999996
10:25:43,1.178870015,-0.9683986050000004,-1.1309198249999999,-0.7180183,0.36418677,-0.176800065,-19.67090641,-5.91109163,-14.715525249999999,59.107963315000006,-0.20264444225,-1.2765760004999995,-0.6572559920000003,-0.54665273415,0.41864774655000003,0.2753212281
10:25:43,1.1740766,-0.9837052000000002,-1.1368589999999998,-0.722301,0.3649698,-0.1758306,-19.639382400000002,-5.9307802,-14.683783,59.1794956,-0.2125369399999999,-1.2914793199999997,-0.6471378800000003,-0.5486637759999999,0.420162762,0.27848180399999994
10:25:43,1.1692831849999998,-0.9990117950000004,-1.142798175,-0.7265836999999999,0.36575283000000003,-0.174861135,-19.60785839,-5.9504687700000005,-14.65204075,59.251027885,-0.2224294377499998,-1.3063826394999998,-0.6370197680000003,-0.5506748178499999,0.42167777745,0.2816423799
10:25:43,1.1644897699999999,-1.0143183900000001,-1.14873735,-0.7308663999999999,0.36653586000000005,-0.17389167,-19.57633438,-5.97015734,-14.6202985,59.32256017,-0.2323219354999999,-1.3212859589999995,-0.6269016560000003,-0.5526858597,0.4231927929,0.2848029558
10:25:43,1.159696355,-1.0296249850000003,-1.154676525,-0.7351490999999999,0.36731889,-0.17292220500000002,-19.54481037,-5.98984591,-14.58855625,59.394092455000006,-0.2422144332499998,-1.3361892784999996,-0.6167835440000002,-0.55469690155,0.42470780835,0.28796353169999994
10:25:43,1.15490294,-1.04493158,-1.1606157,-0.7394318,0.36810191999999997,-0.17195274000000002,-19.513286360000002,-6.00953448,-14.556814,59.46562474,-0.2521069309999999,-1.3510925979999997,-0.6066654320000002,-0.5567079434,0.4262228238,0.2911241076
10:25:43,1.150109525,-1.0602381750000003,-1.1665548749999999,-0.7437145,0.36888495,-0.17098327500000002,-19.48176235,-6.029223050000001,-14.525071749999999,59.537157025,-0.2619994287499998,-1.3659959174999998,-0.5965473200000002,-0.55871898525,0.42773783925,0.2942846835
10:25:43,1.14531611,-1.07554477,-1.1724940499999998,-0.7479971999999999,0.36966798,-0.17001381000000002,-19.45023834,-6.04891162,-14.4933295,59.60868931,-0.27189192649999994,-1.3808992369999995,-0.5864292080000002,-0.5607300271,0.4292528547,0.29744525939999994
10:25:43,1.140522695,-1.0908513650000002,-1.178433225,-0.7522798999999999,0.37045101,-0.169044345,-19.41871433,-6.06860019,-14.461587250000001,59.680221595000006,-0.28178442424999983,-1.3958025564999996,-0.5763110960000002,-0.56274106895,0.43076787015,0.3006058353
10:25:43,1.13572928,-1.1061579600000004,-1.1843724,-0.7565626,0.37123404000000004,-0.16807488,-19.387190320000002,-6.088288759999999,-14.429845,59.75175388,-0.29167692199999995,-1.4107058759999997,-0.5661929840000002,-0.5647521108,0.4322828856,0.3037664112
10:25:43,1.130935865,-1.1214645550000002,-1.190311575,-0.7608453,0.37201707,-0.167105415,-19.35566631,-6.10797733,-14.39810275,59.823286165,-0.30156941974999985,-1.4256091954999994,-0.5560748720000004,-0.56676315265,0.43379790105,0.30692698709999994
10:25:43,1.1261424500000001,-1.1367711500000004,-1.19625075,-0.7651279999999999,0.37280009999999997,-0.16613595,-19.324142300000002,-6.1276659,-14.366360499999999,59.89481845,-0.31146191749999996,-1.4405125149999995,-0.5459567600000004,-0.5687741945,0.43531291650000004,0.310087563
10:25:43,1.1213490350000002,-1.1520777450000002,-1.2021899249999999,-0.7694106999999999,0.37358313,-0.165166485,-19.29261829,-6.14735447,-14.33461825,59.966350735000006,-0.32135441524999986,-1.4554158344999997,-0.5358386480000004,-0.57078523635,0.43682793195,0.3132481389
10:25:43,1.11655562,-1.1673843400000004,-1.2081290999999998,-0.7736934,0.37436616,-0.16419702,-19.261094280000002,-6.167043039999999,-14.302876,60.03788302,-0.331246913,-1.4703191539999998,-0.5257205360000003,-0.5727962782,0.4383429474,0.31640871479999993
10:25:43,1.111762205,-1.182690935,-1.2140682749999998,-0.7779761,0.37514919,-0.16322755500000002,-19.22957027,-6.18673161,-14.27113375,60.109415305,-0.34113941074999987,-1.4852224734999995,-0.5156024240000003,-0.57480732005,0.43985796285,0.3195692907
10:25:43,1.10696879,-1.1979975300000003,-1.22000745,-0.7822587999999999,0.37593222000000004,-0.16225809000000002,-19.19804626,-6.20642018,-14.2393915,60.18094759,-0.3510319085,-1.5001257929999996,-0.5054843120000003,-0.5768183619,0.4413729783,0.32272986659999997
10:25:43,1.1021753749999998,-1.213304125,-1.225946625,-0.7865414999999999,0.37671525,-0.16128862500000002,-19.16652225,-6.22610875,-14.20764925,60.252479875000006,-0.3609244062499999,-1.5150291124999997,-0.4953662000000003,-0.57882940375,0.44288799375,0.32589044249999993
10:25:43,1.0973819599999999,-1.2286107200000003,-1.2318858,-0.7908242,0.37749828,-0.16031916000000002,-19.13499824,-6.245797319999999,-14.175906999999999,60.32401216,-0.3708169039999998,-1.5299324319999994,-0.4852480880000003,-0.5808404456,0.44440300920000003,0.3290510184
10:25:43,1.092588545,-1.243917315,-1.2378249749999999,-0.7951069,0.37828131,-0.159349695,-19.10347423,-6.26548589,-14.14416475,60.395544445,-0.3807094017499999,-1.5448357514999995,-0.4751299760000003,-0.58285148745,0.44591802465,0.33221159429999997
10:25:43,1.08779513,-1.2592239100000002,-1.2437641499999998,-0.7993895999999999,0.37906434,-0.15838023,-19.07195022,-6.28517446,-14.112422500000001,60.46707673,-0.3906018994999998,-1.5597390709999996,-0.4650118640000003,-0.5848625293,0.4474330401,0.33537217019999993
10:25:43,1.083001715,-1.2745305050000004,-1.2497033249999998,-0.8036722999999999,0.37984737,-0.157410765,-19.04042621,-6.30486303,-14.08068025,60.538609015000006,-0.4004943972499999,-1.5746423904999998,-0.45489375200000026,-0.5868735711499999,0.44894805555,0.3385327461
10:25:43,1.0782083,-1.2898371000000002,-1.2556425,-0.807955,0.38063040000000004,-0.1564413,-19.0089022,-6.3245515999999995,-14.048938,60.6101413,-0.4103868949999998,-1.5895457099999994,-0.44477564000000025,-0.588884613,0.450463071,0.34169332199999997
10:25:43,1.073414885,-1.3051436950000004,-1.261581675,-0.8122377,0.38141343,-0.155471835,-18.97737819,-6.34424017,-14.017195749999999,60.681673585,-0.4202793927499999,-1.6044490294999996,-0.43465752800000024,-0.59089565485,0.45197808645000004,0.34485389790000004
10:25:43,1.06862147,-1.3204502900000001,-1.26752085,-0.8165203999999999,0.38219646,-0.15450237,-18.94585418,-6.36392874,-13.985453499999998,60.75320587,-0.4301718904999998,-1.6193523489999997,-0.4245394160000002,-0.5929066967,0.45349310190000003,0.3480144738
10:25:43,1.063828055,-1.3357568850000003,-1.2734600249999999,-0.8208030999999999,0.38297949,-0.15353290500000003,-18.91433017,-6.38361731,-13.95371125,60.824738155000006,-0.44006438824999994,-1.6342556684999998,-0.4144213040000002,-0.59491773855,0.45500811735,0.35117504969999996
10:25:43,1.0590346400000001,-1.35106348,-1.2793991999999998,-0.8250858,0.38376252,-0.15256344000000002,-18.88280616,-6.40330588,-13.921969,60.89627044,-0.44995688599999983,-1.6491589879999995,-0.4043031920000004,-0.5969287804,0.4565231328,0.35433562560000004
10:25:43,1.0542412250000002,-1.3663700750000003,-1.2853383749999998,-0.8293685,0.38454555,-0.15159397500000002,-18.851282150000003,-6.42299445,-13.89022675,60.967802725,-0.45984938374999995,-1.6640623074999996,-0.3941850800000004,-0.59893982225,0.45803814825,0.3574962015
10:25:43,1.04944781,-1.38167667,-1.29127755,-0.8336511999999999,0.38532858000000003,-0.15062451000000002,-18.81975814,-6.4426830200000005,-13.8584845,61.03933501,-0.46974188149999985,-1.6789656269999997,-0.3840669680000004,-0.6009508641,0.4595531637,0.36065677739999996
10:25:43,1.044654395,-1.3969832650000003,-1.297216725,-0.8379338999999999,0.38611161,-0.14965504500000001,-18.78823413,-6.46237159,-13.826742249999999,61.110867295000006,-0.47963437924999996,-1.6938689464999994,-0.3739488560000004,-0.60296190595,0.46106817915000003,0.36381735330000003
10:25:43,1.03986098,-1.4122898600000005,-1.3031559,-0.8422166,0.38689464,-0.14868558,-18.75671012,-6.48206016,-13.795,61.18239958,-0.48952687699999986,-1.7087722659999995,-0.3638307440000004,-0.6049729478,0.4625831946,0.3669779292
10:25:43,1.0350675649999999,-1.4275964550000002,-1.3090950749999999,-0.8464993,0.38767767,-0.147716115,-18.725186110000003,-6.50174873,-13.76325775,61.253931865,-0.49941937475,-1.7236755854999997,-0.35371263200000036,-0.60698398965,0.46409821005,0.37013850509999996
10:25:43,1.0302741499999999,-1.4429030500000004,-1.3150342499999998,-0.8507819999999999,0.3884607,-0.14674665,-18.6936621,-6.5214373000000005,-13.7315155,61.32546415,-0.5093118724999999,-1.7385789049999998,-0.34359452000000035,-0.6089950315,0.4656132255,0.37329908100000003
10:25:43,1.025480735,-1.4582096450000002,-1.3209734249999998,-0.8550646999999999,0.38924373,-0.145777185,-18.66213809,-6.54112587,-13.69977325,61.396996435000005,-0.51920437025,-1.7534822244999995,-0.33347640800000034,-0.61100607335,0.46712824095,0.3764596569
10:25:43,1.02068732,-1.4735162400000004,-1.3269126,-0.8593473999999999,0.39002676000000003,-0.14480772000000003,-18.63061408,-6.56081444,-13.668031,61.46852872,-0.5290968679999999,-1.7683855439999996,-0.3233582960000003,-0.6130171152,0.4686432564,0.37962023279999996
10:25:43,1.015893905,-1.4888228350000001,-1.332851775,-0.8636301,0.39080979000000005,-0.14383825500000003,-18.599090070000003,-6.580503009999999,-13.636288749999999,61.540061005000005,-0.5389893657499998,-1.7832888634999997,-0.3132401840000003,-0.61502815705,0.47015827185000003,0.38278080870000003
10:25:43,1.01110049,-1.5041294300000003,-1.33879095,-0.8679127999999999,0.39159282,-0.14286879000000002,-18.56756606,-6.60019158,-13.6045465,61.61159329,-0.5488818634999999,-1.7981921829999994,-0.3031220720000003,-0.6170391989,0.4716732873,0.3859413846
10:25:43,1.006307075,-1.519436025,-1.3447301249999999,-0.8721954999999999,0.39237584999999997,-0.14189932500000002,-18.53604205,-6.61988015,-13.57280425,61.683125575000005,-0.5587743612499998,-1.8130955024999995,-0.2930039600000003,-0.61905024075,0.47318830275,0.38910196049999995
10:25:43,1.00151366,-1.5347426200000003,-1.3506692999999999,-0.8764781999999999,0.39315888,-0.14092986000000002,-18.50451804,-6.63956872,-13.541062,61.75465786,-0.5686668589999999,-1.8279988219999996,-0.2828858480000003,-0.6210612826,0.4747033182,0.39226253640000003
10:25:43,0.996720245,-1.5500492150000005,-1.3566084749999998,-0.8807609,0.39394191,-0.13996039500000002,-18.472994030000002,-6.659257289999999,-13.50931975,61.826190145000005,-0.5785593567499998,-1.8429021414999998,-0.27276773600000026,-0.6230723244499999,0.47621833365,0.3954231123
10:25:43,0.99192683,-1.5653558100000002,-1.3625476499999998,-0.8850435999999999,0.39472494,-0.13899093,-18.44147002,-6.67894586,-13.477577499999999,61.89772243,-0.5884518544999999,-1.8578054609999994,-0.26264962400000025,-0.6250833662999999,0.47773334910000004,0.39858368819999995
10:25:43,0.987133415,-1.5806624050000004,-1.368486825,-0.8893262999999999,0.39550797000000004,-0.138021465,-18.40994601,-6.69863443,-13.445835249999998,61.969254715000005,-0.5983443522499998,-1.8727087804999996,-0.25253151200000046,-0.62709440815,0.47924836455000003,0.4017442641
10:25:44,0.98234,-1.595969,-1.374426,-0.893609,0.396291,-0.137052,-18.378422,-6.718323,-13.414093,62.040787,-0.60823685,-1.8876121,-0.2424134,-0.62910545,0.48076338,0.40490484
10:25:44,0.972856285,-1.59750056,-1.362024035,-0.88582663,0.394336085,-0.13554986,-18.396747955000002,-6.716929145,-13.409677335,62.143161715000005,-0.6047673491500001,-1.8879175314999999,-0.2305602205,-0.62293282175,0.47845139745500004,0.4007512748
10:25:44,0.96337257,-1.59903212,-1.34962207,-0.87804426,0.39238117,-0.13404772,-18.41507391,-6.71553529,-13.40526167,62.24553643,-0.6012978483000001,-1.8882229629999998,-0.218707041,-0.6167601935,0.47613941491,0.3965977096
10:25:44,0.953888855,-1.60056368,-1.3372201049999999,-0.87026189,0.390426255,-0.13254558,-18.433399865000002,-6.714141435,-13.400846005,62.347911145000005,-0.59782834745,-1.8885283945,-0.2068538615,-0.6105875652499999,0.473827432365,0.3924441444
10:25:44,0.94440514,-1.60209524,-1.3248181399999999,-0.8624795199999999,0.38847134,-0.13104344,-18.45172582,-6.71274758,-13.39643034,62.45028586,-0.5943588466,-1.888833826,-0.195000682,-0.6044149369999999,0.47151544982000004,0.3882905792
10:25:44,0.934921425,-1.6036268,-1.3124161749999999,-0.85469715,0.386516425,-0.1295413,-18.470051775,-6.7113537249999995,-13.392014674999999,62.552660575000004,-0.5908893457500001,-1.8891392575,-0.1831475025,-0.59824230875,0.469203467275,0.384137014
10:25:44,0.92543771,-1.60515836,-1.3000142099999998,-0.84691478,0.38456151,-0.12803916,-18.48837773,-6.70995987,-13.387599009999999,62.65503529,-0.5874198449000001,-1.8894446889999998,-0.171294323,-0.5920696805,0.46689148473000003,0.3799834488
10:25:44,0.915953995,-1.60668992,-1.287612245,-0.8391324099999999,0.382606595,-0.12653702,-18.506703685,-6.708566015,-13.383183344999999,62.757410005000004,-0.58395034405,-1.8897501205,-0.1594411435,-0.58589705225,0.464579502185,0.37582988359999997
10:25:44,0.90647028,-1.6082214799999999,-1.27521028,-0.83135004,0.38065168,-0.12503488000000001,-18.52502964,-6.70717216,-13.37876768,62.85978472,-0.5804808432,-1.890055552,-0.14758796400000002,-0.5797244239999999,0.46226751964,0.3716763184
10:25:44,0.896986565,-1.60975304,-1.262808315,-0.82356767,0.378696765,-0.12353274,-18.543355595,-6.705778305,-13.374352015,62.962159435000004,-0.5770113423500001,-1.8903609835,-0.13573478449999998,-0.5735517957499999,0.45995553709500003,0.3675227532
10:25:44,0.88750285,-1.6112846,-1.25040635,-0.8157852999999999,0.37674185,-0.1220306,-18.56168155,-6.70438445,-13.36993635,63.06453415,-0.5735418415000001,-1.8906664149999999,-0.123881605,-0.5673791675,0.45764355455,0.363369188
10:25:44,0.878019135,-1.61281616,-1.238004385,-0.80800293,0.374786935,-0.12052846,-18.580007505,-6.702990595,-13.365520685,63.166908865,-0.57007234065,-1.8909718464999998,-0.1120284255,-0.56120653925,0.455331572005,0.35921562279999997
10:25:44,0.86853542,-1.61434772,-1.22560242,-0.80022056,0.37283202,-0.11902632,-18.59833346,-6.701596739999999,-13.36110502,63.26928358,-0.5666028398,-1.891277278,-0.100175246,-0.555033911,0.45301958946000004,0.3550620576
10:25:44,0.859051705,-1.61587928,-1.213200455,-0.7924381899999999,0.370877105,-0.11752418,-18.616659415,-6.7002028849999995,-13.356689355,63.371658295,-0.5631333389500001,-1.8915827095,-0.08832206649999999,-0.5488612827499999,0.450707606915,0.3509084924
10:25:44,0.84956799,-1.61741084,-1.20079849,-0.78465582,0.36892219,-0.11602204,-18.63498537,-6.69880903,-13.352273689999999,63.47403301,-0.5596638381000001,-1.891888141,-0.07646888700000001,-0.5426886544999999,0.44839562437,0.3467549272
10:25:44,0.840084275,-1.6189424,-1.188396525,-0.77687345,0.366967275,-0.11451990000000001,-18.653311325,-6.697415175,-13.347858024999999,63.576407725,-0.55619433725,-1.8921935724999999,-0.06461570750000001,-0.5365160262499999,0.44608364182500004,0.342601362
10:25:44,0.83060056,-1.62047396,-1.17599456,-0.7690910799999999,0.36501236,-0.11301776000000001,-18.67163728,-6.69602132,-13.34344236,63.67878244,-0.5527248364,-1.8924990039999998,-0.052762528,-0.530343398,0.44377165928,0.3384477968
10:25:44,0.821116845,-1.62200552,-1.163592595,-0.76130871,0.363057445,-0.11151562000000001,-18.689963235,-6.694627465,-13.339026695,63.781157155,-0.5492553355500001,-1.8928044355,-0.0409093485,-0.52417076975,0.44145967673500003,0.3342942316
10:25:44,0.81163313,-1.62353708,-1.1511906299999999,-0.75352634,0.36110253,-0.11001348,-18.708289190000002,-6.69323361,-13.33461103,63.88353187,-0.5457858347000001,-1.893109867,-0.029056168999999993,-0.5179981415,0.43914769419,0.3301406664
10:25:44,0.802149415,-1.62506864,-1.1387886649999999,-0.7457439699999999,0.35914761500000003,-0.10851134000000001,-18.726615145,-6.691839755,-13.330195365,63.985906585,-0.5423163338500001,-1.8934152985,-0.017202989500000015,-0.51182551325,0.436835711645,0.32598710119999996
10:25:44,0.7926657,-1.6266002,-1.1263866999999999,-0.7379616,0.35719270000000003,-0.1070092,-18.744941100000002,-6.6904459,-13.3257797,64.0882813,-0.538846833,-1.8937207299999999,-0.00534981000000001,-0.5056528849999999,0.43452372910000003,0.321833536
10:25:44,0.783181985,-1.62813176,-1.1139847349999998,-0.73017923,0.35523778500000003,-0.10550706000000001,-18.763267055,-6.6890520449999995,-13.321364035,64.190656015,-0.53537733215,-1.8940261615,0.006503369499999995,-0.49948025674999996,0.432211746555,0.3176799708
10:25:44,0.77369827,-1.62966332,-1.1015827699999998,-0.7223968599999999,0.35328287,-0.10400492,-18.78159301,-6.68765819,-13.316948369999999,64.29303073,-0.5319078313000001,-1.894331593,0.018356549,-0.4933076285,0.42989976401,0.3135264056
10:25:44,0.764214555,-1.63119488,-1.0891808049999998,-0.71461449,0.351327955,-0.10250278,-18.799918965,-6.686264335,-13.312532704999999,64.39540544500001,-0.52843833045,-1.8946370245,0.030209728499999977,-0.48713500025,0.427587781465,0.3093728404
10:25:44,0.75473084,-1.63272644,-1.07677884,-0.70683212,0.34937304,-0.10100064,-18.81824492,-6.68487048,-13.308117039999999,64.49778016,-0.5249688296,-1.8949424559999999,0.04206290800000001,-0.48096237199999997,0.42527579892,0.30521927520000003
10:25:44,0.745247125,-1.634258,-1.064376875,-0.6990497499999999,0.347418125,-0.0994985,-18.836570875,-6.683476625,-13.303701375,64.600154875,-0.52149932875,-1.8952478874999998,0.05391608749999999,-0.47478974374999994,0.422963816375,0.30106571
10:25:44,0.73576341,-1.63578956,-1.05197491,-0.69126738,0.34546321,-0.09799636,-18.85489683,-6.68208277,-13.29928571,64.70252959,-0.5180298279000001,-1.895553319,0.06576926700000002,-0.46861711549999996,0.42065183383000004,0.2969121448
10:25:44,0.7262796950000001,-1.63732112,-1.039572945,-0.68348501,0.343508295,-0.09649422,-18.873222785,-6.680688915,-13.294870045,64.80490430500001,-0.5145603270500001,-1.8958587505,0.0776224465,-0.46244448725,0.418339851285,0.2927585796
10:25:44,0.7167959800000001,-1.63885268,-1.02717098,-0.6757026399999999,0.34155338,-0.09499208,-18.89154874,-6.679295059999999,-13.29045438,64.90727902,-0.5110908262,-1.896164182,0.08947562599999997,-0.456271859,0.41602786874000003,0.28860501439999997
10:25:44,0.7073122650000001,-1.64038424,-1.014769015,-0.66792027,0.339598465,-0.09348994,-18.909874695,-6.6779012049999995,-13.286038715,65.009653735,-0.50762132535,-1.8964696134999999,0.10132880550000001,-0.45009923074999997,0.413715886195,0.2844514492
10:25:44,0.6978285500000001,-1.6419158,-1.00236705,-0.6601378999999999,0.33764355,-0.09198780000000001,-18.92820065,-6.67650735,-13.28162305,65.11202845,-0.5041518245000001,-1.8967750449999998,0.11318198499999998,-0.4439266025,0.41140390365,0.280297884
10:25:44,0.6883448350000001,-1.64344736,-0.9899650849999999,-0.65235553,0.335688635,-0.09048566,-18.946526605,-6.675113495,-13.277207384999999,65.21440316500001,-0.5006823236500001,-1.8970804765,0.12503516450000002,-0.43775397424999996,0.40909192110500003,0.2761443188
10:25:44,0.6788611200000001,-1.64497892,-0.9775631199999999,-0.64457316,0.33373372,-0.08898352000000001,-18.96485256,-6.67371964,-13.272791719999999,65.31677788,-0.49721282280000006,-1.897385908,0.136888344,-0.431581346,0.40677993856,0.2719907536
10:25:44,0.6693774050000001,-1.6465104799999999,-0.9651611549999999,-0.63679079,0.331778805,-0.08748138,-18.983178515,-6.672325785,-13.268376055,65.419152595,-0.49374332195000004,-1.8976913395,0.14874152349999997,-0.42540871775,0.404467956015,0.26783718840000004
10:25:44,0.6598936900000001,-1.64804204,-0.95275919,-0.6290084199999999,0.32982389,-0.08597924000000001,-19.00150447,-6.67093193,-13.26396039,65.52152731,-0.49027382110000006,-1.8979967709999999,0.160594703,-0.41923608949999996,0.40215597347,0.2636836232
10:25:44,0.6504099750000001,-1.6495736,-0.940357225,-0.62122605,0.327868975,-0.0844771,-19.019830425000002,-6.669538075,-13.259544725,65.623902025,-0.48680432025000003,-1.8983022025,0.17244788249999998,-0.41306346125,0.399843990925,0.259530058
10:25:44,0.6409262600000001,-1.65110516,-0.92795526,-0.61344368,0.32591406,-0.08297496,-19.03815638,-6.66814422,-13.25512906,65.72627674,-0.48333481940000006,-1.898607634,0.18430106200000002,-0.40689083299999995,0.39753200838,0.25537649279999997
10:25:44,0.6314425450000001,-1.65263672,-0.9155532949999999,-0.6056613099999999,0.323959145,-0.08147282,-19.056482335000002,-6.6667503649999995,-13.250713395,65.828651455,-0.47986531855000003,-1.8989130655,0.1961542415,-0.40071820475,0.39522002583500004,0.2512229276
10:25:44,0.6219588300000001,-1.65416828,-0.90315133,-0.59787894,0.32200423,-0.07997068,-19.07480829,-6.66535651,-13.24629773,65.93102617,-0.47639581770000006,-1.899218497,0.20800742099999997,-0.3945455765,0.39290804329,0.2470693624
10:25:44,0.6124751150000001,-1.65569984,-0.890749365,-0.59009657,0.320049315,-0.07846854,-19.093134245,-6.663962655,-13.241882064999999,66.033400885,-0.4729263168500001,-1.8995239284999998,0.2198606005,-0.38837294825,0.39059606074500003,0.2429157972
10:25:44,0.6029914000000001,-1.6572314,-0.8783474,-0.5823142,0.3180944,-0.0769664,-19.1114602,-6.6625688,-13.237466399999999,66.1357756,-0.46945681600000005,-1.89982936,0.23171377999999998,-0.38220032,0.3882840782,0.238762232
10:25:44,0.5935076850000001,-1.65876296,-0.865945435,-0.57453183,0.316139485,-0.07546426,-19.129786155,-6.661174945,-13.233050734999999,66.238150315,-0.46598731515,-1.9001347915,0.2435669595,-0.37602769175,0.385972095655,0.2346086668
10:25:44,0.5840239700000001,-1.6602945199999999,-0.85354347,-0.56674946,0.31418457,-0.07396212,-19.14811211,-6.65978109,-13.22863507,66.34052503000001,-0.46251781430000005,-1.900440223,0.255420139,-0.36985506349999997,0.38366011311000003,0.2304551016
10:25:44,0.574540255,-1.66182608,-0.841141505,-0.55896709,0.312229655,-0.07245998000000001,-19.166438065,-6.658387235,-13.224219405,66.442899745,-0.4590483134500001,-1.9007456544999999,0.2672733185,-0.36368243525,0.381348130565,0.2263015364
10:25:44,0.56505654,-1.66335764,-0.8287395399999999,-0.55118472,0.31027474,-0.07095784000000001,-19.18476402,-6.656993379999999,-13.21980374,66.54527446,-0.45557881260000005,-1.9010510859999998,0.279126498,-0.357509807,0.37903614802,0.2221479712
10:25:44,0.555572825,-1.6648892,-0.8163375749999999,-0.54340235,0.308319825,-0.0694557,-19.203089975,-6.6555995249999995,-13.215388075,66.647649175,-0.45210931175,-1.9013565175,0.2909796775,-0.35133717875,0.376724165475,0.217994406
10:25:44,0.54608911,-1.66642076,-0.8039356099999999,-0.53561998,0.30636491,-0.06795356,-19.22141593,-6.65420567,-13.21097241,66.75002389000001,-0.44863981090000005,-1.901661949,0.30283285699999996,-0.3451645505,0.37441218293,0.2138408408
10:25:44,0.536605395,-1.66795232,-0.791533645,-0.52783761,0.304409995,-0.06645142,-19.239741885,-6.652811815,-13.206556745,66.852398605,-0.4451703100500001,-1.9019673805,0.31468603650000004,-0.33899192224999997,0.372100200385,0.2096872756
10:25:44,0.52712168,-1.66948388,-0.77913168,-0.52005524,0.30245508,-0.06494928,-19.25806784,-6.65141796,-13.202141079999999,66.95477332,-0.44170080920000004,-1.9022728119999999,0.326539216,-0.332819294,0.36978821784000004,0.2055337104
10:25:44,0.517637965,-1.67101544,-0.766729715,-0.51227287,0.300500165,-0.06344714,-19.276393795,-6.650024105,-13.197725414999999,67.057148035,-0.43823130835,-1.9025782435,0.3383923955,-0.32664666575,0.367476235295,0.2013801452
10:25:44,0.50815425,-1.672547,-0.75432775,-0.5044905,0.29854525,-0.061945,-19.29471975,-6.64863025,-13.19330975,67.15952275000001,-0.43476180750000004,-1.902883675,0.350245575,-0.3204740375,0.36516425275000003,0.19722658
10:25:44,0.4986705350000001,-1.67407856,-0.741925785,-0.49670812999999997,0.296590335,-0.06044286,-19.313045705,-6.647236395,-13.188894085,67.261897465,-0.43129230665000007,-1.9031891065,0.36209875449999995,-0.31430140925,0.362852270205,0.1930730148
10:25:44,0.4891868200000001,-1.67561012,-0.7295238199999999,-0.48892576,0.29463542,-0.05894072,-19.331371660000002,-6.64584254,-13.18447842,67.36427218,-0.42782280580000004,-1.903494538,0.37395193400000004,-0.30812878099999996,0.36054028766,0.1889194496
10:25:44,0.479703105,-1.67714168,-0.7171218549999999,-0.48114338999999995,0.292680505,-0.05743858,-19.349697615,-6.6444486849999995,-13.180062755,67.466646895,-0.42435330495,-1.9037999694999999,0.3858051135,-0.30195615275,0.35822830511500003,0.1847658844
10:25:44,0.4702193900000001,-1.67867324,-0.70471989,-0.47336101999999997,0.29072559,-0.055936440000000004,-19.368023570000002,-6.64305483,-13.17564709,67.56902161000001,-0.42088380410000004,-1.904105401,0.397658293,-0.2957835245,0.35591632257,0.1806123192
10:25:44,0.4607356750000001,-1.6802048,-0.692317925,-0.46557865,0.288770675,-0.054434300000000005,-19.386349525,-6.641660975,-13.171231425,67.671396325,-0.41741430325000006,-1.9044108325,0.4095114725,-0.28961089624999997,0.353604340025,0.176458754
10:25:44,0.4512519600000001,-1.68173636,-0.67991596,-0.45779627999999994,0.28681576,-0.052932160000000006,-19.40467548,-6.64026712,-13.16681576,67.77377104,-0.4139448024000001,-1.904716264,0.42136465199999995,-0.283438268,0.35129235748,0.1723051888
10:25:44,0.4417682450000001,-1.68326792,-0.667513995,-0.45001390999999996,0.284860845,-0.05143002000000001,-19.423001435,-6.638873265,-13.162400094999999,67.87614575500001,-0.41047530155000006,-1.9050216955,0.43321783150000004,-0.27726563975,0.348980374935,0.1681516236
10:25:44,0.4322845300000001,-1.68479948,-0.65511203,-0.44223154,0.28290592999999997,-0.049927879999999994,-19.44132739,-6.63747941,-13.157984429999999,67.97852047,-0.40700580070000003,-1.9053271269999998,0.445071011,-0.2710930115,0.34666839239,0.1639980584
10:25:44,0.4228008150000001,-1.68633104,-0.6427100649999999,-0.43444917,0.28095101499999997,-0.048425739999999995,-19.459653345,-6.636085555,-13.153568765,68.080895185,-0.40353629985000006,-1.9056325585,0.4569241905,-0.26492038325,0.34435640984500004,0.1598444932
10:25:44,0.4133171000000001,-1.6878626,-0.6303080999999999,-0.42666679999999996,0.27899609999999997,-0.046923599999999996,-19.4779793,-6.634691699999999,-13.1491531,68.1832699,-0.4000667990000001,-1.90593799,0.46877736999999997,-0.258747755,0.3420444273,0.155690928
10:25:44,0.4038333850000001,-1.68939416,-0.617906135,-0.41888443,0.27704118499999997,-0.04542146,-19.496305255,-6.6332978449999995,-13.144737435,68.285644615,-0.39659729815000005,-1.9062434215,0.48063054949999995,-0.25257512675,0.339732444755,0.15153736280000002
10:25:44,0.3943496700000001,-1.69092572,-0.60550417,-0.41110206,0.27508626999999997,-0.04391932,-19.51463121,-6.63190399,-13.14032177,68.38801933,-0.3931277973,-1.9065488529999999,0.49248372900000004,-0.2464024985,0.33742046221,0.14738379759999998
10:25:44,0.3848659550000001,-1.69245728,-0.593102205,-0.40331968999999995,0.27313135499999996,-0.04241718,-19.532957165,-6.630510135,-13.135906105,68.490394045,-0.38965829645000005,-1.9068542845,0.5043369085,-0.24022987024999998,0.335108479665,0.1432302324
10:25:44,0.3753822400000001,-1.69398884,-0.58070024,-0.39553731999999997,0.27117643999999996,-0.04091504,-19.55128312,-6.62911628,-13.13149044,68.59276876,-0.3861887956000001,-1.907159716,0.516190088,-0.234057242,0.33279649712000003,0.1390766672
