Timestamp,linacce_x,linacce_y,linacce_z,gyro_x,gyro_y,gyro_z,X-magnetometer,Y-magnetometer,Z-magnetometer,Yaw, worldXAccel,worldYAccel,worldZAccel,worldXgyro,worldYgyro,worldZgyro
20231225 09:41:33,-1.144834,-0.509612,-0.863726,0.515484,0.132827,-0.172595,-4.416775,-4.185612,-12.994553,53.522587,-1.3346648,-0.5440813,0.72406924,0.23228928,0.23283459,-0.50957966
20231225 09:41:33,-1.255484,-0.743235,-0.901684,0.555967,0.039077,-0.171529,-4.417156,-3.993725,-13.275040,52.996223,-1.3888674,-0.7823766,0.92004895,0.2709563,0.15673816,-0.48690918
20231225 09:41:33,-1.245369,-0.705493,-1.145333,0.570882,-0.065327,-0.163007,-4.572079,-1.552433,-13.435928,45.25791,-1.5336628,-0.6856477,0.7054232,0.2842363,0.061564766,-0.46498197
20231225 09:41:33,-1.211281,-0.369509,-1.472174,0.517614,-0.153751,-0.139569,-4.531895,-4.287010,-13.123047,47.273407,-1.8060763,-0.25665298,0.53396946,0.22934815,-0.05364301,-0.4034909
20231225 09:41:33,-1.017057,0.169109,-1.709682,0.396165,-0.202757,-0.110805,-4.725132,-4.685398,-12.563095,46.816784,-1.9842674,0.33022025,0.10087061,0.16916451,-0.13581942,-0.28487173
20231225 09:41:33,-0.607569,0.720714,-1.910634,0.210794,-0.177189,-0.086302,-4.664181,-4.962227,-12.678375,39.02943,-2.0008957,0.8673464,-0.518562,0.05737456,-0.15423588,-0.15464441
20231225 09:41:33,-0.175943,1.186461,-1.718331,-0.013994,-0.103680,-0.086302,-4.433933,-4.759430,-12.421402,32.299866,-1.5670273,1.2305667,-0.9940106,-0.0769654,-0.10146812,0.0021171756
20231225 09:41:33,0.178695,1.422637,-1.099823,-0.229195,-0.063197,-0.128915,-5.008785,-5.650204,-12.502930,35.123096,-0.7671126,1.4074615,-1.1546736,-0.23979369,-0.06272961,0.14477825
20231225 09:41:33,0.303711,1.450146,-0.353714,-0.401781,-0.077046,-0.215209,-4.690693,-5.439175,-12.379578,36.84019,-0.07335527,1.4469534,-0.9656327,-0.421566,-0.0764458,0.23078465
20231225 09:41:33,0.119956,1.505483,0.283850,-0.511512,-0.124987,-0.324939,-4.145695,-5.199757,-13.193619,36.249496,0.2489495,1.4992701,-0.527097,-0.57816505,-0.12849838,0.25949907
20231225 09:41:33,-0.360406,1.636968,0.738885,-0.558387,-0.156947,-0.415494,-4.848835,-5.073704,-12.405014,49.775684,0.16176468,1.5376037,-0.2561832,-0.6685453,-0.16393158,0.31144738
20231225 09:41:33,-0.981656,1.856469,1.064334,-0.520035,-0.147359,-0.453847,-4.876118,-5.166874,-12.667130,56.573326,-0.17816347,1.5467035,0.04470414,-0.66107285,-0.1505619,0.28833216
20231225 09:41:33,-1.679644,1.942245,1.271522,-0.382605,-0.075981,-0.428278,-4.435741,-5.701397,-12.493896,63.931316,-0.67651176,1.3252038,0.35507116,-0.5486058,-0.06436921,0.18676162
20231225 09:41:33,-2.334754,1.952071,1.468007,-0.156751,0.032685,-0.337724,-4.672764,-5.249134,-12.391800,68.206215,-1.1436281,0.97983015,0.7181934,-0.34258735,0.0705272,-0.0024363399
20231225 09:41:33,-2.801132,1.849311,1.377039,0.108521,0.139219,-0.202424,-4.566608,-5.242752,-12.257187,71.211555,-1.6020446,0.6486889,0.9871547,-0.086445056,0.20866102,-0.21745601
20231225 09:41:33,-2.922218,1.500705,1.079957,0.361008,0.203140,-0.057537,-4.954617,-5.271973,-12.259140,73.20135,-1.8079865,0.32757163,1.203967,0.17205934,0.30059636,-0.40195572
20231225 09:41:33,-2.626443,1.150218,0.656649,0.553836,0.186095,0.063913,-4.869335,-5.821934,-13.026215,69.79737,-1.6926636,0.25376952,1.2786725,0.38306367,0.29563907,-0.50230813
20231225 09:41:33,-2.094806,0.969537,-0.061543,0.678482,0.152004,0.157663,-4.884693,-5.453785,-12.380554,64.81658,-1.6661291,0.5013065,0.95673615,0.52929145,0.2487206,-0.5522519
20231225 09:41:33,-1.432053,0.537933,-0.607857,0.737076,0.098736,0.210931,-4.612202,-5.334076,-12.787567,55.135677,-1.4725516,0.4145954,0.5835867,0.61494344,0.1699862,-0.53709567
20231225 09:41:33,-0.668075,0.066308,-1.182949,0.743468,0.025227,0.217323,-4.515385,-5.230827,-12.927307,42.48297,-1.3436564,0.12560129,-0.03649324,0.6248905,0.057665482,-0.49854755
20231225 09:41:33,0.136710,-0.152020,-1.685530,0.688070,-0.038694,0.192820,-4.681728,-5.344154,-12.385696,31.533808,-1.2936963,-0.19260412,-0.9013154,0.5564426,-0.04551403,-0.4519428
20231225 09:41:33,0.798956,-0.264311,-2.038444,0.585797,-0.077046,0.145944,-4.602848,-5.430946,-12.513214,18.504898,-1.243747,-0.595397,-1.704069,0.43997177,-0.10910195,-0.39128873
20231225 09:41:33,1.241121,-0.375286,-2.300410,0.436648,-0.115399,0.056455,-4.178982,-5.021648,-12.535706,7.8240423,-1.2773261,-0.9719345,-2.2523491,0.26074213,-0.15644279,-0.32767177
20231225 09:41:33,1.356815,-0.328886,-2.522865,0.248081,-0.139902,-0.053276,-4.575573,-5.337772,-12.251068,10.709685,-1.4585676,-0.9905252,-2.4143457,0.056393936,-0.17686294,-0.22574946
20231225 09:41:33,1.182068,-0.204463,-2.672818,0.030750,-0.163339,-0.156614,-4.435741,-5.701397,-12.493896,13.678515,-1.7546828,-0.7261674,-2.2722054,-0.14540462,-0.1880467,-0.0820827
20231225 09:41:33,0.724267,0.030191,-2.886008,-0.188711,-0.168666,-0.249300,-4.629742,-5.716003,-12.494873,27.222855,-2.253511,-0.010524487,-1.8050312,-0.30956239,-0.17058581,0.10379204
20231225 09:41:33,0.025872,0.266953,-2.999322,-0.397520,-0.111137,-0.302567,-4.560215,-5.705925,-12.896744,38.252148,-2.6642418,0.6628884,-1.1707382,-0.43267184,-0.09675671,0.2770646
20231225 09:41:33,-0.486983,0.325725,-2.622230,-0.574368,-0.053609,-0.313221,-4.277981,-5.874977,-12.748932,46.250004,-2.4920578,0.75180566,-0.6645566,-0.5521438,-0.06023934,0.39466584
20231225 09:41:33,-0.774921,0.275821,-1.764757,-0.681968,-0.041890,-0.317482,-4.346096,-4.751202,-12.555023,48.70126,-1.890255,0.47846004,-0.20429152,-0.6496827,-0.075339384,0.43835887
20231225 09:41:33,-0.944856,0.406752,-0.869918,-0.704340,-0.077046,-0.332397,-4.232769,-5.591766,-12.499023,54.993317,-1.3278922,0.40409634,0.1633505,-0.6951928,-0.12180085,0.44618815
20231225 09:41:33,-1.169451,0.509248,-0.053900,-0.654269,-0.162274,-0.339854,-4.568409,-6.184723,-12.329697,63.599613,-0.9319199,0.31755134,0.51218754,-0.6643508,-0.20577158,0.4684043
20231225 09:41:33,-1.371100,0.638958,0.247661,-0.581825,-0.256025,-0.321743,-4.189747,-6.058632,-12.602097,62.543633,-0.8976324,0.32715473,0.6726594,-0.58034366,-0.29169244,0.4735442
20231225 09:41:33,-1.558010,0.801702,0.211781,-0.509381,-0.266678,-0.265280,-4.269016,-5.779957,-12.755051,62.002647,-1.0890486,0.43959692,0.7008371,-0.4854445,-0.3004856,0.44398153
20231225 09:41:33,-1.573694,0.851431,0.350968,-0.427349,-0.200627,-0.197098,-4.242504,-5.303009,-13.053848,59.66596,-1.0298593,0.46871993,0.7179748,-0.39999646,-0.2360628,0.35415372
20231225 09:41:33,-1.555510,0.920890,0.692455,-0.309096,-0.120726,-0.134242,-4.206264,-5.114819,-12.797852,59.901844,-0.8148147,0.50135535,0.75111175,-0.2928794,-0.14893767,0.2405824
20231225 09:41:33,-1.488444,0.864039,0.927388,-0.158882,-0.053609,-0.075648,-4.620777,-5.620983,-12.500977,64.88391,-0.60991675,0.44691616,0.7289834,-0.15813519,-0.06702845,0.12023042
20231225 09:41:33,-1.419163,0.753326,1.014735,-0.004406,-0.040824,-0.029838,-4.045925,-4.730209,-12.419449,58.55071,-0.4852414,0.34220803,0.8813526,-0.016706599,-0.03590932,0.017123392
20231225 09:41:33,-1.403173,0.644409,0.803489,0.114913,-0.073850,0.004253,-4.577755,-6.087852,-12.604050,65.296974,-0.5741659,0.27117306,0.7895859,0.09749184,-0.05373117,-0.029671915
20231225 09:41:33,-1.198354,0.604404,0.396949,0.201206,-0.121791,0.023429,-3.724232,-2.635246,-12.151077,45.472332,-0.65708673,0.3606371,0.7424433,0.17581245,-0.09352986,-0.069922045
20231225 09:41:33,-1.002906,0.518313,0.049356,0.258735,-0.168666,0.006384,-4.259663,-5.876827,-12.480682,57.60071,-0.72832906,0.3614592,0.44866017,0.20667794,-0.13029298,-0.08850754
20231225 09:41:33,-1.000882,0.629804,-0.294085,0.290695,-0.198496,-0.024511,-4.010715,-5.867764,-11.674973,57.017654,-0.97251594,0.52174395,0.31442627,0.2034386,-0.14850375,-0.121686496
20231225 09:41:33,-0.991590,0.610123,-0.689960,0.299218,-0.235783,-0.051145,-4.223423,-5.688633,-12.224670,52.51895,-1.245122,0.5810227,0.22066906,0.18521729,-0.18232167,-0.13878845
20231225 09:41:33,-0.756167,0.842192,-1.285663,0.256604,-0.146294,-0.111870,-3.907520,-6.227684,-12.454285,49.39851,-1.5981028,0.9420346,-0.27431288,0.08895318,-0.09421308,-0.18304639
20231225 09:41:33,-0.878015,1.294316,-0.844913,0.240624,-0.055739,-0.174725,-3.995747,-6.044022,-12.601120,50.52156,-1.4161615,1.2957065,-0.21496534,0.017313063,0.008857286,-0.23356047
20231225 09:41:33,-1.142410,1.392175,-0.739921,0.252343,0.033750,-0.214143,-3.667919,-6.121754,-11.922928,56.893894,-1.5684121,1.3040445,-0.06507529,-0.014378011,0.122568525,-0.28829476
20231225 09:41:33,-1.642198,1.378952,-0.576362,0.282172,0.100867,-0.204555,-3.977047,-6.237762,-12.052399,64.6664,-1.8274078,1.0886635,0.32567757,0.0031246245,0.21114916,-0.3315463
20231225 09:41:33,-2.106942,1.244181,-0.274481,0.312002,0.127501,-0.155549,-3.774464,-5.936245,-12.338013,66.77089,-1.9439864,0.6997754,0.7355369,0.06486492,0.24023587,-0.3515465
20231225 09:41:33,-2.322617,1.100123,0.117670,0.359943,0.083821,-0.079909,-3.228691,-6.080605,-12.591095,65.50606,-1.8053335,0.39602846,1.0485226,0.16845606,0.1913604,-0.33781496
20231225 09:41:33,-2.325296,1.057948,0.282472,0.400426,-0.003537,0.024495,-3.660107,-5.451069,-12.770462,63.260094,-1.6738378,0.3471791,1.1362913,0.29158694,0.088073105,-0.28231937
20231225 09:41:33,-1.964156,0.807732,0.169060,0.400426,-0.100484,0.136356,-3.616314,-6.301716,-12.312592,63.328068,-1.3900962,0.33803213,1.0052576,0.38921285,-0.044964857,-0.19183286
20231225 09:41:33,-1.261236,0.632553,-0.007149,0.371662,-0.146294,0.222649,-3.624897,-6.588623,-12.026001,56.65451,-0.9352324,0.45323798,0.5930196,0.4315127,-0.12744194,-0.11668432
20231225 09:41:33,-0.598760,0.689085,0.130491,0.342897,-0.159078,0.261002,-3.959118,-6.047722,-12.064636,49.040398,-0.35945752,0.6288584,0.15779063,0.43511826,-0.15432248,-0.06228868
20231225 09:41:33,-0.105702,0.474908,0.172505,0.301349,-0.175058,0.247152,-3.632832,-5.357903,-12.508331,36.60391,0.042631112,0.46621343,-0.018297188,0.3905782,-0.17415553,-0.021267518
20231225 09:41:33,0.334011,0.530307,0.249126,0.229970,-0.181450,0.213061,-3.403614,-6.480843,-11.762878,34.910275,0.41321063,0.529778,-0.31678286,0.3097406,-0.18129739,0.01013241
20231225 09:41:33,0.624642,0.874859,0.399528,0.176703,-0.146294,0.173643,-3.412968,-6.383972,-12.037247,29.48842,0.7448312,0.86816996,-0.5243205,0.24137534,-0.14540362,0.014251262
20231225 09:41:33,0.703565,0.834348,0.486979,0.160723,-0.051478,0.111853,-3.342670,-6.757671,-11.878189,34.47686,0.85134834,0.830682,-0.5694435,0.18957949,-0.052194446,-0.037855364
20231225 09:41:33,0.291217,0.859725,0.848543,0.157527,0.016704,0.057520,-3.164787,-5.991135,-11.792465,40.546314,0.78604746,0.8372316,-0.15406862,0.14891927,0.020012395,-0.09264378
20231225 09:41:33,-0.440486,0.915808,1.025710,0.195879,0.071037,0.037279,-2.934155,-5.980225,-11.255005,51.75346,0.33015606,0.756856,0.2584235,0.1552556,0.08594505,-0.1636594
20231225 09:41:33,-1.048315,0.810779,1.127337,0.273650,0.133893,0.048998,-3.334087,-6.470760,-12.164764,59.143173,-0.07370734,0.4920569,0.65731186,0.20897074,0.16258094,-0.25690135
20231225 09:41:33,-1.375179,0.578684,1.258820,0.362074,0.148807,0.082023,-2.892673,-5.679543,-12.479965,55.008507,-0.22768652,0.15180492,1.1324763,0.29341853,0.19024295,-0.30510718
20231225 09:41:33,-1.361529,0.247943,1.128864,0.453693,0.130697,0.112919,-3.024960,-6.354755,-12.035294,61.2575,-0.26701558,-0.13313217,1.17222,0.38626182,0.18129157,-0.35563618
20231225 09:41:33,-1.155396,-0.130792,0.936482,0.531464,0.102998,0.129964,-2.842056,-2.570431,-12.012543,40.445248,-0.19208091,-0.4018753,1.3730141,0.46117893,0.15603319,-0.34140944
20231225 09:41:33,-0.900078,-0.518044,0.623340,0.594319,0.087017,0.134226,-2.768200,-5.675011,-12.077103,50.167767,-0.1635175,-0.6835779,1.1985556,0.5101887,0.1392212,-0.39873248
20231225 09:41:33,-0.529231,-0.752321,0.255579,0.622018,0.093409,0.144879,-2.778587,-6.903881,-11.863037,50.689857,-0.14495264,-0.8031531,0.90098155,0.53684294,0.12624976,-0.42401332
20231225 09:41:33,-0.064112,-1.130422,-0.037963,0.610300,0.101932,0.147010,-2.548721,-6.509193,-11.886505,37.657536,-0.050770976,-1.1305156,0.51355803,0.53440684,0.11074763,-0.39201978
20231225 09:41:33,0.416928,-1.355276,-0.246155,0.558098,0.093409,0.132095,-2.690739,-6.895653,-11.996658,29.129269,0.07091223,-1.3773203,0.017987877,0.49046424,0.07805906,-0.34639692
20231225 09:41:33,0.916833,-1.556168,-0.369765,0.471804,0.081691,0.095873,-2.769623,-6.808861,-11.869141,18.139587,0.25778672,-1.6636746,-0.54394114,0.41197726,0.04502528,-0.2819331
20231225 09:41:33,1.307255,-1.786390,-0.289496,0.375923,0.034815,0.029821,-2.787552,-6.998901,-11.856918,12.824034,0.5540222,-1.9572446,-0.8075167,0.29913697,-0.0092133405,-0.24062788
20231225 09:41:34,1.422227,-1.861552,-0.240390,0.298153,0.015639,-0.061799,-2.733376,-6.620674,-11.613113,15.558252,0.67907715,-2.0235286,-0.7783926,0.17718363,-0.024297534,-0.2505516
20231225 09:41:34,1.048358,-1.707067,-0.069904,0.254473,0.020966,-0.139569,-2.548721,-6.509193,-11.886505,25.863482,0.6314119,-1.7580079,-0.22879109,0.08934096,0.0018505855,-0.27302694
20231225 09:41:34,0.479886,-1.452456,0.128537,0.244885,0.042273,-0.159811,-2.294151,-6.579525,-12.281296,34.765133,0.46328822,-1.4442258,0.33190915,0.06245596,0.05084074,-0.28232518
20231225 09:41:34,-0.058518,-1.133691,0.340780,0.256604,0.065710,-0.134242,-2.399925,-6.777790,-12.135422,44.29606,0.26935238,-1.1543642,0.775715,0.083567165,0.09021224,-0.28159678
20231225 09:41:34,-0.293644,-0.799870,0.436442,0.267258,0.062514,-0.076713,-2.250362,-7.430172,-11.823425,47.228764,0.16851974,-0.8482698,0.8235713,0.12537971,0.08655244,-0.2606895
20231225 09:41:34,-0.206150,-0.596602,0.441551,0.256604,0.019900,-0.005335,-2.205154,-7.146965,-11.573517,40.955456,0.21161123,-0.62719655,0.64497125,0.17014419,0.032214843,-0.19927965
20231225 09:41:34,0.097477,-0.586402,0.349290,0.208663,-0.033367,0.056455,-2.090412,-6.853676,-11.725479,28.14984,0.3278309,-0.5879254,0.3200573,0.18207902,-0.032583818,-0.11073378
20231225 09:41:34,0.584555,-0.358075,0.415853,0.162853,-0.044021,0.093742,-2.029079,-7.322392,-11.560303,17.02439,0.6796777,-0.36350405,-0.095206946,0.17617372,-0.04694333,-0.05169912
20231225 09:41:34,1.113530,-0.417255,0.622517,0.127697,-0.029106,0.090546,-2.125889,-7.425644,-11.420563,8.95658,1.1751373,-0.4590407,-0.32746348,0.150285,-0.03214956,-0.02642281
20231225 09:41:34,1.643168,-0.512227,0.936006,0.095737,-0.017387,0.055390,-2.090797,-6.661789,-12.005951,-6.291818,1.7430196,-0.60854256,-0.5207512,0.10391809,-0.023140155,-0.028754447
20231225 09:41:34,2.058084,-0.389758,1.377895,0.072299,-0.029106,-0.010662,-1.586632,-5.205425,-12.363953,-17.666475,2.3576066,-0.5199036,-0.50849307,0.04160522,-0.042835195,-0.062826544
20231225 09:41:34,2.244131,-0.366527,1.632920,0.061645,-0.078112,-0.107608,-1.720337,-7.014496,-11.711304,-19.725561,2.6698642,-0.48138627,-0.48278177,-0.037877295,-0.103213504,-0.13562898
20231225 09:41:34,1.997021,-0.151383,1.702548,0.068037,-0.091961,-0.184314,-1.496597,-4.447117,-12.144608,-7.653433,2.5818622,-0.19599976,-0.1793282,-0.087841645,-0.12215153,-0.18776208
20231225 09:41:34,1.501881,0.000604,1.744254,0.092540,-0.075981,-0.214143,-2.268291,-7.620213,-11.811188,17.257093,2.2841845,0.016029947,0.15247965,-0.08751848,-0.10033629,-0.19511476
20231225 09:41:34,1.008119,0.014138,1.840829,0.141546,-0.065327,-0.208817,-1.782703,-7.871521,-11.388046,27.26948,2.0017242,0.04329778,0.47481185,-0.04506515,-0.07831605,-0.21032059
20231225 09:41:34,0.661024,0.019457,1.814773,0.215055,-0.088765,-0.196032,-1.968513,-7.407333,-11.956070,27.298723,1.7530235,0.038125478,0.66188776,0.011201307,-0.095353104,-0.24662688
20231225 09:41:34,0.455179,0.128059,1.354107,0.260865,-0.127118,-0.170464,-1.755810,-7.586464,-11.406387,27.632599,1.3087302,0.12817656,0.42907715,0.0490226,-0.12716834,-0.25506002
20231225 09:41:34,0.338867,0.162474,0.837616,0.266192,-0.161209,-0.140634,-1.543491,-7.573700,-11.137161,23.83265,0.8576484,0.16074142,0.19421944,0.06524875,-0.16005614,-0.24416201
20231225 09:41:34,0.354978,0.175527,0.400774,0.239559,-0.194235,-0.125719,-1.853390,-7.305931,-11.827576,22.56868,0.5332579,0.17464055,-0.09044814,0.051538125,-0.1919136,-0.21361956
20231225 09:41:34,0.272732,0.168735,0.048792,0.206533,-0.200627,-0.114001,-1.756195,-7.394573,-11.686844,23.465237,0.19655713,0.17281128,-0.2327686,0.03645014,-0.19321634,-0.18084061
20231225 09:41:34,0.087607,0.175931,-0.245053,0.175638,-0.151621,-0.108674,-1.652225,-8.138268,-11.905212,27.655811,-0.15395439,0.19188805,-0.2479127,0.025087595,-0.13872352,-0.15666875
20231225 09:41:34,-0.098658,-0.025673,-0.131127,0.171376,-0.082373,-0.111870,-1.439907,-8.125511,-11.635986,32.32323,-0.16176319,-0.021719407,0.017300054,0.024676353,-0.06418318,-0.16580632
20231225 09:41:34,-0.225123,-0.241348,0.119328,0.200141,-0.041890,-0.124654,-1.633526,-8.332008,-11.356506,42.598698,-0.031345904,-0.2670567,0.33371678,0.036554642,-0.015647702,-0.19440894
20231225 09:41:34,-0.384274,-0.396352,0.199904,0.250212,-0.019518,-0.120393,-1.658619,-7.675098,-11.265656,42.43819,-0.054190457,-0.4465456,0.5610814,0.07131186,0.014678885,-0.24037494
20231225 09:41:34,-0.482817,-0.515821,0.030990,0.301349,-0.001407,-0.089498,-1.828297,-7.962841,-11.918411,42.026913,-0.22190984,-0.55815876,0.6070174,0.121213,0.036416914,-0.27533293
20231225 09:41:34,-0.410651,-0.520761,-0.262668,0.338636,0.020966,-0.040492,-1.412243,-8.224228,-11.093384,38.313084,-0.4015177,-0.5214842,0.39742255,0.1710675,0.051988848,-0.2965164
20231225 09:41:34,-0.197830,-0.597029,-0.507492,0.350355,0.050795,0.010645,-1.712021,-8.437107,-10.948517,35.540665,-0.48413563,-0.5703466,0.12038016,0.21258184,0.067359775,-0.29466847
20231225 09:41:34,0.071927,-0.683032,-0.641211,0.336505,0.045469,0.041540,-1.377419,-9.169895,-10.629395,29.428772,-0.45514306,-0.6585403,-0.1883342,0.22826627,0.052313313,-0.26539016
20231225 09:41:34,0.347737,-0.650498,-0.747522,0.301349,0.009247,0.056455,-1.269840,-8.029663,-10.702759,13.359358,-0.43344808,-0.66852134,-0.6124064,0.21660815,0.006490995,-0.21920079
20231225 09:41:34,0.681520,-0.558236,-0.993251,0.231036,-0.042955,0.055390,-1.642876,-8.235138,-11.630844,5.074419,-0.51166344,-0.6746597,-1.0807173,0.16738047,-0.050452907,-0.16280916
20231225 09:41:34,0.981164,-0.444761,-1.163411,0.134089,-0.081308,0.030887,-1.466030,-8.794346,-11.056702,-2.2336433,-0.5253767,-0.6632199,-1.4528036,0.08575778,-0.08688896,-0.09990721
20231225 09:41:34,1.084129,-0.237333,-1.156957,0.037142,-0.089830,0.004253,-1.817799,-8.635372,-10.802658,3.8748345,-0.43597978,-0.4472732,-1.5197532,0.01259472,-0.09115127,-0.026235662
20231225 09:41:34,0.949818,-0.087091,-0.875753,-0.039563,-0.085569,-0.021315,-1.184570,-8.579617,-11.469833,0.5216714,-0.22327131,-0.2102583,-1.2726774,-0.04639231,-0.08479658,0.022071298
20231225 09:41:34,0.805943,0.016722,-0.560206,-0.088569,-0.066393,-0.028773,-1.448101,-8.604305,-11.068939,9.497408,-0.007628262,-0.04250534,-0.9787026,-0.07712349,-0.06457129,0.06340506
20231225 09:41:34,0.654673,0.063073,-0.138710,-0.114137,-0.039759,-0.027707,-1.059711,-8.766975,-10.786514,9.626555,0.27863652,0.041613635,-0.6145716,-0.09132272,-0.03778105,0.07967083
20231225 09:41:34,0.544950,0.122214,0.263564,-0.113072,-0.051478,-0.014923,-1.509052,-8.327480,-10.953644,19.632193,0.5425574,0.11986558,-0.30637944,-0.081420094,-0.050386533,0.09170026
20231225 09:41:34,0.421705,0.013531,0.352094,-0.096026,-0.058935,0.002122,-1.023853,-8.386898,-10.810974,17.63162,0.5379311,0.013518014,-0.1242926,-0.057984408,-0.05899458,0.087573335
20231225 09:41:34,0.278057,-0.098452,0.394163,-0.059804,-0.053609,0.023429,-1.482159,-8.042423,-10.971985,26.737282,0.48342466,-0.10196025,0.030238867,-0.017939279,-0.05505795,0.07483827
20231225 09:41:34,0.128644,-0.095654,0.365493,-0.001210,-0.048282,0.046867,-1.094151,-8.013203,-10.970032,22.602613,0.36963508,-0.10361375,0.12980747,0.03756032,-0.0496976,0.039119966
20231225 09:41:34,0.121307,-0.113011,0.080761,0.041404,-0.058935,0.066043,-0.917694,-8.380520,-10.676346,18.947792,0.1395672,-0.11275795,-0.03181048,0.079309806,-0.0598615,0.014390975
20231225 09:41:34,0.155057,-0.062959,-0.406172,0.044600,-0.047217,0.086285,-1.139359,-8.296410,-11.219925,15.81742,-0.24900243,-0.05633177,-0.33758453,0.09707107,-0.047938604,0.016693452
20231225 09:41:34,0.309897,-0.134537,-0.636760,-0.001210,-0.032302,0.101200,-1.112080,-8.203239,-10.957809,11.369162,-0.35949957,-0.14680171,-0.58957577,0.08302108,-0.030811187,0.059615117
20231225 09:41:34,0.531382,-0.241131,-0.602992,-0.055543,-0.042955,0.085220,-0.794373,-7.800320,-11.114914,1.8330482,-0.20892608,-0.28661358,-0.7743506,0.036896143,-0.037034087,0.09467701
20231225 09:41:34,0.616626,-0.198881,-0.589954,-0.082177,-0.061066,0.051128,-1.085186,-7.918182,-10.976151,4.824607,-0.15364248,-0.2505707,-0.8305794,-0.00680751,-0.055430006,0.09948884
20231225 09:41:34,0.582424,-0.360637,-0.822770,-0.118398,-0.034432,-0.000008,-0.900146,-7.998592,-10.969055,4.347962,-0.37816477,-0.40959412,-0.9235332,-0.06680271,-0.03118602,0.10014128
20231225 09:41:34,0.375043,-0.141823,-0.763829,-0.145032,0.019900,-0.044753,-0.820885,-8.277267,-10.816116,11.768599,-0.43210694,-0.13263817,-0.7076261,-0.117087066,0.019442404,0.09508797
20231225 09:41:34,0.000016,0.132353,-0.684729,-0.133313,0.081691,-0.062864,-1.049328,-7.538105,-11.000595,24.326796,-0.5856979,0.19646999,-0.3655931,-0.13220474,0.07904497,0.06330487
20231225 09:41:34,-0.575304,0.340640,-0.637945,-0.124791,0.152004,-0.030903,-0.643391,-7.318848,-11.010880,29.241884,-0.89382106,0.37748075,0.08915612,-0.1182617,0.14086667,0.049608227
20231225 09:41:34,-0.924172,0.679276,-0.454189,-0.107745,0.191421,0.041540,-0.971867,-8.758747,-10.920151,41.419533,-1.0061095,0.63221544,0.34801468,-0.06226092,0.16416353,0.038736016
20231225 09:41:34,-1.029830,0.970075,-0.441152,-0.069392,0.220186,0.125703,-1.102730,-8.300110,-10.683441,40.23017,-1.1010143,0.9032462,0.37525588,0.022921838,0.17946668,0.035035178
20231225 09:41:34,-0.848176,1.106961,-0.707035,-0.039563,0.268126,0.200277,-0.742771,-7.980286,-11.504562,28.502045,-1.2173121,1.1212317,0.15327662,0.10313928,0.22403486,0.05838945
20231225 09:41:34,-0.513861,1.031410,-0.740467,-0.024648,0.312871,0.240760,-0.803337,-7.895340,-11.108795,20.721796,-0.995152,1.067456,-0.09364241,0.16317767,0.2860069,0.07931727
20231225 09:41:34,-0.001432,0.876264,-0.677135,-0.015060,0.334178,0.239695,-0.857895,-8.081680,-11.633057,10.635502,-0.5950955,0.88736343,-0.42594132,0.19188225,0.32997084,0.10269659
20231225 09:41:34,0.447572,0.742520,-0.570065,-0.002276,0.374661,0.202408,-0.354763,-7.951065,-11.502609,-1.6906453,-0.21268779,0.7094681,-0.6715647,0.18363477,0.3819938,0.116318345
20231225 09:41:34,0.671542,0.565310,-0.323303,0.017966,0.416210,0.157663,-0.124130,-7.940155,-10.965149,-8.475033,0.14885351,0.51680404,-0.6872692,0.16464236,0.42380747,0.10836282
20231225 09:41:34,0.845868,0.342058,0.029894,0.043534,0.452432,0.113984,-0.460537,-8.149334,-11.356750,-8.1098585,0.5588613,0.29569703,-0.62797445,0.15014619,0.45647418,0.07176317
20231225 09:41:34,1.036971,0.096170,0.418275,0.093606,0.471608,0.076697,-0.504330,-7.298687,-11.814636,-10.604188,0.9877571,0.057550065,-0.52910876,0.15963764,0.46854696,0.03060463
20231225 09:41:34,1.262339,-0.125948,0.671475,0.160723,0.469477,0.035148,0.201389,-6.866554,-11.969788,-22.673632,1.3163781,-0.16892946,-0.5794294,0.18059914,0.45409703,0.018420367
20231225 09:41:34,1.303823,-0.255735,0.724081,0.238493,0.466281,-0.009596,-0.161911,-7.360790,-12.343048,-18.881859,1.3649633,-0.29428354,-0.600518,0.19678889,0.43929702,-0.089305796
20231225 09:41:34,1.348361,-0.222238,0.469671,0.316264,0.467347,-0.049014,0.138252,-7.339802,-12.207474,-21.37196,1.1749107,-0.2881704,-0.83713996,0.21161714,0.42803597,-0.17089297
20231225 09:41:34,1.252488,-0.161735,0.021120,0.369531,0.484392,-0.084171,0.368114,-6.945114,-12.230942,-18.086578,0.73559016,-0.24867673,-1.0320389,0.19731423,0.44571406,-0.25799596
20231225 09:41:34,1.045395,-0.041499,-0.312603,0.386577,0.473739,-0.109739,0.304211,-7.034580,-13.029572,-10.459823,0.30211017,-0.105307534,-1.049192,0.1483059,0.449067,-0.3367245
20231225 09:41:34,0.791848,0.303070,-0.778704,0.355681,0.453497,-0.124654,0.597210,-6.166645,-12.815353,-5.108627,-0.29047066,0.29196826,-1.0564896,0.068893194,0.4505365,-0.35133702
20231225 09:41:34,0.426040,0.663902,-1.051003,0.266192,0.427929,-0.115066,0.699379,-7.852310,-13.106232,-0.5258865,-0.76241684,0.7169855,-0.8604786,0.0029090121,0.4381722,-0.28742734
20231225 09:41:34,0.294731,0.943544,-1.010402,0.139416,0.369335,-0.099086,0.745739,-8.144764,-12.014893,1.3006881,-0.8133507,1.0179275,-0.7447107,-0.04612097,0.37973452,-0.17354593
20231225 09:41:34,0.321593,1.083766,-0.760271,0.025424,0.305414,-0.085236,0.354774,-8.540283,-12.930786,2.330071,-0.56046873,1.1236836,-0.6671405,-0.076041065,0.3094006,-0.06904159
20231225 09:41:34,0.336959,1.229955,-0.512773,-0.077915,0.256408,-0.093759,0.609730,-8.802505,-13.045090,2.8236954,-0.3566867,1.2714311,-0.5757338,-0.13608596,0.2588719,0.01531234
20231225 09:41:34,0.187883,1.448077,-0.166208,-0.151424,0.231905,-0.094824,1.094162,-8.478149,-13.463364,2.1196523,-0.16843346,1.4648207,-0.2745487,-0.17912015,0.23098755,0.07589243
20231225 09:41:34,0.090374,1.351739,0.300410,-0.217476,0.193552,-0.089498,0.752518,-8.799828,-12.373978,3.439507,0.20170328,1.3295448,0.04779823,-0.20960672,0.18869391,0.12350417
20231225 09:41:34,0.258270,1.242504,0.863496,-0.252632,0.143481,-0.105478,1.467197,-8.272671,-12.535263,-8.604282,0.792184,1.2113926,0.41208774,-0.24137028,0.13969716,0.15353313
20231225 09:41:34,0.398851,1.082246,1.229731,-0.225999,0.134958,-0.139569,1.033981,-8.585098,-12.787109,-3.9750233,1.1623303,1.041147,0.49851128,-0.25560242,0.13301042,0.095966324
20231225 09:41:34,0.269540,0.813003,1.464242,-0.161012,0.174376,-0.174725,0.839592,-8.407818,-13.068573,1.8075402,1.2418022,0.73990846,0.7236398,-0.24700531,0.1760806,0.00643719
20231225 09:41:34,0.052718,0.566841,1.697273,-0.065131,0.231905,-0.203490,1.316216,-8.754147,-12.639313,3.0716424,1.2380677,0.41732728,1.0741256,-0.21421854,0.24304512,-0.095808506
20231225 09:41:34,-0.254137,0.246534,1.725279,0.041404,0.274519,-0.206686,1.164463,-8.851845,-13.304306,14.6725445,1.0398409,0.016619802,1.2846743,-0.15218902,0.2994119,-0.21459344
20231225 09:41:34,-0.508008,-0.067050,1.577964,0.146873,0.300087,-0.190706,1.491905,-8.737690,-12.906586,16.826359,0.78417647,-0.35427454,1.4208237,-0.07689965,0.3406544,-0.29189575
20231225 09:41:34,-0.587200,-0.376379,1.222021,0.240624,0.302218,-0.160876,1.279202,-8.558559,-13.456268,20.288256,0.54554546,-0.6373569,1.2940547,-4.9170107E-4,0.35389182,-0.35007814
20231225 09:41:34,-0.475123,-0.630221,0.658826,0.293891,0.290499,-0.132111,1.376396,-8.647198,-13.315552,17.32631,0.28017974,-0.78384596,0.89178777,0.04711158,0.34442484,-0.36155558
20231225 09:41:34,-0.263750,-0.732589,0.083052,0.274715,0.245754,-0.112935,1.507263,-9.105839,-13.552246,13.819353,0.021200351,-0.7633887,0.3649646,0.040635936,0.29287016,-0.3203626
20231225 09:41:34,-0.085776,-0.693969,-0.413303,0.184160,0.198879,-0.099086,1.525192,-8.915798,-13.564468,8.107305,-0.28354654,-0.6328445,-0.10801993,-0.0028992966,0.22838525,-0.22320987
20231225 09:41:34,0.162554,-0.611520,-0.639533,0.057384,0.167984,-0.101216,1.692303,-9.186249,-13.545151,2.85683,-0.35838658,-0.5142164,-0.47592035,-0.07099338,0.18313599,-0.108929306
20231225 09:41:34,0.253862,-0.495546,-0.581796,-0.071523,0.165853,-0.114001,1.983116,-9.068390,-13.683929,-0.45413324,-0.2685228,-0.40361625,-0.5445277,-0.15246713,0.17151631,-0.006294921
20231225 09:41:34,0.183906,-0.468519,-0.113084,-0.166339,0.196748,-0.132111,2.239872,-8.388641,-13.725754,-0.71758354,0.084042154,-0.43113187,-0.21799883,-0.2296547,0.19435954,0.04975439
20231225 09:41:34,-0.059328,-0.530108,0.613871,-0.187646,0.238297,-0.152353,2.484711,-8.170219,-14.675369,4.3049226,0.477203,-0.6151535,0.48623294,-0.27102453,0.23076867,0.0224469
20231225 09:41:34,-0.520458,-0.734769,1.349077,-0.123725,0.278780,-0.153418,2.353191,-9.229210,-13.669754,20.657364,0.64198476,-1.0302949,1.4639734,-0.23869038,0.2741036,-0.0910776
20231225 09:41:34,-0.942925,-0.890913,1.804862,0.003051,0.308610,-0.124654,2.432076,-9.315998,-13.797272,32.729992,0.6088015,-1.380743,2.1219125,-0.13365492,0.32008466,-0.20530021
20231225 09:41:34,-1.169448,-1.045146,1.790179,0.155396,0.330982,-0.079909,2.025753,-9.343365,-14.067474,44.212254,0.4798838,-1.6226816,2.278632,-0.0021888427,0.36666894,-0.31821823
20231225 09:41:34,-1.199672,-1.143229,1.347682,0.266192,0.336309,-0.028773,2.519920,-9.307770,-13.930893,35.668625,0.26992065,-1.6630259,2.1021657,0.098435186,0.38685217,-0.342599
20231225 09:41:34,-1.100115,-1.167906,0.732134,0.301349,0.305414,0.014907,2.501991,-9.497810,-13.918671,33.550274,0.037021905,-1.5376229,1.6617454,0.14084037,0.35394824,-0.32656592
20231225 09:41:34,-0.968237,-1.129246,0.147702,0.264062,0.247885,0.051128,2.299023,-9.607441,-13.913528,30.472233,-0.23060456,-1.3131819,1.190995,0.14387667,0.2780255,-0.25398824
20231225 09:41:34,-0.742143,-0.956857,-0.176773,0.185226,0.187160,0.064978,2.811119,-9.381798,-13.789200,20.86404,-0.33591932,-1.0081968,0.6926011,0.11295404,0.19745727,-0.14950435
20231225 09:41:34,-0.661959,-0.571358,-0.321689,0.032881,0.117912,0.058586,2.854141,-9.848667,-13.892273,20.01628,-0.48567823,-0.5846096,0.46677315,0.03230992,0.101995155,-0.01757212
20231225 09:41:34,-0.700865,-0.411638,-0.218799,-0.012929,0.099801,0.056455,2.854141,-9.848667,-13.892273,19.650078,-0.47748232,-0.46990782,0.5195546,0.008452386,0.07670957,0.022116479
20231225 09:41:34,-0.786916,-0.091491,0.033629,-0.087503,0.078495,0.058586,2.756176,-9.376251,-14.593933,21.298994,-0.42617935,-0.2561413,0.6656684,-0.030168213,0.040191133,0.08544955
20231225 09:41:34,-0.921665,0.104885,0.320435,-0.136509,0.087017,0.070305,2.483677,-9.495960,-14.186920,26.316227,-0.36873257,-0.18530679,0.8701649,-0.057043616,0.033551924,0.121878766
20231225 09:41:34,-1.106479,0.207325,0.799422,-0.146097,0.120043,0.089481,2.510185,-9.019012,-14.485718,26.63525,-0.20575255,-0.25504696,1.2440097,-0.062418364,0.05763382,0.12775947
20231225 09:41:34,-1.207005,0.203758,1.328209,-0.098157,0.156265,0.122507,3.056339,-9.355263,-14.458344,20.741453,0.05969006,-0.37546715,1.680471,-0.017575905,0.09858574,0.11229944
20231225 09:41:34,-1.081066,0.040871,1.629176,0.004117,0.180768,0.158729,2.915741,-8.607864,-14.776474,15.923578,0.37651658,-0.5078119,1.8556948,0.07582787,0.14147764,0.06811008
20231225 09:41:34,-0.811021,-0.171138,1.460294,0.127697,0.202075,0.172578,2.873100,-8.332886,-14.392929,11.45414,0.53305894,-0.59845316,1.5845381,0.16909616,0.18351029,-0.008096509
20231225 09:41:34,-0.586215,-0.298613,0.893074,0.232101,0.241493,0.167251,3.031246,-8.698357,-14.367508,9.709596,0.345761,-0.57459664,1.046612,0.22225335,0.23803495,-0.09849115
20231225 09:41:34,-0.443157,-0.493044,0.251618,0.284303,0.263865,0.161925,3.217056,-9.162540,-13.799469,6.944502,0.028430134,-0.6028329,0.53988326,0.23956615,0.26613265,-0.14669326
20231225 09:41:35,-0.303891,-0.545476,-0.198500,0.288565,0.246820,0.145944,3.171463,-9.253864,-14.329849,8.654092,-0.20481336,-0.526918,0.18245542,0.22376329,0.25008184,-0.17398062
20231225 09:41:35,-0.315737,-0.360945,-0.595047,0.285368,0.216990,0.137422,2.995773,-9.270321,-14.062592,13.378503,-0.5475501,-0.23600727,-0.0016409755,0.20509025,0.21784227,-0.19514903
20231225 09:41:35,-0.378871,-0.484518,-1.082659,0.236362,0.176507,0.127833,3.461506,-8.752224,-15.029572,12.0282955,-0.927542,-0.20799014,-0.16965345,0.17377284,0.17028823,-0.15695024
20231225 09:41:35,-0.307549,-0.343712,-1.201465,0.162853,0.116847,0.119311,3.292595,-9.423744,-15.121384,11.834294,-1.0415423,-0.0344404,-0.28096524,0.14560628,0.103003114,-0.09541558
20231225 09:41:35,-0.209926,-0.330866,-1.276077,0.097867,0.094475,0.110788,3.473045,-8.099022,-14.402237,9.219981,-1.0570208,0.0149924755,-0.41762096,0.11271717,0.07377432,-0.0380842
20231225 09:41:35,-0.177405,-0.366819,-1.071534,0.031816,0.087017,0.112919,2.888844,-8.892921,-14.758133,8.463708,-0.88573337,-0.13360201,-0.38151914,0.08922446,0.0625228,0.025304675
20231225 09:41:35,-0.078938,-0.385107,-0.566595,-0.004406,0.052926,0.109723,3.065304,-9.260242,-14.464447,4.5271807,-0.42087775,-0.27022445,-0.2359365,0.07476756,0.028626991,0.06292115
20231225 09:41:35,-0.054165,-0.502085,-0.204437,-0.017190,-0.003537,0.099069,3.629002,-9.214561,-14.729782,-2.2837255,-0.103184104,-0.4598719,-0.08707073,0.0689995,-0.02348327,0.07170167
20231225 09:41:35,-0.010063,-0.424483,-0.038206,-0.016125,-0.054674,0.080958,3.250343,-9.340652,-14.457367,-0.31328276,0.03848923,-0.40893504,-0.015625535,0.06414908,-0.06965111,0.06037689
20231225 09:41:35,-0.029370,-0.394857,0.038826,-0.009733,-0.099419,0.064978,3.286201,-8.960575,-14.481812,-0.13233383,0.08407063,-0.39588028,0.04599969,0.063471146,-0.10983871,0.04577153
20231225 09:41:35,-0.126311,-0.312901,0.017687,-0.005472,-0.133510,0.056455,3.322445,-8.772385,-14.225815,0.18193169,-0.0023977114,-0.3248635,0.11316317,0.06595815,-0.14115426,0.037862442
20231225 09:41:35,-0.128677,-0.224040,0.106449,-0.000145,-0.172928,0.050063,3.304516,-8.962425,-14.213577,-0.44887993,0.049915288,-0.2544101,0.16557898,0.070904255,-0.17766355,0.028506342
20231225 09:41:35,-0.110906,-0.097333,0.025242,0.001986,-0.205953,0.035148,3.392746,-9.146080,-14.066757,-0.94724125,-0.024787292,-0.1138411,0.10462145,0.06770376,-0.20687802,0.016442155
20231225 09:41:35,-0.184581,-0.083121,-0.099170,-0.008668,-0.231522,0.023429,3.055569,-8.971485,-15.019302,6.167525,-0.16569874,-0.085858,0.10245478,0.062155344,-0.2301696,0.034205392
20231225 09:41:35,-0.308782,-0.068062,-0.260476,-0.029975,-0.243241,0.020233,3.462276,-9.136002,-14.468613,3.9704192,-0.3650744,-0.053460233,0.11566523,0.05344335,-0.2433832,0.04546933
20231225 09:41:35,-0.346444,-0.099729,-0.289057,-0.042759,-0.228326,0.010645,2.986423,-9.173454,-14.336945,9.315509,-0.4010225,-0.08318651,0.13587512,0.037298307,-0.22839491,0.0620219
20231225 09:41:35,-0.513784,-0.149720,-0.232254,-0.049151,-0.212346,-0.003204,3.500706,-8.197735,-13.859634,6.5351706,-0.44109946,-0.17478731,0.2962194,0.020862421,-0.21035922,0.052249048
20231225 09:41:35,-0.652543,-0.125063,-0.005982,-0.041693,-0.207019,-0.017054,3.728767,-8.745014,-13.955612,6.7977805,-0.3592181,-0.23677,0.5315018,0.013906413,-0.20023902,0.038100608
20231225 09:41:35,-0.849668,-0.153601,0.067708,-0.017190,-0.217672,-0.024511,3.208855,-9.641338,-13.232422,15.204269,-0.4139475,-0.33204263,0.7452311,0.029572234,-0.20202485,0.03372962
20231225 09:41:35,-0.946172,-0.183523,-0.026449,0.013705,-0.231522,-0.019185,3.747463,-8.938755,-13.406891,12.114224,-0.52111375,-0.36168677,0.77428365,0.060516972,-0.20783502,0.0063650366
20231225 09:41:35,-0.960057,-0.200772,-0.259066,0.036077,-0.241110,-0.008531,3.313866,-9.059296,-13.939224,15.395424,-0.68684757,-0.30485156,0.67844903,0.08375312,-0.216002,0.0020037107
20231225 09:41:35,-0.767277,-0.209395,-0.563958,0.033946,-0.262417,-0.009596,3.622993,-8.943283,-13.809753,10.04101,-0.8005066,-0.1759926,0.36718106,0.08557381,-0.2379721,-0.009056438
20231225 09:41:35,-0.618783,-0.176780,-0.928801,0.003051,-0.273070,-0.020250,3.516834,-8.949665,-13.944351,10.53626,-1.0142274,9.030104E-5,0.087335736,0.065454364,-0.25020513,0.012578335
20231225 09:41:35,-0.599165,-0.075255,-1.104372,-0.041693,-0.270940,-0.036230,3.526180,-9.046535,-13.670013,10.5981045,-1.1740851,0.15736905,-0.016105354,0.031110356,-0.2504751,0.043222815
20231225 09:41:35,-0.611814,0.033546,-1.147022,-0.091765,-0.275201,-0.052210,3.295551,-9.057446,-14.207474,13.41227,-1.2456613,0.27663758,-0.02315545,-0.0033759102,-0.25747663,0.08622949
20231225 09:41:35,-0.766593,0.295225,-1.071259,-0.115202,-0.261352,-0.062864,3.410675,-8.956043,-14.078979,16.215847,-1.3373499,0.48424557,0.11167133,-0.019802649,-0.24203888,0.10619383
20231225 09:41:35,-0.936043,0.311280,-0.961267,-0.138640,-0.242175,-0.064995,3.350491,-9.062996,-13.402740,17.841637,-1.3463597,0.41753262,0.27246815,-0.04140197,-0.22904576,0.12475799
20231225 09:41:35,-1.106819,0.498276,-0.549584,-0.146097,-0.249633,-0.055406,3.596481,-9.420231,-13.510925,15.2308235,-1.1842432,0.41022766,0.5755694,-0.04222818,-0.24316594,0.12957175
20231225 09:41:35,-1.094791,0.572267,-0.296890,-0.129052,-0.263482,-0.035165,3.069027,-9.277721,-12.989609,16.963198,-1.0061702,0.4061594,0.6650726,-0.019444022,-0.2608811,0.13151616
20231225 09:41:35,-0.965472,0.472714,-0.153112,-0.093895,-0.261352,-0.019185,3.492508,-8.676533,-13.292587,7.280622,-0.78478837,0.31945676,0.67963433,-4.1987374E-4,-0.25982276,0.08558807
20231225 09:41:35,-0.765732,0.382884,-0.023007,-0.036367,-0.261352,-0.017054,3.262264,-8.879333,-13.549561,7.473653,-0.5416871,0.24536367,0.59229416,0.029421749,-0.25172892,0.039678633
20231225 09:41:35,-0.702778,0.349853,-0.110929,0.013705,-0.262417,-0.020250,3.298504,-8.691143,-13.293564,6.251431,-0.56510544,0.2472654,0.4999204,0.054888327,-0.24395987,-0.006646321
20231225 09:41:35,-0.627830,0.257147,-0.276323,0.045665,-0.269874,-0.022381,3.244717,-9.261261,-13.256882,6.689671,-0.6266824,0.21384239,0.36017376,0.072681725,-0.24554347,-0.033250175
20231225 09:41:35,-0.558388,0.129695,-0.484633,0.052057,-0.283724,-0.017054,3.236134,-9.548172,-12.970291,3.0219295,-0.723094,0.15394115,0.20735827,0.07764521,-0.2622919,-0.045022868
20231225 09:41:35,-0.358953,-0.009500,-0.678131,0.040338,-0.310358,-0.017054,3.854389,-9.316154,-12.711334,-6.4865026,-0.7473766,0.083370976,-0.046385378,0.06965181,-0.29308072,-0.061561733
20231225 09:41:35,-0.225790,-0.075661,-0.817640,0.008378,-0.330599,-0.027707,3.793827,-9.231209,-12.315567,-7.5588636,-0.78199506,0.061859228,-0.23228699,0.047077,-0.31500277,-0.04394938
20231225 09:41:35,-0.246235,-0.046456,-0.880823,-0.029975,-0.360429,-0.040492,3.415165,-9.357300,-12.043167,-1.504942,-0.8465663,0.11988953,-0.23811361,0.031899292,-0.34287345,2.9683113E-4
20231225 09:41:35,-0.441560,0.097375,-0.923334,-0.070458,-0.370017,-0.049014,3.360611,-9.543640,-12.567429,4.9427757,-1.0084,0.26380473,-0.090467066,0.01926352,-0.35115755,0.0521157
20231225 09:41:35,-0.786646,0.372142,-0.820622,-0.102418,-0.362560,-0.054341,3.423363,-8.878502,-12.610229,11.437799,-1.1768472,0.4529518,0.2181336,0.014621858,-0.34086248,0.09726338
20231225 09:41:35,-1.214012,0.628519,-0.576738,-0.107745,-0.355102,-0.045818,3.609554,-9.534580,-11.761719,14.523139,-1.3066647,0.513153,0.6446055,0.02625547,-0.3333223,0.11497144
20231225 09:41:35,-1.472960,0.831426,-0.304276,-0.077915,-0.307162,-0.028773,4.006527,-9.410343,-11.765884,11.857324,-1.327405,0.5341103,0.9653412,0.037675336,-0.28896233,0.0842157
20231225 09:41:35,-1.655939,0.993291,0.057059,-0.018256,-0.265613,-0.008531,3.724674,-9.433178,-11.633224,15.169071,-1.2265822,0.51322126,1.2455043,0.07082736,-0.24465509,0.049862735
20231225 09:41:35,-1.737696,1.029122,0.226834,0.050992,-0.234718,0.019168,3.679852,-9.908276,-11.602661,16.707512,-1.1659113,0.46998748,1.3760628,0.12039604,-0.20972238,0.0076785833
20231225 09:41:35,-1.719536,1.012890,0.246748,0.118109,-0.205953,0.055390,3.609554,-9.534580,-11.761719,16.346794,-1.1246653,0.46048146,1.3848602,0.17622203,-0.1803911,-0.033636637
20231225 09:41:35,-1.612121,0.902155,0.133130,0.160723,-0.184646,0.101200,3.600975,-9.821487,-11.475128,11.936739,-1.0872748,0.45827392,1.2964797,0.22494178,-0.16862646,-0.054701395
20231225 09:41:35,-1.316332,0.660243,0.039713,0.187356,-0.170797,0.134226,3.688816,-9.813255,-11.608780,3.4159935,-0.8853998,0.3743257,1.0891668,0.25609288,-0.16345727,-0.07401303
20231225 09:41:35,-0.996419,0.505737,-0.046340,0.213990,-0.151621,0.147010,3.583042,-10.011528,-11.462906,-2.02187,-0.70482224,0.33953452,0.81723493,0.2714231,-0.14685145,-0.10115081
20231225 09:41:35,-0.784695,0.479685,-0.182863,0.219317,-0.130314,0.152336,3.255604,-10.125683,-11.860626,0.9291513,-0.6806241,0.3889096,0.5582786,0.27145466,-0.12818533,-0.10152341
20231225 09:41:35,-0.765269,0.619730,-0.137604,0.185226,-0.143098,0.161925,3.379688,-9.929268,-11.738235,-3.111471,-0.65393895,0.5250039,0.592455,0.26205188,-0.1481609,-0.074801415
20231225 09:41:35,-0.667987,0.804728,-0.110907,0.123436,-0.180385,0.183232,3.618904,-9.631447,-11.487350,-8.448646,-0.60451263,0.7208115,0.57400465,0.25289994,-0.19705829,-0.024391912
20231225 09:41:35,-0.509744,0.935820,-0.052112,0.039273,-0.217672,0.217323,3.858116,-9.333630,-11.236481,-17.766474,-0.45970607,0.877321,0.5581073,0.23786677,-0.24497384,0.039491504
20231225 09:41:35,-0.198488,1.000514,0.076021,-0.069392,-0.262417,0.252479,3.725830,-10.008846,-10.791809,-29.058409,-0.14375655,0.9723999,0.45812792,0.20460562,-0.29118887,0.10791628
20231225 09:41:35,0.150040,0.935212,0.206898,-0.190842,-0.286920,0.268459,3.645798,-9.346390,-11.505692,-32.467094,0.21177164,0.9287305,0.24205099,0.13440827,-0.30459467,0.19956788
20231225 09:41:35,0.415281,0.818469,0.681358,-0.273939,-0.278397,0.254610,3.797932,-9.440578,-10.560242,-51.470863,0.7867051,0.8147266,0.29860723,0.044741496,-0.28286746,0.18516931
20231225 09:41:35,0.560699,0.526809,1.374756,-0.270743,-0.254959,0.208800,3.850300,-10.004314,-10.388962,-67.27683,1.4109936,0.52111244,0.22216418,-0.011886835,-0.25767866,0.10859504
20231225 09:41:35,0.367405,0.335334,1.832155,-0.181254,-0.212346,0.138487,3.762074,-9.820656,-10.535782,-65.68645,1.6002607,0.28214914,0.42950767,-0.009559944,-0.22262026,0.044807337
20231225 09:41:35,-0.068180,0.255981,1.871823,-0.032105,-0.147359,0.072435,3.780388,-9.822506,-10.267548,-59.84986,1.3251832,0.082700774,0.82003665,0.045732208,-0.15526837,-0.036208414
20231225 09:41:35,-0.689307,0.307114,1.723937,0.136220,-0.046151,0.035148,3.807281,-9.537449,-10.285889,-40.284554,0.77934957,-0.052167863,1.5116544,0.122184835,-0.032625306,-0.104997486
20231225 09:41:35,-1.206166,0.318066,1.465683,0.262996,-0.006733,0.045802,3.400574,-9.372929,-10.836563,-12.338685,0.25382316,-0.16586643,1.8874532,0.20405024,0.026835665,-0.17394021
20231225 09:41:35,-1.181718,0.227158,1.088232,0.323721,-0.026975,0.083089,3.550140,-10.025307,-10.524536,-24.949493,0.07351458,-0.12115453,1.5974486,0.26749212,0.0025159568,-0.21613294
20231225 09:41:35,-0.664729,0.126540,0.519463,0.335440,-0.061066,0.109723,3.655533,-9.635143,-10.950867,-28.089052,0.0179708,0.0036567524,0.8418293,0.2902376,-0.044614024,-0.23397966
20231225 09:41:35,-0.044660,-0.313151,0.016505,0.291761,-0.066393,0.115049,3.877197,-9.719254,-10.407288,-51.212616,-0.0044049453,-0.31428805,-0.10078491,0.2659217,-0.06378379,-0.22451556
20231225 09:41:35,0.612005,-0.576939,0.077519,0.259800,-0.078112,0.084154,3.885777,-9.432346,-10.693878,-58.273064,0.3912632,-0.59593594,-0.7596079,0.21660486,-0.08373837,-0.2229841
20231225 09:41:35,0.935073,-0.922208,0.047919,0.247016,-0.040824,0.038344,3.789352,-9.727486,-10.273666,-68.938446,0.54147387,-0.96907425,-1.255787,0.17852068,-0.05219403,-0.21005486
20231225 09:41:35,0.964981,-1.120040,0.326499,0.260865,0.025227,0.001057,4.168777,-9.985176,-9.985123,-80.29287,0.804318,-1.1468608,-1.4147389,0.17145336,0.01152942,-0.18240379
20231225 09:41:35,0.890754,-1.229983,0.819200,0.306675,0.064645,-0.009596,4.098862,-9.803368,-9.863724,-84.236046,1.1503949,-1.2275748,-1.4276254,0.2026923,0.051761586,-0.18360734
20231225 09:41:35,0.840127,-1.366109,1.054260,0.355681,0.062514,0.007449,4.319763,-9.503700,-9.881088,-84.53485,1.2707294,-1.3486594,-1.4739603,0.2516747,0.045414485,-0.21673863
20231225 09:41:35,1.062368,-1.449411,0.967451,0.388707,0.035881,0.029821,4.107445,-9.516460,-10.150299,-83.22682,1.2951083,-1.4390677,-1.6784931,0.287603,0.0062346878,-0.26020002
20231225 09:41:35,1.424252,-1.567287,0.684496,0.386577,-0.006733,0.039410,3.798698,-9.824352,-9.999298,-86.90288,1.2170795,-1.6206679,-2.078844,0.28366682,-0.050541148,-0.29301107
20231225 09:41:35,1.729427,-1.614690,0.300566,0.336505,-0.057870,0.036214,4.045074,-10.373486,-9.827042,-91.05127,1.0196753,-1.7830544,-2.3656766,0.2312635,-0.10312984,-0.29592943
20231225 09:41:35,1.933691,-1.426819,0.048774,0.257669,-0.117530,0.021299,4.017410,-10.274765,-10.369644,-83.875206,0.88291216,-1.6937096,-2.394698,0.14557904,-0.15278979,-0.27434084
20231225 09:41:35,1.996820,-1.053002,-0.190749,0.144743,-0.180385,0.005318,3.896664,-10.296772,-9.297623,-85.9126,0.7406665,-1.3872379,-2.2463307,0.04372294,-0.1954593,-0.22145775
20231225 09:41:35,1.878684,-0.640252,-0.248658,0.004117,-0.242175,-0.014923,3.808819,-10.305000,-9.164001,-82.83119,0.69744754,-0.95443815,-1.9330631,-0.06429186,-0.23710166,-0.13761227
20231225 09:41:35,1.737763,-0.244874,-0.024530,-0.137575,-0.301835,-0.037296,3.984509,-10.288544,-9.431274,-80.49215,0.9155331,-0.46784312,-1.5727232,-0.16472112,-0.28305846,-0.058092333
20231225 09:41:35,1.524562,0.087387,0.570073,-0.237717,-0.344449,-0.068191,4.257778,-10.552612,-9.277328,-83.68013,1.3630283,0.014999658,-1.1450477,-0.23976126,-0.32597303,-0.013496999
20231225 09:41:35,1.171311,0.339688,1.175259,-0.267547,-0.354037,-0.090563,4.408760,-10.071133,-9.173294,-81.83549,1.6667556,0.35756457,-0.6186607,-0.26036865,-0.3442563,-0.010653398
20231225 09:41:35,0.734547,0.477353,1.682395,-0.228129,-0.326338,-0.104412,4.390831,-10.261173,-9.161072,-84.13002,1.7810465,0.5083269,-0.16064993,-0.23443687,-0.3237556,-0.03501661
20231225 09:41:35,0.445177,0.504182,2.040100,-0.124791,-0.276266,-0.118262,4.012554,-10.579151,-8.608200,-93.893135,1.8382732,0.49102646,-0.10289139,-0.16874862,-0.27615592,-0.07834617
20231225 09:41:35,0.076800,0.381407,2.146091,0.022227,-0.212346,-0.128915,4.169930,-10.560841,-9.143707,-87.51817,1.6528223,0.29160988,0.25247288,-0.073577605,-0.20564795,-0.15942568
20231225 09:41:35,-0.252825,0.140833,1.867947,0.184160,-0.138836,-0.140634,4.081703,-10.377186,-9.290543,-77.06284,1.25125,-0.01650767,0.5506464,0.021560982,-0.11593947,-0.24828812
20231225 09:41:35,-0.485830,-0.157883,1.269464,0.330113,-0.055739,-0.144896,4.030483,-10.389114,-8.620422,-76.76678,0.69840586,-0.3384234,0.4654165,0.099404655,-0.0103689805,-0.31275627
20231225 09:41:35,-0.641399,-0.401055,0.739534,0.461151,0.058253,-0.137438,4.445389,-10.074833,-8.636810,-63.33919,0.25825715,-0.56507355,0.49904945,0.15818204,0.12452776,-0.3759305
20231225 09:41:35,-0.665159,-0.557023,0.150026,0.552771,0.120043,-0.117197,4.761292,-10.613880,-8.866409,-55.04142,-0.15923502,-0.64117676,0.3466799,0.19280544,0.19509247,-0.44200975
20231225 09:41:35,-0.472900,-0.885979,-0.608418,0.566620,0.147742,-0.090563,4.267891,-11.033257,-8.442032,-52.46247,-0.6359252,-0.8293029,-0.13369629,0.18867463,0.2036762,-0.45779875
20231225 09:41:35,-0.152904,-1.074960,-1.238332,0.522941,0.154134,-0.078844,4.276474,-10.746349,-8.728622,-43.536297,-1.052535,-0.9434241,-0.59916973,0.14850354,0.18947314,-0.44521046
20231225 09:41:35,0.103411,-1.143357,-1.830458,0.432387,0.155200,-0.071387,4.636822,-10.618412,-9.269272,-41.51334,-1.5866747,-1.0463526,-0.920123,0.09395372,0.16783226,-0.37945586
20231225 09:41:35,0.384716,-1.220284,-2.202807,0.281107,0.146677,-0.066060,4.355354,-10.833141,-8.856140,-48.63261,-1.9463363,-1.2970059,-1.2290347,0.04668936,0.14075768,-0.23705262
20231225 09:41:35,0.614236,-1.133463,-2.020922,0.119174,0.130697,-0.066060,4.522850,-11.295479,-8.556366,-59.910873,-1.6664138,-1.2744486,-1.3682951,-0.0038757958,0.12294751,-0.0766418
20231225 09:41:35,0.621929,-1.019859,-1.616136,-0.013994,0.089148,-0.059668,4.785999,-11.078903,-9.237732,-58.001347,-1.2238994,-1.1001035,-1.3112246,-0.05594637,0.08680548,0.031798832
20231225 09:41:35,0.626737,-0.730361,-1.182741,-0.121595,0.050795,-0.044753,4.831203,-10.795692,-8.987823,-61.847534,-0.7769754,-0.77849954,-1.1148078,-0.094618246,0.05138277,0.11860857
20231225 09:41:35,0.599783,-0.582512,-0.713488,-0.192973,0.024162,-0.027707,4.706734,-10.800220,-9.390686,-62.20631,-0.33550024,-0.6108317,-0.94241095,-0.119458675,0.026396934,0.17155436
20231225 09:41:35,0.572637,-0.443970,-0.355846,-0.220672,0.020966,-0.008531,4.433853,-10.728043,-9.264130,-63.785435,-0.0131442845,-0.4548762,-0.77796006,-0.12168299,0.022922883,0.19632572
20231225 09:41:35,0.524987,-0.285799,0.021019,-0.210018,0.042273,0.012776,4.565483,-11.570457,-8.939896,-75.25913,0.29983035,-0.28803447,-0.5881398,-0.10264452,0.043319605,0.20047712
20231225 09:41:35,0.493548,-0.253315,0.255144,-0.174862,0.065710,0.030887,4.592377,-11.285397,-8.958237,-75.85678,0.48653448,-0.25335583,-0.5120536,-0.07162909,0.065790534,0.18493909
20231225 09:41:35,0.481002,-0.163187,0.465768,-0.129052,0.068906,0.046867,4.541542,-11.489216,-8.007629,-88.29855,0.6538857,-0.16186786,-0.48190096,-0.032984454,0.07016106,0.14624847
20231225 09:41:35,0.560270,-0.185649,0.428659,-0.091765,0.052926,0.055390,4.804310,-11.080750,-8.969498,-77.653854,0.66249883,-0.1839793,-0.5151187,-0.0036425889,0.05635894,0.11160766
20231225 09:41:35,0.712011,-0.192979,0.298630,-0.069392,0.030554,0.057520,4.938133,-11.173092,-8.292267,-84.09965,0.6287124,-0.20130563,-0.6843473,0.0117325075,0.035877977,0.07795225
20231225 09:41:35,0.881457,-0.206206,0.070262,-0.049151,0.026292,0.048998,4.989349,-11.161160,-8.962402,-78.186966,0.5112015,-0.24436325,-0.8462111,0.017303772,0.032635365,0.060644343
20231225 09:41:35,0.922258,-0.217893,-0.143977,-0.035301,0.035881,0.035148,4.804695,-11.272640,-8.689011,-77.19554,0.3379973,-0.26683035,-0.91594976,0.014307782,0.039762057,0.052322336
20231225 09:41:36,0.792540,-0.179925,-0.315967,-0.028909,0.045469,0.027691,5.159031,-10.873425,-8.309631,-75.338554,0.112309664,-0.22147375,-0.81360817,0.011997135,0.047785163,0.050495867
20231225 09:41:36,0.628115,-0.123078,-0.573325,-0.040628,0.050795,0.022364,4.910473,-11.074371,-8.834869,-64.96362,-0.20740747,-0.1420069,-0.72096753,0.0013648383,0.051702313,0.062150232
20231225 09:41:36,0.421914,-0.024895,-0.702156,-0.063000,0.065710,0.021299,4.698540,-11.279018,-8.823624,-59.016235,-0.42351004,-9.228792E-4,-0.55173695,-0.012245441,0.064269535,0.08711259
20231225 09:41:36,0.200071,0.124454,-0.713046,-0.085373,0.072102,0.033017,5.333954,-10.473183,-9.137848,-52.8486,-0.54565,0.17360719,-0.33070153,-0.014653044,0.06724286,0.111498706
20231225 09:41:36,0.080700,0.217119,-0.737701,-0.105614,0.078495,0.053259,4.964645,-10.696144,-8.591095,-54.175243,-0.63132155,0.27604252,-0.18964785,-0.007702645,0.069909975,0.13745871
20231225 09:41:36,-0.023155,0.289029,-0.721016,-0.127987,0.075298,0.072435,5.219982,-11.150249,-8.424927,-57.48919,-0.6732213,0.35031438,-0.045586944,-0.0015465915,0.062649265,0.16076103
20231225 09:41:36,-0.004146,0.423959,-0.636779,-0.145032,0.080625,0.090546,5.086163,-11.057911,-9.102142,-53.626648,-0.59254026,0.46633375,-0.013268784,0.006584823,0.06888438,0.18363057
20231225 09:41:36,0.195442,0.430096,-0.508501,-0.148228,0.080625,0.096938,5.122021,-10.677834,-9.126602,-57.039734,-0.3673404,0.44604358,-0.1326208,0.013410039,0.075949885,0.18748596
20231225 09:41:36,0.377278,0.388630,-0.531407,-0.151424,0.078495,0.087350,5.367626,-10.843185,-9.515274,-58.93461,-0.28912616,0.38682458,-0.30478203,0.005629778,0.078908555,0.18652163
20231225 09:41:36,0.541183,0.428575,-0.441839,-0.141836,0.096605,0.066043,5.280167,-11.043301,-9.101166,-67.77618,-0.10366222,0.3951226,-0.36138028,-0.0070065744,0.10290025,0.17956096
20231225 09:41:36,0.764764,0.396277,-0.306171,-0.127987,0.094475,0.031952,5.640892,-11.107254,-9.361343,-71.2235,0.14336675,0.34066826,-0.52681094,-0.028950525,0.10180568,0.16060191
20231225 09:41:36,0.813659,0.397017,-0.270157,-0.117333,0.084887,-0.009596,5.208061,-11.611568,-9.332733,-71.74812,0.19733681,0.34536847,-0.5611593,-0.060731933,0.088562794,0.14038204
20231225 09:41:36,0.800678,0.449955,-0.233327,-0.107745,0.085952,-0.031969,5.253654,-11.520252,-8.802353,-75.38709,0.2259783,0.4074956,-0.5047136,-0.07642765,0.08755193,0.13086958
20231225 09:41:36,0.729712,0.411427,-0.121495,-0.087503,0.092344,-0.044753,5.341118,-11.320133,-9.216461,-71.948555,0.28667563,0.3859675,-0.44696745,-0.078957036,0.09254133,0.11298459
20231225 09:41:36,0.660304,0.450714,-0.029506,-0.055543,0.099801,-0.056472,5.580326,-11.022312,-8.965591,-71.68064,0.32348233,0.43863934,-0.35521093,-0.074045494,0.09908272,0.087004185
20231225 09:41:36,0.554368,0.504862,-0.085463,-0.018256,0.116847,-0.071387,5.031986,-11.436138,-9.345947,-66.0987,0.2106337,0.49880636,-0.2666205,-0.06921771,0.115932524,0.054762244
20231225 09:41:36,0.458223,0.585623,-0.228783,0.024358,0.147742,-0.090563,5.825546,-10.995773,-9.634720,-59.825382,0.00794138,0.59747297,-0.21057458,-0.07100426,0.15028553,0.018622912
20231225 09:41:36,0.196056,0.678335,-0.360738,0.065907,0.188225,-0.106543,5.492867,-11.222431,-8.551483,-60.221416,-0.27971637,0.7131527,0.019652143,-0.07786798,0.19890524,-0.0062051993
20231225 09:41:36,-0.105596,0.821461,-0.505788,0.088279,0.215924,-0.093759,6.065147,-10.889843,-9.103378,-53.094765,-0.5896425,0.8673123,0.25850463,-0.06639126,0.23060566,-0.023605116
20231225 09:41:36,-0.141630,0.657319,-0.450517,0.092540,0.210598,-0.067125,5.932476,-11.373169,-8.939178,-58.81765,-0.52404064,0.6891051,0.28095022,-0.034837477,0.22051749,-0.012361703
20231225 09:41:36,0.116368,0.572131,-0.533628,0.107455,0.192487,-0.061799,5.641277,-11.299145,-9.080872,-56.843414,-0.45628104,0.607558,-0.01828409,-0.017838638,0.19926934,-0.03759671
20231225 09:41:36,0.298762,0.357114,-0.916374,0.117043,0.198879,-0.071387,6.169502,-11.825432,-9.041260,-60.818615,-0.7076754,0.39984694,-0.32773012,-0.021139238,0.20388108,-0.044694033
20231225 09:41:36,0.444009,0.183618,-1.109296,0.088279,0.205271,-0.093759,6.133259,-12.013622,-9.297287,-61.728218,-0.8119465,0.19089161,-0.5572003,-0.047868915,0.20601529,-0.021128055
20231225 09:41:36,0.497908,0.358721,-1.086528,0.066972,0.209532,-0.121458,6.178467,-11.730415,-9.047379,-60.56985,-0.7791269,0.39352944,-0.54479504,-0.086748675,0.21349217,-0.008144181
20231225 09:41:36,0.343790,0.462965,-1.005649,0.040338,0.231905,-0.128915,6.178467,-11.730415,-9.047379,-58.752098,-0.77932376,0.53861326,-0.36408544,-0.11284355,0.24102277,0.021656753
20231225 09:41:36,0.231737,0.742900,-0.547085,0.010509,0.229774,-0.107608,6.072689,-11.928680,-8.901520,-63.126713,-0.42678192,0.7881918,-0.010806717,-0.10629322,0.23708984,0.06374667
20231225 09:41:36,0.315388,0.930296,-0.156818,-0.018256,0.182899,-0.070321,6.353771,-11.522064,-9.595108,-62.328968,-0.021296054,0.9420069,0.08450636,-0.077366024,0.1850287,0.07817725
20231225 09:41:36,0.541345,1.022979,-0.014199,-0.058739,0.128566,-0.040492,6.406143,-12.085804,-9.423828,-69.915344,0.25451544,1.0215187,-0.010563894,-0.06328435,0.12852742,0.1031417
20231225 09:41:36,0.807275,1.067327,0.100223,-0.104549,0.089148,-0.029838,6.539577,-11.986252,-9.027084,-76.88906,0.5333104,1.0499234,-0.17750518,-0.073554,0.090348996,0.13044402
20231225 09:41:36,0.989264,0.996779,0.174541,-0.145032,0.074233,-0.047949,6.557125,-11.604321,-9.319794,-74.55755,0.6906869,0.97821677,-0.34964606,-0.11103153,0.075710304,0.15493946
20231225 09:41:36,0.832753,0.988392,0.350575,-0.182319,0.077429,-0.073517,6.590027,-11.590546,-10.258148,-68.79294,0.74337494,0.9870526,-0.15851733,-0.15766096,0.07773529,0.17911234
20231225 09:41:36,0.606695,0.936572,0.671336,-0.207888,0.053992,-0.086302,6.811310,-11.482769,-9.995041,-70.832695,0.87157804,0.9297757,0.09418299,-0.18694574,0.052831218,0.18660736
20231225 09:41:36,0.435960,0.742636,0.800634,-0.207888,0.043338,-0.102282,6.477863,-11.325645,-9.472733,-74.781395,0.876521,0.7219158,0.16587234,-0.20368904,0.04167534,0.17977974
20231225 09:41:36,0.255029,0.412564,0.896979,-0.166339,0.067841,-0.121458,6.890572,-11.761440,-9.842087,-74.66709,0.8399415,0.35332754,0.16478808,-0.2007862,0.06762318,0.15438074
20231225 09:41:36,-0.101556,0.209868,0.954578,-0.131183,0.091279,-0.127850,6.864449,-12.430283,-9.262817,-81.421005,0.66862285,0.075131536,0.29030943,-0.19125724,0.09398878,0.14774401
20231225 09:41:36,-0.438166,0.046824,0.889481,-0.021452,0.152004,-0.106543,6.970226,-12.232014,-9.408676,-77.66851,0.42157513,-0.15164614,0.491547,-0.12065494,0.16343397,0.09308142
20231225 09:41:36,-0.583115,-0.179313,0.727655,0.029685,0.163722,-0.071387,6.997120,-11.946957,-9.427017,-72.585785,0.2549739,-0.37685698,0.49635613,-0.06682643,0.17608666,0.0564126
20231225 09:41:36,-0.400442,-0.342871,0.340410,0.042469,0.166918,-0.050080,7.375393,-11.628979,-9.979889,-66.49076,0.09196666,-0.43007708,0.22301587,-0.040380336,0.17605425,0.042449616
20231225 09:41:36,-0.112600,-0.606952,0.067096,0.021162,0.198879,-0.009596,7.324177,-11.640903,-9.309769,-74.371956,0.06031621,-0.61786973,-0.23534846,-0.018846555,0.19969754,0.09188625
20231225 09:41:36,0.090191,-0.816307,0.086220,-0.023582,0.216990,0.004253,7.218403,-11.839172,-9.163895,-81.396416,0.19429466,-0.81314653,-0.54417,-0.029682338,0.21378571,0.14674896
20231225 09:41:36,0.234818,-0.958357,0.335899,-0.063000,0.216990,0.008514,7.243492,-12.496086,-9.254745,-89.52114,0.47838166,-0.96527684,-0.77512234,-0.04819649,0.21178216,0.18366948
20231225 09:41:36,0.287898,-1.131725,0.519956,-0.080046,0.211663,0.005318,7.507027,-12.471397,-9.655655,-91.20173,0.6500756,-1.1450157,-0.9525268,-0.05980439,0.20672497,0.1968989
20231225 09:41:36,0.341311,-1.258512,0.724053,-0.081111,0.215924,-0.001074,7.200089,-11.837322,-9.432144,-91.848495,0.8537305,-1.2824562,-1.0990498,-0.06882706,0.21028896,0.20295762
20231225 09:41:36,0.136918,-1.307090,0.886653,-0.020386,0.271323,-0.035165,7.622150,-12.369995,-9.527145,-95.514946,0.86895,-1.3697777,-1.0348046,-0.06586008,0.27058077,0.19922653
20231225 09:41:36,-0.251581,-1.363068,1.082535,0.042469,0.309675,-0.049014,7.507027,-12.471397,-9.655655,-96.312256,0.7945431,-1.5257869,-0.8290167,-0.050244004,0.31637228,0.18415661
20231225 09:41:36,-0.608070,-1.206724,1.199455,0.095737,0.322459,-0.035165,7.489483,-12.853317,-9.362946,-99.93028,0.6412895,-1.4792893,-0.5131675,-0.01522251,0.3349024,0.15203609
20231225 09:41:36,-0.854913,-1.194995,1.165264,0.140481,0.316067,-0.005335,7.419182,-12.479622,-9.522003,-92.93854,0.4874046,-1.5497032,-0.22256523,0.026488572,0.33121902,0.11122637
20231225 09:41:36,-0.977543,-1.232957,0.918739,0.130893,0.301152,0.031952,7.921928,-12.157112,-9.672043,-84.56105,0.26370353,-1.5615019,-0.03350887,0.046588555,0.3068214,0.10471969
20231225 09:41:36,-0.843449,-1.100368,0.862253,0.091475,0.257473,0.054324,8.061760,-12.520729,-9.914841,-82.09561,0.3047424,-1.3913045,0.001555942,0.04532451,0.25258335,0.10272504
20231225 09:41:36,-0.823458,-0.961339,0.680238,0.044600,0.227643,0.061782,7.895035,-12.442177,-9.653702,-77.35514,0.19993061,-1.2242588,0.13895515,0.022761814,0.21211144,0.11445438
20231225 09:41:36,-0.834000,-0.705292,0.518221,-0.013994,0.214859,0.062847,7.957790,-11.777039,-9.696487,-67.29902,0.045484006,-0.9488559,0.3819747,-0.01208226,0.18754166,0.14756453
20231225 09:41:36,-0.981237,-0.324645,0.532978,-0.086438,0.205271,0.059651,7.682331,-12.263046,-10.203384,-59.32711,-0.10414347,-0.6401502,0.7788356,-0.060840324,0.16120858,0.19367392
20231225 09:41:36,-1.075166,-0.128488,0.572748,-0.124791,0.198879,0.063913,7.806038,-11.874741,-10.361465,-52.780113,-0.1808548,-0.5057193,1.0062311,-0.08258319,0.14235978,0.21811973
20231225 09:41:36,-1.318069,0.358938,0.854450,-0.224933,0.189291,0.099069,8.396629,-11.544003,-10.645126,-53.32435,-0.25398076,-0.15827824,1.532251,-0.11258226,0.10608073,0.30677682
20231225 09:41:36,-1.232209,0.457849,1.092831,-0.256894,0.198879,0.126768,8.246029,-12.217365,-10.468704,-63.34332,-0.054048657,-0.06670308,1.5246857,-0.11211787,0.1090752,0.34691975
20231225 09:41:36,-1.056985,0.473742,1.295669,-0.237717,0.234035,0.150206,8.070724,-12.425713,-9.920959,-73.76541,0.21209508,-0.007985026,1.3358319,-0.08600615,0.15129092,0.35212272
20231225 09:41:36,-0.810033,0.339582,1.383840,-0.174862,0.304348,0.168317,8.307365,-12.686089,-10.303528,-78.56953,0.45812505,-0.04361534,1.0111214,-0.04078169,0.23881976,0.34613737
20231225 09:41:36,-0.599343,0.110916,1.504845,-0.074719,0.366138,0.170447,8.351421,-11.827209,-10.895020,-73.23568,0.7190163,-0.2052625,0.80652165,0.021890849,0.32195947,0.3154449
20231225 09:41:36,-0.361972,-0.082113,1.407619,0.037142,0.411948,0.156598,8.599983,-11.626259,-10.369797,-76.32902,0.83708227,-0.3307854,0.43982273,0.08137686,0.38604593,0.252852
20231225 09:41:36,-0.274762,-0.258936,1.138554,0.139416,0.432190,0.142748,8.493443,-11.440750,-10.784866,-69.337166,0.7361682,-0.46104813,0.31399608,0.1306738,0.41922104,0.17691666
20231225 09:41:36,-0.183637,-0.399855,0.739856,0.218252,0.432190,0.139552,8.652351,-12.189995,-10.198502,-74.03839,0.52679193,-0.52451175,0.03647141,0.17649761,0.42844516,0.10131689
20231225 09:41:36,0.038643,-0.618068,0.247402,0.256604,0.411948,0.134226,8.052795,-12.615746,-9.908737,-74.9785,0.30359125,-0.6390409,-0.34117728,0.20187989,0.4129181,0.04271277
20231225 09:41:36,0.142045,-0.775500,-0.003284,0.253408,0.365073,0.119311,8.564125,-12.006340,-10.345337,-67.770454,0.16701889,-0.75627184,-0.51698136,0.19600382,0.36724183,0.001561353
20231225 09:41:36,0.430363,-1.071376,-0.651956,0.216121,0.311806,0.094808,8.625843,-12.666939,-9.899689,-71.46298,-0.21374357,-0.9719115,-1.0133425,0.1632638,0.3136632,-0.010527708
20231225 09:41:36,0.537935,-1.106627,-0.850187,0.163919,0.251081,0.069239,8.483055,-12.669624,-10.570801,-64.619644,-0.3387238,-0.98049366,-1.1596186,0.1174625,0.25219136,-0.009783616
20231225 09:41:36,0.491122,-1.078760,-1.005386,0.094671,0.189291,0.044736,8.325298,-12.496048,-10.315750,-61.949127,-0.47270757,-0.90138686,-1.1427327,0.061717547,0.18855089,0.013123929
20231225 09:41:36,0.366294,-1.003868,-0.980521,0.010509,0.111520,0.026625,8.934586,-12.359047,-10.050690,-62.34796,-0.4943348,-0.80479586,-0.99460584,0.010829708,0.10660862,0.047013227
20231225 09:41:36,0.189067,-0.773953,-0.817719,-0.069392,0.044403,0.017037,8.749928,-12.470528,-9.777313,-63.908436,-0.44993016,-0.59453225,-0.7101973,-0.029620718,0.033097874,0.08390718
20231225 09:41:36,0.066735,-0.633862,-0.518875,-0.130117,-0.016321,0.014907,8.803719,-11.900410,-9.813995,-65.682365,-0.28528094,-0.52857894,-0.48756614,-0.056032255,-0.03244763,0.104289815
20231225 09:41:36,0.073512,-0.586822,-0.070656,-0.165274,-0.063197,0.006384,8.776443,-11.993580,-10.076126,-69.200424,0.07627466,-0.5573225,-0.39016065,-0.08018357,-0.0810183,0.10250048
20231225 09:41:36,-0.021611,-0.490558,0.337982,-0.165274,-0.098353,-0.005335,8.678864,-11.713047,-10.497314,-69.56704,0.32428658,-0.5342468,-0.18854332,-0.08926851,-0.11421552,0.07530707
20231225 09:41:36,-0.009720,-0.535816,0.664526,-0.137575,-0.126052,-0.017054,8.881832,-11.603420,-10.502457,-72.401825,0.58257395,-0.62132823,-0.18412977,-0.08068654,-0.13682225,0.030497737
20231225 09:41:36,-0.064998,-0.620812,0.801531,-0.094961,-0.145229,-0.033034,8.696793,-11.523014,-10.509552,-73.577866,0.657457,-0.73148954,-0.18285562,-0.06460793,-0.14907885,-0.020400431
20231225 09:41:36,-0.072075,-0.743526,0.769522,-0.048085,-0.151621,-0.046884,8.570904,-12.661392,-10.704422,-79.09772,0.64071184,-0.84534496,-0.3159565,-0.045396328,-0.14821126,-0.06315963
20231225 09:41:36,-0.078118,-0.887446,0.724744,-0.000145,-0.159078,-0.068191,8.606377,-12.089432,-11.009354,-73.32918,0.6288427,-0.986452,-0.34816033,-0.028594043,-0.14630081,-0.10924635
20231225 09:41:36,-0.108115,-0.957744,0.627328,0.020097,-0.171862,-0.083105,8.749165,-12.086746,-10.338242,-75.18233,0.5639193,-1.051793,-0.39589328,-0.023171727,-0.15225509,-0.13319112
20231225 09:41:36,-0.356007,-0.921600,0.016917,0.042469,-0.187843,-0.118262,8.959293,-12.824074,-10.422012,-63.287045,0.023330458,-0.9459287,-0.18251199,-0.023569167,-0.14501023,-0.16265267
20231225 09:41:36,-0.496776,-0.822888,-0.221522,0.035012,-0.189973,-0.118262,8.661316,-12.094978,-10.204620,-51.201508,-0.21262267,-0.8041768,-0.023495898,-0.01771266,-0.13728124,-0.1530949
20231225 09:41:36,-0.732631,-0.727698,-0.531617,-0.058739,-0.216607,-0.087367,8.723034,-12.755585,-9.758972,-56.871387,-0.60631526,-0.6682056,0.10930197,-0.036846325,-0.18843411,-0.07844186
20231225 09:41:36,-0.750695,-0.572238,-0.569120,-0.098157,-0.245371,-0.074583,8.873634,-12.082218,-9.935394,-50.831806,-0.68497,-0.509966,0.19871691,-0.03937039,-0.22636238,-0.04541782
20231225 09:41:36,-0.711239,-0.513034,-0.958630,-0.228129,-0.318880,-0.062864,8.864670,-12.177235,-9.929276,-47.388775,-0.9773442,-0.3174463,0.07827431,-0.07070474,-0.3207453,0.051999517
20231225 09:41:36,-0.663615,-0.465339,-0.937367,-0.279266,-0.332730,-0.061799,8.765671,-13.030563,-10.142502,-58.17305,-0.99893767,-0.31859756,0.08500978,-0.117801145,-0.34659463,0.06738558
20231225 09:41:36,-0.452729,-0.299272,-0.549619,-0.349579,-0.373213,-0.075648,8.847126,-12.559166,-9.636597,-63.732845,-0.62245095,-0.2303145,0.099465504,-0.16725813,-0.39387023,0.09150065
20231225 09:41:36,-0.482027,-0.290397,-0.325724,-0.378343,-0.379605,-0.096955,8.786942,-12.666115,-8.960342,-72.59946,-0.46689224,-0.28082865,0.18528283,-0.2067739,-0.40175763,0.09035583
20231225 09:41:36,-0.511625,0.067854,0.409926,-0.354906,-0.335926,-0.110805,8.998493,-12.269573,-9.252075,-76.16644,-0.0045466423,-0.09373004,0.50725317,-0.23190609,-0.3565616,0.071232885
20231225 09:41:36,-0.601720,0.149734,0.610960,-0.327207,-0.326338,-0.111870,8.768242,-12.472374,-9.509064,-75.922516,0.071314275,-0.07618603,0.65631115,-0.21762894,-0.3437815,0.050523233
20231225 09:41:36,-0.795207,0.294071,0.858354,-0.251567,-0.300769,-0.105478,9.005653,-13.116524,-9.330688,-80.33539,0.08962625,-0.056934282,0.89371246,-0.16579658,-0.30871183,0.0044769235
20231225 09:41:36,-0.994512,0.464561,0.932974,-0.146097,-0.266678,-0.098020,8.963017,-12.841545,-8.947144,-80.449356,-0.019368887,0.036147714,1.1613026,-0.09990894,-0.2579582,-0.05615404
20231225 09:41:36,-1.106136,0.513846,0.777504,0.008378,-0.235783,-0.091628,9.068794,-12.643280,-9.093002,-73.2151,-0.20529926,0.069164455,1.3150471,-0.0031277612,-0.19755597,-0.15746617
20231225 09:41:36,-1.128196,0.600305,0.430252,0.049927,-0.222999,-0.088432,8.802685,-13.226151,-9.325546,-67.58206,-0.4773192,0.22783983,1.3368111,0.022055365,-0.17565747,-0.17776546
20231225 09:41:36,-1.075724,0.635607,-0.130608,0.122370,-0.189973,-0.078844,9.050865,-12.833321,-9.080765,-61.39806,-0.8687903,0.4328952,1.1732105,0.05924556,-0.13216294,-0.21329215
20231225 09:41:36,-0.995082,0.605496,-0.269890,0.127697,-0.191039,-0.072452,8.908844,-13.219772,-9.190933,-60.25722,-0.9184334,0.46557647,1.0519341,0.06584082,-0.13461952,-0.2150163
20231225 09:41:36,-0.768255,0.463860,-0.614693,0.107455,-0.207019,-0.057537,8.917809,-13.124756,-9.197052,-60.82514,-1.0100601,0.4867011,0.7178031,0.057900827,-0.16824542,-0.19755055
20231225 09:41:36,-0.469743,0.278566,-0.829509,0.026489,-0.221934,-0.051145,9.033314,-13.215240,-8.788086,-68.043976,-0.9904994,0.38886112,0.38011968,0.017893389,-0.20082575,-0.13593534
20231225 09:41:36,-0.249350,0.070412,-0.861786,-0.005472,-0.230456,-0.050080,9.262798,-12.628670,-9.092026,-66.34203,-0.8616079,0.21248814,0.0704643,0.0018976666,-0.21455242,-0.113495976
20231225 09:41:36,-0.164544,-0.093053,-0.679586,-0.071523,-0.257090,-0.043688,8.689751,-12.577477,-9.101059,-69.54156,-0.63162977,0.015752219,-0.033779427,-0.02662414,-0.25112072,-0.07595733
20231225 09:41:36,-0.183447,-0.272762,-0.343915,-0.137575,-0.301835,-0.047949,8.804871,-12.476074,-8.972580,-76.445145,-0.33450955,-0.22977985,-0.045731667,-0.06530793,-0.3033158,-0.060089417
20231225 09:41:36,-0.225469,-0.285156,-0.204535,-0.142901,-0.314619,-0.055406,8.512257,-13.535896,-8.906311,-82.80574,-0.2437051,-0.27068186,0.0069845505,-0.07188689,-0.31527928,-0.06662905
20231225 09:41:36,-0.335692,-0.223471,-0.075017,-0.130117,-0.330599,-0.075648,8.426212,-12.602158,-8.700165,-76.0067,-0.20461124,-0.24892032,0.14202227,-0.06580472,-0.32293794,-0.08623622
20231225 09:41:36,-0.528248,-0.071925,-0.142695,-0.097091,-0.312488,-0.096955,9.112198,-13.302032,-8.915604,-75.1669,-0.39471892,-0.11944805,0.37615874,-0.05962047,-0.29301196,-0.10439352
20231225 09:41:37,-0.848794,0.216049,-0.123296,-0.053412,-0.276266,-0.098020,9.078522,-12.932037,-8.538177,-71.8074,-0.63401157,0.07752049,0.7951865,-0.029963784,-0.24327315,-0.12100017
20231225 09:41:37,-1.085981,0.433755,-0.064173,-0.007602,-0.267744,-0.083105,9.123348,-12.456940,-8.568741,-67.18479,-0.77334136,0.22316146,1.1120458,0.006034903,-0.23000331,-0.14805622
20231225 09:41:37,-1.079834,0.526509,-0.157051,0.026489,-0.268809,-0.061799,9.132698,-12.553802,-8.294373,-68.98538,-0.86324877,0.34113196,1.1418446,0.041468237,-0.23087159,-0.17170541
20231225 09:41:37,-0.944124,0.581266,-0.275939,0.040338,-0.278397,-0.043688,8.841499,-12.479774,-8.436081,-67.72778,-0.87858284,0.46914467,1.0293094,0.058792204,-0.2469216,-0.1810102
20231225 09:41:37,-0.738955,0.573293,-0.351048,0.035012,-0.295443,-0.039426,9.096836,-12.933884,-8.269928,-71.256485,-0.8079034,0.5275572,0.85481936,0.055462208,-0.269662,-0.18218558
20231225 09:41:37,-0.633210,0.622756,-0.476428,0.036077,-0.276266,-0.033034,8.797443,-13.338654,-7.844574,-75.74025,-0.86705947,0.6202365,0.79359907,0.056806836,-0.25255027,-0.1740306
20231225 09:41:37,-0.663104,0.526332,-0.386136,0.024358,-0.248567,-0.022381,8.779129,-13.336800,-8.112823,-76.95327,-0.7880121,0.49955115,0.78790724,0.051003035,-0.23095891,-0.15279083
20231225 09:41:37,-0.658975,0.585881,-0.076646,0.022227,-0.251763,-0.018119,8.646461,-13.820129,-7.948624,-85.42457,-0.54949445,0.49185294,0.8690121,0.049994614,-0.23695743,-0.15876426
20231225 09:41:37,-0.655836,0.583343,0.205311,0.022227,-0.268809,-0.007466,8.788094,-13.241776,-8.118927,-85.6174,-0.31913987,0.4462359,0.87974524,0.056262873,-0.2577043,-0.17209129
20231225 09:41:37,-0.585508,0.594916,0.390994,0.033946,-0.281593,0.012776,8.850201,-14.094269,-7.392807,-95.52644,-0.12339896,0.44732246,0.79782975,0.07709515,-0.27372319,-0.18957019
20231225 09:41:37,-0.393037,0.588601,0.467680,0.064841,-0.276266,0.028756,8.833302,-12.958572,-7.869019,-88.29211,0.0626778,0.46741146,0.6676011,0.10173169,-0.26910737,-0.2111477
20231225 09:41:37,-0.314030,0.575643,0.425025,0.097867,-0.267744,0.037279,8.842651,-13.055435,-7.594666,-87.487114,0.09111795,0.47387332,0.5896003,0.123882055,-0.2595377,-0.22836266
20231225 09:41:37,-0.293212,0.680605,0.210278,0.102129,-0.276266,0.051128,8.922298,-13.526009,-7.161255,-90.54557,-0.08258183,0.61271596,0.61316776,0.13756797,-0.2700576,-0.23537762
20231225 09:41:37,-0.205115,0.840498,-0.037859,0.062711,-0.299704,0.070305,9.106956,-13.414528,-7.434616,-85.58242,-0.25105655,0.8185075,0.6062162,0.13221677,-0.30036497,-0.2049719
20231225 09:41:37,-0.096154,0.892808,-0.225171,-0.019321,-0.316750,0.090546,9.036655,-13.040825,-7.593689,-84.790565,-0.33629933,0.90376073,0.5286328,0.100945644,-0.32518286,-0.14120142
20231225 09:41:37,0.074916,0.782095,-0.093557,-0.080046,-0.309292,0.092677,8.967892,-13.434692,-6.630875,-95.98845,-0.100830376,0.78981495,0.35675123,0.059868313,-0.3192804,-0.1015349
20231225 09:41:37,0.098693,0.688652,0.187076,-0.083242,-0.254959,0.069239,8.897209,-12.869102,-7.070419,-94.55675,0.15093227,0.6748172,0.29530764,0.031923763,-0.2642869,-0.07685651
20231225 09:41:37,-0.151603,0.484952,0.533043,-0.028909,-0.187843,0.031952,8.915524,-12.870949,-6.802170,-99.00047,0.26275647,0.39107457,0.35941392,0.032931197,-0.1923866,-0.091775805
20231225 09:41:37,-0.466518,0.340624,0.766569,0.054188,-0.146294,0.002122,8.491272,-13.088356,-7.060135,-99.47229,0.2597926,0.1600697,0.4978494,0.057275947,-0.13737878,-0.13104467
20231225 09:41:37,-0.762207,0.144274,0.736572,0.139416,-0.117530,-0.008531,8.622520,-13.738884,-7.016373,-102.524826,0.07017636,-0.10069425,0.5893026,0.10050267,-0.09314019,-0.17935652
20231225 09:41:37,-0.916561,-0.048943,0.546190,0.210794,-0.107941,0.001057,8.543640,-13.652092,-6.888840,-100.170845,-0.11979556,-0.29695675,0.6448838,0.14947541,-0.0725936,-0.23239501
20231225 09:41:37,-0.870507,-0.173542,0.153605,0.249147,-0.110072,0.026625,9.188789,-13.135025,-6.648239,-94.156456,-0.346958,-0.31627366,0.6047332,0.18602128,-0.078299336,-0.26795077
20231225 09:41:37,-0.611934,-0.320946,-0.305125,0.240624,-0.122856,0.048998,8.562340,-13.845833,-6.340134,-97.45398,-0.5306401,-0.3303727,0.35975483,0.19260772,-0.10199848,-0.27154154
20231225 09:41:37,-0.246206,-0.424041,-0.637490,0.199075,-0.123922,0.061782,9.170475,-13.133171,-6.916473,-91.62006,-0.62334615,-0.37144566,-0.007443864,0.17053823,-0.11652373,-0.23539506
20231225 09:41:37,0.165795,-0.536301,-0.630872,0.145808,-0.119660,0.050063,9.065086,-13.523323,-6.490143,-98.96839,-0.41786352,-0.50162023,-0.3714229,0.1259396,-0.11751823,-0.19065364
20231225 09:41:37,0.454256,-0.573628,-0.384590,0.101063,-0.100484,0.024495,8.713322,-13.364357,-6.236084,-105.9069,-0.05298549,-0.5698483,-0.6277835,0.07838756,-0.100235224,-0.141993
20231225 09:41:37,0.585030,-0.651555,0.051519,0.080822,-0.098353,-0.009596,9.118874,-12.953209,-6.526825,-107.79013,0.3909907,-0.6574654,-0.85262597,0.04072066,-0.09941686,-0.11953532
20231225 09:41:37,0.658478,-0.678103,0.447073,0.082952,-0.097288,-0.033034,8.448635,-12.813385,-6.676605,-109.1761,0.74748886,-0.6795194,-1.0065417,0.024321299,-0.09923463,-0.11542839
20231225 09:41:37,0.766992,-0.700019,0.725008,0.101063,-0.094092,-0.049014,8.904755,-13.907936,-6.868546,-113.12941,1.0252807,-0.6967038,-1.1837589,0.02413258,-0.09825421,-0.1207017
20231225 09:41:37,0.790755,-0.777991,0.915687,0.131958,-0.073850,-0.059668,8.695774,-13.746284,-5.943390,-118.336975,1.186687,-0.77082145,-1.3316482,0.03962214,-0.07888167,-0.123569705
20231225 09:41:37,0.818911,-0.848127,1.221440,0.188422,-0.052543,-0.064995,8.923836,-14.293564,-6.039352,-120.81849,1.4245948,-0.8312268,-1.5177721,0.07731035,-0.060497098,-0.14712958
20231225 09:41:37,0.922403,-0.921257,1.297051,0.244885,-0.046151,-0.066060,8.996708,-14.109070,-5.246841,-123.26765,1.5313013,-0.89661276,-1.6811628,0.114557624,-0.06053429,-0.18212882
20231225 09:41:37,1.116582,-0.987454,1.274073,0.282172,-0.060001,-0.066060,8.846756,-13.264809,-5.839340,-119.55965,1.612268,-0.9623179,-1.8274603,0.13705258,-0.084685266,-0.2216341
20231225 09:41:37,1.388258,-0.980925,1.117277,0.290695,-0.103680,-0.076713,9.014252,-13.727142,-5.539551,-120.8001,1.61567,-0.97518665,-1.9738121,0.11737774,-0.14276838,-0.25386742
20231225 09:41:37,1.566832,-0.895375,0.829159,0.264062,-0.156947,-0.091628,9.198524,-13.423782,-6.093399,-116.94765,1.4970253,-0.94428533,-1.9560137,0.0753936,-0.1977119,-0.2666584
20231225 09:41:37,1.695733,-0.683796,0.507677,0.213990,-0.209149,-0.118262,9.120029,-13.528870,-5.685410,-116.61462,1.3056092,-0.7888253,-1.860921,0.0021584034,-0.24854481,-0.2516618
20231225 09:41:37,1.568178,-0.383354,0.217769,0.125566,-0.245371,-0.138504,9.075203,-14.003967,-5.654846,-114.957886,1.0166444,-0.49502477,-1.5398787,-0.07410304,-0.27244562,-0.1965515
20231225 09:41:37,1.397453,-0.169363,0.262438,0.016901,-0.274136,-0.136373,9.172779,-14.284508,-5.233643,-117.50431,0.9990104,-0.25441378,-1.2974426,-0.13311905,-0.2889128,-0.11788714
20231225 09:41:37,1.368496,0.085561,0.625461,-0.066196,-0.318880,-0.137438,8.924217,-14.485451,-5.758896,-116.363884,1.3126562,0.04830645,-1.2274257,-0.1815489,-0.32545748,-0.07778814
20231225 09:41:37,1.110759,0.140409,0.735208,-0.109876,-0.327403,-0.144896,9.268436,-13.605583,-6.214813,-110.16633,1.2563918,0.13589674,-0.9669193,-0.19851786,-0.33004275,-0.06396446
20231225 09:41:37,0.763290,0.142448,0.994415,-0.135444,-0.317815,-0.147026,9.058044,-14.577789,-5.081680,-118.44605,1.2556401,0.14878924,-0.8179727,-0.20397238,-0.31842813,-0.01961654
20231225 09:41:37,0.431516,0.345859,1.309269,-0.107745,-0.314619,-0.154484,9.154465,-14.282654,-5.501892,-114.48544,1.2908918,0.3180457,-0.48105675,-0.17919508,-0.31239486,-0.049896814
20231225 09:41:37,0.037153,0.326851,1.158079,-0.049151,-0.273070,-0.156614,8.776192,-14.600624,-4.949020,-116.87336,0.9171179,0.23777193,-0.16935338,-0.1328783,-0.26252273,-0.064843826
20231225 09:41:37,-0.284366,0.354820,1.019794,0.021162,-0.205953,-0.148092,9.066624,-14.290886,-5.368271,-111.21938,0.60535777,0.21623181,0.20613718,-0.082865566,-0.18601157,-0.09915403
20231225 09:41:37,-0.537642,0.285528,0.792499,0.095737,-0.133510,-0.135308,9.057659,-14.385902,-5.362152,-109.40411,0.27343997,0.102307245,0.43941242,-0.031583562,-0.10031573,-0.12501961
20231225 09:41:37,-0.746799,0.109664,0.481355,0.161788,-0.060001,-0.114001,9.094284,-14.389595,-4.825653,-109.92886,-0.06678042,-0.072756685,0.5747558,0.013178796,-0.017876009,-0.14226499
20231225 09:41:37,-0.755124,-0.164932,0.181411,0.216121,-0.004603,-0.089498,9.191093,-14.286354,-4.965408,-107.03806,-0.25080466,-0.28683525,0.5039553,0.05086284,0.03831078,-0.16599856
20231225 09:41:37,-0.585851,-0.549149,-0.273569,0.251277,0.032685,-0.067125,9.484482,-13.610306,-4.470718,-104.34245,-0.45302585,-0.55588317,0.2394702,0.07592231,0.06993457,-0.18468414
20231225 09:41:37,-0.297211,-0.900540,-0.739080,0.258735,0.068906,-0.051145,8.963417,-13.930962,-4.588959,-104.510635,-0.66312474,-0.817795,-0.09816587,0.0807766,0.09477056,-0.18101577
20231225 09:41:37,0.005619,-1.073988,-1.165198,0.223578,0.080625,-0.046884,9.217991,-14.001289,-4.983749,-99.737114,-0.9133426,-0.95772314,-0.41717124,0.058465786,0.09605647,-0.15449554
20231225 09:41:37,0.180980,-1.081871,-1.539148,0.141546,0.076364,-0.036230,9.166771,-14.013214,-4.313614,-100.98655,-1.2094104,-0.95360285,-0.50475013,0.02497479,0.08423102,-0.090193
20231225 09:41:37,0.280206,-0.984605,-1.651997,0.031816,0.064645,-0.009596,9.148842,-14.203262,-4.301392,-102.55416,-1.2957889,-0.8820757,-0.5191246,0.001975648,0.0659459,5.697555E-4
20231225 09:41:37,0.394935,-0.896198,-1.530227,-0.084307,0.027358,0.023429,9.209408,-14.288208,-4.697159,-103.8968,-1.1748428,-0.8831849,-0.5806439,-0.017812565,0.026857538,0.08457254
20231225 09:41:37,0.650415,-0.869124,-1.241611,-0.191907,-0.010995,0.051128,9.322346,-14.936882,-4.921646,-110.68945,-0.8106538,-0.9643448,-0.7504585,-0.05071613,-0.0013149844,0.15310264
20231225 09:41:37,0.984974,-0.760367,-0.814182,-0.269678,-0.051478,0.056455,9.376518,-14.558655,-4.677841,-114.83889,-0.25711414,-0.90099394,-1.0223529,-0.097626224,-0.028284885,0.19377539
20231225 09:41:37,1.149452,-0.574182,-0.462827,-0.304834,-0.058935,0.052194,9.340660,-14.938736,-4.653381,-118.176315,0.18921733,-0.69145733,-1.1187901,-0.12980206,-0.033361237,0.21283033
20231225 09:41:37,1.105723,-0.420423,-0.004542,-0.305900,-0.061066,0.050063,9.737247,-14.622604,-4.938019,-116.47744,0.5932011,-0.47944403,-1.1219031,-0.13821028,-0.04005786,0.20749193
20231225 09:41:37,0.966273,-0.188380,0.328726,-0.285658,-0.083438,0.048998,9.224770,-14.656357,-5.342834,-115.77743,0.81716794,-0.20632757,-0.96888417,-0.12974943,-0.07035874,0.17711706
20231225 09:41:37,0.761206,-0.005883,0.500429,-0.253698,-0.105811,0.058586,9.376133,-14.366760,-4.958313,-115.658806,0.84925413,-0.007107311,-0.7484424,-0.102820076,-0.0989513,0.13625318
20231225 09:41:37,0.647944,0.143241,0.566926,-0.211084,-0.114333,0.071370,9.287521,-13.991219,-5.385635,-111.89911,0.8383189,0.14470081,-0.5751674,-0.064588085,-0.11139469,0.096310735
20231225 09:41:37,0.540884,0.311019,0.524716,-0.156751,-0.099419,0.085220,9.236305,-14.003143,-4.715500,-114.542694,0.7437589,0.3129683,-0.4068633,-0.02092629,-0.09679754,0.056791358
20231225 09:41:37,0.543883,0.272169,0.484914,-0.098157,-0.071720,0.096938,9.339890,-14.554955,-5.214325,-113.903984,0.7124985,0.27355725,-0.41613764,0.02237022,-0.069476224,0.02052087
20231225 09:41:37,0.554782,0.168005,0.445499,-0.039563,-0.051478,0.103330,9.287907,-14.183105,-5.105148,-113.34313,0.6851183,0.16900574,-0.4684586,0.06142695,-0.04922181,-0.01779387
20231225 09:41:37,0.599440,0.063467,0.217150,0.003051,-0.047217,0.109723,9.694611,-14.347618,-4.554489,-114.53495,0.5154005,0.057297617,-0.51656556,0.09129866,-0.04357855,-0.051683087
20231225 09:41:37,0.653310,0.021663,-0.079153,0.032881,-0.045086,0.106526,9.049080,-14.672813,-5.075562,-112.80487,0.2820945,0.0011815887,-0.5258667,0.10567595,-0.041452043,-0.07196877
20231225 09:41:37,0.616828,-0.081316,-0.477616,0.043534,-0.042955,0.094808,9.331696,-15.033752,-4.647278,-112.13322,-0.10443169,-0.10879435,-0.4802436,0.102360144,-0.04063989,-0.07563431
20231225 09:41:37,0.523908,-0.076346,-0.879883,0.013705,-0.049347,0.089481,8.785542,-14.697502,-4.674652,-108.47017,-0.5299229,-0.096614495,-0.3646403,0.08448766,-0.04790129,-0.047532726
20231225 09:41:37,0.423859,0.028596,-1.155106,-0.042759,-0.055739,0.094808,9.185085,-14.015068,-4.045364,-106.56553,-0.83806634,0.029640634,-0.21641894,0.0652185,-0.05582816,0.0016996898
20231225 09:41:37,0.282742,0.040911,-1.271986,-0.107745,-0.047217,0.103330,9.695526,-11.120468,-6.372787,-83.744255,-1.0099788,0.090565406,-0.2966036,0.045506496,-0.052713953,0.08023678
20231225 09:41:37,0.118091,0.135514,-1.200027,-0.158882,-0.015256,0.116115,9.228756,-12.964302,-4.917343,-96.80123,-1.0144217,0.21918985,0.023689747,0.029913008,-0.028488478,0.12735936
20231225 09:41:37,-0.047746,0.139058,-0.931052,-0.184450,0.015639,0.132095,9.018360,-13.936508,-3.784225,-108.337135,-0.84197235,0.20839933,0.25032276,0.022785261,-0.002675199,0.14753763
20231225 09:41:37,-0.103080,0.141266,-0.587768,-0.186581,0.028423,0.149140,9.385483,-14.463638,-4.683960,-107.48931,-0.5646055,0.17647895,0.24902758,0.029080145,0.010587525,0.15065232
20231225 09:41:37,0.044010,0.116861,-0.371649,-0.163143,0.031619,0.157663,9.491642,-14.457253,-4.549347,-110.52474,-0.2956539,0.12810159,0.0890809,0.046912283,0.024263687,0.12505855
20231225 09:41:37,0.238447,0.103142,-0.392970,-0.132248,0.036946,0.151271,9.209793,-14.480095,-4.416687,-112.321266,-0.21173824,0.09887237,-0.07718502,0.06115307,0.038780626,0.101054505
20231225 09:41:37,0.452701,0.140484,-0.505030,-0.114137,0.056122,0.137422,9.582058,-13.890839,-4.049530,-112.61808,-0.19479595,0.10564177,-0.22273394,0.061858166,0.06523371,0.09747355
20231225 09:41:37,0.651947,0.227123,-0.538962,-0.103484,0.068906,0.123572,8.963802,-14.122849,-4.308487,-114.49966,-0.10984984,0.15143615,-0.34063658,0.058438584,0.08352283,0.09481111
20231225 09:41:37,0.840449,0.265478,-0.529226,-0.109876,0.064645,0.100134,9.049458,-14.864693,-4.795090,-114.72753,0.002816528,0.15703282,-0.48827702,0.036395058,0.08131041,0.103157595
20231225 09:41:37,0.917962,0.359243,-0.508247,-0.121595,0.066776,0.073501,9.315952,-14.473709,-4.282074,-115.65544,0.07167891,0.24973077,-0.5111875,0.007389225,0.081108615,0.1190191
20231225 09:41:37,0.784682,0.479720,-0.440364,-0.126921,0.072102,0.054324,9.596531,-11.973801,-6.585999,-96.99972,0.062431872,0.40558285,-0.40352938,-0.0126687065,0.0821096,0.14228337
20231225 09:41:37,0.653585,0.590516,-0.313004,-0.117333,0.090213,0.039410,9.473328,-14.455399,-4.817581,-111.125,0.09489599,0.5599135,-0.21680477,-0.023097299,0.094759166,0.13659856
20231225 09:41:37,0.460583,0.743322,-0.132133,-0.086438,0.116847,0.031952,9.043064,-14.401527,-4.155533,-114.651505,0.14393619,0.7347381,-0.009180648,-0.015755888,0.11853045,0.12229386
20231225 09:41:37,0.318067,0.881804,-0.003719,-0.037432,0.142415,0.024495,9.067009,-14.482773,-5.087784,-109.67704,0.1609024,0.88242066,0.16531955,7.795617E-4,0.14226627,0.09787601
20231225 09:41:37,0.223235,0.871284,-0.029150,0.020097,0.170114,0.023429,9.394447,-14.368614,-4.690063,-109.703995,0.07820241,0.87363696,0.24150468,0.027901836,0.16991971,0.062097207
20231225 09:41:37,0.197199,0.845543,-0.095006,0.079756,0.205271,0.023429,9.421341,-14.083557,-4.708405,-109.0118,0.017650567,0.8463853,0.26190993,0.06057159,0.20536765,0.028467923
20231225 09:41:37,0.338260,0.756874,-0.196404,0.135154,0.239362,0.017037,9.624310,-13.973923,-4.713547,-108.48001,0.017173097,0.7496558,0.107136756,0.087865986,0.23818874,-0.0031542694
20231225 09:41:37,0.431232,0.634487,-0.360169,0.174572,0.274519,0.004253,9.166386,-13.821335,-4.594101,-108.7214,-0.08205263,0.62123114,-0.01435389,0.096999586,0.2723614,-0.0215552
20231225 09:41:37,0.412046,0.596670,-0.575541,0.190552,0.291564,-0.004270,9.649021,-14.438942,-5.084854,-104.706825,-0.30320254,0.5926465,-0.013115026,0.089424394,0.29101422,-0.030787207
20231225 09:41:37,0.305556,0.625381,-0.806155,0.184160,0.297956,-0.000008,9.324532,-14.186806,-4.568665,-103.80167,-0.58540237,0.63376826,0.090253696,0.080890335,0.29876208,-0.03293366
20231225 09:41:37,0.275690,0.680903,-1.146974,0.160723,0.316067,0.011711,9.428120,-14.738609,-5.067490,-98.48045,-0.9401787,0.7110813,0.10468461,0.07074555,0.3174581,-0.014896657
20231225 09:41:37,0.152780,0.776153,-1.458082,0.112782,0.357616,0.033017,9.552593,-14.734085,-4.664642,-96.26251,-1.3228332,0.8763774,0.2333316,0.051411815,0.3577536,0.037838973
20231225 09:41:37,-0.003132,0.897803,-1.459305,0.046730,0.386380,0.067109,9.376518,-14.558655,-4.677841,-94.4635,-1.4174104,1.0360627,0.4093714,0.041873515,0.37956148,0.11037403
20231225 09:41:37,-0.098559,1.061098,-1.308454,-0.038497,0.375727,0.116115,9.640820,-14.917740,-4.517807,-95.76053,-1.3466096,1.1978769,0.5756775,0.046193875,0.3574167,0.18332815
20231225 09:41:37,0.001927,1.209601,-1.165522,-0.148228,0.360812,0.180036,9.667713,-14.632683,-4.536148,-101.30122,-1.0999966,1.2597823,0.6159025,0.08107461,0.34921786,0.27243412
20231225 09:41:37,0.414275,1.043313,-0.530232,-0.259024,0.305414,0.207735,9.852753,-14.713089,-4.529053,-110.319466,-0.2149311,1.0121517,0.21398628,0.06450711,0.3190516,0.33105713
20231225 09:41:37,0.873035,0.789792,-0.058453,-0.338926,0.224447,0.191754,9.604195,-14.914040,-5.054291,-115.25017,0.50208247,0.7207537,-0.33773255,9.420812E-4,0.26463696,0.3508699
20231225 09:41:37,1.159549,0.493258,0.293791,-0.382605,0.202075,0.129964,9.871067,-14.714935,-4.260803,-120.97137,0.96578455,0.42714304,-0.7875857,-0.09354934,0.24637656,0.37347046
20231225 09:41:37,1.275828,0.228110,0.948771,-0.364494,0.204206,0.048998,9.967495,-14.419807,-4.681030,-122.04892,1.5610647,0.21666247,-1.1779567,-0.1788162,0.233209,0.37402856
20231225 09:41:37,1.056856,-0.143030,1.494955,-0.281397,0.199944,-0.034099,9.712540,-14.157585,-4.566711,-123.6533,1.8072613,-0.116882436,-1.4193531,-0.20509918,0.21036296,0.3327773
20231225 09:41:37,0.754019,-0.135622,1.770402,-0.150359,0.193552,-0.096955,9.651207,-13.688866,-4.731888,-120.598694,1.8179928,-0.12913592,-1.2420045,-0.17160782,0.19377825,0.25636852
20231225 09:41:37,0.142756,-0.025582,1.465624,-0.018256,0.193552,-0.124654,9.870300,-14.331154,-4.821747,-117.27647,1.2142457,-0.11179282,-0.55463415,-0.11945866,0.19988899,0.16088173
20231225 09:41:37,-0.352951,0.027358,0.882386,0.060580,0.206336,-0.105478,10.240376,-14.491982,-4.807571,-111.9018,0.4777717,-0.10794905,0.09703404,-0.07056839,0.2218621,0.09149776
20231225 09:41:38,-0.533436,0.346407,0.444778,0.101063,0.213794,-0.061799,10.071465,-15.163498,-4.899399,-109.0573,0.0073436797,0.22052154,0.54287183,-0.024593752,0.22975776,0.04250695
20231225 09:41:38,-0.537440,0.476164,0.015717,0.096802,0.238297,-0.002139,9.967110,-14.227913,-4.961502,-103.84522,-0.34702015,0.4174485,0.7003898,0.016936611,0.24407642,0.04484162
20231225 09:41:38,-0.258187,0.436715,-0.009564,0.039273,0.239362,0.050063,9.542858,-14.445328,-5.219467,-108.08246,-0.18816765,0.420818,0.44723046,0.04320987,0.23615748,0.08538319
20231225 09:41:38,0.185836,0.269046,0.242195,-0.023582,0.210598,0.071370,9.903587,-14.509270,-5.479645,-111.36865,0.30032867,0.26706314,-0.056458116,0.04053772,0.208993,0.11828843
20231225 09:41:38,0.513869,-0.050282,0.428578,-0.068327,0.206336,0.059651,9.903973,-14.701164,-5.199173,-116.54378,0.652778,-0.049943805,-0.5512171,0.0076044984,0.2075132,0.15063897
20231225 09:41:38,0.682535,-0.349977,0.733474,-0.075785,0.231905,0.035148,10.300560,-14.385033,-5.483810,-117.34489,0.99502444,-0.3473818,-0.9398412,-0.018772751,0.23355287,0.18118538
20231225 09:41:38,0.658553,-0.739765,1.147846,-0.049151,0.248950,-0.009596,10.584980,-13.804008,-4.983032,-119.38917,1.2817701,-0.73760164,-1.3105774,-0.03986106,0.24910113,0.18864258
20231225 09:41:38,0.469680,-1.084810,1.411228,0.017966,0.263865,-0.063929,10.273281,-14.478203,-5.745941,-120.99936,1.3527861,-1.1097977,-1.5116239,-0.039216,0.26593754,0.1723976
20231225 09:41:38,0.073838,-1.356567,1.403093,0.123436,0.306479,-0.104412,9.788464,-14.610672,-5.608139,-122.79078,1.126333,-1.4492121,-1.4164201,-0.0068070367,0.322254,0.13982281
20231225 09:41:38,-0.396609,-1.470995,1.215468,0.236362,0.368269,-0.120393,9.885658,-14.699310,-5.467422,-122.17209,0.74490404,-1.6588674,-1.0764236,0.0377492,0.40953687,0.10365595
20231225 09:41:38,-0.830981,-1.536031,0.984931,0.314133,0.391707,-0.115066,10.088627,-14.589684,-5.472565,-119.11406,0.36573043,-1.8049072,-0.686579,0.07244578,0.45407966,0.055797465
20231225 09:41:38,-1.049428,-1.453687,0.573794,0.324786,0.366138,-0.088432,10.043419,-14.872894,-5.722473,-115.05146,0.01638487,-1.7159183,-0.26296556,0.07626653,0.43182495,0.0053932257
20231225 09:41:38,-1.090126,-1.323365,0.086392,0.259800,0.315002,-0.049014,10.204136,-14.680176,-5.063583,-110.94572,-0.31100953,-1.4915513,0.04357651,0.053251505,0.36185938,-0.0041869637
20231225 09:41:38,-0.938572,-1.186823,-0.219965,0.147939,0.258538,-0.011727,10.291595,-14.480049,-5.477692,-104.94938,-0.4622703,-1.2494885,0.08885789,0.02104332,0.27604175,0.034969352
20231225 09:41:38,-0.757442,-1.056267,-0.411396,0.014770,0.205271,0.011711,10.097977,-14.686554,-5.198196,-105.7038,-0.52803046,-1.0459726,0.08090635,-0.028247276,0.1970106,0.10228906
20231225 09:41:38,-0.698129,-0.923526,-0.420035,-0.120529,0.178637,0.017037,10.292366,-14.863831,-4.916763,-107.07092,-0.53217816,-0.9074299,0.11852278,-0.09720783,0.14858659,0.1949343
20231225 09:41:38,-0.781541,-0.645258,-0.159905,-0.237717,0.165853,0.022364,10.353317,-15.140663,-5.032043,-108.82022,-0.44849586,-0.7144473,0.29001552,-0.16217642,0.11485501,0.2800438
20231225 09:41:38,-0.911281,-0.404721,0.286537,-0.325076,0.152004,0.024495,10.486370,-14.849220,-4.915787,-111.05109,-0.26859355,-0.61465865,0.40748554,-0.21956778,0.08205804,0.3365566
20231225 09:41:38,-1.137053,-0.174857,0.749488,-0.363429,0.147742,0.028756,10.564865,-14.744125,-5.323776,-110.41356,-0.14271694,-0.5580252,0.5978745,-0.24646729,0.06432535,0.36098558
20231225 09:41:38,-1.310192,0.091612,1.118598,-0.350644,0.159461,0.044736,10.283016,-14.766960,-5.191101,-112.945625,-0.062069952,-0.42368987,0.766796,-0.2319408,0.07342537,0.35055086
20231225 09:41:38,-1.339926,0.310719,1.376371,-0.298442,0.194617,0.071370,10.352932,-14.948776,-5.312531,-113.786865,0.05098462,-0.25369817,0.8351094,-0.18610239,0.114701256,0.32330298
20231225 09:41:38,-1.230907,0.399056,1.483480,-0.214280,0.250016,0.102265,10.264702,-14.765106,-5.459351,-113.8193,0.18817759,-0.11790457,0.77192646,-0.11599466,0.18440022,0.2846789
20231225 09:41:38,-0.922886,0.304866,1.560041,-0.105614,0.310740,0.132095,10.325268,-14.850060,-5.855118,-114.122734,0.47864777,-0.07558985,0.45086193,-0.022444472,0.26833642,0.23150797
20231225 09:41:38,-0.480734,0.089911,1.463948,0.003051,0.338439,0.137422,10.342812,-14.468124,-6.147827,-111.61267,0.76535535,-0.13767773,0.06431696,0.063709065,0.31789097,0.17078726
20231225 09:41:38,-0.126998,-0.090050,0.996921,0.105325,0.358681,0.123572,10.388023,-14.184921,-5.897919,-109.008385,0.69753003,-0.20708781,-0.15897967,0.12293981,0.35113868,0.10605006
20231225 09:41:38,0.001422,-0.332107,0.400395,0.173507,0.390642,0.104396,10.421696,-14.554916,-6.275345,-106.61487,0.3503178,-0.3706607,-0.26443234,0.147208,0.39026263,0.07191696
20231225 09:41:38,0.149234,-0.519233,0.008725,0.205467,0.383184,0.080958,10.518887,-14.643555,-6.134628,-105.19076,0.14606427,-0.5054753,-0.4164206,0.14776507,0.38705233,0.038425393
20231225 09:41:38,0.235576,-0.645046,-0.432473,0.215055,0.348028,0.054324,10.378674,-14.088051,-6.172272,-99.59785,-0.16228145,-0.5804207,-0.507743,0.12830856,0.3543837,0.0051355283
20231225 09:41:38,0.235455,-0.686603,-0.889499,0.185226,0.297956,0.030887,10.775646,-13.963806,-6.176437,-93.7321,-0.53995264,-0.5445329,-0.5269082,0.08356783,0.30509898,-0.0049689854
20231225 09:41:38,0.186265,-0.732947,-1.207798,0.129828,0.240427,0.015972,9.928295,-14.974297,-5.850967,-98.053116,-0.8323229,-0.5425523,-0.4428419,0.046415605,0.24565838,0.0077517484
20231225 09:41:38,0.213926,-0.763831,-1.284342,0.062711,0.174376,0.001057,10.590992,-14.075294,-5.903046,-92.904915,-0.8755999,-0.5464084,-0.53518194,0.0068180664,0.17703158,0.033119805
20231225 09:41:38,0.167474,-0.687924,-1.232908,-0.005472,0.114716,-0.017054,10.395184,-15.031868,-5.976517,-96.16129,-0.85084856,-0.46930254,-0.42524636,-0.035069086,0.11497387,0.06377264
20231225 09:41:38,0.095326,-0.603601,-1.015413,-0.061935,0.063580,-0.028773,10.343197,-14.660019,-5.867355,-98.1973,-0.69887,-0.42431557,-0.3218237,-0.066903174,0.060872536,0.08812553
20231225 09:41:38,-0.026251,-0.499771,-0.609487,-0.100288,0.004985,-0.041557,10.483028,-15.023636,-6.110168,-100.9889,-0.42988408,-0.39538652,-0.18797453,-0.09074682,6.802236E-4,0.09025807
20231225 09:41:38,-0.104498,-0.377641,-0.236421,-0.108810,-0.061066,-0.053276,10.231949,-11.167961,-6.900223,-85.0276,-0.188871,-0.34400502,-0.14281785,-0.09549467,-0.06362028,0.051326036
20231225 09:41:38,-0.230716,-0.224398,-0.116229,-0.101353,-0.110072,-0.059668,10.529541,-11.705158,-7.398087,-83.19183,-0.1859003,-0.22722715,0.052658107,-0.08651164,-0.10952319,0.015981056
20231225 09:41:38,-0.296308,-0.057657,-0.050867,-0.089634,-0.127118,-0.056472,10.637615,-12.658226,-5.861115,-94.52864,-0.20095563,-0.08427481,0.21150124,-0.07412243,-0.12526655,0.0029035632
20231225 09:41:38,-0.360383,-0.085630,0.027108,-0.080046,-0.131379,-0.051145,10.386219,-15.126884,-5.970413,-104.70183,-0.17486694,-0.1348676,0.23912674,-0.06398977,-0.12938939,-0.0021597226
20231225 09:41:38,-0.343773,-0.106993,0.222763,-0.067262,-0.132444,-0.041557,10.616463,-14.924088,-5.713425,-107.434654,-0.017832577,-0.18194434,0.17103311,-0.052095108,-0.13131483,-0.015570506
20231225 09:41:38,-0.213287,-0.212864,0.447788,-0.043824,-0.155882,-0.047949,10.404148,-14.936844,-5.982635,-109.407745,0.24207242,-0.2942974,-0.050138347,-0.042811483,-0.15165766,-0.047133483
20231225 09:41:38,-0.134089,-0.384282,0.458793,-0.020386,-0.187843,-0.069256,10.379440,-14.471825,-5.611328,-109.64549,0.3218782,-0.45611644,-0.21756756,-0.04014639,-0.17762485,-0.080003336
20231225 09:41:38,-0.200590,-0.455850,0.344664,0.000921,-0.207019,-0.098020,10.528622,-14.932312,-5.579788,-109.41825,0.21307385,-0.52411044,-0.17693761,-0.04341624,-0.18788148,-0.10081316
20231225 09:41:38,-0.344346,-0.389503,0.155878,0.015835,-0.210215,-0.121458,10.679604,-14.450836,-5.475739,-104.56915,-0.010009117,-0.45826232,0.0257673,-0.04394856,-0.17804414,-0.11640893
20231225 09:41:38,-0.610550,-0.290415,-0.119816,0.022227,-0.208084,-0.125719,10.722626,-14.917702,-5.578812,-100.9016,-0.37484488,-0.3535722,0.3466713,-0.034032978,-0.163809,-0.12245667
20231225 09:41:38,-0.873608,-0.158229,-0.418558,0.010509,-0.208084,-0.115066,10.123070,-15.343468,-5.289047,-100.98203,-0.76527643,-0.19785982,0.68266666,-0.021778807,-0.15827991,-0.11050195
20231225 09:41:38,-1.043679,-0.051814,-0.717942,-0.019321,-0.208084,-0.101216,10.422844,-15.130577,-5.433929,-92.835464,-1.0968243,-0.028196558,0.87311125,-0.01845212,-0.1606883,-0.09217285
20231225 09:41:38,-1.200008,0.055879,-0.971193,-0.055543,-0.196365,-0.083105,10.687534,-15.681557,-4.993408,-93.646965,-1.3966762,0.13527232,1.0834123,-0.021316756,-0.15951544,-0.052700065
20231225 09:41:38,-1.261263,0.160568,-1.011725,-0.101353,-0.188908,-0.062864,10.537971,-15.029190,-5.305435,-89.9874,-1.4999692,0.22975214,1.1576405,-0.03350224,-0.17096548,-0.012924184
20231225 09:41:38,-1.185009,0.226799,-0.926724,-0.140771,-0.186777,-0.047949,10.731590,-14.822685,-5.584915,-89.152115,-1.4252212,0.2716847,1.1186109,-0.04934665,-0.18494526,0.020436674
20231225 09:41:38,-1.057225,0.263587,-0.772983,-0.164208,-0.175058,-0.039426,10.432579,-15.419334,-4.879105,-99.189255,-1.2564886,0.2759585,1.097699,-0.06631911,-0.18314649,0.048940152
20231225 09:41:38,-0.920027,0.325260,-0.525464,-0.166339,-0.162274,-0.038361,10.571640,-15.399185,-5.682861,-98.45954,-1.0083697,0.287555,0.9875846,-0.07982509,-0.17279549,0.05342419
20231225 09:41:38,-0.756219,0.314837,-0.270936,-0.145032,-0.153751,-0.043688,10.492764,-15.312393,-5.555328,-101.980896,-0.71350586,0.24612314,0.82995176,-0.081074685,-0.160381,0.0401534
20231225 09:41:38,-0.651521,0.291119,-0.139150,-0.107745,-0.133510,-0.052210,10.450123,-15.037415,-5.171783,-104.2531,-0.54549974,0.21226463,0.7155711,-0.07372115,-0.13366348,0.021948576
20231225 09:41:38,-0.614670,0.274796,-0.016284,-0.069392,-0.121791,-0.055406,10.616463,-14.924088,-5.713425,-101.85247,-0.42655087,0.17545214,0.6591053,-0.057585098,-0.11615019,-0.00556149
20231225 09:41:38,-0.649188,0.175200,-0.122660,-0.035301,-0.128183,-0.047949,10.195171,-14.775192,-5.057480,-104.18573,-0.50558996,0.095850825,0.64757377,-0.029478762,-0.11814654,-0.035013054
20231225 09:41:38,-0.586423,0.114653,-0.273953,-0.009733,-0.117530,-0.038361,10.644127,-15.022812,-5.170807,-102.2711,-0.5720364,0.08402288,0.5813931,-0.0104203485,-0.10641502,-0.05158253
20231225 09:41:38,-0.502503,0.114935,-0.475484,0.006247,-0.119660,-0.036230,10.710972,-13.669502,-7.535995,-82.26417,-0.68309,0.14507344,0.44948086,0.0011430793,-0.10612402,-0.07209363
20231225 09:41:38,-0.596182,0.171966,-0.718641,-0.001210,-0.127118,-0.024511,10.101467,-10.901215,-6.383057,-76.35395,-0.941452,0.24998584,0.5041823,0.010908207,-0.11571979,-0.067540035
20231225 09:41:38,-0.560097,0.117175,-0.785651,-0.037432,-0.162274,-0.007466,11.076729,-10.715668,-7.859146,-69.70608,-0.96598744,0.2092517,0.388724,0.009860603,-0.16019765,-0.050318863
20231225 09:41:38,-0.329019,0.256001,-0.638473,-0.076850,-0.210215,-0.007466,11.404552,-10.793400,-7.180954,-76.355415,-0.75017065,0.33048695,0.33073777,-0.007704108,-0.21266252,-0.04472825
20231225 09:41:38,-0.313581,0.415376,-0.466036,-0.090699,-0.238979,-0.020250,10.574364,-11.230064,-7.428650,-76.687904,-0.63160884,0.45525247,0.42451072,-0.019409303,-0.23995724,-0.052541077
20231225 09:41:38,-0.465814,0.345911,-0.278421,-0.108810,-0.260286,-0.025577,10.874146,-11.017185,-7.573532,-77.70804,-0.55200315,0.3291659,0.54184127,-0.0327046,-0.26258895,-0.05671357
20231225 09:41:38,-0.477987,0.571407,0.091333,-0.096026,-0.300769,-0.029838,12.156246,-10.461826,-6.525269,-82.42086,-0.30309778,0.48161379,0.72329605,-0.025208583,-0.30021098,-0.09454321
20231225 09:41:38,-0.493607,0.355116,0.120095,-0.043824,-0.277332,-0.042622,11.289047,-10.702911,-7.589920,-79.58528,-0.26081926,0.25904304,0.61741096,-0.009147046,-0.2683402,-0.12995973
20231225 09:41:38,-0.575503,0.296372,0.299674,0.029685,-0.233652,-0.056472,11.246906,-12.521225,-5.596054,-96.340996,-0.1687243,0.15066126,0.6170944,0.017808676,-0.21233958,-0.15955985
20231225 09:41:38,-0.714038,0.309975,0.442058,0.103194,-0.224064,-0.058602,10.478172,-15.328018,-4.348709,-111.98227,-0.15286148,0.09154587,0.6445496,0.064207636,-0.18720135,-0.19402207
20231225 09:41:38,-0.861619,0.355540,0.340951,0.159657,-0.236849,-0.056472,11.375973,-13.921829,-5.905258,-96.545364,-0.32452375,0.12172281,0.8811479,0.1040109,-0.18819079,-0.2639387
20231225 09:41:38,-1.012028,0.560436,0.172701,0.205467,-0.235783,-0.047949,10.751587,-11.981155,-6.574036,-82.63934,-0.58335596,0.3109094,1.1610761,0.13938993,-0.17586258,-0.30551556
20231225 09:41:38,-1.146099,0.791128,-0.099397,0.227840,-0.246437,-0.033034,10.717381,-15.030212,-4.097839,-102.25748,-0.9230047,0.56520337,1.3936396,0.16678225,-0.18152547,-0.3182396
20231225 09:41:38,-1.124081,1.063520,-0.310191,0.202271,-0.262417,-0.008531,10.866180,-15.298805,-4.346756,-99.04456,-1.1339269,0.8989913,1.5318682,0.17211147,-0.21078245,-0.3069027
20231225 09:41:38,-1.014330,1.308446,-0.274764,0.141546,-0.282658,0.028756,10.603680,-13.997742,-4.434296,-96.16017,-1.0756357,1.1674507,1.5558496,0.16722001,-0.25624678,-0.26799074
20231225 09:41:38,-0.770794,1.393428,-0.041466,0.073364,-0.301835,0.077762,11.096962,-11.676960,-6.188538,-84.00377,-0.7079632,1.2744236,1.3877963,0.16029802,-0.300192,-0.21754813
20231225 09:41:38,-0.396467,1.247212,0.327072,0.026489,-0.310358,0.122507,10.339108,-15.348175,-3.544968,-114.547134,-0.09790209,1.1656538,0.88627756,0.15160188,-0.31948262,-0.2079292
20231225 09:41:38,0.013945,1.113053,0.715178,-0.000145,-0.318880,0.140618,11.005123,-13.377235,-6.480377,-99.769035,0.5157523,1.0635322,0.55554706,0.1347646,-0.32702538,-0.19635981
20231225 09:41:38,0.247462,0.980426,1.043198,-0.008668,-0.325272,0.134226,10.206589,-12.220573,-5.759995,-103.48355,0.9446169,0.9474581,0.22980388,0.113970764,-0.33016008,-0.20229022
20231225 09:41:38,0.315998,0.841122,1.193420,0.017966,-0.314619,0.110788,10.911537,-11.404663,-6.476105,-97.723694,1.1010228,0.8011967,0.1628098,0.11130862,-0.31815934,-0.21438734
20231225 09:41:38,0.189275,0.700299,1.207890,0.085083,-0.260286,0.078827,10.787449,-11.601082,-6.598480,-97.37449,1.0155255,0.627898,0.1858854,0.1315718,-0.26012942,-0.23304866
20231225 09:41:38,-0.196424,0.527008,1.123810,0.186291,-0.179320,0.052194,10.650040,-14.290199,-3.342987,-116.66087,0.68838936,0.37266767,0.13335955,0.17691004,-0.16628358,-0.26006457
20231225 09:41:38,-0.591130,0.346029,0.948585,0.297087,-0.100484,0.037279,10.391094,-15.720024,-3.654144,-118.95729,0.30733836,0.10676181,0.36802557,0.22873259,-0.06610585,-0.29905444
20231225 09:41:38,-0.970402,0.207255,0.701834,0.395099,-0.046151,0.040475,10.224369,-15.641472,-3.392990,-117.99744,-0.09144372,-0.09409551,0.6827893,0.28012437,0.00865511,-0.35039413
20231225 09:41:38,-1.057422,-0.019847,0.281710,0.455824,-0.022714,0.057520,11.246254,-14.038857,-4.827133,-101.50708,-0.3953523,-0.2548429,0.81288743,0.316819,0.039463647,-0.38925824
20231225 09:41:38,-1.022844,-0.127213,-0.159401,0.470739,-0.026975,0.077762,10.869671,-11.513454,-5.531631,-87.03742,-0.6693989,-0.24320482,0.7728277,0.33111545,0.028708098,-0.40325546
20231225 09:41:38,-0.785053,-0.275044,-0.486685,0.441975,-0.056805,0.098004,10.755432,-13.900040,-3.769318,-103.038506,-0.7661501,-0.26930863,0.57984823,0.3273487,-0.020360615,-0.41521147
20231225 09:41:38,-0.347819,-0.381963,-0.742372,0.374858,-0.090896,0.102265,10.515064,-13.622192,-4.861603,-99.39199,-0.76245725,-0.31305027,0.16650207,0.29087582,-0.07498979,-0.37611273
20231225 09:41:38,0.098456,-0.498945,-0.891028,0.293891,-0.111137,0.089481,10.285587,-14.208778,-4.557663,-106.03295,-0.69065166,-0.45376626,-0.20404989,0.2323586,-0.1069683,-0.3198022
20231225 09:41:38,0.451057,-0.613264,-0.795063,0.217186,-0.098353,0.063913,10.508022,-14.676666,-3.453140,-115.20263,-0.44967535,-0.6326322,-0.49739096,0.1668433,-0.09961117,-0.24583328
20231225 09:41:38,0.703451,-0.635154,-0.425038,0.180964,-0.051478,0.031952,10.317623,-12.807343,-3.309128,-115.298416,0.035201907,-0.6623856,-0.80153835,0.12821332,-0.05429282,-0.18284121
20231225 09:41:38,0.649664,-0.923008,0.185935,0.177768,-0.013125,0.008514,10.102467,-15.087814,-3.162399,-125.581375,0.53213704,-0.93059236,-1.0457101,0.1183477,-0.016302712,-0.14786112
20231225 09:41:38,0.745044,-1.114689,0.810228,0.210794,-0.020583,-0.007466,10.614182,-14.670280,-3.318527,-125.46034,1.0633626,-1.1088705,-1.4739242,0.13427772,-0.027006522,-0.16541861
20231225 09:41:38,0.883693,-1.360415,1.041601,0.256604,-0.044021,-0.020250,10.395470,-14.219872,-2.948196,-127.488785,1.2873778,-1.3445807,-1.814855,0.15782508,-0.058188673,-0.2030743
20231225 09:41:38,1.077015,-1.464380,1.001202,0.300283,-0.053609,-0.042622,10.474232,-12.405251,-4.405579,-118.7087,1.3498914,-1.4554464,-1.9869087,0.16761476,-0.07763217,-0.23925234
20231225 09:41:38,1.181033,-1.536691,0.823449,0.332244,-0.036563,-0.070321,10.287891,-15.360107,-2.874832,-130.36745,1.272222,-1.5465839,-2.0167754,0.16664621,-0.066385396,-0.23566066
20231225 09:41:38,1.146804,-1.452222,0.799027,0.343963,-0.036563,-0.094824,10.438873,-14.878632,-2.770798,-128.38174,1.2421132,-1.4596344,-1.9369911,0.15113238,-0.066043034,-0.24020101
20231225 09:41:38,1.051921,-1.284529,0.667726,0.335440,-0.057870,-0.100151,11.123703,-15.002838,-3.827637,-122.61569,1.0901673,-1.2926167,-1.7265636,0.13071297,-0.08384589,-0.25659955
20231225 09:41:38,1.070699,-1.128346,0.499647,0.308806,-0.104745,-0.091628,10.317242,-12.615456,-3.589584,-118.58941,0.94166636,-1.1505021,-1.5983523,0.10631757,-0.13440603,-0.27419046
20231225 09:41:38,1.210376,-0.968481,0.185656,0.257669,-0.160143,-0.087367,10.649773,-15.999725,-2.293602,-128.3465,0.71816146,-1.0396245,-1.4930984,0.055684417,-0.19187921,-0.2524101
20231225 09:41:38,1.390056,-0.664804,-0.213943,0.175638,-0.189973,-0.093759,10.342449,-15.173767,-2.350571,-126.12365,0.44801468,-0.82778823,-1.3973138,-0.016218454,-0.21944946,-0.20099348
20231225 09:41:38,1.427636,-0.299861,-0.393021,0.068037,-0.214476,-0.106543,9.972755,-15.204834,-2.084282,-126.12403,0.344345,-0.48056766,-1.2362686,-0.088259816,-0.23322849,-0.11459945
20231225 09:41:38,1.230196,0.019778,-0.378032,-0.056608,-0.257090,-0.106543,10.710491,-12.473732,-5.068619,-105.66706,0.2867842,-0.117347665,-1.0087917,-0.15221804,-0.26375744,-0.059151188
20231225 09:41:38,1.064318,0.263848,-0.187308,-0.178058,-0.287985,-0.098020,10.017578,-14.729736,-2.114845,-122.97406,0.40934744,0.19406348,-0.7465483,-0.19915089,-0.28590605,0.055903174
20231225 09:41:39,0.911098,0.431752,0.297040,-0.252632,-0.301835,-0.087367,10.359993,-14.791840,-2.643265,-121.00814,0.7643004,0.41587612,-0.6493893,-0.22564211,-0.2973427,0.097118415
20231225 09:41:39,0.728010,0.444571,0.681886,-0.267547,-0.290116,-0.073517,10.444885,-15.149910,-3.690826,-119.2807,0.98770064,0.44918537,-0.56634855,-0.22129858,-0.28680372,0.095449865
20231225 09:41:39,0.564353,0.347459,0.972614,-0.222803,-0.262417,-0.073517,10.290462,-14.801918,-2.241394,-123.96973,1.1192738,0.34892392,-0.6064013,-0.19136998,-0.26218286,0.07598105
20231225 09:41:39,0.364821,0.197460,1.047651,-0.135444,-0.219803,-0.091628,10.330143,-15.443192,-3.538849,-120.65532,1.0543379,0.17758398,-0.5098188,-0.1485014,-0.21990198,0.024554644
20231225 09:41:39,0.110134,0.069237,0.874846,-0.027844,-0.167601,-0.117197,10.245636,-15.277016,-2.210831,-122.873535,0.7684884,0.020242061,-0.33257222,-0.10087688,-0.16116212,-0.022400122
20231225 09:41:39,-0.112823,-0.030722,0.546721,0.071233,-0.114333,-0.134242,10.536839,-15.351051,-2.069122,-120.611565,0.3862184,-0.087152526,-0.08006708,-0.059082348,-0.09701674,-0.0757021
20231225 09:41:39,-0.206868,-0.199888,0.122337,0.149004,-0.071720,-0.142765,10.297623,-15.648865,-2.320007,-118.77081,0.011658125,-0.2273591,0.0458102,-0.029149972,-0.04368092,-0.12172797
20231225 09:41:39,-0.303007,-0.388929,-0.285496,0.192683,-0.054674,-0.141700,10.555149,-15.352898,-1.800880,-116.79549,-0.3481757,-0.3713426,0.14418933,-0.0115778595,-0.02015605,-0.15640557
20231225 09:41:39,-0.226790,-0.540942,-0.703928,0.190552,-0.073850,-0.126785,10.854542,-14.948135,-2.226242,-110.900185,-0.6545873,-0.46588212,0.07555982,-0.008840032,-0.04511527,-0.17827941
20231225 09:41:39,0.033257,-0.648842,-1.227748,0.136220,-0.091961,-0.107608,10.422096,-15.644333,-1.917152,-113.74831,-1.0322943,-0.55475587,-0.074138954,-0.028412893,-0.07868855,-0.140131
20231225 09:41:39,0.345274,-0.755560,-1.507022,0.047796,-0.113268,-0.099086,10.518906,-15.541092,-2.056900,-114.65702,-1.2197287,-0.76512504,-0.3369771,-0.069848895,-0.11396371,-0.06951943
20231225 09:41:39,0.599947,-0.806929,-1.652557,-0.061935,-0.130314,-0.107608,10.747883,-12.861214,-3.971176,-102.38006,-1.2666914,-0.88758814,-0.7281718,-0.1291581,-0.13345924,0.011140465
20231225 09:41:39,0.667763,-0.680198,-1.484365,-0.166339,-0.135640,-0.121458,10.740570,-15.625198,-1.513313,-118.549774,-1.0447493,-0.7204709,-0.5475235,-0.18593791,-0.13645484,0.12155475
20231225 09:41:39,0.477983,-0.429072,-1.140773,-0.241979,-0.135640,-0.123589,10.758118,-15.243263,-1.806023,-117.114235,-0.76925087,-0.40691227,-0.3548341,-0.22163895,-0.1357328,0.18223178
20231225 09:41:39,0.348270,-0.184658,-0.674413,-0.280331,-0.137771,-0.108674,10.828419,-15.616966,-1.646957,-119.08835,-0.40440595,-0.15451229,-0.21899413,-0.2291033,-0.13946183,0.20938961
20231225 09:41:39,0.284454,0.060755,-0.369583,-0.293116,-0.130314,-0.092694,10.706783,-13.353783,-2.465744,-111.7994,-0.17533559,0.08351827,-0.14613765,-0.22344598,-0.13358568,0.20813856
20231225 09:41:39,0.226925,0.277354,-0.152273,-0.296312,-0.120726,-0.069256,10.661308,-15.346512,-1.666267,-119.86467,-0.025001049,0.29099086,-0.028918736,-0.20752542,-0.12593502,0.21636419
20231225 09:41:39,0.194173,0.378673,0.009537,-0.286723,-0.118595,-0.046884,10.811905,-14.673149,-1.842697,-117.91952,0.09301275,0.38319612,0.008807097,-0.18537074,-0.12441209,0.20010817
20231225 09:41:39,0.221889,0.438338,0.014221,-0.264351,-0.116464,-0.026642,10.961086,-15.133636,-1.811157,-118.45884,0.11096548,0.44238013,0.006543631,-0.15550378,-0.121300764,0.17954566
20231225 09:41:39,0.324898,0.403370,-0.134441,-0.245175,-0.087700,-0.010662,10.361145,-15.367508,-1.801857,-121.270134,0.047084488,0.40897352,-0.06216515,-0.13500974,-0.090052515,0.17339672
20231225 09:41:39,0.473538,0.205131,-0.123450,-0.233456,-0.061066,-0.005335,10.712910,-15.526482,-2.055923,-122.06523,0.15170479,0.19662574,-0.27345282,-0.1300104,-0.05821197,0.171593
20231225 09:41:39,0.601416,0.252778,-0.120614,-0.197234,-0.045086,-0.023446,10.582043,-15.067841,-1.819221,-121.11879,0.21307419,0.24883406,-0.36749995,-0.12330909,-0.04430117,0.15441298
20231225 09:41:39,0.339611,0.128287,-0.401099,-0.153555,-0.017387,-0.047949,10.749802,-13.820656,-2.568817,-112.32522,-0.17715698,0.15559655,-0.15387726,-0.11871141,-0.019329105,0.13316683
20231225 09:41:39,0.098598,0.143629,-0.519958,-0.138640,-0.004603,-0.058602,10.794361,-15.055084,-1.549995,-117.551476,-0.4070713,0.18208466,0.10089686,-0.12018819,-0.0061123525,0.1312585
20231225 09:41:39,0.062279,0.270249,-0.587050,-0.116268,-0.010995,-0.058602,10.510323,-15.827995,-1.770317,-116.76662,-0.5049894,0.32479963,0.19051278,-0.106332965,-0.011457857,0.10974129
20231225 09:41:39,-0.048317,0.240192,-0.924844,-0.116268,0.024162,-0.035165,10.502010,-14.405380,-2.533112,-109.796364,-0.85435444,0.32115176,0.29866654,-0.08821874,0.021504495,0.118768625
20231225 09:41:39,0.070617,0.241506,-0.819790,-0.132248,0.053992,-0.001074,10.403782,-15.642487,-2.185402,-117.127045,-0.6904415,0.28443,0.22758603,-0.068596564,0.05019746,0.13904166
20231225 09:41:39,0.304948,0.135892,-0.689962,-0.145032,0.060384,0.021299,10.527874,-15.446068,-2.063011,-118.89622,-0.4468657,0.14769508,-0.03793405,-0.05488968,0.058942653,0.14689034
20231225 09:41:39,0.460959,0.054901,-0.656771,-0.145032,0.078495,0.034083,10.730843,-15.336441,-2.068146,-119.593605,-0.33088538,0.046823006,-0.20791456,-0.04366816,0.07953091,0.15104124
20231225 09:41:39,0.523558,0.021756,-0.570801,-0.135444,0.098736,0.040475,10.916645,-15.800629,-1.500114,-122.417984,-0.21917799,0.014944509,-0.2815268,-0.03435416,0.099669755,0.14784487
20231225 09:41:39,0.555511,0.066991,-0.519888,-0.119464,0.105128,0.040475,10.491627,-15.634254,-2.319031,-120.63177,-0.15678865,0.056296285,-0.30864823,-0.025831316,0.10652435,0.13836403
20231225 09:41:39,0.530425,0.173409,-0.503654,-0.104549,0.107259,0.039410,10.800755,-15.518257,-2.189560,-118.95591,-0.16535226,0.17357832,-0.2567464,-0.019041345,0.10723791,0.1280226
20231225 09:41:39,0.450571,0.350419,-0.555466,-0.091765,0.111520,0.044736,10.782825,-15.708290,-2.177330,-118.82595,-0.25717378,0.35195833,-0.10360961,-0.0072360598,0.11133562,0.117514014
20231225 09:41:39,0.523625,0.495429,-0.587331,-0.094961,0.111520,0.045802,11.133053,-15.099701,-3.553284,-111.62884,-0.24957791,0.48737213,-0.12322988,-0.00577626,0.11241827,0.12535538
20231225 09:41:39,0.560782,0.647600,-0.547883,-0.108810,0.117912,0.041540,11.179684,-13.682640,-3.511337,-108.62168,-0.19508708,0.64022404,-0.09960078,-0.016442407,0.11878221,0.1431994
20231225 09:41:39,0.519710,0.778604,-0.358937,-0.112006,0.139219,0.041540,10.122967,-14.339577,-2.541183,-117.30906,-0.03667462,0.77433515,-0.0069292635,-0.020895656,0.13990363,0.14982104
20231225 09:41:39,0.520523,0.796800,-0.086561,-0.091765,0.153069,0.040475,10.217857,-13.276894,-4.083282,-109.28768,0.20351207,0.7959707,-0.028733809,-0.013889942,0.15326491,0.14723106
20231225 09:41:39,0.519777,0.734669,0.072556,-0.052347,0.169049,0.039410,11.011917,-14.929825,-2.761757,-117.46984,0.3426556,0.733969,-0.10570113,0.005531272,0.16924392,0.11501472
20231225 09:41:39,0.508362,0.648780,0.098705,0.003051,0.197813,0.033017,10.357807,-15.541916,-2.996246,-119.52487,0.3547437,0.65019387,-0.14702086,0.028154725,0.19761457,0.082018286
20231225 09:41:39,0.432178,0.557537,0.091413,0.066972,0.219120,0.024495,10.369343,-14.888710,-2.368912,-119.52358,0.30127394,0.5600512,-0.12832086,0.053525746,0.21934566,0.039387487
20231225 09:41:39,0.403336,0.496544,-0.147232,0.121305,0.236166,0.017037,10.703327,-11.626789,-4.989990,-98.02822,0.07064387,0.50607187,-0.079734094,0.0715175,0.2374694,0.01611288
20231225 09:41:39,0.366475,0.500005,-0.469674,0.149004,0.248950,0.014907,11.033943,-14.051620,-5.096359,-101.14243,-0.24395332,0.5210896,-0.03280045,0.07844439,0.25098017,-0.010869669
20231225 09:41:39,0.311196,0.535847,-0.737002,0.146873,0.255342,0.017037,10.739185,-11.246712,-5.014435,-91.795074,-0.53018725,0.5791043,-0.012869502,0.071425915,0.2579288,-0.0102892285
20231225 09:41:39,0.253670,0.689258,-0.889531,0.123436,0.262800,0.027691,10.931004,-11.982178,-5.366440,-89.75874,-0.72036296,0.7538943,0.085084505,0.0634788,0.2643899,0.009335605
20231225 09:41:39,0.200550,0.786005,-0.933452,0.101063,0.285172,0.046867,10.888748,-11.899086,-4.702438,-92.01379,-0.79853153,0.860168,0.18961394,0.06603332,0.28448936,0.037424177
20231225 09:41:39,0.158743,0.935849,-0.856668,0.058449,0.287303,0.072435,9.716644,-14.366951,-2.811386,-109.47376,-0.75811106,1.004405,0.3932358,0.06885086,0.28297707,0.0609169
20231225 09:41:39,0.186075,0.905829,-0.624403,-0.008668,0.246820,0.098004,10.508789,-15.060440,-2.892197,-110.89666,-0.5146926,0.9457909,0.3387839,0.06791554,0.24034266,0.09969641
20231225 09:41:39,0.383809,0.976443,-0.439587,-0.063000,0.213794,0.117180,10.588436,-15.531006,-2.458778,-116.16481,-0.21593876,0.98754066,0.18173043,0.068364665,0.21111898,0.12296087
20231225 09:41:39,0.563749,0.698573,-0.304289,-0.098157,0.221251,0.117180,10.640038,-15.710960,-2.848434,-117.98676,0.032492936,0.692923,-0.09664561,0.052543685,0.22278085,0.15609343
20231225 09:41:39,0.623355,0.611719,0.062909,-0.110941,0.242558,0.100134,10.403011,-15.258705,-2.746346,-119.772285,0.39096624,0.61106235,-0.25445956,0.024776421,0.24289022,0.18025145
20231225 09:41:39,0.461938,0.716108,0.430057,-0.114137,0.230839,0.082023,10.675514,-15.139000,-3.153366,-116.79589,0.58725435,0.71093756,-0.1405918,-0.0026839748,0.2249794,0.18834752
20231225 09:41:39,0.192336,0.925591,0.617650,-0.148228,0.175441,0.090546,10.306206,-15.361961,-2.606590,-119.84846,0.5756876,0.90042603,0.11323579,-0.014950417,0.1660555,0.18272199
20231225 09:41:39,0.253961,1.081571,0.696681,-0.195104,0.108324,0.104396,10.649155,-12.005013,-5.233780,-100.623245,0.6868108,1.0644354,0.30586836,-0.024485245,0.10098362,0.2107663
20231225 09:41:39,0.428848,0.965266,0.699601,-0.224933,0.088083,0.104396,10.624447,-11.539997,-4.862473,-102.98775,0.8110654,0.96170706,0.090358995,-0.04216163,0.08583445,0.2206905
20231225 09:41:39,0.487146,0.677142,0.892900,-0.215345,0.130697,0.089481,10.371410,-12.237221,-3.345810,-113.78949,0.99944615,0.6715092,-0.23423502,-0.058928587,0.12803584,0.22239655
20231225 09:41:39,0.369308,0.397990,1.273356,-0.163143,0.189291,0.058586,10.102467,-15.087814,-3.162399,-124.51814,1.2032026,0.36658102,-0.5354403,-0.064876296,0.18292119,0.20396337
20231225 09:41:39,0.021540,0.115534,1.627428,-0.081111,0.234035,0.030887,10.209007,-15.273315,-2.747322,-126.67821,1.2116492,-0.0109421015,-0.602334,-0.04949134,0.22464864,0.17328727
20231225 09:41:39,-0.452450,-0.144816,1.804225,0.028620,0.277715,0.031952,9.908463,-15.102417,-3.163376,-126.54124,1.0080932,-0.4065647,-0.48302588,0.009705,0.27342933,0.118543245
20231225 09:41:39,-0.763563,-0.418106,1.741579,0.147939,0.320329,0.066043,10.286739,-14.784439,-3.716248,-123.324,0.76780355,-0.73329747,-0.3483985,0.10731615,0.3248623,0.05254124
20231225 09:41:39,-0.768549,-0.687903,1.430879,0.254473,0.356550,0.099069,10.236938,-13.662514,-3.254105,-120.18074,0.60782194,-0.9722771,-0.32539308,0.1945456,0.36893997,-0.011988096
20231225 09:41:39,-0.606685,-1.067918,0.852288,0.332244,0.401295,0.122507,10.411594,-14.971794,-3.032928,-122.944664,0.36872816,-1.2351222,-0.44534603,0.2571028,0.417629,-0.07020061
20231225 09:41:39,-0.382388,-1.481804,0.264340,0.361008,0.434321,0.125703,10.278160,-15.071358,-3.429657,-121.15843,0.13676181,-1.5343351,-0.60710293,0.27343243,0.45029932,-0.08049956
20231225 09:41:39,-0.205063,-1.799814,-0.203413,0.336505,0.434321,0.109723,10.199661,-15.176445,-3.021667,-121.816124,-0.08180702,-1.7764039,-0.72801435,0.24585202,0.447762,-0.06844792
20231225 09:41:39,-0.067790,-1.952060,-0.470002,0.254473,0.402360,0.082023,10.153683,-15.075882,-3.832520,-118.3695,-0.19636801,-1.8878677,-0.86324584,0.17640966,0.41111925,-0.007655399
20231225 09:41:39,-0.052769,-1.940896,-0.538263,0.137285,0.346962,0.060717,10.235523,-14.796364,-3.046127,-119.6985,-0.2274016,-1.862104,-0.8297868,0.091432534,0.34853896,0.058222555
20231225 09:41:39,-0.154111,-1.834563,-0.351382,0.012639,0.300087,0.054324,10.155491,-14.133919,-3.760025,-116.354225,-0.12708136,-1.7789681,-0.81277645,0.010485638,0.29008442,0.14361879
20231225 09:41:39,-0.355286,-1.662154,0.016001,-0.089634,0.263865,0.054324,10.075191,-15.180984,-3.424530,-122.03853,0.03249047,-1.677231,-0.647446,-0.05728096,0.23895954,0.1945034
20231225 09:41:39,-0.608012,-1.375124,0.472354,-0.159947,0.238297,0.059651,10.693062,-14.757072,-3.446045,-119.09517,0.18307008,-1.5120789,-0.4855954,-0.102920726,0.19737011,0.2384033
20231225 09:41:39,-0.888286,-1.001792,0.797860,-0.205757,0.215924,0.072435,9.995926,-14.902298,-3.577484,-121.41168,0.18503869,-1.2764404,-0.17554352,-0.12601022,0.15876928,0.25121605
20231225 09:41:39,-1.165642,-0.595994,1.082989,-0.246240,0.197813,0.104396,9.668484,-15.016457,-3.975189,-121.794075,0.13138735,-1.0141505,0.15957123,-0.12937905,0.122619726,0.25939903
20231225 09:41:39,-1.209533,-0.354269,1.266061,-0.280331,0.176507,0.144879,9.754025,-13.856895,-5.791672,-111.08042,0.1868012,-0.8035886,0.3879508,-0.115439825,0.09261952,0.2847631
20231225 09:41:39,-1.095159,-0.212019,1.402896,-0.300573,0.179703,0.190689,10.070095,-11.682545,-4.322800,-107.99978,0.32689446,-0.62885904,0.3954414,-0.09354843,0.093016714,0.29894015
20231225 09:41:39,-0.907571,-0.155646,1.619591,-0.292050,0.204206,0.230107,10.460896,-14.000427,-5.105408,-115.11736,0.57200485,-0.50127196,0.10348809,-0.06158428,0.12945065,0.27359477
20231225 09:41:39,-0.549684,-0.265620,1.861536,-0.235587,0.223382,0.239695,10.224255,-13.740059,-4.722839,-117.85442,0.98722094,-0.5114625,-0.36050686,-0.013097107,0.17276159,0.22984415
20231225 09:41:39,-0.241855,-0.283165,1.776028,-0.155686,0.251081,0.221584,9.899384,-13.296028,-4.487106,-117.68677,1.1573372,-0.45327115,-0.55142003,0.03467475,0.2179308,0.1953811
20231225 09:41:39,-0.065078,-0.302849,1.540142,-0.063000,0.291564,0.198146,9.862103,-14.809952,-4.254700,-122.097664,1.127984,-0.4243689,-0.6632223,0.08346555,0.27045482,0.14106011
20231225 09:41:39,0.005464,-0.298724,1.185946,0.019031,0.325655,0.177905,9.722275,-14.446342,-4.011871,-120.34229,0.93285763,-0.39255926,-0.55346173,0.12166598,0.31074822,0.107935086
20231225 09:41:39,-0.004849,-0.334641,0.788929,0.076560,0.334178,0.169382,9.946396,-12.070854,-4.164703,-109.57986,0.6421798,-0.3994528,-0.35411856,0.15161178,0.3230592,0.09914143
20231225 09:41:39,0.038211,-0.389585,0.524348,0.108521,0.325655,0.165121,9.208641,-13.904427,-5.258102,-109.96344,0.47951874,-0.43252498,-0.35148713,0.1667118,0.31567362,0.05905389
20231225 09:41:39,0.080864,-0.530170,-0.280560,0.117043,0.316067,0.157663,9.315834,-12.572296,-5.611938,-99.895836,-0.13503551,-0.49438357,-0.33180854,0.16487595,0.30635202,0.061646298
20231225 09:41:39,0.083057,-0.565015,-0.607614,0.106390,0.309675,0.149140,10.303131,-13.826843,-4.850357,-103.96089,-0.39926708,-0.48904133,-0.28843635,0.14861465,0.2984805,0.0548367
20231225 09:41:39,0.111466,-0.785326,-0.727233,0.071233,0.276649,0.144879,9.624695,-14.165817,-4.433075,-109.68311,-0.465973,-0.70402294,-0.36609328,0.13302167,0.2655561,0.057568595
20231225 09:41:39,0.283649,-0.844996,-0.637356,0.028620,0.199944,0.132095,9.624695,-14.165817,-4.433075,-111.16895,-0.32574862,-0.7967387,-0.5446901,0.11442946,0.19314039,0.052835695
