Timestamp,linacce_x,linacce_y,linacce_z,gyro_x,gyro_y,gyro_z,X-magnetometer,Y-magnetometer,Z-magnetometer,Yaw, worldXAccel,worldYAccel,worldZAccel,worldXgyro,worldYgyro,worldZgyro
20231225 09:38:09,1.740931,-0.410172,-1.961748,-0.233456,-0.449918,-0.518833,-4.940235,-2.351059,-12.047745,3.5405447,-0.19147563,-1.2902151,-2.5964909,-0.62153924,-0.49337068,-0.17743964
20231225 09:38:09,1.682979,-0.114636,-2.054314,-0.417761,-0.444591,-0.563578,-4.666050,0.612026,-13.712128,-0.70053905,-0.29417574,-0.9851107,-2.6332316,-0.7812463,-0.4613409,-0.08347389
20231225 09:38:09,1.529563,0.167074,-1.844481,-0.563714,-0.344449,-0.600865,-5.169331,-3.129520,-11.463333,14.548855,-0.18790567,-0.5052612,-2.3685546,-0.8759756,-0.343094,0.064721674
20231225 09:38:09,1.262555,0.398537,-1.335376,-0.656399,-0.204888,-0.628564,-4.957401,-2.924873,-11.474579,22.11908,0.046640873,0.030832693,-1.8746762,-0.9282926,-0.19457242,0.09549409
20231225 09:38:09,0.814883,0.477659,-0.514535,-0.676641,-0.071720,-0.660524,-5.232853,-3.410881,-11.981476,34.396694,0.3138619,0.3678531,-1.0588377,-0.94660777,-0.06269781,0.06395802
20231225 09:38:09,0.269574,0.502404,0.167610,-0.643615,0.018835,-0.713792,-4.755703,-0.338169,-13.650986,27.595736,0.32305625,0.4995643,-0.23534147,-0.94918454,0.020102577,-0.09180722
20231225 09:38:09,-0.385163,0.701142,0.795829,-0.569041,0.051861,-0.747883,-5.136044,-3.307632,-12.121231,53.00387,0.14809874,0.641063,0.17096375,-0.90839446,0.052162357,-0.041757107
20231225 09:38:09,-1.212232,0.744635,1.172355,-0.434807,0.051861,-0.737229,-5.205578,-3.317711,-11.719360,61.68098,-0.35832238,0.48758647,0.63622224,-0.7861415,0.063926235,-0.061996907
20231225 09:38:09,-1.782956,0.569462,1.210143,-0.263286,0.059318,-0.691419,-4.959583,-3.674950,-11.827560,67.8214,-0.85114396,0.092167675,0.966393,-0.6106844,0.09703427,-0.107392535
20231225 09:38:09,-2.263717,0.412189,1.167931,-0.060870,0.084887,-0.600865,-4.914379,-3.391743,-11.577637,70.80736,-1.3096726,-0.2632401,1.2586272,-0.38649756,0.15633568,-0.1964931
20231225 09:38:09,-2.542225,0.028963,0.932655,0.158592,0.090213,-0.477284,-5.232853,-3.410881,-11.981476,72.918564,-1.6432681,-0.73228997,1.597636,-0.1316768,0.19989216,-0.27630308
20231225 09:38:09,-2.442415,-0.254999,0.514901,0.346093,0.075298,-0.351573,-5.119152,-4.443340,-11.645020,77.96785,-1.7113351,-0.89508414,1.6586585,0.087187454,0.20810185,-0.3150243
20231225 09:38:09,-2.129870,-0.486979,-0.013379,0.457955,0.017770,-0.240777,-5.207767,-4.067791,-12.072327,71.603065,-1.6715612,-0.90836376,1.6077517,0.2355195,0.14694807,-0.34112954
20231225 09:38:09,-1.552227,-0.555481,-0.463135,0.472870,-0.090896,-0.168333,-5.056400,-3.778202,-11.687805,64.078545,-1.4482436,-0.7175779,1.1800873,0.28454953,-0.0033509322,-0.28117374
20231225 09:38:09,-0.857743,-0.493970,-0.737762,0.403622,-0.264548,-0.168333,-5.031307,-4.435108,-11.778641,56.987934,-1.0997343,-0.5076682,0.56731254,0.21335542,-0.22509784,-0.16373956
20231225 09:38:09,-0.224549,-0.174840,-1.279772,0.272584,-0.390259,-0.240777,-4.828335,-4.325478,-11.783783,42.58273,-1.0669469,-0.17120117,-0.4200315,0.021958381,-0.38849837,-0.1326913
20231225 09:38:09,0.213015,0.448865,-1.705054,0.086148,-0.414762,-0.343050,-5.215961,-4.546589,-11.505264,39.000515,-1.146143,0.39805165,-1.2053323,-0.2160329,-0.42566118,-0.06916173
20231225 09:38:09,0.264080,1.069317,-1.887787,-0.131183,-0.340187,-0.455977,-5.021954,-4.531979,-11.504288,37.22339,-1.3129461,1.0416379,-1.5293465,-0.44478756,-0.34479314,0.006859392
20231225 09:38:09,-0.050379,1.557116,-1.789573,-0.355971,-0.156947,-0.553989,-5.182674,-4.724697,-12.163162,43.839653,-1.5236902,1.6539295,-1.4254363,-0.6452613,-0.14071065,0.09990503
20231225 09:38:09,-0.685084,1.890808,-1.097484,-0.533884,0.075298,-0.609387,-5.075748,-5.102093,-11.467606,57.20108,-1.4979523,1.9253311,-0.9369594,-0.81320226,0.09102882,0.13825864
20231225 09:38:09,-1.453352,2.085569,-0.182178,-0.630831,0.286237,-0.623237,-4.923077,-1.777241,-12.620926,50.730522,-1.5176101,1.8031958,-0.24138659,-0.9216514,0.27224085,-0.007544577
20231225 09:38:09,-2.331594,2.121551,1.049468,-0.627635,0.399164,-0.591277,-5.250782,-3.600922,-11.969254,68.53457,-1.5838066,1.2617185,0.24627006,-0.9197072,0.3458144,-0.057319418
20231225 09:38:09,-3.081982,1.825236,1.798057,-0.506185,0.414079,-0.492199,-4.953846,-5.655750,-11.698196,84.1981,-1.8692061,0.4839738,0.4945525,-0.76545334,0.3472431,-0.075012326
20231225 09:38:09,-3.476609,1.506717,2.020747,-0.308030,0.355485,-0.355835,-5.060001,-5.662132,-11.832809,86.54453,-2.1021025,-0.10012469,0.85435134,-0.5174126,0.31134492,-0.13252445
20231225 09:38:09,-3.602500,1.416624,1.633490,-0.098157,0.246820,-0.192836,-4.750874,-5.546120,-11.703339,84.705696,-2.332459,-0.22801483,1.1354935,-0.24256034,0.24097852,-0.15312989
20231225 09:38:09,-3.299091,1.298151,0.589764,0.076560,0.175441,-0.024511,-4.717587,-5.724232,-12.361237,80.07275,-2.5251842,0.020857394,1.2023821,-3.860481E-4,0.19061531,-0.18510818
20231225 09:38:09,-2.714472,1.202628,-0.473154,0.186291,0.150938,0.132095,-4.953457,-5.847641,-11.417725,79.24305,-2.5882933,0.4800335,0.9447928,0.17936057,0.15643214,-0.21786673
20231225 09:38:09,-2.100850,1.094444,-1.396304,0.238493,0.160526,0.255675,-4.672375,-5.441025,-12.111328,68.17242,-2.6671221,0.88560903,0.4852129,0.29814595,0.14265741,-0.21101254
20231225 09:38:09,-1.085649,0.671391,-2.168892,0.189487,0.175441,0.343034,-4.946033,-4.985069,-12.545731,54.53753,-2.4182096,0.8446805,-0.3635206,0.3511497,0.14457989,-0.10630335
20231225 09:38:09,-0.678670,0.514024,-2.282083,0.143677,0.154134,0.352622,-4.946033,-4.985069,-12.545731,50.19524,-2.2039373,0.6893452,-0.70749795,0.3411088,0.12830092,-0.037814513
20231225 09:38:09,0.042079,0.234120,-2.285297,0.035012,0.088083,0.332380,-5.237232,-4.911037,-12.687424,41.47494,-1.674357,0.25624475,-1.2788962,0.26984027,0.08520678,0.101359025
20231225 09:38:09,0.652036,0.093228,-2.250350,-0.092830,0.002855,0.263133,-4.432903,-3.433685,-12.909836,24.236992,-1.1947316,-0.08512295,-1.8995035,0.12927708,0.024618775,0.23043008
20231225 09:38:09,1.143894,-0.020268,-2.154249,-0.219607,-0.068524,0.158729,-4.805431,-5.732460,-12.227600,29.488935,-0.7384651,-0.3655494,-2.118939,-0.047085755,-0.028449178,0.27735868
20231225 09:38:09,1.368594,-0.060862,-2.042340,-0.347448,-0.097288,0.035148,-4.406658,-4.666260,-12.159256,22.986105,-0.44931686,-0.44991577,-2.2825356,-0.23390676,-0.051998403,0.29419598
20231225 09:38:09,1.321450,-0.055208,-1.627315,-0.457179,-0.097288,-0.091628,-4.945263,-5.368843,-11.984787,38.987072,-0.10025686,-0.29649425,-1.7981421,-0.40862206,-0.06404971,0.29789567
20231225 09:38:09,0.899327,-0.028939,-0.968325,-0.531754,-0.107941,-0.214143,-4.795048,-4.503590,-12.441681,44.613052,0.078088224,-0.0645491,-1.0881836,-0.54838794,-0.1004436,0.2789842
20231225 09:38:09,0.249565,0.172375,-0.309763,-0.550930,-0.130314,-0.307894,-4.477573,-0.297852,-15.258514,30.82772,3.284663E-4,0.19459923,-0.43287683,-0.61876965,-0.14433,0.18315767
20231225 09:38:09,-0.378601,0.333486,0.095970,-0.521100,-0.140967,-0.361161,-4.494350,-1.063557,-14.404861,40.707813,-0.2713391,0.2826885,0.11291322,-0.6202407,-0.1660081,0.16928533
20231225 09:38:09,-0.974317,0.579955,0.417177,-0.449722,-0.124987,-0.380338,-4.479374,-1.239815,-15.331009,44.852848,-0.6075618,0.36766717,0.48799926,-0.56889653,-0.14903094,0.12135911
20231225 09:38:09,-1.579179,0.802608,0.709096,-0.336795,-0.118595,-0.348377,-4.212650,-4.651649,-12.158279,70.03817,-0.9856709,0.35070384,0.5224631,-0.4533726,-0.1311518,0.19345014
20231225 09:38:09,-2.034036,0.955798,0.732100,-0.227064,-0.114333,-0.272737,-4.214687,-1.790798,-14.890488,52.6745,-1.3769362,0.31758758,0.96214926,-0.31836432,-0.114962906,0.07600883
20231225 09:38:09,-2.248717,1.078336,0.622497,-0.137575,-0.124987,-0.167268,-4.108913,-1.592529,-15.036346,51.97687,-1.6327662,0.37082237,0.98460865,-0.18305427,-0.12179637,0.079330735
20231225 09:38:09,-2.240834,1.081220,0.436504,-0.074719,-0.154817,-0.063929,-4.328548,-4.369274,-12.847733,67.71424,-1.7137651,0.4229059,0.71288216,-0.068100534,-0.15368994,0.13983637
20231225 09:38:09,-2.020876,0.983207,0.175399,-0.024648,-0.165470,0.021299,-3.815678,-4.527409,-12.162445,66.34685,-1.647614,0.48770154,0.59830576,0.021026459,-0.16810347,0.1410303
20231225 09:38:09,-1.622360,0.847821,0.008480,0.019031,-0.161209,0.077762,-4.539715,-4.957695,-12.275528,67.96479,-1.3848674,0.5385333,0.3943838,0.084529035,-0.16458707,0.1281478
20231225 09:38:09,-1.191265,0.620424,-0.176879,0.066972,-0.146294,0.103330,-4.133778,-4.738438,-12.285797,61.82042,-1.1098009,0.46431738,0.24685994,0.13183504,-0.14606059,0.09758416
20231225 09:38:09,-0.791863,0.451968,-0.378123,0.111717,-0.129248,0.091612,-4.354527,-1.427174,-14.647690,40.05189,-0.89171326,0.3940906,0.041571915,0.15519434,-0.12378239,0.04991087
20231225 09:38:09,-0.546712,0.354860,-0.550145,0.144743,-0.119660,0.060717,-3.930653,-1.017879,-14.670181,34.80967,-0.7964212,0.34346628,-0.15789913,0.15926272,-0.109928034,-7.143542E-4
20231225 09:38:09,-0.479013,0.377799,-0.784611,0.152200,-0.129248,0.019168,-4.032108,-4.330803,-14.186996,45.628517,-0.9025297,0.3936765,-0.30473512,0.1378909,-0.11563093,-0.019786533
20231225 09:38:09,-0.560590,0.544084,-1.042249,0.141546,-0.135640,-0.019185,-3.929890,-1.401657,-14.109238,36.10707,-1.1692994,0.58292085,-0.46247506,0.10363253,-0.11723042,-0.0500883
20231225 09:38:09,-0.778671,0.826103,-1.285740,0.108521,-0.117530,-0.044753,-4.108532,-1.784416,-14.755890,39.001232,-1.5521215,0.8780262,-0.52806926,0.061538745,-0.09502904,-0.048735954
20231225 09:38:09,-1.076677,1.112707,-1.313027,0.072299,-0.082373,-0.051145,-3.988529,-2.276161,-12.311111,46.908867,-1.8480148,1.12402,-0.43382967,0.02881255,-0.060119595,-0.033772293
20231225 09:38:09,-1.368582,1.341647,-1.198731,0.044600,-0.040824,-0.034099,-4.266293,-1.610840,-14.500839,44.96903,-2.0368302,1.2627274,-0.29783273,0.01584835,-0.024606653,-0.02826594
20231225 09:38:09,-1.679667,1.483375,-0.918635,0.033946,-0.020583,0.010645,-4.009296,-4.733910,-11.882935,62.2722,-2.1110053,1.2641374,-0.06814289,0.035483032,-0.014965223,-0.007197798
20231225 09:38:09,-1.771405,1.409891,-0.725568,0.042469,0.002855,0.067109,-4.370800,-4.286182,-12.183716,62.5378,-2.041959,1.1266432,0.037046894,0.074362844,-0.001276888,-0.007940568
20231225 09:38:09,-1.758993,1.206009,-0.369369,0.078691,0.022031,0.119311,-3.833996,-4.525558,-12.430695,61.34076,-1.7675018,0.8882266,0.20632702,0.13119861,0.0167692,-0.0224271
20231225 09:38:09,-1.549866,0.972836,-0.001961,0.139416,0.016704,0.142748,-4.065014,-4.344582,-13.248627,58.245632,-1.3375791,0.69476694,0.3275517,0.1938588,0.02035429,-0.040040113
20231225 09:38:09,-1.264116,0.868823,0.301342,0.220382,-0.008864,0.133160,-3.948734,-4.818848,-12.278702,61.37086,-0.90020525,0.6410725,0.30740705,0.25488576,0.0074064555,-0.081848636
20231225 09:38:09,-1.147565,0.964132,0.345742,0.307741,-0.022714,0.103330,-3.597736,-4.594044,-13.093719,54.10969,-0.77761376,0.75057137,0.28569734,0.30452347,0.008347878,-0.13527955
20231225 09:38:09,-1.166414,1.116861,0.192113,0.399361,-0.005668,0.079893,-4.203304,-4.748520,-11.883911,61.14461,-0.8983616,0.8945201,0.105910026,0.35225967,0.043701064,-0.23117654
20231225 09:38:09,-1.313395,1.327089,-0.082524,0.460086,0.048665,0.084154,-3.728718,-2.233994,-14.186890,42.74905,-1.2113307,1.0991551,0.19475453,0.38494587,0.10804019,-0.29321533
20231225 09:38:10,-1.401156,1.394289,-0.252767,0.479262,0.121108,0.117180,-3.826832,-5.372509,-12.509308,59.54068,-1.4039862,1.1685606,-0.01008939,0.4089089,0.17836957,-0.36092135
20231225 09:38:10,-1.375663,1.360028,-0.074738,0.464347,0.154134,0.167251,-3.879200,-4.808769,-12.680588,55.93581,-1.2514327,1.1304077,0.077868074,0.42994845,0.19805074,-0.340547
20231225 09:38:10,-1.187658,1.466277,0.194807,0.417472,0.104063,0.220519,-3.597355,-4.785934,-12.813248,51.840805,-0.919895,1.2740297,0.027386844,0.44390675,0.13005479,-0.23890704
20231225 09:38:10,-0.816932,1.167261,0.491642,0.363139,0.004985,0.252479,-3.465191,-2.209305,-14.587784,34.40279,-0.39418468,1.05566,0.33136615,0.43907687,0.017760023,-0.0763748
20231225 09:38:10,-0.311127,0.840127,0.721862,0.293891,-0.118595,0.263133,-3.875332,-1.215317,-13.584976,31.264477,0.18232623,0.80753475,0.3354969,0.39704207,-0.11546326,0.040771082
20231225 09:38:10,0.235563,0.607523,0.930257,0.238493,-0.221934,0.275917,-3.145672,-0.864422,-14.672394,18.813604,0.7525643,0.6169727,0.4097619,0.3523395,-0.22257926,0.12531349
20231225 09:38:10,0.835397,0.197751,1.197130,0.211859,-0.295443,0.259937,-3.245705,-3.043491,-14.397171,17.048334,1.3737342,0.19549301,0.42391425,0.3040319,-0.2967378,0.1566492
20231225 09:38:10,1.449663,-0.216401,1.239714,0.213990,-0.293312,0.202408,-3.875332,-1.215317,-13.584976,15.144439,1.8648329,-0.29633495,0.26701742,0.26428506,-0.30052742,0.1125332
20231225 09:38:10,1.630708,-0.441478,1.297591,0.257669,-0.224064,0.115049,-3.144405,-3.341499,-12.501129,15.731056,2.0218096,-0.55150735,0.3190279,0.26021752,-0.24699894,0.012185119
20231225 09:38:10,1.567260,-0.669520,1.332448,0.323721,-0.139902,-0.002139,-3.416904,-3.461208,-12.094101,27.540953,1.9848676,-0.7426118,0.44013703,0.2647222,-0.17320521,-0.11739546
20231225 09:38:10,0.960511,-0.481203,1.197066,0.389773,-0.078112,-0.110805,-3.135441,-3.246479,-12.507233,30.491596,1.4539535,-0.486188,0.5181763,0.25884795,-0.094861485,-0.2647013
20231225 09:38:10,0.160335,-0.233482,0.906052,0.446236,-0.039759,-0.175791,-3.425488,-3.748116,-11.807510,46.17314,0.67227453,-0.25398463,0.5462075,0.2567103,-0.016037539,-0.3393116
20231225 09:38:10,-0.541455,0.007473,0.561786,0.473935,-0.042955,-0.188575,-2.615147,-2.542046,-12.949951,36.56934,-0.0746972,-0.09605761,0.68726194,0.25639307,0.022634566,-0.3946978
20231225 09:38:10,-1.161090,0.124631,0.092970,0.466478,-0.085569,-0.160876,-3.303585,-4.301773,-12.038116,55.023907,-0.83718157,-0.07059686,0.7205561,0.26220042,0.0101198945,-0.32110777
20231225 09:38:10,-1.473955,0.188126,-0.483383,0.411080,-0.117530,-0.106543,-3.002651,-4.664558,-11.341568,57.699333,-1.4283578,-6.243959E-4,0.7015002,0.24947794,-0.022521237,-0.24969466
20231225 09:38:10,-1.511687,0.115069,-0.772795,0.331178,-0.121791,-0.042622,-2.942856,-4.365723,-12.298279,51.362133,-1.6361712,-0.019295149,0.6138773,0.2325709,-0.056875274,-0.17605002
20231225 09:38:10,-1.125110,-0.083194,-0.913669,0.255539,-0.084504,0.004253,-2.774208,-5.403728,-11.157089,54.059097,-1.4292367,-0.113687254,0.42423657,0.1988642,-0.054418772,-0.12238633
20231225 09:38:10,-0.563525,-0.308783,-0.960841,0.183095,0.020966,0.023429,-2.987297,-5.032707,-11.987244,41.773273,-1.048728,-0.2934744,0.0011231303,0.15029505,0.028579155,-0.120581925
20231225 09:38:10,0.043120,-0.559757,-0.610310,0.135154,0.158396,0.007449,-2.802258,-5.113121,-11.980164,38.7321,-0.3454696,-0.56254745,-0.12561142,0.11154979,0.1576982,-0.15685657
20231225 09:38:10,0.377047,-1.065600,-0.028477,0.138350,0.226578,-0.042622,-2.705063,-5.201763,-11.839432,44.15532,0.2765088,-1.0757772,0.38588524,0.09477041,0.22192037,-0.23358959
20231225 09:38:10,0.504703,-1.480094,0.237254,0.171376,0.231905,-0.107608,-2.511444,-4.995262,-12.118927,41.981403,0.52500075,-1.4898279,0.7152477,0.0916505,0.2245426,-0.2903228
20231225 09:38:10,0.528415,-1.675932,0.193830,0.200141,0.216990,-0.164072,-2.414249,-5.083900,-11.978210,42.610195,0.51932603,-1.6865469,0.7938938,0.08476216,0.20816118,-0.3332622
20231225 09:38:10,0.374681,-1.564808,-0.086786,0.222513,0.205271,-0.188575,-2.556267,-5.470360,-12.088364,47.132366,0.2693346,-1.5587087,0.6667852,0.06929799,0.2100586,-0.3561643
20231225 09:38:10,-0.110141,-1.235011,-0.401420,0.212925,0.236166,-0.163007,-2.449341,-5.847755,-11.392792,56.921482,-0.26698437,-1.2165542,0.71122825,0.055621788,0.2584805,-0.35714754
20231225 09:38:10,-0.469701,-0.835635,-0.347914,0.184160,0.237231,-0.076713,-2.477005,-5.749039,-11.935410,55.1911,-0.517606,-0.847603,0.67419076,0.07758823,0.2591467,-0.3013295
20231225 09:38:10,-0.560984,-0.595285,-0.330227,0.140481,0.190356,0.029821,-2.380192,-5.645790,-12.075150,49.32509,-0.59170854,-0.61681896,0.5441491,0.11076862,0.19966476,-0.18625179
20231225 09:38:10,-0.349162,-0.419287,-0.392214,0.082952,0.146677,0.140618,-1.815342,-6.175781,-11.499054,42.198177,-0.5032829,-0.41890022,0.22206675,0.14868715,0.1445725,-0.050091475
20231225 09:38:10,0.253459,-0.512308,-0.240425,0.022227,0.088083,0.220519,-2.027660,-6.188541,-11.768280,28.751493,0.030194953,-0.528616,-0.13180684,0.15857813,0.0938788,0.10333277
20231225 09:38:10,1.210933,-0.725165,0.033388,-0.035301,0.010312,0.246087,-1.973869,-5.618423,-11.804947,-4.022514,0.91512793,-0.88492554,-0.73463154,0.11676457,0.04160618,0.21888371
20231225 09:38:10,2.097646,-1.163004,0.446177,-0.080046,-0.056805,0.206669,-1.965290,-5.331512,-12.091537,-33.832886,1.8313757,-1.5325334,-1.3605965,0.031178735,-0.006521007,0.16112196
20231225 09:38:10,3.090279,-1.156854,1.022521,-0.092830,-0.171862,0.096938,-1.832619,-4.848183,-12.255737,-48.615665,2.9411607,-1.8042622,-1.7610011,-0.06234077,-0.11798223,-0.0075709783
20231225 09:38:10,3.413035,-0.989358,1.049011,-0.102418,-0.257090,-0.071387,-1.558968,-5.304142,-11.821335,-56.924404,3.2462392,-1.7213972,-2.01604,-0.16801035,-0.2254944,-0.16227336
20231225 09:38:10,3.038660,-0.890509,1.055760,-0.093895,-0.218738,-0.193902,-2.122665,-5.349819,-11.556030,-32.578625,2.9748406,-1.4048401,-1.2907637,-0.21194881,-0.21724235,-0.18635719
20231225 09:38:10,2.326907,-0.704618,1.374687,-0.049151,-0.154817,-0.242908,-1.673710,-5.597431,-11.669373,-15.414663,2.6182747,-0.9115199,-0.3113128,-0.1864994,-0.16874965,-0.20425619
20231225 09:38:10,1.422653,-0.427283,1.619795,0.025424,-0.133510,-0.255692,-2.130863,-5.828613,-10.988983,37.992344,2.066599,-0.4472242,0.46018475,-0.13011706,-0.14718653,-0.11267568
20231225 09:38:10,0.655493,0.010535,1.606704,0.121305,-0.133510,-0.214143,-2.027275,-6.380428,-11.487808,47.929783,1.4890418,0.011775994,0.46089476,-0.031834587,-0.13414451,-0.10833292
20231225 09:38:10,-0.034308,0.406741,1.408498,0.201206,-0.158013,-0.143830,-1.902805,-6.375896,-11.084961,52.168293,0.84659135,0.35264185,0.44235742,0.071107715,-0.14335652,-0.09873001
20231225 09:38:10,-0.476608,0.734284,1.110121,0.249147,-0.226195,-0.061799,-1.478935,-5.966599,-11.107452,43.12739,0.32498428,0.62388384,0.5463158,0.16096437,-0.20279932,-0.08247032
20231225 09:38:10,-0.578838,0.828226,0.640657,0.275780,-0.272005,0.007449,-1.646046,-5.696152,-11.126770,39.583107,-0.03848824,0.73120475,0.37601265,0.22437693,-0.24966465,-0.06157022
20231225 09:38:10,-0.677866,0.946530,0.087747,0.285368,-0.245371,0.061782,-1.709183,-6.169399,-11.364441,41.62107,-0.5001016,0.86929953,0.08882217,0.26627934,-0.22321568,-0.056939878
20231225 09:38:10,-0.761705,0.925019,-0.135225,0.307741,-0.133510,0.110788,-1.602642,-6.354904,-10.949371,43.47644,-0.7135931,0.8616953,0.028703153,0.306181,-0.114997715,-0.09885582
20231225 09:38:10,-0.725510,0.746027,-0.061545,0.351420,-0.030171,0.154467,-1.487900,-6.061619,-11.101349,40.400875,-0.6221468,0.6854908,0.1283125,0.3609318,-0.013273667,-0.14772376
20231225 09:38:10,-0.570358,0.377791,0.010441,0.392969,0.031619,0.184297,-1.372780,-5.960217,-10.972855,37.954136,-0.4338429,0.33976775,0.22254103,0.41136748,0.0455601,-0.17428961
20231225 09:38:10,-0.277519,-0.064210,0.082662,0.438779,0.050795,0.197081,-1.532726,-6.536716,-11.070770,38.414005,-0.1553169,-0.07022218,0.2604566,0.4602478,0.055431265,-0.19337824
20231225 09:38:10,0.387372,-0.577856,0.026687,0.492046,0.035881,0.218388,-1.570889,-5.765461,-12.729156,11.392433,0.28975606,-0.5939791,-0.14320743,0.5178149,0.021302417,-0.15993759
20231225 09:38:10,0.539020,-0.699142,-0.137989,0.520810,-0.015256,0.165121,-1.699833,-6.266266,-11.090088,23.986975,0.29563725,-0.72428805,-0.23085853,0.50216043,-0.030292515,-0.21982929
20231225 09:38:10,0.691970,-0.606245,-0.336780,0.530398,-0.098353,0.150206,-1.539120,-6.073547,-10.431213,9.085707,0.2312833,-0.67930156,-0.64664817,0.48166507,-0.12726194,-0.24411601
20231225 09:38:10,0.791485,-0.702747,-0.998119,0.513353,-0.118595,0.160859,-1.442692,-5.778408,-10.851425,-0.3506233,-0.22082597,-0.8660505,-1.2667557,0.46159017,-0.15019591,-0.25497776
20231225 09:38:10,1.030450,-0.560055,-1.322470,0.461151,-0.111137,0.174709,-1.584328,-6.356754,-10.681122,-7.6442804,-0.36999178,-0.87412494,-1.6896867,0.41781282,-0.14294446,-0.24037766
20231225 09:38:10,1.211625,-0.494642,-1.805150,0.375923,-0.074916,0.167251,-1.372009,-6.343994,-10.411896,-15.403719,-0.6824042,-0.99117124,-2.1224365,0.35001177,-0.098342076,-0.20171638
20231225 09:38:10,1.365232,-0.360096,-1.977623,0.247016,-0.024844,0.133160,-1.257267,-6.050713,-10.563873,-16.489014,-0.7406999,-0.93480027,-2.3059905,0.2490201,-0.03558073,-0.12045829
20231225 09:38:10,1.141953,-0.168721,-1.996166,0.115978,0.022031,0.099069,-1.390709,-6.150257,-10.960617,-7.790979,-0.89620525,-0.59403276,-2.1193047,0.15092805,0.023285843,-0.031207409
20231225 09:38:10,0.858012,-0.049994,-1.875285,-0.003341,0.072102,0.066043,-1.310024,-5.295078,-11.015640,-0.3541261,-0.9614432,-0.29328296,-1.8213239,0.05696471,0.07817243,0.043065213
20231225 09:38:10,0.496737,0.138590,-1.537813,-0.090699,0.134958,0.061782,-1.381744,-6.055237,-10.966736,8.734888,-0.87478817,0.049389213,-1.3553581,-0.0029004589,0.14092144,0.096032076
20231225 09:38:10,0.302786,0.126164,-1.055648,-0.122660,0.176507,0.086285,-1.275581,-6.048862,-10.832108,11.93686,-0.5813991,0.08842277,-0.9312631,-0.012403496,0.18193923,0.1233948
20231225 09:38:10,0.275119,-0.078240,-0.686206,-0.123725,0.194617,0.101200,-1.064034,-5.652325,-11.123840,9.638416,-0.30312473,-0.10099885,-0.65916705,-0.008762188,0.19979978,0.13561755
20231225 09:38:10,0.243019,-0.232194,-0.403397,-0.101353,0.204206,0.106526,-1.045719,-5.654175,-10.855591,13.039325,-0.10950543,-0.24194199,-0.41373524,0.004352875,0.2073217,0.111965194
20231225 09:38:10,0.167858,-0.296982,-0.049977,-0.050216,0.182899,0.112919,-1.029976,-6.214207,-11.220795,16.054794,0.0866679,-0.2990385,-0.0888998,0.041413743,0.18438645,0.07662802
20231225 09:38:10,0.140780,-0.267767,0.103380,0.027554,0.159461,0.121441,-1.039326,-6.117344,-11.495148,13.972173,0.17035998,-0.26826197,0.024078477,0.1049573,0.16048437,0.03904361
20231225 09:38:10,0.188533,-0.163054,-0.024961,0.110651,0.164788,0.134226,-1.012047,-6.024170,-11.233017,13.423785,0.11682513,-0.16562594,-0.12075815,0.17469433,0.16498612,-0.010028727
20231225 09:38:10,0.295316,-0.250535,-0.013690,0.167115,0.140285,0.138487,-0.967224,-5.549072,-11.263580,6.684285,0.19694628,-0.2607535,-0.19175841,0.22098126,0.13890615,-0.026894994
20231225 09:38:10,0.521196,-0.303059,-0.140007,0.203337,0.089148,0.127833,-0.994503,-5.642246,-11.525726,0.32856616,0.25697106,-0.3414786,-0.46344626,0.23964044,0.084144875,-0.051297754
20231225 09:38:10,0.717619,-0.152135,-0.304410,0.229970,0.040142,0.099069,-0.597530,-5.518005,-11.529877,-8.152626,0.2670495,-0.22817442,-0.7412397,0.23344773,0.030480836,-0.0939821
20231225 09:38:10,0.760123,-0.110854,-0.842042,0.240624,0.055057,0.062847,-0.239372,-6.140144,-12.423508,-13.492496,-0.15084901,-0.24984807,-1.1267383,0.20901781,0.04122725,-0.13469654
20231225 09:38:10,0.819117,0.181315,-1.210689,0.227840,0.147742,0.045802,-0.384678,-2.086201,-13.359436,-8.799915,-0.4300884,-0.018328793,-1.3623598,0.19095242,0.13241594,-0.13896896
20231225 09:38:10,0.612349,0.588079,-1.717600,0.228905,0.343766,0.015972,-0.032528,-2.437061,-13.333023,-7.011123,-0.96343434,0.433959,-1.4677647,0.1737273,0.33163482,-0.1488065
20231225 09:38:10,0.477515,0.793691,-0.897061,0.176703,0.398099,0.020233,-0.323730,-2.363033,-13.474716,-2.5716777,-0.36839324,0.73841643,-0.91012186,0.14290044,0.39239842,-0.11432106
20231225 09:38:10,0.311128,0.971713,-0.519726,0.130893,0.400230,0.020233,-0.152508,-2.842850,-11.700073,0.31257677,-0.20362073,0.9659034,-0.57113814,0.10065438,0.39957637,-0.090841055
20231225 09:38:10,-0.010083,1.424391,-0.251148,0.122370,0.399164,0.023429,-0.439384,-5.883476,-11.504456,9.358561,-0.24742222,1.4307836,-0.28815794,0.08170816,0.40109402,-0.1220545
20231225 09:38:10,-0.165928,1.497926,-0.118990,0.146873,0.426863,0.060717,-0.448349,-5.978497,-11.498337,11.3183975,-0.25440577,1.495445,-0.13184696,0.12364365,0.4286209,-0.12898488
20231225 09:38:10,-0.212600,1.495442,0.428384,0.175638,0.417275,0.098004,-0.281624,-6.057056,-11.759491,9.57854,0.1295929,1.4734043,0.2742348,0.17583151,0.41877922,-0.11345465
20231225 09:38:10,-0.117458,1.373253,0.895626,0.241689,0.373596,0.123572,-0.528114,-3.606514,-13.261612,11.605583,0.4889494,1.3221797,0.50550133,0.23971474,0.3782037,-0.13996387
20231225 09:38:10,-0.295389,1.336608,1.376668,0.375923,0.336309,0.157663,-0.097355,-5.753685,-12.313354,4.3681407,0.7569977,1.3103887,1.0995677,0.3702594,0.3394921,-0.17685261
20231225 09:38:10,0.336745,1.139139,1.267503,0.545313,0.402360,0.189624,-0.096970,-5.945576,-12.032867,-1.4051621,1.148569,1.1500952,0.67635477,0.52418435,0.39807215,-0.24515511
20231225 09:38:10,0.360320,0.735457,1.120144,0.664632,0.446040,0.172578,0.157600,-6.015907,-12.427658,-5.6516466,1.0571486,0.74760693,0.58762074,0.6001774,0.4378453,-0.3157699
20231225 09:38:10,0.640951,0.806414,1.189197,0.727488,0.409818,0.122507,0.651768,-5.980309,-12.291107,-19.712364,1.3412912,0.8357527,0.51518834,0.61936367,0.37507817,-0.34258378
20231225 09:38:10,1.200037,0.960753,1.122704,0.709377,0.283041,0.060717,0.421139,-5.991219,-12.828568,-25.231441,1.7383983,0.94880223,0.100105405,0.56109035,0.21137924,-0.397146
20231225 09:38:10,1.659858,0.873665,0.716820,0.631607,0.152004,-0.012793,-0.127205,-6.405045,-13.208923,-25.651121,1.7580783,0.7378681,-0.57693934,0.43003026,0.05905164,-0.44016537
20231225 09:38:10,1.903450,0.881937,0.097234,0.501634,0.081691,-0.099086,0.360569,-5.906281,-12.432800,-31.46576,1.4391153,0.5777963,-1.1389526,0.25631702,-0.017749067,-0.41647494
20231225 09:38:10,1.864963,0.761003,-0.308392,0.350355,0.088083,-0.187510,0.615906,-6.360386,-12.266647,-32.0815,1.0628955,0.4340237,-1.3648475,0.09171331,0.0058511384,-0.34338012
20231225 09:38:10,1.442177,0.402427,-0.262877,0.200141,0.133893,-0.270607,0.315746,-6.381378,-12.402237,-18.466724,0.7550134,0.26496938,-1.1891488,-0.067144215,0.09260557,-0.29077515
20231225 09:38:10,0.731088,0.130167,0.476040,0.120240,0.155200,-0.327070,0.455959,-6.936886,-12.364578,-9.035625,0.8661634,0.13113175,-0.090409875,-0.117104046,0.15632968,-0.3064799
20231225 09:38:10,-0.164663,0.111799,1.627827,0.169246,0.046534,-0.337724,0.774052,-6.725853,-12.241226,7.5482974,1.1218275,-0.04784789,1.154579,-0.15213168,0.08938033,-0.34886393
20231225 09:38:10,-0.841759,0.419779,-0.148120,0.277911,0.404491,-0.237581,0.640232,-6.633514,-12.918427,24.465872,-0.74444056,0.3078834,0.41024706,-0.047834806,0.47452432,-0.4643849
20231225 09:38:10,-1.257539,0.293264,1.080593,0.315198,0.364008,-0.152353,0.913502,-6.897587,-12.764496,25.859358,-0.20934057,-0.07388696,1.4824038,0.06673467,0.4275531,-0.4318708
20231225 09:38:10,-1.247715,-0.007408,0.808957,0.333309,0.237231,-0.069256,1.180374,-6.698486,-11.971008,25.156384,-0.30918664,-0.3638346,1.4065177,0.14305304,0.29938477,-0.35273954
20231225 09:38:10,-1.374514,0.061791,0.718952,0.373792,0.213794,0.028756,0.808109,-7.287743,-12.338165,32.325237,-0.49616775,-0.29168707,1.3751243,0.2496944,0.26592317,-0.32689273
20231225 09:38:10,-1.101357,-0.322387,0.766631,0.440909,0.173311,0.122507,0.756123,-6.915894,-12.228989,26.732641,-0.21907145,-0.58690506,1.3628585,0.37467942,0.21683842,-0.2851654
20231225 09:38:10,-0.699156,-0.858171,0.367137,0.489915,0.172245,0.187493,1.010307,-6.794338,-12.904251,10.6243105,-0.15356547,-0.95542777,0.86121505,0.46097583,0.20062001,-0.23787673
20231225 09:38:10,-0.177296,-1.070657,0.082366,0.533594,0.216990,0.218388,0.905300,-7.376385,-12.197449,1.2604244,-0.0048011467,-1.0819105,0.20059136,0.5172661,0.23390064,-0.22993746
20231225 09:38:10,0.163133,-1.395073,-0.289032,0.558098,0.280911,0.205604,1.283962,-7.250294,-12.469849,-10.12615,-0.049222186,-1.3789635,-0.48478132,0.5256163,0.29149818,-0.22782697
20231225 09:38:10,0.290715,-1.747644,-0.634220,0.525072,0.346962,0.178970,1.090340,-7.456791,-12.190353,-9.749127,-0.20695105,-1.7212508,-0.8481615,0.48344937,0.3556818,-0.2152203
20231225 09:38:10,0.387251,-1.864229,-0.601512,0.443040,0.355485,0.149140,1.205082,-7.163506,-12.342331,-14.846265,-0.14250726,-1.8539515,-1.0156162,0.411951,0.3583476,-0.15397839
20231225 09:38:10,0.516925,-1.943435,-0.558929,0.330113,0.310740,0.098004,1.353493,-7.240215,-12.871719,-16.632765,-0.022160113,-1.9358385,-1.134242,0.29920352,0.3123193,-0.10705412
20231225 09:38:10,0.414260,-1.797319,-0.403828,0.204402,0.202075,0.048998,1.838696,-7.299637,-12.729050,-17.215685,0.04593408,-1.7721957,-0.93232006,0.17026523,0.2062058,-0.07480628
20231225 09:38:10,0.179419,-1.442581,-0.347993,0.074430,0.101932,0.014907,1.955624,-6.256271,-12.528046,-8.614985,-0.039893985,-1.4016824,-0.5072055,0.053712748,0.10503859,-0.035462886
20231225 09:38:10,-0.136729,-0.961219,-0.302588,-0.041693,0.050795,-0.003204,1.883522,-6.824539,-12.759613,1.0338248,-0.20403907,-0.9282786,-0.08202204,-0.03547341,0.046400525,0.028951544
20231225 09:38:10,-0.467783,-0.502986,-0.043584,-0.126921,0.035881,-0.007466,1.671204,-6.837299,-13.028839,6.209903,-0.27184296,-0.5423023,0.36192498,-0.09300874,0.022068657,0.08887002
20231225 09:38:10,-0.530387,-0.139087,0.356899,-0.178058,0.045469,-0.026642,1.970978,-6.624420,-13.173721,2.237852,-0.06713244,-0.23875318,0.637572,-0.14265679,0.028872523,0.11529912
20231225 09:38:10,-0.590227,0.310673,0.666740,-0.232391,0.066776,-0.059668,1.917191,-7.194538,-13.137039,5.814923,0.060783476,0.14151295,0.8603314,-0.20652717,0.04570431,0.13117075
20231225 09:38:11,-0.863713,0.492659,1.002939,-0.280331,0.096605,-0.072452,1.643539,-6.738583,-13.571442,13.350957,0.06028986,0.1981573,1.2192359,-0.2569028,0.06523662,0.1438212
20231225 09:38:11,-1.177194,0.514656,1.368398,-0.310161,0.107259,-0.068191,1.440571,-6.848209,-13.566315,22.104994,0.012722492,0.062489957,1.5917053,-0.2849781,0.062322937,0.14519472
20231225 09:38:11,-1.478322,0.252872,1.739326,-0.255828,0.118978,-0.035165,1.776974,-6.639030,-13.174698,22.820255,0.014519572,-0.34837118,2.1088705,-0.23170102,0.07211021,0.11655713
20231225 09:38:11,-1.658572,0.096822,1.869071,-0.121595,0.162657,0.020233,1.713837,-7.112278,-13.412384,29.79758,-0.05147922,-0.59770626,2.27923,-0.10769068,0.12731713,0.034222525
20231225 09:38:11,-1.691613,-0.106739,1.816541,0.060580,0.203140,0.084154,2.128738,-6.798000,-13.428772,22.43501,-0.075834155,-0.7787746,2.4096286,0.062070195,0.19239143,-0.040206473
20231225 09:38:11,-1.437899,-0.419878,1.396002,0.238493,0.212728,0.128899,2.180725,-7.169849,-13.537949,17.150723,-0.054413557,-0.9062804,2.0468726,0.22317177,0.22746283,-0.11885164
20231225 09:38:11,-1.219074,-0.573161,1.050030,0.307741,0.209532,0.140618,1.988525,-6.242493,-13.466431,10.651188,-0.016646147,-0.91176647,1.6674058,0.2790143,0.22907543,-0.15272185
20231225 09:38:11,-0.798003,-0.744126,0.259130,0.416406,0.207402,0.147010,2.278687,-7.642265,-12.836273,2.5551896,-0.2109808,-0.8669445,0.79830784,0.34834903,0.2334787,-0.22959869
20231225 09:38:11,-0.314579,-0.857480,-0.800851,0.413210,0.230839,0.144879,2.463726,-7.722679,-12.829178,-2.5211494,-0.7020727,-0.76966524,-0.26059914,0.33376214,0.2506986,-0.23346153
20231225 09:38:11,-0.219349,-0.860075,-0.984106,0.380184,0.238297,0.131029,2.145252,-7.741814,-13.233017,-3.1328692,-0.82594514,-0.7621572,-0.42316213,0.30141634,0.25167045,-0.22463545
20231225 09:38:11,0.079472,-0.864182,-1.342825,0.318394,0.208467,0.102265,2.366535,-7.634033,-12.969925,-7.246987,-0.97764033,-0.7238381,-0.87231845,0.2422778,0.2179108,-0.19238476
20231225 09:38:11,0.153142,-0.778169,-1.594666,0.237428,0.162657,0.077762,2.675274,-7.326138,-13.120911,-8.7101,-1.1849549,-0.60691977,-1.0286273,0.17546609,0.16851887,-0.14740686
20231225 09:38:11,0.149045,-0.689167,-1.752550,0.123436,0.099801,0.053259,2.623291,-6.954288,-13.011734,-7.997501,-1.351516,-0.5011833,-1.0639684,0.09861015,0.10113325,-0.07205568
20231225 09:38:11,0.228609,-0.549822,-1.864954,-0.017190,0.013508,0.035148,2.411358,-7.158936,-13.000488,-7.0309987,-1.4415326,-0.35662246,-1.1532578,0.02045557,0.009144712,0.033098746
20231225 09:38:11,0.253683,-0.318151,-1.852758,-0.175927,-0.085569,0.021299,2.499203,-7.150711,-13.134109,-6.091946,-1.4387773,-0.101661384,-1.1478868,-0.059418086,-0.09792248,0.15891042
20231225 09:38:11,0.154266,-0.262269,-1.821681,-0.332533,-0.166536,0.021299,2.330673,-8.014111,-12.945465,-3.3935034,-1.4582896,-0.020583287,-1.0402293,-0.12512355,-0.19111553,0.29474843
20231225 09:38:11,-0.037804,0.057577,-1.491412,-0.458245,-0.177189,0.031952,2.366150,-7.442142,-13.250381,-2.3289456,-1.2680473,0.24706128,-0.77181685,-0.19797644,-0.21733817,0.39900428
20231225 09:38:11,-0.177790,0.024081,-0.901675,-0.509381,-0.167601,0.033017,2.614712,-7.241199,-12.725143,-6.054746,-0.8257086,0.11798733,-0.38763058,-0.255603,-0.21561423,0.418937
20231225 09:38:11,-0.292295,-0.042898,-0.248680,-0.495532,-0.120726,0.028756,2.410973,-6.967045,-13.280945,-3.7150402,-0.37122545,-0.04199295,0.06274426,-0.28265652,-0.17068046,0.3931217
20231225 09:38:11,-0.309801,-0.056206,0.469822,-0.429480,-0.090896,0.011711,2.596012,-7.047459,-13.273865,-8.241757,0.13426924,-0.1324943,0.5382851,-0.27547905,-0.13180071,0.31288645
20231225 09:38:11,-0.389241,-0.121697,1.039453,-0.384735,-0.088765,0.002122,2.322361,-6.591499,-13.708252,-4.427445,0.4545271,-0.26068404,1.0058132,-0.26459303,-0.1263993,0.2659632
20231225 09:38:11,-0.434660,-0.159633,1.424161,-0.215345,-0.121791,-0.008531,2.508167,-7.055691,-13.140228,-9.848089,0.66932416,-0.33356595,1.2979592,-0.15084633,-0.14105855,0.12682097
20231225 09:38:11,-0.422126,-0.152805,1.496938,-0.142901,-0.140967,-0.005335,2.765308,-6.567833,-12.901566,-12.969911,0.7299658,-0.33264738,1.3233486,-0.094064735,-0.15320885,0.07173862
20231225 09:38:11,-0.442451,-0.236259,1.257677,0.069103,-0.180385,-0.018119,2.656582,-7.132401,-13.669617,-7.854593,0.5832026,-0.40742484,1.1745832,0.05495449,-0.1695086,-0.078860395
20231225 09:38:11,-0.489501,-0.098382,0.914387,0.191618,-0.185712,-0.025577,2.728680,-6.564133,-13.438065,-4.8644385,0.33322895,-0.2627831,0.97510725,0.13531972,-0.15833233,-0.16781463
20231225 09:38:11,-0.629346,-0.044703,0.413575,0.284303,-0.178254,-0.024511,2.826260,-6.844658,-13.016876,-2.389155,-0.100354016,-0.18533012,0.7448201,0.1946775,-0.13481204,-0.23546945
20231225 09:38:11,-0.732669,-0.008229,-0.070081,0.336505,-0.160143,-0.010662,2.711521,-7.137951,-12.864883,2.0769434,-0.5110705,-0.0977663,0.5271607,0.2304996,-0.10753323,-0.26523486
20231225 09:38:11,-0.768829,0.006415,-0.369871,0.353551,-0.145229,0.010645,2.887211,-7.121490,-13.132156,2.0113962,-0.7555339,-0.034450963,0.3832081,0.25056174,-0.09345031,-0.27043757
20231225 09:38:11,-0.767322,-0.082532,-0.603353,0.350355,-0.142033,0.018103,2.542225,-7.617577,-13.237183,6.1557965,-0.9116187,-0.07327034,0.2656404,0.24958655,-0.091880344,-0.26196525
20231225 09:38:11,-0.773151,-0.180480,-0.877092,0.340767,-0.133510,0.020233,2.402779,-7.445843,-12.713898,8.194418,-1.1026652,-0.107589126,0.14018941,0.24131998,-0.08328892,-0.25473255
20231225 09:38:11,-0.768707,-0.339437,-1.107931,0.331178,-0.124987,0.019168,2.615864,-7.816864,-11.883728,5.441059,-1.2461344,-0.20645374,0.021953106,0.23027146,-0.07633404,-0.25458944
20231225 09:38:11,-0.748774,-0.369658,-1.208522,0.283238,-0.103680,0.017037,2.737381,-8.178635,-12.394791,4.0918646,-1.3136309,-0.21639514,-0.050106287,0.19509298,-0.06423101,-0.21969055
20231225 09:38:11,-0.699736,-0.349650,-1.218369,0.245951,-0.119660,0.017037,2.588581,-7.910034,-12.145874,4.2402987,-1.3008009,-0.18688038,-0.076370835,0.17424123,-0.0863985,-0.19043143
20231225 09:38:11,-0.640071,-0.219562,-1.384468,0.186291,-0.154817,0.010645,2.970196,-7.417645,-11.504349,-0.93155646,-1.4340259,-0.0098851025,-0.18616366,0.13865244,-0.12870945,-0.15412688
20231225 09:38:11,-0.627610,-0.049831,-1.548277,0.098933,-0.189973,0.005318,2.836761,-7.517197,-11.901093,1.003428,-1.6030715,0.19700024,-0.24253237,0.094077215,-0.1733796,-0.08092369
20231225 09:38:11,-0.619382,0.108412,-1.676017,0.047796,-0.210215,0.003188,2.774006,-8.182335,-11.858307,2.9331288,-1.7405933,0.4000286,-0.28155392,0.072784804,-0.19802706,-0.03486228
20231225 09:38:11,-0.684882,0.306781,-1.645267,-0.139705,-0.248567,0.009580,3.327587,-7.656010,-12.958923,1.8736475,-1.7873755,0.5862345,-0.2273376,-0.003745228,-0.26029262,0.13004552
20231225 09:38:11,-0.780506,0.390311,-1.402169,-0.253698,-0.246437,0.024495,3.030766,-7.502586,-11.900116,1.0423454,-1.6478505,0.5759479,-0.084379196,-0.060785554,-0.27795005,0.23052815
20231225 09:38:11,-0.869721,0.398596,-0.854472,-0.320815,-0.251763,0.031952,2.846111,-7.614067,-11.626724,0.04487251,-1.2561383,0.43543828,0.22392422,-0.10901706,-0.2944843,0.28146908
20231225 09:38:11,-0.933132,0.448521,-0.324260,-0.335729,-0.249633,0.028756,3.022182,-7.789494,-11.613525,-3.6036727,-0.8959669,0.36773327,0.5660353,-0.13498062,-0.2942988,0.27561665
20231225 09:38:11,-1.041220,0.514982,0.145152,-0.284593,-0.229391,0.024495,3.012451,-7.500736,-12.168365,-2.0236454,-0.63662285,0.32745686,0.91155934,-0.12034835,-0.26834926,0.23136602
20231225 09:38:11,-1.135303,0.505931,0.455766,-0.198300,-0.209149,0.014907,3.303650,-7.574768,-12.026657,-4.6667995,-0.4814715,0.23798634,1.1881747,-0.0786628,-0.23594502,0.15053064
20231225 09:38:11,-1.275146,0.625345,0.612502,-0.100288,-0.189973,0.008514,3.260628,-7.107899,-11.923599,-2.5606594,-0.4838486,0.28802276,1.3878978,-0.022312256,-0.20162335,0.07679855
20231225 09:38:11,-1.336563,0.817152,0.642840,0.009443,-0.171862,0.012776,3.181747,-7.021107,-11.796082,-1.4647764,-0.52108085,0.4550693,1.4550793,0.04887904,-0.16737744,-0.0020208731
20231225 09:38:11,-1.304008,0.896576,0.473453,0.105325,-0.149490,0.020233,2.994904,-7.882664,-11.875671,0.77360153,-0.6170296,0.57473797,1.3119247,0.10965668,-0.13256563,-0.06936332
20231225 09:38:11,-1.299049,1.044162,0.223322,0.194814,-0.096223,0.029821,3.269978,-7.204769,-11.649231,-1.5011169,-0.8191185,0.761383,1.1919235,0.15936616,-0.06903037,-0.14003508
20231225 09:38:11,-1.269669,0.941967,0.088612,0.276846,-0.031236,0.040475,3.304031,-7.766655,-11.746201,-1.4922531,-0.8867478,0.69358945,1.0855532,0.20331079,0.0044485796,-0.19826315
20231225 09:38:11,-1.263968,0.778176,0.015165,0.326917,-0.003537,0.054324,3.163815,-7.211147,-11.783844,-1.8820535,-0.89720196,0.56615406,1.0371877,0.23847567,0.03383267,-0.22954953
20231225 09:38:11,-1.071858,0.702860,0.036331,0.366335,-0.015256,0.062847,3.348476,-7.099670,-12.057220,-6.956241,-0.72993636,0.54485583,0.93316984,0.27013054,0.020749344,-0.2582078
20231225 09:38:11,-0.884133,0.651776,-0.035169,0.399361,-0.045086,0.053259,3.234119,-7.584846,-11.624771,-9.457842,-0.6456133,0.5442572,0.7616204,0.28174973,-0.007289944,-0.2987934
20231225 09:38:11,-0.802742,0.657899,-0.139281,0.405753,-0.085569,0.047932,3.322346,-7.768505,-11.477951,-11.412241,-0.6642371,0.5839018,0.66211,0.27910438,-0.049044747,-0.3196663
20231225 09:38:11,-0.689101,0.831660,-0.369511,0.348224,-0.152686,0.057520,3.153820,-8.631912,-11.289291,-13.757641,-0.7974969,0.80892885,0.48895583,0.25908783,-0.12694354,-0.2809014
20231225 09:38:11,-0.490320,1.039365,-0.367698,0.302414,-0.204888,0.070305,3.287254,-8.532364,-10.892548,-20.751348,-0.6764252,1.038409,0.43041536,0.23931281,-0.19123378,-0.2611657
20231225 09:38:11,-0.340375,1.164401,-0.460714,0.192683,-0.281593,0.103330,3.526466,-8.234543,-10.641663,-26.124226,-0.6628947,1.179875,0.34262916,0.21041645,-0.27928597,-0.18112051
20231225 09:38:11,-0.076404,1.364131,-0.363994,0.072299,-0.314619,0.136356,3.508923,-8.616474,-10.348984,-35.071827,-0.39619243,1.3738334,0.3199237,0.16463809,-0.3174942,-0.0978424
20231225 09:38:11,0.141893,1.460700,-0.050067,-0.058739,-0.367886,0.154467,3.615082,-8.610092,-10.214355,-45.210014,0.051783662,1.4591014,0.43534267,0.09244248,-0.36586383,-0.035226993
20231225 09:38:11,0.326085,1.608088,0.328869,-0.196169,-0.462702,0.151271,3.384449,-8.621002,-10.751831,-42.298164,0.4917298,1.610009,0.4674552,0.005652815,-0.45600274,0.051799744
20231225 09:38:11,0.573802,1.724715,0.522673,-0.363429,-0.499990,0.142748,3.323498,-8.344173,-10.636536,-47.581593,0.8527781,1.7273341,0.46629006,-0.1205236,-0.47662136,0.14023189
20231225 09:38:11,0.617060,1.616129,0.634094,-0.397520,-0.463768,0.133160,3.262547,-8.067341,-10.521240,-49.188625,0.9613497,1.621743,0.48600087,-0.15595338,-0.44010016,0.16040923
20231225 09:38:11,0.414879,0.917202,1.453534,-0.364494,-0.315684,0.078827,3.405334,-8.064663,-9.850128,-64.77035,1.3643762,0.93472254,0.6782161,-0.19457063,-0.30871597,0.096906155
20231225 09:38:11,0.272527,0.640026,1.717190,-0.311226,-0.262417,0.052194,3.677063,-7.561176,-10.818100,-56.796925,1.4173809,0.64202636,0.8392186,-0.18109828,-0.26192257,0.0883591
20231225 09:38:11,-0.123467,0.172274,2.119089,-0.155686,-0.166536,0.007449,3.325302,-7.402203,-10.564026,-56.10131,1.348189,0.09908426,1.0529033,-0.10335375,-0.17199856,0.008183467
20231225 09:38:11,-0.719927,-0.407986,2.194343,0.032881,-0.098353,-0.011727,3.449390,-7.205791,-10.441650,-54.360786,0.9159157,-0.6284009,1.187093,0.024443729,-0.09407058,-0.08707427
20231225 09:38:11,-0.866558,-0.840673,1.857963,0.297087,-0.086634,0.024495,3.686413,-7.658047,-10.543747,-60.591564,0.6291533,-1.0345893,0.70769024,0.2451365,-0.064277194,-0.24392892
20231225 09:38:11,-0.499558,-1.150450,1.164280,0.420668,-0.102615,0.053259,3.138844,-8.455650,-10.363159,-67.05495,0.47686777,-1.1977133,-0.091715485,0.34352928,-0.09148228,-0.34423977
20231225 09:38:11,0.022315,-1.437256,0.265765,0.482458,-0.068524,0.048998,3.669640,-8.423752,-9.690094,-73.527885,0.17690703,-1.4312487,-0.91130656,0.3655344,-0.077403165,-0.3861831
20231225 09:38:11,0.393203,-1.625567,-0.222725,0.483523,-0.012060,0.030887,3.520844,-8.155155,-9.441162,-74.7767,-0.0073500425,-1.6579984,-1.3888515,0.34844327,-0.039722808,-0.3589564
20231225 09:38:11,0.556188,-1.695482,-0.366090,0.473935,0.007116,0.022364,3.651325,-8.421902,-9.958344,-74.698875,-0.03870569,-1.7589763,-1.5788356,0.3366744,-0.02814598,-0.3412879
20231225 09:38:11,0.781195,-1.790710,-0.464833,0.424929,0.011378,-0.001074,3.457706,-8.628403,-9.678848,-79.399826,-0.016709,-1.9014055,-1.8179313,0.28571543,-0.031952463,-0.30760115
20231225 09:38:11,1.060751,-1.715673,-0.369345,0.306675,-0.041890,-0.008531,3.652473,-8.997566,-9.116928,-90.47611,0.20491126,-1.876404,-1.9403825,0.19555216,-0.08299913,-0.2539221
20231225 09:38:11,1.154209,-1.710628,-0.284969,0.262996,-0.071720,-0.008531,3.722393,-9.179375,-9.238327,-92.08438,0.3236382,-1.8793392,-2.00256,0.16224495,-0.1084969,-0.24111763
20231225 09:38:11,1.371800,-1.701395,-0.107391,0.175638,-0.133510,-0.018119,3.652092,-8.805679,-9.397400,-92.650345,0.5689066,-1.9082965,-2.1644938,0.08524303,-0.16358742,-0.21835156
20231225 09:38:11,1.618276,-1.534731,0.171770,0.056319,-0.203823,-0.040492,4.022552,-9.158382,-9.102753,-98.384674,0.96242595,-1.748466,-2.235983,-0.026915101,-0.21465793,-0.17741825
20231225 09:38:11,1.697999,-1.450740,0.295785,0.024358,-0.217672,-0.049014,3.773994,-9.359337,-9.627991,-96.068855,1.1170793,-1.6594872,-2.2441654,-0.05807776,-0.22366293,-0.16544506
20231225 09:38:11,1.682487,-1.210956,0.432071,-0.034236,-0.224064,-0.058602,3.926128,-9.453526,-8.682526,-100.94911,1.246299,-1.3843933,-2.0945847,-0.10506867,-0.22166795,-0.11946703
20231225 09:38:11,1.618635,-0.778473,0.703165,-0.080046,-0.213411,-0.060733,4.155224,-8.675060,-9.266953,-90.27884,1.4764377,-0.8929736,-1.7161076,-0.13336419,-0.2054446,-0.08716814
20231225 09:38:11,1.526972,-0.600004,0.801285,-0.115202,-0.207019,-0.071387,3.628151,-8.724438,-8.465149,-92.44285,1.5220472,-0.67200655,-1.5570197,-0.15887457,-0.19840488,-0.051454935
20231225 09:38:11,1.289637,-0.290215,0.895000,-0.133313,-0.205953,-0.079909,3.979919,-8.883408,-8.719208,-90.06415,1.4801779,-0.3183447,-1.156088,-0.17352925,-0.1980505,-0.03761089
20231225 09:38:11,0.941218,0.074673,1.016013,-0.138640,-0.205953,-0.078844,4.077496,-9.163933,-8.298019,-91.38221,1.3850598,0.09370987,-0.6808457,-0.16929781,-0.200483,-0.027924351
20231225 09:38:11,0.741242,0.312061,0.945240,-0.137575,-0.224064,-0.072452,3.749672,-9.086208,-8.976196,-80.6698,1.2215921,0.3365001,-0.27547127,-0.16109398,-0.21955897,-0.042966653
20231225 09:38:11,0.633791,0.343417,0.881815,-0.141836,-0.213411,-0.066060,3.749287,-8.894318,-9.256668,-77.345245,1.1076629,0.37070367,-0.14848179,-0.15896395,-0.20783632,-0.033679977
20231225 09:38:11,0.670396,0.448704,0.971714,-0.110941,-0.192104,-0.076713,3.749287,-8.894318,-9.256668,-77.01693,1.2073771,0.47917718,-0.09538548,-0.14493094,-0.18981731,-0.04563418
20231225 09:38:11,0.535610,0.225983,0.844733,-0.051282,-0.138836,-0.117197,4.004623,-9.348423,-9.090530,-83.185234,1.0010982,0.24764413,-0.1951355,-0.1301241,-0.14267282,-0.0598968
20231225 09:38:11,0.336085,-0.004343,0.887780,0.016901,-0.087700,-0.153418,3.846096,-8.791069,-9.396423,-75.70073,0.8879006,0.018981267,-0.110791355,-0.10746685,-0.09419671,-0.09374309
20231225 09:38:11,0.130666,-0.138360,0.821744,0.159657,-0.004603,-0.198163,4.509560,-8.275841,-8.887573,-73.532036,0.70567286,-0.14824946,-0.032083437,-0.04355149,1.4072075E-4,-0.15996787
20231225 09:38:11,-0.185482,-0.361353,0.663058,0.206533,0.024162,-0.194967,4.128716,-9.152008,-8.968124,-78.602394,0.3830132,-0.37703764,-0.00768885,-0.010843471,0.031350654,-0.16507575
20231225 09:38:11,-0.208778,-0.558167,0.512017,0.283238,0.047599,-0.172595,4.146645,-8.961971,-8.980362,-76.20462,0.25946444,-0.57119703,-0.11841176,0.05502239,0.05556577,-0.21024722
20231225 09:38:11,-0.146962,-0.823022,0.218602,0.326917,0.038011,-0.142765,4.199013,-9.525707,-8.809067,-81.77543,0.076022066,-0.8246438,-0.39337534,0.10181133,0.040012956,-0.23858269
20231225 09:38:11,0.066746,-0.993469,-0.178889,0.333309,0.008182,-0.111870,4.261765,-8.860569,-8.851868,-74.46178,-0.15839855,-1.0041418,-0.66492015,0.11491319,-0.013126381,-0.27784896
20231225 09:38:11,0.376234,-1.096398,-0.601715,0.306675,-0.021648,-0.091628,4.349998,-9.044231,-8.705032,-75.74296,-0.35037243,-1.1614625,-1.0173662,0.105268784,-0.046916038,-0.27345526
20231225 09:38:11,0.595955,-1.070173,-1.069250,0.243820,-0.031236,-0.078844,4.553730,-9.318375,-8.149216,-80.34553,-0.6870864,-1.2440696,-1.1791247,0.06593539,-0.061505828,-0.22748758
20231225 09:38:11,0.804486,-0.996661,-1.429038,0.142612,-0.029106,-0.080975,4.615452,-9.978985,-7.703568,-86.30777,-0.9315289,-1.2972581,-1.2566644,0.0029383749,-0.05665443,-0.13922691
20231225 09:38:11,0.848231,-0.857295,-1.538254,0.022227,-0.030171,-0.100151,4.418873,-10.551781,-8.337997,-81.06561,-0.9878813,-1.1527101,-1.2870749,-0.077494554,-0.04680693,-0.04245727
20231225 09:38:11,0.615809,-0.615537,-1.451472,-0.101353,-0.046151,-0.112935,4.200932,-10.485153,-7.406723,-80.15481,-0.98040247,-0.7321942,-0.9624648,-0.15135176,-0.049540527,0.054928243
20231225 09:38:11,0.350301,-0.300472,-1.336285,-0.259024,-0.056805,-0.105478,4.535149,-11.026047,-7.368088,-82.283485,-0.96877664,-0.3121161,-0.54567045,-0.22398013,-0.05642852,0.18604599
20231225 09:38:11,0.058498,0.003232,-1.045687,-0.295246,-0.050413,-0.095890,4.428993,-11.032425,-7.502686,-80.189095,-0.86267936,0.020486182,-0.1409632,-0.23461074,-0.051741716,0.21786611
20231225 09:38:11,-0.173849,0.312868,-0.682693,-0.338926,-0.028040,-0.068191,4.683563,-11.102757,-7.897476,-78.85107,-0.6808516,0.33609876,0.24076666,-0.23903085,-0.03416204,0.26342085
20231225 09:38:11,-0.279889,0.473168,-0.351975,-0.346383,0.000724,-0.036230,4.772175,-11.478306,-7.470169,-89.64587,-0.4725242,0.48080692,0.49516928,-0.22343558,-0.009610652,0.28764182
20231225 09:38:11,-0.357592,0.551942,-0.081799,-0.327207,0.044403,-0.004270,4.507874,-11.119217,-7.630203,-90.22135,-0.30279547,0.5417774,0.6116903,-0.19565827,0.032365106,0.2922592
20231225 09:38:11,-0.310864,0.554875,0.283077,-0.279266,0.066776,0.024495,4.031635,-10.964779,-7.779007,-95.40272,0.023578465,0.54221743,0.56581736,-0.15127893,0.061085295,0.26107204
20231225 09:38:12,-0.155451,0.459035,0.405085,-0.211084,0.078495,0.051128,4.728771,-10.819550,-7.647568,-95.56241,0.22113842,0.45226848,0.37735257,-0.08877958,0.075761236,0.21206555
20231225 09:38:12,0.053374,0.330708,0.348294,-0.136509,0.099801,0.072435,4.895496,-10.898113,-7.908737,-97.08801,0.3211957,0.3431021,0.13292912,-0.022506338,0.10714684,0.16307232
20231225 09:38:12,0.366816,0.174335,0.273579,-0.064066,0.125370,0.083089,4.771793,-11.286415,-7.750641,-102.09381,0.4512182,0.1730531,-0.2193483,0.033309378,0.13295463,0.11524559
20231225 09:38:12,0.663518,0.006968,0.180752,-0.004406,0.130697,0.079893,4.798302,-10.809467,-8.049454,-98.44524,0.5517119,-0.025418127,-0.53385377,0.07204228,0.13765301,0.07609276
20231225 09:38:12,0.907407,-0.191835,-0.015241,0.031816,0.117912,0.063913,4.358696,-10.658730,-7.661743,-101.14042,0.5186594,-0.28044665,-0.8312379,0.08435695,0.12137887,0.03802917
20231225 09:38:12,1.019620,-0.301187,-0.275208,0.046730,0.099801,0.039410,5.062607,-11.168560,-7.889420,-98.44452,0.33559054,-0.43690404,-0.97729206,0.07266444,0.09911611,0.016543442
20231225 09:38:12,0.972328,-0.264955,-0.552883,0.048861,0.090213,0.017037,4.753094,-11.092678,-8.299362,-92.553505,0.072525114,-0.42818594,-0.93501353,0.05395487,0.086665496,0.010997463
20231225 09:38:12,0.809608,-0.128517,-0.805839,0.045665,0.114716,0.001057,4.859638,-11.278191,-7.884277,-91.6456,-0.23888162,-0.27288452,-0.7350066,0.038383696,0.11059997,0.024600219
20231225 09:38:12,0.594991,-0.039835,-0.972583,0.023293,0.134958,-0.007466,4.913811,-10.899963,-7.640488,-87.077805,-0.5073208,-0.14060266,-0.55148315,0.016201332,0.13277234,0.051707737
20231225 09:38:12,0.360824,0.071859,-1.035960,-0.016125,0.146677,-0.000008,5.089886,-11.075390,-7.627274,-84.43671,-0.6912553,0.026969962,-0.32272425,-0.0032054053,0.14690065,0.090050526
20231225 09:38:12,0.189111,0.164140,-1.035417,-0.058739,0.148807,0.017037,4.807652,-10.906338,-7.775101,-80.638756,-0.77885103,0.14926994,-0.1642279,-0.014496335,0.14947823,0.1286537
20231225 09:38:12,0.128940,0.273036,-0.877965,-0.093895,0.157330,0.040475,5.283504,-10.868893,-7.906784,-81.95195,-0.6677713,0.25976503,-0.029682174,-0.014071815,0.15869056,0.16587034
20231225 09:38:12,0.270043,0.264404,-0.545227,-0.114137,0.152004,0.061782,5.168381,-10.970287,-8.035263,-85.440575,-0.29538324,0.24220979,-0.10243386,-0.007363897,0.1560888,0.18176092
20231225 09:38:12,0.398106,0.171892,-0.455849,-0.122660,0.137089,0.072435,5.089886,-11.075390,-7.627274,-94.265625,-0.13409364,0.12409012,-0.20919496,-0.0020603053,0.14684501,0.17571923
20231225 09:38:12,0.640915,0.128475,-0.361337,-0.115202,0.127501,0.063913,5.116398,-10.598442,-7.926086,-93.18879,0.096028715,0.03810056,-0.4346697,-0.0017177761,0.1422788,0.16571352
20231225 09:38:12,0.996234,0.110856,-0.309322,-0.097091,0.136023,0.031952,4.999084,-11.449913,-8.407562,-96.37034,0.35198104,-0.041171193,-0.7236351,-0.011397779,0.14869966,0.15573967
20231225 09:38:12,1.167971,0.216470,-0.246310,-0.075785,0.161592,-0.018119,5.529110,-11.034241,-8.295456,-95.58729,0.5215855,0.05575484,-0.804113,-0.035765678,0.16433151,0.15688436
20231225 09:38:12,1.024587,0.365955,-0.160153,-0.047020,0.194617,-0.068191,5.062607,-11.168560,-7.889420,-96.582085,0.50773025,0.26207557,-0.6116633,-0.06039246,0.1888565,0.1551939
20231225 09:38:12,0.796224,0.522735,-0.040588,-0.006537,0.229774,-0.095890,5.441265,-11.042469,-8.161819,-91.928986,0.46876246,0.47508734,-0.34365657,-0.06436544,0.22199936,0.14063172
20231225 09:38:12,0.479322,0.712496,0.039078,0.044600,0.274519,-0.106543,5.529491,-11.226128,-8.014984,-90.004425,0.32075468,0.70678973,0.017440105,-0.056418475,0.27189022,0.12133882
20231225 09:38:12,0.099486,0.888937,0.111004,0.108521,0.323525,-0.090563,5.175159,-11.625351,-8.394363,-85.56918,0.1239178,0.88733083,0.42982793,-0.020973917,0.32783192,0.09131382
20231225 09:38:12,-0.115665,0.891266,0.094861,0.175638,0.356550,-0.063929,5.545235,-11.786171,-8.380173,-82.99389,-0.03791494,0.87915593,0.59937453,0.025498822,0.36621398,0.049254693
20231225 09:38:12,-0.206399,0.849020,-0.057008,0.236362,0.385315,-0.035165,5.872292,-11.480122,-8.262939,-80.14302,-0.21487403,0.8415653,0.62825954,0.076837994,0.3962986,0.008989223
20231225 09:38:12,-0.173102,0.800956,-0.306468,0.289630,0.414079,-0.009596,5.466354,-11.699383,-8.252655,-78.96569,-0.3986618,0.8106278,0.53812194,0.12339126,0.4246964,-0.025693528
20231225 09:38:12,-0.097224,0.671290,-0.539292,0.321590,0.425798,0.008514,5.817738,-11.666462,-8.787201,-72.557304,-0.5437303,0.6945236,0.333548,0.15395334,0.43467525,-0.0599025
20231225 09:38:12,0.036847,0.707999,-0.774354,0.312002,0.401295,0.027691,5.817738,-11.666462,-8.787201,-70.641975,-0.6712151,0.7286873,0.17316818,0.16897917,0.40511915,-0.077056624
20231225 09:38:12,0.255603,0.803304,-0.933971,0.250212,0.367204,0.050063,6.214710,-11.542225,-8.791351,-72.91103,-0.6787842,0.78702223,0.017270789,0.17116733,0.36580458,-0.040250313
20231225 09:38:12,0.569917,0.981484,-0.819298,0.149004,0.286237,0.063913,6.306641,-10.845829,-11.247375,-60.658287,-0.36582673,0.9011492,-0.27404124,0.14801843,0.28401676,0.0078407535
20231225 09:38:12,0.884831,0.933572,-0.761439,0.032881,0.210598,0.057520,6.399128,-7.627922,-11.724457,-54.61715,-0.109808266,0.78679854,-0.6063652,0.088915884,0.2131291,0.073974
20231225 09:38:12,1.021538,0.985835,-0.579141,-0.075785,0.166918,0.031952,6.620026,-7.328259,-11.741821,-56.797436,0.15758461,0.837446,-0.6065128,0.006772589,0.17443536,0.14665616
20231225 09:38:12,1.040339,1.044188,-0.176441,-0.174862,0.109390,0.001057,6.138931,-7.478203,-10.129166,-61.645252,0.5086755,0.96534646,-0.41859582,-0.08482127,0.11867114,0.19936517
20231225 09:38:12,0.799572,1.132120,0.095350,-0.269678,0.048665,-0.012793,6.874451,-11.009518,-9.757370,-77.92652,0.583417,1.1068628,-0.036541253,-0.15823503,0.057342928,0.24900652
20231225 09:38:12,0.674151,1.093719,0.421144,-0.342122,0.015639,-0.014923,6.443954,-7.152824,-11.755020,-54.318806,0.7805641,1.0896071,0.12008016,-0.21229573,0.025058959,0.2792973
20231225 09:38:12,0.591124,0.925085,0.751063,-0.351710,0.025227,-0.034099,6.868206,-6.935421,-11.497040,-56.949818,0.97209346,0.9299561,0.2666976,-0.2435299,0.029526481,0.27823222
20231225 09:38:12,0.348779,0.735282,1.097478,-0.306965,0.071037,-0.060733,6.792015,-8.191853,-9.406219,-72.46762,1.0464354,0.7165954,0.3989789,-0.24601458,0.06647042,0.2664608
20231225 09:38:12,-0.022121,0.497344,1.349672,-0.223868,0.105128,-0.076713,6.391434,-10.200024,-9.547073,-82.75537,0.962337,0.41598153,0.45720398,-0.21197686,0.09768662,0.23020963
20231225 09:38:12,-0.370425,0.286009,1.328441,-0.135444,0.117912,-0.071387,6.612335,-9.900352,-9.564438,-79.68619,0.7010688,0.13160148,0.6232534,-0.15426597,0.11229686,0.16966991
20231225 09:38:12,-0.625037,0.053441,1.050982,-0.064066,0.112586,-0.044753,6.504757,-11.040588,-9.491074,-84.93919,0.3560683,-0.13205545,0.5644668,-0.088556886,0.10985485,0.11972296
20231225 09:38:12,-0.716879,-0.146641,0.628742,-0.021452,0.120043,0.002122,6.547390,-11.315563,-9.874619,-78.9807,0.02832824,-0.29982948,0.53167844,-0.02734007,0.1158589,0.092785776
20231225 09:38:12,-0.591660,-0.384489,0.191337,-0.012929,0.155200,0.058586,6.637806,-10.749149,-9.374802,-80.48595,-0.19531795,-0.45365483,0.22890554,0.019666739,0.14636885,0.11468157
20231225 09:38:12,-0.243632,-0.727021,0.085047,-0.029975,0.207402,0.092677,6.786217,-10.825855,-9.904205,-83.71374,-0.05752708,-0.7412108,-0.28653735,0.038651835,0.20047231,0.16502574
20231225 09:38:12,0.130638,-0.893546,0.221997,-0.025713,0.239362,0.090546,7.068985,-7.575867,-11.855164,-60.59821,0.2719307,-0.89542896,-0.5485748,0.043984186,0.23668784,0.18985882
20231225 09:38:12,0.248481,-1.372993,0.115192,-0.035301,0.255342,0.048998,7.217781,-7.844467,-12.104095,-63.96072,0.2859712,-1.3695682,-1.0038218,0.004829185,0.25339618,0.20045578
20231225 09:38:12,0.200604,-1.561056,0.232663,-0.028909,0.268126,0.006384,6.972946,-8.062893,-11.154465,-68.75985,0.37034804,-1.5597168,-1.1115049,-0.026987214,0.26621687,0.19886993
20231225 09:38:12,-0.060725,-1.577547,0.336923,0.017966,0.297956,-0.015989,7.120056,-11.174873,-10.146042,-94.13418,0.30820698,-1.5983168,-1.1020799,-0.020501956,0.29881516,0.20115939
20231225 09:38:12,-0.432907,-1.706762,0.263305,0.060580,0.336309,-0.009596,7.147484,-7.470768,-12.263153,-52.766823,0.06086515,-1.76386,-0.55917215,-6.57585E-4,0.33999947,0.14576024
20231225 09:38:12,-0.573652,-1.634619,0.300454,0.068037,0.338439,0.013841,7.517948,-7.823479,-11.968491,-57.00864,-0.0110512525,-1.7171932,-0.46939653,0.017879158,0.3401501,0.16222073
20231225 09:38:12,-0.637732,-1.557809,0.294210,0.035012,0.296891,0.039410,7.756775,-7.333771,-11.998077,-52.116035,-0.040195644,-1.653292,-0.28929204,0.012957914,0.29109558,0.15780094
20231225 09:38:12,-0.668364,-1.359411,0.270313,-0.026779,0.243623,0.078827,7.445457,-8.199860,-12.480545,-50.698208,-0.09286718,-1.459474,-0.13608855,0.003857255,0.22508955,0.18560871
20231225 09:38:12,-0.667050,-1.248487,0.324558,-0.109876,0.177572,0.107592,7.711182,-7.425091,-12.528473,-47.440998,-0.06213142,-1.3575319,-0.003927052,-0.02411589,0.14533234,0.22025976
20231225 09:38:12,-0.662322,-0.915402,0.429080,-0.195104,0.108324,0.127833,8.075253,-7.314632,-11.594254,-52.432766,-0.017659634,-1.0396329,0.17089927,-0.054802895,0.06518508,0.25444922
20231225 09:38:12,-0.669863,-0.633103,0.440339,-0.280331,0.068906,0.136356,7.544842,-7.538418,-11.986832,-47.855713,-0.04284987,-0.7665106,0.37894028,-0.09877942,0.01384677,0.30338445
20231225 09:38:12,-0.763497,-0.382206,0.578667,-0.364494,0.053992,0.138487,7.589664,-7.063320,-12.017395,-45.51336,-0.03844607,-0.5551145,0.65462494,-0.15195107,-0.013417169,0.3610092
20231225 09:38:12,-0.809566,-0.205902,0.767810,-0.429480,0.072102,0.133160,7.949627,-6.743496,-12.838516,-43.19899,0.02456814,-0.41557944,0.8769607,-0.20857719,-0.004166862,0.41342214
20231225 09:38:12,-0.915589,-0.026361,1.145898,-0.456114,0.105128,0.123572,7.841663,-7.691841,-13.045639,-46.954597,0.15735328,-0.31397837,1.1873643,-0.2496998,0.022293469,0.43746507
20231225 09:38:12,-1.056901,0.041486,1.541294,-0.434807,0.129631,0.118245,7.685169,-9.995335,-10.619339,-77.50263,0.28848886,-0.33553568,1.0051119,-0.24949193,0.045971278,0.41226238
20231225 09:38:12,-1.215304,0.128899,1.716023,-0.373017,0.163722,0.131029,6.765335,-11.382195,-10.805893,-88.437485,0.26043355,-0.33380508,0.9677466,-0.20610923,0.07951633,0.3788455
20231225 09:38:12,-1.355476,0.183114,1.771650,-0.279266,0.208467,0.165121,7.534573,-10.668705,-10.442902,-84.227615,0.18460155,-0.32143173,1.1973947,-0.12330523,0.13139991,0.3549217
20231225 09:38:12,-1.280109,0.108869,1.660686,-0.164208,0.251081,0.204539,7.540199,-10.748093,-11.643402,-76.12373,0.18009818,-0.33599794,1.2489592,-0.017601058,0.18980487,0.32510918
20231225 09:38:12,-1.037803,-0.056384,1.444558,-0.039563,0.279845,0.230107,7.692867,-7.423241,-12.796707,-48.311054,0.26778215,-0.38557634,1.3829641,0.09378412,0.23907058,0.28514373
20231225 09:38:12,-0.733930,-0.202592,0.937161,0.066972,0.305414,0.235434,7.840359,-10.727104,-11.507813,-72.80339,0.19043547,-0.39616585,0.59021103,0.17786413,0.28050563,0.19993739
20231225 09:38:12,-0.513084,-0.292452,0.359875,0.143677,0.330982,0.229042,7.313675,-10.968372,-10.425537,-76.09226,-0.035091877,-0.37932342,0.25790027,0.22820906,0.31567252,0.13833354
20231225 09:38:12,-0.345380,-0.343248,-0.160398,0.179899,0.355485,0.207735,7.595905,-11.137421,-10.277725,-74.33823,-0.30360168,-0.35295093,0.0323638,0.23429963,0.34524196,0.111561
20231225 09:38:12,-0.321116,-0.404933,-0.502704,0.178834,0.355485,0.185362,7.684521,-11.512966,-9.850418,-74.64602,-0.5382366,-0.36763716,-0.064794764,0.20937477,0.34496823,0.097240575
20231225 09:38:12,-0.393851,-0.367895,-0.753859,0.157527,0.341635,0.180036,7.763016,-11.407867,-10.258408,-67.47189,-0.7776451,-0.2959805,-0.058799908,0.18724434,0.32714358,0.102903396
20231225 09:38:12,-0.421961,-0.372564,-0.905843,0.126632,0.310740,0.188558,7.622417,-10.660473,-10.576538,-59.521164,-0.91448444,-0.2785325,-0.11616936,0.178969,0.2914385,0.1106554
20231225 09:38:12,-0.323904,-0.473118,-1.000513,0.079756,0.260669,0.200277,7.737926,-10.750961,-10.167572,-65.2592,-0.9275705,-0.36825645,-0.23847766,0.17301953,0.23894732,0.12453697
20231225 09:38:12,-0.244904,-0.465261,-0.943645,0.037142,0.188225,0.208800,7.454041,-7.912949,-12.767120,-41.173767,-0.84877634,-0.3753928,-0.39790994,0.16830154,0.16615191,0.13478144
20231225 09:38:12,-0.051242,-0.392952,-0.983519,0.005182,0.139219,0.202408,7.729111,-7.235054,-12.540695,-43.33614,-0.79441744,-0.30716604,-0.52510583,0.1552611,0.12089202,0.1355031
20231225 09:38:12,0.065995,-0.335332,-1.021352,-0.044889,0.112586,0.188558,8.390888,-9.563202,-10.774490,-63.205463,-0.77010834,-0.26368627,-0.4932805,0.119910285,0.097660646,0.14391245
20231225 09:38:12,0.160816,-0.195456,-0.635653,-0.105614,0.065710,0.166186,8.027973,-10.249325,-10.867279,-69.99407,-0.39608312,-0.1616,-0.37215948,0.06412002,0.05467371,0.15604046
20231225 09:38:12,0.247018,-0.159934,-0.140761,-0.137575,0.006051,0.129964,7.922195,-10.447598,-10.721420,-75.44597,0.054306984,-0.14707209,-0.31157908,0.012585707,-0.002918332,0.13070025
20231225 09:38:12,0.171912,-0.079924,0.154750,-0.133313,-0.041890,0.100134,8.320591,-9.189503,-10.933548,-70.60431,0.23263569,-0.080141574,-0.14633034,-0.00868056,-0.051240385,0.097329356
20231225 09:38:12,0.104080,-0.115553,0.438595,-0.091765,-0.046151,0.078827,8.178955,-9.767849,-10.763229,-74.95776,0.40262422,-0.13330673,-0.076453686,4.6417117E-4,-0.054369878,0.052732483
20231225 09:38:12,0.001959,-0.132509,0.594018,-0.025713,-0.054674,0.060717,8.185616,-8.521500,-12.452179,-61.8025,0.44547257,-0.16579767,0.10929457,0.030363886,-0.0593048,0.0057832543
20231225 09:38:12,-0.080037,-0.239479,0.639359,0.043534,-0.073850,0.041540,8.021194,-9.594273,-10.508194,-76.29358,0.4301225,-0.28390604,0.004023142,0.06462416,-0.073672496,-0.073940575
20231225 09:38:12,-0.118672,-0.297631,0.493624,0.102129,-0.096223,0.022364,7.878025,-9.405060,-11.459763,-67.29988,0.30896488,-0.339743,0.0324993,0.09161659,-0.090767995,-0.12955374
20231225 09:38:12,-0.197836,-0.294466,0.177894,0.143677,-0.117530,0.009580,8.036938,-10.154308,-10.873383,-70.16141,0.033774197,-0.32364136,0.011171687,0.11068459,-0.10656667,-0.17899548
20231225 09:38:12,-0.289135,-0.300534,-0.134425,0.160723,-0.137771,-0.000008,8.175232,-9.750370,-12.238083,-56.55665,-0.25337118,-0.30751047,0.025723066,0.113492094,-0.12379647,-0.19738777
20231225 09:38:12,-0.325549,-0.206880,-0.485755,0.158592,-0.147359,-0.013858,8.919376,-8.379971,-11.784256,-51.60368,-0.5539304,-0.17374635,-0.011433706,0.10093847,-0.12948233,-0.20127235
20231225 09:38:12,-0.432833,-0.093758,-0.843943,0.135154,-0.142033,-0.026642,7.811714,-7.339321,-11.193344,-42.40052,-0.9144927,-0.008216068,-0.030246288,0.07644268,-0.121329,-0.17673181
20231225 09:38:12,-0.564935,-0.024557,-1.074263,0.093606,-0.144163,-0.033034,7.712448,-9.902164,-10.357193,-49.772247,-1.181849,0.105223455,0.08233231,0.050749227,-0.123358145,-0.15029077
20231225 09:38:12,-0.720368,0.020983,-1.276443,0.038208,-0.150555,-0.040492,7.623569,-11.236137,-9.735123,-55.23437,-1.4337894,0.19049987,0.22107148,0.01923211,-0.13218336,-0.11156994
20231225 09:38:12,-0.846655,0.074711,-1.255397,-0.019321,-0.168666,-0.047949,8.196232,-11.095444,-10.006546,-53.419827,-1.4929631,0.22936255,0.33741522,-0.011848686,-0.15477861,-0.07282009
20231225 09:38:12,-0.908697,0.181907,-1.200522,-0.069392,-0.177189,-0.045818,8.038090,-10.729973,-10.031967,-51.372135,-1.5059667,0.3118597,0.42847267,-0.034989774,-0.17054792,-0.033275552
20231225 09:38:12,-0.980818,0.260735,-1.037207,-0.110941,-0.171862,-0.036230,8.116970,-10.816765,-10.159500,-52.80269,-1.4346521,0.33473843,0.5794475,-0.052863203,-0.17414129,0.003350377
20231225 09:38:12,-0.995725,0.288983,-0.716893,-0.133313,-0.163339,-0.021315,8.546848,-10.678745,-11.102036,-53.562008,-1.2032976,0.28018326,0.69429785,-0.062959656,-0.17314762,0.023795072
20231225 09:38:12,-0.856022,0.241437,-0.396117,-0.124791,-0.168666,-0.010662,7.985336,-9.974350,-10.483734,-58.891052,-0.8634951,0.19719791,0.6848698,-0.0567308,-0.17852327,0.009432822
20231225 09:38:12,-0.638793,0.157387,-0.225798,-0.099222,-0.165470,-0.012793,8.119156,-10.066689,-9.806534,-68.511986,-0.58682346,0.12143172,0.5445123,-0.049668863,-0.1714272,-0.018455716
20231225 09:38:12,-0.478536,0.100492,-0.146809,-0.063000,-0.153751,-0.033034,7.871365,-10.651413,-9.770828,-73.67322,-0.42123702,0.074201435,0.41017038,-0.047736928,-0.15405652,-0.047485482
20231225 09:38:12,-0.445467,0.046310,-0.103390,-0.023582,-0.155882,-0.059668,8.207767,-10.442234,-9.379227,-76.05029,-0.36184865,0.018666904,0.36167315,-0.043962453,-0.14989515,-0.084352225
20231225 09:38:12,-0.451197,0.013834,-0.152625,0.015835,-0.150555,-0.088432,7.155914,-10.794792,-10.170502,-70.09709,-0.399458,-0.00927354,0.33027765,-0.041895352,-0.13756582,-0.11869044
20231225 09:38:12,-0.554822,0.084266,-0.150781,0.057384,-0.149490,-0.110805,8.137352,-8.167130,-10.868134,-52.48982,-0.46913093,0.042608224,0.42331728,-0.029421654,-0.124588355,-0.15930451
20231225 09:38:12,-0.919879,0.262166,-0.205702,0.088279,-0.149490,-0.104412,8.385914,-7.966179,-10.342911,-50.345726,-0.7612944,0.1657124,0.7774082,-6.301999E-4,-0.114086114,-0.17981437
20231225 09:38:12,-1.055590,0.507106,-0.253563,0.112782,-0.152686,-0.074583,7.614605,-11.331158,-9.729019,-64.201256,-0.91561395,0.39514136,1.0580214,0.036631227,-0.11850678,-0.19101071
20231225 09:38:12,-0.942305,0.651940,-0.399945,0.119174,-0.153751,-0.055406,8.320705,-11.090912,-9.603683,-63.684296,-0.9778248,0.5881196,1.0065476,0.052038196,-0.124094956,-0.19038588
20231225 09:38:12,-0.842499,0.770060,-0.447886,0.109586,-0.155882,-0.053276,8.162945,-10.917332,-9.348648,-65.059105,-0.96890426,0.7314748,0.98305106,0.045465376,-0.13047427,-0.18281968
20231225 09:38:12,-0.793054,0.790462,-0.422344,0.107455,-0.147359,-0.060733,8.199188,-10.729141,-9.092636,-67.92784,-0.92000294,0.7543746,0.9786881,0.036132216,-0.12262208,-0.17913586
20231225 09:38:12,-0.708884,0.607400,-0.286561,0.126632,-0.133510,-0.073517,8.496395,-11.074451,-9.870956,-68.31504,-0.7350261,0.5630076,0.8430008,0.03587459,-0.10660474,-0.19135119
20231225 09:38:12,-0.735308,0.418683,-0.168397,0.162853,-0.110072,-0.086302,8.111343,-10.737370,-8.959000,-73.62241,-0.63924,0.35081568,0.80050945,0.047407,-0.0754917,-0.20825681
20231225 09:38:13,-0.854941,0.240132,-0.080938,0.199075,-0.090896,-0.086302,8.463108,-10.896343,-9.213058,-74.90627,-0.6301452,0.13858177,0.8021202,0.07159675,-0.04938336,-0.22460511
20231225 09:38:13,-0.894805,0.031431,0.075923,0.224644,-0.094092,-0.073517,8.764042,-11.259132,-8.516541,-83.487595,-0.5114071,-0.09800714,0.7197656,0.10085893,-0.05099705,-0.23857817
20231225 09:38:13,-0.914836,0.163317,0.203463,0.271519,-0.118595,-0.053276,8.268456,-12.428589,-8.445129,-88.59274,-0.43645674,0.008188814,0.8228321,0.14650305,-0.07217489,-0.28747594
20231225 09:38:13,-0.935024,0.159986,-0.073966,0.330113,-0.123922,-0.049014,7.837807,-12.182819,-8.063538,-86.014496,-0.6492415,0.038725443,0.84009784,0.18334489,-0.06530978,-0.34017593
20231225 09:38:13,-0.965146,0.230527,-0.294181,0.349289,-0.127118,-0.036230,8.207115,-11.959866,-8.610306,-75.94406,-0.8329771,0.15215857,0.87677175,0.19607635,-0.07084621,-0.36165679
20231225 09:38:13,-0.932454,0.665724,-0.438816,0.345028,-0.154817,-0.013858,8.101345,-12.158134,-8.464447,-71.4487,-0.9907472,0.6175074,1.0505118,0.20417234,-0.10513893,-0.37221912
20231225 09:38:13,-0.829322,0.909630,-0.653736,0.272584,-0.182516,0.029821,8.040394,-11.881302,-8.349136,-69.79955,-1.1399136,0.91626376,1.0348139,0.19916582,-0.15412243,-0.31655166
20231225 09:38:13,-0.572198,1.203720,-0.502419,0.133024,-0.241110,0.092677,8.471424,-12.318954,-8.450272,-77.477646,-0.8588114,1.2100573,1.0463665,0.17496124,-0.24022056,-0.2261712
20231225 09:38:13,-0.140501,1.307109,-0.107444,-0.022517,-0.329534,0.144879,8.191372,-11.399830,-8.245102,-82.893486,-0.21102124,1.3065844,0.8170545,0.120348535,-0.3346881,-0.14945894
20231225 09:38:13,0.245397,1.421583,0.305409,-0.164208,-0.405174,0.170447,8.465179,-8.244858,-10.189941,-68.093575,0.41319016,1.4234166,0.6210359,0.03902141,-0.40062082,-0.044680092
20231225 09:38:13,0.614738,1.531864,0.943019,-0.276070,-0.490401,0.169382,8.042847,-9.421703,-9.045563,-83.70809,1.2107549,1.5554868,0.50059307,-0.06268488,-0.46658033,-0.06591776
20231225 09:38:13,0.928709,1.557137,1.396605,-0.332533,-0.553257,0.124637,7.900948,-11.709572,-7.825867,-102.61866,1.7863641,1.5997323,0.042392597,-0.15624529,-0.51955944,-0.09842111
20231225 09:38:13,0.913495,1.498798,1.607245,-0.314423,-0.523427,0.048998,8.473610,-11.568882,-8.097290,-100.2994,1.9127637,1.5481756,0.04869336,-0.19533378,-0.502068,-0.08987127
20231225 09:38:13,0.613672,1.426948,1.801333,-0.244110,-0.408370,-0.027707,8.250790,-10.909103,-9.482285,-90.41962,1.7827494,1.4432425,0.45953646,-0.18581636,-0.40593255,-0.08201311
20231225 09:38:13,-0.076165,1.118528,2.037635,-0.125856,-0.261352,-0.080975,7.841682,-8.589371,-8.967911,-82.70927,1.3652084,1.0147942,0.99920744,-0.13278367,-0.26264942,-0.09490268
20231225 09:38:13,-0.721575,0.740990,2.477232,0.041404,-0.152686,-0.088432,8.793003,-8.322582,-9.511765,-80.87165,1.100158,0.45224953,1.3128102,-0.0168931,-0.13991404,-0.1481449
20231225 09:38:13,-1.177984,0.210217,2.740859,0.245951,-0.105811,-0.068191,9.081745,-10.856213,-8.673645,-101.25785,0.88899195,-0.21516062,0.5339638,0.15061207,-0.06855528,-0.23069559
20231225 09:38:13,-1.198156,-0.193401,2.582878,0.466478,-0.105811,-0.029838,8.661755,-7.672058,-9.555527,-79.1175,0.8248643,-0.5636841,1.0194461,0.33861905,-0.05229154,-0.39214733
20231225 09:38:13,-0.783965,-0.635292,1.761028,0.653979,-0.120726,-0.006400,8.279102,-9.490189,-9.708588,-86.68272,0.70118725,-0.7754477,0.1670619,0.4700346,-0.082866855,-0.543481
20231225 09:38:13,-0.078614,-1.006942,0.667774,0.754122,-0.109007,-0.020250,8.400520,-8.848080,-7.471802,-93.01802,0.43095753,-0.99633056,-0.63527983,0.48616713,-0.11880654,-0.63391155
20231225 09:38:13,0.522839,-1.212337,-0.172144,0.779690,-0.066393,-0.064995,8.386532,-11.960888,-7.402710,-105.8436,0.08294946,-1.2594142,-1.1112179,0.4349115,-0.13136798,-0.63453364
20231225 09:38:13,0.931143,-1.381332,-0.764996,0.744533,-0.016321,-0.126785,8.423542,-12.156471,-6.585754,-109.55906,-0.24783152,-1.5751021,-1.3723214,0.34486398,-0.118090615,-0.57922757
20231225 09:38:13,1.049603,-1.539351,-1.099409,0.653979,0.022031,-0.171529,8.603874,-8.930336,-7.196457,-95.41532,-0.49247998,-1.8037344,-1.6908141,0.25396758,-0.08072581,-0.5052102
20231225 09:38:13,1.005360,-1.678799,-1.070157,0.531464,0.026292,-0.182183,8.263210,-12.541077,-6.964157,-109.131256,-0.44561952,-1.8939768,-1.5488677,0.1832081,-0.050061584,-0.37098598
20231225 09:38:13,0.924909,-1.748337,-0.759253,0.408949,-0.030171,-0.156614,8.777882,-11.757252,-6.206375,-111.428734,-0.21301362,-1.9145179,-1.5705224,0.13534662,-0.0910112,-0.29821175
20231225 09:38:13,1.082153,-1.870408,-0.494906,0.289630,-0.128183,-0.118262,7.750347,-12.382942,-7.649445,-111.39182,0.052247405,-2.0498624,-1.8383253,0.08143517,-0.18168575,-0.26929072
20231225 09:38:13,1.395048,-1.904056,-0.386876,0.164984,-0.234718,-0.090563,8.123379,-12.177456,-6.721344,-116.207855,0.25704548,-2.1552608,-2.0618665,-0.0040771365,-0.27299365,-0.23646317
20231225 09:38:13,1.743219,-1.777589,-0.329942,0.043534,-0.307162,-0.098020,8.829479,-11.937218,-6.596024,-115.51106,0.48707262,-2.1093194,-2.2751796,-0.11278955,-0.32385677,-0.18558288
20231225 09:38:13,1.839173,-1.329034,-0.249661,-0.073654,-0.351906,-0.118262,8.281910,-12.734818,-6.415436,-117.53827,0.67269635,-1.6630449,-2.098342,-0.21343932,-0.35004783,-0.10468342
20231225 09:38:13,1.650335,-0.832323,-0.099724,-0.169535,-0.351906,-0.148092,8.230690,-12.746742,-5.745316,-117.75089,0.78097,-1.0640756,-1.7270832,-0.28267777,-0.34522834,-0.014616277
20231225 09:38:13,1.239832,-0.408194,0.181217,-0.248371,-0.339122,-0.167268,8.466564,-12.623344,-6.688828,-110.717674,0.85230136,-0.49840912,-1.2526929,-0.32412654,-0.331957,0.037878223
20231225 09:38:13,0.839217,0.055008,0.670571,-0.303769,-0.340187,-0.168333,8.336082,-12.356590,-6.171646,-110.95445,1.0478725,0.055433307,-0.7758001,-0.34285054,-0.33408412,0.0792339
20231225 09:38:13,0.546641,0.414515,1.035473,-0.325076,-0.352971,-0.158745,8.399220,-11.883339,-5.933975,-109.172745,1.1659217,0.4363127,-0.39735138,-0.33881113,-0.34898788,0.081074
20231225 09:38:13,0.327244,0.673375,1.166811,-0.308030,-0.345514,-0.141700,8.133114,-12.466225,-6.166504,-109.98687,1.1304592,0.68869686,-0.11237192,-0.3077368,-0.34371638,0.071125105
20231225 09:38:13,0.136429,0.751071,1.182628,-0.269678,-0.306096,-0.124654,8.938210,-11.372646,-5.827972,-106.03183,1.0146058,0.75759387,0.13953485,-0.26738256,-0.30553743,0.049104206
20231225 09:38:13,0.095524,0.558485,1.139732,-0.212149,-0.249633,-0.116131,8.318153,-12.546631,-6.159409,-110.974846,0.9458618,0.56346077,-0.0022093058,-0.22529924,-0.24936004,0.043204796
20231225 09:38:13,0.091182,0.360439,1.068514,-0.135444,-0.180385,-0.123589,8.415730,-12.827156,-5.738220,-113.974304,0.88015115,0.35734677,-0.13707909,-0.18100613,-0.18034786,0.031267207
20231225 09:38:13,-0.080311,0.112838,0.970542,-0.048085,-0.093027,-0.134242,8.584908,-10.446121,-6.695786,-99.510124,0.6851637,0.08294252,0.02960056,-0.13078888,-0.09027512,-0.00824095
20231225 09:38:13,-0.310037,-0.089241,1.014108,0.056319,-0.010995,-0.134242,9.403679,-12.564072,-5.745560,-111.049355,0.5624938,-0.1567172,-0.060992807,-0.06320602,-0.0013034805,-0.017436463
20231225 09:38:13,-0.456303,-0.332828,0.843732,0.161788,0.044403,-0.120393,8.855721,-13.169785,-5.845459,-113.56373,0.35923627,-0.41478735,-0.075332284,0.012213692,0.061735824,-0.06420618
20231225 09:38:13,-0.488175,-0.608108,0.543493,0.260865,0.082756,-0.093759,8.953304,-13.450317,-5.424255,-114.82083,0.14071062,-0.6666942,-0.12640025,0.09052785,0.10236525,-0.12655279
20231225 09:38:13,-0.312217,-0.868831,0.005179,0.322656,0.095540,-0.073517,8.337620,-13.124138,-5.049759,-114.779236,-0.14814526,-0.8787089,-0.23978473,0.13601959,0.110201545,-0.18230164
20231225 09:38:13,-0.085344,-1.012171,-0.561249,0.333309,0.090213,-0.061799,8.548130,-14.053345,-4.853027,-115.185104,-0.49433604,-1.0050592,-0.31902936,0.13959697,0.09430791,-0.21086122
20231225 09:38:13,0.163959,-1.164534,-1.104688,0.298153,0.095540,-0.058602,9.083782,-13.717064,-5.941437,-106.10907,-0.8633682,-1.1906118,-0.57907164,0.11494159,0.090006284,-0.191564
20231225 09:38:13,0.355175,-1.168067,-1.368254,0.227840,0.084887,-0.054341,8.990963,-12.128273,-5.376205,-102.94386,-1.051925,-1.2527783,-0.7328478,0.07551472,0.074178115,-0.14644042
20231225 09:38:13,0.480320,-1.104821,-1.623218,0.121305,0.062514,-0.051145,8.750336,-13.559944,-5.419128,-106.494064,-1.2584822,-1.2560319,-0.7133282,0.020827945,0.052341677,-0.06866335
20231225 09:38:13,0.545930,-0.908609,-1.597400,-0.009733,0.014574,-0.041557,8.188320,-10.762249,-6.411163,-92.83031,-1.2333148,-1.1104155,-0.8748541,-0.039274547,0.010453481,0.016471611
20231225 09:38:13,0.741687,-0.719797,-1.747431,-0.138640,0.015639,-0.022381,9.077003,-13.062004,-5.582336,-105.575966,-1.2515341,-1.0091405,-0.757628,-0.08420006,0.022936886,0.13155313
20231225 09:38:13,0.847577,-0.593728,-1.429124,-0.250502,0.006051,-0.018119,9.067654,-12.965141,-5.856705,-105.21304,-0.86834705,-0.82906574,-0.83175397,-0.14101385,0.022078581,0.22167695
20231225 09:38:13,0.782229,-0.383018,-1.211032,-0.344252,-0.014191,-0.009596,8.989162,-13.070236,-5.448715,-108.04801,-0.668489,-0.5712925,-0.66446704,-0.18732382,0.008460539,0.28950262
20231225 09:38:13,0.703530,-0.153268,-0.833317,-0.417761,-0.026975,-0.006400,8.847141,-13.456696,-5.558868,-109.48513,-0.3321189,-0.2563855,-0.52076775,-0.23263554,-0.005751008,0.33938736
20231225 09:38:13,0.597448,0.070092,-0.504719,-0.458245,-0.049347,0.004253,9.272816,-12.105427,-5.508865,-105.20431,-0.08511776,0.02251237,-0.38686526,-0.25271052,-0.03300324,0.3546649
20231225 09:38:13,0.432274,0.249681,-0.172476,-0.474225,-0.051478,0.021299,8.952919,-13.258423,-5.704727,-109.1492,0.11348942,0.23500161,-0.18733917,-0.2553397,-0.040668968,0.3571994
20231225 09:38:13,0.323385,0.450836,0.151283,-0.453983,-0.040824,0.046867,8.687195,-14.033188,-5.656799,-113.61612,0.3228002,0.44871292,-0.054707117,-0.2296751,-0.032064945,0.33442968
20231225 09:38:13,0.242301,0.547256,0.380894,-0.408173,-0.015256,0.067109,8.699501,-13.763763,-4.468521,-118.644264,0.45318884,0.5483978,-0.014238484,-0.19225205,-0.013069273,0.2984771
20231225 09:38:13,0.149339,0.575997,0.673969,-0.337860,0.010312,0.094808,9.111061,-13.623894,-5.679291,-113.895836,0.6222743,0.57746834,0.04068896,-0.13574684,0.011275533,0.24662745
20231225 09:38:13,0.182581,0.494889,0.891317,-0.233456,0.029489,0.111853,9.243729,-13.140572,-5.843506,-112.70388,0.8124927,0.5048531,-0.07027139,-0.060612686,0.033574823,0.1707421
20231225 09:38:13,0.254216,0.371731,0.782159,-0.116268,0.060384,0.113984,9.094936,-12.871964,-5.594574,-113.30117,0.7760532,0.3853128,-0.1771774,0.016606621,0.06533437,0.09680033
20231225 09:38:13,0.368258,0.213244,0.558224,-0.006537,0.092344,0.108657,8.767879,-13.178017,-5.711807,-114.17299,0.67363197,0.22292383,-0.30957693,0.08438216,0.09648811,0.029837796
20231225 09:38:13,0.427129,0.089767,0.249785,0.077626,0.111520,0.086285,8.937176,-12.698387,-5.339523,-112.06352,0.45966324,0.086764134,-0.34786084,0.12004811,0.112510815,-0.019442195
20231225 09:38:13,0.347805,0.074339,-0.209476,0.137285,0.129631,0.058586,8.661716,-13.184395,-5.846436,-107.53432,0.024281994,0.063877046,-0.21217029,0.12867908,0.12876493,-0.053894244
20231225 09:38:13,0.164119,0.206639,-0.694709,0.154331,0.160526,0.048998,8.944340,-13.545334,-5.418152,-104.93026,-0.5083127,0.21938153,0.059114203,0.12014213,0.1612396,-0.05654511
20231225 09:38:13,-0.114729,0.256874,-1.020228,0.133024,0.202075,0.069239,9.051266,-13.922737,-4.722595,-107.45785,-0.942651,0.2981945,0.38320166,0.11912403,0.20229784,-0.02490855
20231225 09:38:13,-0.115555,0.327668,-0.854480,0.107455,0.205271,0.103330,9.023602,-13.824013,-5.265182,-106.0273,-0.7957875,0.34622443,0.38714668,0.13939166,0.2043033,-0.0030499622
20231225 09:38:13,0.016745,0.325399,-0.915769,0.088279,0.165853,0.113984,8.926792,-13.927261,-5.125443,-105.85278,-0.7847898,0.32963908,0.2685522,0.14214736,0.16556333,-0.011788975
20231225 09:38:13,0.193935,0.126272,-1.339872,0.033946,0.147742,0.113984,9.032951,-13.920883,-4.990845,-106.27265,-1.07128,0.08576287,0.072743624,0.120148525,0.15032077,0.023918971
20231225 09:38:13,0.408397,0.306387,-1.243891,-0.019321,0.145611,0.108657,9.148457,-14.011368,-4.581863,-111.09517,-0.85055184,0.19692865,0.009784058,0.09506086,0.1538704,0.064812444
20231225 09:38:13,0.560324,0.290425,-1.173632,-0.057674,0.136023,0.098004,9.166000,-13.629440,-4.874557,-110.06092,-0.69844943,0.15816098,-0.141658,0.066770606,0.1468053,0.097380824
20231225 09:38:13,0.666594,0.155036,-1.073226,-0.107745,0.129631,0.103330,9.465012,-13.032784,-5.580383,-107.40311,-0.54182714,-0.018819086,-0.32445428,0.04629486,0.14811647,0.14031741
20231225 09:38:13,0.924695,0.147198,-0.833632,-0.155686,0.115782,0.101200,9.139107,-13.914497,-4.856216,-116.96021,-0.1561212,-0.07254299,-0.49386293,0.01529479,0.1445625,0.16161317
20231225 09:38:13,1.174719,0.065624,-0.543355,-0.191907,0.094475,0.076697,9.005287,-13.822159,-5.533432,-116.54785,0.24930853,-0.15725428,-0.7884593,-0.033367205,0.12684852,0.18595093
20231225 09:38:13,1.241104,-0.016400,-0.313474,-0.200430,0.075298,0.034083,9.217606,-13.809410,-5.264206,-118.199486,0.4841273,-0.19842806,-0.921023,-0.08047521,0.10098486,0.19127695
20231225 09:38:13,1.106633,0.083717,-0.055626,-0.178058,0.067841,-0.008531,9.084167,-13.908951,-5.660950,-116.97333,0.631986,-0.0261863,-0.8240038,-0.10552395,0.08242036,0.18094048
20231225 09:38:13,0.967980,0.229568,0.086910,-0.124791,0.057188,-0.036230,9.351040,-13.709854,-4.867462,-117.294426,0.66310656,0.16834228,-0.6844149,-0.09721521,0.062063556,0.14053473
20231225 09:38:13,0.742686,0.426841,-0.120389,-0.072588,0.057188,-0.050080,9.244499,-13.524345,-5.282547,-112.51248,0.35378283,0.37717322,-0.36320007,-0.07784382,0.05692385,0.10059221
20231225 09:38:13,0.578594,0.556278,-0.311417,-0.038497,0.069972,-0.049014,9.332348,-13.516121,-5.416199,-110.09404,0.09621924,0.50986534,-0.13518184,-0.057487812,0.068245254,0.07766062
20231225 09:38:13,0.523234,0.623829,-0.425475,-0.015060,0.079560,-0.055406,8.767879,-13.178017,-5.711807,-107.02244,-0.04155475,0.58239233,-0.050532512,-0.050464258,0.07698864,0.06255213
20231225 09:38:13,0.411752,0.649328,-0.578133,0.001986,0.093409,-0.059668,9.562973,-13.505203,-4.878723,-109.23171,-0.24625899,0.61796546,0.0786818,-0.04599176,0.0910827,0.055680208
20231225 09:38:13,0.316058,0.578125,-0.626277,0.017966,0.118978,-0.056472,9.173817,-12.958755,-5.722092,-103.939255,-0.34742057,0.56222737,0.11574824,-0.035711493,0.11765486,0.054165523
20231225 09:38:13,0.260136,0.565849,-0.543809,0.040338,0.134958,-0.057537,9.490490,-13.881592,-5.390762,-107.39608,-0.31438425,0.5603777,0.15826464,-0.025798444,0.13431323,0.044453308
20231225 09:38:13,0.233934,0.585649,-0.562469,0.063776,0.139219,-0.057537,9.596264,-13.683311,-5.536621,-105.279305,-0.34865063,0.5808959,0.1802071,-0.0139888,0.13856399,0.025264759
20231225 09:38:13,0.231812,0.594725,-0.596272,0.070168,0.142415,-0.056472,9.568604,-13.584602,-6.079224,-102.33572,-0.37874454,0.5891818,0.17827591,-0.009708859,0.14166303,0.020494416
20231225 09:38:13,0.258390,0.668036,-0.588933,0.073364,0.139219,-0.056472,9.359627,-13.422951,-5.154053,-106.699295,-0.3531052,0.65447676,0.20548478,-0.006972071,0.13736461,0.016212702
20231225 09:38:13,0.344581,0.719488,-0.638671,0.073364,0.143481,-0.055406,9.535698,-13.598373,-5.140854,-106.993515,-0.3442818,0.69314486,0.16018505,-0.004802812,0.14033683,0.017044164
20231225 09:38:13,0.459125,0.771053,-0.643233,0.055253,0.122174,-0.054341,9.296486,-13.896202,-5.391739,-107.26959,-0.27699518,0.7246332,0.082707755,-0.012133986,0.11767332,0.020853536
20231225 09:38:13,0.600880,0.728270,-0.695087,0.020097,0.111520,-0.066060,9.570137,-14.352150,-4.957336,-111.7517,-0.22519678,0.6519224,-0.023121819,-0.037835095,0.105702765,0.04990513
20231225 09:38:13,0.649830,0.670882,-0.562946,-0.003341,0.111520,-0.090563,9.878498,-13.852371,-5.388809,-108.54807,-0.08761984,0.6085156,-0.116313815,-0.07128997,0.105704434,0.07443313
20231225 09:38:13,0.581438,0.595819,-0.480536,-0.022517,0.126435,-0.125719,9.411610,-13.794800,-5.263229,-110.19521,-0.059829593,0.5662001,-0.0851856,-0.11294843,0.12259882,0.10815486
20231225 09:38:13,0.351978,0.584105,-0.069617,-0.015060,0.131762,-0.158745,9.632122,-13.303238,-5.561081,-107.81176,0.1423067,0.58641446,0.046398424,-0.13921863,0.13284017,0.11284175
20231225 09:38:13,0.077587,0.547735,0.224223,0.009443,0.113651,-0.175791,9.392910,-13.601059,-5.811966,-108.41155,0.20169829,0.5394711,0.20484535,-0.14047755,0.12161291,0.089647196
20231225 09:38:13,-0.151075,0.562691,0.488260,0.044600,0.096605,-0.160876,9.957760,-14.131050,-5.235855,-111.70146,0.26075584,0.5234348,0.3275392,-0.1065972,0.10843104,0.054926515
20231225 09:38:13,-0.202250,0.620513,0.630567,0.088279,0.084887,-0.131046,9.560787,-14.255287,-5.231689,-113.25919,0.33980924,0.5715666,0.35557687,-0.05541175,0.09656808,0.008540817
20231225 09:38:13,-0.060830,0.613995,0.562364,0.090410,0.048665,-0.094824,9.824326,-14.230591,-5.632599,-111.199875,0.39018497,0.59148544,0.2705497,-0.023068938,0.054476913,-0.024330575
20231225 09:38:13,0.201753,0.595951,0.515081,0.053123,-0.003537,-0.070321,9.939445,-14.129196,-5.504105,-112.23791,0.5331207,0.59589607,0.052353613,-0.02443675,-0.0035207819,-0.02852668
20231225 09:38:13,0.511461,0.652137,0.514490,0.003051,-0.060001,-0.057537,9.984657,-13.845993,-5.254196,-113.12414,0.73998404,0.6562571,-0.17484015,-0.046488468,-0.062017683,-0.021824442
20231225 09:38:13,0.697237,0.725412,0.430904,-0.048085,-0.083438,-0.061799,10.018711,-14.407883,-5.351151,-114.54848,0.79729843,0.71961963,-0.2790817,-0.08260997,-0.08467748,0.0091775805
20231225 09:38:13,0.779360,0.696314,0.496474,-0.097091,-0.079177,-0.071387,9.905777,-13.759193,-5.126678,-114.38444,0.89375144,0.6916381,-0.36381558,-0.11863514,-0.078996636,0.051844873
20231225 09:38:13,0.635302,0.674950,0.715862,-0.139705,-0.072785,-0.079909,9.957760,-14.131050,-5.235855,-115.667274,0.96914524,0.67911154,-0.31392604,-0.15074492,-0.07213901,0.090469435
20231225 09:38:13,0.371342,0.535158,0.940555,-0.157816,-0.058935,-0.086302,9.797432,-14.515648,-5.614258,-118.344284,0.94859356,0.5306455,-0.26348183,-0.16841054,-0.059308995,0.11164485
20231225 09:38:13,0.211926,0.363246,1.236591,-0.138640,-0.060001,-0.069256,9.967495,-14.419807,-4.681030,-120.841156,1.0559341,0.3391523,-0.3724236,-0.1425088,-0.06120822,0.09292429
20231225 09:38:14,0.067059,0.002682,1.369632,-0.085373,-0.018452,-0.056472,9.975689,-13.941010,-5.248077,-119.99716,1.0315428,-0.031223904,-0.5220792,-0.099410474,-0.01911282,0.06994827
20231225 09:38:14,0.077786,-0.420887,1.351105,-0.020386,0.007116,-0.055406,10.169693,-13.926399,-5.247101,-120.37128,1.022782,-0.45126885,-0.79264724,-0.053820007,0.007957118,0.03853443
20231225 09:38:14,0.123570,-0.844913,1.129878,0.045665,0.040142,-0.068191,10.352547,-14.756882,-5.592987,-122.16129,0.89821965,-0.8678938,-1.0270922,-0.016006246,0.042802054,0.018252106
20231225 09:38:14,0.060649,-1.209523,0.900207,0.106390,0.096605,-0.100151,10.194786,-14.583313,-5.337952,-122.99858,0.7161265,-1.2417911,-1.1268759,0.0034585,0.10509897,0.024017695
20231225 09:38:14,-0.172976,-1.404605,0.781282,0.169246,0.142415,-0.135308,10.018330,-14.215988,-5.631622,-120.926994,0.5170238,-1.4667327,-1.0361943,0.018047988,0.16423178,0.020495277
20231225 09:38:14,-0.499083,-1.490220,0.540741,0.206533,0.178637,-0.151288,10.452694,-14.479225,-4.538361,-121.83978,0.19227315,-1.5906904,-0.75201654,0.021285139,0.21779054,0.019419502
20231225 09:38:14,-0.816398,-1.500779,0.415883,0.222513,0.213794,-0.150222,10.283398,-14.958847,-4.910645,-122.32584,-0.06627864,-1.6533737,-0.48348713,0.022294432,0.2655452,0.028626543
20231225 09:38:14,-1.045419,-1.464189,0.337912,0.223578,0.232970,-0.137438,10.504299,-14.659180,-4.928009,-119.79649,-0.24424516,-1.6647844,-0.27720055,0.022074603,0.29023418,0.033001177
20231225 09:38:14,-1.224055,-1.487390,0.288839,0.212925,0.235101,-0.109739,10.459087,-14.942390,-5.177902,-119.887276,-0.3790908,-1.7210048,-0.14138669,0.029847898,0.28806445,0.031046644
20231225 09:38:14,-1.273362,-1.406863,0.205157,0.175638,0.216990,-0.072452,10.389175,-14.760582,-5.056503,-117.93312,-0.44862634,-1.6377723,9.834543E-4,0.02649125,0.2568848,0.0280669
20231225 09:38:14,-1.186014,-1.293002,0.110924,0.107455,0.186095,-0.030903,10.388790,-14.568703,-5.336975,-114.47736,-0.4563774,-1.4839586,0.056691695,0.01254533,0.20499231,0.042835157
20231225 09:38:14,-1.082342,-1.110487,-0.061054,0.005182,0.155200,-0.000008,10.494949,-14.562317,-5.202362,-111.95314,-0.51799965,-1.2481902,0.16650502,-0.0289006,0.15019394,0.08973354
20231225 09:38:14,-1.078519,-0.802643,-0.112257,-0.119464,0.131762,0.027691,10.495716,-14.946091,-4.641418,-113.92672,-0.604941,-0.93590283,0.39002568,-0.083278924,0.100388914,0.16167568
20231225 09:38:14,-1.051830,-0.548315,0.092154,-0.230260,0.120043,0.053259,10.486370,-14.849220,-4.915787,-113.67308,-0.50376904,-0.7188082,0.4573062,-0.13197418,0.068637796,0.23317516
20231225 09:38:14,-0.984682,-0.362591,0.383272,-0.314423,0.112586,0.066043,10.734547,-14.456390,-4.671005,-114.24028,-0.3033765,-0.5655268,0.42185044,-0.17732081,0.051467072,0.28668904
20231225 09:38:14,-0.892347,-0.206338,0.717903,-0.362363,0.120043,0.070305,10.758869,-14.729515,-5.322800,-114.571785,-0.04138112,-0.43382943,0.3395567,-0.20909429,0.057110228,0.323107
20231225 09:38:14,-0.869120,-0.064936,1.008251,-0.365559,0.148807,0.075631,10.537586,-14.837296,-5.585892,-116.1591,0.14418018,-0.32741323,0.2961957,-0.21559873,0.08560849,0.3363372
20231225 09:38:14,-0.873066,-0.022264,1.238983,-0.327207,0.192487,0.084154,10.406719,-14.378662,-5.349197,-117.09339,0.27944434,-0.30638653,0.22772947,-0.19272104,0.13453078,0.32848275
20231225 09:38:14,-0.805661,-0.049562,1.346653,-0.247306,0.246820,0.099069,10.573830,-14.649109,-5.329880,-118.11545,0.39682245,-0.33052602,0.106829524,-0.13480905,0.19772291,0.29661855
20231225 09:38:14,-0.791134,-0.158517,1.320133,-0.148228,0.296891,0.109723,10.451931,-14.095451,-5.099289,-117.60904,0.3978113,-0.42769867,0.04128638,-0.06480777,0.2589168,0.25429294
20231225 09:38:14,-0.679010,-0.256544,1.141694,-0.045955,0.323525,0.116115,10.952637,-10.912086,-7.981522,-92.90822,0.3789097,-0.4713487,0.2755638,0.011722721,0.29935393,0.2519013
20231225 09:38:14,-0.504183,-0.346084,0.720722,0.043534,0.334178,0.120376,10.706112,-13.973892,-5.774567,-111.49122,0.23552445,-0.47629222,-0.0138910115,0.079389945,0.320845,0.14514498
20231225 09:38:14,-0.286463,-0.471606,0.233366,0.108521,0.333113,0.117180,10.396603,-13.898003,-6.184509,-107.40164,0.049042597,-0.51913756,-0.1091327,0.121194646,0.32647392,0.095929265
20231225 09:38:14,-0.172196,-0.526114,-0.358307,0.140481,0.315002,0.112919,10.475483,-13.984795,-6.312027,-102.62692,-0.3268972,-0.49421984,-0.12118563,0.13728303,0.31077266,0.055793338
20231225 09:38:14,-0.106911,-0.459762,-0.889570,0.119174,0.281976,0.110788,10.679218,-14.258949,-5.756226,-101.25646,-0.7373599,-0.35915643,-0.065382235,0.12434213,0.27550972,0.042761244
20231225 09:38:14,0.051257,-0.518023,-1.355769,0.038208,0.230839,0.115049,10.272514,-14.094429,-6.306885,-97.06823,-1.0629681,-0.3786707,-0.22791177,0.09451567,0.22037476,0.08181516
20231225 09:38:14,0.172396,-0.396365,-1.383222,-0.051282,0.175441,0.108657,10.466904,-14.271706,-6.025436,-98.87061,-1.0529857,-0.27923635,-0.24021672,0.05177989,0.16384469,0.12562674
20231225 09:38:14,0.278415,-0.320129,-1.475162,-0.136509,0.110455,0.087350,10.142799,-14.211456,-5.228760,-102.995926,-1.0879213,-0.20335564,-0.22742556,-0.0044824183,0.09808424,0.16235472
20231225 09:38:14,0.272429,-0.455841,-1.416618,-0.243044,0.055057,0.057520,10.678837,-14.067070,-6.036682,-100.72584,-1.007082,-0.3525169,-0.32881662,-0.08778993,0.041112892,0.22746795
20231225 09:38:14,0.342482,-0.334037,-0.933593,-0.302704,0.028423,0.021299,10.230263,-14.011337,-5.642868,-107.2081,-0.540645,-0.27217844,-0.30339578,-0.16046967,0.016007952,0.2582247
20231225 09:38:14,0.177330,-0.288589,-0.400263,-0.304834,0.019900,-0.017054,10.176086,-14.389572,-5.886658,-110.33431,-0.17782782,-0.24246456,-0.22065794,-0.20440489,0.0012843725,0.25407258
20231225 09:38:14,-0.059405,-0.288594,0.057930,-0.281397,-0.003537,-0.038361,10.740940,-14.919556,-5.310577,-114.71236,0.034306146,-0.2969842,-0.14032397,-0.2109446,-0.023752777,0.22263743
20231225 09:38:14,-0.288605,-0.180263,0.409515,-0.237717,-0.040824,-0.047949,10.432194,-15.227448,-5.159561,-117.71682,0.13476267,-0.25608,-0.014057741,-0.18761495,-0.059245482,0.16951177
20231225 09:38:14,-0.473602,-0.139411,0.491066,-0.188711,-0.070654,-0.046884,10.653091,-14.927788,-5.176926,-115.80258,0.067840755,-0.25995344,0.13079213,-0.14986068,-0.08565544,0.11295461
20231225 09:38:14,-0.581262,-0.056236,0.540167,-0.137575,-0.095157,-0.035165,10.652710,-14.735893,-5.457397,-114.07279,0.02163452,-0.20425516,0.25647026,-0.10339129,-0.10563544,0.0552567
20231225 09:38:14,-0.583062,-0.033849,0.413767,-0.086438,-0.089830,-0.027707,10.740555,-14.727661,-5.591034,-112.86246,-0.07156891,-0.1641298,0.3137121,-0.06452069,-0.09497706,0.017909013
20231225 09:38:14,-0.551338,-0.124629,0.332316,-0.036367,-0.079177,-0.028773,10.440773,-14.940536,-5.446152,-115.10845,-0.09970987,-0.23960686,0.24769601,-0.033806533,-0.07815493,-0.011810247
20231225 09:38:14,-0.621653,-0.299514,0.164131,0.013705,-0.064262,-0.034099,9.983238,-14.979843,-5.046219,-117.01402,-0.2360591,-0.40336862,0.24897519,-0.006198803,-0.05559469,-0.0376132
20231225 09:38:14,-0.747727,-0.364611,-0.083374,0.056319,-0.034432,-0.031969,10.273666,-14.670090,-5.465469,-111.9875,-0.47729468,-0.45208666,0.3755402,0.018570786,-0.019258678,-0.055971887
20231225 09:38:14,-0.821716,-0.400840,-0.243406,0.085083,-0.012060,-0.025577,10.546551,-14.742271,-5.592010,-109.77751,-0.62546086,-0.4742124,0.44480217,0.037639722,0.0074603804,-0.06724681
20231225 09:38:14,-0.909270,-0.457819,-0.434276,0.107455,-0.013125,-0.013858,10.652710,-14.735893,-5.457397,-107.520546,-0.7932911,-0.5023892,0.5215835,0.059269834,0.008879339,-0.089318074
20231225 09:38:14,-0.919161,-0.358190,-0.694889,0.115978,-0.030171,0.007449,10.404530,-15.128731,-5.702179,-105.284065,-1.000454,-0.34101665,0.6394094,0.08206285,-0.010629061,-0.1115205
20231225 09:38:14,-0.869823,-0.201684,-0.933313,0.096802,-0.070654,0.024495,10.546936,-14.934166,-5.311554,-101.74622,-1.1835874,-0.11524673,0.71310216,0.09055394,-0.05805305,-0.121776156
20231225 09:38:14,-0.726765,-0.005770,-1.261999,0.043534,-0.131379,0.036214,10.777184,-14.731361,-5.054550,-97.37177,-1.4167925,0.1760624,0.7006125,0.08191261,-0.12887567,-0.10787485
20231225 09:38:14,-0.533468,0.305736,-1.551973,-0.041693,-0.179320,0.036214,10.450123,-15.037415,-5.171783,-95.575775,-1.637785,0.5565114,0.688462,0.047300123,-0.18656266,-0.053411223
20231225 09:38:14,-0.417113,0.660157,-1.602168,-0.134379,-0.210215,0.021299,10.583561,-14.937859,-4.775040,-96.030396,-1.7004861,0.91149974,0.7602366,-0.0049760677,-0.22334619,0.017228305
20231225 09:38:14,-0.420582,0.957245,-1.460904,-0.217476,-0.203823,-0.000008,10.643742,-14.830917,-5.451294,-93.490456,-1.6357975,1.1756451,0.88003165,-0.06638173,-0.2229072,0.08922929
20231225 09:38:14,-0.622660,1.131670,-0.974383,-0.269678,-0.182516,-0.006400,10.416069,-14.475525,-5.074844,-99.788414,-1.3604677,1.2151017,1.2139462,-0.11356239,-0.21060295,0.13115263
20231225 09:38:14,-0.789734,1.171983,-0.255528,-0.273939,-0.185712,0.011711,10.555901,-14.839149,-5.317657,-105.58371,-0.87980205,1.0834315,1.3409123,-0.11668726,-0.21942624,0.115778275
20231225 09:38:14,-0.819859,0.975012,0.263684,-0.232391,-0.188908,0.039410,10.873993,-14.628120,-5.194290,-109.28184,-0.46041065,0.8104016,1.1599137,-0.083916396,-0.22037482,0.0636362
20231225 09:38:14,-0.720695,0.794373,0.618244,-0.153555,-0.197431,0.058586,10.397755,-14.473679,-5.343094,-112.4169,-0.10648301,0.6119658,0.8726589,-0.027021036,-0.22011659,-0.013754908
20231225 09:38:14,-0.640510,0.553750,0.667784,-0.051282,-0.197431,0.076697,10.425415,-14.572395,-4.800476,-115.59609,0.021880269,0.40193442,0.62474716,0.048163194,-0.2093687,-0.097609006
20231225 09:38:14,-0.393968,0.352722,0.507639,0.046730,-0.183581,0.077762,10.239998,-14.300095,-5.088043,-114.212494,0.1037167,0.2730443,0.37567577,0.106218815,-0.18585645,-0.16323262
20231225 09:38:14,-0.161332,0.234995,0.197289,0.118109,-0.164405,0.067109,10.318874,-14.386887,-5.215561,-113.02761,0.034892865,0.20928085,0.21286903,0.13832907,-0.16157465,-0.20312779
20231225 09:38:14,-0.046450,0.147029,-0.056909,0.162853,-0.145229,0.041540,10.486370,-14.849220,-4.915787,-113.99604,-0.085002854,0.14793222,0.13338037,0.1442977,-0.13763765,-0.22038366
20231225 09:38:14,-0.186963,0.081032,-0.257210,0.186291,-0.149490,0.004253,10.283016,-14.766960,-5.191101,-111.07192,-0.32471997,0.09270652,0.25043735,0.13108492,-0.13378437,-0.23364706
20231225 09:38:14,-0.429830,0.169465,-0.426655,0.208663,-0.148425,-0.025577,10.407486,-14.762428,-4.788254,-108.51614,-0.6174152,0.18524972,0.5219171,0.124740355,-0.11753394,-0.2468725
20231225 09:38:14,-0.813212,0.306561,-0.706165,0.232101,-0.126052,-0.025577,10.416451,-14.667412,-4.794357,-103.76724,-1.0891469,0.3285126,0.9341393,0.13934556,-0.07955763,-0.25723186
20231225 09:38:14,-1.149152,0.315315,-0.942515,0.242755,-0.093027,-0.000008,10.522614,-14.661034,-4.659760,-101.20839,-1.4654264,0.34458148,1.2287362,0.16019358,-0.04425882,-0.25244403
20231225 09:38:14,-1.285917,0.268617,-1.000679,0.236362,-0.070654,0.029821,10.426186,-14.956169,-4.239532,-104.48686,-1.5759494,0.28930944,1.3510323,0.17544188,-0.030209165,-0.23827146
20231225 09:38:14,-1.325536,0.215151,-1.020892,0.232101,-0.062131,0.057520,10.470627,-14.289185,-4.550583,-100.311356,-1.5983115,0.23772798,1.3192511,0.19216806,-0.030657915,-0.23232266
20231225 09:38:14,-1.314071,0.126166,-1.074771,0.227840,-0.049347,0.082023,10.398521,-14.857452,-4.782135,-101.10019,-1.6069143,0.1735222,1.2758651,0.20479614,-0.026559494,-0.22503988
20231225 09:38:14,-1.301160,0.157125,-1.068967,0.221448,-0.036563,0.101200,10.144333,-14.979012,-4.106888,-105.83654,-1.6054819,0.20241894,1.3273942,0.21267903,-0.021486757,-0.21890672
20231225 09:38:14,-1.265337,0.217218,-0.958642,0.204402,-0.045086,0.113984,10.549892,-14.567863,-4.397614,-101.618706,-1.5142775,0.23750006,1.2786822,0.21503624,-0.036899745,-0.20742023
20231225 09:38:14,-1.224064,0.326067,-0.905033,0.185226,-0.052543,0.127833,9.871452,-14.906830,-3.980331,-106.92385,-1.4753103,0.3364976,1.3390837,0.21680264,-0.051643625,-0.20285566
20231225 09:38:14,-1.207965,0.485929,-0.738215,0.169246,-0.040824,0.143814,10.355888,-14.582474,-4.398590,-103.09822,-1.3761544,0.44774425,1.3606488,0.21812509,-0.04677525,-0.1810121
20231225 09:38:14,-1.185734,0.655749,-0.565751,0.154331,-0.038694,0.177905,10.337959,-14.772507,-4.386368,-105.446106,-1.2618833,0.57848465,1.4207311,0.23693705,-0.05392074,-0.17530805
20231225 09:38:14,-1.049625,0.759291,-0.306816,0.118109,-0.071720,0.222649,10.435150,-14.861153,-4.245651,-108.21605,-0.9784018,0.6648628,1.3275875,0.25906128,-0.09606302,-0.17518666
20231225 09:38:14,-0.678354,0.771644,-0.185716,0.063776,-0.112203,0.270590,10.471394,-14.672966,-3.989624,-110.81942,-0.6249791,0.7308362,1.0033478,0.27077308,-0.13814987,-0.16565096
20231225 09:38:14,-0.251667,0.763384,-0.081522,-0.001210,-0.138836,0.304681,10.471394,-14.672966,-3.989624,-113.601006,-0.25523162,0.7559148,0.62301016,0.25766632,-0.15662841,-0.14055744
20231225 09:38:14,0.110149,0.790123,0.124720,-0.067262,-0.162274,0.333446,10.532993,-13.432152,-4.873840,-109.95181,0.16244045,0.7899351,0.31800678,0.23260143,-0.16376372,-0.10033807
20231225 09:38:14,0.470181,0.811111,0.401829,-0.125856,-0.187843,0.339838,10.110664,-14.609016,-3.729462,-121.07401,0.63773566,0.8120904,-0.08448281,0.18824324,-0.16896679,-0.10071784
20231225 09:38:14,0.756032,0.806847,0.616444,-0.169535,-0.204888,0.320661,10.365234,-14.679344,-4.124252,-121.396255,1.0069093,0.80544794,-0.37035364,0.13292992,-0.17150846,-0.076480895
20231225 09:38:14,0.872754,0.750002,0.858836,-0.180189,-0.199561,0.276982,10.083000,-14.510292,-4.272049,-122.340355,1.2703295,0.7576841,-0.56714934,0.08513905,-0.16670904,-0.060086988
20231225 09:38:14,0.886162,0.700743,1.060050,-0.154620,-0.167601,0.218388,10.128212,-14.227089,-4.022141,-123.09164,1.4267627,0.71948344,-0.6720444,0.054988407,-0.14280713,-0.049204238
20231225 09:38:14,0.695937,0.602163,1.236990,-0.115202,-0.127118,0.166186,10.139748,-13.573875,-3.394821,-123.71745,1.4118161,0.6276652,-0.644407,0.042562947,-0.115493976,-0.044851236
20231225 09:38:14,0.471237,0.434658,1.500412,-0.070458,-0.127118,0.132095,10.004505,-14.615395,-3.864059,-126.39242,1.426481,0.46274033,-0.71347624,0.044420246,-0.12170372,-0.07254204
20231225 09:38:14,0.385062,0.236062,1.654480,-0.015060,-0.163339,0.108657,9.828430,-14.439964,-3.877274,-127.00696,1.4632778,0.27128908,-0.83781016,0.06313626,-0.15981895,-0.1252048
20231225 09:38:14,0.406311,0.034560,1.587955,0.045665,-0.184646,0.086285,10.058678,-14.237160,-3.620285,-126.73237,1.424442,0.07428171,-0.93277264,0.0875826,-0.18304618,-0.17149575
20231225 09:38:14,0.473861,-0.057806,1.445209,0.108521,-0.180385,0.059651,9.952522,-14.243538,-3.754883,-127.062706,1.3623612,-0.013526402,-0.9788512,0.11022152,-0.18208195,-0.20317279
20231225 09:38:14,0.582186,-0.213473,1.367589,0.175638,-0.175058,0.019168,9.785797,-14.164986,-3.493729,-128.43193,1.3699689,-0.16646656,-1.1270692,0.12617344,-0.18329316,-0.22980313
20231225 09:38:14,0.677275,-0.423028,1.202353,0.247016,-0.163339,-0.030903,10.155876,-14.325806,-3.479553,-128.2278,1.3000624,-0.38309705,-1.236254,0.13896656,-0.18155232,-0.2531051
20231225 09:38:14,0.698145,-0.669717,0.928347,0.308806,-0.130314,-0.085236,10.007462,-14.249084,-2.950150,-129.10837,1.1084896,-0.65006775,-1.2671664,0.1425838,-0.15401758,-0.25662878
20231225 09:38:14,0.560934,-0.792399,0.695501,0.354616,-0.065327,-0.129981,9.980183,-14.342255,-3.212296,-128.37523,0.8546808,-0.7840243,-1.1334828,0.14876512,-0.08575696,-0.23568243
20231225 09:38:14,0.321078,-1.063148,0.741696,0.396165,-0.021648,-0.153418,9.583210,-14.466499,-3.208130,-129.61522,0.7381729,-1.0564913,-1.133982,0.16764449,-0.029800683,-0.22594889
20231225 09:38:14,0.118598,-1.273348,0.602179,0.421733,-0.016321,-0.142765,10.040749,-14.427200,-3.608047,-126.98057,0.5124854,-1.2735401,-1.0531827,0.19454709,-0.016099818,-0.24907684
20231225 09:38:14,0.135040,-1.560513,0.397669,0.423864,-0.047217,-0.112935,9.874409,-14.540527,-3.066422,-129.23294,0.35299352,-1.5556691,-1.1160071,0.21423854,-0.055952594,-0.27918386
20231225 09:38:14,0.364263,-1.784297,-0.012405,0.391903,-0.098353,-0.080975,10.104652,-14.337730,-2.809433,-128.63416,0.11702367,-1.7999307,-1.2017971,0.1973564,-0.12706801,-0.307688
20231225 09:38:14,0.793383,-1.945386,-0.548735,0.331178,-0.119660,-0.061799,9.734573,-14.176918,-2.823608,-129.92747,-0.157383,-2.0807738,-1.3440853,0.15315852,-0.16462816,-0.28533864
20231225 09:38:14,1.164506,-1.932258,-0.850028,0.241689,-0.153751,-0.075648,9.928577,-14.162308,-2.822632,-129.90309,-0.29173878,-2.2172015,-1.4946668,0.06372295,-0.20108113,-0.23217459
20231225 09:38:14,1.383042,-1.695741,-1.208842,0.109586,-0.202757,-0.095890,10.049713,-14.332176,-3.614166,-126.68781,-0.5273664,-2.1418614,-1.4945898,-0.057951413,-0.23519184,-0.15048644
20231225 09:38:14,1.439832,-1.315319,-1.312660,-0.058739,-0.253894,-0.116131,9.998112,-14.152222,-3.224518,-126.76418,-0.54672325,-1.8147321,-1.3410635,-0.18655269,-0.26117578,-0.026787646
20231225 09:38:14,1.406256,-0.689216,-1.136017,-0.230260,-0.313554,-0.122523,10.016426,-14.154068,-2.956268,-126.351,-0.30222028,-1.1368155,-1.1117276,-0.2969734,-0.29489493,0.09408833
20231225 09:38:14,1.302570,-0.069457,-0.901459,-0.381539,-0.374278,-0.126785,10.113617,-14.242714,-2.815552,-124.65225,-0.060745478,-0.4034044,-0.8588766,-0.38082227,-0.34202158,0.19695695
20231225 09:38:14,1.103111,0.323351,-0.703237,-0.531754,-0.400912,-0.124654,10.007462,-14.249084,-2.950150,-123.57185,0.07188994,0.09679427,-0.5663293,-0.45481533,-0.3595858,0.30145216
20231225 09:38:14,0.945553,0.821747,-0.084118,-0.638288,-0.405174,-0.127850,10.104271,-14.145844,-3.089890,-122.9718,0.56774896,0.7306191,-0.3498071,-0.51616305,-0.3656012,0.36622223
20231225 09:38:14,0.753059,0.891520,0.605704,-0.664922,-0.366821,-0.137438,9.672207,-15.033936,-2.500343,-129.63025,1.0077631,0.8876737,-0.40035135,-0.54962194,-0.33571103,0.39741287
20231225 09:38:14,0.564400,0.646288,1.339078,-0.605263,-0.297573,-0.144896,10.183918,-14.616417,-2.656471,-129.41391,1.3952637,0.68501663,-0.65243906,-0.5322257,-0.2763847,0.35003248
20231225 09:38:14,0.373639,0.325292,2.055762,-0.453983,-0.221934,-0.154484,10.114002,-14.434601,-2.535065,-131.16855,1.6919415,0.35434037,-1.0609632,-0.43941158,-0.21618885,0.26525545
20231225 09:38:15,-0.012430,0.042731,2.538034,-0.229195,-0.159078,-0.153418,10.289692,-14.418144,-2.802338,-130.7566,1.6734272,0.01780676,-1.2075998,-0.27171963,-0.16008818,0.13678794
20231225 09:38:15,-0.231886,-0.246157,2.549791,0.027554,-0.117530,-0.139569,10.165604,-14.614563,-2.924728,-131.28314,1.5164602,-0.29185313,-1.2468423,-0.069730856,-0.11471448,-0.015404582
20231225 09:38:15,-0.208331,-0.468512,1.900023,0.257669,-0.083438,-0.122523,10.404819,-14.316742,-2.673836,-128.83115,1.1735837,-0.4906847,-0.9757861,0.101336814,-0.07933484,-0.1703317
20231225 09:38:15,-0.047676,-0.657949,0.919721,0.417472,-0.052543,-0.115066,9.920383,-14.641106,-2.255577,-129.67758,0.64433235,-0.6525381,-0.700915,0.19564357,-0.055313777,-0.2864865
20231225 09:38:15,0.159424,-0.716535,-0.051974,0.496307,-0.033367,-0.115066,10.423134,-14.318588,-2.405594,-124.44789,0.03130431,-0.72195923,-0.46940458,0.21125308,-0.050766677,-0.36980835
20231225 09:38:15,0.281143,-0.728134,-0.956739,0.494177,-0.022714,-0.120393,10.466534,-14.977348,-2.228195,-123.03378,-0.69326234,-0.7952546,-0.284395,0.16583155,-0.049303956,-0.38986787
20231225 09:38:15,0.398692,-0.570904,-1.695820,0.419602,-0.013125,-0.123589,10.281498,-14.896942,-2.235283,-120.411934,-1.3521712,-0.76046336,-0.17755443,0.08944029,-0.04840339,-0.34519324
20231225 09:38:15,0.502527,-0.439614,-2.131533,0.292826,-0.006733,-0.127850,10.466152,-14.785454,-2.508659,-118.07463,-1.7208115,-0.7418889,-0.17558062,0.016409002,-0.0419209,-0.2379511
20231225 09:38:15,0.558484,-0.324453,-2.297250,0.134089,-0.040824,-0.136373,10.008228,-14.632866,-2.389206,-117.818535,-1.8712403,-0.68161726,-0.17745912,-0.0717733,-0.068358526,-0.11015576
20231225 09:38:15,0.598603,-0.259661,-2.427701,-0.039563,-0.063197,-0.140634,10.290077,-14.610031,-2.521866,-117.08384,-1.9603899,-0.6558548,-0.17587173,-0.15187447,-0.08042569,0.039162446
20231225 09:38:15,0.528401,-0.156147,-2.167493,-0.197234,-0.063197,-0.155549,10.553997,-14.777229,-2.642288,-115.97724,-1.6958323,-0.35729903,-0.10345402,-0.23277922,-0.067481555,0.18087107
20231225 09:38:15,0.258170,-0.015539,-1.604082,-0.311226,-0.070654,-0.147026,10.087494,-14.911552,-2.236259,-119.46208,-1.2556586,-0.039419416,0.1676152,-0.28473732,-0.07017629,0.27429008
20231225 09:38:15,0.032620,0.056637,-0.932931,-0.374082,-0.078112,-0.121458,10.501625,-14.213493,-2.813599,-117.62415,-0.7573348,0.06531858,0.24162936,-0.30841953,-0.07928222,0.30358943
20231225 09:38:15,-0.037502,0.157910,-0.269650,-0.379409,-0.094092,-0.087367,10.174953,-14.711433,-2.650360,-122.72738,-0.2401243,0.15873894,0.19507325,-0.29457578,-0.09474593,0.28700426
20231225 09:38:15,0.115968,0.196468,0.100888,-0.341056,-0.097288,-0.052210,10.457188,-14.880478,-2.502548,-124.76161,0.15542182,0.19667692,-0.029060535,-0.25097787,-0.09205833,0.24052401
20231225 09:38:15,0.379128,0.234651,0.223241,-0.277135,-0.069589,-0.034099,10.439255,-15.070518,-2.490318,-126.658676,0.42188674,0.22993982,-0.26567388,-0.20087704,-0.059009768,0.19708851
20231225 09:38:15,0.589993,0.271190,0.259735,-0.240913,-0.051478,-0.035165,10.484081,-14.595421,-2.520889,-126.10943,0.5872009,0.25466534,-0.42487916,-0.1795844,-0.039597522,0.1772372
20231225 09:38:15,0.667070,0.339244,0.265923,-0.134379,-0.001407,-0.056472,10.156639,-14.709579,-2.918610,-125.75194,0.64369166,0.3179164,-0.45500392,-0.12666728,0.0023264186,0.12586524
20231225 09:38:15,0.627233,0.419656,0.179529,-0.071523,0.019900,-0.067125,10.069180,-14.909698,-2.504501,-126.784706,0.5490034,0.39772236,-0.36415553,-0.095036864,0.018891348,0.09090015
20231225 09:38:15,0.548737,0.450859,0.002399,-0.023582,0.032685,-0.072452,10.447838,-14.783607,-2.776909,-123.708755,0.3524793,0.4243634,-0.22518165,-0.07025262,0.029065,0.0586347
20231225 09:38:15,0.507288,0.488874,-0.173196,0.013705,0.040142,-0.070321,10.138710,-14.899620,-2.906387,-123.20219,0.17835553,0.45467007,-0.12874004,-0.0472365,0.035047937,0.029914971
20231225 09:38:15,0.439963,0.491015,-0.417112,0.046730,0.062514,-0.064995,10.395851,-14.411766,-2.667725,-120.997635,-0.07674801,0.45692542,-0.009841427,-0.024803173,0.057910904,0.009867918
20231225 09:38:15,0.373824,0.369578,-0.564966,0.062711,0.082756,-0.055406,10.535297,-14.583496,-3.191025,-119.15653,-0.24303041,0.32905245,0.021555424,-0.0070805773,0.07784849,0.003030709
20231225 09:38:15,0.434655,0.312157,-0.594267,0.069103,0.078495,-0.047949,10.405586,-14.700523,-2.112892,-123.66186,-0.23375347,0.25976044,-0.034651026,0.0031362213,0.07280996,-0.006488013
20231225 09:38:15,0.551870,0.132625,-0.795185,0.072299,0.072102,-0.047949,10.281113,-14.705048,-2.515755,-122.57915,-0.35308954,0.045682497,-0.1682254,0.0047848634,0.064703345,-0.0134018045
20231225 09:38:15,0.499581,0.097065,-0.976400,0.068037,0.096605,-0.054341,10.184303,-14.808296,-2.375999,-122.394875,-0.54426634,0.0301544,-0.09272799,-0.0038313977,0.09137994,0.0026742034
20231225 09:38:15,0.365038,0.059304,-0.942320,0.063776,0.096605,-0.042622,10.729301,-14.568886,-3.190048,-117.26394,-0.59247357,0.0149552375,-0.045303226,0.0022838004,0.09336272,0.003312016
20231225 09:38:15,0.372940,-0.011495,-0.966050,0.055253,0.091279,-0.025577,10.511360,-14.502251,-2.258759,-121.908615,-0.60555625,-0.08214303,-0.039818615,0.014049681,0.087460525,0.0032536918
20231225 09:38:15,0.534409,-0.079106,-1.016867,0.040338,0.067841,-0.020250,10.359993,-14.791840,-2.643265,-121.718506,-0.5728171,-0.18296899,-0.1995044,0.0098810345,0.064031936,0.0027197646
20231225 09:38:15,0.670091,-0.071418,-1.166848,0.030750,0.058253,-0.023446,10.244488,-14.701347,-3.052231,-120.79534,-0.6380367,-0.24258147,-0.2869095,0.0027688183,0.05316126,0.0065700505
20231225 09:38:15,0.776598,0.052351,-1.272840,-0.006537,0.040142,-0.046884,10.078144,-14.814674,-2.510612,-122.781555,-0.68285966,-0.16495961,-0.29585108,-0.038239203,0.0343297,0.0356994
20231225 09:38:15,0.814597,0.304115,-1.359120,-0.039563,0.044403,-0.068191,10.147675,-14.804596,-2.912491,-120.06625,-0.7299069,0.07772918,-0.24159661,-0.07279848,0.038358208,0.07026853
20231225 09:38:15,0.763858,0.538302,-1.342723,-0.077915,0.055057,-0.099086,10.368572,-14.504929,-2.929855,-117.41691,-0.7419851,0.36724895,-0.13260943,-0.11876111,0.04945688,0.11409664
20231225 09:38:15,0.570852,0.884195,-1.178762,-0.115202,0.080625,-0.127850,10.774128,-14.093788,-3.220612,-112.81347,-0.7065209,0.81973666,0.1292557,-0.16445924,0.077882014,0.16126232
20231225 09:38:15,0.252709,1.135709,-0.747680,-0.132248,0.111520,-0.136373,10.447071,-14.399834,-3.337845,-113.11309,-0.52660596,1.149506,0.47604442,-0.1868377,0.112378016,0.19393694
20231225 09:38:15,-0.048123,1.229259,-0.296693,-0.112006,0.146677,-0.122523,10.341293,-14.598106,-3.192001,-115.81733,-0.3306513,1.239637,0.72142065,-0.17061076,0.14869861,0.19565551
20231225 09:38:15,-0.151383,1.119951,0.174742,-0.048085,0.180768,-0.096955,10.262798,-14.703201,-2.784004,-120.606384,0.006561458,1.1069456,0.6369909,-0.11395042,0.18306114,0.15941885
20231225 09:38:15,-0.020163,0.872617,0.488288,0.053123,0.213794,-0.072452,10.623909,-14.959038,-2.763710,-122.356285,0.35872227,0.8626535,0.30501708,-0.029393535,0.21590978,0.09104408
20231225 09:38:15,0.197203,0.588291,0.544213,0.173507,0.263865,-0.057537,10.448219,-14.975494,-2.496437,-124.99141,0.55704224,0.59250456,-0.05138704,0.06398304,0.2617372,0.015996195
20231225 09:38:15,0.473764,0.416933,0.406531,0.287499,0.316067,-0.061799,10.675900,-15.330887,-2.872879,-124.94878,0.6301806,0.41821814,-0.30949986,0.1411483,0.3020867,-0.04872939
20231225 09:38:15,0.709969,0.285216,0.117441,0.365270,0.354420,-0.080975,10.324135,-15.171921,-2.618813,-125.27549,0.529016,0.2604488,-0.4776267,0.17057352,0.33258098,-0.098169655
20231225 09:38:15,0.755694,0.455926,-0.069549,0.400426,0.361877,-0.103347,10.544647,-14.680359,-2.916656,-121.20459,0.39579004,0.41728887,-0.38654792,0.16254915,0.33678332,-0.1277699
20231225 09:38:15,0.737739,0.742276,-0.361941,0.370596,0.313936,-0.115066,10.545033,-14.872253,-2.636177,-120.07769,0.12367943,0.6942086,-0.19321701,0.115404114,0.29370415,-0.14154726
20231225 09:38:15,0.748189,0.913893,-0.552341,0.272584,0.227643,-0.122523,10.429905,-14.973648,-2.764687,-119.57769,-0.02393803,0.8349921,-0.10130285,0.050803065,0.20527135,-0.103247456
20231225 09:38:15,0.904951,0.881001,-0.774667,0.158592,0.173311,-0.142765,10.278542,-15.263237,-3.149200,-118.47788,-0.14640826,0.768123,-0.2183913,-0.030119523,0.15284993,-0.028368317
20231225 09:38:15,0.881090,0.882704,-0.829248,0.046730,0.171180,-0.169399,10.887833,-15.126236,-2.884140,-116.2968,-0.24845138,0.8463363,-0.17732319,-0.11813484,0.16583495,0.07475948
20231225 09:38:15,0.310680,0.926676,-0.480067,-0.060870,0.166918,-0.177921,10.560776,-15.432281,-3.001373,-116.49176,-0.28679526,0.95956635,0.29425663,-0.19120961,0.17374852,0.17357358
20231225 09:38:15,-0.051726,1.037768,0.043263,-0.157816,0.125370,-0.158745,10.579086,-15.434135,-2.733147,-118.58843,-0.077146165,1.0265013,0.5442873,-0.22953007,0.12889567,0.23518759
20231225 09:38:15,-0.202694,1.149149,0.490854,-0.239848,0.074233,-0.125719,10.639652,-15.519081,-3.128906,-118.672676,0.17611495,1.0860229,0.6157998,-0.24807891,0.06965117,0.26796156
20231225 09:38:15,-0.251711,1.204872,0.830528,-0.296312,0.031619,-0.074583,10.172382,-15.269615,-3.283813,-120.778534,0.40353584,1.1130733,0.57027495,-0.24136332,0.018823165,0.27518648
20231225 09:38:15,-0.184595,1.052694,1.120141,-0.308030,0.023096,-0.037296,10.023968,-15.192909,-2.754410,-124.69912,0.67433244,0.9577315,0.28692114,-0.22469205,0.007823685,0.26444343
20231225 09:38:15,-0.175291,0.912662,1.409191,-0.271809,0.049730,-0.015989,10.629925,-15.230316,-3.683731,-122.095695,0.8876207,0.80328834,0.14879096,-0.19274524,0.03476209,0.23903967
20231225 09:38:15,-0.237194,0.638876,1.586518,-0.207888,0.094475,-0.001074,10.833656,-15.504471,-3.127930,-125.20103,0.9548567,0.5007055,-0.09057963,-0.14839593,0.07980805,0.20578974
20231225 09:38:15,-0.323910,0.402191,1.759585,-0.120529,0.128566,0.019168,10.305054,-14.786293,-3.447998,-124.97088,1.0120772,0.23766568,-0.23353308,-0.07938508,0.117309466,0.15236302
20231225 09:38:15,-0.312060,0.105685,1.697937,-0.075785,0.145611,0.030887,10.515182,-15.523605,-3.531769,-126.88284,0.98210883,-0.039073043,-0.4302124,-0.041493364,0.13731234,0.122652054
20231225 09:38:15,-0.256002,-0.061079,1.606497,0.057384,0.203140,0.074566,10.754395,-15.225792,-3.280884,-127.08301,0.94924456,-0.16551247,-0.542158,0.08168557,0.20155725,0.042740002
20231225 09:38:15,0.012929,-0.675850,1.393939,0.151135,0.258538,0.074566,10.529007,-15.124207,-5.299316,-123.657364,1.0035735,-0.73649216,-0.97158194,0.14890522,0.2617114,0.020637406
20231225 09:38:15,0.090701,-1.105832,1.147598,0.250212,0.318198,0.050063,10.516602,-14.389755,-3.739731,-125.98974,0.89970046,-1.1490932,-1.2036483,0.20253609,0.32686877,-0.0058130976
20231225 09:38:15,0.020948,-1.428027,0.905223,0.343963,0.369335,0.013841,10.189545,-14.695801,-3.856979,-127.10355,0.7254046,-1.4784771,-1.2400655,0.23593451,0.39024532,-0.027833119
20231225 09:38:15,-0.222746,-1.709105,0.565665,0.413210,0.389576,-0.006400,10.507637,-14.484772,-3.733612,-125.16275,0.38737923,-1.7691596,-1.0973859,0.25823787,0.42816553,-0.050391752
20231225 09:38:15,-0.308745,-1.848368,0.441339,0.422798,0.366138,-0.018119,10.577168,-14.474693,-4.135498,-123.16571,0.26606044,-1.9045272,-1.0649492,0.25409827,0.40695366,-0.06868916
20231225 09:38:15,-0.261631,-1.866294,0.117843,0.390838,0.284107,-0.030903,10.514412,-15.139832,-4.092697,-122.45099,0.13369921,-1.8843054,-0.9323541,0.21094407,0.32888567,-0.10887384
20231225 09:38:15,-0.426816,-1.837730,-0.439313,0.293891,0.221251,-0.040492,10.013470,-14.520370,-3.870178,-119.550934,-0.31194663,-1.7856542,-0.5853621,0.12790947,0.26338878,-0.08221359
20231225 09:38:15,-0.501328,-1.680496,-0.459199,0.147939,0.161592,-0.036230,10.250881,-15.164520,-3.691803,-121.29682,-0.4240123,-1.645301,-0.4037841,0.04631491,0.18246906,-0.0093166195
20231225 09:38:15,-0.376590,-1.350377,-0.225736,0.012639,0.095540,-0.041557,10.453079,-14.671112,-4.257874,-116.97263,-0.21718642,-1.339441,-0.42682558,-0.03672088,0.10137458,0.05777406
20231225 09:38:15,-0.417137,-1.255624,-0.169611,-0.053412,0.084887,-0.044753,10.726345,-14.935188,-4.103958,-117.85307,-0.20888093,-1.2592416,-0.35984945,-0.08095209,0.08293881,0.10320729
20231225 09:38:15,-0.596584,-1.039343,0.243145,-0.161012,0.074233,-0.036230,10.250496,-14.972633,-3.972260,-121.55427,-0.068527326,-1.1365461,-0.24155954,-0.14593495,0.05589473,0.17437673
20231225 09:38:15,-0.751216,-0.649943,1.004837,-0.266482,0.023096,0.006384,10.559238,-14.664734,-4.123276,-120.848656,0.28681812,-0.89583635,-0.20114595,-0.18349741,-0.01694281,0.20372744
20231225 09:38:15,-0.788130,-0.560045,1.098304,-0.294181,0.001789,0.021299,10.871323,-14.182426,-3.079880,-121.19298,0.30977088,-0.8269023,-0.16053072,-0.18955743,-0.04408692,0.20509413
20231225 09:38:15,-0.803152,-0.373540,1.274303,-0.339991,-0.034432,0.046867,10.127174,-15.552826,-3.533722,-126.505516,0.39745957,-0.66146135,-0.15437886,-0.19753285,-0.087693416,0.20661573
20231225 09:38:15,-0.788364,-0.235500,1.331886,-0.352775,-0.041890,0.062847,9.976192,-16.034309,-3.637756,-127.83229,0.4363376,-0.5305662,-0.12000832,-0.19247761,-0.098423116,0.2062357
20231225 09:38:15,-0.817434,-0.100200,1.265103,-0.313357,0.008182,0.072435,10.427338,-15.531845,-3.398117,-124.322556,0.36635375,-0.4249602,0.059003085,-0.16236372,-0.050695125,0.20678496
20231225 09:38:15,-1.038581,0.052835,1.135300,-0.183385,0.150938,0.086285,10.348457,-15.445045,-3.270599,-124.14668,0.09421885,-0.3335925,0.36106935,-0.09065877,0.099194646,0.18665908
20231225 09:38:15,-1.257469,0.061379,1.044918,-0.069392,0.240427,0.111853,10.426571,-15.148064,-3.959061,-120.525246,-0.11427033,-0.37884784,0.6086494,-0.015141837,0.19645554,0.1524637
20231225 09:38:15,-1.253101,0.055815,0.948423,-0.011864,0.270257,0.126768,10.435535,-15.053047,-3.965179,-119.81456,-0.16965073,-0.3579287,0.64858943,0.029287279,0.23320006,0.1234941
20231225 09:38:15,-1.117033,-0.001125,0.640716,0.086148,0.302218,0.155532,10.145756,-13.845154,-4.314850,-113.797455,-0.2549622,-0.31505293,0.68058914,0.11069612,0.2757924,0.07337746
20231225 09:38:15,-0.907846,-0.144776,0.197650,0.152200,0.306479,0.173643,10.062649,-11.647591,-7.272522,-89.27073,-0.39024758,-0.31119108,0.6201984,0.17024177,0.28820345,0.07389764
20231225 09:38:15,-0.377467,-0.424460,-0.488832,0.200141,0.288368,0.171513,10.538120,-11.418251,-7.684677,-83.53906,-0.5486536,-0.38568532,0.028321039,0.21161026,0.2795991,0.015936168
20231225 09:38:15,-0.234056,-0.502261,-0.716100,0.188422,0.254277,0.149140,10.513412,-10.953239,-7.313354,-84.31111,-0.6628576,-0.4369812,-0.12944728,0.20059954,0.24983093,-0.0041106613
20231225 09:38:15,0.063970,-0.618754,-0.974411,0.171376,0.229774,0.133160,10.379974,-11.052780,-7.710098,-82.25044,-0.70626706,-0.5113931,-0.466672,0.18187612,0.22618109,-0.006098957
20231225 09:38:15,0.311493,-0.608931,-1.312087,0.074430,0.147742,0.080958,10.059597,-11.010014,-5.438568,-92.799484,-0.89952666,-0.4940235,-0.55197114,0.09675389,0.1445804,0.012695007
20231225 09:38:15,0.322416,-0.589587,-1.291569,0.032881,0.120043,0.063913,10.551460,-9.823078,-6.984833,-81.69872,-0.87271833,-0.47537374,-0.6830598,0.062404297,0.116337284,0.040386416
20231225 09:38:15,0.279881,-0.528902,-1.191961,-0.052347,0.073168,0.029821,10.125641,-14.785271,-4.655594,-109.11476,-0.7934056,-0.4059446,-0.29417154,-0.010175038,0.06717865,0.0762883
20231225 09:38:15,0.120847,-0.420905,-0.890331,-0.112006,0.042273,0.009580,10.003738,-14.231613,-4.425003,-110.83906,-0.59224427,-0.2949581,-0.14286539,-0.062855765,0.030633831,0.11204344
20231225 09:38:15,-0.183776,-0.288403,-0.359987,-0.159947,-0.020583,-0.006400,10.434380,-14.477371,-4.806595,-110.09041,-0.35324115,-0.25277233,0.058507584,-0.09822582,-0.036234006,0.11758469
20231225 09:38:15,-0.267625,-0.297649,-0.289382,-0.166339,-0.032302,-0.009596,10.418640,-13.917336,-4.441391,-110.5893,-0.3453266,-0.2805295,0.10356242,-0.10448719,-0.04909208,0.11517237
20231225 09:38:15,-0.445154,-0.260711,0.174889,-0.133313,-0.033367,-0.013858,9.949181,-14.417953,-4.949280,-113.75953,-0.11003861,-0.33508247,0.14952782,-0.089913934,-0.046714365,0.087518536
20231225 09:38:15,-0.492883,-0.277910,0.315214,-0.112006,-0.035498,-0.015989,9.879803,-10.817104,-6.926636,-93.6194,-0.049683765,-0.3821565,0.17644192,-0.08016311,-0.046821542,0.061856944
20231225 09:38:15,-0.552418,-0.297363,0.523724,-0.061935,-0.053609,-0.018119,10.357304,-13.448616,-4.606583,-112.765854,0.06893265,-0.44121116,0.10365,-0.046068627,-0.057884935,0.018870536
20231225 09:38:15,-0.572118,-0.267419,0.532578,-0.002276,-0.063197,-0.020250,9.913322,-14.798027,-4.924820,-116.667404,0.067938596,-0.4254812,0.12523706,-0.006373916,-0.05882449,-0.02901219
20231225 09:38:15,-0.625424,-0.322139,0.335505,0.039273,-0.065327,-0.022381,10.259075,-14.685722,-4.258850,-116.984215,-0.101407945,-0.45363608,0.19417839,0.019121394,-0.054948766,-0.06101697
