Timestamp,linacce_x,linacce_y,linacce_z,gyro_x,gyro_y,gyro_z,X-magnetometer,Y-magnetometer,Z-magnetometer,Yaw, worldXAccel,worldYAccel,worldZAccel,worldXgyro,worldYgyro,worldZgyro
20231225 09:29:21,1.710693,-0.098712,-0.782771,0.206907,-0.003516,-0.131612,25.211239,-21.706192,-24.417328,-97.91421,0.67673296,-0.6152876,-1.1910046,0.058864594,-0.073985815,-0.13446614
20231225 09:29:21,1.587864,0.202842,-0.711808,0.170685,0.003942,-0.207252,25.759964,-21.484253,-23.756500,-96.53719,0.66222465,-0.23097926,-0.9336676,-0.022070885,-0.06658981,-0.10237082
20231225 09:29:21,1.297507,0.444885,-0.564001,0.144052,0.018857,-0.270107,25.636257,-21.872551,-23.598419,-94.594666,0.5667644,0.15428603,-0.6010138,-0.088388704,-0.04494212,-0.076266505
20231225 09:29:21,0.889114,0.670148,-0.329839,0.135529,0.041229,-0.306329,26.042194,-21.653297,-23.608688,-91.192635,0.44363478,0.54629844,-0.1768555,-0.12207419,-0.0026217327,-0.06529596
20231225 09:29:21,0.451203,0.808717,0.023058,0.154705,0.045490,-0.311656,26.308304,-21.070419,-23.376144,-88.93623,0.37735027,0.78224343,0.239989,-0.11244084,0.018785529,-0.08331832
20231225 09:29:21,0.114901,0.832185,0.208181,0.183470,0.027379,-0.292480,25.529716,-21.687057,-24.013504,-87.67295,0.25383738,0.8342966,0.508133,-0.07833335,0.013086031,-0.11972987
20231225 09:29:21,-0.000799,0.675923,0.302794,0.215430,0.003942,-0.261585,26.227234,-21.733704,-23.601593,-89.417404,0.22751975,0.6830079,0.4864177,-0.028352395,-0.007987229,-0.1495659
20231225 09:29:21,-0.009913,0.475329,0.364773,0.252717,-0.032280,-0.240278,25.911716,-21.386543,-23.091507,-91.10035,0.258323,0.48679212,0.34702572,0.017681107,-0.048442908,-0.19373254
20231225 09:29:21,0.104630,0.233072,0.288711,0.291070,-0.073829,-0.238147,25.840763,-22.530479,-22.481659,-94.72812,0.2824139,0.23980716,0.08128291,0.048037976,-0.0960221,-0.23782952
20231225 09:29:21,0.205458,-0.095026,0.117286,0.313442,-0.097266,-0.247735,25.946922,-22.524101,-22.347061,-95.67339,0.22652182,-0.09949194,-0.21694209,0.060493708,-0.12265684,-0.26476923
20231225 09:29:21,0.219100,-0.326940,0.108947,0.333684,-0.096201,-0.255192,26.245934,-21.927444,-23.052872,-94.739845,0.22281829,-0.3320231,-0.39601707,0.07768628,-0.12198056,-0.27687892
20231225 09:29:21,0.209648,-0.478649,0.310565,0.373102,-0.100462,-0.260519,26.470436,-19.743843,-22.925247,-92.20103,0.34334606,-0.47544807,-0.508618,0.110238254,-0.12593265,-0.3114698
20231225 09:29:21,0.238321,-0.600332,0.531621,0.434892,-0.120704,-0.274369,26.132614,-21.086876,-23.108871,-96.00068,0.49509862,-0.5894761,-0.6569147,0.16025682,-0.15320642,-0.34499052
20231225 09:29:21,0.282714,-0.807409,0.456969,0.525446,-0.150534,-0.319113,26.069088,-21.368233,-23.627029,-96.16158,0.46983004,-0.80047435,-0.8402406,0.20188761,-0.193989,-0.41998824
20231225 09:29:21,0.318501,-1.010623,0.264800,0.630916,-0.159056,-0.396884,26.105717,-21.371933,-23.090530,-96.6618,0.3681562,-1.0137646,-1.0036557,0.23269516,-0.21156661,-0.48482522
20231225 09:29:21,0.177352,-1.163622,0.050632,0.759823,-0.128161,-0.495961,26.309071,-21.454193,-22.815201,-94.60346,0.14644529,-1.1661104,-1.0037385,0.2583351,-0.15415585,-0.5573837
20231225 09:29:21,-0.280453,-1.081895,-0.157220,0.923887,-0.064240,-0.581189,26.476563,-21.916542,-22.515411,-89.11345,-0.2582717,-1.086343,-0.60860586,0.29139328,0.015605155,-0.6790143
20231225 09:29:21,-1.099564,-0.788790,-0.449980,1.095408,0.010334,-0.625934,26.645477,-21.245018,-22.423599,-76.48944,-0.9554156,-0.8700621,0.17380579,0.33059287,0.28525722,-0.8771365
20231225 09:29:21,-2.021291,-0.501463,-0.832189,1.223249,0.061471,-0.599300,26.407417,-22.118507,-21.833069,-64.31016,-1.7814269,-0.7471204,0.9548786,0.39225912,0.5443549,-1.0446411
20231225 09:29:21,-2.699562,-0.373313,-1.530476,1.229641,0.046556,-0.509811,26.698231,-22.000648,-21.971832,-42.11522,-2.5334103,-0.56304944,1.2659407,0.40061352,0.6543801,-1.1811247
20231225 09:29:21,-3.002163,-0.115125,-2.486520,1.078362,-0.010973,-0.391557,26.901966,-22.274796,-21.416031,-24.051062,-3.1810555,0.20555234,1.2689239,0.33520293,0.57036173,-1.1026192
20231225 09:29:21,-2.862764,0.349558,-3.347914,0.785391,-0.104724,-0.273303,26.893002,-22.369820,-21.409912,-11.491097,-3.6187158,1.4925112,1.1900483,0.22978108,0.33481145,-0.83294886
20231225 09:29:21,-2.341365,0.956769,-4.022570,0.383755,-0.195278,-0.171030,27.280628,-22.148705,-21.688431,-8.024022,-4.064887,2.8575218,0.99045837,0.14097929,0.06625615,-0.42643356
20231225 09:29:21,-1.701518,1.570444,-4.597194,-0.072214,-0.209128,-0.102848,26.644825,-22.762650,-21.654678,-13.782042,-4.814872,3.8065324,0.70053375,0.035713203,-0.10813189,0.035306916
20231225 09:29:21,-1.024017,2.128504,-4.659499,-0.530314,-0.129227,-0.077279,26.644054,-22.378876,-22.215637,-32.83457,-5.2191496,3.61265,0.40616602,-0.13599664,-0.13420735,0.48886183
20231225 09:29:21,-0.593567,2.570485,-3.972781,-0.917035,0.027379,-0.095390,26.768528,-22.374344,-21.812775,-49.110207,-4.3894114,3.262253,0.36362422,-0.37518126,-0.012717865,0.8601504
20231225 09:29:21,-0.735741,2.752470,-2.601076,-1.149281,0.186116,-0.123089,27.279858,-21.764923,-22.249390,-54.28493,-3.1577911,3.1356444,0.97466207,-0.6471693,0.09356178,1.068617
20231225 09:29:21,-1.335771,2.554960,-1.035310,-1.208940,0.370422,-0.136939,27.325451,-21.673607,-21.718994,-61.963436,-2.1446264,2.4855528,2.1047244,-0.87819296,0.20223835,1.1435714
20231225 09:29:21,-1.983521,2.071213,0.502212,-1.131170,0.524897,-0.118828,27.360542,-20.909752,-22.304398,-69.57291,-1.4438094,1.4747641,2.893464,-0.96585417,0.30107754,1.1355112
20231225 09:29:21,-2.596656,1.496763,1.707277,-0.959649,0.571772,-0.050646,27.642391,-20.886917,-22.437057,-78.11271,-1.1943601,0.45541796,3.0773094,-0.8717242,0.32690257,1.0453771
20231225 09:29:21,-2.956219,1.128999,2.715989,-0.707161,0.536616,0.076131,27.775059,-20.403587,-22.601242,-83.35661,-0.9815043,-0.17775631,2.9419348,-0.6183086,0.32013482,0.8608714
20231225 09:29:21,-2.943017,0.894168,3.282933,-0.380100,0.448192,0.243390,27.608334,-20.325020,-22.340103,-88.185196,-0.6962291,-0.37064826,2.5303416,-0.24661495,0.30114025,0.5919148
20231225 09:29:21,-2.467445,0.507082,3.226808,-0.015751,0.341657,0.394670,27.608719,-20.516914,-22.059631,-89.95337,-0.20129299,-0.42522323,1.8721365,0.16685487,0.27402824,0.28486815
20231225 09:29:21,-1.653229,0.315508,2.368902,0.326226,0.277736,0.487355,27.732426,-20.128616,-22.217712,-87.393745,0.15610063,-0.14852692,1.3703481,0.5272255,0.2649781,0.02698296
20231225 09:29:21,-0.793105,0.075221,1.356788,0.601086,0.246841,0.522512,27.609871,-21.092583,-21.218216,-89.909004,0.30485475,-0.06154084,0.5863463,0.77990174,0.2549143,-0.21605006
20231225 09:29:21,-0.158356,-0.260711,0.135694,0.826940,0.299043,0.478832,27.485783,-21.289001,-21.340591,-88.483185,-0.010426082,-0.26433527,-0.066484205,0.91668606,0.3031567,-0.37336752
20231225 09:29:21,0.584798,-0.208981,0.082072,1.002722,0.300109,0.417042,27.625614,-21.652618,-21.583405,-94.74538,0.45856124,-0.2462769,-0.5633171,1.0282875,0.2531149,-0.51424104
20231225 09:29:21,1.323303,-1.019357,-0.440040,1.024029,0.095562,0.385082,27.811420,-22.116806,-21.015381,-101.62371,0.4929506,-1.2948456,-1.571535,1.0150428,-0.022635452,-0.6948531
20231225 09:29:21,1.850588,-2.093630,-1.482049,0.944128,-0.019496,0.238064,27.617416,-22.131416,-21.016357,-104.11986,-0.21620971,-2.7850003,-2.4896512,0.81584626,-0.1903428,-0.7274757
20231225 09:29:21,2.001668,-1.897895,-2.121578,0.816286,-0.119639,0.026059,27.494095,-22.711609,-20.577805,-103.02305,-0.9355556,-2.9132204,-2.422811,0.47636387,-0.30251172,-0.72266304
20231225 09:29:21,1.912830,-1.305801,-2.838475,0.654353,-0.195278,-0.177422,27.211864,-22.542564,-20.725616,-99.984215,-1.6274194,-2.6344514,-2.0419822,0.14200482,-0.38837042,-0.63998914
20231225 09:29:21,1.528113,-1.023580,-3.427684,0.448741,-0.237892,-0.357466,27.988647,-22.867905,-20.160767,-92.19744,-2.6459215,-2.310285,-1.7578913,-0.2024987,-0.4054159,-0.50097984
20231225 09:29:21,0.876733,-0.538459,-3.677367,0.216495,-0.196344,-0.483177,27.988647,-22.867905,-20.160767,-73.61843,-3.174249,-0.8514336,-1.3617369,-0.39177436,-0.23997468,-0.31576136
20231225 09:29:21,-0.075237,0.101431,-3.639697,0.006622,-0.147338,-0.533248,27.696682,-22.410095,-20.863403,-52.068764,-3.296665,0.9643141,-0.7613288,-0.4372517,-0.01356408,-0.17709044
20231225 09:29:21,-1.173087,0.754880,-3.210754,-0.163834,-0.136684,-0.515137,28.033470,-22.392807,-20.191330,-37.693752,-3.3645287,1.8365649,0.1699642,-0.41487798,0.07527165,-0.062250003
20231225 09:29:21,-2.160005,1.113483,-2.598592,-0.281022,-0.150534,-0.448020,27.928078,-22.782959,-19.764999,-31.880974,-3.4562209,1.6151507,1.0928943,-0.3735587,0.02964072,0.020263895
20231225 09:29:21,-2.921700,1.301098,-2.335356,-0.360923,-0.147338,-0.340420,28.200581,-22.663254,-20.172012,-29.518742,-3.7849002,1.2749376,1.7315726,-0.33738694,-0.054011703,0.108975604
20231225 09:29:21,-3.249931,1.399318,-1.872333,-0.413125,-0.161187,-0.207252,28.094807,-22.861526,-20.026138,-36.25043,-3.7572098,0.96010506,2.3091764,-0.28933716,-0.16500983,0.1950789
20231225 09:29:21,-3.046303,1.347118,-1.428498,-0.449347,-0.197409,-0.064495,27.990833,-22.117821,-19.807785,-49.09504,-3.3252692,0.86385477,2.526449,-0.22668433,-0.27524596,0.25425056
20231225 09:29:21,-2.358982,1.110232,-0.894814,-0.455739,-0.254938,0.047366,27.821804,-20.887932,-21.229462,-59.87676,-2.4034288,0.79226124,2.1864274,-0.17040314,-0.34799775,0.24336171
20231225 09:29:21,-1.393038,0.813752,-0.376634,-0.418452,-0.314597,0.108091,27.504097,-21.290848,-21.072357,-72.73688,-1.2836182,0.6841291,1.503572,-0.12995842,-0.37664878,0.15934555
20231225 09:29:21,-0.651481,0.643878,-0.209791,-0.325767,-0.333774,0.100634,27.795296,-21.364883,-20.930649,-78.76436,-0.6246082,0.61424726,0.87795085,-0.0994149,-0.36181766,0.060019154
20231225 09:29:21,-0.295753,0.692510,-0.301032,-0.198990,-0.303944,0.061216,27.291397,-21.111717,-21.622040,-76.244255,-0.46813968,0.69493294,0.60093683,-0.050999455,-0.31820756,-0.013448187
20231225 09:29:21,-0.420342,0.938269,-0.497133,-0.067953,-0.232565,0.016471,27.503712,-21.098969,-21.352814,-73.04863,-0.7438152,0.9501107,0.78387624,-0.0027686376,-0.23752037,-0.07384219
20231225 09:29:21,-0.721270,1.105811,-0.623622,0.040713,-0.195278,-0.021881,27.501141,-21.657150,-21.986267,-68.24549,-1.0863729,1.1025515,1.0498209,0.03596374,-0.18405165,-0.14342248
20231225 09:29:21,-1.093566,1.273306,-0.734882,0.138725,-0.199540,-0.043188,27.504097,-21.290848,-21.072357,-64.19241,-1.4622762,1.2321798,1.3691342,0.08395895,-0.16564561,-0.22649956
20231225 09:29:21,-1.325738,1.422032,-0.948730,0.231410,-0.214455,-0.041058,27.407669,-21.585991,-20.652130,-62.430717,-1.8139826,1.3852487,1.5589316,0.14307025,-0.16266623,-0.30836615
20231225 09:29:21,-1.295640,1.198989,-1.150988,0.291070,-0.237892,-0.032535,27.354263,-22.347992,-20.334976,-65.24728,-1.8944392,1.2227778,1.4157491,0.18374285,-0.18329865,-0.3694219
20231225 09:29:21,-1.048440,0.834875,-1.270401,0.297462,-0.300748,-0.021881,27.502678,-22.424706,-20.864380,-68.14418,-1.7540205,0.9128834,1.0408721,0.19550976,-0.25912285,-0.40662044
20231225 09:29:21,-0.627902,0.450556,-1.346889,0.263371,-0.405152,-0.028273,27.078426,-22.642113,-21.122345,-73.980125,-1.5005037,0.52597976,0.5557371,0.1572815,-0.38588658,-0.43993512
20231225 09:29:21,-0.111505,0.275322,-1.509636,0.221822,-0.509556,-0.068757,27.105320,-22.357056,-21.140686,-77.312416,-1.33597,0.2864172,0.06033063,0.06489085,-0.50791556,-0.4619586
20231225 09:29:21,0.207356,0.242006,-1.816168,0.169620,-0.574542,-0.138004,27.221863,-21.121803,-21.220169,-76.759834,-1.4530644,0.16793783,-0.2700247,-0.055426463,-0.5830169,-0.44442314
20231225 09:29:21,0.331453,0.310742,-2.176440,0.087588,-0.586261,-0.216840,27.043987,-21.888336,-21.305862,-75.69114,-1.7475059,0.19648668,-0.40385413,-0.17831352,-0.59812224,-0.3694435
20231225 09:29:21,0.219880,0.633535,-2.295712,-0.000836,-0.567085,-0.311656,27.564663,-21.375793,-21.468124,-71.31468,-1.9442735,0.625572,-0.25734344,-0.2800202,-0.56810975,-0.28813964
20231225 09:29:21,-0.114549,1.097247,-2.169872,-0.074345,-0.538320,-0.412864,27.421494,-21.186584,-22.419693,-61.41396,-2.0972352,1.3078163,0.06971422,-0.3452653,-0.49597564,-0.22956571
20231225 09:29:21,-0.785510,1.767418,-1.865144,-0.118024,-0.488249,-0.482112,26.921318,-20.950897,-21.636230,-53.52211,-2.3672662,2.0421867,0.84102696,-0.35526526,-0.37474358,-0.20843995
20231225 09:29:21,-1.702803,2.476169,-1.396205,-0.113763,-0.427524,-0.502353,27.166924,-21.116257,-22.024902,-45.55589,-2.785668,2.4318976,1.8711381,-0.31766182,-0.24920602,-0.22453803
20231225 09:29:21,-2.427191,2.666049,-0.925231,-0.084998,-0.388106,-0.473589,27.157188,-20.827492,-22.579727,-42.809803,-2.985856,2.1713853,2.654962,-0.26316106,-0.19634016,-0.25808096
20231225 09:29:21,-2.839895,2.523592,-0.426811,-0.039188,-0.391302,-0.409668,26.938862,-20.568970,-21.928925,-47.225147,-2.8251247,1.738292,3.2228768,-0.18943255,-0.22033331,-0.29174727
20231225 09:29:21,-2.784271,2.373331,0.095672,0.031125,-0.439243,-0.337224,27.368736,-20.430954,-22.871460,-52.08798,-2.3319056,1.5223056,3.385676,-0.0959011,-0.29588777,-0.35870558
20231225 09:29:21,-2.498116,2.094029,0.347620,0.144052,-0.485053,-0.281826,27.201630,-20.160507,-22.890762,-55.720398,-1.8162367,1.3675151,3.154382,0.00642249,-0.3516748,-0.4539073
20231225 09:29:21,-2.204433,2.070147,0.254545,0.312377,-0.471203,-0.233885,26.895840,-20.102104,-21.825851,-57.401516,-1.62984,1.4872645,2.8888295,0.12475087,-0.32857096,-0.55978554
20231225 09:29:21,-2.063163,2.125506,-0.032750,0.524381,-0.387041,-0.205121,26.956409,-20.187050,-22.221619,-52.681015,-1.7829019,1.6131468,2.6451983,0.24391134,-0.2058216,-0.6765675
20231225 09:29:21,-2.287770,2.116884,-0.537135,0.725732,-0.229369,-0.185945,26.522808,-20.307587,-22.753952,-43.248016,-2.3852818,1.6022894,2.4970956,0.32998133,0.018240266,-0.7686628
20231225 09:29:21,-2.737659,2.209482,-0.598375,0.830136,-0.117508,-0.139070,26.992268,-19.806969,-22.246063,-40.30045,-2.8057842,1.4892367,2.821045,0.39963853,0.16197509,-0.79328334
20231225 09:29:21,-2.963579,2.292796,-0.495454,0.820548,-0.153730,-0.036796,27.232632,-20.084808,-21.153778,-42.348236,-2.881109,1.4639579,3.1280913,0.47923893,0.08802507,-0.75984514
20231225 09:29:21,-2.855166,2.672510,-0.435764,0.709751,-0.283702,0.124071,26.956409,-20.187050,-22.221619,-41.736225,-2.7792218,1.9545823,3.1966946,0.56410706,-0.14714909,-0.65862125
20231225 09:29:21,-2.177984,2.787581,-0.625759,0.472179,-0.462681,0.288135,26.815540,-21.149178,-21.490372,-52.112946,-2.2895753,2.5177934,2.7798443,0.58747584,-0.45032293,-0.50483054
20231225 09:29:21,-0.973502,2.531887,-0.814289,0.127006,-0.672554,0.389343,26.937057,-21.510941,-22.001419,-66.31519,-1.300155,2.5442412,1.7717423,0.43950194,-0.6885303,-0.3218302
20231225 09:29:21,0.403031,2.473182,-0.914524,-0.236278,-0.817442,0.415977,26.100475,-21.484436,-21.609558,-83.73383,-0.10338503,2.182875,0.74661064,0.08387151,-0.687784,-0.1498632
20231225 09:29:21,1.751815,2.178622,-0.814513,-0.569731,-0.822768,0.355252,25.993549,-21.107033,-22.305130,-95.32675,1.0608774,1.3249844,-0.2785104,-0.31474984,-0.50402355,0.025222534
20231225 09:29:21,2.668479,1.536684,-0.241488,-0.842461,-0.703449,0.176273,25.763302,-21.309837,-22.562103,-100.3804,2.0072298,0.58293724,-1.1304077,-0.6374451,-0.3465374,0.21262276
20231225 09:29:21,2.740520,1.174925,0.722573,-1.021439,-0.529798,-0.055972,25.639599,-21.698151,-22.404022,-99.79265,2.6483085,0.66945136,-1.304179,-0.8616385,-0.28476,0.39979362
20231225 09:29:21,1.788671,0.976854,2.009716,-1.109863,-0.356146,-0.243474,25.807358,-20.450958,-23.153610,-94.24136,2.7605853,0.97265315,-0.60403264,-1.0156057,-0.254926,0.503614
20231225 09:29:21,0.290216,0.757642,3.324716,-1.105602,-0.206997,-0.306329,25.816322,-20.355942,-23.159729,-93.37244,2.2814138,0.7409624,0.26080355,-1.0568042,-0.213164,0.5361605
20231225 09:29:21,-0.921290,0.681364,4.643885,-0.984152,-0.085547,-0.225363,25.445095,-19.619461,-24.015320,-93.860886,1.7989053,0.38317055,0.82074904,-0.9364303,-0.14562134,0.4940029
20231225 09:29:21,-1.530564,0.421827,5.622401,-0.742318,-0.025888,-0.082606,25.763954,-19.792213,-23.331024,-98.43741,1.5816437,-0.013803124,0.44851398,-0.67523175,-0.08624394,0.3748524
20231225 09:29:21,-1.455420,0.037005,5.759684,-0.458935,-0.023757,0.052693,25.763573,-19.600319,-23.611496,-99.30569,1.6515521,-0.31336036,-0.03407246,-0.36805552,-0.059122242,0.20496584
20231225 09:29:21,-0.983521,-0.340552,5.183203,-0.223493,-0.053587,0.135790,25.976654,-19.971336,-22.781342,-101.38289,1.8130317,-0.44871452,-0.6619583,-0.1216398,-0.06165817,0.046279542
20231225 09:29:21,-0.271494,-0.664318,4.177106,-0.066887,-0.089809,0.156032,25.560219,-19.518051,-23.886826,-99.14733,1.9862692,-0.5750456,-0.97112024,0.02496013,-0.08469875,-0.06023661
20231225 09:29:21,0.418920,-0.965269,3.009103,0.001295,-0.122835,0.133660,25.738480,-18.943413,-23.520660,-98.80426,1.9491636,-0.8120263,-1.4089901,0.0672368,-0.113927506,-0.11868879
20231225 09:29:21,0.926635,-1.268677,1.938431,-0.004032,-0.105789,0.082523,25.789696,-18.931488,-24.190781,-98.23168,1.7336359,-1.1894555,-1.7870407,0.033196814,-0.09563449,-0.09293986
20231225 09:29:21,1.190463,-1.369553,1.275540,-0.046646,-0.040803,0.021798,25.696224,-18.860321,-22.856659,-99.050385,1.5448723,-1.381526,-1.9566786,-0.029376619,-0.03033226,-0.0072917966
20231225 09:29:22,1.118833,-1.517405,0.933368,-0.106305,0.072124,-0.025077,25.631935,-18.757896,-23.935730,-97.64816,1.295545,-1.5565586,-1.9749657,-0.09352695,0.08317078,0.12288635
20231225 09:29:22,0.793126,-1.790022,0.921879,-0.162769,0.188247,-0.061299,25.774723,-18.755219,-23.264633,-97.73509,1.0573753,-1.7923188,-2.0101857,-0.15600646,0.19826436,0.25288498
20231225 09:29:22,0.291663,-1.867736,1.143425,-0.162769,0.293716,-0.062364,25.792652,-18.565178,-23.276855,-96.64759,0.8363385,-1.8513402,-1.8159262,-0.16376504,0.29737496,0.33905274
20231225 09:29:22,-0.267149,-2.017787,1.288582,-0.114828,0.356572,-0.029339,26.232647,-18.907814,-23.384094,-96.772484,0.49888086,-2.0476336,-1.6793855,-0.11918981,0.35360703,0.363579
20231225 09:29:22,-0.680566,-2.154457,1.313288,-0.031731,0.385336,0.050562,25.968342,-18.548721,-23.544128,-95.54908,0.18951017,-2.2269568,-1.5615356,-0.012305504,0.38142356,0.3375265
20231225 09:29:22,-0.710594,-2.176968,1.150594,0.054562,0.365095,0.149640,26.135838,-19.011055,-23.244339,-96.06983,0.0886603,-2.239493,-1.5368015,0.11617227,0.3626713,0.2622886
20231225 09:29:22,-0.583805,-2.128115,0.704866,0.104634,0.248972,0.259371,26.366081,-18.808258,-22.987350,-92.74417,-0.02279967,-2.1510305,-1.4002861,0.2334373,0.2470589,0.12918492
20231225 09:29:22,-0.181415,-2.074191,-0.174437,0.089719,0.182920,0.380820,26.021481,-19.496239,-22.811905,-93.89283,-0.3374188,-2.0675638,-1.4826035,0.31688833,0.1938397,0.06500932
20231225 09:29:22,0.545296,-2.171323,-0.706609,0.036452,0.188247,0.482028,26.331375,-19.764008,-22.121490,-99.681145,-0.29594183,-2.304494,-1.9138612,0.34984514,0.24137156,0.05823642
20231225 09:29:22,0.997640,-2.303177,-0.838608,-0.031731,0.226600,0.521446,26.363129,-19.174561,-23.901260,-102.518326,-0.14046785,-2.6086788,-2.253172,0.3137215,0.32790652,0.105702534
20231225 09:29:22,2.203574,-2.606804,-0.619745,-0.108436,0.287324,0.489486,26.224449,-19.386612,-22.817047,-107.90083,0.99784887,-3.262702,-3.1151829,0.21099941,0.4043731,0.16195662
20231225 09:29:22,2.695593,-2.781738,0.053313,-0.165965,0.259625,0.364840,26.163113,-18.917885,-22.982208,-108.716965,1.8377905,-3.4733698,-3.6315546,0.06940983,0.36611187,0.1935513
20231225 09:29:22,2.557619,-2.840435,0.491375,-0.204317,0.203162,0.211430,26.330223,-19.188332,-22.962906,-108.28756,2.0146646,-3.3503535,-3.7261999,-0.051983252,0.28531793,0.20873374
20231225 09:29:22,2.042390,-2.787755,0.914685,-0.192598,0.168005,0.081458,26.153767,-18.821022,-23.256561,-106.075935,1.899369,-3.0367632,-3.5489712,-0.11318247,0.21358024,0.21336496
20231225 09:29:22,1.248137,-2.574467,1.221568,-0.135069,0.161613,0.014341,26.348152,-18.998291,-22.975128,-103.32678,1.5047903,-2.6151092,-3.037608,-0.09857964,0.177452,0.20084223
20231225 09:29:22,0.354059,-2.015220,1.448972,-0.028535,0.168005,0.028190,26.215099,-19.289742,-23.091385,-98.4277,1.0605437,-2.0040314,-2.0440748,-0.0066427803,0.16882314,0.15154694
20231225 09:29:22,-0.585143,-1.431829,1.488029,0.105699,0.175463,0.118745,26.665863,-18.595383,-23.132233,-91.44915,0.44551167,-1.5369706,-0.8623815,0.14627509,0.17633572,0.079850584
20231225 09:29:22,-1.356878,-1.160063,1.271410,0.242064,0.201031,0.272155,26.376198,-19.288910,-22.152054,-89.08191,-0.21239942,-1.4394671,-0.08918638,0.33588088,0.203029,0.017564345
20231225 09:29:22,-1.717738,-0.780437,1.107784,0.366709,0.240449,0.453264,26.349304,-19.573967,-22.133713,-86.10166,-0.5579315,-1.1285475,0.537714,0.5390112,0.23639598,-0.021239752
20231225 09:29:22,-1.605270,-0.712935,0.871809,0.470048,0.275606,0.623720,26.180775,-20.437370,-21.945068,-88.55181,-0.6124487,-0.9451941,0.50349975,0.7338644,0.2676548,-0.07924888
20231225 09:29:22,-0.952148,-0.945316,0.535585,0.538230,0.333134,0.735581,26.322411,-19.859024,-22.115372,-91.36299,-0.3716534,-0.9617505,-0.116299935,0.8826188,0.33210528,-0.10670673
20231225 09:29:22,0.358835,-1.421987,0.417125,0.573387,0.372552,0.764346,26.180775,-20.437370,-21.945068,-103.19359,0.29406846,-1.3759953,-1.3836172,0.968293,0.36524534,-0.20761347
20231225 09:29:22,1.679811,-1.619108,0.116848,0.573387,0.368291,0.598151,25.881382,-20.842140,-21.519699,-104.95109,1.1546102,-1.8938062,-2.28471,0.8633753,0.3303431,-0.18474963
20231225 09:29:22,1.618976,-1.751145,0.369202,0.573387,0.310762,0.434088,26.560204,-20.695061,-21.656525,-104.354935,1.1513389,-1.9791354,-2.4081197,0.76482546,0.24423647,-0.2093523
20231225 09:29:22,1.430968,-1.627246,-0.225088,0.541427,0.284128,0.317965,25.857059,-20.569016,-20.867920,-101.97752,0.64599395,-1.887529,-2.105485,0.65762997,0.22426093,-0.20096165
20231225 09:29:22,1.153292,-1.302944,-0.371103,0.490290,0.242580,0.265763,26.596832,-20.698761,-21.120026,-99.4831,0.3281957,-1.5389566,-1.6811949,0.5732462,0.19238019,-0.20639506
20231225 09:29:22,1.113628,-1.231452,-0.678378,0.407193,0.238318,0.240194,26.368118,-21.669121,-20.255142,-101.48101,0.087751925,-1.5200365,-1.5454663,0.49553025,0.19973406,-0.15901588
20231225 09:29:22,1.118583,-1.159175,-0.577640,0.321965,0.235122,0.213561,26.922470,-21.526566,-20.794815,-100.6308,0.17552513,-1.4322932,-1.5214692,0.41674918,0.2073202,-0.09383589
20231225 09:29:22,1.171030,-0.962234,-0.311001,0.255913,0.230861,0.166685,26.543812,-21.652657,-20.522400,-100.40992,0.44530421,-1.1858058,-1.458371,0.33457097,0.20916447,-0.043108523
20231225 09:29:22,0.946820,-0.652329,0.039219,0.230345,0.231926,0.117679,26.325100,-21.202248,-20.152054,-97.839806,0.60262156,-0.75742584,-1.1328418,0.27411014,0.21393715,-0.015817776
20231225 09:29:22,0.545160,-0.416713,0.325491,0.255913,0.246841,0.086784,26.571472,-21.751373,-19.979797,-96.155014,0.57778966,-0.43068328,-0.7040281,0.26033813,0.23201212,-0.01899889
20231225 09:29:22,0.099650,-0.267879,0.475212,0.325161,0.264952,0.069739,26.632038,-21.836311,-20.375565,-93.2243,0.40009934,-0.2520064,-0.2757673,0.286395,0.25463277,-0.053652167
20231225 09:29:22,-0.201256,-0.260383,0.517641,0.408258,0.295847,0.067608,26.580051,-21.464470,-20.266388,-91.24619,0.23036955,-0.25245792,-0.043385793,0.33514363,0.29220042,-0.08996844
20231225 09:29:22,-0.430336,-0.301409,0.461265,0.503074,0.326742,0.081458,26.808498,-22.203636,-20.081879,-90.4883,0.04659447,-0.30824146,0.10678944,0.39989123,0.32979923,-0.14590149
20231225 09:29:22,-0.510143,-0.326550,0.261463,0.587236,0.357637,0.111287,26.572239,-22.135155,-19.418854,-90.78652,-0.14790986,-0.3315874,0.15490952,0.47518426,0.36056826,-0.19442463
20231225 09:29:22,-0.392243,-0.456669,-0.060887,0.645831,0.364029,0.142182,27.040932,-21.250755,-19.471924,-88.57815,-0.3073868,-0.45214862,0.0032950835,0.53179055,0.3573576,-0.255356
20231225 09:29:22,-0.147923,-0.481408,-0.567490,0.654353,0.365095,0.178404,27.269760,-22.181816,-19.006958,-89.30779,-0.5637917,-0.5026395,-0.17786331,0.55565655,0.34887686,-0.29846162
20231225 09:29:22,0.040269,-0.557981,-1.125391,0.605347,0.355507,0.201842,27.136707,-22.473244,-19.123230,-87.47268,-0.9418562,-0.6339267,-0.37513834,0.53112733,0.34009877,-0.29521832
20231225 09:29:22,-0.011350,-0.453103,-1.449765,0.507335,0.341657,0.230606,26.980099,-22.875336,-18.026779,-87.58859,-1.2595494,-0.54914325,-0.26412332,0.4879418,0.3345609,-0.24224755
20231225 09:29:22,-0.001926,-0.205649,-1.561023,0.403997,0.339526,0.274286,26.897877,-22.962952,-19.093643,-83.392235,-1.3548559,-0.2930078,-0.19312716,0.45994112,0.34085122,-0.16099931
20231225 09:29:22,-0.076820,0.037955,-1.569476,0.327292,0.390663,0.336076,27.295620,-23.222488,-18.536865,-85.2468,-1.3815979,-0.051787112,0.018687755,0.4786387,0.39802378,-0.067200094
20231225 09:29:22,-0.005186,0.096632,-1.289428,0.278286,0.442865,0.390408,27.517670,-23.498489,-17.712814,-87.53588,-1.0916104,0.030334711,0.02606966,0.5006094,0.45325336,0.0055058403
20231225 09:29:22,0.103916,0.078885,-1.068426,0.270828,0.516374,0.433022,27.420094,-23.217964,-18.134003,-91.25041,-0.8204603,-0.043845586,-0.030836448,0.56308216,0.53952146,0.051555376
20231225 09:29:22,0.276327,0.028054,-0.919842,0.285743,0.582426,0.449003,27.735996,-23.757011,-18.363617,-89.88266,-0.6170886,-0.06838985,-0.21815792,0.58123386,0.60249203,0.07557846
20231225 09:29:22,0.011207,0.088943,-1.079115,0.281482,0.636759,0.453264,27.835377,-23.095573,-17.869919,-86.961174,-0.9049351,0.031762596,0.0071251504,0.56624377,0.65017945,0.10834734
20231225 09:29:22,-0.129496,0.143311,-1.042999,0.254848,0.643151,0.483094,27.287422,-23.701286,-17.969803,-87.241554,-0.9442662,0.100267395,0.1591034,0.5727104,0.65664405,0.1386041
20231225 09:29:22,-0.082318,-0.034721,-1.124266,0.207973,0.598406,0.512923,27.660839,-23.687698,-16.761246,-84.90245,-1.0259978,-0.06570305,0.007576797,0.5667109,0.6095462,0.1259037
20231225 09:29:22,-0.022096,-0.309640,-1.383402,0.117418,0.576034,0.544884,27.320709,-23.879402,-18.627701,-93.268196,-1.1880627,-0.49027938,-0.10982846,0.589762,0.63131267,0.20530452
20231225 09:29:22,0.825365,-0.742080,-1.157746,0.011949,0.432212,0.522512,27.528172,-24.171028,-16.597031,-103.87215,-0.6439726,-1.1562645,-0.93188286,0.5313809,0.54555404,0.15473346
20231225 09:29:22,1.174689,-0.505971,-1.582471,-0.050907,0.389598,0.402127,27.765579,-24.815170,-16.418655,-102.88537,-0.82559377,-1.123229,-1.0809982,0.41033834,0.49018544,0.19221717
20231225 09:29:22,0.900425,-0.126189,-1.731244,-0.119089,0.404513,0.303050,27.104305,-24.580322,-16.574524,-97.91642,-1.0658985,-0.659565,-0.7380132,0.29770914,0.47798148,0.2755076
20231225 09:29:22,0.654603,0.170371,-1.791954,-0.186206,0.484414,0.250848,27.519588,-24.457939,-16.310455,-96.25788,-1.1744642,-0.25063947,-0.39406934,0.21655232,0.54094523,0.38384956
20231225 09:29:22,0.455638,0.282878,-1.343340,-0.206448,0.532354,0.226345,27.492313,-24.551109,-16.572571,-94.80531,-0.8591359,0.056867108,-0.18534705,0.15720773,0.5736995,0.44161174
20231225 09:29:22,0.302117,0.221328,-0.990195,-0.205382,0.544073,0.192254,27.510624,-24.552963,-16.304337,-96.17026,-0.6240563,0.0916245,-0.06937979,0.10246689,0.5748827,0.46012858
20231225 09:29:22,0.264165,0.147465,-0.283461,-0.178749,0.471630,0.136856,28.015175,-23.288490,-16.381866,-95.42934,-0.058780894,0.11214483,-0.10881041,0.03720323,0.48922074,0.41549623
20231225 09:29:22,0.027448,0.408148,-0.160691,-0.082867,0.409839,0.093176,27.713978,-24.635216,-16.028992,-95.17555,-0.09890594,0.4012738,0.22589877,0.04105343,0.41493878,0.30252343
20231225 09:29:22,-0.099317,-0.084357,0.922387,0.022602,0.229796,0.064412,27.546867,-24.364769,-16.048309,-100.42525,0.5986892,-0.0916451,-0.10087219,0.060528714,0.22947747,0.131777
20231225 09:29:22,-0.157894,0.462707,-0.200788,0.178143,0.146698,0.084654,27.820522,-24.820724,-15.613922,-91.902725,-0.22009277,0.45359334,0.37229815,0.172722,0.1448994,-0.08171941
20231225 09:29:22,-0.006216,0.509189,-1.298496,0.242064,0.234057,0.136856,27.829487,-24.725708,-15.620026,-92.59424,-1.0776426,0.39615163,0.28989118,0.25918478,0.23262261,-0.09530819
20231225 09:29:22,0.428224,0.303530,-1.424066,0.179208,0.176528,0.168816,28.120682,-24.799736,-15.478333,-98.33962,-0.9476981,-0.05691935,-0.13571036,0.26681086,0.18658692,-0.08624683
20231225 09:29:22,0.952526,0.647488,-1.850628,0.121679,0.180790,0.163489,28.068314,-24.236000,-15.649612,-100.49539,-0.95131606,-0.085850894,-0.42586446,0.24620989,0.20152575,-0.044003714
20231225 09:29:22,1.099453,0.737935,-2.151382,0.063085,0.214881,0.143248,27.705395,-24.922119,-15.742432,-101.2066,-1.1186237,-0.19583261,-0.52517235,0.21895063,0.23804899,0.018681508
20231225 09:29:22,1.013337,1.023173,-2.303315,-0.005097,0.253233,0.115549,27.848183,-24.919441,-15.071320,-98.66421,-1.3148881,0.15625775,-0.41008645,0.17431104,0.27471766,0.09466021
20231225 09:29:22,0.761996,1.509712,-2.261632,-0.050907,0.297978,0.102764,27.951385,-25.279358,-15.850616,-93.74341,-1.3752737,0.84362906,-0.08185073,0.14399147,0.31740376,0.15676127
20231225 09:29:22,0.497925,1.590955,-2.173124,-0.077541,0.337396,0.089980,28.220448,-24.330185,-14.704163,-91.23126,-1.521178,1.1782758,0.17383808,0.106617995,0.35203665,0.20118356
20231225 09:29:22,0.314345,1.455813,-1.888304,-0.084998,0.364029,0.077196,27.857147,-24.824425,-15.077423,-90.88195,-1.3786753,1.1843164,0.3412597,0.07948655,0.37523356,0.23009981
20231225 09:29:22,0.353494,1.234929,-1.501536,-0.078606,0.348049,0.050562,28.069080,-24.619774,-15.088684,-93.53371,-0.99017584,0.9980618,0.29854268,0.05409088,0.35626134,0.22873504
20231225 09:29:22,0.474368,0.933014,-1.184464,-0.075410,0.283063,0.024994,27.760338,-24.927673,-14.937683,-97.19297,-0.636685,0.69749653,0.11941603,0.027084833,0.28902707,0.20298254
20231225 09:29:22,0.799951,0.863472,-0.932236,-0.065822,0.175463,0.011145,28.112484,-25.278534,-14.911285,-101.83765,-0.18298274,0.54787064,-0.14769784,0.011149142,0.1808029,0.14405291
20231225 09:29:22,1.184019,0.800251,-0.918210,-0.041319,0.065732,-0.021881,28.466438,-24.687431,-14.812363,-104.8117,0.07743323,0.31175762,-0.5025711,-0.02084121,0.06300932,0.07084562
20231225 09:29:22,1.494783,0.860333,-1.251472,-0.042384,0.000746,-0.070887,28.281399,-24.607018,-14.819458,-106.86344,0.015188336,0.091306865,-0.72119045,-0.07754255,-0.015110472,0.047372572
20231225 09:29:22,1.724565,1.073505,-1.474270,-0.057299,0.001811,-0.127351,28.211483,-24.425201,-14.698044,-106.78924,-7.534027E-4,0.1391201,-0.8362745,-0.12931758,-0.03245955,0.068689324
20231225 09:29:22,1.536104,1.332078,-1.501432,-0.060495,0.052948,-0.183814,28.536354,-24.869232,-14.933777,-103.2255,-0.14808917,0.5741149,-0.6006733,-0.16592093,0.004919596,0.09699213
20231225 09:29:22,1.161504,1.527925,-1.246796,-0.060495,0.083843,-0.215775,28.156925,-24.611542,-15.222305,-98.219124,-0.19939065,1.0868821,-0.2331872,-0.19552279,0.04233683,0.106808454
20231225 09:29:22,0.790832,1.689548,-0.877779,-0.039188,0.071059,-0.221101,28.405487,-24.410591,-14.697067,-96.135796,-0.12759763,1.4726142,0.16420242,-0.19934961,0.040752206,0.07985246
20231225 09:29:22,0.540102,1.858478,-0.633893,0.031125,0.048686,-0.237082,29.024126,-24.370461,-14.157654,-93.962906,-0.1147961,1.7570142,0.43270692,-0.18736675,0.02372625,0.0037074508
20231225 09:29:22,0.192130,2.285285,-0.709419,0.125941,0.054013,-0.244539,28.626385,-24.110924,-14.714432,-85.87734,-0.513991,2.2716842,0.81161815,-0.16286826,0.048965156,-0.096970655
20231225 09:29:22,-0.342871,3.004417,-0.904366,0.190927,0.066797,-0.236016,28.377827,-24.311874,-15.239670,-75.83916,-1.2422065,3.0591094,1.3984303,-0.14419249,0.0963494,-0.1719112
20231225 09:29:22,-0.946037,3.711751,-1.099650,0.184535,0.062536,-0.208317,28.927969,-22.956078,-14.786819,-67.1795,-2.1064274,3.7655878,2.0126047,-0.13061772,0.11877182,-0.1795001
20231225 09:29:22,-1.377353,4.299699,-1.115047,0.080131,0.013530,-0.124155,28.898886,-23.991226,-15.121460,-64.56535,-2.559214,4.282968,2.5669436,-0.08369551,0.051065724,-0.08973745
20231225 09:29:22,-1.289980,4.542374,-0.714811,-0.006162,-0.023757,-0.068757,28.725767,-23.449486,-14.220749,-74.43561,-1.8049779,4.508454,2.8817534,-0.061250754,-0.014256367,-0.011201257
20231225 09:29:22,-0.502333,4.437718,-0.022833,-0.331094,-0.199540,0.058020,29.102621,-24.265366,-14.565659,-87.710075,-0.15845932,4.44144,2.483096,-0.104771465,-0.19469897,0.20353307
20231225 09:29:22,0.597064,3.861352,0.745518,-0.543098,-0.277310,0.063347,29.201620,-23.412041,-14.352417,-99.80325,1.5179551,3.8519814,1.5193224,-0.28738752,-0.21008863,0.29812998
20231225 09:29:22,1.655110,2.682041,1.988593,-0.722076,-0.313532,-0.008032,28.749706,-23.530739,-15.153000,-108.523766,3.0298982,2.6779976,0.09199998,-0.5556075,-0.18115489,0.327376
20231225 09:29:22,2.509658,1.144874,3.661057,-0.799847,-0.345492,-0.158246,28.960873,-22.942307,-15.725189,-113.647514,4.299793,1.1468822,-1.8321098,-0.7888174,-0.18452476,0.27323592
20231225 09:29:22,2.900164,-0.313859,5.357491,-0.725272,-0.357211,-0.384100,28.969837,-22.847290,-15.731293,-116.85945,4.981871,-0.31039524,-3.7507498,-0.8554041,-0.23919298,0.21497726
20231225 09:29:22,2.391391,-1.484453,6.769933,-0.482373,-0.348688,-0.626999,28.873028,-22.950531,-15.591553,-118.25031,4.776372,-1.398363,-5.0909815,-0.7092076,-0.3177127,0.18240869
20231225 09:29:22,0.895385,-1.920736,7.492440,-0.138266,-0.364669,-0.797455,29.199699,-22.452606,-15.754776,-116.61957,3.7189755,-1.9038894,-5.025382,-0.43722796,-0.36612245,0.082365066
20231225 09:29:22,-0.915747,-1.854075,7.240674,0.206907,-0.416871,-0.829415,29.288315,-22.828148,-15.327469,-115.28736,2.2746806,-2.332025,-3.9475858,-0.13429828,-0.34515244,-0.107194155
20231225 09:29:22,-2.417052,-1.439848,6.037308,0.478571,-0.445635,-0.736730,29.323021,-21.872406,-16.193329,-108.18118,0.9016627,-2.6020443,-1.6684802,0.12248373,-0.24756932,-0.401593
20231225 09:29:22,-3.133262,-0.847641,4.401280,0.611740,-0.450962,-0.566274,29.349146,-21.203568,-16.772614,-97.667366,-0.028107405,-2.3914044,0.6207062,0.27459264,-0.17107153,-0.65447146
20231225 09:29:22,-3.175626,-0.384234,2.774214,0.581910,-0.470138,-0.369185,29.615253,-20.620697,-16.540085,-86.73758,-0.6030017,-1.8046364,1.9113845,0.31753695,-0.20842974,-0.75179
20231225 09:29:22,-2.555142,-0.319032,1.210655,0.410389,-0.482922,-0.180618,29.500513,-20.913979,-16.388107,-82.39692,-0.86056316,-1.0777824,1.7396785,0.2608047,-0.34059826,-0.64390856
20231225 09:29:22,-1.550863,-0.523940,0.183489,0.170685,-0.452027,-0.048515,29.166294,-20.373085,-16.426743,-84.95377,-0.8207621,-0.7015112,0.83558863,0.13034508,-0.42260033,-0.42752665
20231225 09:29:22,-0.548210,-1.026710,-0.020691,-0.057299,-0.397694,-0.000574,29.254526,-20.556740,-16.279892,-93.71193,-0.37429765,-1.0357018,-0.30961052,-0.032578796,-0.39856806,-0.23244824
20231225 09:29:22,-0.022757,-1.565189,0.301423,-0.224559,-0.351884,-0.029339,28.837049,-21.429207,-16.896957,-99.514046,0.16327068,-1.5600742,-1.1629869,-0.19091734,-0.34864017,-0.10186289
20231225 09:29:22,0.045711,-1.751419,0.900500,-0.309787,-0.320989,-0.088998,29.412285,-20.730324,-16.534943,-101.21485,0.59355664,-1.7473327,-1.5004743,-0.29834342,-0.319575,-0.036464415
20231225 09:29:22,-0.209660,-1.852109,1.550574,-0.309787,-0.305009,-0.139070,29.084843,-20.844482,-16.932663,-101.907364,0.79879975,-1.8967142,-1.590177,-0.32402286,-0.31180146,-0.032834634
20231225 09:29:22,-0.713839,-1.841282,1.966266,-0.238408,-0.283702,-0.147592,29.269499,-20.733002,-17.206039,-100.72612,0.66554517,-2.0089686,-1.3555082,-0.2623616,-0.29334486,-0.06599167
20231225 09:29:22,-1.110306,-1.785631,2.093713,-0.110566,-0.222977,-0.097521,29.279232,-21.021759,-16.651215,-101.598206,0.41851187,-2.0522823,-1.1401689,-0.12886758,-0.22560163,-0.099383876
20231225 09:29:23,-1.246038,-1.813505,2.146748,0.052432,-0.130292,-0.019751,28.961138,-21.232780,-16.774567,-102.446915,0.32004178,-2.0965698,-1.130741,0.041902952,-0.121880814,-0.13099355
20231225 09:29:23,-1.160435,-1.933715,2.266890,0.221822,-0.058914,0.056955,29.130053,-20.561272,-16.682755,-102.61924,0.40867943,-2.1579418,-1.3293967,0.21914911,-0.042519305,-0.1818086
20231225 09:29:23,-0.831461,-2.186394,2.013556,0.362448,-0.031215,0.114483,29.006998,-19.431953,-17.293579,-100.77293,0.5228106,-2.296344,-1.6167676,0.36491126,-0.016418427,-0.24725118
20231225 09:29:23,-0.630105,-2.319221,1.745224,0.441284,-0.036541,0.146444,29.147215,-19.987457,-17.255920,-101.643135,0.521205,-2.3324735,-1.7598667,0.44378647,-0.03416815,-0.31105977
20231225 09:29:23,0.033012,-2.577480,0.783619,0.456199,-0.064240,0.145378,28.881874,-20.954109,-16.927521,-103.27377,0.42065248,-2.5479279,-2.134191,0.44615677,-0.07912605,-0.35730687
20231225 09:29:23,0.342656,-2.552962,0.133149,0.419977,-0.097266,0.119810,28.723347,-20.396759,-17.233414,-101.00394,0.16303784,-2.5562801,-2.1203701,0.386231,-0.12175754,-0.36735514
20231225 09:29:23,0.506096,-2.406050,-0.394822,0.344337,-0.122835,0.079327,29.032858,-20.472626,-16.823471,-99.34045,-0.124977484,-2.4650168,-1.9884961,0.2883265,-0.14431882,-0.33862144
20231225 09:29:23,0.414858,-2.120548,-0.739001,0.242064,-0.157991,0.043105,28.977917,-20.467079,-17.628204,-95.1211,-0.4186753,-2.1898007,-1.6786333,0.18280272,-0.1696986,-0.28771633
20231225 09:29:23,0.235844,-1.943923,-0.854070,0.119549,-0.205932,0.014341,29.226862,-20.458015,-16.822495,-93.805214,-0.593735,-1.9933134,-1.4023558,0.07804188,-0.20994005,-0.22497922
20231225 09:29:23,0.027816,-1.667102,-0.911451,-0.004032,-0.244284,-0.010162,28.969721,-20.945877,-17.061157,-91.674866,-0.73517257,-1.6924804,-1.0587276,-0.017344829,-0.24431534,-0.15113929
20231225 09:29:23,-0.160376,-1.312049,-0.645673,-0.103109,-0.232565,-0.022947,29.085228,-21.036369,-16.652191,-91.220604,-0.58221996,-1.306582,-0.71773016,-0.08177994,-0.23322071,-0.07154689
20231225 09:29:23,-0.480130,-1.009859,-0.040965,-0.163834,-0.208062,-0.019751,28.545853,-21.355179,-17.038651,-92.07592,-0.3216847,-1.0222819,-0.33012688,-0.11858613,-0.21225002,-0.020016953
20231225 09:29:23,-0.638493,-0.872698,0.634646,-0.188337,-0.210193,-0.001640,28.749472,-19.727921,-17.812714,-90.83251,0.025544524,-0.9210235,-0.17792,-0.12689649,-0.21719491,-0.01695772
20231225 09:29:23,-0.621229,-0.992999,1.168766,-0.176618,-0.213389,0.016471,28.785717,-19.539726,-17.556686,-94.38169,0.34063312,-1.0361534,-0.38887903,-0.11548704,-0.21827532,-0.04143109
20231225 09:29:23,-0.430802,-1.078636,1.670190,-0.105240,-0.209128,0.018602,28.715034,-18.974136,-17.996231,-95.672264,0.74828726,-1.088592,-0.67191184,-0.06771495,-0.20978111,-0.09320355
20231225 09:29:23,-0.228284,-1.183387,1.897041,-0.002966,-0.196344,-0.000574,28.725418,-17.745270,-18.210297,-95.13584,1.0071782,-1.1523292,-0.89933693,-0.005435236,-0.19625153,-0.14946382
20231225 09:29:23,-0.047675,-1.188902,1.827635,0.047105,-0.194213,-0.017620,28.934511,-19.808327,-17.805618,-98.260445,1.1163816,-1.1424676,-1.0665855,0.019828042,-0.19584753,-0.17510426
20231225 09:29:23,0.025906,-1.066216,1.607646,0.165359,-0.194213,-0.085802,28.792877,-20.386673,-17.635300,-97.90814,1.0671163,-1.0260942,-0.96689516,0.0607454,-0.20080255,-0.24482849
20231225 09:29:23,-0.126748,-0.912159,1.290644,0.211169,-0.202736,-0.128416,28.385403,-19.838371,-18.746918,-93.07036,0.7963611,-0.89194775,-0.6138307,0.05891051,-0.20756184,-0.2874301
20231225 09:29:23,-0.175587,-0.817174,1.094257,0.236737,-0.198474,-0.164638,28.881107,-20.570335,-17.488464,-92.90671,0.6730498,-0.81829315,-0.4730861,0.04389085,-0.19812827,-0.30240506
20231225 09:29:23,-0.417260,-0.497155,0.717618,0.248456,-0.184625,-0.179553,28.907234,-19.901497,-18.067749,-88.06502,0.26910254,-0.52679443,-0.0048009455,0.03731242,-0.17345251,-0.31221595
20231225 09:29:23,-0.734794,-0.329095,0.553777,0.308115,-0.113247,-0.217905,28.660858,-19.352364,-18.240021,-83.970436,-0.046060115,-0.4066073,0.37649772,0.046605557,-0.080723256,-0.32121888
20231225 09:29:23,-1.008676,-0.283721,0.549216,0.364579,-0.056783,-0.218971,28.616421,-20.019348,-17.928986,-83.891426,-0.22572544,-0.4078981,0.6140039,0.08034164,-0.008994333,-0.32736865
20231225 09:29:23,-1.089728,-0.335129,0.587456,0.434892,-0.002450,-0.209382,28.458275,-19.653885,-17.954407,-83.3554,-0.25034276,-0.47470978,0.6438655,0.13112244,0.05197352,-0.34432352
20231225 09:29:23,-1.017622,-0.447973,0.478320,0.510531,0.039098,-0.194468,29.092655,-20.173798,-17.780197,-84.25202,-0.2625554,-0.55539393,0.51557195,0.18128413,0.09034827,-0.375641
20231225 09:29:23,-0.791630,-0.660126,0.155252,0.563799,0.065732,-0.181683,29.041056,-19.993828,-17.390533,-85.11235,-0.34441924,-0.7002525,0.20817292,0.21130492,0.09893137,-0.4061104
20231225 09:29:23,-0.623614,-0.726350,-0.025963,0.572322,0.066797,-0.176357,29.299232,-18.180237,-17.640320,-82.46956,-0.37950063,-0.7363682,0.061959766,0.20249419,0.080894165,-0.4308644
20231225 09:29:23,-0.229004,-0.824088,-0.660553,0.542492,0.046556,-0.176357,29.041439,-20.185722,-17.110062,-85.7444,-0.6907439,-0.83373386,-0.30143234,0.1608923,0.03584399,-0.42941245
20231225 09:29:23,0.012993,-0.802853,-1.111344,0.484963,0.026314,-0.189141,29.438028,-19.869598,-17.394699,-84.48961,-0.97515416,-0.8547424,-0.48732018,0.095586374,0.003063566,-0.4083029
20231225 09:29:23,0.087175,-0.756114,-1.389248,0.397605,0.005007,-0.212579,29.316895,-19.699715,-16.603165,-84.00364,-1.1905084,-0.8192985,-0.52513397,0.015838757,-0.014746403,-0.35267666
20231225 09:29:23,0.044744,-0.696943,-1.482438,0.295331,-0.024823,-0.242408,29.686205,-19.476761,-17.149933,-82.27231,-1.2920182,-0.7541072,-0.4788121,-0.06548078,-0.040539667,-0.28499725
20231225 09:29:23,0.036890,-0.686879,-1.413984,0.193058,-0.046130,-0.279696,29.685820,-19.284866,-17.430405,-81.40948,-1.2142613,-0.7187652,-0.48398855,-0.1438369,-0.054917127,-0.21068919
20231225 09:29:23,-0.109978,-0.645089,-1.064087,0.120614,-0.049326,-0.310591,29.103809,-19.328690,-17.433334,-79.71724,-0.9380495,-0.6162519,-0.34954798,-0.19586301,-0.03820946,-0.15756679
20231225 09:29:23,-0.464622,-0.518547,-0.672283,0.095046,-0.033345,-0.316983,29.431250,-19.214539,-17.035614,-77.99461,-0.7681414,-0.483993,0.021345377,-0.20454021,5.7677925E-4,-0.13397679
20231225 09:29:23,-0.631551,-0.415453,-0.449901,0.114222,-0.018431,-0.288218,29.554955,-18.826233,-17.193695,-75.67835,-0.6749535,-0.40969172,0.22273254,-0.16560948,0.02745419,-0.14470002
20231225 09:29:23,-0.886768,-0.207847,-0.158094,0.165359,0.003942,-0.231755,29.485039,-18.644424,-17.072296,-72.10349,-0.59431416,-0.27925828,0.59183437,-0.09419297,0.06195708,-0.17452094
20231225 09:29:23,-1.198882,-0.142253,-0.364546,0.214365,0.051882,-0.160377,29.916451,-19.273956,-16.892929,-70.641624,-0.9323259,-0.22356826,0.8556363,-0.020816863,0.10986222,-0.18064338
20231225 09:29:23,-1.226297,-0.433871,-0.577757,0.218626,0.080647,-0.091129,29.484005,-19.970169,-16.583847,-73.30269,-1.0762067,-0.46971798,0.687608,0.034623317,0.122323215,-0.15215537
20231225 09:29:23,-0.949537,-0.731220,-0.597600,0.173881,0.048686,-0.051711,29.775200,-20.044197,-16.442154,-77.29525,-0.92636913,-0.7283472,0.30989358,0.049226705,0.070306525,-0.12344506
20231225 09:29:23,-0.616314,-0.919801,-0.719514,0.108895,-0.018431,-0.038927,29.501549,-19.588242,-16.876541,-77.43024,-0.84245205,-0.88149756,-0.07229872,0.03015818,-0.00693781,-0.10527567
20231225 09:29:23,-0.511127,-1.008430,-0.925739,0.018341,-0.100462,-0.026143,30.042343,-18.135582,-16.698044,-76.24407,-0.9659064,-0.9520788,-0.20898987,-0.0036434047,-0.096744314,-0.07096687
20231225 09:29:23,-0.383068,-1.014994,-1.189422,-0.084998,-0.145207,-0.001640,30.082794,-19.160629,-17.434570,-76.828926,-1.1574534,-0.95860845,-0.31955147,-0.036941282,-0.14767951,-6.521602E-5
20231225 09:29:23,-0.266940,-0.961137,-1.239251,-0.130808,-0.142011,0.010079,30.128386,-19.069313,-16.904175,-79.209595,-1.1711301,-0.9280592,-0.37421745,-0.0541841,-0.144579,0.04169039
20231225 09:29:23,0.005957,-0.614429,-0.957835,-0.186206,-0.074894,0.015406,30.003914,-19.073845,-17.307037,-80.482506,-0.8086179,-0.60711175,-0.4047906,-0.08367677,-0.075874396,0.12142148
20231225 09:29:23,-0.124833,-0.256342,-0.740407,-0.142527,-0.006712,-0.010162,29.458143,-18.929482,-17.053955,-77.69235,-0.68085843,-0.21980965,-0.10758614,-0.082949765,-0.010904232,0.11682729
20231225 09:29:23,-0.478663,-0.141020,-0.701098,-0.083933,0.051882,-0.043188,29.985983,-19.263878,-17.294800,-73.86741,-0.82598776,-0.09249631,0.23267117,-0.08665237,0.050354514,0.09127109
20231225 09:29:23,-0.780878,-0.007478,-0.568997,-0.045580,0.060405,-0.070887,30.137350,-18.974289,-16.910294,-72.65392,-0.891232,0.0031099617,0.562683,-0.092387095,0.06570451,0.05807622
20231225 09:29:23,-0.909301,0.046435,-0.455308,-0.029600,0.043360,-0.082606,30.260672,-18.394096,-17.348846,-70.732056,-0.8785223,0.022721548,0.70324093,-0.09114679,0.052944675,0.032259703
20231225 09:29:23,-1.008438,-0.024143,-0.413001,-0.013620,-0.022692,-0.091129,30.127234,-18.493645,-17.745590,-70.62467,-0.8913176,-0.06542879,0.75173044,-0.07829702,-0.008897135,-0.017217273
20231225 09:29:23,-0.765699,-0.246349,-0.323678,-0.037057,-0.132423,-0.088998,30.120838,-18.030472,-17.106049,-75.97792,-0.66996026,-0.26321313,0.45844117,-0.081156276,-0.1252813,-0.05293712
20231225 09:29:23,-0.580195,-0.261318,-0.356510,-0.065822,-0.250676,-0.075149,30.145931,-18.687386,-17.196884,-78.21016,-0.59902465,-0.26219323,0.30374444,-0.082510084,-0.2478558,-0.08846102
20231225 09:29:23,-0.013751,-0.456438,-0.762012,-0.120155,-0.361473,-0.060234,30.144779,-18.111717,-18.038300,-81.204506,-0.6692196,-0.4809165,-0.2876633,-0.12641469,-0.36072797,-0.09117088
20231225 09:29:23,0.196267,-0.471635,-0.875984,-0.139331,-0.382780,-0.064495,29.853964,-18.229576,-17.899536,-83.33892,-0.67285466,-0.53730184,-0.46577278,-0.15353325,-0.3801543,-0.08436211
20231225 09:29:23,0.481101,-0.320985,-1.086768,-0.155311,-0.390237,-0.142266,29.720913,-18.521011,-18.015793,-82.12273,-0.72556466,-0.4170769,-0.6491928,-0.22795725,-0.39275253,-0.066181965
20231225 09:29:23,0.353285,-0.167924,-1.129921,-0.146788,-0.377453,-0.177422,29.880859,-17.944519,-17.917862,-79.18984,-0.8217997,-0.2165719,-0.4917877,-0.24011749,-0.38064924,-0.06773191
20231225 09:29:23,-0.080679,0.201450,-1.148001,-0.126547,-0.357211,-0.245604,29.808758,-18.512779,-18.149429,-71.663284,-1.0630585,0.2770222,-0.008240253,-0.25098777,-0.3438133,-0.08302836
20231225 09:29:23,-0.634208,0.637904,-1.090106,-0.096717,-0.345492,-0.287153,30.029270,-18.021225,-18.447266,-61.02711,-1.3669006,0.7783644,0.57426333,-0.21877995,-0.28576434,-0.12149281
20231225 09:29:23,-1.140120,0.842059,-1.053844,-0.065822,-0.376387,-0.299937,29.773932,-17.567123,-18.613419,-56.843388,-1.641711,0.92019665,1.0667306,-0.18791556,-0.29238078,-0.16715021
20231225 09:29:23,-1.470993,1.085760,-1.029297,-0.062626,-0.394498,-0.287153,29.986250,-17.554359,-18.344208,-56.310703,-1.8459427,1.1022732,1.4560498,-0.16502598,-0.30745935,-0.17224157
20231225 09:29:23,-1.474866,1.117321,-1.033000,-0.073279,-0.428590,-0.232820,29.695053,-17.480331,-18.485901,-56.412167,-1.8551717,1.1328725,1.4713831,-0.11846776,-0.35847974,-0.16279711
20231225 09:29:23,-1.272953,1.009017,-1.017682,-0.104174,-0.475465,-0.168899,29.738842,-18.330971,-18.028015,-62.48849,-1.673337,1.0521678,1.3240962,-0.098535314,-0.44013116,-0.14105605
20231225 09:29:23,-0.847131,0.883849,-1.067300,-0.141462,-0.517013,-0.130547,29.958588,-17.455643,-18.886795,-67.833824,-1.4110788,0.9356588,0.9435024,-0.13411444,-0.50925505,-0.11644372
20231225 09:29:23,-0.498577,0.853978,-1.097696,-0.138266,-0.515948,-0.149723,29.605671,-16.721008,-19.474152,-68.52387,-1.247893,0.8972814,0.62330294,-0.16871402,-0.5108381,-0.12292935
20231225 09:29:23,-0.326735,0.714050,-1.156379,-0.099913,-0.471203,-0.204056,29.905449,-16.508125,-19.619034,-66.42574,-1.2313474,0.7924917,0.37844753,-0.1874069,-0.4565801,-0.14806308
20231225 09:29:23,-0.491126,0.761404,-1.130943,-0.079671,-0.449896,-0.230689,29.675203,-16.710930,-19.876022,-64.08855,-1.3074342,0.85371816,0.5235679,-0.18899995,-0.42494693,-0.16358931
20231225 09:29:23,-0.804066,0.827929,-1.037861,-0.040254,-0.432851,-0.286088,29.613869,-16.242210,-20.041214,-59.266277,-1.4172881,0.9181073,0.7963205,-0.19291,-0.3791085,-0.20492725
20231225 09:29:23,-1.343825,0.997730,-1.119883,-0.042384,-0.430720,-0.285022,29.579813,-15.680321,-19.944244,-52.27313,-1.8354788,1.060135,1.2364914,-0.14733256,-0.3423501,-0.2033383
20231225 09:29:23,-1.479293,0.966492,-1.139172,-0.055168,-0.442439,-0.272238,29.561499,-15.678467,-20.212494,-51.34239,-1.9119446,1.0157583,1.3268051,-0.13593887,-0.35610917,-0.19301926
20231225 09:29:23,-1.506254,0.965232,-1.184307,-0.097782,-0.477596,-0.243474,29.462885,-16.723686,-20.145248,-52.281437,-1.9521943,1.0276792,1.3547382,-0.12549992,-0.40525007,-0.1559659
20231225 09:29:23,-1.444154,1.140961,-1.242255,-0.137200,-0.466942,-0.194468,29.709911,-15.755180,-20.741898,-50.71476,-2.0059652,1.2257593,1.3337789,-0.107145995,-0.41448036,-0.09493601
20231225 09:29:23,-1.463354,1.155148,-1.311719,-0.137200,-0.438178,-0.183814,29.771244,-16.223907,-20.576721,-49.66609,-2.098264,1.2559706,1.3187733,-0.093964204,-0.38345972,-0.08297333
20231225 09:29:23,-1.564874,1.102365,-1.206361,-0.114828,-0.382780,-0.176357,29.409748,-15.776169,-20.877472,-48.827286,-2.0493882,1.1549149,1.4037125,-0.093093954,-0.32987955,-0.085265815
20231225 09:29:23,-1.682689,1.287094,-1.120580,-0.067953,-0.326316,-0.172095,29.631798,-16.052170,-20.053436,-48.511883,-2.109375,1.2798418,1.5933532,-0.073406026,-0.26353073,-0.1062157
20231225 09:29:23,-1.907620,1.363385,-1.086079,-0.018947,-0.276245,-0.147592,29.673285,-15.751488,-21.278381,-44.796337,-2.2338939,1.2887666,1.7731166,-0.039169967,-0.21130276,-0.12395969
20231225 09:29:23,-1.861756,1.398695,-0.990638,0.020471,-0.243219,-0.102848,29.346878,-14.539894,-22.164536,-44.83148,-2.11136,1.3185551,1.777579,-0.003917575,-0.19542563,-0.13261554
20231225 09:29:23,-1.671772,1.486438,-1.002054,0.072673,-0.199540,-0.063430,29.692247,-14.235703,-21.779053,-47.3967,-2.0163453,1.453814,1.6763203,0.03350132,-0.1628519,-0.15161777
20231225 09:29:23,-1.465619,1.618717,-0.963675,0.131268,-0.133488,-0.036796,29.840658,-14.312416,-22.308456,-53.39275,-1.8192928,1.6177268,1.63445,0.054381285,-0.110685155,-0.17635308
20231225 09:29:23,-1.174337,1.670980,-0.667429,0.181339,-0.100462,-0.044254,30.074896,-12.417572,-21.625992,-55.633713,-1.4021951,1.6483653,1.5102116,0.06412393,-0.07616606,-0.21084726
20231225 09:29:23,-1.015137,1.861463,-0.370463,0.232476,-0.115377,-0.082606,29.806604,-13.750519,-22.211487,-55.068256,-1.092518,1.8047318,1.5104942,0.05485855,-0.0807634,-0.27181205
20231225 09:29:23,-1.081532,2.378584,-0.225613,0.263371,-0.154795,-0.106044,30.064514,-13.646446,-21.411896,-53.737362,-1.103252,2.2751303,1.7504436,0.04936573,-0.109048836,-0.31874314
20231225 09:29:23,-1.158916,2.855289,-0.433600,0.215430,-0.225108,-0.088998,30.053360,-14.491539,-21.758759,-52.34264,-1.4249824,2.7694657,1.888615,0.055091858,-0.18328568,-0.29307833
20231225 09:29:23,-1.117917,3.193981,-0.539418,0.054562,-0.301813,-0.032535,29.611565,-15.090881,-21.724030,-57.423943,-1.3670712,3.163606,2.036118,0.032613635,-0.29137838,-0.16541559
20231225 09:29:23,-0.859552,3.205252,-0.306042,-0.183010,-0.383845,0.044170,29.956551,-14.594788,-21.619019,-61.924442,-0.87727964,3.1873496,1.9534043,-0.014095087,-0.3920671,0.024373014
20231225 09:29:23,-0.272830,3.132342,0.289572,-0.448282,-0.439243,0.118745,29.353655,-15.194954,-22.523621,-73.29693,0.24423805,3.1496038,1.9076134,-0.16570336,-0.41886577,0.16554035
20231225 09:29:23,0.231564,2.713932,1.337777,-0.724207,-0.522340,0.174143,29.664202,-13.945099,-22.602127,-75.9491,1.405556,2.7862346,1.5540369,-0.3231048,-0.4706932,0.31196138
20231225 09:29:23,0.794530,1.929931,2.541388,-0.959649,-0.616091,0.212495,29.300901,-14.439331,-22.975388,-84.69689,2.5741274,2.1051307,0.92613834,-0.5844776,-0.48103237,0.27802125
20231225 09:29:23,1.527809,0.821263,3.793115,-1.060857,-0.649117,0.211430,29.460848,-13.862831,-22.877457,-91.42347,3.6052024,1.0448549,-0.37721375,-0.78846705,-0.43270582,0.14462435
20231225 09:29:23,2.180553,-0.146400,4.916178,-0.989479,-0.580934,0.154967,29.186813,-13.214989,-23.592331,-94.29358,4.372555,0.03253323,-1.5941947,-0.8286669,-0.35494322,0.025230754
20231225 09:29:23,2.332717,-0.985843,5.820946,-0.778540,-0.457354,0.050562,28.767801,-13.319893,-25.331284,-95.30134,4.615653,-0.82580155,-2.431011,-0.7112307,-0.29540354,-0.044540662
20231225 09:29:23,2.084090,-1.499912,6.242431,-0.487700,-0.342296,-0.057038,29.168114,-13.021248,-24.141052,-96.020065,4.4689703,-1.3131806,-2.847594,-0.48944843,-0.26230204,-0.08369647
20231225 09:29:23,1.532655,-1.586100,6.093087,-0.192598,-0.246415,-0.133743,29.061571,-12.835739,-24.556137,-93.556114,4.045637,-1.3711401,-2.447116,-0.24764901,-0.22908008,-0.12185681
20231225 09:29:23,0.904284,-1.345430,5.428213,0.048170,-0.196344,-0.156115,28.586102,-13.065071,-24.143982,-90.441536,3.4930644,-1.1421425,-1.654863,-0.04869417,-0.20725784,-0.19203071
20231225 09:29:23,0.424152,-0.853456,4.363491,0.189862,-0.182494,-0.136939,29.140837,-13.114418,-24.403168,-85.546684,2.8616567,-0.6858811,-0.663558,0.065482065,-0.19941238,-0.26737216
20231225 09:29:23,0.244743,-0.379241,3.209968,0.225018,-0.208062,-0.099652,29.097815,-12.647545,-24.300110,-81.26557,2.252487,-0.2319963,-0.07409254,0.09552318,-0.22551122,-0.31410268
20231225 09:29:23,0.262017,-0.126694,2.129854,0.186666,-0.222977,-0.069822,28.903811,-12.662155,-24.301086,-78.37435,1.679394,-0.0076383054,0.029803872,0.06837404,-0.23831297,-0.2963219
20231225 09:29:23,0.176757,0.044506,1.280736,0.121679,-0.169710,-0.046384,29.115744,-12.457512,-24.312332,-76.30655,1.0591791,0.11161009,0.10575529,0.03856009,-0.17871708,-0.20877966
20231225 09:29:23,0.124650,-0.289350,1.041739,0.046040,-0.056783,0.000491,29.017782,-11.985092,-25.014008,-76.07236,0.80941784,-0.23711017,-0.10974723,0.029570073,-0.059128832,-0.07141115
20231225 09:29:23,0.103606,-0.508072,1.133272,0.041778,-0.019496,0.010079,29.281702,-12.152294,-25.134430,-77.21749,0.82920647,-0.45625666,-0.2487212,0.036234736,-0.021113956,-0.040957343
20231225 09:29:23,0.047033,-1.078614,1.423429,0.079065,0.040164,0.026059,29.229715,-11.780441,-25.025269,-78.76927,0.9158037,-1.0202597,-0.6234376,0.07860943,0.03736465,-0.01768107
20231225 09:29:23,-0.028822,-1.564542,1.489276,0.155771,0.084908,0.045236,29.254807,-12.437355,-25.116104,-80.34734,0.86389697,-1.5197612,-0.9904881,0.15220092,0.08060215,-0.026220303
20231225 09:29:24,-0.129836,-1.884515,1.338977,0.253783,0.133914,0.086784,29.538843,-11.664436,-24.895782,-79.5818,0.6823027,-1.8388981,-1.1742746,0.25598305,0.12712364,-0.04418094
20231225 09:29:24,-0.040143,-2.159288,0.988730,0.349664,0.171201,0.141117,29.890993,-12.015297,-24.869370,-81.12608,0.48608065,-2.1000385,-1.5042768,0.36804822,0.15631664,-0.07470477
20231225 09:29:24,0.240853,-2.321385,0.512502,0.423173,0.195704,0.180535,29.556004,-11.090618,-25.468964,-80.52779,0.3029952,-2.277383,-1.8227971,0.45454943,0.16585054,-0.1093875
20231225 09:29:24,0.629609,-2.367095,-0.098630,0.450872,0.202097,0.194384,29.882410,-12.302204,-24.582794,-84.927444,0.015308492,-2.423761,-2.1407018,0.48771304,0.15400441,-0.15563624
20231225 09:29:24,0.993161,-2.351188,-0.585116,0.428500,0.207423,0.181600,29.962059,-12.772766,-24.149368,-88.40338,-0.2132335,-2.57812,-2.365552,0.4684481,0.14597604,-0.15746929
20231225 09:29:24,1.314298,-2.264073,-0.895925,0.368840,0.190378,0.142182,29.997919,-12.392693,-24.173828,-89.44864,-0.3334266,-2.668981,-2.5024245,0.39712054,0.12610188,-0.14334838
20231225 09:29:24,1.433340,-2.029755,-1.094106,0.276155,0.169071,0.100634,29.608875,-13.747658,-23.687332,-90.971,-0.41912293,-2.5411763,-2.3954375,0.2982657,0.1185102,-0.10155234
20231225 09:29:24,1.417847,-1.766387,-1.043708,0.164293,0.155221,0.067608,30.181540,-13.606956,-23.958755,-89.48836,-0.28603107,-2.2496839,-2.2316504,0.1957255,0.12655507,-0.023561496
20231225 09:29:24,1.308467,-1.657383,-0.667536,0.062020,0.137110,0.036713,30.172956,-13.893867,-23.672180,-88.87376,0.031286,-1.9940197,-2.0900216,0.09825343,0.12642677,0.046147723
20231225 09:29:24,1.109801,-1.653236,-0.163496,-0.009358,0.126457,0.013275,30.436878,-14.061073,-23.792603,-87.05767,0.40428197,-1.8113567,-1.9556788,0.022682207,0.12684742,0.09587627
20231225 09:29:24,0.692820,-1.650339,0.585533,-0.026404,0.123261,0.011145,30.815536,-13.934975,-24.065018,-85.21232,0.7426714,-1.6498064,-1.6444018,-8.675689E-5,0.12585528,0.10906835
20231225 09:29:24,0.339726,-1.736500,1.455836,0.014079,0.110477,0.033517,30.507059,-12.533356,-24.963409,-83.30151,1.0584416,-1.6540374,-1.4189636,0.03963356,0.11094076,0.079084046
20231225 09:29:24,0.352642,-1.802750,1.587416,0.103568,0.103019,0.050562,30.224560,-14.073822,-24.061829,-86.992035,1.1283944,-1.706771,-1.5612636,0.1197669,0.096551575,0.017751753
20231225 09:29:24,0.487854,-1.915677,1.688980,0.218626,0.111542,0.038844,30.551233,-13.575890,-24.225052,-86.93192,1.2666025,-1.8119044,-1.7313588,0.20432897,0.09130952,-0.04687314
20231225 09:29:24,0.481225,-1.939632,1.625033,0.331553,0.122195,0.009014,30.835653,-12.994858,-23.724274,-85.52847,1.250927,-1.8476845,-1.7011005,0.27089515,0.091690585,-0.116069786
20231225 09:29:24,0.350791,-1.776317,1.326019,0.428500,0.132849,-0.016555,31.072294,-13.255234,-24.106827,-81.07986,1.057258,-1.7070421,-1.3564137,0.30466035,0.10292835,-0.20591064
20231225 09:29:24,0.166260,-1.494560,0.870248,0.506270,0.172267,-0.026143,31.072294,-13.255234,-24.106827,-79.39763,0.6530029,-1.4509666,-1.0355563,0.3455686,0.14282241,-0.24605656
20231225 09:29:24,-0.063065,-1.313074,0.426049,0.560603,0.225534,-0.011228,30.815922,-14.126869,-23.784546,-77.59222,0.22132796,-1.2910937,-0.7450599,0.37387246,0.20404978,-0.27367333
20231225 09:29:24,-0.106129,-1.287483,-0.010857,0.586171,0.269213,0.007948,30.994183,-13.552216,-23.418365,-75.17464,-0.122336894,-1.2833065,-0.70386654,0.38547033,0.25182363,-0.28974366
20231225 09:29:24,-0.134089,-1.353477,-0.426046,0.581910,0.303305,0.027125,31.354527,-13.424278,-23.959015,-73.5913,-0.4847114,-1.3664885,-0.7424024,0.38453823,0.28353158,-0.2871081
20231225 09:29:24,-0.054051,-1.286900,-0.750112,0.556341,0.339526,0.046301,31.258869,-14.103195,-22.977844,-74.40735,-0.7245365,-1.3256353,-0.7668431,0.3714335,0.31906456,-0.2686
20231225 09:29:24,-0.043618,-1.065408,-1.008840,0.510531,0.353376,0.072935,31.504858,-14.460442,-23.086060,-73.115425,-0.94783026,-1.1247607,-0.6493951,0.35146874,0.3371417,-0.24714568
20231225 09:29:24,-0.028062,-0.913052,-1.345005,0.439153,0.349115,0.108091,31.424944,-15.699394,-22.470093,-73.994194,-1.2587051,-1.0139291,-0.5777781,0.33362612,0.33718196,-0.20838024
20231225 09:29:24,0.100952,-0.763382,-1.576887,0.325161,0.324612,0.143248,31.840229,-15.577003,-22.206024,-77.04451,-1.44112,-0.97516114,-0.5940464,0.31915206,0.3174235,-0.12863632
20231225 09:29:24,0.366242,-0.633442,-1.724836,0.180274,0.287324,0.168816,31.645073,-15.015945,-23.048416,-79.1268,-1.4710889,-1.0076854,-0.7492481,0.2862755,0.29596558,-0.02188592
20231225 09:29:24,0.631866,-0.502725,-1.738661,0.022602,0.261756,0.176273,32.211727,-14.603973,-22.399811,-82.38241,-1.3222885,-0.97188604,-0.8947192,0.2233803,0.29126805,0.108886406
20231225 09:29:24,0.713723,-0.557469,-1.487704,-0.118024,0.255364,0.165620,32.334015,-15.349518,-22.349915,-82.38732,-0.97874814,-0.8957956,-0.9981717,0.12446439,0.29281315,0.24301977
20231225 09:29:24,0.629239,-0.557101,-0.978010,-0.210709,0.273475,0.142182,32.167671,-15.462845,-21.808304,-82.119865,-0.56102073,-0.7584084,-0.89862025,0.047192343,0.3111104,0.3333938
20231225 09:29:24,0.397627,-0.464330,-0.329977,-0.234147,0.313958,0.125137,32.493958,-14.773010,-22.251999,-79.246445,-0.0777199,-0.51567316,-0.62414783,-0.0066885576,0.33785108,0.3831398
20231225 09:29:24,0.100589,-0.352015,0.222237,-0.212840,0.348049,0.131529,32.227470,-15.164001,-22.764999,-77.023895,0.22318974,-0.3454789,-0.25679246,-0.008849092,0.35967374,0.39191777
20231225 09:29:24,-0.104296,-0.052621,0.610363,-0.160638,0.355507,0.163489,32.748917,-15.035240,-22.366302,-76.71476,0.42113024,-0.0357644,0.13692123,0.04148048,0.3623115,0.36007178
20231225 09:29:24,-0.117680,0.039792,0.655509,-0.100978,0.351245,0.208234,33.030762,-15.012405,-22.498962,-76.73238,0.45615453,0.06363425,0.20739585,0.11778231,0.36006966,0.31380355
20231225 09:29:24,-0.003497,0.083522,0.502120,-0.051972,0.343788,0.249783,32.688347,-14.950287,-21.970535,-78.46369,0.40893593,0.11431539,0.10956108,0.19259879,0.3604669,0.26863435
20231225 09:29:24,0.250369,0.110468,0.247585,-0.020012,0.335265,0.271089,32.855457,-15.220741,-21.951218,-80.40848,0.35557485,0.11732138,-0.12122226,0.24456555,0.36177456,0.22937717
20231225 09:29:24,0.509247,0.181298,-0.121217,-0.007228,0.339526,0.266828,33.243465,-15.191521,-21.949265,-81.44834,0.19800963,0.1168754,-0.34282678,0.26526082,0.3726095,0.20783211
20231225 09:29:24,0.512963,0.289691,-0.488384,-0.010424,0.374683,0.251913,32.767998,-15.420860,-21.537125,-80.04207,-0.11649737,0.18497309,-0.33865455,0.25688404,0.4035509,0.21950349
20231225 09:29:24,0.254623,0.493740,-0.592247,-0.015751,0.424754,0.247652,32.910011,-15.034409,-21.426971,-76.432724,-0.34525776,0.43233263,-0.05124419,0.24019131,0.44354394,0.24795583
20231225 09:29:24,-0.007307,0.589767,-0.552749,-0.006162,0.469499,0.255109,33.367939,-15.186989,-21.546417,-73.40393,-0.46596187,0.5744695,0.21001077,0.2305724,0.47633952,0.26676816
20231225 09:29:24,-0.312525,0.581978,-0.500391,0.018341,0.501459,0.274286,33.527115,-14.226715,-22.009430,-69.23969,-0.6024405,0.5887629,0.45535,0.23459911,0.49548993,0.2711886
20231225 09:29:24,-0.524162,0.491448,-0.429234,0.056693,0.509982,0.308377,33.528656,-14.994278,-20.887527,-70.3804,-0.656427,0.4956007,0.61346906,0.2731377,0.4983955,0.25029948
20231225 09:29:24,-0.469976,0.327209,-0.515003,0.107830,0.527028,0.348860,33.410957,-15.653862,-21.649475,-71.678734,-0.68642765,0.32976806,0.47996366,0.34914744,0.5238588,0.21911995
20231225 09:29:24,-0.243526,0.022132,-0.656459,0.141921,0.533420,0.368036,33.659904,-15.644798,-20.843765,-76.55274,-0.6860254,7.3004887E-4,0.14031368,0.41033238,0.54462254,0.19183694
20231225 09:29:24,0.136786,-0.312377,-0.704344,0.153640,0.512113,0.352056,34.110664,-14.950447,-20.884598,-81.152466,-0.5579974,-0.40222657,-0.3357228,0.4376131,0.5374308,0.16407964
20231225 09:29:24,0.509153,-0.541206,-0.890201,0.141921,0.474826,0.311573,33.590370,-15.654884,-20.441879,-85.3221,-0.57444084,-0.74075043,-0.75316757,0.41775686,0.5042545,0.13812427
20231225 09:29:24,0.748275,-0.598999,-1.122223,0.109961,0.444996,0.260436,34.091316,-16.274338,-20.664413,-87.675804,-0.6901976,-0.9215417,-0.97109675,0.370542,0.47339517,0.13500807
20231225 09:29:24,0.853174,-0.568675,-1.306399,0.059889,0.431146,0.216757,34.084923,-15.811165,-20.024872,-88.90676,-0.81178844,-0.97929204,-1.0346755,0.3152302,0.4584673,0.16158824
20231225 09:29:24,0.898334,-0.466415,-1.384259,0.013014,0.437538,0.184796,34.358192,-16.075241,-19.870926,-88.68151,-0.853403,-0.89776677,-1.0271654,0.26738864,0.46355462,0.19935146
20231225 09:29:24,0.817511,-0.374068,-1.405749,-0.020012,0.469499,0.163489,34.489441,-16.725769,-19.827164,-88.29657,-0.8905288,-0.77736485,-0.9168308,0.23512006,0.49309742,0.24319014
20231225 09:29:24,0.678279,-0.292454,-1.357767,-0.029600,0.506786,0.138986,34.852741,-16.231529,-19.453888,-85.61337,-0.9088163,-0.596279,-0.7845131,0.19775742,0.5240136,0.26801756
20231225 09:29:24,0.445355,-0.091439,-1.420181,-0.015751,0.544073,0.121941,34.665901,-17.093086,-19.533493,-81.06398,-1.0786738,-0.2822954,-0.5367782,0.16523194,0.55460167,0.25921422
20231225 09:29:24,0.072543,0.101065,-1.653420,-0.006162,0.571772,0.125137,34.675632,-17.381844,-18.978653,-74.60926,-1.4853852,0.061145164,-0.20228828,0.12586889,0.5746076,0.23803142
20231225 09:29:24,-0.313054,0.443373,-2.002760,-0.023208,0.577099,0.149640,35.380581,-16.565933,-19.694763,-65.530334,-2.0121498,0.5910163,0.1418122,0.08549814,0.56247634,0.22976041
20231225 09:29:24,-0.671715,0.626370,-2.403731,-0.095652,0.554727,0.201842,35.629143,-16.364983,-19.169525,-60.615395,-2.557736,0.94942945,0.43182865,0.07332263,0.5118153,0.27813646
20231225 09:29:24,-0.593343,0.627343,-2.550113,-0.225624,0.509982,0.260436,35.514404,-16.658272,-19.017532,-74.51059,-2.5591798,0.48954886,0.5324851,0.1980845,0.5289605,0.4021137
20231225 09:29:24,-0.005656,0.389678,-2.446478,-0.370511,0.450323,0.288135,35.524136,-16.947029,-18.462708,-83.01439,-2.179258,-0.043698102,0.03712541,0.21081659,0.51736724,0.5181077
20231225 09:29:24,0.770084,0.222493,-2.256138,-0.477046,0.425820,0.261501,36.493771,-16.682091,-18.738312,-92.1415,-1.5696855,-0.5685822,-0.5797348,0.1601759,0.54407465,0.6046055
20231225 09:29:24,1.087445,0.154348,-1.894666,-0.539902,0.442865,0.202907,35.805984,-16.924187,-18.595367,-92.56224,-1.0750564,-0.53139865,-0.8632534,0.051882833,0.552839,0.6772304
20231225 09:29:24,1.039552,0.230383,-1.401848,-0.558013,0.466303,0.149640,36.008186,-16.430786,-19.161453,-88.739136,-0.646581,-0.19020577,-0.81618017,-0.042486027,0.5483005,0.71488625
20231225 09:29:24,0.729357,0.469205,-0.936894,-0.533510,0.475891,0.117679,36.273907,-15.656021,-19.209381,-84.35697,-0.37255818,0.2872857,-0.44166237,-0.1062133,0.5260593,0.7051788
20231225 09:29:24,0.455861,0.590991,-0.661583,-0.481308,0.450323,0.102764,36.442169,-16.502136,-18.348648,-83.366615,-0.28838676,0.5132362,-0.13360646,-0.11975894,0.47954953,0.6477647
20231225 09:29:24,0.185101,0.642617,-0.685914,-0.426975,0.418362,0.094242,36.874233,-15.614037,-18.938202,-79.5582,-0.47256222,0.60749286,0.0938981,-0.11415584,0.43260452,0.5841373
20231225 09:29:24,0.052460,0.772579,-0.791883,-0.381165,0.377879,0.089980,36.600311,-16.867599,-18.323227,-78.5788,-0.65845966,0.76204264,0.24367708,-0.100224264,0.38165858,0.5211454
20231225 09:29:24,-0.088569,1.021567,-1.015632,-0.335355,0.359768,0.086784,37.094093,-16.640121,-18.467133,-76.63337,-0.94423866,1.0231059,0.42770222,-0.077710755,0.35935375,0.4679726
20231225 09:29:24,-0.086424,1.171928,-1.175627,-0.308721,0.358703,0.086784,37.165817,-15.879959,-18.516037,-76.56695,-1.0738279,1.1560827,0.46485388,-0.055446222,0.3620032,0.4411541
20231225 09:29:24,0.021428,1.258618,-1.357368,-0.298068,0.376814,0.074000,37.616192,-14.993713,-18.837357,-76.65606,-1.16764,1.2140372,0.382813,-0.053063065,0.38363174,0.43677267
20231225 09:29:24,0.210557,1.392432,-1.265369,-0.293806,0.395990,0.047366,37.325760,-15.303459,-18.418106,-79.369125,-0.946902,1.3023928,0.31922632,-0.0641055,0.4072693,0.44073334
20231225 09:29:24,0.309113,1.475447,-1.163564,-0.288480,0.404513,0.017537,37.668945,-15.749336,-18.385590,-80.082825,-0.8002528,1.3924017,0.3011869,-0.09266614,0.41362032,0.44070122
20231225 09:29:24,0.233239,1.600855,-0.910614,-0.268238,0.402382,0.002622,37.732468,-15.467979,-17.867432,-79.043884,-0.6481233,1.570948,0.452783,-0.11268055,0.40627548,0.4228885
20231225 09:29:24,0.078801,1.652949,-0.804702,-0.246931,0.374683,0.021798,37.678295,-15.846199,-18.111221,-78.81516,-0.6329901,1.6334356,0.62808746,-0.08995424,0.37804204,0.39410958
20231225 09:29:24,0.212627,1.608138,-0.824007,-0.222428,0.332069,0.045236,37.793034,-15.552917,-18.263199,-79.90308,-0.5471265,1.5606358,0.49295944,-0.049407516,0.33948833,0.35432658
20231225 09:29:24,0.368613,1.604842,-0.924670,-0.187272,0.303305,0.048432,38.181808,-15.907478,-17.700302,-82.43553,-0.51967466,1.5115182,0.3554888,-0.020567264,0.31354994,0.3084005
20231225 09:29:24,0.537186,1.750165,-1.117974,-0.160638,0.275606,0.030321,38.323830,-15.521019,-17.590149,-82.40636,-0.59970677,1.6133711,0.217715,-0.018334556,0.28422585,0.2664104
20231225 09:29:24,0.452246,2.010868,-1.316069,-0.145723,0.262821,-0.001640,38.683788,-15.201195,-18.411270,-78.69814,-0.88084286,1.9158586,0.3122048,-0.047280453,0.26618314,0.24062976
20231225 09:29:24,0.283329,2.231978,-1.333387,-0.142527,0.269213,-0.017620,38.615410,-15.786942,-17.167984,-78.79308,-1.025455,2.1935744,0.5720053,-0.070164695,0.27038485,0.24055256
20231225 09:29:24,0.257114,2.273205,-0.958450,-0.138266,0.254299,-0.021881,38.827343,-15.582298,-17.179230,-80.95216,-0.6320137,2.224445,0.7461819,-0.07290572,0.25615177,0.2375859
20231225 09:29:24,0.459410,2.069839,-0.586039,-0.102044,0.214881,-0.037861,38.827728,-15.774178,-16.898743,-84.23889,-0.13087308,2.0009642,0.5866947,-0.06749417,0.21558091,0.19231655
20231225 09:29:24,0.654015,1.737443,-0.421148,-0.012554,0.236188,-0.075149,38.660233,-15.311844,-17.198547,-84.74064,0.11612883,1.6662668,0.31739813,-0.052042726,0.2299195,0.12906633
20231225 09:29:24,0.597756,1.708228,-0.181549,0.131268,0.299043,-0.130547,38.890865,-15.300934,-16.661087,-82.929436,0.21700633,1.6862686,0.35064262,-0.032814987,0.2908905,0.03230367
20231225 09:29:24,0.074074,2.231926,-0.117144,0.267632,0.350180,-0.178487,39.445984,-15.542168,-16.639816,-74.6781,-0.256457,2.2347784,0.9641024,-0.05543927,0.376399,-0.093145184
20231225 09:29:24,-0.840036,2.924689,-0.395406,0.279351,0.318219,-0.179553,39.667648,-15.626274,-16.096222,-64.891716,-1.4027791,2.8152351,1.8758649,-0.10146612,0.3821566,-0.15246075
20231225 09:29:24,-1.460028,3.416615,-0.476669,0.144052,0.183986,-0.118828,39.597733,-15.444466,-15.974823,-63.328865,-1.9379756,3.2072303,2.5853963,-0.0833807,0.22519699,-0.07831502
20231225 09:29:24,-1.059888,3.352265,-0.393259,-0.034927,0.052948,-0.029339,40.303066,-14.820435,-16.410446,-70.468216,-1.3006036,3.2887683,2.333785,-0.049187355,0.05385959,0.049453337
20231225 09:29:24,-0.188849,2.877205,-0.022521,-0.184076,0.001811,0.039909,40.266441,-14.816734,-16.946930,-80.705696,-0.09950399,2.8776858,1.6270585,-0.060941964,0.0027223611,0.16184878
20231225 09:29:24,0.830446,2.208915,0.818329,-0.341747,-0.086613,0.036713,40.002907,-14.841431,-16.546036,-90.83998,1.4063922,2.2070506,0.66377515,-0.18751147,-0.050913714,0.21987636
20231225 09:29:24,1.770994,1.430116,1.785080,-0.499419,-0.215520,-0.037861,40.029411,-14.364487,-16.844849,-96.360695,2.7153678,1.4042096,-0.42270258,-0.40906,-0.1366863,0.2130685
20231225 09:29:24,2.560273,0.459320,2.823689,-0.612345,-0.327381,-0.164638,40.347893,-14.345337,-16.441010,-100.50986,3.775327,0.37914687,-1.6471665,-0.63193774,-0.2154687,0.15403242
20231225 09:29:24,2.933760,-0.512266,3.854569,-0.643241,-0.369995,-0.331898,40.221615,-15.291832,-16.916367,-102.34483,4.4053397,-0.6035316,-2.6804771,-0.76380575,-0.269173,0.095531374
20231225 09:29:24,2.584677,-1.387348,5.016970,-0.542032,-0.297552,-0.506615,40.268242,-13.874779,-16.874435,-100.407135,4.4234815,-1.3837011,-3.1832106,-0.7285234,-0.25368935,0.060838595
20231225 09:29:24,1.377271,-2.076759,6.278415,-0.301264,-0.182494,-0.646175,40.329193,-14.151596,-16.989731,-99.542694,3.6683269,-2.0547216,-3.380952,-0.5277056,-0.18189427,0.048502587
20231225 09:29:24,-0.459286,-2.376431,7.227774,0.047105,-0.127096,-0.693051,40.567635,-13.470009,-17.299789,-96.767685,2.2687182,-2.740853,-2.8291583,-0.19850661,-0.08895326,-0.058541723
20231225 09:29:24,-2.218776,-2.296196,7.131863,0.438088,-0.171841,-0.628064,40.709274,-12.891663,-17.470108,-92.16869,0.8922863,-3.4010115,-1.488262,0.18023859,-0.009255853,-0.30797198
20231225 09:29:24,-3.221344,-1.744706,5.594812,0.736385,-0.252807,-0.488504,40.964607,-13.345772,-17.303955,-84.54711,0.08156133,-3.4950068,0.53805333,0.45534846,0.05487836,-0.62215424
20231225 09:29:24,-3.356050,-0.870999,3.294524,0.834397,-0.349754,-0.305264,40.788918,-13.362228,-17.036682,-72.17245,-0.45516503,-2.6579733,2.268495,0.55507493,0.01163622,-0.85906947
20231225 09:29:24,-2.721738,-0.150589,0.857374,0.710817,-0.415805,-0.103913,40.646515,-13.556801,-17.427307,-61.862637,-1.068075,-1.0841541,2.2784534,0.5037968,-0.1715383,-0.8133594
20231225 09:29:24,-1.430271,0.047165,-0.900368,0.435957,-0.417936,0.039909,40.673798,-13.463623,-17.165176,-67.44835,-1.5051461,0.05038233,1.0615201,0.33984298,-0.364738,-0.5654187
20231225 09:29:24,-0.028896,-0.108448,-1.514763,0.104634,-0.377453,0.079327,40.777000,-13.823547,-17.944473,-80.16382,-1.3131112,-0.14624791,-0.16456,0.11246707,-0.3768833,-0.27503937
20231225 09:29:24,0.919098,-0.530794,-1.026981,-0.180879,-0.317793,0.026059,40.671227,-14.021820,-17.798630,-89.31384,-0.28832406,-0.7243229,-1.0578808,-0.1279523,-0.29526088,-0.054751925
20231225 09:29:24,1.168349,-0.907497,0.201923,-0.352401,-0.269853,-0.082606,41.059616,-14.184486,-17.516190,-91.70095,0.9163548,-0.97787523,-1.4672751,-0.33153778,-0.24710047,0.050126303
20231225 09:29:24,0.866611,-1.176631,1.835637,-0.374773,-0.228304,-0.188076,41.032337,-14.277657,-17.778336,-92.13548,1.7714021,-1.1630241,-1.5153489,-0.4169904,-0.22221991,0.047867402
20231225 09:29:24,0.274312,-1.331060,3.234908,-0.241604,-0.208062,-0.256258,41.085743,-13.515656,-18.095490,-90.6092,2.0393932,-1.3903532,-1.2903726,-0.33829218,-0.21024454,-0.038107503
20231225 09:29:25,-0.385117,-1.360935,3.895256,0.002360,-0.171841,-0.269042,40.839752,-13.158409,-17.987274,-89.292564,1.8039081,-1.5882001,-0.90753216,-0.13134898,-0.15687883,-0.14963907
20231225 09:29:25,-0.971179,-1.380534,4.129990,0.304919,-0.123900,-0.227493,40.678650,-13.159241,-18.926636,-87.34984,1.4506927,-1.777115,-0.49055922,0.14750718,-0.07130583,-0.27576733
20231225 09:29:25,-1.016737,-1.383069,3.785552,0.598955,-0.102593,-0.159311,40.865879,-12.489571,-18.566559,-85.800995,1.3434947,-1.7518668,-0.34993643,0.41708407,-0.026184462,-0.4280173
20231225 09:29:25,-0.683841,-1.634533,2.722859,0.818417,-0.099397,-0.113501,41.245308,-12.747261,-18.278015,-85.45826,1.1671176,-1.8454045,-0.7259069,0.595119,-0.025866084,-0.57531244
20231225 09:29:25,-0.266037,-1.894598,1.473020,0.944128,-0.098332,-0.103913,41.191521,-13.317383,-18.241348,-85.0041,0.8380122,-1.9597443,-1.1518248,0.647616,-0.052475933,-0.7007631
20231225 09:29:25,0.146206,-2.109293,0.196545,0.970762,-0.093005,-0.130547,41.219177,-13.416100,-17.698746,-84.317924,0.27389884,-2.1096785,-1.5464247,0.57997406,-0.07739948,-0.7729744
20231225 09:29:25,0.221063,-2.196083,-0.781940,0.910037,-0.093005,-0.179553,41.438274,-14.058395,-17.788605,-80.974686,-0.391517,-2.1600564,-1.6119074,0.4355739,-0.060741585,-0.7833498
20231225 09:29:25,0.053246,-2.181561,-1.419490,0.788587,-0.099397,-0.212579,41.156425,-14.081238,-17.655945,-75.553055,-0.9263072,-2.0355594,-1.4591916,0.2885782,-0.029184138,-0.7314813
20231225 09:29:25,-0.324994,-2.077699,-1.771432,0.646896,-0.103658,-0.217905,40.926178,-14.284035,-17.912933,-67.61419,-1.2093642,-1.7152678,-1.1601844,0.20026027,0.025499158,-0.63827574
20231225 09:29:25,-0.829402,-1.984694,-1.689129,0.509466,-0.127096,-0.187010,41.086895,-14.091316,-17.254074,-63.894207,-1.2532766,-1.5796373,-0.76763886,0.18107429,0.025090441,-0.5300703
20231225 09:29:25,-1.084198,-1.908002,-1.462647,0.379494,-0.195278,-0.129481,41.376556,-13.397789,-18.234253,-62.78012,-1.2540333,-1.6248484,-0.4986007,0.17316881,-0.078950375,-0.44409287
20231225 09:29:25,-1.031804,-1.857800,-1.297667,0.250587,-0.285833,-0.066626,41.173973,-13.699310,-17.948639,-64.386215,-1.1496487,-1.6314441,-0.4414843,0.16228616,-0.21302825,-0.36977607
20231225 09:29:25,-0.867772,-1.786253,-1.390237,0.116353,-0.351884,0.001556,41.113789,-13.806259,-17.272415,-67.53671,-1.2283622,-1.5616326,-0.5064373,0.13987906,-0.32442954,-0.27847907
20231225 09:29:25,-0.519021,-1.774569,-1.254602,-0.012554,-0.384910,0.058020,41.110832,-14.172554,-18.186325,-73.51119,-1.1040821,-1.6521554,-0.77063334,0.08467181,-0.3887531,-0.1942858
20231225 09:29:25,-0.090443,-1.839911,-0.909306,-0.106305,-0.393433,0.070804,40.986362,-14.177086,-18.589172,-79.1689,-0.69245136,-1.8014294,-1.147227,0.006995082,-0.39942354,-0.14610478
20231225 09:29:25,0.116879,-1.826349,-0.394633,-0.157442,-0.405152,0.023929,41.241699,-14.631195,-18.423035,-81.72399,-0.17538548,-1.811085,-1.2863656,-0.071219295,-0.4093029,-0.13447022
20231225 09:29:25,0.009364,-1.518668,-0.066226,-0.169161,-0.410479,-0.041058,40.844727,-14.755432,-18.418869,-79.75314,0.047307108,-1.5094473,-0.97318786,-0.115038455,-0.41527408,-0.13395207
20231225 09:29:25,-0.372460,-1.120512,0.170299,-0.149984,-0.391302,-0.083671,40.800938,-13.904785,-18.876740,-75.317955,0.012729429,-1.1614634,-0.38020736,-0.11716044,-0.3918609,-0.14070442
20231225 09:29:25,-0.754023,-0.664995,0.463639,-0.102044,-0.356146,-0.088998,40.555717,-13.931320,-18.207596,-74.50626,-0.04325843,-0.7982784,0.24955824,-0.08593652,-0.35037383,-0.15604311
20231225 09:29:25,-0.889219,-0.361913,0.684214,-0.025339,-0.325251,-0.067691,41.109680,-13.596893,-19.027740,-73.02669,-7.377267E-4,-0.55000806,0.5905514,-0.023130564,-0.31375518,-0.19187379
20231225 09:29:25,-0.890416,-0.195876,0.767709,0.076935,-0.282637,-0.029339,40.563530,-13.260635,-19.055115,-72.63965,0.056951523,-0.38334107,0.72016084,0.061888266,-0.26710126,-0.23453024
20231225 09:29:25,-0.746371,-0.117479,0.591719,0.174947,-0.232565,0.009014,40.561340,-14.010727,-19.408096,-73.86127,0.017385453,-0.24039164,0.6209867,0.13901697,-0.2170367,-0.27368835
20231225 09:29:25,-0.433198,-0.316892,0.301705,0.228214,-0.198474,0.036713,40.801323,-14.096680,-18.596268,-77.70835,-0.005044356,-0.35279694,0.19561802,0.17905532,-0.18995689,-0.29432392
20231225 09:29:25,0.012812,-0.544310,0.125729,0.233541,-0.202736,0.027125,40.316120,-14.037262,-18.738937,-81.01506,0.1059446,-0.5438116,-0.32119107,0.1610274,-0.20335932,-0.30444577
20231225 09:29:25,0.339354,-0.644443,-0.037795,0.229280,-0.204866,-0.016555,40.438023,-14.590912,-18.969528,-82.173485,0.15155831,-0.65183634,-0.6530646,0.11593891,-0.20974782,-0.30613425
20231225 09:29:25,0.303134,-0.698472,-0.249074,0.216495,-0.198474,-0.063430,40.332245,-14.789185,-18.823685,-80.660225,-0.03565234,-0.7018338,-0.6664182,0.07056092,-0.20004533,-0.2955362
20231225 09:29:25,0.103855,-0.650925,-0.439547,0.195188,-0.179298,-0.097521,40.456337,-14.592766,-18.701279,-76.36451,-0.28149313,-0.6267264,-0.4884289,0.032995306,-0.1687492,-0.27115893
20231225 09:29:25,-0.387466,-0.239223,-0.578124,0.209038,-0.116443,-0.102848,40.244785,-14.989304,-18.409576,-70.380974,-0.6546066,-0.18839337,0.10246164,0.042999253,-0.081185944,-0.25376981
20231225 09:29:25,-0.947742,-0.310319,-0.580567,0.243129,-0.025888,-0.080475,40.552761,-14.297630,-19.121506,-64.57189,-0.92231125,-0.3085685,0.50274706,0.07365845,0.026285034,-0.23513521
20231225 09:29:25,-1.195720,-0.480666,-0.554214,0.244194,0.019922,-0.049580,40.492195,-14.212685,-18.725739,-64.806564,-1.0039798,-0.5184703,0.61815464,0.09215339,0.066490345,-0.204386
20231225 09:29:25,-1.286496,-0.399333,-0.351407,0.235672,0.012465,-0.005901,40.825645,-14.369804,-19.248062,-63.75328,-0.9102049,-0.5050164,0.7743129,0.12507237,0.05057347,-0.18997408
20231225 09:29:25,-1.245146,-0.475923,-0.388396,0.239933,-0.004581,0.051628,40.643177,-13.731209,-18.621704,-64.94939,-0.90493304,-0.5584721,0.6965263,0.17684214,0.019792598,-0.18867391
20231225 09:29:25,-1.030559,-0.714642,-0.571482,0.205842,-0.045064,0.104895,40.571075,-14.299477,-18.853271,-67.9007,-0.91029847,-0.7174401,0.38010126,0.20652713,-0.038904116,-0.17332926
20231225 09:29:25,-0.552706,-0.814234,-0.714514,0.150444,-0.091940,0.130464,40.535217,-14.679550,-18.828812,-72.55923,-0.81710327,-0.77371395,-0.054889075,0.19836083,-0.09486384,-0.1533945
20231225 09:29:25,-0.259025,-0.614294,-0.861673,0.115287,-0.101528,0.130464,40.562111,-14.394493,-18.847153,-72.49312,-0.82693446,-0.5577174,-0.19504823,0.17778158,-0.10603683,-0.1286588
20231225 09:29:25,-0.269176,-0.356213,-1.113154,0.119549,-0.045064,0.123006,40.386803,-14.602844,-18.299408,-70.16538,-1.0621835,-0.24639498,-0.09705666,0.16885947,-0.05126734,-0.10585536
20231225 09:29:25,-0.547341,-0.180320,-1.138616,0.127006,0.036968,0.104895,40.475033,-14.786499,-18.152573,-67.31577,-1.216711,-0.041906014,0.19775586,0.144894,0.030418305,-0.076935515
20231225 09:29:25,-0.847880,0.152493,-0.931363,0.141921,0.088104,0.084654,40.017494,-14.825798,-17.752640,-64.6435,-1.2329104,0.24598414,0.6170163,0.12183678,0.0841333,-0.06848642
20231225 09:29:25,-1.081503,0.301899,-0.756613,0.163228,0.114738,0.070804,40.660072,-14.866905,-18.145477,-62.74955,-1.232712,0.32776088,0.90808296,0.1117522,0.11513282,-0.07759808
20231225 09:29:25,-1.147605,0.251390,-0.726316,0.174947,0.124326,0.074000,40.607319,-14.111290,-18.597244,-63.40634,-1.2349495,0.2584501,0.9460778,0.1223197,0.12606792,-0.08013065
20231225 09:29:25,-0.965347,-0.054935,-0.600091,0.160032,0.091300,0.080392,40.650723,-14.770042,-18.419846,-68.06769,-0.99241847,-0.050422244,0.68631995,0.13485461,0.0921663,-0.07822278
20231225 09:29:25,-0.647737,-0.213706,-0.470883,0.148313,0.034837,0.087850,40.739334,-15.145592,-17.992538,-72.61423,-0.71119523,-0.20319298,0.37590915,0.14745328,0.034749817,-0.09612135
20231225 09:29:25,-0.329620,-0.321616,-0.474086,0.149378,-0.018431,0.086784,41.354252,-15.087982,-18.927979,-75.22537,-0.55863106,-0.30664346,0.060261298,0.15212215,-0.018244881,-0.12584585
20231225 09:29:25,-0.007645,-0.395585,-0.656787,0.134464,-0.086613,0.068673,40.625248,-13.921249,-18.609467,-77.2536,-0.57586604,-0.39724168,-0.2554913,0.12590435,-0.08663201,-0.15115893
20231225 09:29:25,0.232759,-0.238691,-0.874266,0.105699,-0.145207,0.040974,40.200348,-15.656281,-18.098526,-78.67921,-0.6802534,-0.261663,-0.39085144,0.080899246,-0.1454485,-0.1549685
20231225 09:29:25,0.163891,0.120010,-1.294315,0.080131,-0.166514,0.015406,40.175255,-14.999382,-18.007690,-74.226105,-1.1206424,0.14727463,-0.24524133,0.04971281,-0.16607724,-0.13622296
20231225 09:29:25,-0.233333,0.438679,-1.574514,0.046040,-0.138815,0.006883,40.174870,-14.807487,-18.288147,-65.98926,-1.5873381,0.63536465,0.123343274,0.042890213,-0.13562109,-0.090112984
20231225 09:29:25,-0.627398,0.641110,-1.514794,0.024733,-0.087678,0.016471,40.377457,-14.505981,-18.573776,-63.41012,-1.7267473,0.84906715,0.5323418,0.04031386,-0.0870088,-0.05120613
20231225 09:29:25,-0.683700,0.437371,-1.174428,0.024733,-0.038672,0.009014,39.785057,-15.778679,-18.362625,-68.73775,-1.4030349,0.5414674,0.60065925,0.024285864,-0.037769273,-0.036926676
20231225 09:29:25,-0.425523,-0.060014,-0.681509,0.036452,-0.040803,-0.037861,40.042587,-15.482712,-17.843475,-75.93997,-0.7984335,-0.034973722,0.25109765,-0.011430327,-0.03724402,-0.056277107
20231225 09:29:25,-0.088218,-0.317634,-0.208046,0.048170,-0.114312,-0.100717,40.454918,-15.726624,-18.493317,-79.46325,-0.22044775,-0.3164424,-0.113340326,-0.05830682,-0.11328966,-0.110786654
20231225 09:29:25,0.107832,-0.364892,-0.146008,0.062020,-0.206997,-0.141200,39.927078,-15.392212,-18.252457,-79.97716,-0.07198714,-0.36710504,-0.29297975,-0.09015875,-0.20887482,-0.17223473
20231225 09:29:25,0.143838,-0.137695,-0.479908,0.072673,-0.279441,-0.159311,39.936043,-15.297195,-18.258560,-77.78779,-0.3573018,-0.1415262,-0.23777728,-0.10853054,-0.28079668,-0.20810103
20231225 09:29:25,0.017355,0.291730,-1.142293,0.068412,-0.311401,-0.162507,39.715530,-15.788757,-17.960739,-72.03614,-1.0607847,0.35117933,-0.044853836,-0.10709024,-0.30094382,-0.19667062
20231225 09:29:25,-0.264995,0.768453,-1.772818,0.023667,-0.309271,-0.160377,39.865356,-14.731613,-18.698105,-63.348022,-1.8529444,0.99921525,0.21531999,-0.09817727,-0.28173923,-0.13568148
20231225 09:29:25,-0.513514,1.091758,-2.206113,-0.088194,-0.335904,-0.161442,39.751389,-15.408676,-17.985199,-58.958584,-2.441666,1.5119772,0.428522,-0.102456525,-0.2974505,-0.027931478
20231225 09:29:25,-0.750829,1.193512,-2.153655,-0.228820,-0.384910,-0.168899,39.777897,-14.931725,-18.283997,-56.318886,-2.5128994,1.6411316,0.6445215,-0.12768714,-0.3465171,0.081686005
20231225 09:29:25,-0.786546,1.163524,-1.890598,-0.348139,-0.431786,-0.176357,39.389503,-14.769058,-18.566422,-60.796703,-2.2330947,1.4463532,0.76892143,-0.20081128,-0.41375738,0.16264041
20231225 09:29:25,-0.574543,1.060577,-1.524961,-0.426975,-0.427524,-0.208317,39.213814,-14.785515,-18.299149,-66.36054,-1.7526958,1.2174774,0.67072153,-0.30366594,-0.4202433,0.20062828
20231225 09:29:25,-0.596237,1.064232,-0.811738,-0.444020,-0.398760,-0.251996,39.477348,-14.760834,-18.700058,-67.59131,-1.1305437,1.1195581,0.84015673,-0.3720101,-0.39127225,0.17951347
20231225 09:29:25,-0.782579,1.101470,-0.150344,-0.397145,-0.368930,-0.286088,39.361076,-14.286560,-19.669983,-65.672356,-0.69763035,1.0335357,1.1498911,-0.38352096,-0.35368952,0.11511418
20231225 09:29:25,-1.101030,1.200322,0.196213,-0.315113,-0.345492,-0.302068,39.387970,-14.001503,-19.688324,-64.137024,-0.6267604,1.0120847,1.5444515,-0.35091382,-0.3163661,0.041731574
20231225 09:29:25,-1.249254,1.222659,0.228796,-0.223493,-0.310336,-0.297806,38.990997,-14.125748,-19.684158,-62.86477,-0.71363366,0.98232156,1.6877664,-0.29927444,-0.26798764,-0.024143554
20231225 09:29:25,-1.366974,1.201975,0.259199,-0.131873,-0.275179,-0.291414,38.929665,-13.657028,-19.849335,-62.16278,-0.7648219,0.92908967,1.7865105,-0.25111532,-0.22233866,-0.08904403
20231225 09:29:25,-1.370934,1.075956,0.278107,-0.031731,-0.250676,-0.288218,38.691216,-14.338615,-19.539261,-62.65608,-0.72218883,0.8005195,1.735837,-0.20032063,-0.18514967,-0.1597231
20231225 09:29:25,-1.332939,1.150287,0.047287,0.084392,-0.214455,-0.301002,38.763702,-13.962242,-19.027237,-60.967144,-0.9013227,0.9144102,1.6696889,-0.15761103,-0.124530755,-0.24097641
20231225 09:29:25,-1.472659,1.167892,-0.266276,0.215430,-0.130292,-0.330832,38.788414,-14.427269,-19.398544,-55.794144,-1.2806201,0.9355701,1.6837041,-0.12861508,0.010395445,-0.33120894
20231225 09:29:25,-1.872101,1.434150,-0.515093,0.364579,-0.015234,-0.357466,38.762939,-13.578461,-19.588165,-46.516045,-1.8453069,1.098007,1.9766613,-0.1078911,0.20370245,-0.44224012
20231225 09:29:25,-2.516068,2.198543,-0.690717,0.515858,0.116869,-0.326571,38.552807,-12.841148,-19.504425,-37.040123,-2.7438712,1.5319704,2.59418,-0.06715883,0.3901431,-0.54621613
20231225 09:29:25,-3.088876,2.721867,-0.830020,0.602151,0.192508,-0.233885,39.365067,-12.594521,-19.244492,-32.06876,-3.4742172,1.735337,3.0973542,-0.0043224543,0.44799826,-0.5822374
20231225 09:29:25,-3.166409,2.982682,-0.961114,0.582975,0.174397,-0.094325,38.798412,-13.006500,-19.893097,-32.068214,-3.6651368,2.094807,3.195155,0.08238443,0.3393663,-0.5231523
20231225 09:29:25,-2.593810,3.046785,-0.921135,0.460460,0.061471,0.065477,39.011116,-13.185631,-19.343414,-40.827827,-3.141272,2.563025,2.8936741,0.20438662,0.112814575,-0.3886723
20231225 09:29:25,-1.579292,2.945882,-0.972616,0.244194,-0.124965,0.222083,38.535263,-13.223076,-19.211716,-54.77649,-2.1907926,2.9282646,2.1322494,0.3184647,-0.15329048,-0.21899472
20231225 09:29:25,-0.133288,2.529839,-1.051954,-0.076475,-0.363603,0.325422,38.411556,-13.611382,-19.053635,-77.18095,-0.7811432,2.4198613,0.92190456,0.24000332,-0.32748187,-0.0293705
20231225 09:29:25,1.473573,1.979282,-0.930956,-0.469589,-0.607568,0.342468,38.320374,-13.794022,-20.114395,-95.22174,0.6193488,1.1786118,-0.44810104,-0.15104443,-0.33720332,0.15091883
20231225 09:29:25,2.919036,1.400642,-0.545075,-0.862702,-0.789743,0.263632,38.232140,-13.610359,-20.261230,-104.62811,1.8472424,0.02434814,-1.6630948,-0.6520815,-0.26986858,0.28262356
20231225 09:29:25,3.918928,0.777208,0.238546,-1.199352,-0.829161,0.096372,37.331654,-13.673332,-20.667984,-105.14372,3.0159874,-0.6581149,-2.542398,-1.0654062,-0.21917096,0.38005814
20231225 09:29:25,4.194413,0.129763,1.791780,-1.397507,-0.729018,-0.108174,37.288250,-13.014572,-20.845383,-100.698975,4.2582026,-0.7397979,-2.9144807,-1.3241329,-0.23249242,0.39530483
20231225 09:29:25,3.523208,-0.527999,3.970685,-1.386853,-0.564954,-0.280761,36.961193,-13.320625,-20.962631,-97.595695,4.971159,-0.70446795,-2.8326738,-1.3888297,-0.26903725,0.33802223
20231225 09:29:25,2.451936,-1.071389,6.028782,-1.156738,-0.382780,-0.375577,36.863617,-13.040092,-21.383835,-95.798355,4.912225,-0.95642954,-2.637617,-1.221274,-0.25486186,0.2468462
20231225 09:29:25,1.298051,-1.407692,7.576836,-0.752971,-0.258134,-0.387296,36.715088,-11.061977,-22.184296,-92.19335,4.363192,-1.2901036,-2.0879505,-0.8521358,-0.22871897,0.100792035
20231225 09:29:25,0.339443,-1.571103,8.259739,-0.271434,-0.285833,-0.316983,37.017052,-10.099022,-21.976196,-90.101074,3.7879457,-1.531632,-1.5806571,-0.3814032,-0.28442377,-0.14392899
20231225 09:29:25,0.219929,-1.536122,7.367451,0.121679,-0.396629,-0.226428,36.767075,-11.433823,-22.293472,-90.23299,3.650521,-1.4184941,-1.4838395,-0.006472096,-0.4039769,-0.40619656
20231225 09:29:25,0.816276,-1.418741,5.188382,0.323030,-0.489314,-0.163573,36.679226,-11.442051,-22.159836,-89.90362,3.4350033,-1.1230947,-1.6258978,0.14351134,-0.5315496,-0.5865448
20231225 09:29:25,1.665910,-1.332060,3.036865,0.345402,-0.519144,-0.176357,36.185059,-11.477646,-22.296402,-90.74117,2.962461,-1.1303791,-2.120764,0.074542925,-0.5950873,-0.61800975
20231225 09:29:25,2.032402,-1.151567,1.241227,0.237802,-0.475465,-0.256258,36.061356,-11.865955,-22.138321,-91.32349,1.9943937,-1.2474804,-2.2878604,-0.12091942,-0.56029475,-0.49516308
20231225 09:29:25,1.799153,-0.945072,0.032828,0.064151,-0.354015,-0.348943,35.893860,-11.403618,-22.438110,-86.43894,0.94835156,-1.1980014,-1.9946281,-0.29674134,-0.4237122,-0.28319886
20231225 09:29:25,1.050486,-0.735917,-0.252411,-0.113763,-0.216585,-0.411799,35.945080,-11.391693,-23.108215,-77.950066,0.3843728,-0.8212127,-1.303438,-0.41133726,-0.24245307,-0.09276859
20231225 09:29:25,0.078662,-0.673019,0.176152,-0.233082,-0.112181,-0.418191,35.690895,-11.513252,-22.432968,-71.838585,0.21605799,-0.676831,-0.43888193,-0.46372068,-0.10179003,0.023853347
20231225 09:29:25,-0.840781,-0.733668,0.696144,-0.262911,-0.034411,-0.355335,35.733913,-11.980125,-22.536041,-67.762314,0.019779116,-0.91931975,0.32736233,-0.43000263,-0.019470863,0.07744761
20231225 09:29:25,-1.513690,-0.941573,0.977306,-0.224559,0.036968,-0.224297,35.848656,-11.686832,-22.688004,-65.583855,-0.25752455,-1.349583,0.73389494,-0.3188855,0.03487631,0.114742875
20231225 09:29:25,-1.736172,-1.178121,1.087361,-0.149984,0.068928,-0.057038,36.149853,-10.340096,-23.040863,-65.31945,-0.34230155,-1.611153,0.7487792,-0.15795441,0.05096252,0.13143879
20231225 09:29:25,-1.274263,-1.574057,0.804152,-0.070083,0.081712,0.084654,36.097866,-9.968250,-22.931686,-68.603325,-0.1887598,-1.7848564,0.047737718,-8.562431E-4,0.06365798,0.12554702
20231225 09:29:25,-0.584106,-1.863426,0.183398,-0.018947,0.089170,0.170947,35.840725,-10.456104,-23.170334,-72.78724,-0.20858511,-1.8852656,-0.76211286,0.10813618,0.083011456,0.10708852
20231225 09:29:25,0.199419,-2.058784,-0.427778,-0.017881,0.099823,0.203973,35.682964,-10.282528,-22.915298,-78.50325,-0.33580303,-2.0929143,-1.5431623,0.14738484,0.11528421,0.10517943
20231225 09:29:25,0.876979,-2.104838,-0.923493,-0.055168,0.101954,0.194384,35.788353,-9.892365,-23.341629,-83.07711,-0.51589864,-2.3417268,-2.073311,0.1295478,0.14208983,0.121675
20231225 09:29:25,1.411150,-1.978467,-1.261374,-0.118024,0.127522,0.154967,35.488960,-10.297138,-22.916275,-87.528854,-0.5615668,-2.470599,-2.3656156,0.07425004,0.18309253,0.17569874
20231225 09:29:25,1.667068,-1.829099,-1.283610,-0.204317,0.158417,0.105961,35.428009,-10.020306,-22.800964,-88.455376,-0.37280798,-2.4120507,-2.4674518,-0.009182133,0.22023973,0.26024497
20231225 09:29:25,1.703422,-1.658356,-0.910892,-0.281022,0.176528,0.055889,35.392151,-10.400383,-22.776520,-87.62592,0.07816428,-2.1204388,-2.3966384,-0.10309003,0.23584487,0.32954186
20231225 09:29:25,1.586282,-1.502941,-0.394129,-0.332159,0.162679,0.020733,35.224007,-11.455673,-22.307388,-87.39097,0.52660006,-1.7907262,-2.1961539,-0.18151581,0.2164609,0.354884
20231225 09:29:26,1.413395,-1.364294,0.120228,-0.357727,0.131784,0.007948,35.047546,-11.088360,-22.601074,-85.69378,0.86867875,-1.520507,-1.9554275,-0.22449769,0.1815788,0.34840244
20231225 09:29:26,1.337695,-1.313233,0.462140,-0.357727,0.103019,0.012210,35.417240,-11.057293,-22.867371,-85.69196,1.0944328,-1.41144,-1.8467076,-0.23335029,0.15253322,0.32421622
20231225 09:29:26,1.305733,-1.320022,0.763249,-0.327897,0.083843,0.013275,35.408928,-9.634682,-23.630157,-83.27652,1.3118429,-1.3758463,-1.7837224,-0.22133785,0.12589297,0.28537056
20231225 09:29:26,1.189306,-1.281090,1.042681,-0.267173,0.078516,0.004752,34.966747,-10.042126,-23.875916,-82.529076,1.4466838,-1.2933365,-1.6396271,-0.18667139,0.10725167,0.2378381
20231225 09:29:26,0.944850,-1.210462,1.171476,-0.179814,0.093431,-0.011228,35.428009,-10.020306,-22.800964,-81.85052,1.398597,-1.194621,-1.399325,-0.1339668,0.10592737,0.18826282
20231225 09:29:26,0.626939,-1.059386,1.383611,-0.077541,0.112607,-0.030404,35.358093,-9.838501,-22.679565,-79.90879,1.3502862,-1.0301957,-1.0142002,-0.07338238,0.114591286,0.13027023
20231225 09:29:26,0.324049,-0.876847,1.486282,0.034321,0.114738,-0.042123,34.773895,-10.632401,-23.035477,-78.03451,1.2392043,-0.8603345,-0.6227788,-0.0020622239,0.11358437,0.052148283
20231225 09:29:26,0.142550,-0.708623,1.317677,0.139790,0.130718,-0.047450,35.682964,-10.282528,-22.915298,-76.609276,1.0222722,-0.7011231,-0.37362707,0.06703346,0.12950821,-0.015458606
20231225 09:29:26,0.116068,-0.609092,1.097635,0.225018,0.160548,-0.049580,35.612663,-9.908825,-23.074356,-75.20078,0.86494195,-0.6036883,-0.2981991,0.122073814,0.15907717,-0.062110655
20231225 09:29:26,0.136964,-0.514749,0.915662,0.295331,0.191443,-0.048515,35.331200,-10.123558,-22.661224,-75.62244,0.75528544,-0.5042363,-0.285341,0.1688876,0.18711019,-0.09718817
20231225 09:29:26,0.252666,-0.586954,0.662773,0.337945,0.205293,-0.051711,35.453751,-9.159584,-23.660721,-73.63005,0.64790696,-0.57717776,-0.43986714,0.19289969,0.19736555,-0.12823181
20231225 09:29:26,0.368944,-0.660957,0.334395,0.347533,0.199966,-0.063430,34.906563,-10.149075,-23.199661,-74.53656,0.47087133,-0.65955657,-0.6356601,0.18312466,0.18757965,-0.15149857
20231225 09:29:26,0.370845,-0.634398,-0.107583,0.334749,0.202097,-0.076214,35.640709,-10.199436,-22.251282,-73.93069,0.13130124,-0.642563,-0.6866981,0.15123293,0.194889,-0.15618823
20231225 09:29:26,0.168153,-0.609198,-0.439704,0.309181,0.214881,-0.074083,35.604469,-10.387623,-22.507309,-69.97806,-0.24530128,-0.59836155,-0.56086874,0.11767644,0.22049199,-0.14643422
20231225 09:29:26,-0.088453,-0.465274,-0.646279,0.277220,0.241514,-0.058103,35.737522,-10.096184,-22.391022,-66.075195,-0.55147827,-0.4259362,-0.3153587,0.09319324,0.25681415,-0.11733088
20231225 09:29:26,-0.311018,-0.322095,-0.809458,0.238868,0.257495,-0.031469,35.640709,-10.199436,-22.251282,-63.215034,-0.8080113,-0.25717735,-0.101074755,0.07927789,0.27513728,-0.079972506
20231225 09:29:26,-0.467599,-0.234326,-0.865190,0.201580,0.264952,0.005818,36.056381,-10.268940,-21.706726,-62.435154,-0.9430504,-0.16158096,0.06170155,0.081396535,0.27758047,-0.039966494
20231225 09:29:26,-0.566909,-0.108807,-0.921263,0.167489,0.266017,0.048432,36.029488,-10.553997,-21.688385,-61.580044,-1.0572023,-0.03135191,0.19710587,0.09367001,0.27023363,-0.0055998284
20231225 09:29:26,-0.528437,0.023069,-1.003705,0.134464,0.268148,0.096372,35.701660,-10.476261,-22.366577,-60.48145,-1.1256883,0.110474385,0.20738381,0.11672899,0.2631831,0.029930944
20231225 09:29:26,-0.436289,0.122972,-0.997685,0.097176,0.270279,0.142182,35.941643,-10.562222,-21.554749,-63.104195,-1.0864261,0.20040585,0.19825096,0.1421811,0.25925136,0.07383068
20231225 09:29:26,-0.221234,0.122101,-0.947011,0.053497,0.268148,0.178404,35.887466,-10.940449,-21.798538,-66.129234,-0.92937326,0.17275517,0.047694966,0.16295487,0.25827014,0.11940476
20231225 09:29:26,-0.033458,0.238160,-0.686828,0.037517,0.272410,0.205038,35.790657,-11.043701,-21.658798,-68.95744,-0.6045842,0.2586731,0.015180513,0.1845833,0.26659647,0.14422645
20231225 09:29:26,0.111837,0.265695,-0.461173,0.062020,0.292651,0.222083,35.718941,-11.803860,-21.609894,-71.18957,-0.32707122,0.273214,-0.036743872,0.21537095,0.29004973,0.1402044
20231225 09:29:26,0.227871,0.291419,-0.257575,0.101438,0.292651,0.228476,36.382404,-11.288628,-21.101028,-73.23113,-0.0851872,0.2888493,-0.07523966,0.24807616,0.29364437,0.10852826
20231225 09:29:26,0.354952,0.345834,-0.233023,0.138725,0.278802,0.224214,35.657990,-11.527027,-21.494583,-73.95202,0.01087153,0.33032718,-0.1502764,0.2725633,0.28295833,0.06458883
20231225 09:29:26,0.517231,0.455514,-0.370615,0.171751,0.273475,0.213561,36.100555,-11.311466,-20.968384,-75.04567,-0.01702243,0.42001683,-0.25624138,0.2854829,0.2783168,0.023475561
20231225 09:29:26,0.574713,0.376705,-0.565270,0.186666,0.281998,0.201842,35.552597,-11.917183,-21.068253,-75.431274,-0.15523908,0.32396728,-0.37121037,0.28541782,0.28622612,0.0119587295
20231225 09:29:26,0.609459,0.230767,-0.619975,0.179208,0.279867,0.186927,36.073662,-11.596531,-20.950043,-76.30249,-0.18411648,0.16452768,-0.474899,0.27143684,0.28389135,0.016442603
20231225 09:29:26,0.602046,0.200631,-0.488911,0.166424,0.273475,0.170947,35.879654,-11.611141,-20.951019,-75.60065,-0.07156062,0.15844287,-0.46510816,0.24680674,0.27601898,0.02801374
20231225 09:29:26,0.442097,0.077864,-0.215499,0.168555,0.262821,0.174143,35.904747,-12.268044,-21.041855,-75.642136,0.07810888,0.06489831,-0.35005677,0.2456772,0.26409972,0.032075502
20231225 09:29:26,0.400723,-0.114281,0.012295,0.185600,0.230861,0.181600,36.143578,-11.778336,-21.071442,-76.09288,0.24255043,-0.12180532,-0.38757613,0.26222742,0.2319971,0.007401474
20231225 09:29:26,0.481081,-0.180210,0.056835,0.212234,0.198900,0.191188,35.898354,-11.804871,-20.402298,-77.696,0.31860825,-0.19281463,-0.48642272,0.2877229,0.20033316,-0.035321258
20231225 09:29:26,0.575803,-0.238049,-0.135516,0.244194,0.192508,0.192254,36.002327,-12.548576,-20.620651,-78.43422,0.2004005,-0.26958174,-0.6220064,0.30799356,0.19346465,-0.07255656
20231225 09:29:26,0.660702,-0.283174,-0.398757,0.275090,0.203162,0.182666,35.817287,-12.468170,-20.627747,-78.347046,0.008945763,-0.34306443,-0.7487881,0.3178419,0.20256224,-0.10088764
20231225 09:29:26,0.654056,-0.305787,-0.639955,0.296396,0.222338,0.156032,36.205677,-12.630829,-20.345337,-77.61031,-0.22129992,-0.37368852,-0.7855088,0.30241483,0.21994278,-0.12128017
20231225 09:29:26,0.509652,-0.197811,-0.909946,0.305985,0.243645,0.126202,36.072624,-12.922272,-20.461594,-75.03901,-0.5473635,-0.24776223,-0.65349543,0.27081525,0.24138033,-0.13392763
20231225 09:29:26,0.347254,-0.138001,-1.135930,0.284678,0.252168,0.105961,35.781811,-13.040131,-20.322830,-72.424065,-0.8363075,-0.149302,-0.53084666,0.23049322,0.25175026,-0.12135599
20231225 09:29:26,0.215795,-0.136280,-1.296718,0.232476,0.239384,0.086784,35.578842,-13.149757,-20.317688,-70.590416,-1.0529172,-0.12075302,-0.44774753,0.18084401,0.23972641,-0.090307854
20231225 09:29:26,0.147373,-0.069162,-1.433105,0.163228,0.227665,0.075065,36.012444,-13.029221,-19.785370,-69.39889,-1.2137748,-0.013669603,-0.38541138,0.13148461,0.2276989,-0.039438777
20231225 09:29:26,0.026721,0.004065,-1.467215,0.101438,0.230861,0.077196,35.958652,-13.599335,-19.748688,-67.75987,-1.2992078,0.10470956,-0.2688923,0.098318994,0.2283652,0.016988773
20231225 09:29:26,-0.136775,0.010999,-1.386445,0.054562,0.246841,0.094242,36.098869,-14.154846,-19.711029,-67.62203,-1.2922518,0.1206266,-0.113844275,0.08781671,0.240231,0.071643025
20231225 09:29:26,-0.168992,0.063089,-1.196797,0.028994,0.264952,0.113418,36.001675,-14.066200,-19.851746,-67.7099,-1.1394855,0.15350468,-0.03355089,0.09183517,0.2557817,0.10784478
20231225 09:29:26,-0.141993,0.154388,-1.107280,0.022602,0.284128,0.133660,36.329117,-13.952049,-19.454025,-68.90105,-1.0529753,0.23143029,0.006295517,0.106896214,0.2739481,0.12665384
20231225 09:29:26,-0.089366,0.104586,-1.013417,0.023667,0.301174,0.149640,36.161240,-13.297821,-20.034286,-68.80418,-0.93956774,0.161381,-0.048280716,0.124980934,0.29240727,0.1373697
20231225 09:29:26,-0.006323,0.085800,-1.031944,0.026863,0.310762,0.164555,36.161621,-13.489708,-19.753830,-71.339264,-0.91429895,0.11355758,-0.112059295,0.14924602,0.30655798,0.14036025
20231225 09:29:26,0.262548,-0.009420,-1.043251,0.018341,0.307566,0.165620,36.064812,-13.592949,-19.614075,-75.15863,-0.79366666,-0.044966165,-0.36219925,0.16365002,0.31206077,0.14498465
20231225 09:29:26,0.563890,-0.075167,-1.100815,0.002360,0.295847,0.156032,36.215797,-13.111481,-19.510025,-77.90272,-0.70654124,-0.18497254,-0.6407056,0.16136171,0.30682167,0.1498434
20231225 09:29:26,0.687942,-0.123024,-1.183541,-0.020012,0.292651,0.142182,36.276745,-13.388313,-19.625320,-77.80259,-0.73590124,-0.246953,-0.7812163,0.13982335,0.30374682,0.16413012
20231225 09:29:26,0.642818,0.043262,-1.203371,-0.038123,0.289455,0.141117,35.958652,-13.599335,-19.748688,-76.00488,-0.78654724,-0.054482404,-0.6865158,0.1276905,0.2989755,0.17419486
20231225 09:29:26,0.470771,0.303313,-1.382479,-0.061560,0.299043,0.153901,36.365356,-13.763855,-19.198013,-74.10495,-1.0408398,0.2603522,-0.46285406,0.120847166,0.30379602,0.19636871
20231225 09:29:26,0.384637,0.358394,-1.484134,-0.086063,0.303305,0.168816,36.311569,-14.333977,-19.161331,-73.7866,-1.1815888,0.3230922,-0.378995,0.12409457,0.30763704,0.21904369
20231225 09:29:26,0.386184,0.570111,-1.525517,-0.110566,0.296913,0.173077,36.506340,-14.703140,-18.599411,-74.33937,-1.2289114,0.53493303,-0.29831654,0.12003054,0.30141804,0.23509091
20231225 09:29:26,0.411063,0.627106,-1.642781,-0.141462,0.288390,0.174143,36.690613,-14.399773,-19.153259,-74.022125,-1.3292862,0.56202793,-0.3198468,0.115385026,0.2964967,0.25700158
20231225 09:29:26,0.497203,0.736246,-1.667178,-0.191533,0.257495,0.176273,36.356010,-13.666992,-19.472366,-75.67547,-1.2760245,0.5879855,-0.33933777,0.10639738,0.2765707,0.2911527
20231225 09:29:26,0.698286,0.972114,-1.607230,-0.235212,0.222338,0.172012,36.400833,-13.191895,-19.502945,-76.74868,-1.0977585,0.77690554,-0.4147657,0.08682366,0.24814147,0.31687954
20231225 09:29:26,0.718576,0.982651,-1.486319,-0.271434,0.204227,0.162424,36.568329,-13.654228,-19.203140,-78.90153,-0.93401,0.7721586,-0.37247494,0.056914546,0.23470779,0.34308645
20231225 09:29:26,0.810527,1.121487,-1.236538,-0.262911,0.202097,0.143248,36.507378,-13.377403,-19.087860,-78.0418,-0.6647675,0.9650049,-0.37653384,0.036125347,0.22584759,0.3346056
20231225 09:29:26,0.593751,1.187153,-1.145823,-0.213905,0.244710,0.119810,36.241272,-13.960281,-19.320404,-74.73041,-0.733464,1.1362746,-0.16994154,0.023832917,0.25230104,0.30869973
20231225 09:29:26,0.326921,1.257115,-0.907497,-0.160638,0.275606,0.101699,36.498413,-13.472420,-19.081741,-72.86928,-0.67164135,1.2617264,0.12427752,0.018129498,0.27481675,0.27466187
20231225 09:29:26,0.237769,1.378901,-0.725053,-0.102044,0.263887,0.089980,35.845066,-14.468292,-18.755295,-73.7189,-0.5484974,1.3846662,0.29478708,0.032268025,0.26290584,0.21700998
20231225 09:29:26,0.337316,1.318046,-0.804071,-0.065822,0.213815,0.085719,36.814701,-14.203354,-19.030884,-76.041214,-0.5202486,1.2778966,0.17431459,0.05652566,0.2183286,0.15946774
20231225 09:29:26,0.696745,1.148313,-1.172501,-0.066887,0.163744,0.088915,35.950455,-14.078133,-19.181625,-81.21503,-0.58617735,0.9156448,-0.22615199,0.074955046,0.17909318,0.13490495
20231225 09:29:26,1.274886,0.929246,-1.378148,-0.093521,0.120065,0.078261,36.232307,-14.055298,-19.314285,-88.49892,-0.38646543,0.3702087,-0.7552206,0.057601564,0.1471095,0.13753174
20231225 09:29:26,1.759633,0.724463,-1.346830,-0.125481,0.068928,0.037778,35.905251,-14.361351,-19.431534,-93.05371,-0.07500219,-0.058252245,-1.2017375,-0.0036415309,0.097423136,0.14214712
20231225 09:29:26,2.007624,0.727555,-1.361136,-0.142527,0.032706,-0.034665,36.205410,-14.340363,-19.295944,-94.01997,0.038430333,-0.13380593,-1.4138391,-0.08237438,0.043166507,0.14286345
20231225 09:29:26,1.870153,0.893951,-1.304540,-0.134004,0.038033,-0.117763,35.950455,-14.078133,-19.181625,-89.22818,-0.03936255,0.2592642,-1.2797633,-0.15047485,0.022886176,0.13613692
20231225 09:29:26,1.379203,1.171709,-1.151265,-0.096717,0.054013,-0.189141,36.268932,-14.058998,-18.777786,-83.50201,-0.22272813,0.8490863,-0.7910183,-0.20047091,0.02941491,0.1011111
20231225 09:29:26,0.852731,1.518249,-1.018710,-0.041319,0.083843,-0.231755,36.162392,-13.873489,-19.192871,-75.917046,-0.46655583,1.4398935,-0.2378388,-0.2219666,0.07246664,0.048041184
20231225 09:29:26,0.310459,1.643386,-0.810068,0.018341,0.096627,-0.242408,35.932144,-14.076286,-19.449875,-68.94554,-0.68456215,1.6955297,0.26729614,-0.21480766,0.11094147,-0.015116226
20231225 09:29:26,-0.225023,1.764871,-0.730917,0.080131,0.110477,-0.207252,36.110786,-13.693527,-18.803223,-63.917217,-1.0068755,1.8323733,0.7603614,-0.16428404,0.14541605,-0.068299994
20231225 09:29:26,-0.594260,1.727084,-0.742379,0.146182,0.177594,-0.126285,36.250237,-13.865265,-19.326523,-60.66695,-1.2472087,1.7714508,1.0457623,-0.078198776,0.21192248,-0.088479005
20231225 09:29:26,-0.733289,1.785678,-0.558842,0.229280,0.274540,-0.043188,36.507759,-13.569290,-18.807373,-61.444546,-1.1652124,1.7781972,1.2471577,0.014332868,0.29909065,-0.10308941
20231225 09:29:26,-0.628652,2.013809,-0.378210,0.300658,0.364029,-0.020816,36.445007,-14.234428,-18.764587,-63.167763,-0.9716953,1.9833802,1.3056027,0.05611368,0.38780814,-0.12210184
20231225 09:29:26,-0.687606,2.438488,-0.122641,0.361383,0.429016,-0.049580,36.231918,-13.863411,-19.594757,-61.126114,-0.8760342,2.3409486,1.5702357,0.044795003,0.46366194,-0.15760803
20231225 09:29:26,-0.776530,2.863927,0.292905,0.419977,0.463107,-0.087933,36.286861,-13.868965,-18.790009,-62.61916,-0.653828,2.6650736,1.9600344,0.03836625,0.511533,-0.19219272
20231225 09:29:26,-0.810700,3.149041,0.729418,0.473244,0.466303,-0.108174,36.111938,-14.269188,-17.961807,-64.804924,-0.3378315,2.8691578,2.2478838,0.054374598,0.5232359,-0.23005795
20231225 09:29:26,-0.722586,3.228428,0.977134,0.458329,0.411970,-0.095390,36.736973,-14.692230,-18.061951,-68.18521,0.01725316,2.987404,2.3024864,0.08864785,0.4573493,-0.22413412
20231225 09:29:26,-0.236222,3.060987,1.264146,0.363513,0.276671,-0.080475,36.421452,-14.345078,-17.551849,-73.7305,0.7367935,2.9494438,1.9046273,0.09949105,0.29719925,-0.1854828
20231225 09:29:26,0.262038,2.593980,1.457003,0.223953,0.137110,-0.094325,36.464859,-15.003830,-17.374451,-78.55825,1.3100251,2.5649517,1.3115145,0.03886719,0.14227304,-0.12576307
20231225 09:29:26,0.428667,2.047371,1.684850,0.072673,0.054013,-0.113501,36.359081,-15.202095,-17.228607,-79.83266,1.5464903,1.9977165,1.0000823,-0.051632322,0.059711646,-0.03972761
20231225 09:29:26,0.140067,1.522569,2.230875,-0.098848,-0.017365,-0.101782,36.510063,-14.720619,-17.124542,-80.647865,1.7181838,1.4009601,1.0817552,-0.14026913,-0.016212847,0.054641724
20231225 09:29:26,0.138695,0.745116,2.911287,-0.262911,-0.078090,-0.071953,36.211052,-15.317276,-16.418732,-87.76369,2.1161306,0.6785611,0.51640564,-0.23635247,-0.08274226,0.12608078
20231225 09:29:26,0.541031,-0.486113,3.689414,-0.367315,-0.110050,-0.082606,35.935600,-15.803284,-16.925629,-93.2968,2.6943855,-0.48541087,-0.8827169,-0.34053573,-0.109959304,0.14285854
20231225 09:29:26,0.523147,-1.408216,4.542439,-0.375838,-0.064240,-0.144396,36.050339,-15.509987,-17.077591,-95.69426,2.8711977,-1.4661965,-1.8479018,-0.3942137,-0.071447164,0.15702778
20231225 09:29:26,-0.096612,-2.118085,5.304284,-0.293806,-0.020561,-0.201925,35.902580,-13.915657,-17.317123,-93.83111,2.5047486,-2.4019313,-2.1331573,-0.3524726,-0.039452016,0.13181473
20231225 09:29:26,-1.177635,-2.424503,5.787855,-0.168095,-0.046130,-0.205121,36.166496,-14.082848,-17.437546,-92.86835,1.7245936,-3.1087627,-1.888909,-0.2364823,-0.05672495,0.04382991
20231225 09:29:26,-1.963596,-2.292493,5.479412,-0.048776,-0.155860,-0.136939,36.145615,-14.639191,-18.339233,-88.815575,1.2134671,-3.3358047,-0.91717184,-0.08855487,-0.14433452,-0.11354116
20231225 09:29:26,-1.939969,-1.758500,4.262042,0.018341,-0.243219,-0.050646,35.960957,-14.750671,-18.065857,-83.15082,1.0910866,-2.7469115,0.12642571,0.022956608,-0.22352022,-0.21174182
20231225 09:29:26,-1.611660,-1.183876,2.853301,0.027929,-0.259199,0.014341,36.452168,-15.081367,-18.843216,-76.02044,0.8810734,-1.9497117,0.7501859,0.075257346,-0.24755496,-0.20174012
20231225 09:29:26,-1.178833,-0.491298,1.643717,-0.024273,-0.202736,0.046301,35.697422,-14.775352,-17.664948,-72.39409,0.5330864,-0.94558895,0.9137469,0.05411417,-0.20902483,-0.09823299
20231225 09:29:26,-0.818787,-0.136406,0.762161,-0.125481,-0.083417,0.027125,35.500465,-15.156273,-18.579849,-70.10028,0.10745007,-0.37296826,0.7266563,-0.041896284,-0.1028126,0.056503274
20231225 09:29:26,-0.748925,-0.032041,0.723633,-0.225624,0.067863,-0.018685,35.573715,-15.163673,-17.506851,-73.04555,0.06771952,-0.25890505,0.6906296,-0.16998734,0.03757948,0.21134469
20231225 09:29:26,-1.016346,-0.157106,1.554005,-0.254388,0.183986,-0.061299,35.369980,-14.889519,-18.062668,-76.139244,0.36226767,-0.57235587,0.86973476,-0.25294042,0.14704372,0.2953092
20231225 09:29:26,-1.295648,-0.513390,2.729499,-0.160638,0.263887,-0.076214,35.529545,-14.121124,-18.245209,-79.62442,0.7597339,-1.1302046,0.8120177,-0.20984241,0.23929136,0.29193506
20231225 09:29:26,-1.493018,-0.997688,3.518488,0.051366,0.327808,-0.051711,36.085815,-14.938026,-17.382523,-84.93945,0.94317627,-1.7237208,0.32614672,-0.032393962,0.3355725,0.23007227
20231225 09:29:26,-1.414391,-1.465409,3.583826,0.329422,0.365095,0.002622,36.279816,-14.923424,-17.381546,-86.0727,1.0589066,-2.121561,-0.17116266,0.2246784,0.41367558,0.10592962
20231225 09:29:26,-0.985286,-1.955054,2.809030,0.576583,0.377879,0.066543,35.960957,-14.750671,-18.065857,-85.202126,1.083743,-2.3573089,-0.77483964,0.4601532,0.4454075,-0.041998267
20231225 09:29:26,-0.282381,-2.485151,1.620015,0.740647,0.362964,0.112353,35.821892,-14.770828,-17.262100,-86.28417,0.9907023,-2.6039588,-1.6342028,0.6137608,0.41294712,-0.19469604
20231225 09:29:26,0.342660,-2.827825,0.424059,0.803502,0.324612,0.121941,35.944180,-15.516373,-17.212219,-86.52042,0.61649305,-2.8280122,-2.21946,0.64562535,0.34233683,-0.33405998
20231225 09:29:26,0.719348,-3.068438,-0.780264,0.763019,0.264952,0.102764,35.735199,-15.354721,-16.287048,-84.97685,-0.21008015,-3.0818124,-2.477569,0.5499232,0.25997362,-0.4376853
20231225 09:29:27,0.842676,-3.067372,-1.934690,0.611740,0.213815,0.070804,35.423500,-16.028915,-17.049957,-78.72183,-1.2927538,-3.0733252,-2.376457,0.35856882,0.21314968,-0.42712587
20231225 09:29:27,0.628365,-2.912888,-2.637242,0.375232,0.163744,0.045236,35.796150,-15.631554,-16.402344,-70.58911,-1.8188567,-2.596401,-2.0902028,0.18150017,0.17575616,-0.2695648
20231225 09:29:27,0.289422,-2.692861,-2.624912,0.119549,0.110477,0.034582,36.298901,-15.309052,-16.552353,-63.952023,-1.5517864,-2.0094576,-1.8799449,0.06017465,0.112866946,-0.054542325
20231225 09:29:27,-0.108708,-2.467324,-2.076925,-0.096717,0.040164,0.047366,36.051491,-16.085655,-16.236191,-64.93014,-1.1069887,-1.8401321,-1.5599183,-0.023254476,0.010768187,0.1119328
20231225 09:29:27,-0.518121,-2.210630,-1.289160,-0.228820,-0.026953,0.080392,36.210289,-14.933495,-16.979660,-65.760315,-0.75309265,-1.8809495,-1.0795004,-0.066180706,-0.08651732,0.18992454
20231225 09:29:27,-0.588703,-2.023176,-0.613522,-0.279957,-0.093005,0.112353,35.530430,-16.406319,-16.354416,-73.59971,-0.43948647,-1.9323756,-0.86851156,-0.07295019,-0.15566123,0.18186615
20231225 09:29:27,-0.404343,-1.975415,-0.177333,-0.279957,-0.155860,0.121941,35.741211,-15.626007,-17.207077,-75.70008,-0.10596852,-1.9630315,-0.94730085,-0.065324746,-0.2048443,0.13697675
20231225 09:29:27,-0.147330,-1.763153,0.102628,-0.255454,-0.217651,0.101699,35.663101,-15.922989,-16.518616,-79.89135,0.16392367,-1.7704607,-0.99536467,-0.065382876,-0.2482892,0.06852329
20231225 09:29:27,0.069516,-1.531058,0.204440,-0.226689,-0.269853,0.066543,35.336040,-16.229034,-16.635864,-80.982574,0.3217294,-1.5347444,-0.99093896,-0.07108909,-0.28825608,0.013318626
20231225 09:29:27,0.169199,-1.271993,0.293673,-0.203252,-0.301813,0.028190,35.468712,-15.745712,-16.800064,-80.258156,0.43001634,-1.2778126,-0.88891476,-0.083184555,-0.31497526,-0.02613155
20231225 09:29:27,0.097979,-0.966722,0.477740,-0.176618,-0.317793,0.003687,35.220150,-15.946663,-17.325302,-79.32208,0.51116836,-0.9943766,-0.61945295,-0.08199944,-0.32825667,-0.059525426
20231225 09:29:27,-0.024874,-0.804598,0.670832,-0.146788,-0.331643,-0.003770,35.229500,-16.043526,-17.050934,-79.8436,0.56828564,-0.86188567,-0.41308716,-0.06683739,-0.34013167,-0.097231105
20231225 09:29:27,-0.076044,-0.704166,0.904033,-0.114828,-0.347623,-0.004836,34.771191,-15.699051,-17.211960,-80.3837,0.6884022,-0.77921015,-0.2972287,-0.05026225,-0.35328704,-0.1374254
20231225 09:29:27,-0.056475,-0.712115,1.009485,-0.060495,-0.349754,-0.009097,34.911022,-16.062668,-17.454773,-81.87129,0.76674294,-0.7752205,-0.32595128,-0.024864534,-0.35126463,-0.18215962
20231225 09:29:27,0.090770,-0.599524,1.143328,0.015145,-0.347623,-0.027208,34.671425,-16.168602,-17.986130,-81.22427,0.95779693,-0.66336185,-0.3423386,0.010918979,-0.34396333,-0.2391047
20231225 09:29:27,0.017067,-0.623688,1.009847,0.097176,-0.342296,-0.053842,34.822792,-15.879013,-17.601608,-80.01428,0.8272516,-0.69477236,-0.29535738,0.04687299,-0.33061162,-0.2971436
20231225 09:29:27,-0.113506,-0.436977,0.831098,0.191992,-0.327381,-0.084737,35.325157,-15.364616,-18.032104,-75.21546,0.6322519,-0.5295995,-0.03731081,0.084016785,-0.30021656,-0.3577048
20231225 09:29:27,-0.431592,-0.119676,0.393153,0.288939,-0.287964,-0.098586,34.399960,-14.962570,-18.067551,-68.82126,0.08925642,-0.2315963,0.37161678,0.1332903,-0.23267442,-0.41089517
20231225 09:29:27,-0.695552,0.000860,-0.110075,0.348599,-0.246415,-0.097521,34.830990,-15.400215,-18.168671,-63.239723,-0.4564039,-0.07033199,0.56589794,0.15808386,-0.16823591,-0.4353058
20231225 09:29:27,-0.790598,0.152003,-0.368955,0.363513,-0.209128,-0.073018,34.600357,-15.411133,-18.706131,-56.183434,-0.7313944,0.12422812,0.653401,0.17508422,-0.11982798,-0.42186582
20231225 09:29:27,-1.015263,0.340268,-1.022387,0.331553,-0.168645,-0.028273,34.689354,-15.978561,-17.998352,-54.329884,-1.422015,0.4763072,0.75591236,0.18201233,-0.094240464,-0.36503038
20231225 09:29:27,-1.072580,0.284652,-1.286523,0.243129,-0.152664,0.016471,34.468842,-16.470116,-17.700516,-53.43907,-1.6426874,0.5140047,0.7174281,0.1737188,-0.10632944,-0.2679003
20231225 09:29:27,-0.991693,0.210155,-1.275753,0.188796,-0.151599,0.036713,34.460258,-16.757027,-17.413925,-55.778194,-1.5798843,0.4389217,0.63652486,0.1640521,-0.123095654,-0.21575572
20231225 09:29:27,-0.905088,0.093796,-1.197780,0.025798,-0.163318,0.087850,34.230011,-16.959824,-17.670929,-58.93306,-1.4552174,0.28635484,0.5514662,0.13053828,-0.17564389,-0.066789806
20231225 09:29:27,-0.770839,0.059368,-0.948975,-0.044515,-0.155860,0.096372,34.529022,-16.363174,-18.376755,-60.348614,-1.1846958,0.18472409,0.474483,0.09759435,-0.17910439,-0.0032351427
20231225 09:29:27,-0.854384,0.219216,-0.750899,-0.054103,-0.124965,0.101699,34.538376,-16.460037,-18.102402,-58.11607,-1.0970111,0.28606755,0.6464608,0.09326424,-0.15526335,0.022068957
20231225 09:29:27,-1.172579,0.306456,-0.801023,-0.007228,-0.031215,0.123006,34.255371,-15.907211,-18.811157,-54.087654,-1.3269753,0.32630593,0.9073465,0.1056735,-0.06929649,0.029565394
20231225 09:29:27,-1.285800,0.046563,-0.626418,0.041778,0.063601,0.143248,34.246407,-16.002228,-18.805054,-56.561928,-1.1873298,-0.005445704,0.93470806,0.11720653,0.02451329,0.0335775
20231225 09:29:27,-1.271516,-0.052765,-0.371319,0.095046,0.116869,0.157097,34.237442,-16.097244,-18.798935,-59.75138,-0.97104096,-0.1705299,0.9421549,0.14528336,0.08507329,0.017808631
20231225 09:29:27,-1.193804,-0.300659,-0.253150,0.146182,0.143502,0.174143,34.001186,-16.028763,-18.135895,-61.900673,-0.7807977,-0.422685,0.7855968,0.1820746,0.11664069,-0.007357493
20231225 09:29:27,-0.980911,-0.562136,-0.373089,0.156836,0.125391,0.202907,34.256142,-16.290985,-18.250198,-64.6227,-0.7109573,-0.59841084,0.4660717,0.22259387,0.09901352,-0.02411712
20231225 09:29:27,-0.528627,-0.641351,-0.578937,0.125941,0.063601,0.226345,34.089417,-16.212433,-17.989059,-68.924774,-0.67090154,-0.5954689,0.04672835,0.24749538,0.041505042,-0.03720779
20231225 09:29:27,-0.027746,-0.668252,-0.952672,0.070543,-0.008842,0.233802,34.087227,-16.962502,-18.342041,-71.87829,-0.8103903,-0.60335195,-0.4058104,0.2399385,-0.022044737,-0.032837525
20231225 09:29:27,0.274499,-0.534209,-1.464561,0.007687,-0.048260,0.221018,34.015121,-17.530769,-18.573593,-72.26516,-1.2073289,-0.4894086,-0.6421735,0.20596673,-0.054340225,0.0017538127
20231225 09:29:27,0.327443,-0.337293,-1.825079,-0.049842,-0.037607,0.200777,33.841621,-16.797157,-17.953354,-71.12076,-1.5536873,-0.27369383,-0.64720196,0.1681114,-0.04474035,0.057252463
20231225 09:29:27,0.248866,-0.111681,-1.904677,-0.095652,-0.009908,0.180535,33.990417,-17.065750,-18.202271,-69.221436,-1.6603942,0.008120224,-0.5243454,0.13146214,-0.02296704,0.109240785
20231225 09:29:27,0.099582,-0.013352,-1.798738,-0.114828,0.002876,0.169881,33.849167,-17.835991,-17.751495,-69.39267,-1.6049402,0.1426323,-0.34650883,0.109796196,-0.015700735,0.13017184
20231225 09:29:27,0.019982,-0.076104,-1.535460,-0.143592,0.010334,0.151770,33.372929,-17.681549,-17.900284,-71.19539,-1.3675052,0.0334334,-0.2622239,0.07397847,-0.005282971,0.15487544
20231225 09:29:27,0.117938,-0.340556,-1.260655,-0.180879,-0.040803,0.118745,34.113354,-16.293663,-18.921310,-74.029915,-1.0530684,-0.31856468,-0.419759,0.020952947,-0.044351496,0.15678318
20231225 09:29:27,0.464004,-0.612180,-0.922131,-0.219232,-0.122835,0.082523,34.237442,-16.097244,-18.798935,-79.86119,-0.5917076,-0.6723985,-0.78674537,-0.04589677,-0.11179173,0.1355173
20231225 09:29:27,0.740707,-0.670632,-0.740887,-0.250127,-0.233631,0.035648,33.787834,-17.367279,-17.916672,-84.76198,-0.31155026,-0.7749361,-1.0135999,-0.11964938,-0.21536298,0.09638725
20231225 09:29:27,0.823664,-0.657804,-0.763680,-0.282088,-0.331643,-0.014424,33.381512,-17.394638,-18.186859,-83.87932,-0.30019662,-0.76840425,-1.082269,-0.1852087,-0.3159435,0.076307625
20231225 09:29:27,0.730843,-0.408944,-0.884631,-0.298068,-0.400890,-0.049580,33.814342,-16.890327,-18.215485,-80.745926,-0.4503292,-0.48934424,-0.9030303,-0.21164405,-0.39266238,0.068272024
20231225 09:29:27,0.429777,-0.054932,-1.029974,-0.282088,-0.413675,-0.077279,33.626350,-17.176216,-19.136490,-74.13815,-0.726997,-0.049580175,-0.5341554,-0.19395769,-0.4139469,0.06384265
20231225 09:29:27,0.041042,0.349522,-1.177475,-0.259715,-0.392368,-0.087933,33.486134,-16.620705,-19.174149,-67.716705,-1.0683091,0.45246318,-0.09042157,-0.15736362,-0.39377707,0.061755374
20231225 09:29:27,-0.391173,0.476914,-1.175334,-0.141462,-0.273049,-0.138004,33.143333,-16.366714,-18.926193,-62.10497,-1.2900772,0.6430051,0.2919012,-0.1352564,-0.25545108,-0.010919945
20231225 09:29:27,-0.812446,0.676231,-0.936664,-0.053038,-0.214455,-0.178487,33.291744,-16.443428,-19.455597,-58.12681,-1.3346187,0.77193904,0.75715375,-0.12724486,-0.17177448,-0.08081774
20231225 09:29:27,-1.150269,0.721862,-0.820072,-0.004032,-0.191017,-0.193402,33.089161,-16.744949,-19.169998,-55.923923,-1.4375746,0.7361603,1.0742373,-0.10910373,-0.12761386,-0.12513286
20231225 09:29:27,-1.380680,0.277306,-0.755972,0.101438,-0.161187,-0.207252,33.061501,-16.646225,-19.712585,-56.047306,-1.4020199,0.24064544,1.0835755,-0.069989786,-0.07672513,-0.2155968
20231225 09:29:27,-1.190414,-0.201691,-0.590632,0.098242,-0.234696,-0.193402,33.433762,-16.056969,-19.345444,-62.88347,-1.0787438,-0.22916508,0.7660457,-0.057427406,-0.17473643,-0.24184558
20231225 09:29:27,-0.657685,-0.451656,-0.546761,0.062020,-0.359342,-0.179553,33.061111,-16.454338,-19.993073,-67.924614,-0.75240016,-0.43048632,0.23400617,-0.07679039,-0.33027,-0.2623798
20231225 09:29:27,-0.097868,-0.584298,-0.876933,0.021537,-0.449896,-0.178487,33.034988,-17.123169,-19.413773,-73.385185,-0.79699904,-0.55973405,-0.30693865,-0.13239421,-0.44403338,-0.25232846
20231225 09:29:27,0.229866,-0.460979,-1.374635,-0.013620,-0.476530,-0.206186,32.824471,-16.193962,-19.610504,-70.61421,-1.1434348,-0.43973348,-0.5835925,-0.18592557,-0.47361204,-0.20565525
20231225 09:29:27,0.013640,0.110839,-1.878528,-0.027469,-0.470138,-0.224297,33.096588,-15.882370,-20.297989,-58.32207,-1.7482105,0.39194134,-0.32582787,-0.14644492,-0.43196854,-0.15599722
20231225 09:29:27,-0.687088,0.823749,-2.330689,-0.076475,-0.401956,-0.280761,32.787464,-15.998383,-20.427444,-39.322437,-2.55107,1.5913389,0.24634409,-0.10371104,-0.26135153,-0.07680942
20231225 09:29:27,-1.399798,1.477549,-2.570060,-0.108436,-0.367865,-0.285022,32.689499,-15.525963,-21.129120,-27.818651,-3.251562,2.3292093,0.80494183,-0.06320311,-0.17312536,-0.036114868
