Timestamp,linacce_x,linacce_y,linacce_z,gyro_x,gyro_y,gyro_z,X-magnetometer,Y-magnetometer,Z-magnetometer,Yaw, worldXAccel,worldYAccel,worldZAccel,worldXgyro,worldYgyro,worldZgyro
20231225 09:32:42,1.258444,-0.290215,-0.048650,0.016210,-0.214455,-0.556686,-32.842297,-1.491302,-7.558517,77.85978,0.91423273,-0.4385005,-0.58723986,-0.35725144,-0.2672634,0.06126655
20231225 09:32:42,0.989319,-0.261145,0.303730,0.058824,-0.233631,-0.644045,-33.273708,-0.861767,-7.737869,79.07196,0.9439881,-0.3180469,-0.37516403,-0.37033492,-0.27750397,0.046767876
20231225 09:32:42,0.577002,-0.200636,0.390550,0.122745,-0.253872,-0.702639,-32.885311,-1.024437,-7.455460,81.53253,0.6878021,-0.20838726,-0.17283586,-0.36189118,-0.27597097,0.034818485
20231225 09:32:42,0.140728,-0.020788,0.184941,0.203711,-0.250676,-0.718619,-33.187283,-1.987392,-7.663544,84.48551,0.22857784,-0.021156743,-0.06557977,-0.3261014,-0.23832619,-0.0021997057
20231225 09:32:42,-0.354155,0.375362,-0.097662,0.261240,-0.249611,-0.685593,-33.035526,-1.889690,-6.998566,87.42644,-0.34273192,0.35765567,-0.017032096,-0.2833097,-0.18860848,-0.030690322
20231225 09:32:42,-0.748702,0.505702,-0.592387,0.275090,-0.249611,-0.619542,-33.159618,-2.086105,-7.120941,90.286575,-0.9972409,0.48739868,0.2088197,-0.23301236,-0.14317527,-0.030588232
20231225 09:32:42,-1.110093,0.395420,-1.109030,0.251652,-0.221912,-0.527922,-33.204060,-2.753094,-6.809906,94.44576,-1.6126784,0.4028768,0.61697954,-0.17422119,-0.08613738,-0.010950711
20231225 09:32:42,-1.383352,0.036095,-1.363306,0.228214,-0.160122,-0.432040,-32.807087,-2.628853,-6.814056,95.82617,-1.9115982,0.04727325,1.078512,-0.11598313,-0.028235175,-0.027272737
20231225 09:32:42,-1.532754,-0.333533,-1.471777,0.235672,-0.084482,-0.347878,-32.861256,-3.007080,-7.057861,97.51358,-2.0026248,-0.32528347,1.4599138,-0.053024635,0.044728816,-0.077509604
20231225 09:32:42,-1.695961,-0.626967,-1.499753,0.285743,-0.018431,-0.275434,-32.691578,-2.719349,-6.405090,99.191765,-2.05256,-0.63861364,1.8053329,0.023298904,0.11453573,-0.15768743
20231225 09:32:42,-1.837437,-0.651737,-1.623787,0.382690,0.029510,-0.221101,-32.773411,-2.998856,-7.191483,100.48209,-2.1837676,-0.64503884,1.972006,0.11051357,0.18657714,-0.26744193
20231225 09:32:42,-2.007108,-0.623684,-2.061095,0.463656,0.058275,-0.190206,-32.887379,-3.675919,-6.478577,105.63975,-2.5005531,-0.44987833,2.2743888,0.15489815,0.25073245,-0.3538106
20231225 09:32:42,-2.181823,-0.327287,-2.729874,0.434892,0.041229,-0.165703,-32.730389,-3.465725,-7.294571,110.29271,-2.9812007,0.2529298,2.5049617,0.12001108,0.24585722,-0.34385797
20231225 09:32:42,-2.342840,0.238416,-3.472834,0.263371,-0.006712,-0.125220,-32.739353,-3.560745,-7.288452,115.561935,-3.6578336,1.3226197,2.670532,0.05087296,0.14411104,-0.19766733
20231225 09:32:42,-2.278646,0.998923,-3.888480,-0.035992,-0.079155,-0.057038,-32.781994,-3.285767,-6.904907,117.68095,-4.256998,2.3786504,2.4530976,-0.009474799,-0.03793445,0.07426542
20231225 09:32:42,-2.030998,1.787425,-4.059917,-0.428040,-0.133488,0.028190,-33.171154,-2.739315,-7.748276,110.95459,-4.812422,3.1312764,1.7874322,-0.075931855,-0.21798098,0.43895417
20231225 09:32:42,-1.503569,2.339452,-3.749212,-0.861637,-0.142011,0.107026,-33.091503,-3.209885,-7.314850,101.17503,-4.594551,3.240992,0.7514645,-0.2041551,-0.2993617,0.8372273
20231225 09:32:42,-0.902826,2.609815,-2.903465,-1.249424,-0.079155,0.149640,-32.999569,-2.513489,-9.770859,86.36449,-3.3436847,2.9404006,-0.54036987,-0.455804,-0.2055311,1.1396683
20231225 09:32:42,-0.328618,2.642633,-1.370041,-1.485931,0.036968,0.140052,-32.958683,0.884373,-9.858292,78.57271,-1.4196558,2.6927562,-1.459719,-0.78441185,-0.024971703,1.181624
20231225 09:32:42,-0.089736,2.401095,0.466755,-1.528545,0.152025,0.063347,-33.228611,1.322849,-8.817825,79.87839,0.18234432,2.3786693,-1.5489393,-1.0407495,0.09615842,0.9836033
20231225 09:32:42,-0.308611,2.285972,2.286768,-1.396442,0.217011,-0.039992,-32.551861,-1.181557,-7.977768,85.94019,1.0684701,2.137087,-1.4561675,-1.1239837,0.12692651,0.7051682
20231225 09:32:42,-0.980723,2.148058,3.729771,-1.107732,0.226600,-0.115632,-32.596302,-1.848545,-7.666718,89.638855,1.1375983,1.7140595,-1.1802975,-0.9919591,0.106137685,0.44786018
20231225 09:32:42,-1.759224,1.896675,4.430135,-0.706096,0.228730,-0.115632,-32.552250,-0.989670,-8.258240,89.73886,0.66106665,1.1161671,-0.6342623,-0.6798468,0.12181586,0.18692763
20231225 09:32:42,-2.276534,1.574080,4.591053,-0.255454,0.206358,-0.033600,-32.589756,1.299217,-10.685532,85.44425,0.22162151,0.55615723,0.16818771,-0.25902426,0.15610354,-0.043475028
20231225 09:32:42,-2.353649,1.356349,4.009653,0.184535,0.157352,0.093176,-33.118633,0.307877,-9.956223,87.54441,0.016865969,0.37930712,0.30784076,0.184467,0.1764903,-0.2294967
20231225 09:32:42,-1.930591,1.287658,2.733937,0.559537,0.124326,0.216757,-32.559139,1.566803,-9.229004,85.372246,-0.11873698,0.6211773,0.29019493,0.56148565,0.18660788,-0.41771626
20231225 09:32:42,-1.228798,0.742663,1.100600,0.829071,0.095562,0.280678,-32.558544,-1.530376,-10.366547,86.35526,-0.3098688,0.47494012,0.28247577,0.8020072,0.16508712,-0.59519184
20231225 09:32:42,-0.548119,0.257710,-0.496619,0.968631,0.079582,0.279612,-32.050770,1.809917,-10.579529,78.988174,-0.7554511,0.25345337,0.14910343,0.8698487,0.12855302,-0.71023136
20231225 09:32:42,-0.056233,0.055589,-1.735751,0.991003,0.055078,0.231672,-32.330959,-0.881889,-7.995132,82.33856,-1.3770483,0.11888589,-0.13850021,0.80601037,0.076878324,-0.7805818
20231225 09:32:42,0.263453,-0.266825,-2.715630,0.917494,0.018857,0.163489,-32.588108,-1.369747,-8.233795,79.24831,-2.0535395,-0.29220027,-0.3566088,0.6684092,0.014520476,-0.7380199
20231225 09:32:42,0.516880,-0.561383,-3.304153,0.769411,-0.042934,0.081458,-32.182552,-0.958599,-8.524521,74.90391,-2.5255337,-0.7710536,-0.6070291,0.48201066,-0.06681328,-0.61326236
20231225 09:32:42,0.693549,-0.651436,-3.731664,0.579779,-0.113247,0.001556,-32.966496,0.213688,-9.010757,70.17987,-2.9419992,-1.0872321,-0.9257689,0.27666748,-0.1475595,-0.4504456
20231225 09:32:42,0.772352,-0.609146,-3.989283,0.359252,-0.157991,-0.080475,-32.465054,-2.499069,-7.622955,72.39645,-3.1991591,-1.1902597,-0.9758699,0.07749856,-0.19248869,-0.2577759
20231225 09:32:42,0.740950,-0.507082,-4.086709,0.120614,-0.191017,-0.157180,-32.325993,-2.478909,-8.426712,73.64239,-3.3367991,-0.896634,-0.96129966,-0.10175149,-0.20926836,-0.04471586
20231225 09:32:42,0.516569,-0.217996,-3.967870,-0.113763,-0.214455,-0.222167,-32.545086,-1.836617,-8.336853,79.04959,-3.3077106,-0.17870203,-0.7042943,-0.24759208,-0.2129122,0.17739516
20231225 09:32:42,-0.015578,0.175612,-3.706864,-0.328963,-0.219781,-0.265846,-31.875607,-1.592667,-8.748032,87.03573,-3.2447748,0.7659352,-0.16030255,-0.35085434,-0.2018712,0.38718256
20231225 09:32:42,-0.735462,0.702756,-3.209083,-0.503680,-0.208062,-0.267977,-32.057812,0.755455,-9.171051,90.78067,-3.17271,1.3833947,0.28232428,-0.4271604,-0.2088528,0.5400283
20231225 09:32:42,-1.371876,1.015658,-2.570055,-0.627260,-0.199540,-0.241343,-32.208294,-1.819324,-7.664764,98.08996,-3.0489178,1.4184992,0.7500335,-0.48694944,-0.24525209,0.6460378
20231225 09:32:42,-1.853248,1.304832,-1.915663,-0.693312,-0.203801,-0.193402,-32.042339,-1.514103,-8.486877,97.69285,-2.9293478,1.3471746,0.82357633,-0.5056794,-0.29326046,0.6867992
20231225 09:32:42,-2.136279,1.530156,-1.337617,-0.696508,-0.187821,-0.126285,-32.332760,-1.823853,-8.067627,98.32201,-2.7654014,1.2841234,0.78684163,-0.4829893,-0.30675563,0.6646552
20231225 09:32:42,-2.220967,1.610616,-0.845911,-0.644306,-0.157991,-0.048515,-32.163471,-1.344227,-7.695343,96.44372,-2.495595,1.2100477,0.6134496,-0.4301934,-0.285929,0.58393604
20231225 09:32:42,-2.023872,1.315722,-0.308006,-0.558013,-0.148403,0.019667,-31.724247,-1.303082,-8.363510,92.46116,-1.9109973,0.9244482,0.47454038,-0.35906163,-0.2565994,0.49426958
20231225 09:32:42,-1.561360,0.933602,0.093540,-0.448282,-0.170775,0.066543,-32.518963,-1.167778,-8.916138,88.91652,-1.2154088,0.67123395,0.3684731,-0.26322153,-0.24257073,0.4297325
20231225 09:32:42,-0.903555,0.742198,0.183599,-0.316179,-0.197409,0.083588,-32.014675,-1.612823,-7.944275,87.227455,-0.6058835,0.6443054,0.06317174,-0.16324171,-0.23004334,0.36134985
20231225 09:32:42,-0.313972,0.627174,0.028683,-0.164899,-0.196344,0.059085,-32.393337,-1.738914,-7.671860,85.14985,-0.23274599,0.6130137,-0.24072884,-0.0731237,-0.20463453,0.25918677
20231225 09:32:42,-0.007899,0.594437,-0.388736,-0.020012,-0.181429,0.002622,-32.217258,-1.914345,-7.658661,84.37687,-0.29732287,0.6043991,-0.43826425,-0.007293424,-0.18190901,0.14165309
20231225 09:32:42,-0.101432,0.742737,-0.937341,0.105699,-0.152664,-0.071953,-31.907749,-1.990223,-7.248718,85.907036,-0.8109164,0.7884785,-0.4570632,0.024497915,-0.14293547,0.017745072
20231225 09:32:42,-0.409665,1.027427,-1.591448,0.213299,-0.089809,-0.143331,-31.731289,-2.357544,-6.955048,89.7691,-1.6267718,1.1730567,-0.29882303,0.027276173,-0.051046878,-0.11593574
20231225 09:32:42,-0.898853,1.168117,-2.144480,0.261240,-0.019496,-0.190206,-31.625896,-1.967384,-7.381378,94.118835,-2.4621458,1.4577384,0.1485665,0.006032288,0.06426136,-0.19397518
20231225 09:32:42,-1.406031,1.093644,-2.490771,0.244194,0.022053,-0.189141,-31.786228,-2.351994,-7.759781,97.48147,-3.0277615,1.4444418,0.7077629,-0.009992957,0.12169787,-0.19764322
20231225 09:32:42,-1.487394,0.914088,-2.541529,0.182404,0.003942,-0.152919,-31.574299,-2.147343,-7.771027,96.65002,-3.0612566,1.2580955,0.849856,-0.0118254945,0.07996087,-0.14008188
20231225 09:32:42,-1.221663,0.799500,-2.548600,0.116353,-0.039737,-0.118828,-31.619122,-2.622440,-7.740463,93.9636,-2.886646,1.1375833,0.64276725,-0.01830227,0.0051634926,-0.06772757
20231225 09:32:42,-0.849219,0.575350,-2.605391,0.037517,-0.086613,-0.114567,-31.486073,-2.331005,-7.624191,91.47417,-2.6569505,0.90779567,0.38753843,-0.05329586,-0.059883103,0.022358695
20231225 09:32:42,-0.696455,0.350989,-2.423768,-0.061560,-0.153730,-0.128416,-31.643826,-2.157425,-7.369156,90.05808,-2.3554482,0.60685384,0.3327087,-0.11602421,-0.14014718,0.14341639
20231225 09:32:42,-0.537033,0.342768,-2.022271,-0.165965,-0.250676,-0.129481,-31.634480,-2.254292,-7.094788,88.18739,-1.9191284,0.4874466,0.15323281,-0.1815015,-0.24960715,0.28515407
20231225 09:32:42,-0.167475,0.535527,-1.616425,-0.243735,-0.344427,-0.151854,-31.352245,-2.423340,-6.946976,85.05554,-1.3629584,0.58343273,-0.3037772,-0.26153558,-0.34582904,0.39880168
20231225 09:32:42,0.261625,1.065256,-1.333246,-0.282088,-0.390237,-0.236016,-31.282711,-2.413261,-7.348862,81.78474,-0.8554864,1.0484927,-0.9901122,-0.36542374,-0.39025965,0.44146776
20231225 09:32:42,0.299114,1.624863,-0.973812,-0.294872,-0.374257,-0.378773,-31.545864,-2.629841,-6.667480,84.575874,-0.59293276,1.6440471,-1.31044,-0.47384337,-0.3719442,0.44123662
20231225 09:32:42,-0.139417,2.110150,-0.534403,-0.305525,-0.286898,-0.527922,-31.555599,-2.341084,-7.222305,87.5009,-0.66522384,2.1318042,-1.2759161,-0.5745919,-0.2636799,0.40351844
20231225 09:32:42,-0.897559,2.561757,0.350852,-0.284218,-0.155860,-0.638718,-30.982166,-2.584164,-6.932800,91.92872,-0.71754456,2.3518474,-1.1194359,-0.629404,-0.10270826,0.3281891
20231225 09:32:42,-1.814832,2.976367,1.576124,-0.181945,-0.023757,-0.690920,-30.621433,-2.648113,-7.192963,94.95732,-0.8344048,2.2359333,-1.0452825,-0.5817086,0.06570177,0.18473296
20231225 09:32:42,-2.880832,3.320766,2.952801,0.039648,0.059340,-0.671744,-30.656918,-3.220081,-6.888062,98.73507,-1.12002,1.7787814,-1.0057496,-0.38982695,0.20865342,0.0077287555
20231225 09:32:42,-4.011739,3.703358,3.803691,0.352860,0.029510,-0.575862,-30.815060,-2.854610,-6.913483,101.19394,-1.831852,1.1506944,-0.81211746,-0.07119697,0.285874,-0.16102628
20231225 09:32:42,-5.073883,4.189608,3.558664,0.689510,-0.051456,-0.409668,-30.401958,-3.482300,-7.002365,106.05767,-3.101682,0.5865748,-0.3431735,0.29290408,0.3455282,-0.3391275
20231225 09:32:42,-5.797235,4.776773,2.330484,0.931344,-0.156926,-0.189141,-30.340626,-3.951019,-6.837189,111.70978,-4.676838,0.5630657,0.4543351,0.6050216,0.32902485,-0.51657516
20231225 09:32:42,-5.878996,5.036116,0.855344,1.003788,-0.263461,0.069739,-30.058773,-3.928177,-6.969849,114.885544,-5.7109046,1.1084923,1.3086966,0.81609184,0.1700693,-0.63130856
20231225 09:32:42,-5.181776,4.964157,-0.245440,0.927083,-0.346558,0.329684,-30.385830,-4.234226,-7.087097,114.037346,-5.6334205,2.2351136,1.5623931,0.9284299,-0.106772214,-0.6404468
20231225 09:32:42,-3.792844,4.670115,-0.886082,0.737451,-0.363603,0.529969,-30.225506,-3.849617,-6.708694,107.35073,-4.571765,3.4909766,0.9672609,0.93435156,-0.34526432,-0.522544
20231225 09:32:42,-2.058818,4.390201,-1.015445,0.415715,-0.344427,0.652484,-30.109997,-3.940109,-6.299713,95.07471,-2.780496,4.2221384,-0.5108679,0.82590985,-0.4120151,-0.20258874
20231225 09:32:42,-0.218347,3.534249,-0.118139,-0.001901,-0.391302,0.691902,-30.197842,-3.948338,-6.166092,83.08261,-0.07410083,3.531194,-2.0510857,0.51789784,-0.3602447,0.29886875
20231225 09:32:42,1.700241,2.234690,1.330332,-0.348139,-0.470138,0.625850,-30.064785,-3.656902,-6.049820,77.9527,2.4887545,2.06399,-2.5552084,0.057935566,-0.29042098,0.6743053
20231225 09:32:42,3.341028,1.002131,2.838291,-0.531379,-0.473334,0.426630,-30.443829,-3.591099,-6.057892,78.75996,4.431262,0.5171077,-2.1445262,-0.31724012,-0.22576135,0.74641293
20231225 09:32:42,4.074249,-0.008548,4.001537,-0.536706,-0.376387,0.116614,-30.205006,-3.101395,-6.087479,81.20756,5.35974,-0.56636274,-1.3063171,-0.48028404,-0.19329832,0.5916686
20231225 09:32:42,3.367756,-0.506452,4.753179,-0.422713,-0.219781,-0.208317,-30.074131,-3.560032,-6.324173,85.83337,5.004711,-0.6930598,-0.6866132,-0.48835155,-0.15720356,0.36654562
20231225 09:32:43,1.640056,-0.622634,5.069571,-0.249062,-0.077025,-0.424583,-29.676785,-3.627682,-6.047867,90.146065,3.646873,-0.5889931,-0.15533589,-0.4088778,-0.074959055,0.1776766
20231225 09:32:43,-0.333627,-0.510776,5.113472,-0.005097,0.073189,-0.477850,-29.366879,-3.895451,-5.357452,94.85836,2.0140502,-0.7924893,0.21786004,-0.22186211,0.09581173,-0.026692066
20231225 09:32:43,-2.087530,-0.069632,4.897464,0.308115,0.180790,-0.372381,-29.094769,-3.583855,-6.044937,96.985825,0.4149475,-1.0510812,0.5217945,0.08050123,0.28160444,-0.26377007
20231225 09:32:43,-3.242228,0.019699,4.100363,0.587236,0.188247,-0.148658,-29.218853,-3.780270,-6.167313,99.56815,-0.87463427,-1.5270255,1.0094981,0.40880692,0.36409473,-0.43236178
20231225 09:32:43,-3.378601,-0.189510,2.719494,0.726797,0.120065,0.151770,-29.254719,-4.160347,-6.142868,100.3927,-1.4251355,-1.5666468,1.5648153,0.66882277,0.2843269,-0.5142698
20231225 09:32:43,-2.142266,-0.819065,1.262712,0.684183,0.010334,0.447937,-29.139202,-4.250835,-5.733902,95.77693,-1.0009127,-1.2115072,1.7705065,0.81339717,0.061461583,-0.42939937
20231225 09:32:43,0.033565,-1.555625,0.200718,0.486028,-0.153730,0.633308,-29.130238,-4.155815,-5.740005,85.091965,-1.436323E-4,-1.5221876,1.2739867,0.7404771,-0.15863755,-0.10354856
20231225 09:32:43,2.488364,-2.228517,-0.531857,0.203711,-0.264526,0.658876,-29.057751,-3.779438,-5.227982,76.380585,1.4448816,-3.1231644,0.59310365,0.39592767,-0.16620642,0.26354313
20231225 09:32:43,4.532752,-3.152918,-0.875871,-0.100978,-0.281572,0.500139,-28.970295,-3.579323,-5.642090,76.156494,3.297651,-5.3180394,1.0672078,-0.020315826,-0.047117963,0.4033951
20231225 09:32:43,5.710499,-4.222639,-0.615270,-0.367315,-0.234696,0.199711,-29.154942,-3.690800,-5.368698,85.6487,4.875258,-6.928039,2.8273144,-0.3591312,0.085426375,0.32285172
20231225 09:32:43,5.761780,-5.092933,-0.029344,-0.511137,-0.151599,-0.181683,-28.766933,-3.661583,-5.366745,90.51201,5.199457,-7.4504495,4.0870123,-0.5427309,0.152319,0.23438683
20231225 09:32:43,4.510822,-5.044570,0.473670,-0.533510,-0.045064,-0.524725,-29.039822,-3.589401,-5.240204,89.85696,4.0598607,-6.3389306,3.9420593,-0.62945837,0.12040387,0.15891044
20231225 09:32:43,2.244445,-4.272121,0.796393,-0.462131,0.059340,-0.720750,-28.475742,-3.735611,-5.225052,91.57494,2.2060745,-4.477894,3.3238733,-0.66158545,0.085955575,0.1082638
20231225 09:32:43,-0.140331,-3.361765,0.928198,-0.344943,0.117934,-0.752710,-28.715336,-3.841541,-5.756393,96.06125,0.4603285,-3.3986957,3.0267375,-0.62253827,0.11431505,0.10431123
20231225 09:32:43,-2.344136,-2.378521,0.855149,-0.219232,0.144568,-0.617411,-28.654003,-4.310261,-5.591217,102.31216,-1.3285363,-3.122451,2.973184,-0.4805091,0.16587308,0.09114929
20231225 09:32:43,-3.754041,-1.769844,0.826298,-0.112697,0.141372,-0.344682,-28.380352,-4.766216,-5.156830,106.3694,-2.5751204,-3.2533007,3.0704393,-0.2753275,0.15514347,0.019556873
20231225 09:32:43,-3.989610,-1.481202,0.725357,-0.023208,0.137110,-0.009097,-28.432339,-4.394371,-5.047638,105.23671,-2.8256521,-2.975609,3.0533552,-0.053323023,0.11721946,-0.10131095
20231225 09:32:43,-2.967067,-1.501153,0.479615,0.037517,0.174397,0.295592,-28.187504,-4.175941,-5.997269,99.351074,-2.091923,-2.2308974,2.7273085,0.15234263,0.13338083,-0.20815647
20231225 09:32:43,-1.209087,-1.914989,0.185219,0.053497,0.236188,0.475636,-28.169575,-3.985905,-6.009491,92.64056,-0.9020623,-1.9792114,2.253346,0.27497295,0.22456317,-0.25044155
20231225 09:32:43,0.535473,-2.521994,0.121579,0.036452,0.310762,0.508662,-27.920620,-3.976845,-5.203781,89.04331,0.37410548,-2.5574412,2.0349042,0.27272707,0.33499962,-0.28770462
20231225 09:32:43,1.809431,-2.948841,0.228797,-0.000836,0.344853,0.426630,-27.869793,-3.773026,-6.154373,85.916954,1.4409684,-3.2553275,1.9899961,0.19942035,0.37747937,-0.28722063
20231225 09:32:43,2.400449,-3.060522,0.254142,-0.055168,0.373618,0.292396,-27.815235,-3.586685,-5.630112,85.35522,1.9495595,-3.5392263,1.8706748,0.102927774,0.40580827,-0.2984286
20231225 09:32:43,2.408334,-2.897411,0.498225,-0.110566,0.406643,0.168816,-27.718426,-3.483437,-5.769852,85.82482,2.1068652,-3.305598,1.7065269,0.0056532435,0.43601447,-0.31530517
20231225 09:32:43,2.076249,-2.539706,1.068487,-0.134004,0.390663,0.088915,-27.754673,-3.671627,-6.025879,86.96929,2.124882,-2.760585,1.465085,-0.053329065,0.413437,-0.29198563
20231225 09:32:43,1.554079,-1.980995,1.504972,-0.110566,0.353376,0.046301,-27.914616,-4.248123,-6.123810,88.7067,1.9579984,-2.0489082,1.0669497,-0.05697653,0.3652329,-0.26112753
20231225 09:32:43,1.116617,-1.352304,1.820828,-0.033861,0.325677,0.035648,-27.500095,-3.741955,-6.420670,88.0732,1.8288937,-1.3529822,0.6650161,-3.4387596E-4,0.32814756,-0.26389778
20231225 09:32:43,0.542655,-0.813034,1.835648,0.080131,0.316089,0.044170,-27.296360,-4.016102,-5.864853,90.53205,1.4396886,-0.81283104,0.38261738,0.0913984,0.31607163,-0.3103078
20231225 09:32:43,0.018443,-0.360348,1.769601,0.201580,0.293716,0.088915,-27.093777,-3.714588,-6.150467,90.73041,1.0396098,-0.41315195,0.26610947,0.2070711,0.299385,-0.3571294
20231225 09:32:43,-0.403843,0.082204,1.321774,0.313442,0.315023,0.165620,-27.518024,-3.931995,-6.408447,91.51115,0.4859388,-0.02245757,0.15596321,0.33073854,0.3270898,-0.4445137
20231225 09:32:43,-0.510459,0.139938,0.968356,0.406127,0.368291,0.280678,-26.997349,-3.419453,-6.570679,89.83771,0.1822336,0.06501193,0.20452178,0.47556835,0.3783861,-0.53930813
20231225 09:32:43,-0.078268,-0.282412,0.865537,0.471114,0.371487,0.369101,-27.164845,-2.957115,-6.870483,86.74663,0.4504157,-0.28719315,0.31321144,0.59635097,0.37281835,-0.56086576
20231225 09:32:43,0.573889,-0.691139,0.783535,0.511597,0.318219,0.396801,-27.005550,-3.898251,-6.003632,86.59603,0.888823,-0.68978846,0.26516628,0.6610794,0.3023054,-0.5368236
20231225 09:32:43,1.199672,-0.998706,0.429228,0.538230,0.255364,0.376559,-26.733433,-3.586647,-6.691116,82.78755,1.137358,-1.0954971,0.1542229,0.6764035,0.2199996,-0.48023868
20231225 09:32:43,1.599105,-1.342799,0.034333,0.544623,0.195704,0.310507,-27.660046,-4.318455,-6.518600,82.739365,1.1715052,-1.5657895,0.16137229,0.6423275,0.14095326,-0.44202092
20231225 09:32:43,1.693906,-1.604241,-0.426541,0.522250,0.116869,0.219953,-26.733814,-3.394760,-6.971588,79.44235,0.9082819,-1.8943887,0.17839503,0.5609105,0.05738516,-0.37375
20231225 09:32:43,1.375419,-1.642243,-0.952927,0.467918,0.067863,0.132594,-27.059719,-4.276478,-6.247406,83.35564,0.30342627,-1.8485384,0.2773775,0.44835827,0.031149907,-0.34123698
20231225 09:32:43,0.790154,-1.321972,-1.266640,0.406127,0.054013,0.083588,-27.387165,-4.390633,-6.645126,84.83714,-0.3620965,-1.3932157,0.31105942,0.35121295,0.042233385,-0.3163567
20231225 09:32:43,0.191584,-1.035863,-1.557503,0.321965,0.058275,0.067608,-26.689640,-4.437294,-6.233231,89.90459,-0.9384032,-0.9421929,0.5740247,0.26786178,0.07062412,-0.27322596
20231225 09:32:43,-0.567605,-0.765296,-1.578878,0.217561,0.040164,0.087850,-26.556591,-4.145855,-6.116974,94.41427,-1.4188323,-0.6025539,1.0160334,0.20490904,0.055081636,-0.1920412
20231225 09:32:43,-0.971913,-0.416301,-1.580896,0.120614,0.048686,0.156032,-26.813732,-4.633713,-6.355621,95.94946,-1.7301278,-0.28483763,1.111554,0.18579213,0.039137084,-0.13324153
20231225 09:32:43,-1.097089,0.026449,-1.282989,0.063085,0.065732,0.231672,-26.680676,-4.342278,-6.239349,95.744606,-1.6680158,0.08151072,0.89531106,0.20077537,0.034226272,-0.105718344
20231225 09:32:43,-1.218808,0.191653,-1.182760,0.031125,0.089170,0.298789,-26.698223,-4.724205,-5.946655,97.29611,-1.7014449,0.20736869,0.89195424,0.2233412,0.038345188,-0.106566384
20231225 09:32:43,-1.163369,0.193359,-1.137202,0.011949,0.139241,0.376559,-26.777493,-4.445522,-6.099609,94.8578,-1.6305664,0.2149331,0.83169144,0.26989046,0.08065823,-0.11846491
20231225 09:32:43,-0.984230,0.588528,-1.028256,-0.008293,0.238318,0.418107,-26.302402,-4.024300,-6.792236,92.95253,-1.4923949,0.60323125,0.3944358,0.270428,0.17235255,-0.16353762
20231225 09:32:43,-1.007250,0.794226,-0.523411,0.028994,0.304370,0.471375,-26.336071,-3.654301,-6.414810,92.11366,-1.1540242,0.73656905,0.23982587,0.3287246,0.2441328,-0.23503508
20231225 09:32:43,-0.931657,0.637953,-0.325201,0.048170,0.335265,0.503335,-26.645199,-3.770309,-6.544281,91.35327,-0.940017,0.5738449,0.2442942,0.3603892,0.28436577,-0.2733981
20231225 09:32:43,-0.545616,0.506222,-0.130286,0.087588,0.341657,0.600282,-26.293438,-3.929279,-6.798355,87.55934,-0.49184933,0.48993605,0.038997855,0.4793498,0.32081577,-0.28198844
20231225 09:32:43,0.159988,0.315651,-0.070453,0.117418,0.324612,0.625850,-26.160389,-3.637840,-6.682068,82.7808,0.074997425,0.3058832,-0.33996466,0.54065466,0.344785,-0.25446627
20231225 09:32:43,0.868998,0.056393,-0.216593,0.156836,0.327808,0.596021,-26.142071,-3.639690,-6.413834,79.51691,0.47365892,-0.059104003,-0.67815757,0.5600854,0.3699524,-0.26238883
20231225 09:32:43,1.247220,-0.288363,-0.302313,0.190927,0.352311,0.532100,-25.948452,-3.433189,-6.693314,78.16521,0.67286146,-0.4800229,-0.6912627,0.53955466,0.3861795,-0.3025521
20231225 09:32:43,1.267438,-0.421949,-0.134220,0.250587,0.381075,0.468179,-26.450817,-3.947590,-6.262817,80.963135,0.8005251,-0.5733051,-0.56556654,0.5367983,0.39674693,-0.39253095
20231225 09:32:43,1.047600,-0.459672,0.004823,0.352860,0.422624,0.422369,-26.142460,-3.447800,-6.694290,81.23399,0.74808013,-0.5464383,-0.3599986,0.5753524,0.42198154,-0.49860698
20231225 09:32:43,0.774031,-0.679259,0.045850,0.464722,0.440735,0.390408,-26.099438,-3.914669,-6.797379,83.17143,0.56950635,-0.72220856,-0.009892812,0.6301343,0.43210387,-0.6014419
20231225 09:32:43,0.539249,-0.645061,-0.130323,0.557407,0.438604,0.388278,-25.993656,-3.716400,-6.943222,83.206116,0.27790952,-0.6705214,0.083441764,0.68790346,0.43036085,-0.66609466
20231225 09:32:43,0.485734,-0.611888,-0.414730,0.616001,0.419428,0.417042,-26.063953,-3.342705,-7.102280,80.73984,0.015222281,-0.6612428,0.03524898,0.75324714,0.4068061,-0.6811354
20231225 09:32:43,0.824734,-0.744373,-0.733203,0.618132,0.355507,0.444741,-25.860607,-3.424961,-6.826965,76.95549,-0.035793304,-0.92242944,-0.2020967,0.78873575,0.3310882,-0.61487985
20231225 09:32:43,1.476069,-0.913538,-1.111389,0.566995,0.228730,0.418107,-25.675945,-3.313484,-7.100327,69.52423,0.02654618,-1.4168292,-0.76397663,0.7283487,0.19441232,-0.46180546
20231225 09:32:43,2.006637,-0.697756,-1.743855,0.491355,0.114738,0.360579,-25.411648,-3.672573,-6.940292,61.105858,-0.2809912,-1.711731,-1.7383249,0.59638417,0.10035213,-0.34673315
20231225 09:32:43,2.170792,-0.324042,-2.592778,0.409323,0.125391,0.308377,-25.588100,-3.305260,-7.233978,52.894413,-0.8871372,-1.9261372,-2.5326724,0.49769956,0.13007587,-0.30028516
20231225 09:32:43,2.079686,-0.169924,-3.041564,0.311311,0.189312,0.240194,-25.915165,-3.611301,-7.351227,54.223324,-1.3576667,-1.8420308,-2.6222563,0.41611075,0.19167694,-0.27578962
20231225 09:32:43,1.637295,-0.145707,-2.958267,0.216495,0.232992,0.154967,-25.712200,-3.501671,-7.356354,62.26625,-1.6096087,-1.2522395,-2.0445986,0.30232564,0.22753471,-0.2546179
20231225 09:32:43,1.010334,-0.347116,-2.556808,0.129137,0.229796,0.075065,-25.703228,-3.406651,-7.362473,73.38139,-1.6052628,-0.72559667,-1.0636344,0.16017842,0.22634576,-0.21689576
20231225 09:32:43,0.289031,-0.191152,-1.891977,0.079065,0.198900,0.040974,-25.490910,-3.393894,-7.093246,81.28022,-1.3899662,-0.19237633,-0.2932801,0.07884784,0.19889233,-0.17348
20231225 09:32:43,-0.106182,0.203400,-1.324707,0.075869,0.159483,0.066543,-25.604229,-2.553326,-7.149246,82.25898,-1.134266,0.23844726,-0.14006174,0.094051056,0.15908562,-0.1495338
20231225 09:32:43,-0.101847,0.298140,-1.040910,0.075869,0.093431,0.118745,-25.076397,-2.887726,-7.390106,80.3239,-0.8953223,0.29566982,-0.19801635,0.14079855,0.09358996,-0.10392996
20231225 09:32:43,0.285512,0.405160,-1.014285,0.040713,-0.010973,0.168816,-25.209057,-3.371056,-7.225906,76.175705,-0.60425293,0.2952293,-0.60804,0.1580783,0.0012485692,-0.0023282878
20231225 09:32:43,0.962857,0.462136,-1.134163,-0.014685,-0.113247,0.183731,-24.926449,-3.731995,-6.797623,70.49059,-0.26696783,0.1062872,-1.2555532,0.11671668,-0.07327527,0.1081423
20231225 09:32:43,1.515656,0.613524,-1.530352,-0.045580,-0.135619,0.167751,-25.075237,-3.463394,-6.548691,65.4373,-0.2041465,-0.093100786,-1.9234201,0.071040854,-0.07591069,0.1449548
20231225 09:32:43,1.680389,0.759395,-1.755678,-0.151050,-0.144142,0.044170,-25.357861,-3.102455,-6.976974,63.768635,-0.31870615,-0.031615555,-2.1972184,-0.08313421,-0.09961301,0.20695662
20231225 09:32:43,1.337791,1.134466,-1.811234,-0.222428,-0.130292,-0.044254,-25.023258,-3.835239,-6.657867,69.58624,-0.62825596,0.60242885,-2.0104263,-0.17477196,-0.11031758,0.24585769
20231225 09:32:43,1.070269,1.322202,-1.769106,-0.286349,-0.099397,-0.100717,-24.802738,-3.343685,-6.955704,71.83566,-0.7971685,0.97876173,-1.8304822,-0.24285302,-0.08931557,0.27953473
20231225 09:32:43,0.342334,1.752914,-1.509257,-0.309787,-0.051456,-0.108174,-24.926830,-3.540104,-7.078094,82.090515,-1.1709193,1.803624,-1.2926973,-0.2503906,-0.053763483,0.2842888
20231225 09:32:43,-0.500680,2.166062,-0.939207,-0.303394,-0.025888,-0.100717,-25.005329,-3.645203,-6.670090,87.01268,-1.2605569,2.2115667,-0.74860716,-0.24332051,-0.034103267,0.26814514
20231225 09:32:43,-0.807718,2.459064,-0.679679,-0.245866,0.063601,-0.071953,-24.996746,-3.358292,-6.956680,87.64487,-1.2905657,2.4540436,-0.6623439,-0.20020504,0.052935258,0.17100057
20231225 09:32:43,-0.929422,2.458882,-0.472332,-0.190468,0.124326,-0.052776,-24.750751,-3.715538,-7.064880,87.870155,-1.1831138,2.4187953,-0.6226557,-0.16415991,0.11466382,0.08656709
20231225 09:32:43,-0.768572,2.218103,-0.182344,-0.156376,0.147764,-0.046384,-24.575069,-3.699078,-7.332153,85.20919,-0.74687946,2.1851552,-0.67441386,-0.13883069,0.14275795,0.03882036
20231225 09:32:43,-0.371388,1.884192,-0.085852,-0.028535,0.210619,-0.046384,-24.616932,-3.807873,-6.387680,84.815994,-0.33581844,1.8788134,-0.8307739,-0.059217617,0.21112132,-0.10525194
20231225 09:32:43,0.059088,1.514246,-0.263065,0.048170,0.239384,-0.082606,-24.725658,-4.372444,-7.155731,81.27909,-0.14440204,1.5069021,-0.9514902,-0.03315513,0.23668915,-0.18548103
20231225 09:32:43,0.208746,1.460516,-0.466698,0.096111,0.292651,-0.128416,-24.584034,-3.794094,-7.326050,80.41853,-0.25086462,1.4541115,-1.0328777,-0.048216466,0.29062295,-0.25496376
20231225 09:32:43,0.033200,1.682170,-0.805667,0.138725,0.346984,-0.139070,-24.170933,-4.421787,-7.414932,82.76351,-0.7151385,1.7074119,-0.9786638,-0.053834334,0.35400897,-0.31128374
20231225 09:32:43,-0.320129,2.009884,-1.201303,0.191992,0.433277,-0.112436,-23.843487,-4.307625,-7.017212,86.41796,-1.4041156,2.1009703,-0.73520887,-0.048379965,0.4528342,-0.38190082
20231225 09:32:43,-0.675788,2.404812,-1.713661,0.239933,0.554727,-0.053842,-23.535130,-3.807838,-7.448685,88.41736,-2.2261944,2.5986366,-0.5011526,-0.03628547,0.57459533,-0.4647172
20231225 09:32:43,-0.893136,2.626468,-1.934527,0.249521,0.609059,-0.024012,-23.870770,-4.400795,-7.279343,91.92247,-2.658908,2.879337,-0.3044061,-0.047799066,0.6222685,-0.4882981
20231225 09:32:43,-1.020326,3.043255,-1.984506,0.213299,0.665523,0.033517,-23.446903,-3.991497,-7.301849,93.65701,-2.958833,3.3113978,-0.2980889,-0.057952788,0.6537318,-0.47370076
20231225 09:32:43,-1.247341,3.202698,-1.916626,0.153640,0.654869,0.051628,-23.212826,-4.810059,-8.317841,92.31085,-3.031077,3.40801,-0.23667544,-0.059746988,0.63260293,-0.42410216
20231225 09:32:43,-0.965263,3.410254,-1.420422,-0.112697,0.513178,0.140052,-23.342930,-4.735195,-7.520218,88.89185,-2.2509947,3.5020897,-0.73561513,-0.015634798,0.47095478,-0.13638592
20231225 09:32:43,-0.437703,3.402144,-0.793402,-0.298068,0.389598,0.185862,-23.200916,-4.348740,-7.410049,83.28596,-1.1107621,3.4264066,-1.3707161,-0.013651684,0.36679357,0.07351512
20231225 09:32:43,0.309440,3.081004,-0.174470,-0.490896,0.273475,0.209299,-22.930599,-4.979107,-8.170029,77.45642,0.17770787,3.057561,-1.979799,-0.09285475,0.29892728,0.279131
20231225 09:32:43,1.242178,2.357978,0.777268,-0.703965,0.152025,0.195450,-22.840183,-4.412689,-7.670227,75.40228,1.6976731,2.280488,-2.3200774,-0.30984783,0.25438806,0.45677572
20231225 09:32:43,2.283394,1.311744,1.998058,-0.887205,0.030575,0.117679,-22.655529,-4.301208,-7.943619,75.69208,3.1991754,1.1397336,-2.041288,-0.6128444,0.22154883,0.55804706
20231225 09:32:43,3.200097,0.255801,3.527348,-0.947930,-0.012038,-0.026143,-22.497768,-4.474792,-8.198654,80.88529,4.5132537,-0.013754398,-1.350249,-0.8327528,0.20167951,0.48496768
20231225 09:32:43,3.327853,-0.852202,5.238141,-0.857376,-0.006712,-0.220036,-22.495197,-3.916603,-7.565216,87.118355,5.000632,-1.0383465,-0.27219987,-0.8740796,0.13352704,0.33048734
20231225 09:32:43,2.455301,-1.885661,6.884477,-0.648567,-0.033345,-0.404341,-22.443600,-4.096561,-7.954865,92.2364,4.3615246,-1.9012755,0.7951412,-0.74103147,0.014963341,0.24341924
20231225 09:32:43,0.999218,-2.697325,8.043626,-0.340682,-0.078090,-0.530052,-22.249973,-3.890064,-8.234344,94.46906,3.002212,-2.7080786,1.7437261,-0.46312875,-0.08009774,0.20121562
20231225 09:32:43,-0.499404,-2.996423,8.622810,0.055628,-0.146272,-0.579058,-22.400570,-4.563431,-8.057922,97.35941,1.7386922,-3.2499409,1.9327785,-0.08651269,-0.12525824,0.19835435
20231225 09:32:43,-1.801593,-2.765602,7.707458,0.428500,-0.224043,-0.549229,-22.506733,-4.569809,-8.192535,98.00929,0.6560823,-3.5062234,2.120106,0.26485848,-0.10541083,0.15950236
20231225 09:32:43,-2.839283,-2.286947,5.933353,0.658615,-0.319924,-0.438432,-22.064167,-4.354252,-7.666321,98.972275,-0.2577777,-3.5960588,2.2998714,0.48827642,-0.081559524,0.10976414
20231225 09:32:43,-3.263978,-1.669984,3.667064,0.707621,-0.433916,-0.265846,-22.391216,-4.660297,-7.783569,100.5937,-0.92171204,-3.2117927,2.420656,0.574991,-0.1382518,0.075506985
20231225 09:32:43,-2.930481,-1.263284,1.341963,0.579779,-0.513817,-0.082606,-22.090290,-5.023087,-7.087051,102.68609,-1.3003442,-2.3795466,2.513472,0.5362935,-0.27636132,0.06548649
20231225 09:32:43,-2.105289,-1.068967,-0.563338,0.317703,-0.513817,0.078261,-22.329884,-5.129017,-7.618393,99.06257,-1.6180041,-1.3703778,2.2963765,0.39696765,-0.4288918,0.12665996
20231225 09:32:44,-1.123473,-1.083427,-1.615370,0.001295,-0.427524,0.164555,-22.160976,-4.457500,-7.526581,91.585304,-1.7763853,-0.9783636,1.589593,0.18132707,-0.44281107,0.28235742
20231225 09:32:44,-0.316511,-1.226446,-1.515435,-0.308721,-0.311401,0.174143,-22.151630,-4.554367,-7.252213,88.63646,-1.2142525,-1.1525029,1.0695304,-0.079769,-0.33875036,0.441383
20231225 09:32:44,-0.108268,-1.329474,-0.405736,-0.543098,-0.233631,0.140052,-22.344868,-4.952759,-6.692261,92.02204,-0.27703235,-1.3155528,1.1330172,-0.33719733,-0.26811975,0.5112672
20231225 09:32:44,-0.367143,-1.465591,1.076821,-0.647502,-0.191017,0.115549,-22.257397,-4.752640,-7.106354,93.774704,0.32152367,-1.5447,1.3785652,-0.48246267,-0.25045282,0.49405408
20231225 09:32:44,-0.800422,-1.502963,2.725817,-0.607019,-0.149468,0.125137,-21.993099,-5.111725,-6.946304,96.59151,0.5986725,-1.7263556,1.4149734,-0.47611994,-0.22011662,0.39530858
20231225 09:32:44,-1.106847,-1.564684,4.037108,-0.416321,-0.101528,0.172012,-22.396465,-4.772797,-6.302597,97.11934,0.7276593,-1.8753206,1.4158378,-0.3033703,-0.15493092,0.24450013
20231225 09:32:44,-1.120764,-1.615518,4.806053,-0.122285,-0.047195,0.232737,-21.781162,-4.907082,-6.957565,96.96644,0.8874415,-1.9141893,1.3755221,-0.020989493,-0.068493515,0.06459834
20231225 09:32:44,-0.927156,-1.826658,4.910556,0.199450,-0.010973,0.282808,-22.090290,-5.023087,-7.087051,96.4762,1.0905787,-2.0336165,1.5214014,0.29321775,-0.0051737567,-0.09641313
20231225 09:32:44,-0.430967,-2.062098,4.171092,0.475375,0.016726,0.298789,-22.160206,-4.841278,-6.965622,95.1157,1.2937176,-2.1383057,1.7145876,0.55466545,0.028709564,-0.22883514
20231225 09:32:44,0.046020,-2.348560,3.142968,0.672464,0.025249,0.277482,-21.499310,-4.884243,-7.090225,93.41958,1.3702849,-2.3324046,1.931062,0.7266973,0.01922475,-0.3246999
20231225 09:32:44,0.474090,-2.357296,1.926754,0.792849,0.026314,0.212495,-22.071980,-5.024933,-6.818787,91.25406,1.3068789,-2.3284318,1.7779075,0.7947882,-0.0019638753,-0.4187216
20231225 09:32:44,0.562696,-2.270011,1.258314,0.820548,0.029510,0.173077,-22.098492,-5.501881,-6.519974,90.7396,1.11728,-2.2564247,1.5390803,0.7750269,0.0032828785,-0.49071035
20231225 09:32:44,0.471449,-2.190763,0.079527,0.813090,0.035902,0.098503,-21.991947,-5.687393,-6.104889,91.11966,0.37881848,-2.200936,1.4676673,0.7101713,0.01521538,-0.5182945
20231225 09:32:44,0.229074,-1.901457,-1.119680,0.646896,0.001811,-0.001640,-21.967625,-5.960518,-6.756683,89.11636,-0.6091318,-1.891667,1.1810199,0.45957547,0.006527034,-0.45539325
20231225 09:32:44,-0.131820,-1.546487,-1.498913,0.496682,-0.008842,-0.037861,-22.009876,-5.877434,-6.092667,92.72978,-1.0765339,-1.4448107,1.1964688,0.31102002,0.025588216,-0.35667077
20231225 09:32:44,-0.509077,-1.475704,-1.572388,0.340076,-0.003516,-0.048515,-21.824841,-5.957844,-6.085571,95.197784,-1.323078,-1.3396862,1.4722947,0.19741188,0.03640739,-0.24317585
20231225 09:32:44,-0.650343,-1.413620,-1.460137,0.270828,0.007138,-0.046384,-21.745953,-6.044632,-6.213104,96.20155,-1.3135712,-1.2846969,1.5450774,0.15152201,0.04520882,-0.19858834
20231225 09:32:44,-0.964966,-1.292584,-1.140196,0.166424,0.041229,-0.024012,-21.957890,-6.249279,-6.201859,98.296234,-1.2862489,-1.2422591,1.7052,0.096007824,0.06788974,-0.14349899
20231225 09:32:44,-0.839923,-1.587551,-0.163758,0.092915,0.068928,0.010079,-21.630451,-6.135124,-5.804138,97.18362,-0.6494809,-1.6410618,1.7738167,0.07443424,0.076110475,-0.11214479
20231225 09:32:44,-0.438076,-1.868515,0.423121,0.088654,0.044425,0.005818,-21.542606,-6.126892,-5.937775,96.139824,-0.03831145,-1.9041575,1.7283459,0.073728114,0.048852574,-0.08805749
20231225 09:32:44,-0.307067,-1.957682,0.562175,0.107830,0.031641,-0.009097,-21.454762,-6.118664,-6.071396,95.11779,0.10709423,-1.9754009,1.7327437,0.08255815,0.034684114,-0.08696126
20231225 09:32:44,-0.061798,-2.063631,0.617272,0.187731,0.012465,-0.065561,-21.215549,-5.820847,-5.820526,94.03106,0.34248096,-2.0720508,1.6589963,0.11210051,0.016524356,-0.11765587
20231225 09:32:44,0.027689,-1.887974,0.233577,0.217561,0.003942,-0.092194,-21.499584,-6.593761,-6.040833,94.49359,0.1976336,-1.8905205,1.4360834,0.11188863,0.009684206,-0.13363513
20231225 09:32:44,0.019157,-1.785189,0.064136,0.219691,-0.003516,-0.101782,-21.685001,-6.321465,-6.328400,92.53272,0.08176258,-1.7853616,1.3361243,0.10000083,0.0015562247,-0.13738129
20231225 09:32:44,0.054862,-1.596726,-0.154532,0.209038,-0.028019,-0.116697,-21.339634,-6.017262,-5.942902,91.37199,-0.053615104,-1.5951086,1.1343056,0.07381651,-0.025571221,-0.11979151
20231225 09:32:44,0.137226,-1.424364,-0.419239,0.180274,-0.063175,-0.126285,-21.534023,-5.839985,-6.224365,89.16623,-0.20258757,-1.4259996,0.90861505,0.038559638,-0.06408414,-0.083655365
20231225 09:32:44,0.256273,-1.269872,-0.756359,0.115287,-0.085547,-0.148658,-21.437214,-5.736736,-6.364105,88.14643,-0.3719905,-1.2744288,0.6801013,-0.02727703,-0.08673255,-0.02690433
20231225 09:32:44,0.217751,-1.124902,-0.809426,0.060955,-0.102593,-0.169965,-21.269337,-6.390961,-5.783844,90.516785,-0.43908274,-1.1235408,0.6168186,-0.081946135,-0.10228826,0.026907306
20231225 09:32:44,0.205887,-1.029656,-0.789567,0.037517,-0.113247,-0.182749,-21.138088,-7.041489,-5.740082,92.06607,-0.42836738,-1.0236535,0.57378066,-0.10684565,-0.11191924,0.054632366
20231225 09:32:44,0.110836,-0.880095,-0.676028,-0.006162,-0.123900,-0.207252,-21.172527,-6.287712,-5.923584,91.68379,-0.38967973,-0.8562727,0.5360842,-0.15130499,-0.11783614,0.0935727
20231225 09:32:44,-0.020782,-0.721299,-0.493742,-0.018947,-0.115377,-0.227493,-21.216961,-6.954697,-5.612549,95.45015,-0.32572258,-0.6919432,0.5488164,-0.1690169,-0.103065364,0.10882045
20231225 09:32:44,-0.279191,-0.588691,-0.168865,-0.004032,-0.097266,-0.232820,-21.092495,-6.950165,-5.209686,97.24326,-0.2795774,-0.59381354,0.6287729,-0.15810962,-0.08214207,0.09310515
20231225 09:32:44,-0.387632,-0.544108,0.235815,0.043909,-0.094070,-0.224297,-21.295849,-6.867905,-5.485031,96.37791,-0.08536269,-0.57966304,0.6396915,-0.11744374,-0.077907436,0.055092793
20231225 09:32:44,-0.143270,-0.543780,0.431102,0.135529,-0.132423,-0.215775,-21.189686,-6.861526,-5.350418,94.95741,0.20707372,-0.55875206,0.46450543,-0.046675526,-0.12285567,0.015879909
20231225 09:32:44,-0.000913,-0.592760,0.382680,0.157901,-0.145207,-0.221101,-20.892101,-7.398727,-5.848282,94.66178,0.2820338,-0.6020614,0.4003213,-0.038253672,-0.13546112,0.0056452826
20231225 09:32:44,0.024696,-0.645431,0.062989,0.195188,-0.167579,-0.227493,-21.095066,-7.508358,-5.843140,94.42297,0.0748078,-0.6459326,0.43619987,-0.018096924,-0.15899983,-0.006283663
20231225 09:32:44,0.124947,-0.754434,-0.044926,0.197319,-0.221912,-0.258389,-21.252056,-7.718555,-5.027161,95.87281,0.06779735,-0.7516367,0.4430336,-0.041007563,-0.21481974,0.03398392
20231225 09:32:44,0.141238,-0.711796,-0.071481,0.196254,-0.237892,-0.278630,-21.252056,-7.718555,-5.027161,95.87839,0.061801888,-0.7071272,0.3959838,-0.058675274,-0.22796382,0.043377236
20231225 09:32:44,0.009810,-0.643342,-0.181881,0.194123,-0.246415,-0.319113,-20.855473,-7.402428,-5.311798,96.64001,-0.090119295,-0.6321453,0.45620748,-0.07820085,-0.22022057,0.05935846
20231225 09:32:44,-0.159601,-0.729770,-0.101350,0.174947,-0.266657,-0.354270,-20.891712,-7.590618,-5.567795,96.878784,-0.14404872,-0.73072535,0.63258624,-0.11244124,-0.23680083,0.09252451
20231225 09:32:44,-0.222498,-0.656603,0.053832,0.152575,-0.298617,-0.383034,-21.112225,-8.082176,-5.269974,98.65718,-0.07397653,-0.671615,0.60696137,-0.14680387,-0.26246688,0.13728082
20231225 09:32:44,-0.301844,-0.434080,0.152197,0.148313,-0.314597,-0.404341,-20.776203,-7.681107,-5.158829,99.15966,-0.059827164,-0.46983597,0.4973197,-0.16076846,-0.26374093,0.1507628
20231225 09:32:44,-0.497424,-0.276519,0.118696,0.153640,-0.308205,-0.409668,-20.793751,-8.063034,-4.866135,100.8557,-0.22769487,-0.33218157,0.5330771,-0.15975346,-0.2503007,0.14833374
20231225 09:32:44,-0.780453,0.035717,0.007948,0.193058,-0.251742,-0.405407,-20.229282,-8.401134,-4.570511,103.824974,-0.5146605,-0.06523128,0.56194407,-0.13491651,-0.16395544,0.080405615
20231225 09:32:44,-0.921090,0.171217,-0.021284,0.221822,-0.213389,-0.397949,-20.547756,-8.420273,-4.974335,104.85377,-0.64981383,0.024705013,0.59149975,-0.10785109,-0.09958924,0.034135267
20231225 09:32:44,-1.208314,0.197253,-0.138263,0.285743,-0.136684,-0.383034,-20.811680,-8.253071,-4.853912,105.5127,-0.93604094,0.01291828,0.80651146,-0.06315829,-0.010092564,-0.060045354
20231225 09:32:44,-1.211906,-0.277201,-0.202998,0.313442,-0.110050,-0.371315,-20.670040,-7.674728,-5.024231,103.72747,-0.92028105,-0.4279711,1.104971,-0.032912523,0.007153973,-0.09751701
20231225 09:32:44,-1.107421,-0.401183,-0.150568,0.320899,-0.142011,-0.360662,-20.741001,-8.818657,-4.414383,106.17014,-0.7976756,-0.5314511,1.1020485,-0.01681891,-0.033736043,-0.07383869
20231225 09:32:44,-0.770090,-0.593877,-0.284836,0.325161,-0.196344,-0.354270,-20.537640,-8.900917,-4.139038,104.91571,-0.64649624,-0.6375654,1.0053664,-0.01664202,-0.10960635,-0.054026578
20231225 09:32:44,-0.396501,-0.709557,-0.590911,0.305985,-0.253872,-0.363858,-20.795170,-9.196888,-4.658157,100.056244,-0.6504083,-0.68394095,0.80941665,-0.07264756,-0.20422441,-0.04435353
20231225 09:32:44,-0.092802,-0.601741,-0.957042,0.292135,-0.263461,-0.369185,-20.564533,-9.185974,-4.120697,100.71496,-0.76553273,-0.52787143,0.540016,-0.094044596,-0.21483782,-0.033859838
20231225 09:32:44,-0.093915,-0.379745,-1.193058,0.249521,-0.273049,-0.364923,-20.212780,-9.344948,-4.374771,100.785034,-0.98855454,-0.24901566,0.41212517,-0.12867665,-0.21038203,-0.01790445
20231225 09:32:44,-0.201185,-0.062142,-1.357822,0.191992,-0.274114,-0.348943,-20.212391,-9.536839,-4.094299,102.20125,-1.2233518,0.095593065,0.3592379,-0.14730747,-0.20996697,0.027519483
20231225 09:32:44,-0.362078,0.308537,-1.318580,0.141921,-0.270918,-0.322309,-20.378727,-9.650166,-3.552673,104.353874,-1.3341295,0.4654832,0.32001197,-0.15028417,-0.20512883,0.06510465
20231225 09:32:44,-0.507578,0.580515,-1.203756,0.114222,-0.261330,-0.291414,-20.369762,-9.555149,-3.558777,105.942986,-1.3642607,0.72019726,0.2995246,-0.12976189,-0.19132082,0.08628455
20231225 09:32:44,-0.649489,0.552040,-1.002470,0.104634,-0.254938,-0.267977,-20.406391,-9.551449,-4.095276,105.16923,-1.2706919,0.635126,0.38072735,-0.11232322,-0.19078167,0.09357086
20231225 09:32:44,-0.634277,0.323024,-0.773407,0.108895,-0.253872,-0.267977,-20.167561,-9.061741,-4.124863,104.14687,-1.0360367,0.35936794,0.42869943,-0.10668793,-0.19896281,0.10262567
20231225 09:32:44,-0.432263,-0.139992,-0.348379,0.124875,-0.281572,-0.303133,-20.281155,-9.930695,-3.131470,106.74508,-0.52929056,-0.14103127,0.4806928,-0.11801853,-0.23735699,0.137737
20231225 09:32:44,-0.280088,-0.299054,0.079047,0.146182,-0.334839,-0.351074,-20.202274,-10.017487,-3.258987,106.68575,-0.10260771,-0.32669613,0.3846518,-0.13055569,-0.28894705,0.17404108
20231225 09:32:44,-0.238329,-0.229434,0.267733,0.170685,-0.394498,-0.387296,-20.574543,-10.606739,-3.626144,106.72582,0.06380764,-0.27314943,0.27317184,-0.1379649,-0.33998823,0.19509684
20231225 09:32:44,-0.439206,0.116048,0.175338,0.190927,-0.434982,-0.403276,-19.795956,-9.990116,-2.988800,108.59328,-0.15694419,0.040381573,0.2383682,-0.12885484,-0.35019615,0.19006974
20231225 09:32:44,-0.731543,0.595950,-0.228870,0.191992,-0.441374,-0.395818,-19.964863,-10.661629,-3.080612,112.12665,-0.7300563,0.51060295,0.34406877,-0.10494354,-0.30238494,0.15419999
20231225 09:32:44,-1.076415,0.998406,-0.653932,0.176012,-0.406217,-0.375577,-19.665089,-10.448757,-3.225494,112.78286,-1.3693115,0.9355963,0.53433126,-0.09656228,-0.25862825,0.13789247
20231225 09:32:44,-1.342447,1.101859,-0.940138,0.170685,-0.318859,-0.347878,-19.974209,-10.564758,-3.354980,115.42372,-1.8077643,1.0435071,0.8037652,-0.07775918,-0.15201846,0.09500966
20231225 09:32:44,-1.685056,0.913256,-1.038537,0.185600,-0.200605,-0.312721,-19.646389,-10.642494,-2.676781,118.98295,-2.0435114,0.7930182,1.2166502,-0.06306593,-0.037369743,0.033693448
20231225 09:32:44,-1.695004,0.344073,-0.862502,0.189862,-0.131357,-0.285022,-19.743580,-10.553848,-2.817505,117.86803,-1.7667521,0.18966904,1.4071866,-0.055379644,0.006846167,4.4965744E-4
20231225 09:32:44,-1.500340,-0.125495,-0.691610,0.167489,-0.138815,-0.274369,-19.779827,-10.742039,-3.073532,115.80341,-1.3982105,-0.2412255,1.4414613,-0.065840125,-0.023725994,0.01635088
20231225 09:32:44,-1.341904,-0.044841,-0.666797,0.135529,-0.201670,-0.257323,-19.576855,-10.632412,-3.078659,115.586365,-1.292264,-0.1318779,1.2727835,-0.058877528,-0.09284367,0.066096924
20231225 09:32:44,-1.268481,0.118858,-1.072978,0.087588,-0.275179,-0.229624,-19.682247,-11.022572,-2.652328,117.5846,-1.5572934,0.19493341,1.2807859,-0.045820445,-0.16496827,0.113714546
20231225 09:32:44,-1.347645,0.758694,-1.731277,0.015145,-0.323120,-0.180618,-19.451611,-11.011658,-2.114861,121.30969,-2.2962627,1.0889636,1.3119044,-0.007483557,-0.21360293,0.15703425
20231225 09:32:44,-1.411684,1.162505,-2.461416,-0.113763,-0.360407,-0.125220,-19.566746,-11.113060,-2.243362,123.10206,-3.0504408,1.8541662,1.4413378,0.02188421,-0.27630723,0.2532414
20231225 09:32:44,-1.293167,1.485587,-2.907001,-0.298068,-0.387041,-0.073018,-19.760746,-11.127666,-2.244339,121.107735,-3.5099735,2.3780174,1.2877562,0.0051478334,-0.35886708,0.41233805
20231225 09:32:44,-0.976407,1.641961,-2.875419,-0.466393,-0.372126,-0.051711,-19.690441,-11.501362,-2.085266,116.22553,-3.4033203,2.3720748,0.8239911,-0.09558356,-0.3942506,0.5675666
20231225 09:32:44,-0.705717,1.592534,-2.296146,-0.577189,-0.340166,-0.057038,-19.487469,-11.391739,-2.090408,112.27296,-2.6868868,2.0116377,0.37337118,-0.21691003,-0.38159707,0.66602886
20231225 09:32:44,-0.576442,1.639904,-1.485741,-0.608084,-0.307140,-0.078345,-19.206394,-10.985119,-2.784012,109.089775,-1.8367269,1.8082873,-0.04801032,-0.3217075,-0.35099763,0.68411106
20231225 09:32:44,-0.558923,1.365651,-0.627859,-0.575058,-0.313532,-0.113501,-18.697636,-10.933895,-3.854065,107.17129,-1.0269907,1.3784434,-0.18272221,-0.37477562,-0.35077,0.66216755
20231225 09:32:44,-0.542559,1.149574,0.011363,-0.506876,-0.357211,-0.140135,-19.422817,-10.788517,-4.808563,104.944244,-0.46811402,1.0812573,-0.26002735,-0.377432,-0.38459018,0.63413566
20231225 09:32:44,-0.496718,0.953591,0.355568,-0.415256,-0.421132,-0.161442,-18.547039,-10.260529,-4.030487,106.35225,-0.15282604,0.85592794,-0.26138377,-0.33908504,-0.4370715,0.6062922
20231225 09:32:44,-0.417498,0.802349,0.330718,-0.308721,-0.465877,-0.187010,-18.641392,-7.904182,-4.587143,100.26287,-0.0955801,0.72391045,-0.21435538,-0.28975922,-0.46845818,0.5503708
20231225 09:32:44,-0.350852,0.661734,0.022003,-0.213905,-0.465877,-0.213644,-19.043995,-7.949028,-3.382492,102.47176,-0.2690927,0.6258099,-0.13443872,-0.25252265,-0.45784903,0.48065817
20231225 09:32:44,-0.324944,0.453655,-0.183459,-0.139331,-0.441374,-0.246670,-18.952206,-10.863564,-3.459274,107.428925,-0.3905536,0.44215542,0.014197886,-0.23452239,-0.42474133,0.4201028
20231225 09:32:44,-0.313979,0.224973,-0.368625,-0.069018,-0.404087,-0.293545,-19.336880,-10.718372,-2.266838,110.077896,-0.50671834,0.2364919,0.19399953,-0.22400934,-0.37206405,0.35168582
20231225 09:32:44,-0.600149,0.296110,-0.612336,0.006622,-0.320989,-0.332963,-19.234058,-10.886402,-3.326614,110.71646,-0.8905225,0.31700915,0.44279373,-0.19836952,-0.25314137,0.24643362
20231225 09:32:44,-1.133104,0.560776,-0.863822,0.074804,-0.226173,-0.351074,-19.044910,-11.176178,-1.564194,120.103195,-1.475607,0.5421676,0.8931112,-0.1609363,-0.097798415,0.15460119
20231225 09:32:44,-1.968627,1.019182,-1.042572,0.127006,-0.136684,-0.336159,-18.729389,-11.523335,-2.074272,126.0491,-2.2830067,0.75368756,1.4906956,-0.11244576,0.05091518,0.0731093
20231225 09:32:44,-2.908112,1.585546,-1.221595,0.171751,-0.055718,-0.276499,-18.844517,-11.624737,-2.202774,131.79521,-3.2428517,0.8674809,2.1847796,-0.055439353,0.15316547,-0.013134383
20231225 09:32:44,-3.699841,2.059094,-1.470887,0.196254,0.000746,-0.173161,-18.720043,-11.620209,-1.799919,137.30511,-4.134854,0.9015916,2.8810492,0.005983226,0.17471714,-0.090896025
20231225 09:32:44,-4.135731,2.405385,-1.748878,0.198384,0.061471,-0.036796,-19.266964,-10.900181,-2.388245,136.90228,-4.738361,1.0817585,3.2458148,0.051386565,0.14345779,-0.17375708
20231225 09:32:44,-4.034137,2.585218,-1.777131,0.196254,0.127522,0.101699,-18.832592,-11.163418,-1.294975,137.80699,-4.756966,1.4173502,3.1720097,0.094458714,0.10660043,-0.25207943
20231225 09:32:44,-3.606536,2.752132,-1.484877,0.174947,0.156287,0.215691,-18.807499,-11.820324,-1.385811,133.57768,-4.326536,1.7940392,2.5496967,0.15722416,0.06899083,-0.28690016
20231225 09:32:44,-2.901031,2.731159,-1.073802,0.111026,0.098758,0.316899,-18.462132,-11.516125,-1.000320,127.8667,-3.4447782,2.098507,1.701267,0.25310275,-0.01750873,-0.23641826
20231225 09:32:44,-1.960200,2.754838,-0.793695,0.032190,0.041229,0.401062,-18.613117,-11.997604,-1.104362,121.158714,-2.462564,2.4738982,0.69857526,0.32782033,-0.07581851,-0.15113243
20231225 09:32:44,-1.186019,2.780427,-0.458065,-0.040254,0.040164,0.482028,-18.797771,-12.109081,-0.830986,116.16512,-1.5128404,2.665191,-0.19253156,0.3723522,-0.05376398,-0.096063
20231225 09:32:44,-0.455546,2.559766,0.150449,-0.148919,0.035902,0.558734,-18.779453,-12.110931,-0.562737,112.480865,-0.31225237,2.5191114,-1.0170937,0.3681427,-0.00920351,-0.019660838
20231225 09:32:44,0.367132,2.329902,1.215064,-0.258650,-0.007777,0.621589,-18.639629,-12.474556,-0.805557,109.7604,1.262928,2.3654242,-1.9685698,0.3040588,0.028977603,0.065215975
20231225 09:32:44,1.476389,1.834715,2.429025,-0.346008,-0.117508,0.636504,-18.885609,-12.117317,-0.697350,108.22499,2.9347587,1.909981,-2.8333676,0.16429013,0.0043822676,0.1738044
20231225 09:32:44,2.606466,1.009112,3.399384,-0.387557,-0.261330,0.575779,-19.167461,-12.140152,-0.564690,108.947716,4.222404,0.9719295,-3.2173758,-0.0119327605,-0.08185603,0.28295547
20231225 09:32:44,3.501254,0.130713,4.039968,-0.358793,-0.352950,0.452199,-18.629620,-11.053791,-1.300110,107.70961,5.0404644,-0.11587983,-3.026834,-0.12976536,-0.16576198,0.36069697
20231225 09:32:44,3.857230,-0.582823,4.352859,-0.254388,-0.340166,0.275351,-18.989201,-11.565502,-0.198517,111.39829,5.328416,-0.9060597,-2.8330178,-0.1401494,-0.21699387,0.31443635
20231225 09:32:44,3.331039,-0.971487,4.537614,-0.110566,-0.274114,0.108091,-19.121868,-12.048836,-0.034317,114.01256,4.943795,-1.1092684,-2.4625227,-0.07732321,-0.23041174,0.23411597
20231225 09:32:45,2.346590,-1.029226,4.477668,0.059889,-0.169710,0.014341,-18.689037,-11.544518,-0.062927,114.76218,4.176976,-0.98294544,-1.9942718,0.045921873,-0.17450082,0.09781594
20231225 09:32:45,1.281271,-0.882640,4.194045,0.216495,-0.074894,0.011145,-19.104710,-11.475014,-0.607483,114.47848,3.2888594,-0.79967725,-1.475167,0.1860362,-0.087012164,-0.06220298
20231225 09:32:45,0.535995,-0.623830,3.644524,0.299593,-0.051456,0.064412,-18.919285,-11.747318,-0.319923,115.68443,2.5414686,-0.5794352,-1.1395911,0.28055483,-0.05687506,-0.15885204
20231225 09:32:45,0.314384,-0.348041,2.778060,0.282547,-0.089809,0.127267,-19.297565,-12.065289,0.232948,115.29007,2.0015101,-0.3050211,-0.8731064,0.29738376,-0.09363739,-0.15887088
20231225 09:32:45,0.404148,-0.117961,1.879572,0.169620,-0.152664,0.151770,-19.024677,-12.137474,0.106407,113.47796,1.5725019,-0.06557307,-0.7440034,0.22190024,-0.15352477,-0.057674117
20231225 09:32:45,0.656097,-0.035380,1.054872,-0.007228,-0.189952,0.132594,-18.724514,-12.116482,0.241989,111.863914,1.205165,-0.008935116,-0.71909845,0.07612954,-0.18001468,0.09460233
20231225 09:32:45,0.802919,-0.239654,0.643877,-0.206448,-0.178233,0.066543,-19.137615,-11.488789,0.330887,110.37672,1.0048075,-0.2513193,-0.5600162,-0.114469826,-0.15728623,0.24714692
20231225 09:32:45,0.717395,-0.650765,0.755052,-0.364119,-0.106854,-0.019751,-19.015331,-12.234341,0.380768,114.39397,1.010638,-0.6515907,-0.26753598,-0.28931233,-0.09090961,0.32096708
20231225 09:32:45,0.090015,-1.109105,1.099634,-0.430171,0.075320,-0.084737,-18.899822,-12.324829,0.789734,120.0915,0.76319313,-1.1372942,0.27311692,-0.39748773,0.060389444,0.2393972
20231225 09:32:45,-0.826939,-1.609192,2.002727,-0.370511,0.313958,-0.090064,-18.776501,-11.744633,0.351173,122.15293,0.43122643,-1.8440793,0.6799983,-0.3869075,0.27139303,0.0039749295
20231225 09:32:45,-1.598242,-2.070757,2.979730,-0.194729,0.469499,-0.043188,-19.376827,-11.786613,0.080002,123.02343,0.06389105,-2.5856345,0.81573284,-0.23546737,0.4286052,-0.24382782
20231225 09:32:45,-2.148582,-2.484600,3.390683,0.062020,0.508917,0.050562,-18.803394,-12.029690,0.369514,125.26327,-0.3100947,-3.1948185,0.9730767,0.027571851,0.5033051,-0.42922994
20231225 09:32:45,-2.057820,-2.845665,2.722974,0.317703,0.511047,0.173077,-18.433697,-11.998619,0.103226,125.03224,-0.42371798,-3.4400423,1.5870643,0.31097543,0.54466844,-0.60450625
20231225 09:32:45,-1.326243,-3.188437,1.484354,0.497747,0.494002,0.277482,-19.148762,-12.333893,-0.015976,122.4174,-0.23081541,-3.4163315,2.3015428,0.5356225,0.5304808,-0.7364421
20231225 09:32:45,-0.272541,-3.375863,-0.057333,0.575518,0.479087,0.332880,-18.866154,-12.694832,0.412308,119.308556,-0.2655222,-3.374911,2.5924165,0.66374665,0.47773495,-0.8056313
20231225 09:32:45,0.693014,-3.426872,-1.500914,0.517989,0.475891,0.337141,-18.617970,-12.301994,0.657074,111.72731,-0.8809041,-3.6540947,2.3634548,0.6683477,0.43417105,-0.7676906
20231225 09:32:45,1.464608,-3.395195,-2.430907,0.345402,0.444996,0.304115,-18.627323,-12.205120,0.382721,100.98835,-1.5812639,-4.209269,1.5477335,0.5671451,0.40292668,-0.59104776
20231225 09:32:45,1.983492,-3.099867,-3.007256,0.093980,0.389598,0.247652,-18.945415,-12.416145,0.259354,92.86644,-1.9230682,-4.4764566,0.5541888,0.3747891,0.4023563,-0.32920673
20231225 09:32:45,2.224211,-2.749821,-3.164578,-0.200056,0.319285,0.189058,-18.784695,-12.223431,0.918236,92.929214,-1.80665,-4.3346972,0.10091379,0.12717414,0.41382387,-0.051217176
20231225 09:32:45,2.234397,-2.409853,-2.813236,-0.501549,0.244710,0.143248,-18.627323,-12.205120,0.382721,96.87504,-1.2270724,-3.764372,0.12233183,-0.1522629,0.41559067,0.20518681
20231225 09:32:45,2.200137,-2.032767,-1.877138,-0.740187,0.180790,0.103830,-18.337276,-11.703487,-0.316994,102.091515,-0.16285539,-2.9085453,0.15285197,-0.41503552,0.37811998,0.37786594
20231225 09:32:45,2.038469,-1.845530,-0.667397,-0.881878,0.139241,0.068673,-18.618740,-11.918213,0.096138,109.31627,0.87527776,-2.2879126,0.2274718,-0.61822486,0.3167301,0.43929815
20231225 09:32:45,1.767250,-1.605154,0.600528,-0.911708,0.099823,0.037778,-18.539860,-12.005005,-0.031387,112.72755,1.5987085,-1.7726241,-0.04464823,-0.70074964,0.23610264,0.4554788
20231225 09:32:45,1.470111,-1.280807,1.638344,-0.846722,0.071059,0.019667,-18.698391,-11.447647,-0.337288,113.51608,2.050894,-1.3051609,-0.4002573,-0.6832881,0.15070763,0.4178133
20231225 09:32:45,0.979310,-0.976733,2.536767,-0.703965,0.039098,0.028190,-18.735020,-11.443947,-0.873779,114.466286,2.165422,-0.9394271,-0.6683817,-0.5740107,0.077377245,0.34333786
20231225 09:32:45,0.742056,-0.738522,3.100188,-0.519660,0.001811,0.060151,-18.416538,-11.424805,-0.469948,115.748665,2.2755911,-0.68431354,-0.97431433,-0.40499112,0.025674617,0.25711298
20231225 09:32:45,0.727908,-0.563809,3.305345,-0.315113,-0.013104,0.094242,-18.319729,-11.321560,-0.609688,115.24898,2.3799286,-0.49364948,-1.1507151,-0.21447678,0.0054957,0.14670424
20231225 09:32:45,0.847206,-0.520801,3.257063,-0.100978,-0.014169,0.111287,-18.780605,-11.535267,-1.404152,113.52522,2.4612784,-0.4364671,-1.1517534,-0.024583884,-0.0028738626,0.028825857
20231225 09:32:45,1.032304,-0.501784,2.920055,0.085458,-0.015234,0.102764,-18.689808,-11.160740,-0.623871,112.817856,2.4671106,-0.41956815,-1.1364859,0.12746555,-0.016382992,-0.06963998
20231225 09:32:45,1.170216,-0.537941,2.285601,0.229280,-0.005646,0.066543,-18.707737,-11.350780,-0.611641,112.09539,2.246507,-0.48691976,-0.9819597,0.22373888,-0.022731515,-0.1512181
20231225 09:32:45,1.182522,-0.566224,1.724320,0.330488,0.008203,0.007948,-18.380291,-11.236618,-0.213928,112.22679,1.9465024,-0.5481656,-0.8280177,0.2660851,-0.0208019,-0.21153256
20231225 09:32:45,1.044593,-0.550589,1.185533,0.402931,0.016726,-0.055972,-18.795582,-11.359005,-0.478012,111.02876,1.5234973,-0.5513289,-0.60538316,0.2733299,-0.017716927,-0.25620225
20231225 09:32:45,0.756578,-0.551045,0.674135,0.438088,0.026314,-0.109240,-18.443432,-11.709862,-0.451607,112.469955,0.98968214,-0.5565579,-0.32255214,0.25202572,0.0018350072,-0.28167787
20231225 09:32:45,0.440010,-0.550895,0.295378,0.450872,0.030575,-0.142266,-18.919666,-11.555428,-0.600395,112.23369,0.5165956,-0.55238664,-0.018183619,0.22654405,0.024747126,-0.2942289
20231225 09:32:45,0.140518,-0.582091,-0.029217,0.442349,0.016726,-0.152919,-18.406803,-11.713562,0.084885,115.227844,0.08965341,-0.5785365,0.27953786,0.20240039,0.028403837,-0.27902383
20231225 09:32:45,-0.130252,-0.533201,-0.330059,0.414650,-0.003516,-0.147592,-18.388874,-11.523521,0.072662,115.98848,-0.2988769,-0.5189751,0.51766455,0.17201251,0.027809074,-0.25977534
20231225 09:32:45,-0.402012,-0.420124,-0.732562,0.380559,0.005007,-0.113501,-18.813122,-11.740932,-0.185318,116.29891,-0.7745301,-0.3795891,0.75997305,0.15956515,0.046396043,-0.26078168
20231225 09:32:45,-0.550744,-0.321627,-1.007472,0.335814,0.027379,-0.062364,-18.724125,-12.308372,0.522469,118.99093,-1.0856525,-0.25011128,0.9083896,0.15558003,0.0655228,-0.2603045
20231225 09:32:45,-0.675049,-0.194045,-1.332695,0.284678,0.055078,-0.008032,-18.688656,-11.736408,0.217537,118.331604,-1.4265016,-0.069469914,1.0206797,0.15517929,0.086115316,-0.2552803
20231225 09:32:45,-0.820227,-0.125384,-1.517496,0.225018,0.083843,0.040974,-18.573917,-11.443115,0.065567,118.67354,-1.661677,0.039675176,1.1542926,0.14855969,0.10263125,-0.23737009
20231225 09:32:45,-0.914092,-0.043368,-1.548440,0.158967,0.113673,0.092111,-18.839634,-12.217880,0.113503,119.72976,-1.7541711,0.11405349,1.2121341,0.14577961,0.11479422,-0.21329968
20231225 09:32:45,-0.816071,-0.150949,-1.454922,0.089719,0.112607,0.131529,-18.688656,-11.736408,0.217537,118.334465,-1.6133624,-0.023522988,1.1456654,0.1408188,0.10115678,-0.16816089
20231225 09:32:45,-0.618621,-0.191460,-1.359718,0.020471,0.087039,0.150705,-18.794811,-11.742783,0.082932,116.12128,-1.429986,-0.08847195,0.9548209,0.12265344,0.0710374,-0.102077305
20231225 09:32:45,-0.438916,-0.052855,-1.243535,-0.043450,0.074255,0.160293,-18.758572,-11.554592,0.338951,115.4475,-1.2485042,0.02957473,0.69969225,0.09514251,0.056534268,-0.046349533
20231225 09:32:45,-0.308796,0.091710,-0.990992,-0.096717,0.062536,0.176273,-18.476719,-11.531757,0.206291,114.73579,-0.9785335,0.14496401,0.4465024,0.07647592,0.044535443,-0.0023011863
20231225 09:32:45,-0.236748,0.224987,-0.821925,-0.145723,0.032706,0.213561,-19.067699,-11.670605,0.209473,113.41294,-0.8047564,0.2557276,0.26077187,0.07787557,0.016726136,0.045002036
20231225 09:32:45,-0.097416,0.262626,-0.699437,-0.162769,0.038033,0.250848,-18.265171,-11.135220,-0.085426,112.28138,-0.6191216,0.2850198,0.09030036,0.09507675,0.02420446,0.0474753
20231225 09:32:45,-0.039129,0.188590,-0.570884,-0.161703,0.058275,0.275351,-18.265171,-11.135220,-0.085426,112.415375,-0.47141808,0.20421752,0.057744555,0.10849345,0.046296794,0.02427756
20231225 09:32:45,-0.043381,0.171684,-0.430161,-0.131873,0.084908,0.294527,-18.748569,-10.133831,-0.155609,109.97171,-0.36210436,0.1809137,0.024080642,0.13969314,0.07531054,-0.014205553
20231225 09:32:45,-0.039305,0.144810,-0.258008,-0.057299,0.145633,0.304115,-18.493610,-10.396053,-0.269928,111.081795,-0.22183877,0.1496966,0.0011681244,0.18548039,0.13768028,-0.120502464
20231225 09:32:45,0.011394,-0.446383,-0.130797,0.013014,0.168005,0.287070,-18.829639,-10.797119,-0.381058,111.47098,-0.0834529,-0.44606972,0.31954044,0.2118184,0.16740575,-0.19406003
20231225 09:32:45,0.192733,-0.822448,0.053132,0.051366,0.116869,0.254044,-18.545986,-9.832317,-0.441208,109.08691,0.15850036,-0.82522714,0.41634586,0.21502763,0.12108653,-0.1754159
20231225 09:32:45,0.436672,-0.920362,0.093429,0.095046,0.034837,0.215691,-18.361332,-9.720837,-0.714592,107.425865,0.34181142,-0.93266344,0.30292988,0.21983686,0.039379086,-0.13639843
20231225 09:32:45,0.524213,-1.018272,-0.315306,0.114222,-0.042934,0.191188,-18.721676,-9.848774,-0.173943,106.68712,0.075262785,-1.0616918,0.354852,0.21435812,-0.038073808,-0.09225185
20231225 09:32:45,0.660698,-0.956259,-0.985436,0.086523,-0.098332,0.181600,-18.633823,-9.840542,-0.307579,103.34504,-0.41260597,-1.0908071,0.2381417,0.18469355,-0.087609254,-0.03172475
20231225 09:32:45,0.825264,-0.702842,-1.499043,0.017275,-0.123900,0.183731,-18.739605,-10.038811,-0.161720,99.65444,-0.8092513,-0.9865799,-0.113674596,0.13923436,-0.0979965,0.039636593
20231225 09:32:45,1.021418,-0.409292,-2.047924,-0.076475,-0.103658,0.194384,-18.680073,-11.449497,-0.069046,96.77308,-1.208446,-0.9679171,-0.5126004,0.09553331,-0.048831116,0.10750482
20231225 09:32:45,1.206981,-0.267560,-2.440090,-0.193664,-0.014169,0.187992,-18.306004,-9.918278,0.370613,92.35931,-1.4270995,-1.0769238,-0.83941185,0.048566617,0.06569904,0.16872767
20231225 09:32:45,1.366399,-0.104109,-2.306619,-0.298068,0.100888,0.145378,-18.758572,-11.554592,0.338951,96.88954,-1.1035438,-0.8720703,-0.9255961,-0.025460608,0.17922336,0.18265189
20231225 09:32:45,1.297052,-0.092513,-1.671252,-0.367315,0.165875,0.066543,-18.511158,-10.777981,0.022781,100.93123,-0.52888954,-0.52946335,-0.78419405,-0.143581,0.219459,0.1856915
20231225 09:32:45,0.934120,0.020847,-0.900353,-0.365185,0.210619,-0.021881,-18.661762,-11.451347,0.199203,107.37536,-0.081487,-0.13404243,-0.55499136,-0.23222196,0.23526503,0.15447716
20231225 09:32:45,0.538576,0.137122,-0.215611,-0.278892,0.268148,-0.108174,-18.422932,-10.961639,0.169609,110.82662,0.20902434,0.1167423,-0.43181968,-0.26046818,0.2721622,0.062223136
20231225 09:32:45,0.005523,0.265607,0.348153,-0.140396,0.308631,-0.167834,-18.626286,-10.879383,-0.105721,113.18236,0.24753594,0.25585538,-0.26782,-0.22682126,0.309327,-0.049286883
20231225 09:32:45,-0.479983,0.458408,0.605327,0.009818,0.303305,-0.183814,-18.661762,-11.451347,0.199203,117.37039,0.07073313,0.36449614,-0.11872578,-0.15249941,0.31778213,-0.13360454
20231225 09:32:45,-0.981707,0.848810,0.535625,0.151509,0.277736,-0.136939,-18.626286,-10.879383,-0.105721,117.11035,-0.35174456,0.6609441,0.08691606,-0.03796555,0.3078155,-0.2355439
20231225 09:32:45,-1.096243,1.176537,0.033701,0.261240,0.248972,-0.054907,-18.582882,-11.538132,0.071686,117.97503,-0.8032375,1.0314916,0.24436378,0.07707846,0.28146765,-0.32546657
20231225 09:32:45,-0.814193,1.389581,-0.840251,0.298527,0.230861,0.026059,-18.952961,-11.377316,0.057503,113.97929,-1.3042314,1.4160154,0.2027826,0.15128295,0.24777324,-0.37045312
20231225 09:32:45,-0.326496,1.412083,-1.686738,0.258044,0.237253,0.081458,-18.380291,-11.236618,-0.213928,108.01175,-1.7007582,1.4779193,-0.102755845,0.18351835,0.23953499,-0.3462048
20231225 09:32:45,0.236241,1.182186,-2.169072,0.174947,0.253233,0.092111,-18.370945,-11.333488,0.060432,102.62816,-1.73888,1.0352312,-0.5219856,0.1779049,0.25269967,-0.2781787
20231225 09:32:45,0.705157,0.901498,-2.326821,0.065216,0.254299,0.055889,-18.556751,-10.869301,-0.507599,96.99966,-1.5839292,0.5402116,-0.90954405,0.11250287,0.2542847,-0.17925149
20231225 09:32:45,0.944260,0.688708,-2.243681,-0.042384,0.248972,-0.018685,-18.759335,-11.170815,-0.221992,98.273224,-1.3507278,0.2805234,-0.9975147,-0.0014413763,0.2463647,-0.084535405
20231225 09:32:45,0.889338,0.552675,-1.914728,-0.123351,0.251103,-0.099652,-18.609776,-11.823196,0.090027,104.33418,-1.0943344,0.33494315,-0.7863785,-0.12765124,0.24783003,-0.01146394
20231225 09:32:45,0.548640,0.424444,-1.484378,-0.180879,0.240449,-0.157180,-18.416538,-11.424805,-0.469948,107.58716,-0.90356076,0.39713082,-0.42658037,-0.22857115,0.2399383,0.04563486
20231225 09:32:45,0.129760,0.558379,-1.094797,-0.218167,0.208489,-0.163573,-18.698002,-11.639534,-0.056816,112.09225,-0.85012686,0.61802727,-0.16686544,-0.2694431,0.20865525,0.10347699
20231225 09:32:45,-0.269339,1.009480,-0.956985,-0.227755,0.185051,-0.108174,-18.381062,-10.852844,-0.774872,111.9264,-1.0432603,1.0827779,-0.10148536,-0.23596635,0.17872164,0.11505695
20231225 09:32:45,-0.465463,1.168244,-1.056857,-0.246931,0.158417,-0.027208,-18.459560,-10.957939,-0.366875,113.35314,-1.2722852,1.2475122,0.03403358,-0.17638662,0.14056157,0.13364539
20231225 09:32:45,-0.408295,1.502728,-1.258755,-0.285284,0.127522,0.044170,-18.425503,-11.519821,-0.463829,111.918594,-1.4371643,1.5962833,-0.121375054,-0.121192485,0.104659215,0.17632984
20231225 09:32:45,-0.147637,1.769299,-1.491681,-0.330028,0.097692,0.085719,-18.468525,-11.052959,-0.360764,108.47463,-1.4625151,1.8422991,-0.4688805,-0.0944763,0.082620144,0.22733423
20231225 09:32:45,0.141471,1.787502,-1.612852,-0.389688,0.063601,0.092111,-18.380680,-11.044727,-0.494400,105.708855,-1.3496008,1.8022652,-0.7555491,-0.112327434,0.06085489,0.29670733
20231225 09:32:45,0.418248,1.831029,-1.470097,-0.432302,0.042294,0.072935,-18.293606,-10.652721,-1.188972,101.99976,-0.986061,1.7747185,-1.1227851,-0.15853721,0.052890796,0.34162912
20231225 09:32:45,0.609028,1.745749,-1.296991,-0.457870,0.033772,0.019667,-18.486454,-11.243000,-0.348534,104.4638,-0.6933373,1.6621864,-1.239185,-0.22367857,0.04839641,0.36882874
20231225 09:32:45,0.593162,1.851300,-1.030012,-0.464262,0.062536,-0.044254,-18.283871,-10.941479,-0.634140,106.248055,-0.51866233,1.8390356,-1.3139286,-0.29156741,0.06476984,0.36168507
20231225 09:32:45,0.100738,2.121764,-0.557757,-0.428040,0.088104,-0.084737,-18.328693,-11.416576,-0.603577,111.82981,-0.5530713,2.1589735,-1.0862848,-0.31951162,0.072418004,0.32323363
20231225 09:32:45,-0.518230,2.350112,-0.152375,-0.346008,0.110477,-0.070887,-18.223301,-11.026421,-1.029907,113.86444,-0.73342824,2.2900243,-0.8045561,-0.2740529,0.08550178,0.23782092
20231225 09:32:45,-0.954317,2.411672,-0.011673,-0.241604,0.132849,-0.016555,-18.099598,-10.638111,-1.187996,115.127495,-0.9800805,2.242773,-0.5280789,-0.1789045,0.10281915,0.12691405
20231225 09:32:45,-1.095562,2.410738,-0.045453,-0.134004,0.162679,0.064412,-18.213573,-11.315178,-0.475082,117.317375,-1.0744514,2.238575,-0.36830312,-0.054635115,0.13295984,0.005342936
20231225 09:32:45,-0.840609,2.225206,-0.250671,-0.023208,0.208489,0.130464,-18.002407,-10.726753,-1.047272,113.50762,-0.98565906,2.1487713,-0.4492999,0.063426316,0.18623827,-0.12303904
20231225 09:32:45,-0.469492,1.972616,-0.492741,0.088654,0.283063,0.157097,-18.699543,-10.871983,-1.178703,110.07975,-0.8338398,1.9759183,-0.58562875,0.1554855,0.27381217,-0.25663173
20231225 09:32:45,-0.061416,1.808404,-0.651644,0.205842,0.382140,0.148574,-18.187054,-10.838234,-0.773895,109.81291,-0.6720771,1.8385974,-0.7911736,0.217337,0.38087732,-0.40236697
20231225 09:32:45,-0.061241,1.895283,-0.758913,0.284678,0.404513,0.124071,-18.348164,-10.839066,-1.713242,107.840645,-0.809099,1.9420719,-0.8130608,0.2289651,0.40765032,-0.47041452
20231225 09:32:45,-0.147902,2.013768,-1.098218,0.290004,0.358703,0.104895,-17.975124,-10.633583,-0.785141,109.6713,-1.1970073,2.0944502,-0.655563,0.2055196,0.36289683,-0.44025114
20231225 09:32:45,-0.176381,2.218812,-1.482694,0.237802,0.320350,0.078261,-18.284641,-10.557701,-1.195091,108.812164,-1.6357791,2.363013,-0.6275759,0.14450033,0.3236411,-0.36670673
20231225 09:32:45,-0.392220,2.722290,-1.637060,0.108895,0.243645,0.039909,-18.311535,-10.842762,-1.176750,112.09587,-2.1289139,2.9356875,-0.5046016,0.036758527,0.24076146,-0.20531687
20231225 09:32:45,-0.835493,3.034119,-2.050923,-0.120155,0.178659,0.038844,-18.435619,-11.039181,-1.299133,115.3749,-2.9427965,3.3425412,-0.037542224,-0.06562041,0.14497004,0.03284853
20231225 09:32:45,-0.996830,3.173048,-1.812207,-0.406733,0.210619,0.107026,-17.923527,-10.813545,-1.174797,114.32477,-2.68959,3.345873,-0.16210115,-0.14963356,0.13475129,0.2423305
20231225 09:32:45,-0.653947,2.918870,-0.489486,-0.644306,0.245776,0.198646,-18.250584,-11.119591,-1.292046,111.75352,-1.0416056,2.9003708,-1.0016288,-0.2523421,0.18338528,0.33247864
20231225 09:32:45,0.164014,2.001009,1.409932,-0.803043,0.201031,0.249783,-18.718243,-10.678246,-1.727425,109.084335,1.0990295,2.012904,-1.8352879,-0.41661268,0.21194994,0.3472951
20231225 09:32:45,1.152004,0.934906,3.206301,-0.873356,0.049752,0.232737,-18.672642,-10.586922,-1.197044,110.936714,2.7894807,1.0147442,-2.3181362,-0.59251004,0.13622127,0.3800171
20231225 09:32:45,1.927758,-0.308326,4.551971,-0.871225,-0.143076,0.159228,-18.954876,-10.417873,-1.344856,112.28471,3.6843448,-0.26883763,-2.1385927,-0.72355837,-0.020452883,0.4456111
20231225 09:32:45,2.373374,-1.608230,5.529307,-0.809435,-0.358277,0.034582,-18.524616,-10.471745,-2.006912,114.44895,4.0168853,-1.6406481,-1.5877719,-0.76762336,-0.23513913,0.57030666
20231225 09:32:46,2.345582,-2.545706,6.109890,-0.700769,-0.554301,-0.100717,-18.655483,-10.013107,-1.770218,114.89531,3.8228798,-2.6002965,-0.8954809,-0.721398,-0.46391696,0.7163329
20231225 09:32:46,1.923336,-3.363690,6.252098,-0.558013,-0.702384,-0.204056,-18.955647,-10.034092,-1.905800,115.49708,3.2058482,-3.3925898,-0.10074949,-0.6059596,-0.6473623,0.8296286
20231225 09:32:46,1.547318,-3.872178,6.091519,-0.373707,-0.729018,-0.262650,-18.356083,-9.608337,-2.195564,115.599915,2.6620436,-3.88395,0.53450155,-0.4303571,-0.70060855,0.829937
20231225 09:32:46,1.292422,-4.173214,5.830173,-0.140396,-0.656574,-0.295676,-19.165012,-9.680553,-1.261101,115.36065,2.29177,-4.175626,1.0118191,-0.20174485,-0.6485936,0.73349106
20231225 09:32:46,1.221092,-4.337908,5.148770,0.104634,-0.535124,-0.338290,-19.069996,-10.519268,-1.473351,117.124565,2.2168162,-4.3348875,1.220921,0.02314762,-0.5457762,0.59412193
20231225 09:32:46,0.829339,-3.734497,4.142931,0.247390,-0.461615,-0.401145,-18.849102,-10.219601,-1.490715,115.95537,2.0100884,-3.7218904,1.2230675,0.11164078,-0.47039878,0.48868728
20231225 09:32:46,0.070776,-2.686449,2.970417,0.287874,-0.460550,-0.444824,-18.548168,-10.582394,-0.794182,117.62898,1.4422266,-2.7640815,0.8701441,0.07789023,-0.428794,0.42599362
20231225 09:32:46,-0.893420,-1.427733,1.632942,0.274024,-0.410479,-0.420321,-18.821445,-10.318321,-0.948112,118.09333,0.33243006,-1.7149713,0.9121855,0.033892766,-0.3158979,0.30411637
20231225 09:32:46,-1.743543,-0.328026,0.622268,0.203711,-0.344427,-0.340420,-18.803127,-10.320171,-0.679863,120.86889,-0.85848826,-0.8074949,1.1191074,0.00362733,-0.22191846,0.22001313
20231225 09:32:46,-2.177010,0.332594,-0.068662,0.075869,-0.285833,-0.227493,-19.024410,-10.427952,-0.942978,121.93766,-1.6771035,-0.19899605,1.350735,-0.027697891,-0.19613168,0.2056211
20231225 09:32:46,-2.285162,0.626075,-0.284194,-0.087129,-0.211259,-0.103913,-18.724247,-10.406963,-0.807388,122.0452,-1.971966,0.115775175,1.3162911,-0.08248815,-0.19630651,0.22888394
20231225 09:32:46,-2.099509,0.411154,0.365285,-0.204317,-0.133488,0.014341,-19.218418,-10.442562,-0.943954,119.27169,-1.4660865,-0.06827571,0.9141273,-0.12806967,-0.17120636,0.21409708
20231225 09:32:46,-1.588581,-0.263252,1.442411,-0.198990,-0.055718,0.092111,-19.000088,-10.701080,-1.594757,117.36781,-0.5404986,-0.6083112,0.5001695,-0.11302002,-0.09072398,0.11384356
20231225 09:32:46,-1.034896,-1.122772,2.375994,-0.076475,0.011399,0.130464,-19.439312,-10.742229,-0.926590,117.323524,0.22667503,-1.3265364,0.39508754,-0.00849751,-0.0020024767,-0.02680808
20231225 09:32:46,-0.630501,-1.804022,2.783892,0.116353,0.069993,0.131529,-18.600544,-10.018654,-0.965477,116.40208,0.6359053,-1.9200763,0.6062404,0.15840891,0.07336714,-0.15863352
20231225 09:32:46,-0.347101,-2.304410,2.709415,0.320899,0.113673,0.112353,-19.139919,-10.337463,-1.351944,115.86901,0.81914186,-2.3719442,0.95563376,0.3366216,0.12594073,-0.26778522
20231225 09:32:46,-0.179389,-2.485825,2.235249,0.503074,0.152025,0.081458,-18.793781,-10.417042,-0.405510,116.97799,0.8188358,-2.5251863,1.1648178,0.48806107,0.16758603,-0.36860448
20231225 09:32:46,-0.081240,-2.418451,1.575666,0.640504,0.190378,0.045236,-19.112255,-10.436184,-0.809341,115.758194,0.7040124,-2.4490824,1.3606542,0.58478546,0.21242444,-0.46645403
20231225 09:32:46,-0.090656,-2.316993,0.857234,0.727862,0.228730,0.020733,-19.112255,-10.436184,-0.809341,115.23831,0.42311007,-2.339994,1.5294633,0.62852126,0.2589792,-0.560045
20231225 09:32:46,-0.139405,-2.089255,0.222600,0.759823,0.247907,0.014341,-19.360813,-10.637131,-1.334587,113.734055,0.06979856,-2.098551,1.5789274,0.6263265,0.2777729,-0.6234292
20231225 09:32:46,-0.019417,-1.996828,-0.406402,0.737451,0.256429,0.015406,-19.130184,-10.626221,-0.797112,113.561134,-0.21904972,-1.9869769,1.5888877,0.5872677,0.27723834,-0.64172953
20231225 09:32:46,0.129128,-1.954416,-0.856399,0.669268,0.244710,0.012210,-19.296909,-10.547657,-0.535965,112.39283,-0.42940775,-1.9417769,1.5477357,0.51656693,0.2541823,-0.60793805
20231225 09:32:46,0.206468,-1.865577,-1.093027,0.563799,0.187182,0.006883,-19.075626,-10.439880,-0.272858,112.255356,-0.5554402,-1.8487959,1.4511764,0.42092466,0.19484581,-0.508203
20231225 09:32:46,0.162290,-1.850164,-1.365551,0.432761,0.114738,0.003687,-19.323414,-11.024605,-0.237152,112.98874,-0.7873738,-1.8200278,1.5092514,0.31400996,0.12334225,-0.37575367
20231225 09:32:46,0.220930,-1.818022,-1.465274,0.288939,0.036968,-0.000574,-18.830021,-10.605228,-0.661522,111.44876,-0.8388003,-1.7927458,1.4394788,0.20576128,0.041318126,-0.22635174
20231225 09:32:46,0.133225,-1.778269,-1.479572,0.145117,-0.039737,-0.010162,-19.305485,-10.834568,-0.249382,112.80162,-0.8923867,-1.7252524,1.4734786,0.09689933,-0.034750573,-0.07368231
20231225 09:32:46,0.034345,-1.592768,-1.329364,0.022602,-0.088743,-0.014424,-19.066280,-10.536747,0.001511,113.79181,-0.8302439,-1.5305052,1.4068984,0.010043489,-0.08693602,0.046712436
20231225 09:32:46,-0.105241,-1.523945,-1.001512,-0.076475,-0.119639,-0.013358,-19.015057,-10.524818,-0.668617,113.56976,-0.6736556,-1.4702566,1.38713,-0.058481675,-0.12302359,0.13627896
20231225 09:32:46,-0.225012,-1.271997,-0.678684,-0.143592,-0.121769,0.000491,-19.084209,-10.726788,0.013733,115.57536,-0.54405075,-1.2399777,1.213964,-0.098028995,-0.13095485,0.17783402
20231225 09:32:46,-0.316462,-1.145835,-0.329658,-0.179814,-0.095136,0.017537,-19.587727,-10.665516,-0.397186,114.93519,-0.38036925,-1.1427149,1.099188,-0.11877525,-0.109195925,0.17709619
20231225 09:32:46,-0.411833,-1.127953,0.238874,-0.184076,-0.082351,0.026059,-19.154896,-10.161201,-0.425804,114.67967,-0.10716674,-1.1668974,0.97960806,-0.1226801,-0.09689343,0.16496944
20231225 09:32:46,-0.379844,-0.988941,0.773277,-0.126547,-0.072763,0.021798,-19.048351,-10.346710,-0.010719,115.8404,0.21849671,-1.0510725,0.6699865,-0.083451554,-0.082179405,0.12142171
20231225 09:32:46,-0.382651,-0.969007,0.939993,-0.081802,-0.069567,0.010079,-19.112255,-10.436184,-0.809341,114.64524,0.30670488,-1.036219,0.6206422,-0.055823136,-0.07509778,0.09641044
20231225 09:32:46,-0.442908,-0.818547,1.056837,0.065216,-0.065306,-0.021881,-19.393330,-10.842800,-0.115746,116.384605,0.33802116,-0.90550005,0.47935063,0.04191868,-0.0591459,0.014144501
20231225 09:32:46,-0.377582,-0.717288,0.911861,0.146182,-0.068502,-0.032535,-19.172825,-10.351242,-0.413574,114.399055,0.32312295,-0.7837495,0.4535972,0.0955673,-0.05776837,-0.034525197
20231225 09:32:46,-0.237843,-0.688233,0.569218,0.196254,-0.065306,-0.037861,-19.474789,-11.314198,-0.621658,114.628944,0.22265221,-0.72181195,0.4490577,0.12579633,-0.054260448,-0.07234323
20231225 09:32:46,-0.138221,-0.621713,0.190038,0.228214,-0.041868,-0.048515,-19.199329,-10.828190,-0.114769,114.23406,0.05227928,-0.6341548,0.4526099,0.13617572,-0.03005325,-0.11246966
20231225 09:32:46,-0.191640,-0.662422,-0.083314,0.245260,-0.007777,-0.060234,-19.323032,-11.216496,0.043327,115.62491,-0.15862487,-0.6668388,0.5905262,0.13647039,0.010145882,-0.14536197
20231225 09:32:46,-0.385155,-0.579696,-0.261534,0.259109,0.020987,-0.070887,-19.269245,-10.646378,0.006645,115.80493,-0.40693274,-0.58650017,0.7233347,0.13361165,0.049487513,-0.17315133
20231225 09:32:46,-0.657189,-0.459718,-0.366621,0.270828,0.030575,-0.062364,-19.791462,-10.391369,-0.952995,114.24133,-0.6615106,-0.4847601,0.8686378,0.13951378,0.0683375,-0.1969801
20231225 09:32:46,-0.869428,-0.302454,-0.630898,0.271893,0.030575,-0.032535,-19.481953,-10.467251,-0.543053,116.31588,-0.9957568,-0.31857765,1.0149446,0.1533311,0.07111125,-0.21102223
20231225 09:32:46,-0.916028,-0.262558,-0.959140,0.259109,0.030575,-0.003770,-19.305103,-11.026455,0.031097,118.33811,-1.2659426,-0.22674066,1.1428732,0.15898716,0.06507553,-0.21455227
20231225 09:32:46,-0.818547,-0.169191,-1.299519,0.237802,0.028445,0.012210,-19.253117,-11.398308,-0.078087,117.95387,-1.4799073,-0.05687432,1.111302,0.14979084,0.055517368,-0.207336
20231225 09:32:46,-0.748398,-0.098392,-1.633525,0.203711,0.048686,0.019667,-19.411266,-11.032837,-0.103516,116.96595,-1.7153683,0.085186034,1.0931128,0.127645,0.06923069,-0.19531418
20231225 09:32:46,-0.694207,-0.199665,-1.713495,0.149378,0.060405,0.027125,-19.332378,-11.119625,-0.231041,116.22123,-1.731663,-0.022647887,1.1192514,0.10279024,0.072033145,-0.1589624
20231225 09:32:46,-0.540043,-0.473442,-1.539448,0.071608,0.025249,0.024994,-19.383602,-11.131557,0.439095,116.14286,-1.4756801,-0.35085475,1.1126719,0.061499838,0.028504666,-0.0768934
20231225 09:32:46,-0.341372,-0.482954,-1.259356,-0.005097,-0.026953,0.030321,-19.711040,-11.245712,0.041374,113.86385,-1.1441423,-0.41223377,0.87450504,0.0216827,-0.029285466,0.011883342
20231225 09:32:46,-0.046726,-0.547386,-0.978145,-0.062626,-0.075959,0.040974,-19.720776,-10.956955,-0.513458,110.688194,-0.74445784,-0.522739,0.60767543,-0.0093877185,-0.078437075,0.08440299
20231225 09:32:46,0.238552,-0.713271,-0.758986,-0.109501,-0.131357,0.038844,-19.235188,-11.208267,-0.090309,111.04961,-0.39465615,-0.7267801,0.47458994,-0.04924199,-0.12935328,0.15421912
20231225 09:32:46,0.552911,-0.779821,-0.577457,-0.157442,-0.213389,0.010079,-19.763027,-10.873867,0.150551,108.94125,-0.0667018,-0.8272786,0.24251403,-0.11127585,-0.20586815,0.25111234
20231225 09:32:46,0.674533,-0.525002,-0.531363,-0.198990,-0.295421,-0.039992,-19.268864,-10.838268,0.287117,108.994316,0.033568233,-0.57305217,-0.0544687,-0.17539184,-0.28895658,0.34340414
20231225 09:32:46,0.504825,-0.131917,-0.691450,-0.235212,-0.357211,-0.083671,-19.517040,-11.231106,0.042351,109.74828,-0.20913929,-0.14440703,-0.15855516,-0.21891049,-0.3559086,0.414071
20231225 09:32:46,0.207587,0.126813,-0.897147,-0.290610,-0.429655,-0.114567,-19.526386,-11.134235,-0.232018,110.19699,-0.57875746,0.15236092,-0.044946313,-0.25947174,-0.4322166,0.5023497
20231225 09:32:46,-0.068254,0.279124,-1.073222,-0.368381,-0.501033,-0.135873,-19.914394,-11.163452,-0.233971,110.88437,-0.901891,0.32671338,0.12854639,-0.30920336,-0.5071868,0.60755557
20231225 09:32:46,-0.150525,0.262227,-1.168466,-0.455739,-0.562823,-0.164638,-19.842297,-10.595184,-0.002396,110.592155,-1.0228189,0.30979317,0.2205686,-0.38482475,-0.5706809,0.71946037
20231225 09:32:46,-0.136731,0.079324,-1.209748,-0.540967,-0.601176,-0.195533,-19.754063,-10.778847,0.144432,111.08564,-1.0299472,0.12008188,0.33301663,-0.4690398,-0.60940593,0.81724674
20231225 09:32:46,-0.021907,-0.130776,-1.206031,-0.600627,-0.537255,-0.216840,-19.789928,-11.158924,0.168884,111.17174,-0.9131651,-0.12462809,0.38784006,-0.5591246,-0.5388989,0.83387136
20231225 09:32:46,0.188023,-0.353827,-0.473525,-0.591038,-0.440308,-0.254127,-19.587337,-10.857407,-0.116722,111.28576,-0.18911907,-0.36211145,0.23924252,-0.61126727,-0.43552756,0.770491
20231225 09:32:46,0.191007,-0.480090,0.345680,-0.503680,-0.379584,-0.319113,-19.462482,-11.044765,0.566605,114.11854,0.36945552,-0.4798972,0.10062076,-0.5905541,-0.37916982,0.6899471
20231225 09:32:46,-0.062858,-0.194695,0.689773,-0.357727,-0.309271,-0.377708,-19.708851,-10.495640,0.394348,113.97629,0.41650215,-0.21893874,-0.034877583,-0.50801814,-0.30972636,0.56360334
20231225 09:32:46,-0.548750,0.124783,0.673208,-0.189402,-0.204866,-0.404341,-19.647518,-10.964355,0.559517,117.28744,0.03939736,0.02124396,0.06342186,-0.39476794,-0.18731117,0.39854586
20231225 09:32:46,-1.079646,0.460362,0.534627,-0.011489,-0.082351,-0.391557,-19.877773,-11.167152,0.302521,119.09481,-0.4573841,0.23189147,0.29253888,-0.26807544,-0.02920001,0.19401434
20231225 09:32:46,-1.560890,0.940023,0.258435,0.184535,0.071059,-0.340420,-19.650478,-11.330654,-0.354393,120.49769,-1.0700285,0.5820798,0.48351702,-0.12465372,0.16522023,-0.056975484
20231225 09:32:46,-1.756790,0.580180,-0.013263,0.333684,0.174397,-0.280761,-19.180630,-11.021927,0.433952,122.39661,-1.3738316,0.2343326,0.87860835,0.018580928,0.281717,-0.23035052
20231225 09:32:46,-1.451664,-0.181483,-0.048554,0.376298,0.116869,-0.239212,-19.586956,-11.049294,0.163750,119.56872,-1.0693848,-0.38400814,1.1229267,0.09943193,0.20237193,-0.24462184
20231225 09:32:46,-0.829242,-0.323830,-0.115629,0.365644,-0.055718,-0.196598,-19.349552,-11.693439,0.342133,117.73391,-0.64741397,-0.37854132,0.8236414,0.12862389,-0.011137287,-0.15544626
20231225 09:32:46,-0.178362,-0.464345,-0.741434,0.309181,-0.252807,-0.175291,-19.357090,-10.654610,0.140274,111.40133,-0.664367,-0.44986528,0.5964892,0.077392325,-0.24185887,-0.036178913
20231225 09:32:46,0.253628,-0.243186,-1.825196,0.194123,-0.381714,-0.171030,-19.419849,-11.319748,0.183067,107.26685,-1.3917844,-0.27567953,0.21176071,-0.04296851,-0.38651326,0.06506002
20231225 09:32:46,0.278536,0.425844,-2.740453,0.047105,-0.396629,-0.188076,-19.965611,-11.175385,0.436165,106.30706,-2.3401196,0.49435443,-0.089086324,-0.13799913,-0.39144492,0.15054195
20231225 09:32:46,-0.115023,1.015477,-3.224204,-0.136135,-0.320989,-0.215775,-19.525623,-11.518009,0.328934,112.199234,-3.0809572,1.4450389,0.22116756,-0.20598055,-0.29591486,0.28264412
20231225 09:32:46,-0.614969,1.305943,-2.849522,-0.333224,-0.254938,-0.236016,-19.640743,-11.619411,0.200432,116.630005,-2.9651504,1.7414353,0.58846295,-0.3178829,-0.2404681,0.4548537
20231225 09:32:46,-0.882186,1.257351,-1.740578,-0.478112,-0.271983,-0.247735,-19.816822,-11.443985,0.187225,117.086555,-2.0948372,1.4039247,0.5216495,-0.43579388,-0.2823498,0.5954369
20231225 09:32:46,-0.918338,1.155353,-0.712171,-0.527118,-0.311401,-0.246670,-19.225842,-11.305138,0.184044,117.08638,-1.2657177,1.1337581,0.24347293,-0.4908287,-0.3312189,0.65392953
20231225 09:32:46,-0.730192,1.010122,0.101631,-0.490896,-0.336970,-0.240278,-19.507694,-11.327976,0.316704,116.923485,-0.5218152,0.9295299,-0.12217662,-0.4800858,-0.35489622,0.6377811
20231225 09:32:46,-0.726404,1.086629,0.584741,-0.403537,-0.361473,-0.241343,-19.586567,-11.241184,0.444229,116.96792,-0.18576014,0.96612,-0.34062558,-0.42173737,-0.37200674,0.5902326
20231225 09:32:46,-0.846613,1.374128,0.733560,-0.306591,-0.398760,-0.238147,-19.604496,-11.431225,0.456451,118.13528,-0.20174706,1.1877706,-0.44490254,-0.33676338,-0.3994738,0.540765
20231225 09:32:46,-1.146573,1.795218,0.565742,-0.225624,-0.429655,-0.223232,-19.462482,-11.044765,0.566605,118.77504,-0.58818257,1.540131,-0.3440246,-0.25212908,-0.41800407,0.4876839
20231225 09:32:46,-1.374512,2.078483,0.128557,-0.167030,-0.423263,-0.205121,-19.523052,-10.959824,0.962372,120.375824,-1.1316735,1.8104624,-0.113707446,-0.18767071,-0.40088108,0.4262845
20231225 09:32:46,-1.480094,2.091889,-0.107739,-0.123351,-0.380649,-0.190206,-19.313686,-11.313366,0.317680,119.75469,-1.3786733,1.850229,0.025326706,-0.15644155,-0.35596082,0.36494586
20231225 09:32:46,-1.465822,1.824785,-0.019961,-0.073279,-0.328447,-0.190206,-19.754063,-10.778847,0.144432,118.593506,-1.2841449,1.5705653,0.048171528,-0.13350534,-0.29966718,0.3056752
20231225 09:32:46,-1.469544,1.489854,0.152666,-0.002966,-0.290094,-0.190206,-19.692730,-11.247562,0.309616,119.66853,-1.1193047,1.2201887,0.15167151,-0.09331615,-0.25416502,0.23686239
20231225 09:32:46,-1.418095,1.248580,0.191235,0.078000,-0.250676,-0.189141,-19.595531,-11.336205,0.450340,120.15786,-1.0214206,0.98664844,0.23929241,-0.04355128,-0.20447038,0.15496993
20231225 09:32:46,-1.449823,1.188388,0.003537,0.171751,-0.189952,-0.180618,-19.508076,-11.136086,0.036232,119.97869,-1.1735648,0.92218286,0.39858,0.017078027,-0.12469261,0.040898178
20231225 09:32:46,-1.690166,1.296095,-0.339666,0.258044,-0.113247,-0.158246,-19.420231,-11.127857,-0.097404,121.25365,-1.6212769,1.0068712,0.6872225,0.07549655,-0.027141016,-0.08122493
20231225 09:32:46,-1.890834,1.273643,-0.633511,0.310246,-0.068502,-0.115632,-19.640743,-11.619411,0.200432,123.56703,-1.9748421,0.98401725,1.0126406,0.12845564,0.025590707,-0.16339292
20231225 09:32:46,-1.926682,1.365236,-0.935356,0.343272,-0.061044,-0.062364,-19.895313,-11.549080,0.595222,124.35247,-2.228115,1.1489257,1.1741729,0.1765123,0.02781153,-0.22199106
20231225 09:32:46,-1.817649,1.267922,-1.459043,0.350729,-0.070633,-0.015489,-19.568256,-11.243031,0.712471,123.8197,-2.510081,1.2511587,1.3557383,0.20694536,0.0029420727,-0.24977548
20231225 09:32:46,-1.466310,0.999434,-2.094212,0.298527,-0.085547,-0.002705,-19.700542,-11.918251,1.157143,123.501076,-2.7250354,1.2562163,1.4170791,0.17640954,-0.034039147,-0.21574737
20231225 09:32:46,-1.162122,1.085189,-2.457230,0.209038,-0.067437,-0.021881,-19.294994,-11.507099,0.866402,121.54744,-2.889569,1.4825453,1.1877065,0.10237743,-0.029677317,-0.1471057
20231225 09:32:46,-1.161077,1.227475,-2.505259,0.112091,-0.017365,-0.054907,-20.151035,-10.903088,0.148598,120.08101,-2.972133,1.659869,1.1004853,0.016108997,0.016006049,-0.075395405
20231225 09:32:46,-1.594188,1.500333,-2.083817,0.037517,0.032706,-0.067691,-20.071384,-11.373653,0.582016,124.53716,-2.9536972,1.7243595,1.314446,-0.042990327,0.058538213,-0.02547141
20231225 09:32:46,-2.077737,1.894022,-1.600839,0.013014,0.074255,-0.041058,-19.913242,-11.739120,0.607445,128.08339,-3.0238583,1.7954224,1.4530008,-0.049922675,0.08479134,-0.029156338
20231225 09:32:46,-2.578753,2.447968,-1.218234,-0.002966,0.104085,0.021798,-19.746899,-11.625793,0.065826,128.02287,-3.2512074,1.9966693,1.4651165,-0.023574948,0.08462617,-0.051366344
20231225 09:32:46,-2.740090,2.825237,-0.828662,-0.053038,0.080647,0.093176,-19.682995,-11.536320,0.864449,128.35022,-3.1374953,2.2121115,1.292885,0.0123399235,0.029236041,-0.024927322
20231225 09:32:46,-2.451276,3.221852,-0.501279,-0.112697,0.066797,0.161359,-20.098667,-11.466824,0.319885,123.67162,-2.7000015,2.6820095,0.63551956,0.0408405,-0.0052115843,0.009447727
20231225 09:32:46,-2.058125,3.279438,0.148832,-0.159572,0.088104,0.227410,-20.519970,-11.317928,0.975830,121.282005,-1.8140723,2.8075027,-0.09895034,0.060116276,0.012203917,0.010393918
20231225 09:32:46,-1.575722,3.193790,0.923603,-0.186206,0.114738,0.298789,-20.441463,-11.212830,0.567841,117.409325,-0.7479802,2.8449087,-0.90266377,0.089116395,0.052306585,-0.012449898
20231225 09:32:46,-0.880766,2.768424,1.902415,-0.224559,0.089170,0.364840,-20.319569,-11.766491,0.337250,114.95233,0.59614253,2.6507065,-1.7375259,0.09262489,0.0650472,-0.009185277
20231225 09:32:46,0.219105,1.997509,2.991062,-0.223493,0.011399,0.393605,-20.256428,-11.293243,0.574928,112.16347,2.148905,2.105298,-2.4381356,0.07768965,0.038695112,0.019334882
20231225 09:32:46,1.379161,1.165065,3.638327,-0.153180,-0.036541,0.374428,-20.759556,-11.423862,0.444481,110.722404,3.2925637,1.2979053,-2.7384448,0.08317338,0.01619259,0.007172592
20231225 09:32:47,2.174981,0.229011,3.758712,-0.064757,-0.025888,0.327553,-20.335690,-11.014565,0.421982,110.281,3.7880297,0.24246213,-2.4250722,0.10752174,0.02301048,-0.0427801
20231225 09:32:47,2.725035,-0.703220,3.781877,-0.002966,-0.016300,0.250848,-20.732662,-11.138802,0.426140,110.82249,4.0127506,-0.85754055,-1.8573273,0.10634532,0.014333672,-0.064391896
20231225 09:32:47,3.079131,-1.596444,3.699026,0.058824,-0.006712,0.146444,-21.014515,-11.161640,0.558792,111.424225,4.0807,-1.8945408,-1.1405756,0.11054691,-0.004626561,-0.067223005
20231225 09:32:47,3.123292,-2.286428,3.398666,0.136594,0.050817,0.030321,-20.344654,-11.109581,0.428093,112.828705,3.8980646,-2.6319761,-0.46848428,0.14266805,0.017556192,-0.10647511
20231225 09:32:47,2.730764,-2.602729,3.054668,0.236737,0.145633,-0.075149,-20.635860,-11.035553,0.286392,112.583305,3.4490466,-2.8309684,0.050184965,0.20167208,0.08533401,-0.19060199
20231225 09:32:47,2.027512,-2.363646,2.728261,0.336880,0.214881,-0.142266,-21.075085,-11.076698,0.954559,112.93341,2.8567772,-2.4265544,0.08809835,0.25311986,0.15607813,-0.27821308
20231225 09:32:47,1.161236,-1.691484,2.294210,0.380559,0.201031,-0.157180,-21.111324,-11.264885,0.698547,113.020836,2.1326516,-1.6656698,-0.06577414,0.24599308,0.16749315,-0.30832234
20231225 09:32:47,0.514790,-0.785616,1.508875,0.316638,0.108346,-0.128416,-21.208134,-11.368137,0.838295,112.93743,1.3444158,-0.7718059,-0.222801,0.16441119,0.10043758,-0.23972455
20231225 09:32:47,0.218571,0.057688,0.735715,0.134464,-0.024823,-0.067691,-20.750591,-11.328842,0.438370,111.262665,0.6731231,0.06495106,-0.38168237,0.047793817,-0.027701767,-0.060533576
20231225 09:32:47,0.451722,0.458727,0.249015,-0.115893,-0.149468,0.002622,-21.102360,-11.169865,0.692429,108.03579,0.5215118,0.44488338,-0.68133265,-0.08807749,-0.1414715,0.18146743
20231225 09:32:47,1.083245,0.324347,0.183001,-0.368381,-0.206997,0.032452,-20.829090,-11.433941,0.846359,106.96761,0.95011777,0.20049757,-1.0091057,-0.27097642,-0.15161064,0.39023867
20231225 09:32:47,1.623361,-0.185040,0.607423,-0.543098,-0.173971,0.018602,-20.935627,-11.248432,0.431282,107.88079,1.6273774,-0.36252943,-0.99819285,-0.44028482,-0.08319071,0.45788267
20231225 09:32:47,1.655338,-0.976907,1.704678,-0.586777,-0.104724,-0.019751,-20.811932,-10.860123,0.273186,111.03114,2.2036602,-1.0525603,-0.57417476,-0.5248302,-0.027874554,0.38601
20231225 09:32:47,1.323826,-1.729749,2.755546,-0.509007,-0.058914,-0.042123,-20.926281,-11.345299,0.705635,114.799515,2.2719014,-1.7247075,-0.17861164,-0.4823537,-0.010588979,0.2779486
20231225 09:32:47,1.116609,-2.342148,3.495737,-0.330028,-0.038672,-0.044254,-21.190975,-10.794319,0.265121,114.03188,2.2353115,-2.3095548,0.25632632,-0.32451808,-0.011540992,0.17062047
20231225 09:32:47,0.980115,-2.699079,3.654608,-0.096717,-0.048260,-0.046384,-21.041798,-11.254810,0.296661,115.56907,2.1249113,-2.6610062,0.4571706,-0.10815979,-0.04219728,0.09355129
20231225 09:32:47,0.814385,-2.818788,3.128911,0.136594,-0.067437,-0.039992,-21.087383,-11.346130,-0.233711,115.038475,1.8520775,-2.7782767,0.8308488,0.10947628,-0.0779647,0.02063764
20231225 09:32:47,0.812471,-2.734293,2.019720,0.320899,-0.059979,-0.034665,-21.254108,-11.267567,0.027443,113.71981,1.5097737,-2.709582,1.1599687,0.27054113,-0.08643015,-0.079561755
20231225 09:32:47,0.746902,-2.482679,0.920020,0.432761,-0.034411,-0.037861,-21.244762,-11.364437,0.301804,113.08146,1.0072749,-2.4883819,1.2707307,0.35115167,-0.066192515,-0.18136431
20231225 09:32:47,0.556464,-2.142737,-0.010215,0.476440,-0.032280,-0.035731,-21.508678,-11.197239,0.422234,111.37264,0.35814428,-2.1674314,1.2721465,0.35980612,-0.058198296,-0.24972567
20231225 09:32:47,0.385258,-1.771988,-0.902715,0.447676,-0.038672,-0.019751,-21.632381,-11.585548,0.580315,111.11091,-0.3699754,-1.8097293,1.2118715,0.3182542,-0.053968716,-0.26755294
20231225 09:32:47,0.238922,-1.503909,-1.537820,0.356056,-0.047195,0.007948,-21.296360,-11.184475,0.691452,109.91028,-0.9854955,-1.542361,1.1584845,0.24947888,-0.054477002,-0.22995025
20231225 09:32:47,0.178559,-1.233656,-1.961072,0.204777,-0.075959,0.043105,-21.350918,-11.370819,0.167191,107.93743,-1.4115684,-1.2902467,1.0147853,0.1633427,-0.07946429,-0.11787718
20231225 09:32:47,0.240136,-1.131830,-2.212906,0.010883,-0.098332,0.087850,-21.429417,-11.475922,0.575180,107.18603,-1.6063248,-1.2578125,0.9228433,0.06915796,-0.09388912,0.035022244
20231225 09:32:47,0.436529,-1.202706,-2.021185,-0.180879,-0.071698,0.120875,-21.454510,-10.819008,0.666023,106.896065,-1.238424,-1.3593702,0.8806829,-0.04206992,-0.05196416,0.15419349
20231225 09:32:47,0.532398,-1.301586,-1.105936,-0.303394,-0.034411,0.135790,-21.659275,-11.870605,0.598656,110.89287,-0.3773955,-1.3917781,0.88446414,-0.1458846,-0.0072750957,0.18371637
20231225 09:32:47,0.442939,-1.462278,-0.085348,-0.343878,-0.019496,0.146444,-21.781567,-11.125061,0.548775,111.86628,0.26880035,-1.4803826,0.86979204,-0.19455893,-0.0018252158,0.17096674
20231225 09:32:47,0.279407,-1.484673,0.818948,-0.309787,-0.019496,0.169881,-21.790913,-11.028191,0.274422,112.26669,0.6468173,-1.4748535,0.74035454,-0.1679771,-0.005148573,0.12969819
20231225 09:32:47,0.317960,-1.534564,1.473678,-0.209644,-0.014169,0.187992,-21.630581,-10.643581,0.652824,112.330345,0.9836161,-1.5065671,0.57609,-0.08455619,6.8273814E-4,0.05708532
20231225 09:32:47,0.504156,-1.649698,1.840487,-0.062626,-0.007777,0.183731,-21.694103,-10.924942,0.134666,112.03023,1.2807189,-1.6091249,0.48164493,0.035460588,0.0033239303,-0.022846289
20231225 09:32:47,0.729535,-1.648508,1.877267,0.097176,0.019922,0.158163,-21.790913,-11.028191,0.274422,111.49259,1.4898553,-1.6081083,0.3613289,0.16439754,0.019428663,-0.11511186
20231225 09:32:47,0.808347,-1.512939,1.709771,0.252717,0.076385,0.119810,-21.912815,-10.474529,0.505005,110.06778,1.4931235,-1.4827526,0.2895553,0.2819749,0.05969209,-0.22820736
20231225 09:32:47,0.817105,-1.405182,1.438151,0.382690,0.125391,0.083588,-21.861217,-10.654495,0.115349,109.51233,1.387559,-1.3862271,0.25655702,0.37266487,0.09601278,-0.33229995
20231225 09:32:47,0.719149,-1.198736,1.068023,0.481767,0.166940,0.052693,-22.170338,-10.770496,-0.014114,108.654366,1.1414572,-1.1886727,0.21639287,0.42910647,0.13247037,-0.4256948
20231225 09:32:47,0.592807,-0.992088,0.611996,0.549949,0.204227,0.029255,-22.134480,-10.390419,-0.038567,107.54692,0.79520726,-0.9951708,0.22166926,0.4568838,0.17120402,-0.5033194
20231225 09:32:47,0.415484,-0.883048,0.178020,0.574452,0.225534,0.019667,-22.133709,-10.774197,0.522369,108.7387,0.3915578,-0.89410913,0.31450254,0.45584345,0.1972192,-0.5431393
20231225 09:32:47,0.366584,-0.815697,-0.186790,0.554211,0.214881,0.019667,-22.212597,-10.687408,0.649895,108.11226,0.104968846,-0.8406184,0.36261594,0.4299521,0.18776804,-0.5308172
20231225 09:32:47,0.405125,-0.825039,-0.535790,0.498813,0.185051,0.017537,-21.851864,-10.751362,0.389717,107.19245,-0.13285822,-0.87215114,0.3852882,0.37564248,0.15919882,-0.48080772
20231225 09:32:47,0.400845,-0.813117,-0.873754,0.414650,0.162679,0.018602,-22.036518,-10.862835,0.663094,106.9918,-0.40461564,-0.8782873,0.41492748,0.30614603,0.14224383,-0.41248503
20231225 09:32:47,0.356861,-0.737577,-1.138032,0.318769,0.158417,0.023929,-21.957638,-10.949627,0.535568,107.35863,-0.64628816,-0.7858963,0.41786337,0.2331006,0.14964165,-0.34423172
20231225 09:32:47,0.080828,-0.478772,-1.257693,0.274024,0.170136,0.030321,-22.099651,-11.336086,0.425423,108.810745,-0.91811264,-0.4802908,0.48508513,0.1982236,0.16991062,-0.32002845
20231225 09:32:47,-0.171646,-0.138503,-1.129314,0.167489,0.257495,0.083588,-22.355000,-10.881977,0.259262,109.912964,-0.9752299,-0.094524205,0.4588471,0.15924901,0.2594372,-0.3009545
20231225 09:32:47,-0.544463,0.195466,-0.866830,0.134464,0.311827,0.141117,-21.675785,-10.926792,0.402916,113.30518,-1.0288448,0.2330958,0.52467513,0.16463757,0.3067036,-0.32093966
20231225 09:32:47,-0.850028,0.451119,-0.682955,0.145117,0.384271,0.218887,-22.187885,-11.152428,0.278580,114.13822,-1.1134151,0.4436552,0.56884867,0.2164213,0.36924657,-0.39305532
20231225 09:32:47,-0.899756,0.327252,-0.436140,0.168555,0.429016,0.286004,-22.724689,-10.913044,0.525551,113.32545,-0.9507619,0.29190367,0.5881025,0.28523272,0.41344595,-0.4627375
20231225 09:32:47,-0.595527,0.022903,-0.245605,0.190927,0.419428,0.315834,-22.100040,-11.144199,0.144943,111.2818,-0.5862546,0.010408098,0.48200586,0.3439837,0.4132257,-0.48420694
20231225 09:32:47,-0.326346,-0.088904,-0.200120,0.218626,0.383206,0.311573,-22.337452,-10.500050,-0.033432,107.10359,-0.37119228,-0.08722096,0.3356342,0.3821998,0.38469127,-0.4739176
20231225 09:32:47,0.382920,-0.473851,-0.383851,0.227149,0.349115,0.282808,-22.180073,-10.481739,-0.568947,103.85886,-0.04367274,-0.51751906,0.10098377,0.38205156,0.35202694,-0.4444596
20231225 09:32:47,0.726936,-0.564312,-0.622448,0.204777,0.313958,0.255109,-22.470119,-10.983379,0.130760,103.14615,-0.026559263,-0.68778896,-0.07562164,0.35638577,0.31809026,-0.39586365
20231225 09:32:47,0.928455,-0.473189,-0.912828,0.154705,0.278802,0.230606,-22.716496,-10.434246,-0.041496,99.89425,-0.16260064,-0.6656724,-0.32114214,0.30720735,0.28772473,-0.31914607
20231225 09:32:47,0.868735,-0.156424,-1.194316,0.098242,0.293716,0.218887,-22.629414,-10.042244,-0.736076,97.725494,-0.4282846,-0.36028883,-0.49797857,0.26427537,0.3067308,-0.27281812
20231225 09:32:47,0.708747,0.146505,-1.208855,0.055628,0.346984,0.217822,-22.610714,-10.235985,-0.187363,101.16163,-0.5284252,0.02672036,-0.5129033,0.23078221,0.35777667,-0.2740156
20231225 09:32:47,0.337545,0.317151,-0.977293,0.041778,0.399186,0.227410,-22.716496,-10.434246,-0.041496,104.71887,-0.5639454,0.29749286,-0.30323175,0.21204928,0.40220046,-0.30362925
20231225 09:32:47,0.041328,0.327616,-0.749099,0.055628,0.443931,0.255109,-22.362926,-9.651257,-0.223068,105.36288,-0.5566992,0.3348452,-0.10634598,0.22856748,0.44195697,-0.3568478
20231225 09:32:47,0.092828,0.018867,-0.438929,0.070543,0.435408,0.278547,-22.681011,-9.862278,-0.346428,104.70532,-0.26058468,0.008328727,-0.0055606365,0.2617692,0.43954706,-0.38414103
20231225 09:32:47,0.504598,-0.523996,-0.190924,0.069477,0.369356,0.272155,-22.559887,-10.032166,-1.137955,101.9655,0.18856502,-0.5718029,0.03933898,0.2660252,0.3819083,-0.3463887
20231225 09:32:47,0.999875,-0.843170,-0.034386,0.081196,0.278802,0.230606,-22.374851,-10.112576,-1.130867,100.26544,0.60097784,-0.9541808,-0.09070008,0.24799858,0.29167515,-0.283635
20231225 09:32:47,1.240492,-0.871041,-0.307421,0.108895,0.229796,0.178404,-22.762852,-10.141792,-1.132820,98.29918,0.5281966,-1.0543704,-0.26456466,0.23215067,0.23560108,-0.2540524
20231225 09:32:47,1.104045,-0.644548,-0.723860,0.117418,0.230861,0.145378,-22.338596,-9.924385,-0.874847,98.338776,0.10085982,-0.8304412,-0.3547457,0.2122358,0.23333684,-0.25153923
20231225 09:32:47,0.834023,-0.220510,-1.028957,0.113157,0.241514,0.133660,-23.069408,-9.699612,-0.628853,98.41398,-0.33752707,-0.35766017,-0.44651812,0.19443618,0.24428327,-0.24551824
20231225 09:32:47,0.496759,0.219777,-1.372089,0.091850,0.267083,0.133660,-22.454113,-9.833893,-1.283821,99.00378,-0.8533672,0.153775,-0.41392022,0.1723473,0.26957497,-0.2348291
20231225 09:32:47,0.178560,0.572081,-1.610852,0.062020,0.291586,0.144313,-22.523640,-9.843975,-0.881935,101.9608,-1.2824409,0.5972164,-0.2708241,0.15102662,0.28999263,-0.21895018
20231225 09:32:47,-0.068735,0.708014,-1.738929,0.022602,0.308631,0.156032,-22.920612,-9.968212,-0.877777,103.34965,-1.5525236,0.7830733,-0.0901342,0.13115129,0.3018317,-0.19361255
20231225 09:32:47,-0.152749,0.597879,-1.769420,-0.033861,0.310762,0.159228,-22.435802,-9.835743,-1.015579,103.24674,-1.607732,0.6689603,0.03671463,0.10393511,0.3026331,-0.14996655
20231225 09:32:47,-0.069468,0.525379,-1.682166,-0.096717,0.306501,0.160293,-22.727375,-9.569824,-1.437752,101.313805,-1.4584309,0.5631785,-0.042997092,0.07422853,0.30119637,-0.10041174
20231225 09:32:47,0.063450,0.401947,-1.374687,-0.137200,0.294782,0.161359,-22.692936,-10.323601,-1.254227,102.36938,-1.0897241,0.4063578,-0.108328745,0.052271783,0.29397818,-0.07308286
20231225 09:32:47,0.117476,0.358025,-1.250975,-0.145723,0.290520,0.168816,-22.851086,-9.958130,-1.279655,101.46999,-0.9379378,0.34608206,-0.15508948,0.05302918,0.29295674,-0.06994255
20231225 09:32:47,0.203850,0.404194,-1.091881,-0.134004,0.299043,0.185862,-22.878361,-10.051300,-1.541786,101.102776,-0.76892823,0.3991583,-0.27417877,0.07472167,0.30018386,-0.08207619
20231225 09:32:47,0.166352,0.547882,-1.146082,-0.126547,0.307566,0.213561,-22.684353,-10.036694,-1.540810,100.99188,-0.85240525,0.5485677,-0.3175617,0.10467645,0.30740246,-0.08896683
20231225 09:32:47,0.120196,0.956004,-1.311898,-0.112697,0.321416,0.250848,-22.931118,-9.295677,-1.993553,98.39582,-1.0559752,0.9655163,-0.5011851,0.15095656,0.31919485,-0.09207531
20231225 09:32:47,0.151431,0.991597,-1.617395,-0.114828,0.332069,0.280678,-23.311581,-10.363731,-1.793655,98.84178,-1.3017135,0.979084,-0.50604844,0.1840201,0.33461016,-0.092545554
20231225 09:32:47,0.319875,0.958470,-1.748252,-0.140396,0.310762,0.275351,-23.081326,-10.160931,-1.536652,96.319855,-1.2782282,0.84295464,-0.6640897,0.18219614,0.33102253,-0.053137522
20231225 09:32:47,0.633006,0.831595,-1.832944,-0.173422,0.275606,0.236998,-23.152012,-9.595345,-1.976189,92.6353,-1.1527141,0.6134137,-0.9275694,0.1385805,0.30670416,6.7256484E-4
20231225 09:32:47,0.742610,0.879534,-1.795639,-0.208578,0.225534,0.195450,-22.842503,-9.671223,-1.566238,93.406136,-1.0528173,0.6445436,-1.0343708,0.08131874,0.25668815,0.056199983
20231225 09:32:47,0.791443,0.896384,-1.820971,-0.229885,0.199966,0.184796,-23.389423,-8.951199,-2.154572,89.34222,-1.0101738,0.58255446,-1.1522933,0.063306205,0.2402866,0.09402218
20231225 09:32:47,1.103608,0.782907,-1.828511,-0.326832,0.137110,0.158163,-23.242046,-10.353649,-2.195526,88.99519,-0.7530418,0.30069903,-1.369374,-0.023602754,0.20130232,0.20091327
20231225 09:32:47,1.368542,0.829947,-1.463474,-0.380100,0.090235,0.125137,-23.397617,-9.429993,-1.587509,89.081825,-0.23610485,0.34967887,-1.6109912,-0.09868201,0.16147797,0.2626176
20231225 09:32:47,1.395644,0.908664,-1.224494,-0.404603,0.047621,0.085719,-23.744137,-9.158527,-2.814423,87.535065,-0.0068553686,0.5082625,-1.6939429,-0.15896769,0.11068886,0.30363047
20231225 09:32:47,1.248327,0.981508,-0.992188,-0.407799,0.006072,0.039909,-23.186840,-8.649681,-2.440178,89.94623,0.07445598,0.7096621,-1.5873265,-0.20673154,0.05160814,0.326585
20231225 09:32:47,1.046854,1.101990,-0.884637,-0.393949,-0.036541,-0.006966,-23.399158,-8.662441,-2.709396,90.509315,0.0287534,0.90242374,-1.4890563,-0.2402346,-0.004318894,0.3409296
20231225 09:32:47,0.844198,1.242822,-0.948287,-0.373707,-0.062110,-0.054907,-23.559101,-9.238937,-2.807327,94.003365,-0.25078565,1.1633117,-1.3555516,-0.25724643,-0.05199046,0.34678632
20231225 09:32:47,0.474255,1.393902,-1.153586,-0.350270,-0.050391,-0.087933,-23.576260,-9.812752,-2.234154,97.89221,-0.68195426,1.375321,-1.0705789,-0.26742852,-0.04857526,0.3262101
20231225 09:32:47,-0.061341,1.593481,-1.187027,-0.332159,-0.018431,-0.095390,-23.698544,-9.067204,-2.284042,101.05281,-1.130557,1.6653011,-0.6804318,-0.26020783,-0.026555417,0.29785416
20231225 09:32:47,-0.571684,1.788842,-1.065879,-0.307656,0.029510,-0.070887,-23.435017,-9.042519,-2.684944,103.39319,-1.4036832,1.8503273,-0.36411506,-0.23409002,0.013113803,0.24783315
20231225 09:32:47,-0.797383,1.891078,-0.835471,-0.267173,0.071059,-0.028273,-23.707249,-7.452705,-3.327316,101.031525,-1.3785086,1.9029722,-0.32170177,-0.18553922,0.04951439,0.1817371
20231225 09:32:47,-0.807580,1.803485,-0.698031,-0.214971,0.111542,0.016471,-23.727360,-8.392822,-3.668060,100.60549,-1.2242184,1.7996873,-0.3160178,-0.12514228,0.09242934,0.10733787
20231225 09:32:47,-0.461944,1.559373,-0.578653,-0.159572,0.144568,0.054824,-23.549107,-7.818172,-3.301880,97.625984,-0.8104402,1.5672048,-0.5200691,-0.059460316,0.13632184,0.036074243
20231225 09:32:47,0.078493,1.247623,-0.625498,-0.112697,0.161613,0.066543,-23.751423,-6.410172,-4.065674,90.39918,-0.41668752,1.2310474,-0.8241994,-0.012768935,0.1651392,-0.010327622
20231225 09:32:47,0.563403,1.036434,-0.716956,-0.078606,0.173332,0.038844,-23.399654,-6.569138,-4.319717,86.95725,-0.14315096,0.9429023,-1.1002303,-0.0038216114,0.18015823,-0.041763633
20231225 09:32:47,0.849631,1.067418,-1.016235,-0.054103,0.188247,-0.019751,-23.628864,-5.446198,-5.065170,82.22313,-0.23970252,0.9139886,-1.3826882,-0.030073557,0.1887466,-0.06465935
20231225 09:32:47,0.703498,1.348208,-1.485530,-0.058364,0.254299,-0.076214,-23.637829,-5.541218,-5.059052,84.280914,-0.8374138,1.2689127,-1.3817719,-0.08514775,0.2523857,-0.08744172
20231225 09:32:47,0.215943,1.758123,-1.743641,-0.072214,0.400251,-0.107109,-23.654995,-6.115032,-4.485886,91.446884,-1.4925337,1.8622835,-1.0538057,-0.15185598,0.40309146,-0.13894542
20231225 09:32:47,-0.525683,2.437909,-1.420406,-0.067953,0.564315,-0.104978,-23.833256,-6.689682,-4.852051,98.77805,-1.9043014,2.5829775,-0.6851107,-0.22589612,0.56298786,-0.2222371
20231225 09:32:47,-1.401671,3.166041,-0.908408,-0.084998,0.662327,-0.051711,-23.604435,-7.620735,-4.387100,105.85434,-2.3095307,3.0126908,-0.33022976,-0.26003283,0.6289967,-0.26476404
20231225 09:32:47,-1.957299,3.772312,-0.351431,-0.149984,0.643151,0.053758,-24.018291,-6.609272,-4.859131,104.86486,-2.396709,3.2999732,-0.33320063,-0.21768665,0.5648525,-0.22605355
20231225 09:32:47,-1.896085,3.982333,0.108433,-0.232016,0.570707,0.191188,-23.965153,-7.556786,-4.126907,104.91474,-1.894293,3.5106971,-0.6986152,-0.110649526,0.47048217,-0.1586728
20231225 09:32:47,-1.233974,3.589014,0.865879,-0.255454,0.538746,0.284939,-23.896008,-7.354820,-4.809250,98.46985,-0.51597404,3.342811,-1.3672092,-0.002967298,0.47811443,-0.16522597
20231225 09:32:47,-0.272674,3.144432,1.797665,-0.238408,0.481218,0.300919,-24.293362,-7.287170,-5.085571,94.153885,1.06071,3.0985782,-2.0270169,0.04713823,0.46966922,-0.16757916
20231225 09:32:47,0.647809,2.523208,2.600949,-0.259715,0.357637,0.259371,-23.783459,-7.811607,-5.314209,93.11349,2.3188457,2.6001434,-2.419673,-0.0065883696,0.38117594,-0.10510437
20231225 09:32:47,1.674930,1.441873,3.552884,-0.268238,0.203162,0.165620,-24.108715,-7.175690,-5.358963,91.72289,3.5128453,1.5277607,-2.2285342,-0.10788132,0.24975924,-0.016741954
20231225 09:32:48,2.556301,0.487151,4.313988,-0.163834,0.141372,0.011145,-24.090778,-6.985653,-5.371185,92.59943,4.424081,0.48553094,-1.9030108,-0.121636905,0.16527033,-0.036924694
20231225 09:32:48,2.280493,-0.210685,4.608765,0.015145,0.191443,-0.156115,-24.197330,-6.800144,-5.786270,94.95113,4.1747394,-0.1899579,-1.2495878,-0.05087879,0.18112773,-0.1631373
20231225 09:32:48,1.068547,-0.715482,4.874937,0.104634,0.221273,-0.214709,-23.951336,-7.157379,-5.894470,99.137024,3.1304936,-0.7241902,-0.53662217,-0.0026709735,0.22262695,-0.21167712
20231225 09:32:48,-0.161445,-0.930529,5.213197,0.298527,0.246841,-0.260519,-23.819698,-7.999794,-5.570221,102.50418,2.1550164,-1.0648649,-0.12741673,0.14858198,0.26785895,-0.29659227
20231225 09:32:48,-0.961649,-1.262485,4.893233,0.682052,0.239384,-0.182749,-24.490330,-7.668076,-6.000458,103.41085,1.2912726,-1.7025474,0.49712706,0.5226439,0.34293914,-0.4649283
20231225 09:32:48,-1.376322,-1.568465,3.987088,0.883403,0.208489,-0.087933,-24.216290,-8.315926,-5.285599,106.162346,0.6643697,-2.1181438,0.9728997,0.7324109,0.36334765,-0.55406404
20231225 09:32:48,-1.397859,-1.775980,2.720363,0.943063,0.178659,-0.041058,-23.925091,-8.389954,-5.143890,106.410095,0.310071,-2.2685306,1.5102285,0.7771378,0.3472607,-0.6113725
20231225 09:32:48,-1.037580,-1.784066,1.370318,0.840789,0.006072,0.082523,-24.710072,-8.543407,-5.141678,104.592445,0.094246924,-2.0400183,1.7263863,0.73625714,0.11737157,-0.50165355
20231225 09:32:48,-0.324493,-1.776122,0.246098,0.556341,-0.164383,0.115549,-24.315281,-9.169250,-5.498810,101.08628,-0.01044105,-1.8021965,1.5199822,0.51221234,-0.13627608,-0.24329083
20231225 09:32:48,0.466945,-1.801735,-0.434664,0.185600,-0.322055,0.089980,-24.737736,-8.444695,-5.684296,95.21977,0.03747788,-1.8197712,1.0891906,0.19329071,-0.32434902,0.11667129
20231225 09:32:48,0.996074,-1.930697,-0.658313,-0.171291,-0.393433,0.021798,-24.464466,-8.708763,-5.530365,93.73189,0.21618694,-2.0382528,0.863156,-0.14196701,-0.3772129,0.40945187
20231225 09:32:48,1.177796,-2.038020,-0.396832,-0.463197,-0.326316,-0.074083,-24.339611,-8.896122,-4.847046,98.09271,0.6419115,-2.1170056,0.99779016,-0.43285555,-0.30192283,0.54102373
20231225 09:32:48,0.700160,-2.157338,0.945203,-0.641110,-0.235762,-0.182749,-24.852474,-8.737980,-5.532318,101.50824,1.1091328,-2.1532602,1.3104434,-0.6427494,-0.24769825,0.5540493
20231225 09:32:48,-0.220281,-1.976371,2.393600,-0.687985,-0.188886,-0.261585,-24.102970,-9.156490,-5.229599,106.21755,1.0333941,-2.1309721,1.1899409,-0.7179656,-0.25086772,0.54612017
20231225 09:32:48,-1.396815,-1.574160,3.431408,-0.616607,-0.146272,-0.247735,-24.810215,-8.821072,-6.196335,106.638954,0.41923797,-2.156647,1.0989418,-0.6445931,-0.24027722,0.46638802
20231225 09:32:48,-2.393427,-1.213112,4.199151,-0.436563,-0.098332,-0.124155,-24.525417,-8.431931,-5.415070,107.971214,-0.19642234,-2.2386162,0.93911123,-0.43250108,-0.18419755,0.31247517
20231225 09:32:48,-2.703787,-0.985070,4.539759,-0.170226,-0.077025,0.058020,-24.358303,-8.702381,-5.395752,108.40601,-0.33977032,-2.1118312,0.76490283,-0.118121214,-0.12083533,0.12519854
20231225 09:32:48,-2.202307,-1.129223,3.904236,0.106765,-0.052522,0.217822,-24.974377,-8.184322,-5.301727,105.92261,-0.018748522,-1.9130085,1.0561802,0.20013407,-0.053262264,-0.05871647
20231225 09:32:48,-1.262660,-1.356889,2.569371,0.321965,0.008203,0.305181,-24.482784,-8.706913,-5.798615,104.40222,0.35381377,-1.7176032,1.2338858,0.43116337,0.026217593,-0.23923379
20231225 09:32:48,-0.543214,-1.478388,1.297150,0.451937,0.079582,0.330749,-24.941471,-8.170544,-6.240097,99.993866,0.38220605,-1.5861833,1.3189336,0.5546535,0.096407965,-0.37142584
20231225 09:32:48,-0.005834,-1.573771,0.272952,0.500943,0.132849,0.311573,-24.922779,-8.364285,-5.691391,98.41168,0.20693323,-1.5798559,1.1944504,0.58248264,0.14147213,-0.4492576
20231225 09:32:48,0.293520,-1.646977,-0.468780,0.492421,0.155221,0.268959,-24.816608,-8.357903,-5.556763,96.74921,-0.067414984,-1.6384662,1.0873984,0.5468304,0.1582947,-0.462492
20231225 09:32:48,0.433975,-1.811549,-1.035164,0.448741,0.173332,0.223149,-24.747082,-8.347824,-5.958649,94.97761,-0.3767186,-1.8113362,1.1072594,0.48189485,0.17337003,-0.44429174
20231225 09:32:48,0.472999,-1.893013,-1.273500,0.394408,0.173332,0.178404,-24.852863,-8.546089,-5.812790,95.2938,-0.5190403,-1.8953493,1.1501185,0.41101137,0.1730061,-0.40647903
20231225 09:32:48,0.485892,-2.006077,-1.333356,0.340076,0.144568,0.132594,-24.950825,-8.073673,-6.514465,93.70233,-0.5375707,-2.0008755,1.21036,0.3398465,0.1452294,-0.34249547
20231225 09:32:48,0.389581,-2.090904,-1.296588,0.280416,0.095562,0.093176,-24.932507,-8.075523,-6.246216,94.570335,-0.56370056,-2.0776362,1.3627445,0.26985425,0.09720812,-0.26412258
20231225 09:32:48,0.380593,-2.056255,-1.197672,0.247390,0.058275,0.077196,-25.170948,-8.757122,-5.936142,95.76665,-0.5205597,-2.0494566,1.3389437,0.23423906,0.059080187,-0.21568036
20231225 09:32:48,0.469325,-2.032109,-1.268248,0.170685,-0.019496,0.036713,-25.171719,-8.373344,-6.497101,93.656654,-0.52712,-2.041183,1.2293761,0.15012649,-0.020255476,-0.10334204
20231225 09:32:48,0.493074,-2.042631,-1.260595,0.137660,-0.037607,0.018602,-24.649891,-8.436462,-5.817932,94.792015,-0.5075475,-2.0584671,1.2433658,0.11364209,-0.038773302,-0.06664818
20231225 09:32:48,0.480460,-1.958977,-1.116484,0.019406,-0.107920,-0.039992,-25.383266,-8.769878,-6.205368,95.31954,-0.3937667,-1.9508873,1.1847216,-0.01230459,-0.10761732,0.06858601
20231225 09:32:48,0.398695,-1.827924,-0.990243,-0.023208,-0.135619,-0.049580,-25.019970,-8.275642,-5.832108,95.32646,-0.3632839,-1.8150074,1.1328108,-0.049484104,-0.13538712,0.11826451
20231225 09:32:48,0.333872,-1.602721,-0.805001,-0.097782,-0.186756,-0.057038,-24.758617,-9.001026,-6.585983,95.64562,-0.28067964,-1.5860313,0.9992851,-0.1078294,-0.18739274,0.20682332
20231225 09:32:48,0.185004,-1.296764,-0.573232,-0.176618,-0.208062,-0.076214,-25.029316,-8.178772,-6.106476,95.98646,-0.21211216,-1.2705772,0.8638,-0.17461263,-0.21149126,0.27765268
20231225 09:32:48,0.001672,-1.084595,-0.222404,-0.201121,-0.205932,-0.092194,-25.231907,-8.480293,-5.820862,98.007744,-0.09517488,-1.0708452,0.81669587,-0.20067093,-0.21167476,0.29568258
20231225 09:32:48,-0.230356,-0.759478,0.183840,-0.186206,-0.213389,-0.110305,-25.020351,-8.083752,-6.112579,98.3114,0.005525239,-0.78658336,0.6928088,-0.196484,-0.21906666,0.29335687
20231225 09:32:48,-0.372173,-0.591684,0.353585,-0.134004,-0.215520,-0.122024,-25.277500,-8.571609,-6.351227,99.812004,0.009565279,-0.6558052,0.6377762,-0.16099614,-0.21604516,0.26313207
20231225 09:32:48,-0.630945,-0.319016,0.656873,-0.097782,-0.219781,-0.127351,-24.967602,-8.839382,-5.660812,101.973335,0.0077706575,-0.4594534,0.5560812,-0.13343328,-0.21475509,0.24399991
20231225 09:32:48,-0.840990,0.031788,0.804303,-0.007228,-0.228304,-0.132677,-25.656536,-8.505810,-6.359299,100.686424,-0.08030206,-0.1692431,0.4404565,-0.06748178,-0.21023,0.18725939
20231225 09:32:48,-0.952679,0.145802,0.807321,0.083327,-0.224043,-0.122024,-24.649891,-8.436462,-5.817932,101.62469,-0.17217207,-0.07442429,0.42618188,0.0057202503,-0.19540259,0.12167868
20231225 09:32:48,-0.687067,-0.017157,0.689319,0.188796,-0.217651,-0.103913,-24.977329,-8.550621,-6.215637,99.08736,-0.04074478,-0.13035369,0.3975339,0.086237065,-0.19177689,0.042415395
20231225 09:32:48,-0.500989,-0.169312,0.644511,0.211169,-0.217651,-0.103913,-25.355610,-8.868599,-5.662766,99.02913,0.05488643,-0.22349164,0.37998846,0.10018393,-0.20167264,0.034645706
20231225 09:32:48,0.084632,-0.762254,0.595803,0.247390,-0.242154,-0.125220,-25.170567,-8.949013,-5.655685,97.64508,0.45752597,-0.76681405,0.46031603,0.10961562,-0.23823829,0.035261646
20231225 09:32:48,0.255362,-0.846045,0.577116,0.256979,-0.256003,-0.141200,-26.186565,-8.921486,-6.471420,95.56654,0.56516695,-0.8451938,0.43504602,0.10415351,-0.25735912,0.038926654
20231225 09:32:48,0.498677,-0.959352,0.423803,0.286808,-0.274114,-0.182749,-25.073368,-9.037647,-5.514954,96.59327,0.6514335,-0.9596794,0.33237052,0.088095754,-0.27546266,0.023521233
20231225 09:32:48,0.375699,-0.930987,0.060573,0.331553,-0.251742,-0.223232,-25.329098,-8.391651,-5.961578,95.56332,0.33676228,-0.92050165,0.384815,0.08418745,-0.23456426,-0.04224075
20231225 09:32:48,-0.165589,-0.670609,-0.545391,0.399735,-0.177167,-0.263715,-25.549221,-9.075092,-5.383270,99.85385,-0.44942254,-0.6278355,0.62793547,0.090123445,-0.116881326,-0.14975703
20231225 09:32:48,-0.649680,-0.441918,-0.991024,0.414650,-0.156926,-0.269042,-25.258411,-8.957241,-5.522034,102.52472,-1.085972,-0.35448527,0.91216177,0.08597726,-0.05109061,-0.18665266
20231225 09:32:48,-0.977433,-0.276463,-1.348590,0.391212,-0.137749,-0.253062,-25.834026,-9.464237,-6.164536,103.504875,-1.5710847,-0.14379731,1.1306995,0.07310508,-0.018811755,-0.19251251
20231225 09:32:48,-1.017078,-0.276714,-1.474118,0.357121,-0.155860,-0.245604,-25.215008,-9.615993,-5.344635,104.821434,-1.6932228,-0.12122932,1.2004567,0.05621706,-0.04523139,-0.15774395
20231225 09:32:48,-0.878909,-0.196846,-1.603771,0.245260,-0.220847,-0.238147,-25.093487,-9.977764,-5.855698,102.88172,-1.7433286,-0.01441583,1.0338683,-0.0021631569,-0.1382577,-0.0400079
20231225 09:32:48,-0.798995,-0.132666,-1.526414,0.112091,-0.297552,-0.222167,-25.241901,-9.901054,-5.326294,101.56368,-1.6633925,2.0164251E-4,0.9010227,-0.06628112,-0.24988501,0.11129537
20231225 09:32:48,-0.550874,-0.143869,-1.343586,-0.020012,-0.359342,-0.204056,-25.577923,-10.302120,-5.437424,100.41238,-1.3731897,-0.046461076,0.67070365,-0.13382314,-0.33628395,0.25612783
20231225 09:32:48,-0.172287,-0.254285,-0.862309,-0.123351,-0.413675,-0.192337,-25.912136,-9.761223,-5.476059,96.0338,-0.7585046,-0.24142179,0.35558465,-0.21856922,-0.41203356,0.3765672
20231225 09:32:48,0.350254,-0.294631,-0.385742,-0.181945,-0.414740,-0.220036,-25.199268,-10.176033,-5.709839,95.48118,-0.051157877,-0.30138436,-0.035741515,-0.28913242,-0.41522044,0.42703474
20231225 09:32:48,0.432586,-0.316554,-0.275390,-0.179814,-0.391302,-0.236016,-25.365604,-10.289364,-5.168213,97.34197,0.101118505,-0.32184148,-0.06740165,-0.29758477,-0.39175043,0.4202842
20231225 09:32:48,0.412299,-0.401533,0.003203,-0.142527,-0.339100,-0.278630,-25.860157,-10.133072,-5.585251,97.5261,0.29684222,-0.39788085,-0.011401112,-0.2949505,-0.33785996,0.3640038
20231225 09:32:48,0.252727,-0.242943,0.320488,-0.061560,-0.302878,-0.330832,-25.418743,-9.341846,-5.900436,96.89401,0.41261882,-0.24483903,-0.037840992,-0.26983064,-0.29468948,0.28270188
20231225 09:32:48,-0.400462,-0.065238,0.163935,0.046040,-0.275179,-0.374511,-26.107952,-10.717800,-5.549545,101.67258,-0.1538594,-0.1081164,0.31064746,-0.2154404,-0.24041194,0.20535736
20231225 09:32:48,-0.605360,-0.012478,0.063687,0.130202,-0.263461,-0.387296,-25.198109,-10.751701,-4.868423,105.27041,-0.35343805,-0.09449801,0.4495,-0.16222028,-0.19023561,0.13913783
20231225 09:32:48,-0.844502,0.220514,-0.120308,0.229280,-0.268787,-0.354270,-25.595470,-10.684048,-5.144745,105.15741,-0.6729127,0.12291056,0.52330106,-0.07281035,-0.17827646,0.054949053
20231225 09:32:48,-0.903136,0.111339,-0.440115,0.246325,-0.275179,-0.339355,-25.780506,-10.603638,-5.151825,104.56559,-0.9285232,0.06114497,0.6927466,-0.054636896,-0.1878461,0.038078927
20231225 09:32:48,-0.691931,0.028876,-0.718314,0.258044,-0.298617,-0.319113,-25.180569,-10.369774,-5.161133,102.504326,-0.9887297,0.050474003,0.621499,-0.04802403,-0.22698201,0.021580454
20231225 09:32:48,-0.450278,0.094181,-1.021491,0.261240,-0.311401,-0.319113,-25.446293,-11.144539,-5.113190,102.05179,-1.0914122,0.17382939,0.43415657,-0.062208652,-0.24811475,0.010465361
20231225 09:32:48,-0.317251,-0.079368,-1.424611,0.228214,-0.323120,-0.330832,-25.667187,-11.444206,-5.095840,101.27997,-1.3303528,0.052081577,0.46428287,-0.1028239,-0.26695418,0.03164513
20231225 09:32:48,-0.239287,-0.063102,-1.693629,0.161097,-0.328447,-0.341486,-25.428364,-10.954498,-5.125427,99.8719,-1.530156,0.10507763,0.39305377,-0.15969078,-0.27695328,0.07392489
20231225 09:32:48,-0.215750,-0.042137,-1.819031,0.080131,-0.322055,-0.353205,-25.446293,-11.144539,-5.113190,100.839874,-1.6170725,0.16002758,0.39106953,-0.2091373,-0.26986504,0.1435246
20231225 09:32:48,-0.403631,-0.035040,-1.761021,0.015145,-0.299682,-0.359597,-25.390965,-11.341976,-4.027985,105.13082,-1.652416,0.18948042,0.61156535,-0.23833132,-0.23888785,0.20346138
20231225 09:32:48,-0.559969,-0.141146,-1.532952,-0.034927,-0.273049,-0.376642,-26.018948,-11.285236,-4.841766,105.80059,-1.5088913,0.054235294,0.77995086,-0.2679574,-0.20612462,0.24722418
20231225 09:32:48,-0.741976,-0.088340,-1.220450,-0.076475,-0.274114,-0.391557,-25.508656,-12.001560,-4.789932,107.700905,-1.3775914,0.038832396,0.86669916,-0.2988141,-0.20365319,0.2893628
20231225 09:32:48,-1.099951,0.301529,-0.992869,-0.104174,-0.278375,-0.388361,-25.349094,-11.233177,-4.972458,110.27634,-1.4917898,0.3247854,0.9117293,-0.2857017,-0.18597233,0.32281047
20231225 09:32:48,-1.446281,0.546391,-0.853966,-0.130808,-0.297552,-0.359597,-25.782696,-11.353718,-5.504807,110.351135,-1.6614099,0.44874376,1.0226424,-0.26833487,-0.20964745,0.34828538
20231225 09:32:48,-1.726322,0.883281,-0.779758,-0.163834,-0.310336,-0.304199,-24.970432,-11.107086,-5.244873,111.98086,-1.8745158,0.6700707,1.0694883,-0.23227921,-0.23414497,0.37131888
20231225 09:32:48,-1.907735,1.208973,-0.738947,-0.178749,-0.292225,-0.229624,-25.940456,-11.180134,-5.249756,112.223785,-2.054058,0.9134564,1.0285207,-0.18893474,-0.24145299,0.35681257
20231225 09:32:48,-1.695954,1.218702,-0.490034,-0.173422,-0.241088,-0.138004,-25.648869,-11.446056,-4.827591,110.49301,-1.7035506,0.95725554,0.7538447,-0.15009904,-0.22791862,0.30454454
20231225 09:32:48,-1.560398,1.218425,-0.383869,-0.156376,-0.222977,-0.123089,-25.491116,-11.619637,-5.082626,108.93689,-1.5180188,0.9876363,0.5965984,-0.14066021,-0.21400924,0.27767777
20231225 09:32:48,-1.372906,1.225173,-0.219600,-0.081802,-0.170775,-0.108174,-25.545284,-11.997860,-5.326416,108.51206,-1.2724557,1.0015414,0.39842337,-0.09713787,-0.15568429,0.18598053
20231225 09:32:48,-1.238085,1.013530,-0.192820,0.016210,-0.116443,-0.110305,-25.563213,-12.187901,-5.314194,108.35307,-1.1181886,0.822668,0.40828106,-0.05023954,-0.08809258,0.07770208
20231225 09:32:48,-1.205438,1.035445,-0.335939,0.091850,-0.101528,-0.115632,-25.960186,-12.312145,-5.310028,108.37679,-1.2012284,0.87837535,0.4397235,-0.012700602,-0.05880203,0.0060432088
20231225 09:32:48,-1.215466,1.291916,-0.703433,0.129137,-0.127096,-0.101782,-25.174435,-12.542458,-4.751297,109.64655,-1.5404931,1.2125945,0.45904082,0.020891383,-0.07796098,-0.020921838
20231225 09:32:48,-1.130640,1.395318,-1.297688,0.121679,-0.156926,-0.077279,-25.669376,-12.194286,-5.448807,107.282074,-1.9929097,1.4918993,0.48985028,0.03756371,-0.11291727,-0.016564786
