Timestamp,linacce_x,linacce_y,linacce_z,gyro_x,gyro_y,gyro_z,X-magnetometer,Y-magnetometer,Z-magnetometer,Yaw, worldXAccel,worldYAccel,worldZAccel,worldXgyro,worldYgyro,worldZgyro
11:12:14,-0.520998,0.337004,0.360003,-0.116111,-0.066388,-0.049344,-9.385345,4.83152,-25.873337,28.846119,0.024969786,0.2520065,0.5313672,-0.08941512,-0.06733083,0.09705867
11:12:14,-0.5180304649999999,0.33461403,0.36209688500000003,-0.115285355,-0.067559885,-0.04893384,-9.387146719999999,4.830880295,-25.87063375,28.81147387,0.02837570077,0.25004371325,0.5303816587000001,-0.08870312045,-0.06849798785,0.09672754475
11:12:14,-0.5150629299999999,0.33222406000000004,0.36419077,-0.11445971,-0.06873177,-0.04852368,-9.38894844,4.83024059,-25.8679305,28.776828740000003,0.03178161554,0.24808092650000002,0.5293961174,-0.0879911209,-0.0696651457,0.0963964195
11:12:14,-0.512095395,0.32983409,0.366284655,-0.113634065,-0.06990365500000001,-0.04811352,-9.39075016,4.8296008850000005,-25.86522725,28.74218361,0.03518753031,0.24611813975000002,0.5284105761000001,-0.08727912135,-0.07083230354999999,0.09606529425
11:12:14,-0.50912786,0.32744412,0.36837854000000003,-0.11280842,-0.07107554,-0.04770336,-9.39255188,4.82896118,-25.862524,28.70753848,0.03859344508,0.24415535300000002,0.5274250348,-0.08656712180000001,-0.07199946139999999,0.095734169
11:12:14,-0.506160325,0.32505415000000004,0.370472425,-0.111982775,-0.072247425,-0.0472932,-9.394353599999999,4.828321475,-25.85982075,28.672893350000002,0.04199935985,0.24219256625000002,0.5264394935000001,-0.08585512225,-0.07316661925,0.09540304375
11:12:14,-0.50319279,0.32266418,0.37256631,-0.11115713,-0.07341931,-0.04688304,-9.396155319999998,4.82768177,-25.8571175,28.63824822,0.04540527462,0.24022977950000002,0.5254539522,-0.0851431227,-0.0743337771,0.0950719185
11:12:14,-0.5002252549999999,0.32027421,0.37466019500000003,-0.110331485,-0.074591195,-0.04647288,-9.39795704,4.8270420650000005,-25.854414249999998,28.60360309,0.048811189389999995,0.23826699275000002,0.5244684109000001,-0.08443112315,-0.07550093494999999,0.09474079325
11:12:14,-0.49725771999999996,0.31788424000000004,0.37675408,-0.10950584000000001,-0.07576308000000001,-0.04606272,-9.39975876,4.82640236,-25.851710999999998,28.568957960000002,0.05221710416,0.23630420600000002,0.5234828696,-0.0837191236,-0.07666809279999999,0.094409668
11:12:14,-0.49429018499999994,0.31549427,0.378847965,-0.10868019500000001,-0.07693496500000001,-0.04565256,-9.401560479999999,4.825762655,-25.84900775,28.53431283,0.055623018930000004,0.23434141925000002,0.5224973283000001,-0.08300712405,-0.07783525064999999,0.09407854275
11:12:14,-0.49132264999999997,0.3131043,0.38094185,-0.10785455000000001,-0.07810685,-0.0452424,-9.4033622,4.82512295,-25.8463045,28.499667700000003,0.0590289337,0.23237863250000002,0.521511787,-0.0822951245,-0.0790024085,0.0937474175
11:12:14,-0.48835511499999995,0.31071433000000004,0.38303573500000004,-0.10702890500000001,-0.079278735,-0.04483224,-9.40516392,4.824483245000001,-25.84360125,28.465022570000002,0.06243484847,0.23041584575000001,0.5205262457000001,-0.08158312495,-0.08016956635,0.09341629225
11:12:14,-0.48538758,0.30832436,0.38512962,-0.10620326000000001,-0.08045062,-0.04442208,-9.40696564,4.82384354,-25.840898,28.43037744,0.06584076323999999,0.228453059,0.5195407044,-0.08087112540000001,-0.08133672419999999,0.093085167
11:12:14,-0.48242004499999996,0.30593439,0.387223505,-0.10537761500000001,-0.08162250500000001,-0.044011919999999996,-9.408767359999999,4.823203835,-25.83819475,28.395732310000003,0.06924667801,0.22649027225,0.5185551631,-0.08015912585,-0.08250388204999999,0.09275404175
11:12:14,-0.47945250999999994,0.30354442000000004,0.38931739000000004,-0.10455197000000001,-0.08279439,-0.04360176,-9.410569079999998,4.82256413,-25.8354915,28.361087180000002,0.07265259278,0.2245274855,0.5175696218,-0.0794471263,-0.0836710399,0.0924229165
11:12:14,-0.476484975,0.30115445,0.391411275,-0.10372632500000001,-0.083966275,-0.0431916,-9.4123708,4.821924425000001,-25.83278825,28.32644205,0.07605850755,0.22256469875,0.5165840805,-0.07873512675,-0.08483819775,0.09209179125
11:12:14,-0.47351743999999996,0.29876448,0.39350516,-0.10290068000000001,-0.08513816,-0.04278144,-9.41417252,4.82128472,-25.830085,28.291796920000003,0.07946442232,0.220601912,0.5155985392,-0.0780231272,-0.0860053556,0.091760666
11:12:14,-0.47054990499999994,0.29637451000000004,0.39559904500000004,-0.10207503500000001,-0.086310045,-0.04237128,-9.415974239999999,4.820645015,-25.82738175,28.25715179,0.08287033709,0.21863912525,0.5146129979,-0.07731112765,-0.08717251344999999,0.09142954075
11:12:14,-0.46758236999999997,0.29398454,0.39769293,-0.10124939000000001,-0.08748193000000001,-0.04196112,-9.41777596,4.82000531,-25.8246785,28.22250666,0.08627625186,0.2166763385,0.5136274566000001,-0.0765991281,-0.08833967129999999,0.0910984155
11:12:14,-0.46461483499999995,0.29159457,0.399786815,-0.10042374500000001,-0.088653815,-0.04155096,-9.41957768,4.819365605000001,-25.821975249999998,28.187861530000003,0.08968216663,0.21471355175,0.5126419153,-0.07588712855,-0.08950682915,0.09076729025
11:12:14,-0.4616473,0.28920460000000003,0.40188070000000004,-0.09959810000000001,-0.08982570000000001,-0.0411408,-9.4213794,4.8187259000000005,-25.819271999999998,28.1532164,0.0930880814,0.212750765,0.5116563740000001,-0.07517512900000001,-0.09067398699999998,0.090436165
11:12:14,-0.45867976499999996,0.28681463,0.40397458500000005,-0.09877245500000001,-0.090997585,-0.04073064,-9.423181119999999,4.818086195,-25.81656875,28.11857127,0.09649399616999998,0.21078797825,0.5106708327,-0.07446312945,-0.09184114485,0.09010503975
11:12:14,-0.45571222999999994,0.28442466,0.40606847,-0.09794681000000001,-0.09216947,-0.04032048,-9.424982839999998,4.81744649,-25.8138655,28.083926140000003,0.09989991094,0.2088251915,0.5096852914000001,-0.0737511299,-0.09300830269999999,0.0897739145
11:12:14,-0.452744695,0.28203469000000003,0.40816235500000003,-0.09712116500000001,-0.093341355,-0.03991032,-9.42678456,4.816806785000001,-25.81116225,28.04928101,0.10330582571,0.20686240475,0.5086997501,-0.07303913035000001,-0.09417546054999999,0.08944278925
11:12:14,-0.44977715999999995,0.27964472,0.41025624000000005,-0.09629552000000001,-0.09451324,-0.03950016,-9.42858628,4.8161670800000005,-25.808459,28.01463588,0.10671174047999998,0.204899618,0.5077142088000001,-0.0723271308,-0.0953426184,0.08911166400000001
11:12:14,-0.446809625,0.27725475000000005,0.412350125,-0.09546987500000001,-0.09568512500000001,-0.03909,-9.430387999999999,4.815527375,-25.80575575,27.979990750000002,0.11011765525,0.20293683125,0.5067286675,-0.07161513125,-0.09650977624999998,0.08878053875
11:12:14,-0.44384208999999997,0.27486478000000003,0.41444401000000003,-0.09464423000000001,-0.09685701000000001,-0.03867984,-9.43218972,4.81488767,-25.8030525,27.94534562,0.11352357001999999,0.2009740445,0.5057431262000001,-0.07090313170000001,-0.09767693409999999,0.0884494135
11:12:14,-0.44087455499999995,0.27247481,0.41653789500000005,-0.09381858500000001,-0.098028895,-0.03826968,-9.43399144,4.814247965,-25.80034925,27.91070049,0.11692948479000001,0.19901125775,0.5047575849,-0.07019113215,-0.09884409194999999,0.08811828825
11:12:14,-0.43790702,0.27008484,0.41863178,-0.09299294000000001,-0.09920078,-0.03785952,-9.43579316,4.8136082600000005,-25.797646,27.876055360000002,0.12033539956,0.197048471,0.5037720436,-0.06947913260000001,-0.1000112498,0.087787163
11:12:14,-0.43493948499999996,0.26769487000000003,0.420725665,-0.09216729500000001,-0.100372665,-0.03744936,-9.437594879999999,4.812968555,-25.79494275,27.84141023,0.12374131432999999,0.19508568425,0.5027865023,-0.06876713305,-0.10117840765,0.08745603774999999
11:12:14,-0.43197195,0.2653049,0.42281955000000004,-0.09134165000000001,-0.10154455000000001,-0.0370392,-9.439396599999998,4.81232885,-25.7922395,27.8067651,0.1271472291,0.1931228975,0.501800961,-0.0680551335,-0.10234556549999999,0.0871249125
11:12:14,-0.429004415,0.26291493000000005,0.424913435,-0.09051600500000001,-0.10271643500000001,-0.03662904,-9.44119832,4.811689145,-25.78953625,27.772119970000002,0.13055314387,0.19116011075,0.5008154197,-0.06734313395,-0.10351272334999999,0.08679378725
11:12:14,-0.42603687999999995,0.26052496,0.42700732,-0.08969036000000001,-0.10388832,-0.03621888,-9.44300004,4.811049440000001,-25.786832999999998,27.73747484,0.13395905864,0.189197324,0.49982987840000004,-0.0666311344,-0.10467988119999999,0.086462662
11:12:14,-0.423069345,0.25813499,0.42910120500000004,-0.08886471500000001,-0.105060205,-0.03580872,-9.444801759999999,4.810409735,-25.784129749999998,27.702829710000003,0.13736497341,0.18723453725,0.49884433710000003,-0.06591913485,-0.10584703905,0.08613153675
11:12:14,-0.42010180999999996,0.25574502000000005,0.43119509,-0.08803907000000001,-0.10623209,-0.03539856,-9.44660348,4.80977003,-25.7814265,27.668184580000002,0.14077088818,0.1852717505,0.49785879580000003,-0.0652071353,-0.1070141969,0.0858004115
11:12:14,-0.417134275,0.25335505,0.433288975,-0.08721342500000001,-0.10740397500000001,-0.0349884,-9.4484052,4.809130325,-25.77872325,27.63353945,0.14417680295,0.18330896375,0.49687325450000003,-0.06449513575,-0.10818135474999999,0.08546928625
11:12:14,-0.41416674,0.25096508000000006,0.43538286000000004,-0.08638778000000001,-0.10857586000000001,-0.034578239999999996,-9.45020692,4.808490620000001,-25.77602,27.598894320000003,0.14758271772,0.181346177,0.4958877132,-0.0637831362,-0.10934851259999999,0.085138161
11:12:14,-0.41119920499999996,0.24857511000000004,0.437476745,-0.08556213500000001,-0.10974774500000001,-0.03416808,-9.452008639999999,4.807850915,-25.77331675,27.56424919,0.15098863249,0.17938339025,0.4949021719,-0.06307113665,-0.11051567044999999,0.08480703575
11:12:14,-0.40823166999999994,0.24618514000000002,0.43957063,-0.08473649,-0.11091963,-0.03375792,-9.453810359999999,4.80721121,-25.7706135,27.52960406,0.15439454726,0.1774206035,0.4939166306,-0.0623591371,-0.11168282829999998,0.0844759105
11:12:14,-0.40526413499999997,0.24379517000000003,0.44166451500000004,-0.08391084500000001,-0.112091515,-0.033347760000000004,-9.45561208,4.806571505,-25.76791025,27.494958930000003,0.15780046202999998,0.17545781675,0.4929310893,-0.06164713755000001,-0.11284998615,0.08414478524999999
11:12:14,-0.40229659999999995,0.24140520000000004,0.4437584,-0.0830852,-0.11326340000000001,-0.0329376,-9.4574138,4.805931800000001,-25.765207,27.4603138,0.1612063768,0.17349503,0.491945548,-0.060935138,-0.11401714399999999,0.08381366
11:12:14,-0.399329065,0.23901523000000002,0.445852285,-0.08225955500000001,-0.114435285,-0.032527440000000005,-9.459215519999999,4.805292095,-25.76250375,27.42566867,0.16461229156999999,0.17153224325,0.4909600067,-0.060223138450000005,-0.11518430184999999,0.08348253475
11:12:14,-0.39636152999999996,0.23662526000000003,0.44794617000000003,-0.08143391,-0.11560717000000001,-0.03211728,-9.46101724,4.80465239,-25.7598005,27.391023540000003,0.16801820633999998,0.1695694565,0.4899744654,-0.0595111389,-0.11635145969999999,0.0831514095
11:12:14,-0.39339399499999994,0.23423529000000004,0.450040055,-0.08060826500000001,-0.116779055,-0.031707120000000005,-9.46281896,4.804012685,-25.75709725,27.35637841,0.17142412111,0.16760666975,0.48898892410000006,-0.05879913935,-0.11751861754999998,0.08282028425
11:12:14,-0.39042646,0.23184532000000002,0.45213394,-0.07978262,-0.11795094,-0.03129696,-9.46462068,4.803372980000001,-25.754393999999998,27.32173328,0.17483003587999998,0.165643883,0.48800338280000005,-0.05808713980000001,-0.1186857754,0.082489159
11:12:14,-0.38745892499999995,0.22945535000000003,0.45422782500000003,-0.07895697500000001,-0.11912282500000002,-0.0308868,-9.466422399999999,4.8027332750000005,-25.751690749999998,27.287088150000002,0.17823595064999997,0.16368109625,0.48701784150000005,-0.057375140250000005,-0.11985293324999999,0.08215803375
11:12:14,-0.38449139,0.22706538000000004,0.45632171,-0.07813133,-0.12029471,-0.03047664,-9.468224119999999,4.80209357,-25.7489875,27.25244302,0.18164186542,0.1617183095,0.48603230020000004,-0.0566631407,-0.12102009109999999,0.0818269085
11:12:14,-0.38152385499999997,0.22467541000000002,0.458415595,-0.07730568500000001,-0.12146659500000001,-0.03006648,-9.47002584,4.801453865,-25.74628425,27.21779789,0.18504778018999998,0.15975552275,0.48504675890000004,-0.05595114115,-0.12218724895,0.08149578325
11:12:14,-0.37855631999999995,0.22228544000000003,0.46050948,-0.07648004,-0.12263848000000001,-0.02965632,-9.47182756,4.800814160000001,-25.743581,27.183152760000002,0.18845369495999997,0.15779273600000002,0.48406121760000004,-0.05523914160000001,-0.12335440679999998,0.081164658
11:12:14,-0.375588785,0.21989547000000004,0.46260336500000004,-0.07565439500000001,-0.123810365,-0.02924616,-9.473629279999999,4.8001744550000005,-25.74087775,27.14850763,0.19185960973,0.15582994925000002,0.48307567630000003,-0.054527142050000005,-0.12452156465,0.08083353274999999
11:12:14,-0.37262124999999996,0.21750550000000002,0.46469725000000006,-0.07482875,-0.12498225000000002,-0.028836,-9.475431,4.79953475,-25.7381745,27.113862500000003,0.19526552449999998,0.15386716250000002,0.48209013500000003,-0.0538151425,-0.1256887225,0.0805024075
11:12:14,-0.369653715,0.21511553000000003,0.466791135,-0.07400310500000001,-0.126154135,-0.02842584,-9.47723272,4.798895045,-25.73547125,27.079217370000002,0.19867143927,0.15190437575000001,0.4811045937,-0.05310314295000001,-0.12685588035,0.08017128225
11:12:14,-0.36668618,0.21272556000000004,0.46888502000000004,-0.07317746,-0.12732602,-0.02801568,-9.47903444,4.79825534,-25.732768,27.04457224,0.20207735404,0.14994158900000001,0.4801190524,-0.052391143400000006,-0.1280230382,0.079840157
11:12:14,-0.36371864499999995,0.21033559000000002,0.47097890500000006,-0.07235181500000001,-0.12849790500000002,-0.02760552,-9.480836159999999,4.7976156350000005,-25.73006475,27.00992711,0.20548326880999998,0.14797880225,0.4791335111,-0.051679143850000005,-0.12919019604999998,0.07950903175
11:12:14,-0.36075110999999993,0.20794562000000003,0.47307279,-0.07152617,-0.12966979,-0.027195360000000002,-9.482637879999999,4.79697593,-25.7273615,26.975281980000002,0.20888918358,0.1460160155,0.4781479698,-0.0509671443,-0.13035735389999997,0.0791779065
11:12:14,-0.35778357499999996,0.20555565000000003,0.47516667500000004,-0.07070052500000001,-0.130841675,-0.026785200000000002,-9.4844396,4.796336225,-25.72465825,26.94063685,0.21229509835,0.14405322875,0.4771624285,-0.05025514475000001,-0.13152451175,0.07884678125
11:12:14,-0.35481604,0.20316568000000002,0.47726056000000006,-0.06987488,-0.13201356,-0.026375040000000002,-9.48624132,4.79569652,-25.721955,26.905991720000003,0.21570101311999998,0.142090442,0.4761768872,-0.049543145200000006,-0.1326916696,0.078515656
11:12:14,-0.351848505,0.20077571000000002,0.479354445,-0.06904923500000001,-0.133185445,-0.025964880000000003,-9.488043039999999,4.795056815000001,-25.719251749999998,26.87134659,0.21910692789,0.14012765525,0.4751913459,-0.048831145650000005,-0.13385882745,0.07818453075
11:12:14,-0.34888096999999996,0.19838574000000003,0.48144833000000004,-0.06822359,-0.13435733,-0.02555472,-9.48984476,4.79441711,-25.7165485,26.83670146,0.22251284266,0.1381648685,0.4742058046,-0.0481191461,-0.13502598529999998,0.0778534055
11:12:14,-0.34591343499999994,0.19599577000000004,0.48354221500000005,-0.06739794500000001,-0.135529215,-0.02514456,-9.49164648,4.793777405,-25.71384525,26.802056330000003,0.22591875742999998,0.13620208175,0.4732202633,-0.04740714655000001,-0.13619314314999997,0.07752228024999999
11:12:14,-0.34294589999999997,0.19360580000000002,0.4856361,-0.0665723,-0.13670110000000002,-0.0247344,-9.4934482,4.7931377,-25.711142,26.7674112,0.2293246722,0.134239295,0.47223472200000005,-0.046695147000000006,-0.137360301,0.077191155
11:12:14,-0.339978365,0.19121583000000003,0.48772998500000003,-0.06574665500000001,-0.137872985,-0.02432424,-9.49524992,4.792497995000001,-25.70843875,26.73276607,0.23273058697,0.13227650825,0.47124918070000005,-0.045983147450000005,-0.13852745885,0.07686002975
11:12:14,-0.33701083,0.18882586000000004,0.48982387000000005,-0.06492101,-0.13904487000000001,-0.02391408,-9.497051639999999,4.79185829,-25.7057355,26.698120940000003,0.23613650173999998,0.1303137215,0.47026363940000004,-0.0452711479,-0.1396946167,0.0765289045
11:12:14,-0.33404329499999996,0.18643589000000002,0.491917755,-0.06409536500000002,-0.14021675500000003,-0.02350392,-9.49885336,4.791218585,-25.70303225,26.66347581,0.23954241651,0.12835093475,0.46927809810000004,-0.04455914835000001,-0.14086177454999999,0.07619777925
11:12:14,-0.33107575999999994,0.18404592000000003,0.49401164000000003,-0.06326972,-0.14138864,-0.02309376,-9.50065508,4.79057888,-25.700329,26.62883068,0.24294833127999999,0.126388148,0.46829255680000004,-0.043847148800000006,-0.14202893239999997,0.075866654
11:12:14,-0.328108225,0.18165595000000004,0.49610552500000005,-0.06244407500000001,-0.142560525,-0.0226836,-9.5024568,4.789939175000001,-25.69762575,26.594185550000002,0.24635424604999998,0.12442536125,0.46730701550000003,-0.043135149250000004,-0.14319609025,0.07553552875
11:12:14,-0.32514069,0.17926598000000002,0.49819941,-0.06161843000000001,-0.14373241,-0.022273440000000002,-9.50425852,4.7892994700000004,-25.6949225,26.55954042,0.24976016082,0.1224625745,0.46632147420000003,-0.04242314970000001,-0.1443632481,0.0752044035
11:12:14,-0.322173155,0.17687601000000003,0.5002932950000001,-0.06079278500000001,-0.14490429500000002,-0.021863280000000002,-9.50606024,4.788659765,-25.69221925,26.52489529,0.25316607559,0.12049978775,0.4653359329,-0.04171115015000001,-0.14553040595,0.07487327825
11:12:14,-0.31920561999999997,0.17448604000000004,0.50238718,-0.05996714000000001,-0.14607618,-0.021453120000000003,-9.50786196,4.78802006,-25.689516,26.490250160000002,0.25657199036,0.118537001,0.4643503916,-0.040999150600000006,-0.14669756379999999,0.074542153
11:12:14,-0.31623808499999995,0.17209607000000002,0.504481065,-0.05914149500000001,-0.147248065,-0.021042960000000003,-9.50966368,4.787380355000001,-25.686812749999998,26.45560503,0.25997790513,0.11657421425,0.4633648503,-0.040287151050000004,-0.14786472164999998,0.07421102774999999
11:12:14,-0.31327055,0.16970610000000003,0.5065749500000001,-0.05831585000000001,-0.14841995000000002,-0.020632800000000003,-9.511465399999999,4.7867406500000005,-25.684109499999998,26.4209599,0.2633838199,0.1146114275,0.462379309,-0.03957515150000001,-0.1490318795,0.0738799025
11:12:14,-0.31030301499999996,0.16731613000000004,0.508668835,-0.05749020500000001,-0.149591835,-0.02022264,-9.51326712,4.786100945,-25.68140625,26.386314770000002,0.26678973467,0.11264864075,0.4613937677,-0.03886315195000001,-0.15019903734999998,0.07354877725
11:12:14,-0.30733548,0.16492616000000004,0.51076272,-0.05666456000000001,-0.15076372000000002,-0.01981248,-9.51506884,4.78546124,-25.678703,26.35166964,0.27019564944,0.110685854,0.4604082264,-0.038151152400000006,-0.1513661952,0.073217652
11:12:14,-0.304367945,0.16253619000000002,0.5128566050000001,-0.05583891500000001,-0.15193560500000003,-0.01940232,-9.51687056,4.784821535000001,-25.67599975,26.317024510000003,0.27360156421,0.10872306725,0.4594226851,-0.037439152850000004,-0.15253335305,0.07288652675
11:12:14,-0.30140040999999995,0.16014622000000003,0.51495049,-0.05501327000000001,-0.15310749,-0.01899216,-9.51867228,4.7841818300000005,-25.6732965,26.282379380000002,0.27700747898,0.1067602805,0.4584371438,-0.03672715330000001,-0.15370051089999998,0.0725554015
11:12:14,-0.29843287499999993,0.15775625000000004,0.517044375,-0.05418762500000001,-0.154279375,-0.018582,-9.520474,4.783542125,-25.67059325,26.24773425,0.28041339374999996,0.10479749375,0.45745160250000005,-0.03601515375000001,-0.15486766875,0.07222427625
11:12:14,-0.29546533999999997,0.15536628000000002,0.5191382600000001,-0.05336198,-0.15545126,-0.01817184,-9.52227572,4.78290242,-25.66789,26.213089120000003,0.28381930852,0.102834707,0.4564660612,-0.035303154200000006,-0.15603482659999998,0.071893151
11:12:14,-0.292497805,0.15297631000000003,0.521232145,-0.052536335,-0.15662314500000002,-0.017761680000000002,-9.52407744,4.782262715,-25.66518675,26.17844399,0.28722522329,0.10087192025,0.45548051990000005,-0.034591154650000004,-0.15720198445,0.07156202575
11:12:14,-0.28953027,0.15058634000000004,0.52332603,-0.051710690000000004,-0.15779503,-0.017351520000000002,-9.525879159999999,4.781623010000001,-25.6624835,26.14379886,0.29063113805999996,0.0989091335,0.4544949786,-0.03387915510000001,-0.1583691423,0.0712309005
11:12:14,-0.28656273499999996,0.14819637000000002,0.5254199150000001,-0.050885045000000004,-0.15896691500000001,-0.016941360000000003,-9.52768088,4.780983305,-25.65978025,26.109153730000003,0.29403705283,0.09694634675,0.45350943730000004,-0.03316715555000001,-0.15953630014999998,0.07089977524999999
11:12:14,-0.28359519999999994,0.14580640000000003,0.5275138,-0.050059400000000004,-0.16013880000000003,-0.016531200000000003,-9.5294826,4.7803436,-25.657077,26.0745086,0.2974429676,0.09498356,0.45252389600000004,-0.032455156000000006,-0.16070345799999997,0.07056865
11:12:14,-0.28062766499999997,0.14341643000000004,0.529607685,-0.049233755000000004,-0.161310685,-0.016121040000000003,-9.53128432,4.779703895,-25.65437375,26.03986347,0.30084888236999996,0.09302077325,0.45153835470000003,-0.03174315645000001,-0.16187061584999998,0.07023752475
11:12:14,-0.27766013,0.14102646000000002,0.5317015700000001,-0.048408110000000004,-0.16248257,-0.015710880000000003,-9.53308604,4.779064190000001,-25.651670499999998,26.005218340000003,0.30425479714,0.0910579865,0.45055281340000003,-0.03103115690000001,-0.1630377737,0.0699063995
11:12:14,-0.274692595,0.13863649000000003,0.533795455,-0.047582465000000004,-0.16365445500000003,-0.015300720000000004,-9.53488776,4.778424485,-25.64896725,25.97057321,0.30766071191,0.08909519974999999,0.4495672721,-0.030319157350000008,-0.16420493155,0.06957527425
11:12:14,-0.27172505999999996,0.13624652000000004,0.53588934,-0.046756820000000004,-0.16482634000000002,-0.014890560000000004,-9.53668948,4.77778478,-25.646264,25.93592808,0.31106662667999996,0.08713241299999999,0.4485817308,-0.029607157800000006,-0.16537208939999998,0.069244149
11:12:14,-0.268757525,0.13385655000000002,0.5379832250000001,-0.045931175000000005,-0.165998225,-0.014480400000000004,-9.5384912,4.777145075,-25.64356075,25.901282950000002,0.31447254145,0.08516962624999999,0.4475961895,-0.02889515825000001,-0.16653924724999997,0.06891302375
11:12:14,-0.26578999,0.13146658000000003,0.54007711,-0.045105530000000005,-0.16717011,-0.014070240000000005,-9.540292919999999,4.776505370000001,-25.6408575,25.86663782,0.31787845622,0.08320683949999999,0.4466106482,-0.02818315870000001,-0.16770640509999998,0.0685818985
11:12:14,-0.26282245499999995,0.12907661000000004,0.542170995,-0.044279885000000005,-0.16834199500000002,-0.013660080000000005,-9.54209464,4.775865665,-25.63815425,25.83199269,0.32128437098999996,0.08124405274999999,0.4456251069,-0.027471159150000007,-0.16887356295,0.06825077325
11:12:14,-0.25985492,0.12668664000000002,0.5442648800000001,-0.043454240000000005,-0.16951388,-0.013249920000000005,-9.54389636,4.77522596,-25.635451,25.797347560000002,0.32469028576,0.07928126599999999,0.4446395656,-0.026759159600000013,-0.1700407208,0.067919648
11:12:14,-0.25688738499999997,0.12429667000000003,0.546358765,-0.042628595000000005,-0.17068576500000002,-0.012839760000000006,-9.54569808,4.774586255,-25.63274775,25.76270243,0.32809620053,0.07731847924999999,0.4436540243,-0.026047160050000004,-0.17120787864999998,0.06758852274999999
11:12:14,-0.25391984999999995,0.12190670000000003,0.54845265,-0.041802950000000005,-0.17185765000000003,-0.012429599999999999,-9.5474998,4.773946550000001,-25.6300445,25.728057300000003,0.33150211529999996,0.07535569249999999,0.442668483,-0.02533516050000001,-0.17237503649999997,0.0672573975
11:12:14,-0.250952315,0.11951673000000004,0.5505465350000001,-0.040977305000000006,-0.173029535,-0.01201944,-9.54930152,4.7733068450000005,-25.62734125,25.693412170000002,0.33490803007,0.07339290574999999,0.4416829417,-0.024623160950000014,-0.17354219434999998,0.06692627225
11:12:14,-0.24798477999999996,0.11712676000000002,0.55264042,-0.040151660000000006,-0.17420142,-0.01160928,-9.55110324,4.77266714,-25.624638,25.65876704,0.33831394484,0.07143011899999999,0.44069740040000005,-0.023911161400000006,-0.1747093522,0.066595147
11:12:14,-0.245017245,0.11473679000000003,0.554734305,-0.039326015000000006,-0.175373305,-0.01119912,-9.55290496,4.772027435,-25.62193475,25.62412191,0.34171985960999995,0.06946733224999999,0.4397118591,-0.02319916185000001,-0.17587651005,0.06626402175
11:12:14,-0.24204970999999997,0.11234682000000004,0.5568281900000001,-0.038500370000000006,-0.17654519000000002,-0.01078896,-9.554706679999999,4.771387730000001,-25.619231499999998,25.589476780000002,0.34512577437999997,0.06750454549999998,0.43872631780000004,-0.022487162300000002,-0.17704366789999998,0.0659328965
11:12:14,-0.23908217499999995,0.10995685000000002,0.558922075,-0.037674725000000006,-0.177717075,-0.0103788,-9.5565084,4.7707480250000005,-25.616528249999998,25.55483165,0.34853168915,0.06554175874999998,0.4377407765,-0.021775162750000007,-0.17821082574999997,0.06560177125
11:12:14,-0.23611464,0.10756688000000003,0.56101596,-0.036849080000000006,-0.17888896,-0.00996864,-9.55831012,4.77010832,-25.613825,25.520186520000003,0.35193760391999995,0.06357897200000001,0.43675523520000004,-0.021063163200000012,-0.17937798359999998,0.065270646
11:12:14,-0.23314710499999997,0.10517691000000004,0.563109845,-0.036023435000000006,-0.18006084500000002,-0.009558480000000001,-9.56011184,4.769468615,-25.61112175,25.48554139,0.35534351868999997,0.06161618525000001,0.43576969390000003,-0.020351163650000004,-0.18054514145,0.06493952075000001
11:12:14,-0.23017957,0.10278694000000002,0.56520373,-0.03519779000000001,-0.18123273,-0.009148320000000001,-9.56191356,4.768828910000001,-25.6084185,25.45089626,0.35874943346,0.05965339850000001,0.43478415260000003,-0.01963916410000001,-0.1817122993,0.0646083955
11:12:14,-0.22721203499999998,0.10039697000000003,0.567297615,-0.03437214500000001,-0.18240461500000002,-0.008738160000000002,-9.56371528,4.7681892050000005,-25.60571525,25.416251130000003,0.36215534823,0.05769061175000001,0.4337986113,-0.018927164550000014,-0.18287945714999998,0.06427727024999999
11:12:14,-0.22424449999999996,0.09800700000000004,0.5693915,-0.03354650000000001,-0.18357650000000003,-0.008328000000000002,-9.565517,4.7675495,-25.603012,25.381606,0.36556126299999997,0.05572782500000001,0.43281307,-0.018215165000000005,-0.18404661499999997,0.063946145
11:12:14,-0.221276965,0.09561703000000002,0.571485385,-0.03272085500000001,-0.18474838500000001,-0.007917840000000002,-9.56731872,4.766909795,-25.60030875,25.34696087,0.36896717777,0.05376503825000001,0.4318275287,-0.01750316545000001,-0.18521377284999999,0.06361501975
11:12:14,-0.21830942999999997,0.09322706000000003,0.57357927,-0.03189521000000001,-0.18592027,-0.007507680000000003,-9.569120439999999,4.76627009,-25.5976055,25.312315740000003,0.37237309254,0.05180225150000001,0.4308419874,-0.016791165900000016,-0.1863809307,0.06328389449999999
11:12:14,-0.21534189499999995,0.09083709000000004,0.575673155,-0.031069565000000007,-0.187092155,-0.007097520000000003,-9.57092216,4.765630385000001,-25.59490225,25.27767061,0.37577900730999997,0.04983946475000001,0.4298564461,-0.016079166350000007,-0.18754808855,0.06295276925
11:12:14,-0.21237435999999998,0.08844712000000005,0.57776704,-0.030243920000000007,-0.18826404000000002,-0.006687360000000003,-9.57272388,4.76499068,-25.592199,25.24302548,0.37918492208,0.047876678000000006,0.4288709048,-0.015367166800000012,-0.18871524639999998,0.062621644
11:12:14,-0.20940682499999996,0.08605715000000003,0.579860925,-0.029418275000000008,-0.189435925,-0.006277200000000004,-9.5745256,4.764350975,-25.58949575,25.208380350000002,0.38259083685,0.045913891250000005,0.4278853635,-0.014655167250000004,-0.18988240424999997,0.062290518749999996
11:12:14,-0.20643929,0.08366718000000001,0.58195481,-0.028592630000000008,-0.19060781000000002,-0.005867040000000004,-9.57632732,4.76371127,-25.5867925,25.17373522,0.38599675161999997,0.043951104500000004,0.4268998222,-0.013943167700000009,-0.1910495621,0.0619593935
11:12:14,-0.20347175499999998,0.08127721000000004,0.584048695,-0.027766985000000008,-0.19177969500000003,-0.005456880000000004,-9.57812904,4.763071565000001,-25.584089249999998,25.13909009,0.38940266639,0.041988317750000004,0.4259142809,-0.013231168150000014,-0.19221671995,0.06162826825
11:12:14,-0.20050421999999996,0.07888724000000003,0.58614258,-0.026941340000000008,-0.19295158,-0.0050467200000000045,-9.57993076,4.76243186,-25.581386,25.104444960000002,0.39280858116,0.040025531,0.4249287396,-0.012519168600000005,-0.1933838778,0.061297143
11:12:14,-0.197536685,0.07649727,0.588236465,-0.026115695000000008,-0.19412346500000002,-0.004636560000000005,-9.58173248,4.761792155,-25.57868275,25.06979983,0.39621449592999997,0.03806274425,0.42394319830000005,-0.01180716905000001,-0.19455103564999998,0.06096601775
11:12:14,-0.19456914999999997,0.07410730000000004,0.59033035,-0.02529005000000001,-0.19529535,-0.004226400000000005,-9.583534199999999,4.76115245,-25.5759795,25.0351547,0.3996204107,0.0360999575,0.422957657,-0.011095169500000016,-0.19571819349999997,0.060634892499999996
11:12:14,-0.19160161499999995,0.07171733000000002,0.5924242350000001,-0.02446440500000001,-0.19646723500000002,-0.0038162400000000055,-9.58533592,4.760512745000001,-25.57327625,25.000509570000002,0.40302632547,0.03413717075,0.42197211570000004,-0.010383169950000007,-0.19688535134999996,0.06030376725
11:12:14,-0.18863407999999998,0.06932736,0.59451812,-0.02363876000000001,-0.19763912,-0.0034060800000000058,-9.58713764,4.75987304,-25.570573,24.96586444,0.40643224023999996,0.032174384,0.4209865744,-0.009671170400000012,-0.1980525092,0.059972642
11:12:14,-0.18566654499999996,0.06693739000000004,0.596612005,-0.02281311500000001,-0.198811005,-0.002995920000000006,-9.58893936,4.759233335,-25.56786975,24.931219310000003,0.40983815501,0.03021159725,0.42000103310000003,-0.008959170850000017,-0.19921966705,0.05964151675
11:12:14,-0.18269901,0.06454742000000002,0.5987058900000001,-0.02198747000000001,-0.19998289000000002,-0.0025857600000000064,-9.59074108,4.75859363,-25.5651665,24.89657418,0.41324406978,0.0282488105,0.41901549180000003,-0.008247171300000009,-0.20038682489999998,0.0593103915
11:12:14,-0.17973147499999997,0.06215745000000006,0.600799775,-0.02116182500000001,-0.201154775,-0.0021756000000000067,-9.5925428,4.757953925000001,-25.56246325,24.86192905,0.41664998454999996,0.026286023749999998,0.4180299505,-0.007535171750000014,-0.20155398274999997,0.058979266249999995
11:12:14,-0.17676393999999995,0.05976748000000004,0.6028936600000001,-0.02033618000000001,-0.20232666000000002,-0.00176544,-9.59434452,4.7573142200000005,-25.55976,24.82728392,0.42005589932,0.024323236999999998,0.4170444092,-0.006823172200000005,-0.20272114059999996,0.058648141
11:12:14,-0.173796405,0.05737751000000002,0.6049875450000001,-0.01951053500000001,-0.203498545,-0.0013552800000000004,-9.59614624,4.756674515,-25.55705675,24.79263879,0.42346181409,0.022360450249999997,0.4160588679,-0.00611117265000001,-0.20388829845,0.05831701575
11:12:14,-0.17082886999999997,0.05498754000000006,0.60708143,-0.01868489000000001,-0.20467043000000001,-0.0009451200000000007,-9.597947959999999,4.75603481,-25.5543535,24.75799366,0.42686772885999996,0.020397663499999996,0.4150733266,-0.005399173100000015,-0.2050554563,0.0579858905
11:12:14,-0.167861335,0.05259757000000004,0.6091753150000001,-0.01785924500000001,-0.20584231500000003,-0.000534960000000001,-9.59974968,4.755395105000001,-25.551650249999998,24.723348530000003,0.43027364363,0.018434876749999995,0.4140877853,-0.004687173550000007,-0.20622261414999998,0.05765476525
11:12:14,-0.16489379999999998,0.05020760000000002,0.6112692,-0.01703360000000001,-0.2070142,-0.0001248000000000013,-9.6015514,4.7547554000000005,-25.548947,24.6887034,0.4336795584,0.016472089999999995,0.413102244,-0.003975174000000012,-0.20738977199999997,0.057323639999999995
11:12:14,-0.16192626499999996,0.047817630000000055,0.613363085,-0.01620795500000001,-0.20818608500000002,0.0002853599999999984,-9.60335312,4.754115695,-25.54624375,24.65405827,0.43708547316999996,0.014509303249999994,0.4121167027,-0.003263174450000017,-0.20855692984999996,0.05699251475
11:12:14,-0.15895873,0.045427660000000036,0.6154569700000001,-0.01538231000000001,-0.20935797,0.0006955199999999981,-9.60515484,4.75347599,-25.5435405,24.619413140000002,0.44049138794,0.012546516499999993,0.4111311614,-0.0025511749000000083,-0.2097240877,0.0566613895
11:12:14,-0.15599119499999997,0.04303769000000002,0.6175508550000001,-0.01455666500000001,-0.21052985500000002,0.0011056799999999978,-9.60695656,4.752836285000001,-25.54083725,24.58476801,0.44389730271,0.010583729749999993,0.4101456201,-0.0018391753500000135,-0.21089124555,0.05633026425
11:12:14,-0.15302365999999995,0.040647720000000054,0.61964474,-0.01373102000000001,-0.21170174000000003,0.0015158399999999975,-9.60875828,4.752196580000001,-25.538134,24.55012288,0.44730321747999996,0.008620942999999992,0.4091600788,-0.0011271758000000048,-0.21205840339999998,0.055999138999999996
11:12:14,-0.15005612499999998,0.038257750000000035,0.6217386250000001,-0.01290537500000001,-0.212873625,0.0019259999999999972,-9.61056,4.751556875,-25.53543075,24.515477750000002,0.45070913225,0.006658156249999991,0.4081745375,-0.00041517625000001,-0.21322556124999997,0.055668013749999995
11:12:14,-0.14708858999999996,0.035867780000000016,0.6238325100000001,-0.01207973000000001,-0.21404551000000002,0.002336159999999997,-9.612361719999999,4.75091717,-25.5327275,24.48083262,0.45411504702,0.004695369499999991,0.40718899620000004,0.0002968232999999848,-0.21439271909999996,0.0553368885
11:12:14,-0.144121055,0.03347781000000005,0.625926395,-0.011254085000000011,-0.215217395,0.0027463199999999965,-9.61416344,4.750277465,-25.53002425,24.44618749,0.45752096178999996,0.00273258274999999,0.4062034549,0.0010088228499999935,-0.21555987695,0.05500576325
11:12:14,-0.14115351999999998,0.031087840000000033,0.6280202800000001,-0.010428440000000011,-0.21638928000000002,0.0031564799999999962,-9.61596516,4.749637760000001,-25.527321,24.411542360000002,0.46092687656,0.0007697959999999893,0.40521791360000003,0.0017208223999999883,-0.2167270348,0.054674638
11:12:14,-0.13818598499999996,0.028697870000000014,0.6301141650000001,-0.009602795000000011,-0.21756116500000003,0.003566639999999996,-9.61776688,4.748998055,-25.52461775,24.37689723,0.46433279133,-0.0011929907500000114,0.4042323723,0.002432821949999983,-0.21789419264999998,0.054343512749999996
11:12:14,-0.13521845,0.02630790000000005,0.63220805,-0.008777150000000011,-0.21873305,0.003976799999999996,-9.619568600000001,4.74835835,-25.5219145,24.342252100000003,0.46773870609999996,-0.003155777500000012,0.40324683100000003,0.003144821499999992,-0.21906135049999997,0.054012387499999995
11:12:14,-0.13225091499999997,0.02391793000000003,0.6343019350000001,-0.007951505000000011,-0.21990493500000002,0.004386959999999995,-9.62137032,4.747718645,-25.51921125,24.307606970000002,0.47114462087,-0.005118564250000013,0.40226128969999997,0.0038568210499999867,-0.22022850834999996,0.05368126225
11:12:14,-0.12928338,0.021527960000000013,0.6363958200000001,-0.007125860000000012,-0.22107682,0.004797119999999995,-9.62317204,4.747078940000001,-25.516507999999998,24.27296184,0.47455053564,-0.0070813510000000135,0.4012757484,0.0045688205999999815,-0.2213956662,0.053350137
11:12:14,-0.12631584499999998,0.01913799000000005,0.638489705,-0.006300215000000012,-0.22224870500000002,0.005207279999999995,-9.62497376,4.746439235,-25.51380475,24.23831671,0.47795645040999996,-0.009044137750000014,0.4002902071,0.00528082014999999,-0.22256282405,0.05301901175
11:12:14,-0.12334830999999996,0.01674802000000003,0.6405835900000001,-0.005474570000000012,-0.22342059000000003,0.005617439999999994,-9.62677548,4.74579953,-25.5111015,24.20367158,0.48136236518,-0.011006924500000015,0.3993046658,0.005992819699999985,-0.22372998189999999,0.052687886499999996
11:12:14,-0.120380775,0.014358050000000011,0.642677475,-0.004648925000000012,-0.224592475,0.006027599999999994,-9.6285772,4.745159825,-25.50839825,24.16902645,0.48476827995,-0.012969711250000016,0.3983191245,0.006704819249999994,-0.22489713974999997,0.052356761249999995
11:12:14,-0.11741323999999997,0.011968080000000048,0.64477136,-0.0038232800000000122,-0.22576436000000003,0.006437759999999994,-9.63037892,4.744520120000001,-25.505695,24.134381320000003,0.48817419471999995,-0.014932498000000016,0.3973335832,0.0074168187999999885,-0.22606429759999996,0.052025636
11:12:14,-0.11444570499999995,0.009578110000000029,0.6468652450000001,-0.0029976350000000124,-0.226936245,0.0068479199999999935,-9.63218064,4.7438804150000005,-25.50299175,24.09973619,0.49158010949,-0.016895284750000017,0.3963480419,0.008128818349999983,-0.22723145545,0.05169451075
11:12:14,-0.11147816999999999,0.0071881400000000095,0.64895913,-0.0021719900000000125,-0.22810813000000002,0.007258079999999993,-9.633982360000001,4.74324071,-25.5002885,24.06509106,0.49498602426,-0.018858071500000018,0.3953625006,0.008840817899999992,-0.2283986133,0.0513633855
11:12:14,-0.10851063499999997,0.004798170000000046,0.651053015,-0.0013463450000000127,-0.22928001500000003,0.007668239999999993,-9.63578408,4.742601005,-25.49758525,24.03044593,0.49839193902999995,-0.02082085825000002,0.3943769593,0.009552817449999987,-0.22956577115,0.051032260249999996
11:12:14,-0.1055431,0.002408200000000027,0.6531469000000001,-0.0005207000000000128,-0.23045190000000002,0.008078399999999993,-9.6375858,4.741961300000001,-25.494882,23.9958008,0.5017978538,-0.02278364500000002,0.393391418,0.010264816999999982,-0.23073292899999998,0.050701134999999994
11:12:14,-0.10257556499999998,1.8230000000007962e-05,0.655240785,0.00030494499999998703,-0.23162378500000003,0.00848856,-9.63938752,4.7413215950000005,-25.49217875,23.96115567,0.50520376857,-0.02474643175000002,0.39240587670000004,0.01097681654999999,-0.23190008684999996,0.05037000975
11:12:14,-0.09960802999999996,-0.0023717399999999556,0.65733467,0.0011305899999999869,-0.23279567,0.008898719999999999,-9.64118924,4.74068189,-25.4894755,23.926510540000002,0.50860968334,-0.02670921850000002,0.3914203354,0.011688816099999985,-0.23306724469999995,0.0500388845
11:12:14,-0.09664049499999999,-0.004761709999999975,0.6594285550000001,0.0019562349999999867,-0.23396755500000002,0.009308879999999999,-9.64299096,4.740042185,-25.48677225,23.89186541,0.51201559811,-0.02867200525000002,0.39043479410000004,0.012400815649999994,-0.23423440255,0.04970775925
11:12:14,-0.09367295999999997,-0.007151679999999938,0.66152244,0.0027818799999999866,-0.23513944000000003,0.009719039999999998,-9.64479268,4.739402480000001,-25.484068999999998,23.85722028,0.51542151288,-0.030634792000000022,0.3894492528,0.013112815199999989,-0.2354015604,0.049376633999999996
11:12:14,-0.090705425,-0.009541649999999957,0.663616325,0.0036075249999999864,-0.23631132500000002,0.010129199999999998,-9.6465944,4.7387627750000005,-25.48136575,23.822575150000002,0.51882742765,-0.03259757875000002,0.38846371150000003,0.013824814749999983,-0.23656871824999998,0.049045508749999994
11:12:14,-0.08773788999999999,-0.011931619999999976,0.6657102100000001,0.004433169999999986,-0.23748321000000003,0.010539359999999998,-9.648396120000001,4.73812307,-25.4786625,23.78793002,0.52223334242,-0.03456036550000002,0.38747817019999997,0.014536814299999992,-0.23773587609999997,0.0487143835
11:12:14,-0.08477035499999996,-0.01432158999999994,0.667804095,0.005258814999999986,-0.238655095,0.010949519999999997,-9.65019784,4.737483365,-25.47595925,23.753284890000003,0.5256392571899999,-0.036523152250000024,0.3864926289,0.015248813849999987,-0.23890303394999995,0.04838325825
11:12:14,-0.08180282,-0.01671155999999996,0.66989798,0.006084459999999986,-0.23982698000000002,0.011359679999999997,-9.65199956,4.736843660000001,-25.473256,23.718639760000002,0.52904517196,-0.038485939000000025,0.38550708759999996,0.015960813399999982,-0.2400701918,0.048052133
11:12:14,-0.07883528499999998,-0.019101529999999978,0.6719918650000001,0.006910104999999986,-0.240998865,0.011769839999999997,-9.65380128,4.736203955000001,-25.47055275,23.68399463,0.53245108673,-0.040448725750000025,0.3845215463,0.01667281294999999,-0.24123734965,0.047721007749999995
11:12:14,-0.07586774999999996,-0.02149149999999994,0.67408575,0.007735749999999986,-0.24217075000000002,0.012179999999999996,-9.655603,4.73556425,-25.4678495,23.6493495,0.5358570014999999,-0.042411512500000026,0.383536005,0.017384812499999985,-0.24240450749999998,0.047389882499999994
11:12:14,-0.07290021499999999,-0.02388146999999996,0.676179635,0.008561394999999986,-0.24334263500000003,0.012590159999999996,-9.65740472,4.734924545,-25.46514625,23.614704370000002,0.53926291627,-0.04437429925000003,0.3825504637,0.01809681204999998,-0.24357166534999997,0.04705875725
11:12:14,-0.06993267999999997,-0.02627143999999998,0.6782735200000001,0.00938704,-0.24451452,0.013000319999999996,-9.65920644,4.73428484,-25.462443,23.58005924,0.54266883104,-0.04633708600000003,0.3815649224,0.01880881159999999,-0.24473882319999996,0.046727632
11:12:14,-0.066965145,-0.028661409999999943,0.680367405,0.010212684999999985,-0.24568640500000002,0.013410479999999989,-9.66100816,4.733645135000001,-25.45973975,23.545414110000003,0.5460747458099999,-0.04829987275000003,0.3805793811,0.019520811149999984,-0.24590598105,0.04639650675
11:12:14,-0.06399760999999998,-0.031051379999999962,0.68246129,0.011038329999999999,-0.24685829,0.013820639999999995,-9.662809880000001,4.73300543,-25.4570365,23.51076898,0.54948066058,-0.05026265950000003,0.3795938398,0.020232810699999992,-0.2470731389,0.046065381499999995
11:12:14,-0.06103007499999996,-0.03344134999999998,0.6845551750000001,0.011863974999999985,-0.24803017500000002,0.014230800000000002,-9.6646116,4.732365725,-25.45433325,23.47612385,0.55288657535,-0.05222544625000003,0.3786082985,0.020944810249999987,-0.24824029674999998,0.045734256249999994
11:12:14,-0.058062539999999996,-0.035831319999999944,0.68664906,0.012689619999999999,-0.24920206000000003,0.014640959999999995,-9.66641332,4.73172602,-25.45163,23.44147872,0.5562924901199999,-0.05418823300000003,0.3776227572,0.021656809799999982,-0.24940745459999997,0.045403131
11:12:14,-0.055095004999999975,-0.03822128999999996,0.688742945,0.013515264999999985,-0.250373945,0.015051120000000001,-9.66821504,4.731086315000001,-25.44892675,23.40683359,0.55969840489,-0.05615101975000003,0.3766372159,0.02236880934999999,-0.25057461244999996,0.04507200575
11:12:14,-0.052127469999999954,-0.04061125999999998,0.6908368300000001,0.014340909999999998,-0.25154583,0.015461279999999994,-9.67001676,4.73044661,-25.4462235,23.37218846,0.56310431966,-0.05811380650000003,0.37565167460000004,0.023080808899999986,-0.2517417703,0.044740880499999997
11:12:14,-0.04915993499999999,-0.043001229999999946,0.692930715,0.015166554999999984,-0.252717715,0.01587144,-9.67181848,4.729806905,-25.44352025,23.337543330000003,0.5665102344299999,-0.06007659325000003,0.3746661333,0.02379280844999998,-0.25290892815,0.044409755249999995
11:12:14,-0.04619239999999997,-0.045391199999999965,0.6950246,0.015992199999999998,-0.25388960000000005,0.016281599999999993,-9.6736202,4.7291672,-25.440817,23.3028982,0.5699161492,-0.06203938000000003,0.37368059200000003,0.02450480799999999,-0.254076086,0.044078629999999994
11:12:14,-0.043224865,-0.047781169999999984,0.6971184850000001,0.016817844999999984,-0.25506148500000003,0.01669176,-9.67542192,4.728527495000001,-25.43811375,23.26825307,0.57332206397,-0.06400216675000003,0.3726950507,0.025216807549999984,-0.25524324384999997,0.04374750475
11:12:14,-0.04025732999999998,-0.05017113999999995,0.69921237,0.017643489999999998,-0.25623337,0.017101919999999993,-9.677223640000001,4.7278877900000005,-25.4354105,23.233607940000002,0.5767279787399999,-0.06596495350000003,0.3717095094,0.02592880709999998,-0.25641040169999996,0.0434163795
11:12:14,-0.03728979499999996,-0.052561109999999966,0.701306255,0.018469134999999984,-0.257405255,0.01751208,-9.67902536,4.727248085,-25.43270725,23.19896281,0.58013389351,-0.06792774025000003,0.37072396809999997,0.026640806649999987,-0.25757755955,0.043085254249999996
11:12:14,-0.03432225999999999,-0.054951079999999985,0.7034001400000001,0.019294779999999997,-0.25857714,0.017922239999999992,-9.68082708,4.72660838,-25.430004,23.16431768,0.58353980828,-0.06989052700000004,0.3697384268,0.027352806199999982,-0.2587447174,0.042754128999999995
11:12:14,-0.03135472499999997,-0.05734104999999995,0.705494025,0.020120424999999983,-0.259749025,0.0183324,-9.6826288,4.725968675000001,-25.42730075,23.129672550000002,0.5869457230499999,-0.07185331375000004,0.36875288549999996,0.02806480574999999,-0.25991187525,0.04242300375
11:12:14,-0.028387190000000007,-0.05973101999999997,0.70758791,0.020946069999999997,-0.26092091000000006,0.01874255999999999,-9.68443052,4.7253289700000005,-25.4245975,23.09502742,0.59035163782,-0.07381610050000004,0.3677673442,0.028776805299999986,-0.26107903309999997,0.0420918785
11:12:14,-0.025419654999999985,-0.06212098999999999,0.7096817950000001,0.021771714999999983,-0.26209279500000005,0.019152719999999998,-9.68623224,4.724689265,-25.42189425,23.06038229,0.59375755259,-0.07577888725000004,0.3667818029,0.02948880484999998,-0.26224619094999996,0.04176075325
11:12:14,-0.022452119999999964,-0.06451095999999995,0.7117756800000001,0.022597359999999997,-0.26326468000000003,0.01956287999999999,-9.68803396,4.72404956,-25.419191,23.025737160000002,0.5971634673599999,-0.07774167400000004,0.3657962616,0.03020080439999999,-0.2634133488,0.041429627999999996
11:12:14,-0.019484584999999943,-0.06690092999999997,0.713869565,0.023423004999999983,-0.264436565,0.019973039999999997,-9.68983568,4.723409855000001,-25.416487749999998,22.99109203,0.60056938213,-0.07970446075000004,0.3648107203,0.030912803949999984,-0.26458050665,0.041098502749999995
11:12:14,-0.016517050000000033,-0.06929089999999999,0.7159634500000001,0.024248649999999997,-0.26560845,0.02038319999999999,-9.691637400000001,4.7227701500000006,-25.4137845,22.956446900000003,0.6039752969,-0.08166724750000004,0.363825179,0.03162480349999998,-0.2657476645,0.0407673775
11:12:14,-0.013549515000000012,-0.07168086999999995,0.7180573350000001,0.025074294999999983,-0.26678033500000004,0.020793359999999997,-9.69343912,4.722130445,-25.41108125,22.921801770000002,0.6073812116699999,-0.08363003425000004,0.3628396377,0.03233680304999999,-0.26691482234999997,0.04043625225
11:12:14,-0.01058197999999999,-0.07407083999999997,0.72015122,0.025899939999999996,-0.26795222,0.02120351999999999,-9.69524084,4.72149074,-25.408378,22.88715664,0.61078712644,-0.08559282100000004,0.3618540964,0.03304880259999998,-0.26808198019999996,0.040105127
11:12:14,-0.00761444499999997,-0.07646080999999999,0.722245105,0.026725584999999982,-0.26912410500000006,0.021613679999999996,-9.69704256,4.720851035000001,-25.40567475,22.85251151,0.61419304121,-0.08755560775000004,0.3608685551,0.03376080214999999,-0.26924913805,0.039774001749999996
11:12:14,-0.004646909999999949,-0.07885077999999995,0.7243389900000001,0.027551229999999996,-0.27029599000000004,0.02202383999999999,-9.69884428,4.720211330000001,-25.4029715,22.81786638,0.6175989559799999,-0.08951839450000004,0.3598830138,0.034472801699999986,-0.2704162959,0.039442876499999995
11:12:14,-0.0016793749999999275,-0.08124074999999997,0.726432875,0.028376874999999982,-0.271467875,0.022433999999999996,-9.700646,4.719571625,-25.40026825,22.78322125,0.62100487075,-0.09148118125000004,0.35889747250000004,0.03518480124999998,-0.27158345375,0.03911175125
11:12:14,0.0012881599999999827,-0.08363071999999999,0.72852676,0.029202519999999996,-0.27263976,0.02284415999999999,-9.70244772,4.71893192,-25.397565,22.748576120000003,0.62441078552,-0.09344396800000004,0.3579119312,0.035896800799999976,-0.27275061159999997,0.038780626
11:12:14,0.004255695000000004,-0.08602068999999996,0.7306206450000001,0.03002816499999998,-0.273811645,0.023254319999999995,-9.70424944,4.718292215,-25.39486175,22.71393099,0.6278167002899999,-0.09540675475000004,0.35692638990000003,0.036608800349999984,-0.27391776944999996,0.03844950075
11:12:14,0.007223230000000025,-0.08841065999999997,0.73271453,0.030853809999999995,-0.27498353000000003,0.023664479999999988,-9.706051160000001,4.717652510000001,-25.3921585,22.67928586,0.63122261506,-0.09736954150000005,0.35594084859999997,0.03732079989999999,-0.2750849273,0.038118375499999996
11:12:14,0.010190765000000046,-0.09080062999999994,0.734808415,0.03167945499999998,-0.276155415,0.024074639999999994,-9.70785288,4.717012805,-25.38945525,22.64464073,0.63462852983,-0.09933232825000005,0.3549553073,0.038032799449999974,-0.27625208515,0.037787250249999994
11:12:14,0.013158300000000067,-0.09319059999999996,0.7369023000000001,0.032505099999999995,-0.27732730000000005,0.0244848,-9.7096546,4.7163731,-25.386752,22.6099956,0.6380344445999999,-0.10129511500000005,0.35396976599999996,0.03874479899999998,-0.277419243,0.037456125
11:12:14,0.016125834999999977,-0.09558056999999998,0.738996185,0.03333074499999998,-0.27849918500000004,0.024894959999999994,-9.71145632,4.715733395,-25.38404875,22.57535047,0.64144035937,-0.10325790175000005,0.3529842247,0.03945679854999999,-0.27858640084999997,0.03712499975
11:12:14,0.01909337,-0.09797053999999994,0.74109007,0.034156389999999995,-0.27967107,0.02530512,-9.71325804,4.715093690000001,-25.3813455,22.540705340000002,0.64484627414,-0.10522068850000005,0.35199868339999996,0.04016879809999997,-0.27975355869999996,0.0367938745
11:12:14,0.02206090500000002,-0.10036050999999996,0.7431839550000001,0.03498203499999998,-0.280842955,0.025715279999999993,-9.71505976,4.7144539850000005,-25.37864225,22.50606021,0.6482521889099999,-0.10718347525000005,0.3510131421,0.04088079764999998,-0.28092071654999995,0.036462749249999996
11:12:14,0.02502844000000004,-0.10275047999999998,0.74527784,0.035807679999999995,-0.28201484,0.02612544,-9.71686148,4.71381428,-25.375939,22.47141508,0.65165810368,-0.10914626200000005,0.3500276008,0.04159279719999999,-0.2820878744,0.036131623999999994
11:12:14,0.027995975000000062,-0.10514044999999994,0.747371725,0.03663332499999998,-0.28318672500000003,0.026535599999999993,-9.7186632,4.713174575,-25.37323575,22.436769950000002,0.65506401845,-0.11110904875000005,0.3490420595,0.04230479674999997,-0.28325503225,0.03580049875
11:12:14,0.030963509999999972,-0.10753041999999996,0.7494656100000001,0.037458969999999994,-0.28435861,0.02694576,-9.720464920000001,4.712534870000001,-25.3705325,22.40212482,0.6584699332199999,-0.11307183550000005,0.3480565182,0.04301679629999998,-0.28442219009999997,0.0354693735
11:12:14,0.03393104499999999,-0.10992038999999998,0.7515594950000001,0.03828461499999998,-0.28553049500000005,0.027355919999999992,-9.72226664,4.7118951650000005,-25.36782925,22.367479690000003,0.66187584799,-0.11503462225000005,0.3470709769,0.04372879584999999,-0.28558934794999996,0.03513824825
11:12:14,0.036898580000000014,-0.11231035999999994,0.75365338,0.039110259999999994,-0.28670238000000003,0.02776608,-9.72406836,4.71125546,-25.365126,22.332834560000002,0.66528176276,-0.11699740900000005,0.3460854356,0.0444407954,-0.28675650579999995,0.034807122999999995
11:12:14,0.039866115000000035,-0.11470032999999996,0.7557472650000001,0.03993590499999998,-0.287874265,0.02817623999999999,-9.72587008,4.710615755,-25.36242275,22.29818943,0.6686876775299999,-0.11896019575000005,0.3450998943,0.04515279494999998,-0.28792366365,0.03447599775
11:12:14,0.042833650000000056,-0.11709029999999998,0.7578411500000001,0.040761549999999994,-0.28904615,0.028586399999999998,-9.7276718,4.709976050000001,-25.3597195,22.2635443,0.6720935923,-0.12092298250000005,0.344114353,0.045864794499999986,-0.2890908215,0.03414487249999999
11:12:14,0.045801184999999967,-0.11948026999999994,0.759935035,0.04158719499999998,-0.290218035,0.02899655999999999,-9.72947352,4.7093363450000005,-25.35701625,22.228899170000002,0.67549950707,-0.12288576925000005,0.3431288117,0.046576794049999995,-0.29025797935,0.03381374725
11:12:14,0.04876871999999999,-0.12187023999999996,0.7620289200000001,0.04241283999999999,-0.29138992,0.029406719999999997,-9.73127524,4.70869664,-25.354313,22.19425404,0.6789054218399999,-0.124848556,0.3421432704,0.047288793599999976,-0.29142513719999996,0.033482622000000004
11:12:14,0.05173625500000001,-0.12426020999999998,0.7641228050000001,0.04323848499999998,-0.29256180500000006,0.02981687999999999,-9.73307696,4.708056935,-25.35160975,22.159608910000003,0.68231133661,-0.12681134275,0.3411577291,0.048000793149999985,-0.29259229504999995,0.033151496749999995
11:12:14,0.05470379000000003,-0.12665017999999995,0.76621669,0.04406412999999999,-0.29373369000000005,0.030227039999999997,-9.734878680000001,4.707417230000001,-25.3489065,22.12496378,0.68571725138,-0.1287741295,0.3401721878,0.04871279269999999,-0.2937594529,0.0328203715
11:12:14,0.05767132500000005,-0.12904014999999996,0.7683105750000001,0.04488977499999998,-0.29490557500000003,0.03063719999999999,-9.736680400000001,4.706777525000001,-25.34620325,22.09031865,0.68912316615,-0.13073691625,0.33918664649999997,0.049424792249999974,-0.29492661075,0.03248924624999999
11:12:14,0.06063885999999996,-0.13143011999999998,0.7704044600000001,0.04571541999999999,-0.29607746,0.031047359999999996,-9.73848212,4.70613782,-25.3435,22.05567352,0.69252908092,-0.132699703,0.3382011052,0.05013679179999998,-0.2960937686,0.032158121
11:12:14,0.06360639499999998,-0.13382008999999995,0.772498345,0.04654106499999998,-0.297249345,0.03145751999999999,-9.74028384,4.705498115,-25.34079675,22.02102839,0.69593499569,-0.13466248975,0.33721556389999996,0.05084879134999999,-0.29726092644999996,0.03182699575
11:12:14,0.06657393,-0.13621005999999997,0.7745922300000001,0.04736670999999999,-0.29842123000000004,0.031867679999999995,-9.74208556,4.704858410000001,-25.3380935,21.98638326,0.69934091046,-0.1366252765,0.3362300226,0.05156079089999997,-0.29842808429999995,0.031495870499999995
11:12:14,0.06954146500000002,-0.13860002999999999,0.7766861150000001,0.04819235499999998,-0.299593115,0.03227783999999999,-9.743887280000001,4.704218705000001,-25.33539025,21.951738130000003,0.70274682523,-0.13858806325,0.33524448129999995,0.05227279044999998,-0.29959524215,0.03116474525
11:12:15,0.072509,-0.14099,0.77878,0.049018,-0.300765,0.032688,-9.745689,4.703579,-25.332687,21.917093,0.70615274,-0.14055085,0.33425894,0.05298479,-0.3007624,0.03083362
11:12:15,0.073008025,-0.139226975,0.7726464350000001,0.05025913,-0.300226995,0.03164396,-9.75279233,4.690234960000001,-25.32585793,21.934410925,0.70079685975,-0.1387996146,0.3309559198,0.052376243669999996,-0.30022968505,0.0291506159
11:12:15,0.07350705,-0.13746395,0.76651287,0.05150026,-0.29968899,0.030599920000000003,-9.75989566,4.67689092,-25.31902886,21.951728850000002,0.6954409795,-0.13704837920000001,0.3276528996,0.051767697339999995,-0.29969697009999996,0.0274676118
11:12:15,0.074006075,-0.135700925,0.7603793050000001,0.05274139,-0.299150985,0.029555880000000003,-9.766998990000001,4.66354688,-25.31219979,21.969046775000002,0.69008509925,-0.1352971438,0.3243498794,0.051159151009999994,-0.29916425515,0.025784607699999997
11:12:15,0.0745051,-0.1339379,0.75424574,0.05398252,-0.29861298000000003,0.028511840000000004,-9.77410232,4.65020284,-25.30537072,21.986364700000003,0.684729219,-0.1335459084,0.3210468592,0.05055060468,-0.2986315402,0.0241016036
11:12:15,0.075004125,-0.132174875,0.748112175,0.05522365,-0.298074975,0.0274678,-9.78120565,4.636858800000001,-25.29854165,22.003682625,0.6793733387499999,-0.131794673,0.31774383900000003,0.04994205835,-0.29809882525,0.022418599499999997
11:12:15,0.07550315,-0.13041185,0.74197861,0.05646478,-0.29753697,0.02642376,-9.78830898,4.623514760000001,-25.29171258,22.02100055,0.6740174584999999,-0.1300434376,0.3144408188,0.04933351202,-0.29756611029999996,0.020735595399999997
11:12:15,0.076002175,-0.128648825,0.735845045,0.05770591,-0.296998965,0.02537972,-9.79541231,4.61017072,-25.28488351,22.038318475,0.6686615782499999,-0.1282922022,0.3111377986,0.04872496569,-0.29703339535,0.019052591299999998
11:12:15,0.0765012,-0.1268858,0.72971148,0.05894704,-0.29646096,0.024335680000000002,-9.802515640000001,4.59682668,-25.27805444,22.0556364,0.6633056979999999,-0.12654096680000002,0.3078347784,0.048116419359999996,-0.2965006804,0.017369587199999998
11:12:15,0.077000225,-0.125122775,0.723577915,0.06018817,-0.295922955,0.023291640000000002,-9.80961897,4.583482640000001,-25.27122537,22.072954325,0.6579498177499999,-0.1247897314,0.3045317582,0.047507873029999995,-0.29596796545,0.0156865831
11:12:15,0.07749925,-0.12335975,0.7174443500000001,0.0614293,-0.29538495,0.022247600000000003,-9.8167223,4.5701386,-25.2643963,22.09027225,0.6525939374999999,-0.123038496,0.301228738,0.046899326699999994,-0.29543525049999997,0.014003578999999999
11:12:15,0.077998275,-0.121596725,0.711310785,0.06267043,-0.294846945,0.021203560000000003,-9.82382563,4.55679456,-25.25756723,22.107590175000002,0.6472380572499999,-0.1212872606,0.2979257178,0.04629078036999999,-0.29490253555,0.012320574899999999
11:12:15,0.0784973,-0.1198337,0.70517722,0.06391156,-0.29430894,0.02015952,-9.83092896,4.54345052,-25.25073816,22.124908100000003,0.6418821769999999,-0.1195360252,0.2946226976,0.04568223404,-0.2943698206,0.010637570799999996
11:12:15,0.078996325,-0.118070675,0.699043655,0.06515269,-0.293770935,0.019115480000000004,-9.838032290000001,4.530106480000001,-25.24390909,22.142226025,0.6365262967499999,-0.1177847898,0.2913196774,0.04507368771,-0.29383710565,0.008954566699999996
11:12:15,0.07949535,-0.11630765,0.69291009,0.06639381999999999,-0.29323293,0.01807144,-9.84513562,4.516762440000001,-25.23708002,22.15954395,0.6311704164999999,-0.1160335544,0.2880166572,0.044465141379999996,-0.2933043907,0.007271562599999996
11:12:15,0.079994375,-0.11454462500000001,0.686776525,0.06763495,-0.292694925,0.0170274,-9.85223895,4.5034184,-25.23025095,22.176861875,0.6258145362499999,-0.114282319,0.284713637,0.043856595049999995,-0.29277167574999996,0.005588558499999997
11:12:15,0.0804934,-0.11278160000000001,0.68064296,0.06887608,-0.29215692,0.015983360000000002,-9.85934228,4.49007436,-25.22342188,22.1941798,0.6204586559999999,-0.1125310836,0.2814106168,0.043248048719999994,-0.2922389608,0.003905554399999997
11:12:15,0.080992425,-0.11101857500000001,0.6745093950000001,0.07011721,-0.291618915,0.014939320000000002,-9.86644561,4.476730320000001,-25.21659281,22.211497725,0.6151027757499999,-0.1107798482,0.2781075966,0.04263950239,-0.29170624585,0.0022225502999999973
11:12:15,0.08149145,-0.10925555,0.66837583,0.07135833999999999,-0.29108091,0.013895280000000003,-9.873548940000001,4.46338628,-25.20976374,22.22881565,0.6097468954999999,-0.10902861280000001,0.2748045764,0.04203095606,-0.2911735309,0.0005395461999999976
11:12:15,0.08199047500000001,-0.107492525,0.662242265,0.07259947,-0.290542905,0.012851240000000003,-9.88065227,4.45004224,-25.20293467,22.246133575,0.6043910152499999,-0.1072773774,0.2715015562,0.04142240973,-0.29064081594999996,-0.0011434579000000056
11:12:15,0.08248950000000001,-0.1057295,0.6561087,0.0738406,-0.2900049,0.011807200000000004,-9.8877556,4.4366982,-25.1961056,22.263451500000002,0.5990351349999999,-0.105526142,0.268198536,0.0408138634,-0.290108101,-0.002826462000000002
11:12:15,0.08298852500000001,-0.103966475,0.649975135,0.07508173,-0.289466895,0.01076316,-9.89485893,4.423354160000001,-25.18927653,22.280769425000003,0.5936792547499999,-0.1037749066,0.26489551580000004,0.040205317069999996,-0.28957538605,-0.004509466100000005
11:12:15,0.08348755000000001,-0.10220345,0.64384157,0.07632285999999999,-0.28892889,0.009719120000000001,-9.901962260000001,4.410010120000001,-25.18244746,22.29808735,0.5883233744999999,-0.1020236712,0.2615924956,0.039596770739999995,-0.2890426711,-0.006192470200000001
11:12:15,0.08398657500000001,-0.100440425,0.637708005,0.07756399,-0.288390885,0.008675080000000002,-9.90906559,4.39666608,-25.17561839,22.315405275,0.5829674942499999,-0.1002724358,0.2582894754,0.038988224409999994,-0.28850995614999997,-0.007875474300000004
11:12:15,0.08448560000000001,-0.0986774,0.6315744400000001,0.07880512,-0.28785288,0.007631040000000002,-9.91616892,4.38332204,-25.16878932,22.3327232,0.5776116139999999,-0.09852120040000001,0.2549864552,0.03837967807999999,-0.2879772412,-0.009558478400000008
11:12:15,0.08498462500000001,-0.096914375,0.625440875,0.08004625,-0.287314875,0.006587000000000003,-9.92327225,4.369978000000001,-25.16196025,22.350041125,0.5722557337499999,-0.096769965,0.251683435,0.03777113174999999,-0.28744452625,-0.011241482500000004
11:12:15,0.08548365000000001,-0.09515135,0.6193073099999999,0.08128737999999999,-0.28677687,0.005542960000000003,-9.93037558,4.35663396,-25.15513118,22.36735905,0.5668998534999999,-0.09501872959999999,0.2483804148,0.03716258541999999,-0.2869118113,-0.012924486600000007
11:12:15,0.08598267500000001,-0.093388325,0.613173745,0.08252851,-0.286238865,0.0044989200000000035,-9.937478910000001,4.34328992,-25.14830211,22.384676975,0.5615439732499999,-0.0932674942,0.2450773946,0.03655403909,-0.28637909635,-0.014607490700000003
11:12:15,0.0864817,-0.09162529999999999,0.60704018,0.08376964,-0.28570086,0.0034548800000000005,-9.94458224,4.32994588,-25.14147304,22.401994900000002,0.5561880929999999,-0.0915162588,0.2417743744,0.035945492759999996,-0.28584638139999996,-0.016290494800000006
11:12:15,0.08698072500000001,-0.08986227499999999,0.600906615,0.08501077,-0.285162855,0.002410840000000001,-9.95168557,4.316601840000001,-25.13464397,22.419312825000002,0.5508322127499999,-0.0897650234,0.2384713542,0.035336946429999995,-0.28531366645,-0.017973498900000003
11:12:15,0.08747975,-0.08809925,0.59477305,0.08625189999999999,-0.28462485,0.0013668000000000013,-9.9587889,4.303257800000001,-25.1278149,22.436630750000003,0.5454763324999999,-0.088013788,0.235168334,0.034728400099999994,-0.2847809515,-0.019656503000000006
11:12:15,0.08797877500000001,-0.086336225,0.5886394850000001,0.08749303,-0.28408684500000003,0.00032276000000000526,-9.96589223,4.28991376,-25.12098583,22.453948675,0.5401204522499999,-0.0862625526,0.23186531380000003,0.03411985377,-0.28424823655,-0.021339507100000002
11:12:15,0.0884778,-0.0845732,0.58250592,0.08873416,-0.28354884,-0.0007212799999999978,-9.972995560000001,4.27656972,-25.11415676,22.4712666,0.5347645719999999,-0.08451131719999999,0.22856229360000002,0.03351130744,-0.28371552159999996,-0.023022511200000005
11:12:15,0.08897682500000001,-0.082810175,0.576372355,0.08997529,-0.283010835,-0.0017653200000000008,-9.98009889,4.263225680000001,-25.107327689999998,22.488584525,0.5294086917499999,-0.0827600818,0.22525927340000002,0.03290276111,-0.28318280665,-0.02470551530000001
11:12:15,0.08947585,-0.08104715,0.57023879,0.09121641999999999,-0.28247283,-0.002809359999999997,-9.98720222,4.24988164,-25.10049862,22.50590245,0.5240528114999999,-0.0810088464,0.2219562532,0.03229421478,-0.2826500917,-0.026388519400000005
11:12:15,0.08997487500000001,-0.07928412500000001,0.564105225,0.09245755,-0.281934825,-0.0038534,-9.99430555,4.2365376,-25.09366955,22.523220375,0.5186969312499999,-0.079257611,0.218653233,0.031685668449999996,-0.28211737675,-0.028071523500000008
11:12:15,0.0904739,-0.0775211,0.55797166,0.09369868,-0.28139682,-0.004897439999999996,-10.00140888,4.22319356,-25.08684048,22.5405383,0.5133410509999999,-0.0775063756,0.2153502128,0.031077122119999995,-0.28158466179999997,-0.029754527600000004
11:12:15,0.09097292500000001,-0.075758075,0.551838095,0.09493981,-0.280858815,-0.005941479999999999,-10.008512210000001,4.209849520000001,-25.08001141,22.557856225000002,0.5079851707499999,-0.0757551402,0.2120471926,0.030468575789999994,-0.28105194685,-0.03143753170000001
11:12:15,0.09147195,-0.07399505,0.5457045300000001,0.09618093999999999,-0.28032081,-0.006985519999999995,-10.01561554,4.196505480000001,-25.07318234,22.575174150000002,0.5026292904999999,-0.07400390479999999,0.2087441724,0.029860029459999996,-0.2805192319,-0.03312053580000001
11:12:15,0.09197097500000001,-0.072232025,0.539570965,0.09742207,-0.279782805,-0.008029559999999998,-10.02271887,4.18316144,-25.06635327,22.592492075000003,0.49727341024999994,-0.0722526694,0.2054411522,0.029251483129999995,-0.27998651695,-0.034803539900000006
11:12:15,0.09247,-0.070469,0.5334374,0.0986632,-0.2792448,-0.009073599999999994,-10.0298222,4.1698174,-25.0595242,22.60981,0.49191752999999994,-0.070501434,0.202138132,0.028642936799999994,-0.279453802,-0.036486544
11:12:15,0.092969025,-0.068705975,0.527303835,0.09990433,-0.278706795,-0.010117639999999997,-10.03692553,4.156473360000001,-25.05269513,22.627127925,0.48656164974999994,-0.06875019859999999,0.19883511180000002,0.028034390469999997,-0.27892108704999996,-0.03816954810000001
11:12:15,0.09346805,-0.06694295,0.52117027,0.10114545999999999,-0.27816879,-0.01116168,-10.044028860000001,4.14312932,-25.04586606,22.64444585,0.48120576949999994,-0.0669989632,0.1955320916,0.027425844139999996,-0.2783883721,-0.03985255220000001
11:12:15,0.093967075,-0.065179925,0.515036705,0.10238659,-0.277630785,-0.012205719999999996,-10.05113219,4.12978528,-25.03903699,22.661763775,0.47584988924999994,-0.0652477278,0.1922290714,0.026817297809999995,-0.27785565715,-0.041535556300000005
11:12:15,0.0944661,-0.0634169,0.50890314,0.10362772,-0.27709278,-0.01324976,-10.05823552,4.11644124,-25.03220792,22.6790817,0.47049400899999994,-0.0634964924,0.1889260512,0.026208751479999993,-0.2773229422,-0.0432185604
11:12:15,0.094965125,-0.061653875,0.5027695750000001,0.10486885,-0.27655477500000003,-0.014293799999999995,-10.06533885,4.1030972000000006,-25.02537885,22.696399625,0.46513812874999994,-0.061745257,0.18562303100000002,0.025600205149999996,-0.27679022724999996,-0.04490156450000001
11:12:15,0.09546415,-0.059890849999999995,0.49663601,0.10610997999999999,-0.27601677,-0.015337839999999998,-10.07244218,4.089753160000001,-25.01854978,22.713717550000002,0.45978224849999993,-0.05999402159999999,0.18232001080000002,0.024991658819999995,-0.2762575123,-0.04658456860000001
11:12:15,0.095963175,-0.058127824999999994,0.490502445,0.10735111,-0.275478765,-0.016381879999999995,-10.07954551,4.07640912,-25.01172071,22.731035475000002,0.45442636824999993,-0.058242786199999994,0.1790169906,0.024383112489999994,-0.27572479735,-0.048267572700000004
11:12:15,0.0964622,-0.05636479999999999,0.48436888,0.10859224,-0.27494076,-0.017425919999999998,-10.08664884,4.06306508,-25.00489164,22.7483534,0.44907048799999993,-0.0564915508,0.1757139704,0.023774566159999996,-0.2751920824,-0.049950576800000014
11:12:15,0.096961225,-0.054601775000000005,0.478235315,0.10983337,-0.274402755,-0.01846996,-10.09375217,4.0497210400000005,-24.99806257,22.765671325,0.44371460774999993,-0.05474031539999999,0.1724109502,0.023166019829999995,-0.27465936744999997,-0.05163358090000001
11:12:15,0.09746025,-0.052838750000000004,0.47210175,0.11107449999999999,-0.27386475,-0.019513999999999997,-10.1008555,4.036377,-24.9912335,22.78298925,0.43835872749999993,-0.052989079999999994,0.16910793000000002,0.022557473499999994,-0.2741266525,-0.05331658500000001
11:12:15,0.097959275,-0.051075725,0.465968185,0.11231563,-0.273326745,-0.02055804,-10.10795883,4.02303296,-24.98440443,22.800307175,0.43300284724999993,-0.0512378446,0.1658049098,0.021948927169999993,-0.27359393755,-0.0549995891
11:12:15,0.0984583,-0.0493127,0.45983461999999997,0.11355676,-0.27278874,-0.021602079999999996,-10.11506216,4.00968892,-24.97757536,22.8176251,0.42764696699999993,-0.04948660919999999,0.1625018896,0.021340380839999992,-0.2730612226,-0.05668259320000001
11:12:15,0.098957325,-0.047549675,0.453701055,0.11479789000000001,-0.272250735,-0.02264612,-10.12216549,3.9963448800000005,-24.97074629,22.834943025,0.42229108674999993,-0.047735373799999994,0.1591988694,0.02073183450999999,-0.27252850765,-0.05836559730000001
11:12:15,0.09945635,-0.04578665,0.44756749,0.11603901999999999,-0.27171273,-0.023690159999999995,-10.12926882,3.9830008400000003,-24.96391722,22.85226095,0.41693520649999993,-0.0459841384,0.15589584920000002,0.020123288179999997,-0.2719957927,-0.060048601400000005
11:12:15,0.099955375,-0.044023625,0.441433925,0.11728015,-0.271174725,-0.024734199999999998,-10.13637215,3.9696568,-24.95708815,22.869578875000002,0.41157932624999993,-0.04423290299999999,0.152592829,0.019514741849999996,-0.27146307775,-0.0617316055
11:12:15,0.1004544,-0.042260599999999995,0.43530036,0.11852128,-0.27063672,-0.02577824,-10.14347548,3.9563127600000003,-24.95025908,22.886896800000002,0.40622344599999993,-0.042481667599999995,0.1492898088,0.018906195519999995,-0.2709303628,-0.0634146096
11:12:15,0.100953425,-0.040497574999999994,0.429166795,0.11976241000000001,-0.270098715,-0.026822279999999997,-10.15057881,3.9429687200000005,-24.94343001,22.904214725,0.40086756574999993,-0.0407304322,0.1459867886,0.018297649189999994,-0.27039764785,-0.0650976137
11:12:15,0.10145245,-0.03873454999999999,0.42303323,0.12100353999999999,-0.26956071,-0.02786632,-10.15768214,3.9296246800000003,-24.936600939999998,22.92153265,0.39551168549999993,-0.03897919679999999,0.14268376840000002,0.017689102859999993,-0.2698649329,-0.0667806178
11:12:15,0.101951475,-0.036971525000000005,0.416899665,0.12224467,-0.26902270500000003,-0.028910359999999996,-10.16478547,3.91628064,-24.92977187,22.938850575,0.39015580524999993,-0.037227961399999995,0.13938074820000002,0.017080556529999992,-0.26933221795,-0.06846362190000002
11:12:15,0.1024505,-0.035208500000000004,0.4107661,0.1234858,-0.2684847,-0.0299544,-10.1718888,3.9029366000000003,-24.9229428,22.9561685,0.38479992499999993,-0.035476725999999986,0.136077728,0.01647201019999999,-0.268799503,-0.07014662600000002
11:12:15,0.102949525,-0.033445475,0.404632535,0.12472693000000001,-0.267946695,-0.030998439999999995,-10.178992130000001,3.8895925600000005,-24.91611373,22.973486425,0.37944404474999993,-0.03372549059999999,0.1327747078,0.015863463869999997,-0.26826678805,-0.07182963010000001
11:12:15,0.10344855,-0.03168245,0.39849897,0.12596806,-0.26740869,-0.03204247999999999,-10.18609546,3.8762485200000003,-24.90928466,22.99080435,0.37408816449999993,-0.031974255199999996,0.12947168760000002,0.015254917539999996,-0.26773407309999997,-0.07351263420000001
11:12:15,0.103947575,-0.029919425,0.392365405,0.12720919,-0.266870685,-0.03308652,-10.19319879,3.86290448,-24.90245559,23.008122275,0.36873228424999993,-0.030223019799999987,0.12616866740000002,0.014646371209999995,-0.26720135815,-0.0751956383
11:12:15,0.1044466,-0.028156399999999998,0.38623184,0.12845032,-0.26633268,-0.03413056,-10.20030212,3.8495604400000003,-24.89562652,23.025440200000002,0.36337640399999993,-0.02847178439999999,0.12286564720000001,0.014037824879999994,-0.2666686432,-0.0768786424
11:12:15,0.104945625,-0.026393374999999997,0.380098275,0.12969145,-0.265794675,-0.03517459999999999,-10.20740545,3.8362164000000005,-24.88879745,23.042758125,0.35802052374999993,-0.026720548999999996,0.119562627,0.013429278549999993,-0.26613592825,-0.0785616465
11:12:15,0.10544465,-0.024630349999999995,0.37396471,0.13093258,-0.26525666999999997,-0.03621864,-10.214508780000001,3.8228723600000003,-24.88196838,23.06007605,0.35266464349999993,-0.024969313599999987,0.1162596068,0.012820732219999992,-0.2656032133,-0.08024465060000002
11:12:15,0.105943675,-0.022867324999999994,0.36783114499999997,0.13217371,-0.264718665,-0.03726268,-10.22161211,3.80952832,-24.87513931,23.077393975,0.34730876324999993,-0.023218078199999992,0.11295658660000002,0.01221218588999999,-0.26507049835,-0.08192765470000002
11:12:15,0.1064427,-0.021104299999999993,0.36169757999999996,0.13341484,-0.26418066,-0.038306719999999995,-10.22871544,3.7961842800000003,-24.86831024,23.0947119,0.34195288299999993,-0.021466842799999997,0.10965356640000001,0.011603639559999997,-0.2645377834,-0.08361065880000002
11:12:15,0.106941725,-0.01934127499999999,0.355564015,0.13465597,-0.263642655,-0.03935075999999999,-10.23581877,3.7828402400000005,-24.86148117,23.112029825,0.33659700274999993,-0.019715607399999988,0.1063505462,0.010995093229999996,-0.26400506845,-0.08529366290000001
11:12:15,0.10744075,-0.017578250000000004,0.34943045,0.1358971,-0.26310465,-0.0403948,-10.2429221,3.7694962000000003,-24.8546521,23.12934775,0.33124112249999993,-0.017964371999999992,0.103047526,0.010386546899999995,-0.2634723535,-0.08697666700000001
11:12:15,0.107939775,-0.01581522499999999,0.343296885,0.13713823,-0.262566645,-0.04143884,-10.25002543,3.75615216,-24.84782303,23.146665675,0.32588524224999993,-0.016213136599999983,0.09974450580000002,0.009778000569999994,-0.26293963855,-0.0886596711
11:12:15,0.1084388,-0.014052199999999987,0.33716332,0.13837936,-0.26202864,-0.042482879999999994,-10.25712876,3.7428081200000003,-24.84099396,23.1639836,0.32052936199999993,-0.014461901199999988,0.09644148560000002,0.009169454239999993,-0.2624069236,-0.0903426752
11:12:15,0.108937825,-0.012289174999999986,0.331029755,0.13962049,-0.261490635,-0.043526920000000004,-10.26423209,3.7294640800000005,-24.83416489,23.181301525000002,0.31517348174999993,-0.012710665799999993,0.09313846540000001,0.008560907909999992,-0.26187420865,-0.09202567930000002
11:12:15,0.10943685,-0.010526149999999984,0.32489619,0.14086162,-0.26095263,-0.04457096,-10.27133542,3.7161200400000003,-24.82733582,23.198619450000002,0.30981760149999993,-0.010959430399999998,0.0898354452,0.00795236157999999,-0.2613414937,-0.09370868340000002
11:12:15,0.109935875,-0.00876312500000001,0.31876262499999997,0.14210275,-0.260414625,-0.045614999999999996,-10.27843875,3.702776,-24.82050675,23.215937375,0.30446172124999993,-0.009208195000000002,0.08653242500000002,0.0073438152499999965,-0.26080877874999997,-0.09539168750000002
11:12:15,0.1104349,-0.007000100000000009,0.31262906,0.14334388,-0.25987662,-0.04665903999999999,-10.28554208,3.6894319600000003,-24.81367768,23.2332553,0.29910584099999993,-0.007456959599999979,0.08322940480000002,0.0067352689199999954,-0.2602760638,-0.09707469160000001
11:12:15,0.110933925,-0.005237075000000008,0.306495495,0.14458501,-0.259338615,-0.04770308,-10.29264541,3.6760879200000005,-24.80684861,23.250573225,0.2937499607499999,-0.005705724199999984,0.07992638460000001,0.006126722589999994,-0.25974334885,-0.09875769570000001
11:12:15,0.11143295,-0.0034740500000000063,0.30036193,0.14582614,-0.25880061,-0.04874712,-10.29974874,3.6627438800000003,-24.80001954,23.26789115,0.2883940804999999,-0.003954488799999989,0.0766233644,0.005518176259999993,-0.2592106339,-0.1004406998
11:12:15,0.111931975,-0.001711025000000005,0.294228365,0.14706727,-0.258262605,-0.049791159999999994,-10.30685207,3.64939984,-24.79319047,23.285209075,0.2830382002499999,-0.0022032533999999937,0.0733203442,0.004909629929999992,-0.25867791895,-0.1021237039
11:12:15,0.112431,5.1999999999996493e-05,0.2880948,0.1483084,-0.25772459999999997,-0.05083519999999999,-10.3139554,3.6360558000000003,-24.7863614,23.302527,0.2776823199999999,-0.0004520179999999985,0.07001732399999999,0.004301083599999991,-0.258145204,-0.103806708
11:12:15,0.11293002499999999,0.0018150249999999979,0.281961235,0.14954953,-0.257186595,-0.05187924,-10.32105873,3.6227117600000005,-24.77953233,23.319844925,0.2723264397499999,0.0012992174000000245,0.06671430379999999,0.0036925372699999903,-0.25761248905,-0.1054897121
11:12:15,0.11342905,0.0035780499999999993,0.27582766999999997,0.15079066,-0.25664859,-0.052923279999999996,-10.32816206,3.6093677200000003,-24.77270326,23.337162850000002,0.2669705594999999,0.0030504528000000197,0.06341128360000003,0.0030839909399999962,-0.2570797741,-0.10717271620000002
11:12:15,0.11392807499999999,0.005341075000000001,0.269694105,0.15203179,-0.256110585,-0.05396731999999999,-10.33526539,3.59602368,-24.765874189999998,23.354480775,0.2616146792499999,0.004801688200000015,0.06010826340000003,0.002475444609999995,-0.25654705915,-0.10885572030000001
11:12:15,0.1144271,0.007104100000000002,0.26356053999999995,0.15327292,-0.25557258,-0.05501136,-10.34236872,3.5826796400000003,-24.75904512,23.3717987,0.2562587989999999,0.00655292360000001,0.05680524320000002,0.0018668982799999942,-0.2560143442,-0.11053872440000001
11:12:15,0.11492612499999999,0.008867125000000003,0.257426975,0.15451405000000001,-0.255034575,-0.0560554,-10.34947205,3.5693356000000005,-24.75221605,23.389116625,0.2509029187499999,0.008304159000000005,0.053502223000000015,0.0012583519499999932,-0.25548162925,-0.1122217285
11:12:15,0.11542515,0.010630150000000005,0.25129340999999994,0.15575518,-0.25449657,-0.057099439999999994,-10.35657538,3.5559915600000003,-24.74538698,23.40643455,0.24554703849999993,0.0100553944,0.05019920280000001,0.0006498056199999921,-0.2549489143,-0.1139047326
11:12:15,0.11592417499999999,0.012393175000000006,0.245159845,0.15699631,-0.253958565,-0.05814347999999999,-10.36367871,3.54264752,-24.73855791,23.423752475,0.24019115824999993,0.011806629800000024,0.0468961826,4.125928999999112e-05,-0.25441619935,-0.1155877367
11:12:15,0.1164232,0.014156200000000008,0.23902628000000004,0.15823744,-0.25342056,-0.05918752,-10.37078204,3.5293034800000003,-24.73172884,23.4410704,0.23483527799999993,0.013557865200000019,0.043593162399999996,-0.0005672870400000099,-0.25388348439999997,-0.1172707408
11:12:15,0.11692222499999999,0.01591922500000001,0.23289271499999997,0.15947857000000001,-0.252882555,-0.060231559999999996,-10.37788537,3.5159594400000005,-24.72489977,23.458388325,0.22947939774999992,0.015309100600000014,0.04029014219999999,-0.001175833370000004,-0.25335076945,-0.11895374490000002
11:12:15,0.11742125,0.01768225000000001,0.22675915000000002,0.1607197,-0.25234455,-0.06127559999999999,-10.3849887,3.5026154000000003,-24.7180707,23.47570625,0.22412351749999992,0.01706033600000001,0.03698712200000004,-0.001784379700000005,-0.2528180545,-0.12063674900000002
11:12:15,0.11792027499999999,0.019445275000000012,0.22062558499999996,0.16196083,-0.251806545,-0.06231964,-10.39209203,3.48927136,-24.71124163,23.493024175000002,0.21876763724999992,0.018811571400000004,0.03368410180000003,-0.002392926030000006,-0.25228533955,-0.12231975310000001
11:12:15,0.1184193,0.021208300000000013,0.21449202,0.16320196,-0.25126854,-0.06336368,-10.39919536,3.4759273200000003,-24.70441256,23.5103421,0.21341175699999992,0.020562806800000027,0.030381081600000026,-0.003001472360000007,-0.2517526246,-0.12400275720000001
11:12:15,0.11891832499999999,0.022971325000000015,0.20835845499999994,0.16444309000000001,-0.250730535,-0.06440772,-10.40629869,3.4625832800000005,-24.69758349,23.527660025,0.20805587674999992,0.022314042200000023,0.02707806140000002,-0.003610018690000008,-0.25121990965,-0.1256857613
11:12:15,0.11941735,0.024734350000000016,0.20222489,0.16568422,-0.25019253,-0.06545176,-10.41340202,3.4492392400000003,-24.69075442,23.54497795,0.20269999649999992,0.024065277600000018,0.023775041200000013,-0.004218565020000009,-0.2506871947,-0.1273687654
11:12:15,0.11991637499999999,0.026497375000000017,0.19609132499999993,0.16692535,-0.24965452500000002,-0.0664958,-10.420505349999999,3.4358952,-24.68392535,23.562295875,0.19734411624999992,0.025816513000000013,0.020472021000000007,-0.00482711135000001,-0.25015447975,-0.1290517695
11:12:15,0.1204154,0.02826040000000002,0.18995775999999998,0.16816648,-0.24911652,-0.06753983999999999,-10.42760868,3.4225511600000003,-24.67709628,23.5796138,0.19198823599999992,0.02756774840000001,0.0171690008,-0.005435657680000004,-0.24962176479999998,-0.13073477360000002
11:12:15,0.12091442499999999,0.030023424999999992,0.18382419500000002,0.16940761000000001,-0.248578515,-0.06858387999999999,-10.43471201,3.4092071200000005,-24.67026721,23.596931725,0.18663235574999992,0.029318983800000004,0.013865980599999994,-0.006044204010000005,-0.24908904985,-0.13241777770000002
11:12:15,0.12141345,0.031786449999999994,0.17769062999999996,0.17064874,-0.24804051,-0.06962792000000001,-10.44181534,3.3958630800000003,-24.66343814,23.61424965,0.18127647549999992,0.031070219200000027,0.010562960399999988,-0.006652750340000006,-0.2485563349,-0.1341007818
11:12:15,0.12191247499999999,0.033549474999999995,0.171557065,0.17188987,-0.24750250499999998,-0.07067196,-10.44891867,3.38251904,-24.65660907,23.631567575000002,0.17592059524999992,0.03282145460000002,0.007259940200000037,-0.007261296670000007,-0.24802361995,-0.1357837859
11:12:15,0.1224115,0.0353125,0.16542349999999995,0.173131,-0.2469645,-0.071716,-10.456022,3.3691750000000003,-24.64978,23.6488855,0.17056471499999992,0.03457269000000002,0.00395692000000003,-0.007869843000000008,-0.24749090499999998,-0.13746679
11:12:15,0.12291052499999999,0.037075525,0.159289935,0.17437213000000001,-0.246426495,-0.07276004,-10.46312533,3.3558309600000005,-24.64295093,23.666203425,0.16520883474999992,0.03632392540000001,0.000653899800000024,-0.00847838933000001,-0.24695819005,-0.1391497941
11:12:15,0.12340955,0.03883855,0.15315636999999993,0.17561326,-0.24588849000000002,-0.07380408,-10.47022866,3.3424869200000003,-24.63612186,23.68352135,0.15985295449999992,0.03807516080000001,-0.0026491203999999824,-0.00908693566000001,-0.2464254751,-0.1408327982
11:12:15,0.12390857499999999,0.040601575,0.14702280499999998,0.17685439,-0.245350485,-0.07484811999999999,-10.47733199,3.32914288,-24.62929279,23.700839275,0.15449707424999992,0.03982639620000003,-0.005952140599999989,-0.009695481990000011,-0.24589276015,-0.1425158023
11:12:15,0.12440760000000001,0.0423646,0.14088923999999992,0.17809552,-0.24481248,-0.07589215999999999,-10.48443532,3.3157988400000002,-24.62246372,23.7181572,0.14914119399999992,0.041577631600000026,-0.009255160799999995,-0.010304028320000012,-0.2453600452,-0.14419880640000002
11:12:15,0.124906625,0.044127625000000004,0.13475567499999996,0.17933665000000001,-0.244274475,-0.07693620000000001,-10.49153865,3.3024548000000005,-24.61563465,23.735475125,0.14378531374999992,0.04332886700000002,-0.012558181000000002,-0.010912574650000013,-0.24482733025,-0.14588181050000001
11:12:15,0.12540565,0.045890650000000005,0.12862211,0.18057778000000002,-0.24373647,-0.07798024,-10.49864198,3.2891107600000002,-24.60880558,23.75279305,0.13842943349999992,0.045080102400000016,-0.015861201200000008,-0.011521120980000014,-0.2442946153,-0.1475648146
11:12:15,0.125904675,0.047653675000000006,0.12248854499999995,0.18181891,-0.243198465,-0.07902428,-10.50574531,3.27576672,-24.60197651,23.770110975,0.13307355324999992,0.04683133780000001,-0.01916422139999996,-0.012129667310000002,-0.24376190035,-0.1492478187
11:12:15,0.1264037,0.04941670000000001,0.11635498,0.18306004,-0.24266046,-0.08006832,-10.51284864,3.2624226800000002,-24.595147439999998,23.787428900000002,0.12771767299999992,0.04858257320000001,-0.022467241599999965,-0.012738213640000003,-0.2432291854,-0.1509308228
11:12:15,0.126902725,0.05117972500000001,0.11022141499999993,0.18430117000000001,-0.24212245500000001,-0.08111236,-10.51995197,3.2490786400000005,-24.58831837,23.804746825,0.12236179274999992,0.05033380860000003,-0.02577026179999997,-0.013346759970000004,-0.24269647045,-0.1526138269
11:12:15,0.12740175,0.05294275000000001,0.10408784999999998,0.1855423,-0.24158445,-0.08215639999999999,-10.5270553,3.2357346000000002,-24.5814893,23.82206475,0.11700591249999992,0.052085044000000025,-0.029073281999999978,-0.013955306300000005,-0.2421637555,-0.154296831
11:12:15,0.127900775,0.05470577500000001,0.09795428499999992,0.18678343,-0.241046445,-0.08320043999999999,-10.53415863,3.22239056,-24.57466023,23.839382675,0.11165003224999992,0.05383627940000002,-0.032376302199999984,-0.014563852630000006,-0.24163104055,-0.15597983510000002
11:12:15,0.1283998,0.05646880000000001,0.09182071999999997,0.18802456,-0.24050844,-0.08424448000000001,-10.54126196,3.2090465200000002,-24.56783116,23.8567006,0.10629415199999992,0.055587514800000015,-0.03567932239999999,-0.015172398960000007,-0.2410983256,-0.15766283920000002
11:12:15,0.128898825,0.058231825000000015,0.08568715500000001,0.18926569000000001,-0.239970435,-0.08528852,-10.54836529,3.1957024800000005,-24.56100209,23.874018525,0.10093827174999992,0.05733875020000001,-0.0389823426,-0.015780945290000008,-0.24056561064999998,-0.1593458433
11:12:15,0.12939784999999998,0.059994850000000016,0.07955358999999995,0.19050682000000002,-0.23943243,-0.08633256,-10.55546862,3.1823584400000002,-24.55417302,23.89133645,0.09558239149999992,0.059089985600000006,-0.042285362800000004,-0.01638949162000001,-0.2400328957,-0.1610288474
11:12:15,0.129896875,0.06175787500000002,0.073420025,0.19174795,-0.238894425,-0.0873766,-10.56257195,3.1690144,-24.54734395,23.908654375,0.09022651124999992,0.06084122100000003,-0.04558838300000001,-0.01699803795000001,-0.23950018075,-0.1627118515
11:12:15,0.1303959,0.06352090000000002,0.06728645999999994,0.19298908,-0.23835642,-0.08842064,-10.56967528,3.1556703600000002,-24.54051488,23.9259723,0.08487063099999992,0.06259245640000002,-0.04889140319999996,-0.01760658428000001,-0.2389674658,-0.1643948556
11:12:15,0.130894925,0.06528392500000002,0.061152894999999985,0.19423021000000001,-0.237818415,-0.08946467999999999,-10.57677861,3.1423263200000005,-24.53368581,23.943290225,0.07951475074999992,0.06434369180000002,-0.05219442339999997,-0.018215130610000012,-0.23843475085,-0.1660778597
11:12:15,0.13139394999999998,0.06704695,0.05501932999999992,0.19547134,-0.23728041,-0.09050871999999999,-10.58388194,3.1289822800000002,-24.52685674,23.96060815,0.07415887049999992,0.06609492720000001,-0.055497443599999974,-0.018823676940000013,-0.2379020359,-0.16776086380000002
11:12:15,0.131892975,0.068809975,0.04888576499999997,0.19671247,-0.236742405,-0.09155275999999998,-10.59098527,3.11563824,-24.52002767,23.977926075,0.06880299024999992,0.06784616260000001,-0.05880046379999998,-0.019432223270000014,-0.23736932095000002,-0.16944386790000002
11:12:15,0.132392,0.070573,0.04275220000000002,0.1979536,-0.23620439999999998,-0.0925968,-10.5980886,3.1022942000000002,-24.5131986,23.995244,0.06344710999999992,0.06959739800000003,-0.06210348399999999,-0.020040769600000015,-0.236836606,-0.171126872
11:12:15,0.132891025,0.072336025,0.036618634999999955,0.19919473000000001,-0.235666395,-0.09364084,-10.60519193,3.0889501600000004,-24.50636953,24.012561925,0.05809122974999992,0.07134863340000003,-0.06540650419999999,-0.020649315930000002,-0.23630389105,-0.1728098761
11:12:15,0.13339004999999998,0.07409905,0.030485070000000003,0.20043586000000002,-0.23512839000000002,-0.09468488,-10.61229526,3.07560612,-24.49954046,24.02987985,0.05273534949999992,0.07309986880000002,-0.0687095244,-0.021257862260000003,-0.23577117609999998,-0.1744928802
11:12:15,0.133889075,0.075862075,0.02435150499999994,0.20167699,-0.234590385,-0.09572892,-10.61939859,3.06226208,-24.49271139,24.047197775,0.04737946924999992,0.07485110420000002,-0.0720125446,-0.021866408590000004,-0.23523846115,-0.1761758843
11:12:15,0.1343881,0.0776251,0.018217939999999988,0.20291812,-0.23405238,-0.09677295999999999,-10.626501919999999,3.04891804,-24.485882319999998,24.0645157,0.04202358899999992,0.07660233960000001,-0.07531556479999996,-0.022474954920000005,-0.2347057462,-0.1778588884
11:12:15,0.134887125,0.079388125,0.012084374999999925,0.20415925000000001,-0.233514375,-0.09781700000000002,-10.63360525,3.0355740000000004,-24.47905325,24.081833625,0.03666770874999992,0.07835357500000001,-0.07861858499999996,-0.023083501250000006,-0.23417303125,-0.17954189250000002
11:12:15,0.13538614999999998,0.08115115,0.005950809999999973,0.20540038,-0.23297637,-0.09886104000000001,-10.64070858,3.02222996,-24.47222418,24.099151550000002,0.031311828499999916,0.08010481040000003,-0.08192160519999997,-0.023692047580000007,-0.23364031629999998,-0.18122489660000002
11:12:15,0.135885175,0.082914175,-0.00018275500000008993,0.20664151,-0.23243836499999998,-0.09990508000000001,-10.64781191,3.00888592,-24.46539511,24.116469475,0.025955948249999916,0.08185604580000003,-0.08522462539999998,-0.024300593910000008,-0.23310760135,-0.18290790070000001
11:12:15,0.1363842,0.08467720000000001,-0.006316320000000042,0.20788264,-0.23190036,-0.10094912,-10.65491524,2.99554188,-24.45856604,24.1337874,0.020600067999999916,0.08360728120000002,-0.08852764559999998,-0.02490914024000001,-0.2325748864,-0.1845909048
11:12:15,0.136883225,0.08644022500000001,-0.012449884999999994,0.20912377000000001,-0.23136235500000002,-0.10199316,-10.662018569999999,2.9821978400000004,-24.45173697,24.151105325,0.015244187749999916,0.08535851660000002,-0.09183066579999999,-0.02551768657000001,-0.23204217145,-0.1862739089
11:12:15,0.13738224999999998,0.08820325000000001,-0.018583450000000057,0.21036490000000002,-0.23082435,-0.1030372,-10.6691219,2.9688538,-24.4449079,24.16842325,0.009888307499999915,0.08710975200000001,-0.095133686,-0.02612623290000001,-0.2315094565,-0.187956913
11:12:15,0.137881275,0.08996627500000001,-0.02471701500000001,0.21160603,-0.230286345,-0.10408123999999999,-10.67622523,2.95550976,-24.43807883,24.185741175,0.004532427249999915,0.08886098740000004,-0.0984367062,-0.026734779230000012,-0.23097674155,-0.1896399171
11:12:15,0.1383803,0.09172930000000001,-0.030850580000000072,0.21284716,-0.22974834,-0.10512528000000002,-10.68332856,2.94216572,-24.43124976,24.2030591,-0.000823453000000085,0.09061222280000003,-0.10173972640000001,-0.027343325560000013,-0.23044402660000002,-0.19132292120000002
11:12:15,0.138879325,0.09349232500000002,-0.036984145000000024,0.21408829000000001,-0.229210335,-0.10616932000000001,-10.69043189,2.9288216800000004,-24.424420689999998,24.220377025,-0.006179333250000085,0.09236345820000003,-0.10504274659999996,-0.027951871890000014,-0.22991131165,-0.19300592530000002
11:12:15,0.13937834999999998,0.09525535000000002,-0.04311771000000009,0.21532942,-0.22867232999999998,-0.10721336000000001,-10.697535219999999,2.91547764,-24.41759162,24.237694949999998,-0.011535213500000085,0.09411469360000002,-0.10834576679999997,-0.028560418220000015,-0.2293785967,-0.19468892940000002
11:12:15,0.139877375,0.09701837500000002,-0.04925127500000004,0.21657055,-0.228134325,-0.1082574,-10.70463855,2.9021336,-24.41076255,24.255012875,-0.016891093750000086,0.09586592900000002,-0.11164878699999997,-0.029168964550000016,-0.22884588175,-0.1963719335
11:12:15,0.1403764,0.09878140000000002,-0.0553848400000001,0.21781168,-0.22759632000000002,-0.10930144,-10.71174188,2.88878956,-24.40393348,24.2723308,-0.022246974000000086,0.09761716440000001,-0.11495180719999998,-0.029777510880000004,-0.2283131668,-0.1980549376
11:12:15,0.140875425,0.10054442500000002,-0.061518405000000054,0.21905281000000001,-0.227058315,-0.11034548,-10.71884521,2.8754455200000004,-24.39710441,24.289648725,-0.027602854250000086,0.09936839980000003,-0.11825482739999998,-0.030386057210000005,-0.22778045185,-0.1997379417
11:12:15,0.14137444999999998,0.10230745000000002,-0.06765197,0.22029394000000002,-0.22652031,-0.11138951999999999,-10.72594854,2.86210148,-24.39027534,24.30696665,-0.032958734500000086,0.10111963520000003,-0.12155784759999999,-0.030994603540000006,-0.2272477369,-0.2014209458
11:12:15,0.141873475,0.104070475,-0.07378553500000007,0.22153507,-0.225982305,-0.11243356000000002,-10.73305187,2.84875744,-24.38344627,24.324284575,-0.03831461475000009,0.10287087060000003,-0.1248608678,-0.03160314987000001,-0.22671502194999998,-0.20310394990000002
11:12:15,0.1423725,0.1058335,-0.07991910000000002,0.2227762,-0.2254443,-0.11347760000000001,-10.7401552,2.8354134,-24.3766172,24.3416025,-0.04367049500000009,0.10462210600000002,-0.128163888,-0.03221169620000001,-0.226182307,-0.20478695400000002
11:12:15,0.142871525,0.107596525,-0.08605266500000008,0.22401733000000001,-0.224906295,-0.11452164000000001,-10.74725853,2.8220693600000004,-24.36978813,24.358920425,-0.04902637525000009,0.10637334140000002,-0.13146690819999995,-0.03282024253000001,-0.22564959205000001,-0.20646995810000002
11:12:15,0.14337054999999999,0.10935955000000003,-0.09218623000000004,0.22525846,-0.22436829,-0.11556568,-10.75436186,2.80872532,-24.36295906,24.37623835,-0.05438225550000009,0.10812457680000004,-0.13476992839999996,-0.03342878886000001,-0.2251168771,-0.2081529622
11:12:15,0.143869575,0.111122575,-0.0983197950000001,0.22649959,-0.22383028500000002,-0.11660972,-10.76146519,2.79538128,-24.35612999,24.393556275,-0.05973813575000009,0.10987581220000003,-0.13807294859999997,-0.03403733519000001,-0.22458416215,-0.2098359663
11:12:15,0.1443686,0.11288560000000003,-0.10445336000000005,0.22774072,-0.22329228,-0.11765376,-10.768568519999999,2.78203724,-24.34930092,24.4108742,-0.06509401600000009,0.11162704760000003,-0.14137596879999997,-0.03464588152000001,-0.2240514472,-0.2115189704
11:12:15,0.144867625,0.114648625,-0.110586925,0.22898185000000001,-0.222754275,-0.11869779999999999,-10.77567185,2.7686932000000004,-24.34247185,24.428192125,-0.07044989625000009,0.11337828300000002,-0.14467898899999998,-0.03525442785000001,-0.22351873225000002,-0.2132019745
11:12:15,0.14536665,0.11641165000000003,-0.11672049000000007,0.23022298000000002,-0.22221627,-0.11974184000000002,-10.78277518,2.75534916,-24.33564278,24.44551005,-0.07580577650000009,0.11512951840000002,-0.1479820092,-0.035862974180000014,-0.2229860173,-0.21488497860000003
11:12:15,0.145865675,0.118174675,-0.12285405500000002,0.23146411,-0.22167826499999999,-0.12078588000000001,-10.78987851,2.74200512,-24.32881371,24.462827975,-0.08116165675000009,0.11688075380000001,-0.1512850294,-0.036471520510000015,-0.22245330235,-0.21656798270000002
11:12:15,0.14636470000000001,0.11993770000000004,-0.12898762000000008,0.23270524,-0.22114026,-0.12182992000000001,-10.796981839999999,2.72866108,-24.32198464,24.4801459,-0.08651753700000009,0.11863198920000001,-0.1545880496,-0.037080066840000016,-0.2219205874,-0.21825098680000002
11:12:15,0.146863725,0.12170072500000001,-0.13512118500000003,0.23394637000000001,-0.220602255,-0.12287396,-10.80408517,2.7153170400000004,-24.315155569999998,24.497463825,-0.09187341725000009,0.1203832246,-0.1578910698,-0.03768861317000002,-0.22138787245000002,-0.2199339909
11:12:15,0.14736275,0.12346374999999998,-0.1412547500000001,0.2351875,-0.22006425000000002,-0.123918,-10.8111885,2.701973,-24.3083265,24.51478175,-0.09722929750000009,0.12213446,-0.16119408999999996,-0.038297159500000004,-0.2208551575,-0.22161699500000004
11:12:15,0.147861775,0.125226775,-0.14738831500000005,0.23642863,-0.219526245,-0.12496204,-10.81829183,2.68862896,-24.30149743,24.532099675,-0.10258517775000009,0.12388569540000005,-0.16449711019999996,-0.038905705830000005,-0.22032244255,-0.22329999910000004
11:12:15,0.14836080000000001,0.12698979999999999,-0.15352188,0.23766976,-0.21898824,-0.12600608,-10.82539516,2.67528492,-24.29466836,24.549417599999998,-0.10794105800000009,0.12563693080000005,-0.16780013039999997,-0.039514252160000006,-0.21978972759999998,-0.22498300320000003
11:12:15,0.148859825,0.12875282500000002,-0.15965544500000006,0.23891089000000001,-0.218450235,-0.12705012000000002,-10.832498489999999,2.6619408800000004,-24.28783929,24.566735525,-0.11329693825000009,0.12738816620000004,-0.17110315060000003,-0.04012279849000001,-0.21925701265,-0.22666600730000003
11:12:15,0.14935885,0.13051585,-0.16578901000000001,0.24015202000000002,-0.21791222999999998,-0.12809416,-10.83960182,2.64859684,-24.28101022,24.58405345,-0.11865281850000009,0.12913940160000004,-0.17440617079999998,-0.04073134482000001,-0.21872429770000001,-0.22834901140000002
11:12:15,0.149857875,0.13227887500000002,-0.17192257500000008,0.24139315,-0.217374225,-0.1291382,-10.84670515,2.6352528,-24.27418115,24.601371375,-0.12400869875000009,0.13089063700000003,-0.17770919099999993,-0.04133989115000001,-0.21819158275,-0.23003201550000002
11:12:15,0.15035690000000002,0.1340419,-0.17805614000000003,0.24263428,-0.21683622,-0.13018224,-10.85380848,2.62190876,-24.26735208,24.6186893,-0.1293645790000001,0.13264187240000003,-0.1810122112,-0.04194843748000001,-0.2176588678,-0.23171501960000002
11:12:15,0.150855925,0.13580492500000002,-0.1841897050000001,0.24387541000000001,-0.21629821500000002,-0.13122628,-10.86091181,2.6085647200000004,-24.26052301,24.636007225,-0.1347204592500001,0.13439310780000002,-0.18431523139999995,-0.04255698381000001,-0.21712615285,-0.2333980237
11:12:15,0.15135495,0.13756795,-0.19032327000000004,0.24511654,-0.21576021,-0.13227032,-10.868015139999999,2.59522068,-24.253693939999998,24.65332515,-0.1400763395000001,0.13614434320000002,-0.1876182516,-0.04316553014000001,-0.21659343790000002,-0.2350810278
11:12:15,0.151853975,0.13933097500000002,-0.1964568350000001,0.24635767,-0.215222205,-0.13331436,-10.87511847,2.58187664,-24.24686487,24.670643075,-0.1454322197500001,0.1378955786,-0.19092127179999996,-0.04377407647000001,-0.21606072295,-0.2367640319
11:12:15,0.15235300000000002,0.141094,-0.20259040000000006,0.2475988,-0.2146842,-0.1343584,-10.8822218,2.5685326,-24.2400358,24.687961,-0.1507881000000001,0.139646814,-0.19422429200000002,-0.044382622800000014,-0.215528008,-0.238447036
11:12:15,0.152852025,0.14285702500000003,-0.208723965,0.24883993000000001,-0.21414619499999998,-0.13540244,-10.88932513,2.5551885600000004,-24.23320673,24.705278925000002,-0.1561439802500001,0.1413980494,-0.19752731219999997,-0.044991169130000015,-0.21499529305,-0.2401300401
11:12:15,0.15335105,0.14462005,-0.21485753000000007,0.25008106,-0.21360819,-0.13644648,-10.89642846,2.54184452,-24.22637766,24.72259685,-0.1614998605000001,0.14314928480000005,-0.20083033240000003,-0.045599715460000016,-0.21446257810000002,-0.2418130442
11:12:15,0.15385007499999998,0.14638307500000003,-0.22099109500000003,0.25132219,-0.213070185,-0.13749052,-10.903531789999999,2.52850048,-24.21954859,24.739914775,-0.1668557407500001,0.14490052020000005,-0.20413335259999998,-0.04620826179000002,-0.21392986315,-0.2434960483
11:12:15,0.1543491,0.1481461,-0.2271246600000001,0.25256332,-0.21253218000000001,-0.13853456,-10.91063512,2.51515644,-24.21271952,24.7572327,-0.1722116210000001,0.14665175560000004,-0.20743637279999994,-0.046816808120000004,-0.2133971482,-0.24517905240000004
11:12:15,0.154848125,0.14990912500000003,-0.23325822500000015,0.25380445,-0.211994175,-0.1395786,-10.91773845,2.5018124000000004,-24.20589045,24.774550625,-0.1775675012500001,0.14840299100000004,-0.210739393,-0.047425354450000005,-0.21286443324999998,-0.24686205650000004
11:12:15,0.15534715,0.15167215,-0.23939179,0.25504558,-0.21145617,-0.14062264,-10.92484178,2.48846836,-24.19906138,24.79186855,-0.1829233815000001,0.15015422640000003,-0.21404241319999995,-0.048033900780000006,-0.2123317183,-0.24854506060000003
11:12:15,0.15584617499999998,0.15343517500000003,-0.24552535500000006,0.25628671,-0.210918165,-0.14166668,-10.93194511,2.47512432,-24.19223231,24.809186475,-0.1882792617500001,0.15190546180000003,-0.2173454334,-0.04864244711000001,-0.21179900335000001,-0.25022806470000003
11:12:15,0.1563452,0.1551982,-0.2516589200000001,0.25752784,-0.21038015999999998,-0.14271072,-10.93904844,2.46178028,-24.18540324,24.8265044,-0.1936351420000001,0.15365669720000003,-0.22064845359999996,-0.04925099344000001,-0.2112662884,-0.2519110688
11:12:15,0.156844225,0.15696122500000004,-0.25779248499999996,0.25876897,-0.209842155,-0.14375476,-10.94615177,2.4484362400000004,-24.17857417,24.843822324999998,-0.1989910222500001,0.15540793260000002,-0.22395147380000002,-0.04985953977000001,-0.21073357345,-0.2535940729
11:12:15,0.15734325,0.15872425,-0.26392605,0.2600101,-0.20930415,-0.1447988,-10.9532551,2.4350922,-24.1717451,24.86114025,-0.2043469025000001,0.15715916800000002,-0.22725449399999997,-0.05046808610000001,-0.2102008585,-0.255277077
11:12:15,0.15784227499999998,0.16048727499999998,-0.2700596150000001,0.26125123,-0.20876614500000001,-0.14584284,-10.96035843,2.42174816,-24.16491603,24.878458175,-0.2097027827500001,0.1589104034,-0.23055751419999992,-0.05107663243000001,-0.20966814355000002,-0.2569600811
11:12:15,0.1583413,0.16225030000000001,-0.27619318000000015,0.26249236,-0.20822814,-0.14688688,-10.967461759999999,2.40840412,-24.15808696,24.8957761,-0.2150586630000001,0.1606616388,-0.2338605344,-0.05168517876000001,-0.2091354286,-0.2586430852
11:12:15,0.158840325,0.164013325,-0.282326745,0.26373349,-0.207690135,-0.14793092,-10.974565089999999,2.3950600800000004,-24.15125789,24.913094025,-0.2204145432500001,0.16241287420000006,-0.23716355459999994,-0.052293725090000014,-0.20860271365,-0.2603260893
11:12:15,0.15933935,0.16577635000000002,-0.28846031000000005,0.26497462,-0.20715213,-0.14897496,-10.98166842,2.38171604,-24.144428819999998,24.93041195,-0.2257704235000001,0.16416410960000005,-0.2404665748,-0.052902271420000015,-0.2080699987,-0.2620090934
11:12:15,0.15983837499999998,0.167539375,-0.2945938750000001,0.26621575,-0.20661412499999998,-0.150019,-10.98877175,2.368372,-24.13759975,24.947729875,-0.2311263037500001,0.16591534500000005,-0.24376959499999995,-0.053510817750000016,-0.20753728375000002,-0.2636920975
11:12:15,0.1603374,0.16930240000000002,-0.30072743999999996,0.26745688,-0.20607612,-0.15106304,-10.99587508,2.35502796,-24.13077068,24.9650478,-0.2364821840000001,0.16766658040000004,-0.2470726152,-0.05411936408000002,-0.2070045688,-0.2653751016
11:12:15,0.160836425,0.171065425,-0.306861005,0.26869801,-0.205538115,-0.15210708,-11.002978409999999,2.3416839200000004,-24.12394161,24.982365725,-0.2418380642500001,0.16941781580000004,-0.25037563539999996,-0.05472791041000002,-0.20647185385,-0.2670581057
11:12:15,0.16133545,0.17282845000000002,-0.3129945700000001,0.26993914,-0.20500011,-0.15315112,-11.01008174,2.32833988,-24.11711254,24.99968365,-0.2471939445000001,0.17116905120000003,-0.2536786556,-0.055336456740000005,-0.20593913889999999,-0.26874110980000004
11:12:15,0.16183447499999998,0.174591475,-0.31912813500000015,0.27118027,-0.204462105,-0.15419516,-11.01718507,2.31499584,-24.11028347,25.017001575,-0.2525498247500001,0.17292028660000003,-0.2569816758,-0.055945003070000006,-0.20540642395,-0.27042411390000004
11:12:15,0.1623335,0.17635450000000003,-0.3252617,0.2724214,-0.2039241,-0.1552392,-11.0242884,2.3016518,-24.1034544,25.0343195,-0.2579057050000001,0.17467152200000002,-0.2602846959999999,-0.05655354940000001,-0.20487370900000001,-0.27210711800000004
11:12:15,0.162832525,0.178117525,-0.33139526500000005,0.27366253,-0.203386095,-0.15628324,-11.03139173,2.2883077600000004,-24.09662533,25.051637425,-0.2632615852500001,0.17642275740000002,-0.2635877162,-0.05716209573000001,-0.20434099405,-0.27379012210000003
11:12:15,0.16333155,0.17988055000000003,-0.3375288300000001,0.27490366,-0.20284808999999998,-0.15732728,-11.038495059999999,2.27496372,-24.08979626,25.06895535,-0.2686174655000001,0.17817399280000001,-0.26689073639999994,-0.05777064206000001,-0.2038082791,-0.27547312620000003
11:12:15,0.16383057499999998,0.181643575,-0.3436623950000002,0.27614479,-0.202310085,-0.15837132,-11.045598389999999,2.26161968,-24.082967189999998,25.086273275,-0.2739733457500001,0.1799252282,-0.2701937566,-0.05837918839000001,-0.20327556415,-0.2771561303
11:12:15,0.1643296,0.18340660000000003,-0.34979596,0.27738592,-0.20177208,-0.15941536,-11.05270172,2.24827564,-24.07613812,25.1035912,-0.2793292260000001,0.18167646360000006,-0.27349677679999995,-0.05898773472000001,-0.20274284920000002,-0.2788391344
11:12:15,0.164828625,0.185169625,-0.3559295250000001,0.27862705,-0.201234075,-0.1604594,-11.05980505,2.2349316000000004,-24.06930905,25.120909125,-0.2846851062500001,0.18342769900000006,-0.276799797,-0.05959628105000001,-0.20221013425,-0.2805221385
11:12:15,0.16532765,0.18693265000000003,-0.36206309000000014,0.27986818,-0.20069607,-0.16150344,-11.06690838,2.22158756,-24.06247998,25.13822705,-0.2900409865000001,0.18517893440000005,-0.28010281719999996,-0.06020482738000001,-0.2016774193,-0.2822051426
11:12:15,0.16582667499999998,0.188695675,-0.368196655,0.28110931,-0.200158065,-0.16254748,-11.074011709999999,2.20824352,-24.05565091,25.155544974999998,-0.2953968667500001,0.18693016980000005,-0.2834058374,-0.060813373710000014,-0.20114470435,-0.2838881467
11:12:15,0.1663257,0.19045870000000004,-0.37433022000000005,0.28235044,-0.19962006,-0.16359152,-11.08111504,2.19489948,-24.04882184,25.1728629,-0.3007527470000001,0.18868140520000004,-0.2867088576,-0.061421920040000015,-0.20061198940000002,-0.2855711508
11:12:15,0.166824725,0.192221725,-0.3804637850000001,0.28359157,-0.19908205499999998,-0.16463556000000001,-11.08821837,2.1815554400000003,-24.04199277,25.190180825,-0.3061086272500001,0.19043264060000004,-0.29001187779999993,-0.062030466370000016,-0.20007927445,-0.2872541549
11:12:15,0.16732375,0.19398475000000004,-0.3865973500000002,0.2848327,-0.19854405,-0.1656796,-11.0953217,2.1682114,-24.0351637,25.20749875,-0.3114645075000001,0.19218387600000003,-0.293314898,-0.06263901270000002,-0.1995465595,-0.288937159
11:12:15,0.16782277499999998,0.195747775,-0.392730915,0.28607383,-0.198006045,-0.16672364,-11.10242503,2.15486736,-24.02833463,25.224816675,-0.3168203877500001,0.19393511140000003,-0.29661791819999994,-0.06324755903000001,-0.19901384455,-0.2906201631
11:12:15,0.1683218,0.19751080000000004,-0.3988644800000001,0.28731496,-0.19746804,-0.16776768,-11.109528359999999,2.14152332,-24.02150556,25.2421346,-0.3221762680000001,0.19568634680000002,-0.2999209384,-0.06385610536,-0.1984811296,-0.29230316720000005
11:12:15,0.168820825,0.19927382500000002,-0.40499804500000014,0.28855609,-0.196930035,-0.16881172,-11.11663169,2.1281792800000003,-24.01467649,25.259452525,-0.3275321482500001,0.19743758220000002,-0.30322395859999995,-0.06446465169000001,-0.19794841465000002,-0.29398617130000004
11:12:15,0.16931985,0.20103685,-0.41113161,0.28979722,-0.19639203,-0.16985576,-11.12373502,2.11483524,-24.00784742,25.27677045,-0.3328880285000001,0.1991888176,-0.3065269788,-0.06507319802,-0.1974156997,-0.29566917540000004
11:12:15,0.16981887499999998,0.20279987500000002,-0.41726517500000004,0.29103835,-0.195854025,-0.1708998,-11.13083835,2.1014912,-24.00101835,25.294088375,-0.3382439087500001,0.20094005300000006,-0.30982999899999997,-0.06568174435000002,-0.19688298475,-0.29735217950000004
11:12:15,0.1703179,0.2045629,-0.4233987400000001,0.29227948,-0.19531601999999998,-0.17194384000000001,-11.137941679999999,2.08814716,-23.99418928,25.311406299999998,-0.3435997890000001,0.20269128840000006,-0.31313301920000003,-0.06629029068,-0.1963502698,-0.29903518360000003
11:12:15,0.170816925,0.20632592500000002,-0.42953230500000017,0.29352061,-0.194778015,-0.17298788,-11.145045009999999,2.0748031200000003,-23.98736021,25.328724225,-0.3489556692500001,0.20444252380000005,-0.3164360394,-0.06689883701000002,-0.19581755485000002,-0.30071818770000003
11:12:15,0.17131595,0.20808895,-0.43566587,0.29476174,-0.19424001,-0.17403192,-11.15214834,2.06145908,-23.98053114,25.34604215,-0.3543115495000001,0.20619375920000005,-0.31973905959999993,-0.06750738334,-0.1952848399,-0.3024011918
11:12:15,0.17181497499999998,0.20985197500000002,-0.4417994350000001,0.29600287,-0.193702005,-0.17507596,-11.15925167,2.04811504,-23.973702069999998,25.363360075,-0.3596674297500001,0.20794499460000004,-0.3230420798,-0.06811592967000002,-0.19475212495,-0.3040841959
11:12:16,0.172314,0.211615,-0.447933,0.297244,-0.193164,-0.17612,-11.166355,2.034771,-23.966873,25.380678,-0.36502331,0.20969623,-0.3263451,-0.068724476,-0.19421941,-0.3057672
11:12:16,0.17074989499999998,0.208658355,-0.448154335,0.29513994,-0.191651205,-0.174383485,-11.173865585,2.019069935,-23.96257353,25.440341975,-0.36547613445,0.20707333625000002,-0.3241828335,-0.06774287882,-0.19283587025,-0.30356399525
11:12:16,0.16918579,0.20570171,-0.44837567,0.29303588,-0.19013841,-0.17264697,-11.18137617,2.00336887,-23.95827406,25.50000595,-0.3659289589,0.20445044250000002,-0.322020567,-0.06676128164,-0.19145233050000002,-0.30136079050000003
11:12:16,0.167621685,0.202745065,-0.44859700500000005,0.29093182,-0.188625615,-0.170910455,-11.188886754999999,1.987667805,-23.95397459,25.559669924999998,-0.36638178335,0.20182754875,-0.3198583005,-0.06577968446,-0.19006879075000002,-0.29915758575
11:12:16,0.16605757999999998,0.19978842,-0.44881834000000004,0.28882776,-0.18711282,-0.16917394,-11.196397339999999,1.97196674,-23.94967512,25.6193339,-0.3668346078,0.199204655,-0.317696034,-0.06479808728,-0.188685251,-0.296954381
11:12:16,0.164493475,0.196831775,-0.449039675,0.2867237,-0.185600025,-0.167437425,-11.203907925,1.956265675,-23.94537565,25.678997875,-0.36728743225,0.19658176125000001,-0.3155337675,-0.06381649010000001,-0.18730171125,-0.29475117625
11:12:16,0.16292937,0.19387513,-0.44926101,0.28461964,-0.18408723,-0.16570091,-11.21141851,1.94056461,-23.94107618,25.73866185,-0.3677402567,0.19395886750000002,-0.313371501,-0.06283489292000001,-0.1859181715,-0.2925479715
11:12:16,0.16136526499999998,0.190918485,-0.449482345,0.28251558,-0.182574435,-0.16396439499999999,-11.218929095,1.924863545,-23.93677671,25.798325825,-0.36819308115,0.19133597375,-0.3112092345,-0.06185329574000001,-0.18453463175,-0.29034476675000004
11:12:16,0.15980116,0.18796184,-0.44970368000000005,0.28041152,-0.18106164,-0.16222788,-11.226439679999999,1.90916248,-23.93247724,25.8579898,-0.3686459056,0.18871308,-0.309046968,-0.06087169856000001,-0.18315109200000002,-0.288141562
11:12:16,0.158237055,0.185005195,-0.44992501500000004,0.27830746,-0.179548845,-0.160491365,-11.233950264999999,1.893461415,-23.92817777,25.917653774999998,-0.36909873005,0.18609018625,-0.3068847015,-0.059890101380000005,-0.18176755225000002,-0.28593835725
11:12:16,0.15667295,0.18204855,-0.45014635000000003,0.2762034,-0.17803605,-0.15875485,-11.24146085,1.8777603500000002,-23.9238783,25.97731775,-0.3695515545,0.18346729250000002,-0.304722435,-0.0589085042,-0.1803840125,-0.28373515250000003
11:12:16,0.155108845,0.179091905,-0.450367685,0.27409934,-0.176523255,-0.157018335,-11.248971435,1.8620592850000002,-23.91957883,26.036981725,-0.37000437895,0.18084439875000002,-0.3025601685,-0.05792690702000001,-0.17900047275,-0.28153194775
11:12:16,0.15354473999999999,0.17613526000000002,-0.45058902,0.27199528,-0.17501046,-0.15528182,-11.25648202,1.8463582200000002,-23.91527936,26.0966457,-0.3704572034,0.178221505,-0.300397902,-0.05694530984000001,-0.177616933,-0.279328743
11:12:16,0.151980635,0.173178615,-0.45081035500000005,0.26989122,-0.173497665,-0.153545305,-11.263992604999999,1.8306571550000001,-23.91097989,26.156309675,-0.37091002785,0.17559861125,-0.2982356355,-0.055963712660000005,-0.17623339325,-0.27712553825
11:12:16,0.15041653,0.17022197,-0.45103169000000004,0.26778716,-0.17198487,-0.15180879,-11.271503189999999,1.8149560900000001,-23.90668042,26.21597365,-0.3713628523,0.17297571750000001,-0.296073369,-0.05498211548000001,-0.1748498535,-0.2749223335
11:12:16,0.14885242499999998,0.167265325,-0.45125302500000003,0.2656831,-0.170472075,-0.150072275,-11.279013775,1.7992550250000001,-23.90238095,26.275637624999998,-0.37181567675,0.17035282375000002,-0.2939111025,-0.05400051830000001,-0.17346631375000002,-0.27271912875000004
11:12:16,0.14728832,0.16430867999999998,-0.45147436,0.26357904,-0.16895928,-0.14833575999999998,-11.28652436,1.78355396,-23.89808148,26.3353016,-0.3722685012,0.16772993000000003,-0.291748836,-0.05301892112000001,-0.172082774,-0.270515924
11:12:16,0.145724215,0.161352035,-0.451695695,0.26147498,-0.167446485,-0.146599245,-11.294034945,1.767852895,-23.89378201,26.394965575,-0.37272132565,0.16510703625,-0.2895865695,-0.052037323940000005,-0.17069923425,-0.26831271925
11:12:16,0.14416011,0.15839539,-0.45191703000000005,0.25937092,-0.16593369,-0.14486273,-11.301545529999999,1.75215183,-23.88948254,26.45462955,-0.3731741501,0.1624841425,-0.287424303,-0.05105572676,-0.1693156945,-0.26610951450000003
11:12:16,0.142596005,0.155438745,-0.45213836500000004,0.25726686,-0.164420895,-0.143126215,-11.309056114999999,1.736450765,-23.88518307,26.514293525,-0.37362697455,0.15986124875000002,-0.2852620365,-0.05007412958000001,-0.16793215475,-0.26390630975
11:12:16,0.1410319,0.1524821,-0.45235970000000003,0.2551628,-0.1629081,-0.1413897,-11.3165667,1.7207497,-23.8808836,26.5739575,-0.374079799,0.157238355,-0.28309977,-0.04909253240000001,-0.166548615,-0.261703105
11:12:16,0.139467795,0.149525455,-0.452581035,0.25305874,-0.161395305,-0.139653185,-11.324077285,1.705048635,-23.87658413,26.633621474999998,-0.37453262345,0.15461546125000003,-0.2809375035,-0.048110935220000005,-0.16516507525000002,-0.25949990025
11:12:16,0.13790369,0.14656881,-0.45280237,0.25095468,-0.15988251,-0.13791667,-11.33158787,1.6893475700000002,-23.87228466,26.69328545,-0.3749854479,0.1519925675,-0.278775237,-0.04712933804000001,-0.16378153550000002,-0.2572966955
11:12:16,0.13633958499999999,0.143612165,-0.453023705,0.24885062000000002,-0.158369715,-0.136180155,-11.339098455,1.6736465050000002,-23.86798519,26.752949425,-0.37543827235,0.14936967375000001,-0.2766129705,-0.04614774086000001,-0.16239799575000002,-0.25509349075
11:12:16,0.13477548,0.14065552,-0.45324504000000004,0.24674656,-0.15685692,-0.13444364,-11.346609039999999,1.6579454400000002,-23.86368572,26.8126134,-0.3758910968,0.14674678000000002,-0.274450704,-0.04516614368000001,-0.161014456,-0.252890286
11:12:16,0.133211375,0.137698875,-0.45346637500000003,0.2446425,-0.155344125,-0.13270712499999998,-11.354119625,1.6422443750000002,-23.85938625,26.872277375,-0.37634392125,0.14412388625,-0.2722884375,-0.044184546500000005,-0.15963091625,-0.25068708125
11:12:16,0.13164726999999998,0.13474223000000002,-0.45368771,0.24253844000000002,-0.15383133,-0.13097061,-11.36163021,1.6265433100000002,-23.85508678,26.93194135,-0.3767967457,0.14150099250000003,-0.270126171,-0.04320294932,-0.1582473765,-0.2484838765
11:12:16,0.130083165,0.13178558499999998,-0.453909045,0.24043438,-0.152318535,-0.129234095,-11.369140795,1.6108422450000002,-23.85078731,26.991605325,-0.37724957015,0.13887809875,-0.2679639045,-0.04222135214000001,-0.15686383675,-0.24628067175
11:12:16,0.12851906,0.12882894,-0.45413038,0.23833032,-0.15080574,-0.12749758,-11.37665138,1.5951411800000002,-23.846487839999998,27.0512693,-0.3777023946,0.13625520500000002,-0.265801638,-0.04123975496000001,-0.155480297,-0.244077467
11:12:16,0.12695495499999998,0.125872295,-0.45435171500000004,0.23622626000000002,-0.149292945,-0.125761065,-11.384161964999999,1.5794401150000001,-23.84218837,27.110933275,-0.37815521905,0.13363231125000002,-0.2636393715,-0.040258157780000005,-0.15409675725,-0.24187426225000003
11:12:16,0.12539085,0.12291565,-0.45457305000000003,0.2341222,-0.14778015,-0.12402455,-11.39167255,1.5637390500000001,-23.8378889,27.17059725,-0.3786080435,0.1310094175,-0.261477105,-0.03927656060000001,-0.1527132175,-0.2396710575
11:12:16,0.12382674499999999,0.119959005,-0.454794385,0.23201814,-0.146267355,-0.12228803499999999,-11.399183135,1.5480379850000001,-23.83358943,27.230261225,-0.37906086795,0.12838652375,-0.2593148385,-0.03829496342000001,-0.15132967775,-0.23746785275
11:12:16,0.12226263999999999,0.11700236,-0.45501572,0.22991408000000002,-0.14475456,-0.12055152,-11.40669372,1.53233692,-23.82928996,27.2899252,-0.3795136924,0.12576363000000002,-0.25715257199999997,-0.03731336624000001,-0.149946138,-0.23526464800000002
11:12:16,0.120698535,0.114045715,-0.455237055,0.22781002,-0.143241765,-0.118815005,-11.414204305,1.516635855,-23.82499049,27.349589175,-0.37996651685,0.12314073625000002,-0.2549903055,-0.036331769060000005,-0.14856259825,-0.23306144325
11:12:16,0.11913442999999999,0.11108907,-0.45545839000000005,0.22570596,-0.14172897,-0.11707849,-11.421714889999999,1.50093479,-23.820691019999998,27.40925315,-0.3804193413,0.12051784250000001,-0.252828039,-0.03535017188,-0.14717905850000002,-0.2308582385
11:12:16,0.11757032499999999,0.108132425,-0.45567972500000004,0.22360190000000002,-0.140216175,-0.11534197499999999,-11.429225474999999,1.485233725,-23.81639155,27.468917125,-0.38087216575,0.11789494875000002,-0.2506657725,-0.03436857470000001,-0.14579551875000002,-0.22865503375000001
11:12:16,0.11600622,0.10517578,-0.45590106,0.22149784,-0.13870338,-0.11360545999999999,-11.43673606,1.46953266,-23.81209208,27.5285811,-0.3813249902,0.11527205500000001,-0.24850350599999999,-0.03338697752000001,-0.14441197900000002,-0.226451829
11:12:16,0.11444211499999998,0.102219135,-0.456122395,0.21939378,-0.137190585,-0.111868945,-11.444246645,1.453831595,-23.80779261,27.588245075,-0.38177781465,0.11264916125000002,-0.24634123949999998,-0.032405380340000005,-0.14302843925,-0.22424862425
11:12:16,0.11287801,0.09926249,-0.45634373,0.21728972000000002,-0.13567779,-0.11013242999999999,-11.45175723,1.43813053,-23.80349314,27.64790905,-0.3822306391,0.11002626750000001,-0.244178973,-0.03142378316000001,-0.1416448995,-0.2220454195
11:12:16,0.11131390499999999,0.096305845,-0.45656506500000005,0.21518566,-0.134164995,-0.108395915,-11.459267814999999,1.422429465,-23.79919367,27.707573025,-0.38268346355,0.10740337375000002,-0.2420167065,-0.03044218598000001,-0.14026135975,-0.21984221475
11:12:16,0.1097498,0.0933492,-0.45678640000000004,0.2130816,-0.1326522,-0.10665939999999999,-11.466778399999999,1.4067284,-23.794894199999998,27.767237,-0.383136288,0.10478048000000001,-0.23985444,-0.029460588800000007,-0.13887782,-0.21763901000000002
11:12:16,0.10818569499999998,0.090392555,-0.457007735,0.21097754000000002,-0.131139405,-0.104922885,-11.474288985,1.391027335,-23.79059473,27.826900975,-0.38358911245,0.10215758625000002,-0.2376921735,-0.028478991620000005,-0.13749428025,-0.21543580525
11:12:16,0.10662158999999999,0.08743591,-0.45722907,0.20887348,-0.12962660999999998,-0.10318637,-11.48179957,1.37532627,-23.78629526,27.88656495,-0.3840419369,0.09953469250000002,-0.23552990699999998,-0.027497394440000003,-0.1361107405,-0.2132326005
11:12:16,0.10505748499999999,0.084479265,-0.457450405,0.20676942,-0.128113815,-0.10144985499999999,-11.489310155,1.359625205,-23.78199579,27.946228925,-0.38449476135,0.09691179875000001,-0.2333676405,-0.02651579726000001,-0.13472720075,-0.21102939575000002
11:12:16,0.10349338,0.08152261999999999,-0.45767174000000005,0.20466536000000002,-0.12660102,-0.09971334,-11.496820739999999,1.3439241400000002,-23.77769632,28.0058929,-0.3849475858,0.09428890500000002,-0.231205374,-0.025534200080000007,-0.133343661,-0.208826191
11:12:16,0.10192927499999999,0.07856597500000001,-0.45789307500000004,0.2025613,-0.125088225,-0.09797682499999999,-11.504331324999999,1.3282230750000001,-23.77339685,28.065556875,-0.38540041025,0.09166601125000001,-0.2290431075,-0.024552602900000005,-0.13196012125,-0.20662298625
11:12:16,0.10036516999999999,0.07560933,-0.45811441,0.20045724,-0.12357543,-0.09624031,-11.51184191,1.3125220100000001,-23.769097379999998,28.125220849999998,-0.3858532347,0.08904311750000002,-0.226880841,-0.02357100572000001,-0.1305765815,-0.2044197815
11:12:16,0.098801065,0.072652685,-0.458335745,0.19835318000000002,-0.12206263499999999,-0.09450379499999999,-11.519352495,1.2968209450000001,-23.76479791,28.184884825,-0.38630605915,0.08642022375000001,-0.2247185745,-0.02258940854000001,-0.12919304175000001,-0.20221657675
11:12:16,0.09723695999999998,0.06969604000000001,-0.45855708,0.19624912,-0.12054983999999999,-0.09276728,-11.52686308,1.28111988,-23.76049844,28.2445488,-0.3867588836,0.08379733000000003,-0.22255630799999998,-0.021607811360000007,-0.12780950200000002,-0.200013372
11:12:16,0.09567285499999999,0.066739395,-0.45877841500000005,0.19414506,-0.119037045,-0.091030765,-11.534373664999999,1.265418815,-23.75619897,28.304212775,-0.38721170805,0.08117443625000001,-0.2203940415,-0.020626214180000005,-0.12642596225000002,-0.19781016725
11:12:16,0.09410874999999999,0.06378275,-0.45899975000000004,0.19204100000000002,-0.11752425,-0.08929424999999999,-11.541884249999999,1.24971775,-23.7518995,28.36387675,-0.3876645325,0.07855154250000002,-0.218231775,-0.019644617000000003,-0.1250424225,-0.19560696249999998
11:12:16,0.092544645,0.06082610499999999,-0.45922108500000003,0.18993694,-0.116011455,-0.087557735,-11.549394835,1.234016685,-23.74760003,28.423540725,-0.38811735695,0.07592864875000002,-0.2160695085,-0.01866301982000001,-0.12365888275,-0.19340375775000002
