Timestamp,linacce_x,linacce_y,linacce_z,gyro_x,gyro_y,gyro_z,X-magnetometer,Y-magnetometer,Z-magnetometer,Yaw, worldXAccel,worldYAccel,worldZAccel,worldXgyro,worldYgyro,worldZgyro
11:22:53,0.114998,0.096588,0.085338,-0.02732,0.100249,-0.096875,-15.169922,-5.435028,-25.890327,38.863754,0.13303252,0.0965344,-0.09428914,-0.09697307,0.10056756,-0.050415345
11:22:53,0.1156007,0.09445619999999999,0.08576542499999999,-0.030324280000000002,0.096823905,-0.095740405,-15.16967603,-5.42515175,-25.886950155,38.84292621,0.13365326859999999,0.0944048913,-0.0937474389,-0.09808491864999999,0.0973512532,-0.046333264275
11:22:53,0.1162034,0.09232439999999999,0.08619285,-0.03332856,0.09339881,-0.09460581,-15.16943006,-5.4152755,-25.88357331,38.82209842,0.13427401719999998,0.09227538260000001,-0.0932057378,-0.09919676729999999,0.0941349464,-0.04225118355
11:22:53,0.1168061,0.0901926,0.086620275,-0.03633284,0.08997371500000001,-0.093471215,-15.16918409,-5.40539925,-25.880196465,38.80127063,0.13489476579999998,0.0901458739,-0.0926640367,-0.10030861595,0.0909186396,-0.038169102824999995
11:22:53,0.11740880000000001,0.0880608,0.08704769999999999,-0.03933712,0.08654862,-0.09233662000000001,-15.16893812,-5.395523,-25.87681962,38.78044284,0.13551551439999998,0.0880163652,-0.0921223356,-0.1014204646,0.0877023328,-0.0340870221
11:22:53,0.1180115,0.08592899999999999,0.087475125,-0.0423414,0.083123525,-0.091202025,-15.16869215,-5.38564675,-25.873442775,38.75961505,0.13613626299999998,0.0858868565,-0.0915806345,-0.10253231324999999,0.08448602599999999,-0.030004941375
11:22:53,0.1186142,0.08379719999999999,0.08790255,-0.04534568,0.07969843,-0.09006743,-15.16844618,-5.3757705,-25.87006593,38.73878726,0.13675701159999998,0.0837573478,-0.0910389334,-0.10364416189999999,0.0812697192,-0.025922860649999997
11:22:53,0.1192169,0.0816654,0.08832997499999999,-0.04834996,0.076273335,-0.088932835,-15.16820021,-5.36589425,-25.866689085,38.71795947,0.13737776019999998,0.0816278391,-0.0904972323,-0.10475601055,0.0780534124,-0.021840779924999998
11:22:53,0.1198196,0.0795336,0.0887574,-0.051354239999999995,0.07284824000000001,-0.08779824,-15.16795424,-5.356018,-25.86331224,38.69713168,0.13799850879999997,0.07949833040000001,-0.0899555312,-0.1058678592,0.0748371056,-0.0177586992
11:22:53,0.12042230000000001,0.07740179999999999,0.089184825,-0.054358519999999994,0.069423145,-0.086663645,-15.16770827,-5.34614175,-25.859935395,38.67630389,0.1386192574,0.0773688217,-0.0894138301,-0.10697970785,0.0716207988,-0.013676618475
11:22:53,0.12102500000000001,0.07526999999999999,0.08961225,-0.0573628,0.06599805,-0.08552905,-15.1674623,-5.3362655,-25.85655855,38.6554761,0.139240006,0.075239313,-0.088872129,-0.10809155649999999,0.068404492,-0.00959453775
11:22:53,0.1216277,0.07313819999999999,0.090039675,-0.060367080000000004,0.062572955,-0.08439445500000001,-15.16721633,-5.32638925,-25.853181705,38.63464831,0.1398607546,0.0731098043,-0.0883304279,-0.10920340514999999,0.0651881852,-0.0055124570250000005
11:22:53,0.1222304,0.0710064,0.0904671,-0.06337136,0.05914786,-0.08325986,-15.16697036,-5.316513,-25.84980486,38.61382052,0.1404815032,0.0709802956,-0.0877887268,-0.1103152538,0.0619718784,-0.0014303762999999942
11:22:53,0.1228331,0.0688746,0.090894525,-0.06637564,0.055722765,-0.082125265,-15.166724389999999,-5.30663675,-25.846428015,38.59299273,0.1411022518,0.0688507869,-0.0872470257,-0.11142710245,0.0587555716,0.002651704425000005
11:22:53,0.1234358,0.06674279999999999,0.09132195,-0.06937992,0.05229767,-0.08099067,-15.166478419999999,-5.2967604999999995,-25.84305117,38.57216494,0.1417230004,0.06672127820000001,-0.0867053246,-0.11253895109999999,0.055539264799999995,0.0067337851500000045
11:22:53,0.1240385,0.064611,0.091749375,-0.0723842,0.048872575,-0.079856075,-15.166232449999999,-5.28688425,-25.839674325,38.55133715,0.142343749,0.06459176950000001,-0.0861636235,-0.11365079974999999,0.052322957999999996,0.010815865875000004
11:22:53,0.12464120000000001,0.06247919999999999,0.0921768,-0.07538848,0.04544748,-0.07872148000000001,-15.165986479999999,-5.277008,-25.83629748,38.53050936,0.1429644976,0.0624622608,-0.0856219224,-0.1147626484,0.0491066512,0.014897946600000003
11:22:53,0.1252439,0.06034739999999999,0.092604225,-0.07839275999999999,0.042022384999999995,-0.07758688500000001,-15.16574051,-5.26713175,-25.832920635,38.50968157,0.1435852462,0.060332752100000005,-0.0850802213,-0.11587449705,0.0458903444,0.01898002732500001
11:22:53,0.1258466,0.05821559999999999,0.09303165,-0.08139703999999999,0.03859729,-0.07645229,-15.16549454,-5.2572555,-25.82954379,38.48885378,0.1442059948,0.0582032434,-0.0845385202,-0.1169863457,0.0426740376,0.023062108050000002
11:22:53,0.12644930000000001,0.05608379999999999,0.093459075,-0.08440132,0.035172195,-0.075317695,-15.16524857,-5.24737925,-25.826166945,38.46802599,0.14482674339999999,0.0560737347,-0.0839968191,-0.11809819434999999,0.03945773079999999,0.027144188775000008
11:22:53,0.127052,0.05395199999999999,0.0938865,-0.0874056,0.0317471,-0.0741831,-15.1650026,-5.237503,-25.8227901,38.4471982,0.14544749199999998,0.053944226,-0.083455118,-0.11921004299999999,0.036241423999999994,0.0312262695
11:22:53,0.1276547,0.05182019999999999,0.09431392499999999,-0.09040988,0.028322004999999997,-0.073048505,-15.16475663,-5.22762675,-25.819413255,38.42637041,0.14606824059999998,0.0518147173,-0.0829134169,-0.12032189164999998,0.033025117199999995,0.03530835022500001
11:22:53,0.1282574,0.049688399999999994,0.09474135,-0.09341416,0.024896909999999994,-0.07191391,-15.16451066,-5.2177505,-25.81603641,38.40554262,0.14668898919999998,0.0496852086,-0.0823717158,-0.1214337403,0.029808810399999996,0.03939043095
11:22:53,0.1288601,0.04755659999999999,0.095168775,-0.09641844,0.02147181499999999,-0.07077931500000001,-15.16426469,-5.20787425,-25.812659565,38.38471483,0.14730973779999998,0.0475556999,-0.0818300147,-0.12254558894999999,0.026592503599999998,0.043472511675000006
11:22:53,0.1294628,0.04542479999999999,0.09559619999999999,-0.09942271999999999,0.01804671999999999,-0.06964472000000001,-15.16401872,-5.197998,-25.80928272,38.36388704,0.14793048639999998,0.0454261912,-0.0812883136,-0.12365743759999999,0.0233761968,0.04755459240000001
11:22:53,0.1300655,0.04329299999999999,0.096023625,-0.10242699999999999,0.014621625,-0.068510125,-15.16377275,-5.18812175,-25.805905875,38.34305925,0.14855123499999998,0.0432966825,-0.0807466125,-0.12476928625,0.02015989,0.051636673125000004
11:22:53,0.1306682,0.04116119999999999,0.09645105,-0.10543127999999999,0.011196529999999996,-0.06737553,-15.16352678,-5.1782455,-25.80252903,38.32223146,0.1491719836,0.0411671738,-0.0802049114,-0.1258811349,0.0169435832,0.05571875385000001
11:22:53,0.1312709,0.03902939999999999,0.09687847499999999,-0.10843555999999999,0.007771434999999993,-0.066240935,-15.16328081,-5.16836925,-25.799152185,38.30140367,0.1497927322,0.0390376651,-0.0796632103,-0.12699298355,0.013727276399999988,0.059800834575
11:22:53,0.1318736,0.03689759999999999,0.0973059,-0.11143984,0.00434633999999999,-0.06510634000000001,-15.16303484,-5.158493,-25.79577534,38.28057588,0.1504134808,0.0369081564,-0.0791215092,-0.1281048322,0.01051096959999999,0.06388291530000001
11:22:53,0.1324763,0.03476579999999999,0.097733325,-0.11444412,0.0009212449999999872,-0.063971745,-15.16278887,-5.14861675,-25.792398495,38.25974809,0.1510342294,0.0347786477,-0.0785798081,-0.12921668085,0.00729466279999999,0.067964996025
11:22:53,0.133079,0.032633999999999996,0.09816074999999999,-0.1174484,-0.002503850000000002,-0.06283715000000001,-15.1625429,-5.1387405,-25.78902165,38.238920300000004,0.151654978,0.032649138999999994,-0.078038107,-0.13032852949999998,0.004078355999999991,0.07204707675000001
11:22:53,0.13368170000000001,0.030502199999999993,0.098588175,-0.12045267999999999,-0.005928945000000005,-0.061702555000000006,-15.16229693,-5.12886425,-25.785644805,38.21809251,0.1522757266,0.030519630300000003,-0.0774964059,-0.13144037814999998,0.0008620491999999924,0.07612915747500001
11:22:53,0.1342844,0.02837039999999999,0.0990156,-0.12345695999999999,-0.009354040000000008,-0.060567960000000004,-15.16205096,-5.118988,-25.78226796,38.19726472,0.1528964752,0.0283901216,-0.0769547048,-0.1325522268,-0.0023542576000000065,0.0802112382
11:22:53,0.1348871,0.026238599999999987,0.099443025,-0.12646124,-0.012779135000000011,-0.059433365,-15.16180499,-5.10911175,-25.778891115,38.17643693,0.1535172238,0.026260612899999994,-0.0764130037,-0.13366407544999998,-0.005570564400000005,0.084293318925
11:22:53,0.1354898,0.024106799999999984,0.09987045,-0.12946552,-0.016204230000000014,-0.05829877000000001,-15.16155902,-5.0992355,-25.77551427,38.15560914,0.1541379724,0.024131104200000003,-0.0758713026,-0.1347759241,-0.008786871200000004,0.08837539965000002
11:22:53,0.1360925,0.021974999999999995,0.100297875,-0.1324698,-0.019629325000000003,-0.057164175000000005,-15.16131305,-5.08935925,-25.772137425,38.13478135,0.154758721,0.0220015955,-0.0753296015,-0.13588777275,-0.012003178000000003,0.09245748037500001
11:22:53,0.13669520000000002,0.01984319999999999,0.1007253,-0.13547408,-0.023054420000000006,-0.05602958,-15.16106708,-5.079483,-25.76876058,38.11395356,0.1553794696,0.019872086799999994,-0.0747879004,-0.1369996214,-0.015219484800000002,0.0965395611
11:22:53,0.1372979,0.017711399999999988,0.101152725,-0.13847836,-0.02647951500000001,-0.05489498500000001,-15.16082111,-5.06960675,-25.765383735,38.09312577,0.15600021819999998,0.017742578100000003,-0.0742461993,-0.13811147005,-0.0184357916,0.100621641825
11:22:53,0.1379006,0.015579599999999985,0.10158015,-0.14148264,-0.029904609999999998,-0.053760390000000005,-15.160575139999999,-5.0597305,-25.76200689,38.07229798,0.15662096679999998,0.015613069399999999,-0.0737044982,-0.1392233187,-0.021652098400000014,0.10470372255000002
11:22:53,0.1385033,0.013447799999999996,0.102007575,-0.14448692,-0.033329705000000015,-0.052625795,-15.160329169999999,-5.04985425,-25.758630045,38.05147019,0.15724171539999998,0.013483560699999994,-0.0731627971,-0.14033516734999998,-0.0248684052,0.10878580327500001
11:22:53,0.139106,0.011315999999999993,0.102435,-0.1474912,-0.036754800000000004,-0.0514912,-15.160083199999999,-5.039978,-25.7552532,38.0306424,0.15786246399999998,0.01135405199999999,-0.072621096,-0.14144701599999998,-0.02808471200000001,0.112867884
11:22:53,0.1397087,0.00918419999999999,0.10286242500000001,-0.15049548,-0.04017989500000002,-0.050356605000000006,-15.159837229999999,-5.03010175,-25.751876355,38.00981461,0.15848321259999998,0.009224543299999999,-0.0720793949,-0.14255886465,-0.0313010188,0.11694996472500002
11:22:53,0.1403114,0.0070523999999999865,0.10328985,-0.15349976,-0.04360499000000001,-0.049222010000000004,-15.15959126,-5.0202255000000005,-25.74849951,37.98898682,0.15910396119999998,0.007095034599999994,-0.0715376938,-0.14367071329999997,-0.03451732560000001,0.12103204545000001
11:22:53,0.1409141,0.004920599999999983,0.103717275,-0.15650404,-0.047030085,-0.048087415,-15.15934529,-5.01034925,-25.745122665,37.96815903,0.15972470979999998,0.00496552589999999,-0.0709959927,-0.14478256195,-0.03773363240000002,0.125114126175
11:22:53,0.1415168,0.002788799999999994,0.1041447,-0.15950832,-0.050455180000000016,-0.046952820000000006,-15.15909932,-5.000473,-25.74174582,37.947331240000004,0.1603454584,0.002836017199999999,-0.0704542916,-0.1458944106,-0.04094993920000001,0.1291962069
11:22:53,0.1421195,0.0006569999999999909,0.104572125,-0.1625126,-0.053880275000000005,-0.045818225000000004,-15.15885335,-4.99059675,-25.738368975,37.92650345,0.160966207,0.0007065084999999943,-0.0699125905,-0.14700625925,-0.04416624600000002,0.13327828762500002
11:22:53,0.1427222,-0.0014748000000000122,0.10499955,-0.16551688,-0.05730537000000002,-0.04468363,-15.15860738,-4.9807205,-25.73499213,37.90567566,0.1615869556,-0.0014230002000000103,-0.0693708894,-0.1481181079,-0.047382552800000005,0.13736036835
11:22:53,0.1433249,-0.0036066000000000153,0.105426975,-0.16852116,-0.06073046500000001,-0.04354903500000001,-15.15836141,-4.97084425,-25.731615285,37.88484787,0.1622077042,-0.003552508900000001,-0.0688291883,-0.14922995655,-0.05059885960000002,0.141442449075
11:22:53,0.1439276,-0.0057384000000000185,0.1058544,-0.17152544,-0.06415556000000003,-0.042414440000000005,-15.15811544,-4.960968,-25.72823844,37.86402008,0.1628284528,-0.0056820176000000056,-0.0682874872,-0.15034180519999998,-0.0538151664,0.14552452980000002
11:22:53,0.1445303,-0.007870200000000008,0.106281825,-0.17452972,-0.06758065500000002,-0.041279845,-15.15786947,-4.95109175,-25.724861595,37.84319229,0.1634492014,-0.00781152630000001,-0.0677457861,-0.15145365384999998,-0.057031473200000016,0.14960661052500002
11:22:53,0.145133,-0.010002000000000011,0.10670925,-0.177534,-0.07100575,-0.04014525000000001,-15.1576235,-4.9412155,-25.72148475,37.8223645,0.16406995,-0.009941035,-0.067204085,-0.1525655025,-0.06024778,0.15368869125
11:22:53,0.1457357,-0.012133800000000014,0.107136675,-0.18053828,-0.07443084500000002,-0.039010655000000005,-15.15737753,-4.93133925,-25.718107905,37.80153671,0.1646906986,-0.012070543700000005,-0.0666623839,-0.15367735114999997,-0.06346408680000001,0.157770771975
11:22:53,0.1463384,-0.014265600000000017,0.1075641,-0.18354256,-0.07785594000000001,-0.03787606,-15.15713156,-4.921463,-25.71473106,37.78070892,0.1653114472,-0.01420005240000001,-0.0661206828,-0.1547891998,-0.0666803936,0.16185285270000002
11:22:53,0.1469411,-0.016397400000000006,0.107991525,-0.18654684,-0.08128103500000003,-0.03674146500000001,-15.15688559,-4.91158675,-25.711354215,37.759881130000004,0.1659321958,-0.0163295611,-0.0655789817,-0.15590104845,-0.06989670040000001,0.16593493342500001
11:22:53,0.1475438,-0.01852920000000001,0.10841895,-0.18955112,-0.08470613000000002,-0.035606870000000006,-15.15663962,-4.9017105,-25.70797737,37.73905334,0.16655294439999999,-0.018459069800000005,-0.0650372806,-0.1570128971,-0.07311300720000002,0.17001701415
11:22:53,0.14814650000000001,-0.020661000000000013,0.108846375,-0.1925554,-0.08813122500000001,-0.034472275000000004,-15.15639365,-4.89183425,-25.704600525,37.71822555,0.16717369299999998,-0.02058857850000001,-0.0644955795,-0.15812474575,-0.07632931400000001,0.174099094875
11:22:53,0.1487492,-0.022792800000000016,0.1092738,-0.19555968,-0.09155632000000002,-0.03333768000000001,-15.15614768,-4.881958,-25.70122368,37.69739776,0.16779444159999998,-0.0227180872,-0.0639538784,-0.1592365944,-0.07954562080000002,0.17818117560000002
11:22:53,0.1493519,-0.02492460000000002,0.109701225,-0.19856396,-0.09498141500000001,-0.032203085000000006,-15.15590171,-4.8720817499999995,-25.697846835,37.67656997,0.16841519019999998,-0.024847595900000005,-0.0634121773,-0.16034844304999998,-0.08276192760000001,0.182263256325
11:22:53,0.1499546,-0.027056400000000008,0.11012865,-0.20156824,-0.09840651000000003,-0.031068490000000004,-15.15565574,-4.8622055,-25.694469989999998,37.655742180000004,0.1690359388,-0.02697710460000001,-0.0628704762,-0.16146029169999998,-0.08597823440000002,0.18634533705
11:22:53,0.1505573,-0.02918820000000001,0.110556075,-0.20457252,-0.10183160500000002,-0.029933895000000002,-15.15540977,-4.85232925,-25.691093145,37.63491439,0.1696566874,-0.029106613300000014,-0.0623287751,-0.16257214035,-0.0891945412,0.19042741777500002
11:22:53,0.15116000000000002,-0.03132,0.1109835,-0.2075768,-0.10525670000000001,-0.0287993,-15.1551638,-4.842453,-25.687716299999998,37.6140866,0.170277436,-0.03123612200000002,-0.061787074,-0.16368398899999997,-0.09241084800000002,0.19450949850000002
11:22:53,0.1517627,-0.03345180000000002,0.111410925,-0.21058108,-0.10868179500000003,-0.02766470500000001,-15.15491783,-4.83257675,-25.684339455,37.59325881,0.1708981846,-0.033365630699999996,-0.0612453729,-0.16479583765,-0.0956271548,0.198591579225
11:22:53,0.15236539999999998,-0.03558360000000001,0.11183835,-0.21358536,-0.11210689000000001,-0.02653011000000001,-15.15467186,-4.8227005,-25.680962609999998,37.57243102,0.1715189332,-0.0354951394,-0.0607036718,-0.1659076863,-0.09884346160000002,0.20267365995000003
11:22:53,0.1529681,-0.037715400000000024,0.112265775,-0.21658964,-0.11553198500000003,-0.025395515000000007,-15.154425889999999,-4.81282425,-25.677585765,37.55160323,0.1721396818,-0.037624648100000005,-0.0601619707,-0.16701953495,-0.1020597684,0.20675574067500002
11:22:53,0.1535708,-0.03984720000000001,0.1126932,-0.21959392,-0.11895708000000002,-0.024260920000000005,-15.154179919999999,-4.802948,-25.674208919999998,37.53077544,0.1727604304,-0.03975415680000001,-0.0596202696,-0.1681313836,-0.10527607520000001,0.21083782140000001
11:22:53,0.1541735,-0.041979,0.113120625,-0.2225982,-0.12238217500000001,-0.023126325000000003,-15.153933949999999,-4.79307175,-25.670832075,37.50994765,0.173381179,-0.041883665500000014,-0.0590785685,-0.16924323225,-0.10849238200000003,0.214919902125
11:22:53,0.1547762,-0.04411080000000002,0.11354805,-0.22560248,-0.12580727000000003,-0.02199173,-15.153687979999999,-4.7831955,-25.667455229999998,37.48911986,0.1740019276,-0.04401317420000002,-0.0585368674,-0.17035508089999998,-0.11170868880000001,0.21900198285
11:22:53,0.1553789,-0.04624260000000001,0.11397547499999999,-0.22860676,-0.12923236500000002,-0.020857135,-15.15344201,-4.77331925,-25.664078385,37.468292070000004,0.1746226762,-0.04614268290000002,-0.0579951663,-0.17146692954999998,-0.11492499560000002,0.223084063575
11:22:53,0.1559816,-0.048374400000000026,0.1144029,-0.23161104,-0.13265746000000003,-0.01972254000000001,-15.15319604,-4.763443,-25.660701539999998,37.44746428,0.1752434248,-0.0482721916,-0.0574534652,-0.1725787782,-0.11814130240000001,0.22716614430000004
11:22:53,0.1565843,-0.050506200000000015,0.114830325,-0.23461532,-0.13608255500000002,-0.01858794500000001,-15.15295007,-4.75356675,-25.657324695,37.42663649,0.1758641734,-0.050401700300000005,-0.0569117641,-0.17369062684999997,-0.12135760920000002,0.23124822502500003
11:22:53,0.157187,-0.052638000000000004,0.11525774999999999,-0.2376196,-0.13950765,-0.017453350000000006,-15.1527041,-4.7436905,-25.653947849999998,37.4058087,0.176484922,-0.05253120900000001,-0.056370063,-0.1748024755,-0.124573916,0.23533030575000002
11:22:53,0.1577897,-0.05476980000000002,0.115685175,-0.24062387999999998,-0.14293274500000003,-0.016318755000000004,-15.15245813,-4.73381425,-25.650571005,37.38498091,0.1771056706,-0.054660717700000014,-0.0558283619,-0.17591432415,-0.12779022280000002,0.23941238647500002
11:22:53,0.1583924,-0.05690160000000001,0.1161126,-0.24362815999999998,-0.14635784000000002,-0.015184160000000002,-15.15221216,-4.723938,-25.647194159999998,37.364153120000005,0.17772641919999999,-0.05679022640000002,-0.0552866608,-0.1770261728,-0.1310065296,0.2434944672
11:22:53,0.1589951,-0.05903340000000003,0.116540025,-0.24663244,-0.14978293500000003,-0.014049565,-15.15196619,-4.71406175,-25.643817315,37.34332533,0.17834716779999998,-0.05891973510000002,-0.0547449597,-0.17813802145,-0.13422283640000002,0.247576547925
11:22:53,0.1595978,-0.06116520000000002,0.11696745,-0.24963672,-0.15320803000000002,-0.012914970000000012,-15.15172022,-4.7041855,-25.640440469999998,37.32249754,0.17896791639999998,-0.0610492438,-0.0542032586,-0.17924987009999999,-0.1374391432,0.25165862865
11:22:53,0.1602005,-0.063297,0.11739487500000001,-0.252641,-0.156633125,-0.01178037500000001,-15.15147425,-4.69430925,-25.637063625,37.30166975,0.17958866499999998,-0.0631787525,-0.0536615575,-0.18036171874999998,-0.14065545000000002,0.25574070937500004
11:22:53,0.1608032,-0.06542880000000002,0.11782229999999999,-0.25564528,-0.16005822,-0.010645780000000007,-15.15122828,-4.684433,-25.633686779999998,37.280841960000004,0.18020941359999998,-0.06530826120000001,-0.0531198564,-0.18147356739999998,-0.14387175680000003,0.25982279010000003
11:22:53,0.1614059,-0.06756060000000001,0.118249725,-0.25864956,-0.16348331500000005,-0.009511185000000005,-15.15098231,-4.67455675,-25.630309935,37.26001417,0.18083016219999998,-0.06743776990000001,-0.0525781553,-0.18258541605,-0.1470880636,0.263904870825
11:22:53,0.1620086,-0.0696924,0.11867715000000001,-0.26165383999999997,-0.16690841000000003,-0.008376590000000003,-15.15073634,-4.6646805,-25.626933089999998,37.23918638,0.18145091079999998,-0.06956727860000002,-0.0520364542,-0.18369726469999997,-0.1503043704,0.26798695155
11:22:53,0.16261130000000001,-0.07182420000000002,0.119104575,-0.26465812,-0.17033350500000002,-0.007241995000000001,-15.15049037,-4.65480425,-25.623556245,37.21835859,0.1820716594,-0.07169678730000002,-0.0514947531,-0.18480911335,-0.1535206772,0.272069032275
11:22:53,0.163214,-0.07395600000000001,0.119532,-0.26766239999999997,-0.1737586,-0.006107399999999999,-15.1502444,-4.644928,-25.620179399999998,37.1975308,0.182692408,-0.07382629600000003,-0.050953052,-0.185920962,-0.15673698400000002,0.276151113
11:22:53,0.1638167,-0.07608780000000002,0.11995942500000001,-0.27066668,-0.177183695,-0.004972805000000011,-15.14999843,-4.63505175,-25.616802555,37.176703010000004,0.1833131566,-0.0759558047,-0.0504113509,-0.18703281065,-0.15995329080000004,0.280233193725
11:22:53,0.1644194,-0.07821960000000001,0.12038685,-0.27367095999999996,-0.18060879000000005,-0.0038382100000000086,-15.14975246,-4.6251755,-25.613425709999998,37.15587522,0.1839339052,-0.07808531340000001,-0.0498696498,-0.1881446593,-0.1631695976,0.28431527445000004
11:22:53,0.1650221,-0.0803514,0.120814275,-0.27667524,-0.18403388500000004,-0.0027036150000000064,-15.14950649,-4.61529925,-25.610048865,37.13504743,0.1845546538,-0.08021482210000001,-0.0493279487,-0.18925650794999999,-0.1663859044,0.28839735517500004
11:22:53,0.16562480000000002,-0.08248320000000002,0.12124170000000001,-0.27967952,-0.18745898000000003,-0.0015690200000000043,-15.14926052,-4.605423,-25.606672019999998,37.11421964,0.1851754024,-0.08234433080000002,-0.0487862476,-0.19036835659999998,-0.16960221120000002,0.29247943590000003
11:22:53,0.1662275,-0.08461500000000001,0.121669125,-0.2826838,-0.19088407500000001,-0.00043442500000000217,-15.14901455,-4.5955467500000005,-25.603295175,37.09339185,0.185796151,-0.08447383950000002,-0.0482445465,-0.19148020524999998,-0.17281851800000003,0.296561516625
11:22:53,0.16683019999999998,-0.08674680000000003,0.12209655,-0.28568808,-0.19430917,0.00070017,-15.14876858,-4.5856705,-25.599918329999998,37.072564060000005,0.1864168996,-0.08660334820000003,-0.0477028454,-0.1925920539,-0.17603482480000004,0.30064359735
11:22:53,0.1674329,-0.08887860000000002,0.12252397500000001,-0.28869236,-0.19773426500000005,0.0018347649999999882,-15.14852261,-4.5757942499999995,-25.596541485,37.05173627,0.1870376482,-0.0887328569,-0.0471611443,-0.19370390254999997,-0.1792511316,0.304725678075
11:22:53,0.1680356,-0.0910104,0.1229514,-0.29169664,-0.20115936000000004,0.0029693599999999903,-15.148276639999999,-4.565918,-25.593164639999998,37.03090848,0.1876583968,-0.09086236560000001,-0.0466194432,-0.1948157512,-0.18246743840000001,0.3088077588
11:22:53,0.1686383,-0.09314220000000002,0.123378825,-0.29470092,-0.20458445500000003,0.0041039549999999925,-15.148030669999999,-4.55604175,-25.589787795,37.01008069,0.1882791454,-0.09299187430000001,-0.0460777421,-0.19592759984999997,-0.18568374520000003,0.31288983952500005
11:22:53,0.169241,-0.09527400000000001,0.12380625,-0.2977052,-0.20800955000000002,0.005238549999999995,-15.147784699999999,-4.5461655,-25.586410949999998,36.989252900000004,0.18889989399999998,-0.09512138300000002,-0.045536041,-0.1970394485,-0.18890005200000004,0.31697192025000004
11:22:53,0.1698437,-0.09740580000000003,0.124233675,-0.30070948,-0.211434645,0.006373144999999997,-15.147538729999999,-4.53628925,-25.583034105,36.96842511,0.18952064259999998,-0.09725089170000002,-0.0449943399,-0.19815129715,-0.1921163588,0.32105400097500003
11:22:53,0.1704464,-0.09953760000000002,0.1246611,-0.30371376,-0.21485974000000005,0.007507739999999999,-15.14729276,-4.526413,-25.579657259999998,36.94759732,0.1901413912,-0.09938040040000003,-0.0444526388,-0.19926314579999999,-0.1953326656,0.3251360817
11:22:53,0.1710491,-0.10166940000000001,0.125088525,-0.30671803999999997,-0.21828483500000004,0.008642334999999987,-15.14704679,-4.51653675,-25.576280415,36.92676953,0.1907621398,-0.1015099091,-0.0439109377,-0.20037499444999998,-0.19854897240000002,0.329218162425
11:22:53,0.1716518,-0.10380120000000002,0.12551595,-0.30972232,-0.22170993000000003,0.00977692999999999,-15.14680082,-4.5066605,-25.572903569999998,36.90594174,0.1913828884,-0.10363941780000001,-0.0433692366,-0.20148684309999998,-0.20176527920000004,0.33330024315
11:22:53,0.1722545,-0.10593300000000001,0.125943375,-0.31272659999999997,-0.22513502500000002,0.010911524999999991,-15.14655485,-4.49678425,-25.569526725,36.885113950000004,0.192003637,-0.10576892650000001,-0.0428275355,-0.20259869175,-0.204981586,0.337382323875
11:22:53,0.1728572,-0.10806480000000003,0.1263708,-0.31573088,-0.22856012000000006,0.012046119999999993,-15.14630888,-4.486908,-25.566149879999998,36.86428616,0.1926243856,-0.10789843520000002,-0.0422858344,-0.20371054039999997,-0.2081978928,0.34146440460000005
11:22:53,0.1734599,-0.11019660000000002,0.126798225,-0.31873516,-0.23198521500000005,0.013180714999999996,-15.14606291,-4.47703175,-25.562773035,36.84345837,0.1932451342,-0.11002794390000002,-0.0417441333,-0.20482238905,-0.21141419960000002,0.34554648532500004
11:22:53,0.1740626,-0.11232840000000001,0.12722565,-0.32173944,-0.23541031000000004,0.014315309999999998,-15.14581694,-4.4671555000000005,-25.559396189999998,36.82263058,0.1938658828,-0.11215745260000003,-0.0412024322,-0.20593423769999997,-0.21463050640000003,0.34962856605000003
11:22:53,0.1746653,-0.11446020000000003,0.127653075,-0.32474372,-0.23883540500000003,0.015449905,-15.14557097,-4.45727925,-25.556019345,36.80180279,0.1944866314,-0.11428696130000003,-0.0406607311,-0.20704608635,-0.21784681320000004,0.353710646775
11:22:53,0.175268,-0.11659200000000002,0.12808049999999999,-0.327748,-0.24226050000000002,0.016584499999999988,-15.145325,-4.4474029999999996,-25.552642499999997,36.780975,0.19510738,-0.11641647000000001,-0.04011903,-0.208157935,-0.22106312,0.3577927275
11:22:53,0.1758707,-0.1187238,0.128507925,-0.33075228,-0.24568559500000006,0.01771909499999999,-15.14507903,-4.43752675,-25.549265655,36.76014721,0.1957281286,-0.11854597870000001,-0.0395773289,-0.20926978364999999,-0.22427942680000001,0.361874808225
11:22:53,0.1764734,-0.12085560000000002,0.12893535,-0.33375656,-0.24911069000000005,0.018853689999999992,-15.14483306,-4.4276505,-25.54588881,36.73931942,0.1963488772,-0.12067548740000002,-0.0390356278,-0.21038163229999998,-0.22749573360000003,0.36595688895
11:22:53,0.17707610000000001,-0.12298740000000001,0.12936277499999999,-0.33676084,-0.25253578500000007,0.019988284999999995,-15.14458709,-4.41777425,-25.542511965,36.71849163,0.1969696258,-0.12280499610000002,-0.0384939267,-0.21149348094999998,-0.23071204040000004,0.370038969675
11:22:53,0.1776788,-0.12511920000000004,0.1297902,-0.33976512,-0.25596088000000006,0.021122879999999997,-15.14434112,-4.407898,-25.53913512,36.697663840000004,0.1975903744,-0.12493450480000003,-0.0379522256,-0.2126053296,-0.2339283472,0.37412105040000004
11:22:53,0.17828149999999998,-0.127251,0.130217625,-0.3427694,-0.25938597500000005,0.022257475,-15.14409515,-4.39802175,-25.535758275,36.67683605,0.198211123,-0.12706401350000002,-0.0374105245,-0.21371717824999997,-0.237144654,0.37820313112500004
11:22:53,0.1788842,-0.12938280000000002,0.13064505,-0.34577367999999997,-0.26281107000000004,0.023392069999999987,-15.14384918,-4.3881455,-25.53238143,36.65600826,0.1988318716,-0.12919352220000002,-0.0368688234,-0.2148290269,-0.24036096080000002,0.38228521185000003
11:22:53,0.1794869,-0.13151460000000004,0.131072475,-0.34877796,-0.266236165,0.02452666499999999,-15.14360321,-4.37826925,-25.529004585,36.63518047,0.19945262019999999,-0.13132303090000003,-0.0363271223,-0.21594087554999997,-0.24357726760000004,0.386367292575
11:22:53,0.18008960000000002,-0.1336464,0.1314999,-0.35178223999999997,-0.26966126,0.02566125999999999,-15.14335724,-4.368393,-25.52562774,36.61435268,0.20007336879999998,-0.13345253960000003,-0.0357854212,-0.2170527242,-0.24679357440000005,0.3904493733
11:22:53,0.1806923,-0.13577820000000002,0.131927325,-0.35478652,-0.273086355,0.026795854999999993,-15.14311127,-4.35851675,-25.522250895,36.593524890000005,0.20069411739999998,-0.13558204830000004,-0.0352437201,-0.21816457285,-0.2500098812,0.394531454025
11:22:53,0.18129499999999998,-0.13791000000000003,0.13235475,-0.35779079999999996,-0.27651145,0.027930449999999996,-15.1428653,-4.3486405,-25.51887405,36.5726971,0.20131486599999998,-0.13771155700000004,-0.034702019,-0.21927642149999998,-0.253226188,0.39861353475
11:22:53,0.1818977,-0.1400418,0.132782175,-0.36079508,-0.2799365450000001,0.029065044999999998,-15.14261933,-4.3387642500000005,-25.515497205,36.55186931,0.20193561459999998,-0.13984106570000004,-0.0341603179,-0.22038827014999998,-0.25644249480000003,0.40269561547500005
11:22:53,0.1825004,-0.1421736,0.1332096,-0.36379936,-0.2833616400000001,0.030199639999999986,-15.14237336,-4.328888,-25.51212036,36.53104152,0.20255636319999998,-0.1419705744,-0.0336186168,-0.22150011879999998,-0.25965880160000004,0.40677769620000004
11:22:53,0.18310310000000002,-0.14430540000000003,0.133637025,-0.36680364,-0.28678673500000007,0.031334235,-15.142127389999999,-4.31901175,-25.508743515,36.510213730000004,0.20317711179999998,-0.1441000831,-0.0330769157,-0.22261196744999998,-0.2628751084,0.41085977692500003
11:22:53,0.1837058,-0.14643720000000005,0.13406445,-0.36980792,-0.29021183000000006,0.03246882999999999,-15.141881419999999,-4.3091355,-25.50536667,36.489385940000005,0.20379786039999997,-0.1462295918,-0.0325352146,-0.22372381609999997,-0.2660914152,0.41494185765
11:22:53,0.1843085,-0.148569,0.134491875,-0.3728122,-0.29363692500000005,0.033603425000000006,-15.141635449999999,-4.29925925,-25.501989825,36.46855815,0.20441860899999997,-0.1483591005,-0.0319935135,-0.22483566475,-0.269307722,0.419023938375
11:22:53,0.1849112,-0.15070080000000002,0.13491930000000002,-0.37581648,-0.29706202000000004,0.034738019999999994,-15.141389479999999,-4.289383,-25.49861298,36.44773036,0.2050393576,-0.1504886092,-0.0314518124,-0.2259475134,-0.27252402880000004,0.4231060191
11:22:53,0.1855139,-0.15283260000000004,0.135346725,-0.37882076,-0.300487115,0.03587261499999998,-15.14114351,-4.2795067499999995,-25.495236135,36.42690257,0.2056601062,-0.15261811790000002,-0.0309101113,-0.22705936205,-0.2757403356,0.427188099825
11:22:53,0.1861166,-0.1549644,0.13577415,-0.38182504,-0.30391221,0.03700721,-15.14089754,-4.2696305,-25.49185929,36.406074780000004,0.2062808548,-0.15474762660000002,-0.0303684102,-0.2281712107,-0.2789566424,0.43127018055000005
11:22:53,0.1867193,-0.15709620000000002,0.13620157500000002,-0.38482932,-0.307337305,0.03814180499999999,-15.14065157,-4.25975425,-25.488482445,36.38524699,0.2069016034,-0.15687713530000003,-0.0298267091,-0.22928305934999998,-0.2821729492,0.43535226127500004
11:22:53,0.187322,-0.15922799999999998,0.136629,-0.3878336,-0.3107624,0.0392764,-15.1404056,-4.249878,-25.4851056,36.3644192,0.207522352,-0.15900664400000003,-0.029285008,-0.23039490799999998,-0.28538925600000004,0.43943434200000003
11:22:53,0.1879247,-0.1613598,0.137056425,-0.39083787999999997,-0.3141874950000001,0.04041099499999999,-15.14015963,-4.24000175,-25.481728755,36.34359141,0.2081431006,-0.16113615270000003,-0.0287433069,-0.23150675664999998,-0.28860556280000005,0.443516422725
11:22:53,0.1885274,-0.16349160000000001,0.13748385000000002,-0.39384216,-0.3176125900000001,0.04154558999999998,-15.13991366,-4.2301255,-25.47835191,36.32276362,0.2087638492,-0.16326566139999998,-0.0282016058,-0.23261860529999998,-0.2918218696,0.44759850345
11:22:53,0.1891301,-0.16562340000000003,0.137911275,-0.39684643999999997,-0.3210376850000001,0.042680184999999995,-15.13966769,-4.22024925,-25.474975065,36.301935830000005,0.2093845978,-0.1653951701,-0.0276599047,-0.23373045394999997,-0.2950381764,0.451680584175
11:22:53,0.18973279999999998,-0.1677552,0.1383387,-0.39985072,-0.32446278000000006,0.043814779999999984,-15.13942172,-4.210373,-25.47159822,36.28110804,0.21000534640000001,-0.1675246788,-0.0271182036,-0.2348423026,-0.29825448320000003,0.45576266490000006
11:22:53,0.1903355,-0.169887,0.13876612500000002,-0.40285499999999996,-0.32788787500000005,0.044949375,-15.13917575,-4.20049675,-25.468221375,36.26028025,0.210626095,-0.1696541875,-0.0265765025,-0.23595415125,-0.30147079000000004,0.459844745625
11:22:53,0.1909382,-0.17201880000000003,0.13919355,-0.40585928,-0.33131297000000004,0.04608396999999999,-15.13892978,-4.1906205,-25.46484453,36.23945246,0.2112468436,-0.1717836962,-0.0260348014,-0.2370659999,-0.3046870968,0.46392682635000004
11:22:53,0.19154090000000001,-0.1741506,0.139620975,-0.40886355999999996,-0.33473806500000003,0.047218565000000004,-15.13868381,-4.18074425,-25.461467685,36.218624670000004,0.2118675922,-0.1739132049,-0.0254931003,-0.23817784855,-0.3079034036,0.468008907075
11:22:53,0.1921436,-0.1762824,0.14004840000000002,-0.41186784,-0.33816316,0.04835315999999999,-15.13843784,-4.1708680000000005,-25.45809084,36.19779688,0.2124883408,-0.1760427136,-0.024951399200000002,-0.23928969719999998,-0.3111197104,0.47209098780000003
11:22:53,0.19274629999999998,-0.17841420000000002,0.140475825,-0.41487212,-0.341588255,0.04948775499999998,-15.13819187,-4.16099175,-25.454713995,36.17696909,0.2131090894,-0.17817222230000002,-0.024409698100000002,-0.24040154584999998,-0.31433601720000004,0.4761730685250001
11:22:53,0.193349,-0.18054599999999998,0.14090325,-0.4178764,-0.34501335,0.050622349999999997,-15.1379459,-4.1511154999999995,-25.45133715,36.1561413,0.213729838,-0.18030173100000002,-0.023867997000000002,-0.24151339449999998,-0.31755232400000005,0.48025514925
11:22:53,0.1939517,-0.1826778,0.14133067500000002,-0.42088068,-0.3484384450000001,0.051756944999999985,-15.13769993,-4.14123925,-25.447960305,36.13531351,0.2143505866,-0.18243123970000003,-0.023326295900000002,-0.24262524314999998,-0.3207686308,0.48433722997500006
11:22:53,0.19455440000000002,-0.18480960000000002,0.1417581,-0.42388496,-0.3518635400000001,0.05289154,-15.13745396,-4.131363,-25.44458346,36.114485720000005,0.2149713352,-0.18456074840000003,-0.022784594800000002,-0.24373709179999997,-0.3239849376,0.4884193107
11:22:53,0.1951571,-0.18694139999999998,0.142185525,-0.42688924,-0.3552886350000001,0.05402613499999999,-15.13720799,-4.12148675,-25.441206615,36.09365793,0.2155920838,-0.18669025710000003,-0.022242893700000002,-0.24484894045,-0.32720124440000004,0.49250139142500005
11:22:53,0.19575979999999998,-0.1890732,0.14261295000000002,-0.42989352,-0.35871373000000006,0.055160730000000005,-15.13696202,-4.1116105,-25.43782977,36.07283014,0.2162128324,-0.18881976580000004,-0.021701192600000002,-0.2459607891,-0.33041755120000005,0.49658347215
11:22:53,0.1963625,-0.191205,0.143040375,-0.4328978,-0.36213882500000005,0.05629532499999999,-15.13671605,-4.10173425,-25.434452925,36.05200235,0.216833581,-0.1909492745,-0.021159491500000002,-0.24707263775,-0.333633858,0.500665552875
11:22:53,0.1969652,-0.19333680000000003,0.1434678,-0.43590207999999997,-0.36556392000000004,0.05742991999999998,-15.13647008,-4.091858,-25.43107608,36.031174560000004,0.2174543296,-0.1930787832,-0.020617790400000002,-0.2481844864,-0.3368501648,0.5047476336000001
11:22:53,0.1975679,-0.1954686,0.14389522500000002,-0.43890636,-0.36898901500000003,0.058564515,-15.13622411,-4.08198175,-25.427699235,36.010346770000005,0.2180750782,-0.1952082919,-0.020076089300000002,-0.24929633504999998,-0.34006647160000003,0.508829714325
11:22:53,0.1981706,-0.1976004,0.14432265,-0.44191063999999997,-0.37241411,0.059699109999999986,-15.135978139999999,-4.0721055,-25.42432239,35.98951898,0.2186958268,-0.1973378006,-0.019534388200000002,-0.25040818369999995,-0.34328277840000004,0.5129117950500001
11:22:53,0.19877329999999999,-0.19973220000000003,0.144750075,-0.44491492,-0.375839205,0.060833705,-15.135732169999999,-4.06222925,-25.420945545,35.96869119,0.2193165754,-0.1994673093,-0.018992687100000002,-0.25152003235,-0.34649908520000006,0.516993875775
11:22:53,0.199376,-0.201864,0.14517750000000001,-0.44791919999999996,-0.3792643,0.06196829999999999,-15.135486199999999,-4.052353,-25.4175687,35.9478634,0.219937324,-0.201596818,-0.018450986000000003,-0.252631881,-0.349715392,0.5210759565
11:22:53,0.1999787,-0.2039958,0.145604925,-0.45092348,-0.3826893950000001,0.06310289499999998,-15.135240229999999,-4.0424767500000005,-25.414191855,35.927035610000004,0.2205580726,-0.20372632670000002,-0.017909284900000003,-0.25374372964999997,-0.3529316988,0.525158037225
11:22:53,0.2005814,-0.20612760000000002,0.14603235,-0.45392775999999996,-0.3861144900000001,0.06423749,-15.13499426,-4.0326005,-25.41081501,35.906207820000006,0.2211788212,-0.20585583540000002,-0.017367583800000003,-0.2548555783,-0.35614800560000004,0.52924011795
11:22:53,0.20118409999999998,-0.20825939999999998,0.14645977500000001,-0.45693204,-0.3895395850000001,0.06537208499999998,-15.13474829,-4.02272425,-25.407438165,35.88538003,0.22179956979999998,-0.20798534410000002,-0.016825882700000003,-0.25596742694999997,-0.35936431240000005,0.5333221986750001
11:22:53,0.2017868,-0.2103912,0.1468872,-0.45993631999999995,-0.39296468000000007,0.06650668,-15.13450232,-4.012848,-25.40406132,35.86455224,0.22242031839999998,-0.21011485280000003,-0.016284181600000003,-0.2570792756,-0.3625806192,0.5374042794
11:22:53,0.2023895,-0.21252300000000002,0.147314625,-0.4629406,-0.39638977500000006,0.06764127499999999,-15.13425635,-4.00297175,-25.400684475,35.84372445,0.22304106699999998,-0.21224436150000003,-0.015742480500000003,-0.25819112425,-0.365796926,0.5414863601250001
11:22:53,0.2029922,-0.21465480000000003,0.14774205,-0.46594488,-0.39981487000000004,0.06877587,-15.13401038,-3.9930955,-25.39730763,35.822896660000005,0.22366181559999998,-0.21437387020000004,-0.015200779400000003,-0.2593029729,-0.36901323280000004,0.54556844085
11:22:53,0.2035949,-0.2167866,0.148169475,-0.46894916,-0.40323996500000003,0.06991046499999999,-15.13376441,-3.9832192500000003,-25.393930785,35.80206887,0.22428256419999998,-0.21650337890000004,-0.014659078300000003,-0.26041482154999995,-0.37222953960000005,0.549650521575
11:22:53,0.20419759999999998,-0.2189184,0.1485969,-0.47195344,-0.40666506,0.07104505999999998,-15.13351844,-3.973343,-25.39055394,35.78124108,0.22490331279999998,-0.2186328876,-0.014117377200000003,-0.2615266702,-0.3754458464,0.5537326023
11:22:53,0.2048003,-0.22105020000000003,0.149024325,-0.47495771999999997,-0.410090155,0.072179655,-15.13327247,-3.9634667500000003,-25.387177095,35.76041329,0.22552406139999998,-0.2207623963,-0.013575676100000003,-0.26263851885,-0.3786621532,0.557814683025
11:22:53,0.205403,-0.223182,0.14945175,-0.477962,-0.41351525,0.07331424999999998,-15.1330265,-3.9535905,-25.38380025,35.739585500000004,0.22614481,-0.222891905,-0.013033975000000003,-0.26375036749999997,-0.38187846000000003,0.5618967637500001
11:22:53,0.2060057,-0.2253138,0.149879175,-0.48096627999999997,-0.416940345,0.074448845,-15.13278053,-3.94371425,-25.380423405,35.718757710000006,0.2267655586,-0.2250214137,-0.012492273900000003,-0.26486221615,-0.38509476680000004,0.565978844475
11:22:53,0.2066084,-0.22744560000000003,0.1503066,-0.48397056,-0.42036544,0.07558343999999999,-15.13253456,-3.9338379999999997,-25.37704656,35.69792992,0.2273863072,-0.2271509224,-0.011950572800000003,-0.26597406479999997,-0.38831107360000006,0.5700609252000001
11:22:53,0.20721109999999998,-0.2295774,0.150734025,-0.48697483999999996,-0.4237905350000001,0.076718035,-15.13228859,-3.92396175,-25.373669715,35.67710213,0.2280070558,-0.22928043110000002,-0.011408871700000003,-0.26708591345,-0.3915273804,0.574143005925
11:22:53,0.2078138,-0.2317092,0.15116145,-0.48997912,-0.42721563000000007,0.07785262999999999,-15.13204262,-3.9140855,-25.37029287,35.65627434,0.2286278044,-0.23140993980000002,-0.010867170600000003,-0.2681977621,-0.3947436872,0.57822508665
11:22:53,0.2084165,-0.23384100000000002,0.151588875,-0.49298339999999996,-0.43064072500000006,0.07898722499999998,-15.13179665,-3.90420925,-25.366916025,35.635446550000005,0.229248553,-0.23353944850000002,-0.010325469500000004,-0.26930961075,-0.39795999400000004,0.582307167375
11:22:53,0.20901920000000002,-0.23597279999999998,0.1520163,-0.49598768,-0.43406582000000005,0.08012182,-15.13155068,-3.894333,-25.36353918,35.61461876,0.2298693016,-0.23566895720000003,-0.009783768400000004,-0.27042145939999995,-0.4011763008,0.5863892481
11:22:53,0.2096219,-0.2381046,0.152443725,-0.49899195999999996,-0.43749091500000004,0.08125641499999998,-15.13130471,-3.88445675,-25.360162335,35.59379097,0.2304900502,-0.23779846590000003,-0.009242067300000004,-0.27153330805,-0.40439260760000006,0.5904713288250001
11:22:53,0.21022459999999998,-0.24023640000000002,0.15287115,-0.50199624,-0.44091601,0.08239101,-15.13105874,-3.8745805,-25.35678549,35.57296318,0.23111079880000002,-0.23992797460000004,-0.008700366200000004,-0.2726451567,-0.4076089144,0.59455340955
11:22:53,0.2108273,-0.24236820000000003,0.153298575,-0.50500052,-0.444341105,0.08352560499999999,-15.13081277,-3.86470425,-25.353408645,35.552135390000004,0.23173154740000002,-0.24205748330000004,-0.008158665100000004,-0.27375700534999997,-0.4108252212,0.5986354902750001
11:22:53,0.21143,-0.2445,0.153726,-0.5080047999999999,-0.4477662,0.0846602,-15.1305668,-3.854828,-25.3500318,35.531307600000005,0.232352296,-0.24418699200000005,-0.007616964000000004,-0.274868854,-0.41404152800000005,0.602717571
11:22:53,0.2120327,-0.2466318,0.154153425,-0.51100908,-0.451191295,0.085794795,-15.13032083,-3.84495175,-25.346654954999998,35.51047981,0.2329730446,-0.2463165007,-0.007075262900000004,-0.27598070264999996,-0.4172578348,0.606799651725
11:22:53,0.2126354,-0.24876360000000003,0.15458085,-0.51401336,-0.45461639,0.08692938999999998,-15.13007486,-3.8350755000000003,-25.34327811,35.48965202,0.2335937932,-0.2484460094,-0.006533561800000004,-0.2770925513,-0.4204741416000001,0.61088173245
11:22:53,0.21323809999999999,-0.2508954,0.155008275,-0.51701764,-0.4580414850000001,0.088063985,-15.129828889999999,-3.82519925,-25.339901264999998,35.46882423,0.2342145418,-0.2505755181,-0.005991860700000004,-0.27820439995,-0.42369044840000003,0.614963813175
11:22:53,0.2138408,-0.2530272,0.1554357,-0.5200219199999999,-0.46146658000000007,0.08919857999999999,-15.129582919999999,-3.8153230000000002,-25.33652442,35.447996440000004,0.2348352904,-0.2527050268,-0.005450159600000004,-0.2793162486,-0.4269067552,0.6190458939000001
11:22:53,0.2144435,-0.255159,0.155863125,-0.5230262,-0.46489167500000006,0.090333175,-15.129336949999999,-3.8054467499999998,-25.333147574999998,35.427168650000006,0.235456039,-0.2548345355,-0.004908458500000004,-0.28042809724999995,-0.43012306200000006,0.623127974625
11:22:53,0.2150462,-0.2572908,0.15629055,-0.52603048,-0.46831677000000005,0.09146776999999999,-15.129090979999999,-3.7955705,-25.32977073,35.40634086,0.2360767876,-0.2569640442,-0.004366757400000004,-0.2815399459,-0.4333393688,0.6272100553500001
11:22:53,0.21564889999999998,-0.2594226,0.156717975,-0.5290347599999999,-0.47174186500000004,0.09260236499999998,-15.12884501,-3.7856942499999997,-25.326393884999998,35.38551307,0.2366975362,-0.2590935529,-0.0038250563000000043,-0.28265179455,-0.4365556756000001,0.631292136075
11:22:53,0.2162516,-0.2615544,0.1571454,-0.53203904,-0.47516696,0.09373696,-15.12859904,-3.775818,-25.32301704,35.36468528,0.2373182848,-0.26122306160000003,-0.0032833552000000044,-0.28376364319999997,-0.43977198240000004,0.6353742168000001
11:22:53,0.2168543,-0.26368620000000004,0.157572825,-0.53504332,-0.478592055,0.09487155499999998,-15.12835307,-3.76594175,-25.319640194999998,35.343857490000005,0.2379390334,-0.26335257030000003,-0.0027416541000000044,-0.28487549184999994,-0.4429882892,0.639456297525
11:22:53,0.217457,-0.265818,0.15800025,-0.5380476,-0.48201715,0.09600615,-15.1281071,-3.7560655,-25.31626335,35.323029700000006,0.238559782,-0.26548207900000004,-0.0021999530000000045,-0.28598734049999996,-0.44620459600000006,0.64353837825
11:22:53,0.2180597,-0.2679498,0.158427675,-0.5410518799999999,-0.485442245,0.09714074499999999,-15.12786113,-3.74618925,-25.312886504999998,35.30220191,0.2391805306,-0.26761158770000004,-0.0016582519000000046,-0.28709918915,-0.4494209028,0.6476204589750001
11:22:53,0.21866239999999998,-0.27008160000000003,0.1588551,-0.54405616,-0.48886734,0.09827534,-15.12761516,-3.736313,-25.30950966,35.28137412,0.2398012792,-0.26974109640000005,-0.0011165508000000046,-0.2882110378,-0.4526372096000001,0.6517025397
11:22:53,0.2192651,-0.2722134,0.159282525,-0.54706044,-0.4922924350000001,0.09940993499999999,-15.12736919,-3.72643675,-25.306132814999998,35.260546330000004,0.2404220278,-0.2718706051,-0.0005748497000000047,-0.28932288645,-0.45585351640000005,0.6557846204250001
11:22:53,0.2198678,-0.2743452,0.15970995,-0.55006472,-0.4957175300000001,0.10054452999999998,-15.12712322,-3.7165605,-25.30275597,35.239718540000005,0.2410427764,-0.2740001138,-3.3148600000004746e-05,-0.29043473509999995,-0.4590698232,0.65986670115
11:22:53,0.2204705,-0.27647700000000003,0.16013737500000003,-0.5530689999999999,-0.49914262500000006,0.101679125,-15.12687725,-3.7066842500000003,-25.299379124999998,35.21889075,0.241663525,-0.2761296225,0.0005085524999999952,-0.29154658375,-0.4622861300000001,0.6639487818750001
11:22:53,0.2210732,-0.2786088,0.1605648,-0.55607328,-0.50256772,0.10281371999999998,-15.12663128,-3.696808,-25.29600228,35.19806296,0.2422842736,-0.2782591312,0.0010502535999999951,-0.2926584324,-0.46550243680000003,0.6680308626
11:22:53,0.22167589999999998,-0.2807406,0.160992225,-0.55907756,-0.505992815,0.103948315,-15.12638531,-3.6869317500000003,-25.292625434999998,35.17723517,0.2429050222,-0.2803886399,0.001591954699999995,-0.29377028104999997,-0.4687187436,0.672112943325
11:22:53,0.2222786,-0.2828724,0.16141965000000003,-0.5620818399999999,-0.50941791,0.10508290999999999,-15.12613934,-3.6770555,-25.28924859,35.156407380000005,0.24352577079999999,-0.2825181486,0.002133655799999995,-0.29488212969999994,-0.47193505040000006,0.6761950240500001
11:22:53,0.2228813,-0.2850042,0.161847075,-0.56508612,-0.512843005,0.106217505,-15.12589337,-3.6671792500000002,-25.285871744999998,35.135579590000006,0.24414651939999998,-0.2846476573,0.002675356899999995,-0.29599397834999996,-0.4751513572,0.680277104775
11:22:53,0.22348400000000002,-0.287136,0.1622745,-0.5680904,-0.5162681,0.10735209999999999,-15.1256474,-3.6573029999999997,-25.2824949,35.1147518,0.24476726799999998,-0.28677716600000003,0.003217057999999995,-0.297105827,-0.4783676640000001,0.6843591855000001
11:22:53,0.2240867,-0.2892678,0.16270192500000003,-0.57109468,-0.519693195,0.10848669499999998,-15.12540143,-3.64742675,-25.279118054999998,35.09392401,0.24538801659999998,-0.28890667470000003,0.003758759099999995,-0.29821767565,-0.48158397080000004,0.688441266225
11:22:53,0.22468939999999998,-0.29139960000000004,0.16312935,-0.5740989599999999,-0.52311829,0.10962129,-15.12515546,-3.6375505,-25.27574121,35.073096220000004,0.24600876519999998,-0.29103618340000004,0.004300460199999995,-0.2993295243,-0.4848002776,0.6925233469500001
11:22:53,0.2252921,-0.2935314,0.163556775,-0.57710324,-0.5265433850000001,0.11075588499999998,-15.12490949,-3.62767425,-25.272364364999998,35.052268430000005,0.24662951379999998,-0.29316569210000004,0.004842161299999995,-0.30044137294999995,-0.48801658440000006,0.696605427675
11:22:53,0.2258948,-0.2956632,0.16398420000000002,-0.58010752,-0.5299684800000001,0.11189048,-15.12466352,-3.617798,-25.26898752,35.03144064,0.2472502624,-0.29529520080000005,0.005383862399999995,-0.3015532216,-0.4912328912,0.7006875084
11:22:53,0.2264975,-0.29779500000000003,0.164411625,-0.5831118,-0.5333935750000001,0.11302507499999999,-15.12441755,-3.60792175,-25.265610674999998,35.01061285,0.247871011,-0.29742470950000005,0.0059255634999999945,-0.30266507025,-0.4944491980000001,0.7047695891250001
11:22:53,0.2271002,-0.2999268,0.16483905,-0.5861160799999999,-0.53681867,0.11415966999999998,-15.12417158,-3.5980455,-25.26223383,34.98978506,0.2484917596,-0.2995542182,0.0064672645999999945,-0.30377691889999997,-0.49766550480000005,0.70885166985
11:22:53,0.22770289999999999,-0.3020586,0.16526647500000002,-0.58912036,-0.540243765,0.11529426499999999,-15.12392561,-3.58816925,-25.258856984999998,34.968957270000004,0.2491125082,-0.3016837269,0.007008965699999994,-0.30488876754999994,-0.5008818116,0.7129337505750001
11:22:53,0.2283056,-0.3041904,0.1656939,-0.59212464,-0.54366886,0.11642885999999998,-15.123679639999999,-3.578293,-25.25548014,34.948129480000006,0.2497332568,-0.3038132356,0.007550666799999994,-0.30600061619999996,-0.5040981184000001,0.7170158313
11:22:53,0.2289083,-0.3063222,0.166121325,-0.59512892,-0.547093955,0.117563455,-15.123433669999999,-3.56841675,-25.252103294999998,34.92730169,0.25035400539999997,-0.3059427443,0.008092367899999994,-0.30711246485,-0.5073144252,0.7210979120250001
11:22:53,0.229511,-0.308454,0.16654875000000002,-0.5981331999999999,-0.55051905,0.11869804999999999,-15.123187699999999,-3.5585405000000003,-25.24872645,34.9064739,0.250974754,-0.308072253,0.008634068999999994,-0.3082243135,-0.510530732,0.72517999275
11:22:53,0.23011369999999998,-0.3105858,0.166976175,-0.60113748,-0.553944145,0.119832645,-15.122941729999999,-3.54866425,-25.245349604999998,34.88564611,0.25159550259999997,-0.3102017617,0.009175770099999994,-0.30933616215,-0.5137470388,0.729262073475
11:22:53,0.2307164,-0.31271760000000004,0.1674036,-0.60414176,-0.5573692400000001,0.12096723999999999,-15.12269576,-3.5387880000000003,-25.24197276,34.864818320000005,0.2522162512,-0.3123312704,0.009717471199999994,-0.31044801079999995,-0.5169633456,0.7333441542000001
11:22:53,0.2313191,-0.3148494,0.16783102500000002,-0.6071460399999999,-0.5607943350000001,0.12210183499999998,-15.12244979,-3.52891175,-25.238595914999998,34.84399053,0.2528369998,-0.31446077910000003,0.010259172299999994,-0.31155985945,-0.5201796524000001,0.737426234925
11:22:53,0.2319218,-0.3169812,0.16825845,-0.61015032,-0.5642194300000001,0.12323643,-15.12220382,-3.5190355,-25.23521907,34.82316274,0.2534577484,-0.31659028780000004,0.010800873399999994,-0.3126717081,-0.5233959592,0.7415083156500001
11:22:53,0.2325245,-0.31911300000000004,0.168685875,-0.6131546,-0.5676445250000001,0.12437102499999998,-15.12195785,-3.5091592499999997,-25.231842224999998,34.80233495,0.254078497,-0.31871979650000004,0.011342574499999994,-0.31378355674999997,-0.526612266,0.745590396375
11:22:53,0.23312719999999998,-0.3212448,0.16911330000000002,-0.61615888,-0.5710696200000001,0.12550561999999998,-15.12171188,-3.499283,-25.22846538,34.781507160000004,0.2546992456,-0.32084930520000005,0.011884275599999994,-0.31489540539999994,-0.5298285728000001,0.7496724771000001
11:22:53,0.2337299,-0.3233766,0.169540725,-0.6191631599999999,-0.574494715,0.126640215,-15.12146591,-3.48940675,-25.225088534999998,34.760679370000005,0.2553199942,-0.32297881390000005,0.012425976699999994,-0.31600725404999996,-0.5330448796,0.753754557825
11:22:53,0.2343326,-0.32550840000000003,0.16996815,-0.62216744,-0.57791981,0.12777481000000002,-15.12121994,-3.4795305,-25.22171169,34.73985158000001,0.2559407428,-0.32510832260000005,0.012967677799999994,-0.3171191027,-0.5362611864000001,0.75783663855
11:22:53,0.2349353,-0.3276402,0.17039557500000002,-0.62517172,-0.581344905,0.12890940499999998,-15.12097397,-3.46965425,-25.218334845,34.71902379,0.2565614914,-0.3272378313,0.013509378899999994,-0.31823095135,-0.5394774932,0.761918719275
11:22:54,0.235538,-0.329772,0.170823,-0.628176,-0.58477,0.130044,-15.120728,-3.459778,-25.214958,34.698196,0.25718224,-0.32936734,0.01405108,-0.3193428,-0.5426938,0.7660008
11:22:54,0.234636055,-0.329182755,0.169694555,-0.624633715,-0.58154732,0.130001385,-15.118151665,-3.471344755,-25.216856805,34.736177645000005,0.255867888537,-0.32875258565,0.014013472615000001,-0.31703632485,-0.53970260178,0.76195918759
11:22:54,0.23373411,-0.32859351000000003,0.16856611,-0.62109143,-0.5783246400000001,0.12995877,-15.11557533,-3.48291151,-25.21875561,34.77415929,0.254553537074,-0.3281378313,0.01397586523,-0.3147298497,-0.53671140356,0.75791757518
11:22:54,0.232832165,-0.328004265,0.167437665,-0.6175491449999999,-0.57510196,0.129916155,-15.112998995,-3.494478265,-25.220654415,34.812140935,0.253239185611,-0.32752307695,0.013938257845000001,-0.31242337454999997,-0.53372020534,0.75387596277
11:22:54,0.23193022,-0.32741502,0.16630922,-0.6140068599999999,-0.57187928,0.12987353999999998,-15.11042266,-3.50604502,-25.222553219999998,34.850122580000004,0.251924834148,-0.3269083226,0.01390065046,-0.3101168994,-0.53072900712,0.74983435036
11:22:54,0.231028275,-0.326825775,0.165180775,-0.610464575,-0.5686566,0.12983092499999999,-15.107846325,-3.517611775,-25.224452024999998,34.888104225000006,0.250610482685,-0.32629356825,0.013863043075000001,-0.30781042425,-0.5277378089,0.74579273795
11:22:54,0.23012633,-0.32623653,0.16405233,-0.60692229,-0.56543392,0.12978831,-15.10526999,-3.52917853,-25.226350829999998,34.92608587,0.249296131222,-0.32567881390000003,0.01382543569,-0.3055039491,-0.5247466106800001,0.74175112554
11:22:54,0.229224385,-0.325647285,0.162923885,-0.603380005,-0.56221124,0.129745695,-15.102693655,-3.540745285,-25.228249635,34.964067515,0.24798177975900002,-0.32506405955,0.013787828305000001,-0.30319747394999996,-0.52175541246,0.73770951313
11:22:54,0.22832244,-0.32505804,0.16179544,-0.5998377199999999,-0.55898856,0.12970308,-15.100117319999999,-3.55231204,-25.23014844,35.002049160000006,0.246667428296,-0.3244493052,0.01375022092,-0.3008909988,-0.51876421424,0.73366790072
11:22:54,0.227420495,-0.32446879500000003,0.160666995,-0.5962954349999999,-0.55576588,0.129660465,-15.097540985,-3.563878795,-25.232047245,35.040030805,0.245353076833,-0.32383455085,0.013712613535000001,-0.29858452365,-0.51577301602,0.72962628831
11:22:54,0.22651854999999999,-0.32387955,0.15953855,-0.59275315,-0.5525432,0.12961785,-15.09496465,-3.57544555,-25.23394605,35.07801245,0.24403872537000001,-0.3232197965,0.01367500615,-0.2962780485,-0.5127818178,0.7255846759000001
11:22:54,0.225616605,-0.323290305,0.158410105,-0.589210865,-0.54932052,0.12957523499999998,-15.092388314999999,-3.587012305,-25.235844855,35.115994095000005,0.242724373907,-0.32260504215,0.013637398765000001,-0.29397157334999996,-0.50979061958,0.7215430634900001
11:22:54,0.22471466,-0.32270106,0.15728166,-0.58566858,-0.5460978400000001,0.12953262,-15.08981198,-3.59857906,-25.23774366,35.15397574,0.241410022444,-0.3219902878,0.01359979138,-0.2916650982,-0.50679942136,0.7175014510800001
11:22:54,0.223812715,-0.322111815,0.156153215,-0.5821262949999999,-0.54287516,0.129490005,-15.087235645,-3.610145815,-25.239642465,35.191957385,0.24009567098100001,-0.32137553345000003,0.013562183995000001,-0.28935862305,-0.5038082231400001,0.7134598386700001
11:22:54,0.22291077,-0.32152257,0.15502477,-0.5785840099999999,-0.53965248,0.12944739,-15.08465931,-3.62171257,-25.24154127,35.229939030000004,0.238781319518,-0.3207607791,0.01352457661,-0.2870521479,-0.50081702492,0.7094182262600001
11:22:54,0.222008825,-0.320933325,0.153896325,-0.575041725,-0.5364298000000001,0.129404775,-15.082082975,-3.633279325,-25.243440075,35.267920675,0.237466968055,-0.32014602475,0.013486969225000001,-0.28474567274999996,-0.49782582670000003,0.7053766138500001
11:22:54,0.22110688,-0.32034408000000003,0.15276788,-0.57149944,-0.53320712,0.12936216,-15.07950664,-3.64484608,-25.24533888,35.30590232,0.23615261659200001,-0.3195312704,0.01344936184,-0.28243919759999997,-0.49483462848000004,0.70133500144
11:22:54,0.220204935,-0.319754835,0.151639435,-0.567957155,-0.52998444,0.12931954499999998,-15.076930305,-3.6564128350000002,-25.247237684999998,35.343883965,0.234838265129,-0.31891651605,0.013411754455000001,-0.28013272245,-0.49184343026,0.69729338903
11:22:54,0.21930299,-0.31916559,0.15051099,-0.56441487,-0.52676176,0.12927692999999998,-15.074353969999999,-3.66797959,-25.249136489999998,35.381865610000006,0.233523913666,-0.3183017617,0.01337414707,-0.2778262473,-0.48885223204,0.69325177662
11:22:54,0.218401045,-0.318576345,0.149382545,-0.5608725849999999,-0.52353908,0.129234315,-15.071777635,-3.679546345,-25.251035295,35.419847255,0.23220956220300001,-0.31768700735,0.013336539685,-0.27551977215,-0.48586103382,0.68921016421
11:22:54,0.2174991,-0.3179871,0.1482541,-0.5573303,-0.5203164,0.1291917,-15.0692013,-3.6911131,-25.2529341,35.4578289,0.23089521074000002,-0.317072253,0.0132989323,-0.27321329699999997,-0.4828698356,0.6851685518
11:22:54,0.21659715499999999,-0.317397855,0.147125655,-0.553788015,-0.51709372,0.129149085,-15.066624964999999,-3.702679855,-25.254832905,35.495810545000005,0.229580859277,-0.31645749865,0.013261324915,-0.27090682185,-0.47987863738000003,0.68112693939
11:22:54,0.21569521,-0.31680861,0.14599721,-0.55024573,-0.5138710400000001,0.12910647,-15.06404863,-3.71424661,-25.25673171,35.53379219,0.228266507814,-0.31584274430000003,0.01322371753,-0.2686003467,-0.47688743916,0.67708532698
11:22:54,0.214793265,-0.31621936500000003,0.144868765,-0.5467034449999999,-0.51064836,0.129063855,-15.061472295,-3.725813365,-25.258630515,35.571773835,0.22695215635100002,-0.31522798995,0.013186110145,-0.26629387155,-0.47389624094000005,0.67304371457
11:22:54,0.21389132,-0.31563012,0.14374032,-0.5431611599999999,-0.50742568,0.12902123999999998,-15.05889596,-3.73738012,-25.26052932,35.609755480000004,0.225637804888,-0.3146132356,0.01314850276,-0.26398739639999996,-0.47090504272,0.66900210216
11:22:54,0.212989375,-0.315040875,0.142611875,-0.5396188749999999,-0.504203,0.12897862499999999,-15.056319625,-3.748946875,-25.262428125,35.647737125000006,0.224323453425,-0.31399848125,0.013110895375,-0.26168092125,-0.4679138445,0.66496048975
11:22:54,0.21208743,-0.31445163,0.14148343,-0.53607659,-0.50098032,0.12893601,-15.05374329,-3.76051363,-25.26432693,35.68571877,0.22300910196200002,-0.3133837269,0.01307328799,-0.2593744461,-0.46492264628,0.66091887734
11:22:54,0.211185485,-0.313862385,0.140354985,-0.532534305,-0.49775764,0.128893395,-15.051166955,-3.772080385,-25.266225735,35.723700415,0.221694750499,-0.31276897255,0.013035680605,-0.25706797095,-0.46193144806,0.6568772649300001
11:22:54,0.21028354,-0.31327314,0.13922654,-0.52899202,-0.49453496,0.12885078,-15.04859062,-3.7836471400000002,-25.26812454,35.761682060000005,0.220380399036,-0.3121542182,0.01299807322,-0.25476149579999996,-0.45894024984000004,0.6528356525200001
11:22:54,0.209381595,-0.312683895,0.138098095,-0.5254497349999999,-0.49131228000000005,0.128808165,-15.046014285,-3.795213895,-25.270023345,35.799663705,0.21906604757300002,-0.31153946385,0.012960465835,-0.25245502065,-0.45594905162,0.6487940401100001
11:22:54,0.20847965,-0.31209465000000003,0.13696965,-0.5219074499999999,-0.4880896,0.12876555,-15.04343795,-3.80678065,-25.271922149999998,35.83764535,0.21775169611,-0.3109247095,0.012922858450000001,-0.2501485455,-0.4529578534,0.6447524277000001
11:22:54,0.207577705,-0.311505405,0.135841205,-0.518365165,-0.48486692000000003,0.12872293499999998,-15.040861614999999,-3.818347405,-25.273820954999998,35.875626995000005,0.216437344647,-0.31030995515,0.012885251065,-0.24784207035,-0.44996665518,0.6407108152900001
11:22:54,0.20667576,-0.31091616,0.13471276,-0.51482288,-0.48164424,0.12868032,-15.03828528,-3.82991416,-25.27571976,35.91360864,0.21512299318400002,-0.3096952008,0.01284764368,-0.24553559519999998,-0.44697545696,0.6366692028800001
11:22:54,0.205773815,-0.310326915,0.133584315,-0.5112805949999999,-0.47842156,0.128637705,-15.035708945,-3.841480915,-25.277618565,35.951590285,0.213808641721,-0.30908044645,0.012810036295,-0.24322912004999997,-0.44398425874,0.6326275904700001
11:22:54,0.20487187,-0.30973767,0.13245587,-0.5077383099999999,-0.47519888,0.12859509,-15.03313261,-3.85304767,-25.27951737,35.989571930000004,0.212494290258,-0.3084656921,0.012772428910000001,-0.24092264489999998,-0.44099306052000004,0.62858597806
11:22:54,0.203969925,-0.309148425,0.131327425,-0.5041960249999999,-0.4719762,0.128552475,-15.030556275,-3.864614425,-25.281416175,36.027553575,0.21117993879500002,-0.30785093775,0.012734821525,-0.23861616975,-0.43800186230000004,0.62454436565
11:22:54,0.20306798,-0.30855918,0.13019898,-0.50065374,-0.46875352000000003,0.12850986,-15.02797994,-3.87618118,-25.28331498,36.06553522,0.209865587332,-0.30723618340000003,0.01269721414,-0.23630969459999998,-0.43501066408,0.62050275324
11:22:54,0.202166035,-0.30796993500000003,0.129070535,-0.497111455,-0.46553084,0.128467245,-15.025403605,-3.887747935,-25.285213785,36.103516865,0.208551235869,-0.30662142905,0.012659606755,-0.23400321944999997,-0.43201946586,0.61646114083
11:22:54,0.20126409,-0.30738069,0.12794209,-0.49356916999999995,-0.46230816,0.12842462999999998,-15.02282727,-3.89931469,-25.28711259,36.141498510000005,0.20723688440600002,-0.3060066747,0.012621999370000001,-0.23169674429999998,-0.42902826764,0.61241952842
11:22:54,0.200362145,-0.306791445,0.126813645,-0.49002688499999997,-0.45908548000000005,0.128382015,-15.020250935,-3.9108814450000002,-25.289011395,36.179480155,0.205922532943,-0.30539192035,0.012584391985,-0.22939026915,-0.42603706942,0.60837791601
11:22:54,0.1994602,-0.3062022,0.1256852,-0.48648459999999993,-0.4558628,0.1283394,-15.0176746,-3.9224482,-25.2909102,36.2174618,0.20460818148,-0.304777166,0.012546784600000001,-0.22708379399999998,-0.42304587120000003,0.6043363036
11:22:54,0.19855825500000002,-0.305612955,0.12455675499999999,-0.48294231499999996,-0.45264012,0.128296785,-15.015098264999999,-3.934014955,-25.292809005,36.255443445000004,0.20329383001700002,-0.30416241165,0.012509177215,-0.22477731885,-0.42005467298,0.60029469119
11:22:54,0.19765631,-0.30502371,0.12342831,-0.47940003,-0.44941744000000006,0.12825417,-15.01252193,-3.94558171,-25.29470781,36.29342509,0.201979478554,-0.3035476573,0.012471569830000001,-0.22247084369999998,-0.41706347476000005,0.59625307878
11:22:54,0.196754365,-0.304434465,0.12229986500000001,-0.47585774499999994,-0.44619476,0.128211555,-15.009945595,-3.957148465,-25.296606614999998,36.331406735,0.200665127091,-0.30293290295,0.012433962445,-0.22016436855,-0.41407227654,0.59221146637
11:22:54,0.19585242,-0.30384522,0.12117142,-0.47231545999999996,-0.44297208,0.12816894,-15.007369259999999,-3.96871522,-25.29850542,36.369388380000004,0.19935077562800002,-0.3023181486,0.012396355060000001,-0.2178578934,-0.41108107832,0.58816985396
11:22:54,0.194950475,-0.303255975,0.120042975,-0.46877317499999993,-0.4397494,0.12812632499999999,-15.004792925,-3.980281975,-25.300404225,36.407370025000006,0.198036424165,-0.30170339425,0.012358747675,-0.21555141825,-0.4080898801,0.58412824155
11:22:54,0.19404853,-0.30266673,0.11891452999999999,-0.46523088999999995,-0.43652672000000003,0.12808371,-15.00221659,-3.99184873,-25.30230303,36.44535167,0.196722072702,-0.3010886399,0.012321140290000001,-0.21324494309999997,-0.40509868188000003,0.58008662914
11:22:54,0.193146585,-0.302077485,0.117786085,-0.461688605,-0.43330404,0.128041095,-14.999640255,-4.003415485,-25.304201835,36.483333315,0.19540772123900002,-0.30047388555,0.012283532905,-0.21093846794999999,-0.40210748366000004,0.57604501673
11:22:54,0.19224464,-0.30148824,0.11665764,-0.45814631999999994,-0.43008136,0.12799848,-14.99706392,-4.01498224,-25.30610064,36.521314960000005,0.194093369776,-0.2998591312,0.012245925520000001,-0.2086319928,-0.39911628544,0.57200340432
11:22:54,0.191342695,-0.300898995,0.115529195,-0.45460403499999996,-0.42685868000000005,0.127955865,-14.994487585,-4.026548995,-25.307999445,36.559296605,0.192779018313,-0.29924437685,0.012208318135,-0.20632551764999998,-0.39612508722000006,0.5679617919100001
11:22:54,0.19044075,-0.30030975,0.11440075,-0.45106174999999993,-0.423636,0.12791325,-14.99191125,-4.03811575,-25.30989825,36.59727825,0.19146466685000002,-0.2986296225,0.01217071075,-0.20401904249999997,-0.393133889,0.5639201795000001
11:22:54,0.189538805,-0.299720505,0.11327230499999999,-0.44751946499999995,-0.42041332,0.12787063499999998,-14.989334915,-4.049682505,-25.311797055,36.635259895000004,0.190150315387,-0.29801486815,0.012133103365,-0.20171256734999998,-0.39014269078,0.5598785670900001
11:22:54,0.18863686000000002,-0.29913126,0.11214386,-0.44397717999999997,-0.41719064000000006,0.12782802,-14.98675858,-4.06124926,-25.31369586,36.67324154,0.188835963924,-0.2974001138,0.01209549598,-0.1994060922,-0.38715149256000003,0.55583695468
11:22:54,0.187734915,-0.298542015,0.111015415,-0.440434895,-0.41396796,0.127785405,-14.984182245,-4.072816015,-25.315594665,36.711223185,0.18752161246100002,-0.29678535945,0.012057888595,-0.19709961704999998,-0.38416029434,0.55179534227
11:22:54,0.18683297,-0.29795277,0.10988697,-0.43689260999999996,-0.41074528,0.12774279,-14.981605909999999,-4.08438277,-25.31749347,36.749204830000004,0.186207260998,-0.2961706051,0.01202028121,-0.19479314189999997,-0.38116909612000005,0.54775372986
11:22:54,0.185931025,-0.297363525,0.108758525,-0.4333503249999999,-0.4075226,0.127700175,-14.979029575,-4.095949525,-25.319392275,36.787186475,0.184892909535,-0.29555585075,0.011982673825,-0.19248666674999998,-0.3781778979,0.54371211745
11:22:54,0.18502908,-0.29677428,0.10763008,-0.42980803999999995,-0.40429992000000003,0.12765756,-14.97645324,-4.1075162800000005,-25.321291079999998,36.82516812,0.18357855807200002,-0.2949410964,0.01194506644,-0.1901801916,-0.37518669968,0.53967050504
11:22:54,0.184127135,-0.296185035,0.106501635,-0.42626575499999997,-0.40107724,0.127614945,-14.973876905,-4.119083035,-25.323189885,36.863149765,0.182264206609,-0.29432634205,0.011907459055,-0.18787371644999998,-0.37219550146,0.53562889263
11:22:54,0.18322519,-0.29559579,0.10537319,-0.42272347,-0.39785456,0.12757232999999998,-14.97130057,-4.13064979,-25.32508869,36.901131410000005,0.180949855146,-0.2937115877,0.01186985167,-0.1855672413,-0.36920430324000003,0.53158728022
11:22:54,0.182323245,-0.295006545,0.104244745,-0.41918118499999996,-0.39463188000000005,0.127529715,-14.968724235,-4.142216545,-25.326987495,36.939113055,0.17963550368300002,-0.29309683335000003,0.011832244285000001,-0.18326076614999998,-0.36621310502000004,0.52754566781
11:22:54,0.1814213,-0.2944173,0.1031163,-0.4156388999999999,-0.3914092,0.1274871,-14.9661479,-4.1537833,-25.3288863,36.9770947,0.17832115222,-0.292482079,0.0117946369,-0.180954291,-0.3632219068,0.5235040554
11:22:54,0.180519355,-0.293828055,0.101987855,-0.41209661499999994,-0.38818652,0.127444485,-14.963571565,-4.165350055,-25.330785105,37.015076345000004,0.177006800757,-0.29186732465,0.011757029515,-0.17864781584999997,-0.36023070858000006,0.51946244299
11:22:54,0.17961741,-0.29323881,0.10085941,-0.40855432999999997,-0.38496384000000006,0.12740187,-14.96099523,-4.17691681,-25.33268391,37.05305799,0.17569244929400002,-0.2912525703,0.01171942213,-0.1763413407,-0.35723951036,0.5154208305800001
11:22:54,0.17871546500000002,-0.292649565,0.099730965,-0.405012045,-0.38174116,0.127359255,-14.958418895,-4.188483565,-25.334582715,37.091039635,0.174378097831,-0.29063781595,0.011681814745000001,-0.17403486554999997,-0.35424831214,0.5113792181700001
11:22:54,0.17781352,-0.29206032,0.09860252,-0.40146975999999995,-0.37851848,0.12731664,-14.95584256,-4.20005032,-25.33648152,37.12902128,0.173063746368,-0.2900230616,0.01164420736,-0.17172839039999999,-0.35125711392000003,0.5073376057600001
11:22:54,0.176911575,-0.291471075,0.097474075,-0.3979274749999999,-0.3752958,0.12727402499999999,-14.953266225,-4.211617075,-25.338380325,37.167002925000006,0.17174939490500002,-0.28940830725,0.011606599975,-0.16942191525,-0.34826591570000004,0.5032959933500001
11:22:54,0.17600963,-0.29088183,0.09634563,-0.39438518999999994,-0.37207312000000003,0.12723141,-14.95068989,-4.22318383,-25.34027913,37.20498457,0.170435043442,-0.2887935529,0.01156899259,-0.16711544009999998,-0.34527471748000005,0.49925438094
11:22:54,0.175107685,-0.290292585,0.095217185,-0.39084290499999996,-0.36885044,0.127188795,-14.948113554999999,-4.2347505850000005,-25.342177935,37.242966215,0.169120691979,-0.28817879855,0.011531385205000001,-0.16480896495,-0.34228351926,0.49521276853
11:22:54,0.17420574,-0.28970334,0.09408874,-0.38730062,-0.36562776,0.12714618,-14.94553722,-4.24631734,-25.34407674,37.280947860000005,0.16780634051600002,-0.2875640442,0.01149377782,-0.16250248979999998,-0.33929232104000007,0.49117115612
11:22:54,0.173303795,-0.289114095,0.092960295,-0.38375833499999995,-0.36240508000000005,0.127103565,-14.942960885,-4.257884095,-25.345975545,37.318929505,0.166491989053,-0.28694928985,0.011456170435,-0.16019601465,-0.33630112282,0.48712954371000006
11:22:54,0.17240185000000002,-0.28852485,0.09183184999999999,-0.3802160499999999,-0.3591824,0.12706095,-14.94038455,-4.26945085,-25.34787435,37.35691115,0.16517763759,-0.2863345355,0.01141856305,-0.15788953949999998,-0.33330992460000003,0.48308793130000005
11:22:54,0.171499905,-0.287935605,0.090703405,-0.37667376499999994,-0.35595972,0.127018335,-14.937808215,-4.281017605,-25.349773155,37.394892795000004,0.16386328612700002,-0.28571978115,0.011380955665000001,-0.15558306435,-0.33031872638000004,0.47904631889000004
11:22:54,0.17059796,-0.28734636,0.08957496,-0.37313147999999996,-0.35273704000000006,0.12697572,-14.93523188,-4.29258436,-25.35167196,37.43287444,0.162548934664,-0.2851050268,0.01134334828,-0.15327658919999998,-0.32732752816000005,0.47500470648000004
11:22:54,0.169696015,-0.286757115,0.088446515,-0.3695891949999999,-0.34951436,0.126933105,-14.932655545,-4.304151115,-25.353570765,37.470856085,0.161234583201,-0.28449027245,0.011305740895000001,-0.15097011405,-0.32433632994000006,0.47096309407000003
11:22:54,0.16879407000000002,-0.28616787,0.08731807,-0.36604690999999995,-0.34629168,0.12689049,-14.93007921,-4.31571787,-25.35546957,37.50883773,0.15992023173800002,-0.2838755181,0.01126813351,-0.14866363889999998,-0.32134513172,0.46692148166
11:22:54,0.167892125,-0.285578625,0.08618962499999999,-0.36250462499999997,-0.343069,0.126847875,-14.927502875,-4.327284625,-25.357368375,37.546819375,0.158605880275,-0.28326076375,0.011230526125000001,-0.14635716375,-0.3183539335000001,0.46287986925
11:22:54,0.16699018,-0.28498938,0.08506118,-0.35896233999999994,-0.33984632000000004,0.12680526,-14.92492654,-4.33885138,-25.35926718,37.58480102,0.157291528812,-0.2826460094,0.01119291874,-0.14405068859999998,-0.31536273528000003,0.45883825684
11:22:54,0.166088235,-0.284400135,0.083932735,-0.35542005499999996,-0.33662364,0.126762645,-14.922350204999999,-4.350418135,-25.361165985,37.622782665,0.15597717734900002,-0.28203125505,0.011155311355000001,-0.14174421345,-0.31237153706000004,0.45479664443
11:22:54,0.16518629,-0.28381089,0.08280429,-0.35187777,-0.33340096,0.12672002999999998,-14.91977387,-4.3619848900000004,-25.36306479,37.660764310000005,0.154662825886,-0.2814165007,0.01111770397,-0.13943773829999997,-0.30938033884000005,0.45075503202000006
11:22:54,0.164284345,-0.283221645,0.081675845,-0.34833548499999994,-0.33017828000000005,0.126677415,-14.917197535,-4.373551645,-25.364963595,37.698745955,0.153348474423,-0.28080174635,0.011080096585000001,-0.13713126315,-0.30638914062,0.44671341961000005
11:22:54,0.1633824,-0.2826324,0.08054739999999999,-0.34479319999999997,-0.3269556,0.1266348,-14.9146212,-4.3851184,-25.3668624,37.7367276,0.15203412296000002,-0.28018699199999997,0.0110424892,-0.13482478799999997,-0.30339794240000006,0.44267180720000004
11:22:54,0.16248045500000002,-0.282043155,0.079418955,-0.34125091499999993,-0.32373292000000004,0.126592185,-14.912044865,-4.396685155,-25.368761205,37.774709245000004,0.150719771497,-0.27957223765,0.011004881815,-0.13251831285,-0.30040674418,0.43863019479000004
11:22:54,0.16157851,-0.28145391,0.07829051,-0.33770862999999995,-0.32051024,0.12654957,-14.90946853,-4.40825191,-25.37066001,37.81269089,0.149405420034,-0.2789574833,0.01096727443,-0.1302118377,-0.29741554596,0.43458858238000003
11:22:54,0.160676565,-0.280864665,0.077162065,-0.334166345,-0.31728756,0.126506955,-14.906892195,-4.419818665,-25.372558815,37.850672535,0.14809106857100002,-0.27834272895,0.010929667045,-0.12790536254999998,-0.29442434774000004,0.43054696997
11:22:54,0.15977462,-0.28027542,0.07603362,-0.33062405999999994,-0.31406488000000005,0.12646434,-14.90431586,-4.43138542,-25.37445762,37.88865418,0.146776717108,-0.2777279746,0.01089205966,-0.1255988874,-0.29143314952000005,0.42650535756
11:22:54,0.15887267500000002,-0.279686175,0.074905175,-0.32708177499999996,-0.3108422,0.12642172499999998,-14.901739525,-4.442952175,-25.376356425,37.926635825000005,0.145462365645,-0.27711322025,0.010854452275,-0.12329241224999998,-0.28844195130000005,0.42246374515
11:22:54,0.15797073,-0.27909693,0.07377673,-0.32353948999999993,-0.30761952000000004,0.12637911,-14.89916319,-4.45451893,-25.37825523,37.96461747,0.14414801418200002,-0.2764984659,0.01081684489,-0.1209859371,-0.28545075308000006,0.41842213274
11:22:54,0.157068785,-0.278507685,0.07264828499999999,-0.31999720499999995,-0.30439684,0.126336495,-14.896586855,-4.4660856849999995,-25.380154035,38.002599115,0.142833662719,-0.27588371155,0.010779237505,-0.11867946194999998,-0.28245955486,0.41438052033000006
11:22:54,0.15616684,-0.27791844,0.07151984,-0.31645492,-0.30117416,0.12629388,-14.89401052,-4.47765244,-25.38205284,38.040580760000005,0.141519311256,-0.2752689572,0.010741630120000002,-0.1163729868,-0.27946835664,0.41033890792000005
11:22:54,0.155264895,-0.277329195,0.070391395,-0.31291263499999994,-0.29795148000000005,0.126251265,-14.891434185,-4.489219195,-25.383951645,38.078562405,0.14020495979300002,-0.27465420285,0.010704022735,-0.11406651164999998,-0.27647715842000004,0.40629729551000004
11:22:54,0.15436295,-0.27673995,0.06926295,-0.30937034999999996,-0.2947288,0.12620865,-14.888857849999999,-4.50078595,-25.38585045,38.11654405,0.13889060833,-0.2740394485,0.01066641535,-0.11176003649999999,-0.27348596020000004,0.40225568310000004
11:22:54,0.153461005,-0.276150705,0.068134505,-0.3058280649999999,-0.29150612000000004,0.126166035,-14.886281515,-4.512352705,-25.387749255,38.154525695000004,0.137576256867,-0.27342469415,0.010628807965,-0.10945356134999998,-0.27049476198000005,0.39821407069000003
11:22:54,0.15255906000000002,-0.27556146,0.06700605999999999,-0.30228577999999995,-0.28828344,0.12612341999999999,-14.88370518,-4.52391946,-25.38964806,38.19250734,0.13626190540400002,-0.2728099398,0.010591200580000001,-0.10714708619999999,-0.26750356376000006,0.39417245828
11:22:54,0.151657115,-0.274972215,0.065877615,-0.29874349499999997,-0.28506076,0.126080805,-14.881128845,-4.535486215,-25.391546865,38.230488985,0.134947553941,-0.27219518545,0.010553593195,-0.10484061104999998,-0.26451236554,0.39013084587
11:22:54,0.15075517,-0.27438297,0.06474917,-0.29520120999999994,-0.28183808000000005,0.12603819,-14.87855251,-4.54705297,-25.393445670000002,38.26847063,0.133633202478,-0.2715804311,0.01051598581,-0.10253413589999999,-0.26152116732,0.38608923346
11:22:54,0.149853225,-0.273793725,0.063620725,-0.29165892499999996,-0.2786154,0.125995575,-14.875976175,-4.558619725,-25.395344475,38.306452275,0.13231885101500002,-0.27096567675,0.010478378425,-0.10022766074999997,-0.25852996910000003,0.38204762105
11:22:54,0.14895128000000002,-0.27320447999999997,0.06249228,-0.2881166399999999,-0.27539272000000004,0.12595296,-14.87339984,-4.57018648,-25.39724328,38.34443392,0.131004499552,-0.2703509224,0.010440771040000001,-0.09792118559999999,-0.25553877088000004,0.37800600864
11:22:54,0.148049335,-0.272615235,0.06136383499999999,-0.28457435499999995,-0.27217004,0.125910345,-14.870823505,-4.581753235,-25.399142085,38.382415565,0.129690148089,-0.26973616805,0.010403163655,-0.09561471045,-0.25254757266000005,0.37396439623000005
11:22:54,0.14714739,-0.27202599,0.06023539,-0.28103206999999997,-0.26894736,0.12586773,-14.86824717,-4.5933199899999995,-25.40104089,38.420397210000004,0.12837579662600002,-0.2691214137,0.01036555627,-0.09330823529999999,-0.24955637444000006,0.36992278382000005
11:22:54,0.146245445,-0.271436745,0.059106944999999994,-0.27748978499999993,-0.26572468000000005,0.125825115,-14.865670835,-4.604886745,-25.402939695,38.458378855,0.12706144516300003,-0.26850665935,0.010327948885,-0.09100176015,-0.24656517622000007,0.36588117141000004
11:22:54,0.14534350000000001,-0.2708475,0.0579785,-0.27394749999999995,-0.262502,0.1257825,-14.863094499999999,-4.6164535,-25.4048385,38.4963605,0.1257470937,-0.267891905,0.010290341500000001,-0.08869528499999998,-0.24357397800000002,0.36183955900000003
11:22:54,0.144441555,-0.270258255,0.056850055,-0.270405215,-0.25927932000000004,0.125739885,-14.860518165,-4.628020255,-25.406737305,38.534342145000004,0.12443274223700002,-0.26727715065,0.010252734115,-0.08638880985,-0.24058277978000003,0.35779794659
11:22:54,0.14353961,-0.26966901,0.05572160999999999,-0.26686292999999994,-0.25605664,0.12569727,-14.85794183,-4.63958701,-25.40863611,38.57232379,0.12311839077400002,-0.2666623963,0.01021512673,-0.08408233469999998,-0.23759158156000004,0.35375633418
11:22:54,0.14263766500000002,-0.269079765,0.054593165,-0.26332064499999996,-0.25283396,0.125654655,-14.855365495,-4.651153765,-25.410534915,38.610305435,0.121804039311,-0.26604764194999997,0.010177519345,-0.08177585955,-0.23460038334000005,0.34971472177
11:22:54,0.14173572,-0.26849052,0.05346471999999999,-0.25977835999999993,-0.24961128000000005,0.12561204,-14.85278916,-4.66272052,-25.41243372,38.64828708,0.12048968784800002,-0.2654328876,0.010139911960000001,-0.07946938439999998,-0.23160918512000006,0.34567310936
11:22:54,0.140833775,-0.267901275,0.052336275,-0.25623607499999995,-0.2463886,0.125569425,-14.850212825,-4.674287275,-25.414332525,38.686268725000005,0.11917533638500002,-0.26481813325,0.010102304575,-0.07716290925,-0.22861798690000007,0.34163149695
11:22:54,0.13993183,-0.26731203,0.051207829999999996,-0.25269379,-0.24316592000000004,0.12552681,-14.84763649,-4.68585403,-25.41623133,38.72425037,0.117860984922,-0.2642033789,0.01006469719,-0.07485643409999998,-0.22562678868000002,0.33758988454000005
11:22:54,0.13902988500000002,-0.266722785,0.05007938499999999,-0.24915150499999994,-0.23994324,0.125484195,-14.845060155,-4.697420785,-25.418130135000002,38.762232015,0.11654663345900002,-0.26358862455,0.010027089805,-0.07254995895,-0.22263559046000003,0.33354827213000005
11:22:54,0.13812794,-0.26613354,0.04895094,-0.24560921999999996,-0.23672056000000002,0.12544158,-14.84248382,-4.70898754,-25.42002894,38.800213660000004,0.11523228199600002,-0.26297387019999996,0.009989482420000001,-0.07024348379999998,-0.21964439224000004,0.32950665972000004
11:22:54,0.137225995,-0.265544295,0.04782249499999999,-0.24206693499999993,-0.23349788000000005,0.125398965,-14.839907485,-4.7205542949999995,-25.421927745,38.838195305,0.113917930533,-0.26235911585,0.009951875035,-0.06793700864999996,-0.21665319402000005,0.32546504731000003
11:22:54,0.13632405,-0.26495504999999997,0.04669405,-0.23852464999999995,-0.2302752,0.12535635,-14.83733115,-4.73212105,-25.42382655,38.87617695,0.11260357907000001,-0.2617443615,0.00991426765,-0.06563053349999998,-0.21366199580000006,0.3214234349
11:22:54,0.13542210500000001,-0.264365805,0.04556560500000001,-0.23498236499999997,-0.22705252000000004,0.125313735,-14.834754815,-4.743687805,-25.425725355,38.914158595,0.11128922760700002,-0.26112960715,0.009876660265,-0.06332405834999999,-0.21067079758000007,0.31738182249
11:22:54,0.13452016,-0.26377656,0.04443716,-0.23144007999999994,-0.22382984,0.12527112,-14.83217848,-4.75525456,-25.42762416,38.95214024,0.109974876144,-0.2605148528,0.00983905288,-0.0610175832,-0.20767959936000002,0.31334021008
11:22:54,0.133618215,-0.26318731500000003,0.043308715,-0.22789779499999996,-0.22060716000000002,0.125228505,-14.829602144999999,-4.766821315,-25.429522965,38.990121885,0.10866052468100001,-0.25990009845,0.009801445495000002,-0.058711108050000016,-0.20468840114000003,0.30929859767
11:22:54,0.13271627000000003,-0.26259807,0.04218026999999999,-0.22435550999999992,-0.21738448000000005,0.12518589,-14.82702581,-4.77838807,-25.43142177,39.02810353,0.10734617321800002,-0.2592853441,0.00976383811,-0.056404632899999974,-0.20169720292000004,0.30525698526
11:22:54,0.131814325,-0.262008825,0.041051824999999986,-0.22081322499999995,-0.2141618,0.125143275,-14.824449475,-4.789954825,-25.433320575,39.066085175,0.106031821755,-0.25867058975,0.009726230725,-0.05409815774999999,-0.19870600470000005,0.30121537285000005
11:22:54,0.13091238,-0.26141958,0.03992338000000001,-0.21727093999999997,-0.21093912000000004,0.12510066,-14.82187314,-4.80152158,-25.43521938,39.10406682,0.10471747029200001,-0.2580558354,0.00968862334,-0.0517916826,-0.19571480648000006,0.29717376044000005
11:22:54,0.130010435,-0.26083033499999997,0.038794935,-0.21372865499999993,-0.20771644,0.125058045,-14.819296805,-4.813088335,-25.437118185,39.142048465,0.10340311882900002,-0.25744108104999996,0.009651015955000002,-0.04948520745000001,-0.19272360826000007,0.29313214803000004
11:22:54,0.12910849000000002,-0.26024109,0.03766649,-0.21018636999999996,-0.20449376000000002,0.12501543,-14.81672047,-4.82465509,-25.43901699,39.180030110000004,0.102088767366,-0.2568263267,0.00961340857,-0.04717873229999997,-0.18973241004000008,0.28909053562000003
11:22:54,0.128206545,-0.259651845,0.03653804499999999,-0.20664408499999998,-0.20127108000000005,0.124972815,-14.814144135,-4.836221845,-25.440915795000002,39.218011755,0.10077441590300001,-0.25621157234999997,0.009575801185,-0.04487225714999998,-0.18674121182000003,0.28504892321
11:22:54,0.1273046,-0.25906260000000003,0.035409599999999986,-0.20310179999999994,-0.1980484,0.1249302,-14.8115678,-4.8477885999999994,-25.442814600000002,39.2559934,0.09946006444000002,-0.255596818,0.0095381938,-0.042565781999999996,-0.18375001360000004,0.2810073108
11:22:54,0.126402655,-0.258473355,0.03428115500000001,-0.19955951499999997,-0.19482572000000004,0.124887585,-14.808991465,-4.859355355,-25.444713405,39.293975045,0.098145712977,-0.25498206365,0.009500586415000001,-0.04025930685000001,-0.18075881538000005,0.27696569839
11:22:54,0.12550071000000002,-0.25788411,0.03315271,-0.19601722999999993,-0.19160304,0.12484497,-14.80641513,-4.87092211,-25.44661221,39.33195669,0.09683136151400001,-0.2543673093,0.00946297903,-0.03795283169999997,-0.17776761716000006,0.27292408598
11:22:54,0.12459876500000001,-0.257294865,0.032024264999999996,-0.19247494499999995,-0.18838036000000002,0.124802355,-14.803838795,-4.882488865,-25.448511015,39.369938335,0.09551701005100002,-0.25375255495,0.009425371645,-0.03564635654999998,-0.17477641894000007,0.26888247357
11:22:54,0.12369682000000001,-0.25670561999999997,0.03089581999999999,-0.18893265999999997,-0.18515768000000005,0.12475974,-14.80126246,-4.89405562,-25.45040982,39.40791998,0.094202658588,-0.2531378006,0.00938776426,-0.03333988139999999,-0.17178522072000008,0.26484086116000005
11:22:54,0.12279487500000001,-0.256116375,0.029767374999999985,-0.18539037499999994,-0.181935,0.124717125,-14.798686125,-4.905622375,-25.452308625,39.445901625000005,0.09288830712500001,-0.25252304625,0.009350156875000001,-0.031033406250000006,-0.16879402250000003,0.26079924875000005
11:22:54,0.12189293000000001,-0.25552713,0.028638930000000007,-0.18184808999999996,-0.17871232000000004,0.12467451,-14.79610979,-4.91718913,-25.45420743,39.48388327,0.09157395566200002,-0.25190829189999997,0.00931254949,-0.028726931099999964,-0.16580282428000004,0.25675763634000004
11:22:54,0.12099098500000001,-0.25493788500000003,0.027510485,-0.17830580499999993,-0.17548964,0.124631895,-14.793533455,-4.928755885,-25.456106235,39.521864915,0.090259604199,-0.25129353755,0.009274942105,-0.026420455949999977,-0.16281162606000005,0.25271602393000003
11:22:54,0.12008904000000001,-0.25434864,0.026382039999999995,-0.17476351999999995,-0.17226696000000002,0.12458928,-14.79095712,-4.94032264,-25.45800504,39.559846560000004,0.08894525273600001,-0.2506787832,0.00923733472,-0.02411398079999999,-0.15982042784000006,0.24867441152000003
11:22:54,0.119187095,-0.253759395,0.02525359499999999,-0.17122123499999997,-0.16904428000000005,0.124546665,-14.788380785,-4.951889395,-25.459903845,39.597828205,0.08763090127300002,-0.25006402885,0.009199727335000001,-0.021807505650000003,-0.15682922962000007,0.24463279911000002
11:22:54,0.11828515,-0.25317015,0.024125149999999984,-0.16767894999999994,-0.1658216,0.12450405,-14.78580445,-4.96345615,-25.46180265,39.63580985,0.08631654981,-0.24944927449999998,0.00916211995,-0.019501030500000016,-0.15383803140000007,0.24059118670000001
11:22:54,0.117383205,-0.25258090499999997,0.022996705000000006,-0.16413666499999996,-0.16259892000000004,0.124461435,-14.783228115,-4.975022904999999,-25.463701455,39.673791495,0.08500219834700001,-0.24883452015,0.009124512565,-0.017194555349999974,-0.15084683318000008,0.23654957429
11:22:54,0.11648126,-0.25199166,0.02186826,-0.16059437999999993,-0.15937624,0.12441882,-14.78065178,-4.98658966,-25.465600260000002,39.71177314,0.08368784688400002,-0.2482197658,0.00908690518,-0.014888080199999987,-0.14785563496000004,0.23250796188
11:22:54,0.115579315,-0.251402415,0.020739814999999995,-0.15705209499999995,-0.15615356000000002,0.124376205,-14.778075445,-4.998156415,-25.467499065000002,39.749754785,0.082373495421,-0.24760501145,0.009049297795000001,-0.01258160505,-0.14486443674000005,0.22846634947
11:22:54,0.11467737000000001,-0.25081317000000003,0.01961136999999999,-0.15350980999999997,-0.15293088000000005,0.12433359,-14.77549911,-5.00972317,-25.46939787,39.78773643,0.08105914395800001,-0.2469902571,0.00901169041,-0.010275129900000013,-0.14187323852000006,0.22442473706
11:22:54,0.11377542500000001,-0.250223925,0.018482924999999983,-0.14996752499999993,-0.1497082,0.124290975,-14.772922775,-5.021289925,-25.471296675,39.825718075,0.07974479249500002,-0.24637550274999998,0.008974083025,-0.00796865474999997,-0.13888204030000006,0.22038312464999998
11:22:54,0.11287348000000001,-0.24963468,0.017354480000000005,-0.14642523999999996,-0.14648552000000004,0.12424836,-14.770346439999999,-5.03285668,-25.47319548,39.86369972,0.078430441032,-0.2457607484,0.00893647564,-0.0056621795999999835,-0.13589084208000007,0.21634151223999998
11:22:54,0.11197153500000001,-0.24904543499999998,0.016226035,-0.14288295499999992,-0.14326284,0.124205745,-14.767770105,-5.044423435,-25.475094285,39.901681365,0.07711608956900001,-0.24514599404999998,0.008898868255000001,-0.0033557044499999966,-0.13289964386000008,0.21229989982999997
11:22:54,0.11106959000000001,-0.24845619,0.015097589999999994,-0.13934066999999994,-0.14004016000000002,0.12416313,-14.76519377,-5.05599019,-25.47699309,39.939663010000004,0.07580173810600002,-0.24453123969999999,0.00886126087,-0.0010492293000000097,-0.12990844564000004,0.20825828742000008
11:22:54,0.11016764500000001,-0.247866945,0.013969144999999988,-0.13579838499999997,-0.13681748000000005,0.124120515,-14.762617435,-5.067556945,-25.478891895,39.977644655,0.074487386643,-0.24391648535,0.008823653485,0.0012572458500000327,-0.12691724742000005,0.20421667501000007
11:22:54,0.10926570000000002,-0.2472777,0.012840699999999983,-0.13225609999999993,-0.1335948,0.1240779,-14.7600411,-5.0791237,-25.4807907,40.0156263,0.07317303518000001,-0.243301731,0.0087860461,0.0035637210000000197,-0.12392604920000005,0.20017506260000006
11:22:54,0.108363755,-0.246688455,0.011712255000000005,-0.12871381499999995,-0.13037212000000004,0.124035285,-14.757464765,-5.090690455,-25.482689505,40.053607945,0.07185868371700002,-0.24268697665,0.008748438715000001,0.005870196150000007,-0.12093485098000006,0.19613345019000006
11:22:54,0.10746181000000002,-0.24609921,0.010583809999999999,-0.12517152999999992,-0.12714944,0.12399267,-14.75488843,-5.102257209999999,-25.48458831,40.09158959,0.070544332254,-0.24207222229999997,0.00871083133,0.008176671299999994,-0.11794365276000007,0.19209183778000005
11:22:54,0.106559865,-0.245509965,0.009455364999999993,-0.12162924499999994,-0.12392676000000002,0.123950055,-14.752312095,-5.113823965,-25.486487115,40.129571235,0.06922998079100001,-0.24145746795,0.008673223944999999,0.010483146450000036,-0.11495245454000008,0.18805022537000005
11:22:54,0.10565792000000002,-0.24492071999999998,0.008326919999999988,-0.11808695999999996,-0.12070408000000005,0.12390744000000001,-14.74973576,-5.12539072,-25.488385920000002,40.16755288,0.06791562932800002,-0.24084271359999998,0.00863561656,0.012789621600000023,-0.11196125632000009,0.18400861296000004
11:22:54,0.104755975,-0.24433147500000002,0.007198474999999982,-0.11454467499999998,-0.11748140000000001,0.123864825,-14.747159425,-5.136957475,-25.490284725000002,40.205534525000004,0.066601277865,-0.24022795924999998,0.008598009175,0.01509609675000001,-0.10897005810000004,0.17996700055000003
11:22:54,0.10385403000000001,-0.24374223,0.006070030000000004,-0.1110023899999999,-0.11425872000000004,0.12382221,-14.74458309,-5.14852423,-25.492183530000002,40.24351617,0.06528692640200001,-0.2396132049,0.008560401790000002,0.017402571899999997,-0.10597885988000005,0.17592538814000003
11:22:54,0.102952085,-0.243152985,0.004941584999999998,-0.10746010499999992,-0.11103604,0.123779595,-14.742006755,-5.160090985,-25.494082335,40.281497815,0.06397257493900002,-0.23899845055,0.008522794405,0.019709047049999984,-0.10298766166000006,0.17188377573000002
11:22:54,0.10205014000000001,-0.24256374,0.0038131399999999926,-0.10391781999999994,-0.10781336000000002,0.12373698,-14.73943042,-5.17165774,-25.49598114,40.319479460000004,0.062658223476,-0.2383836962,0.00848518702,0.022015522200000026,-0.09999646344000007,0.16784216332000002
11:22:54,0.101148195,-0.241974495,0.002684694999999987,-0.10037553499999996,-0.10459068000000005,0.123694365,-14.736854085,-5.183224495,-25.497879945,40.357461105,0.06134387201300001,-0.23776894184999997,0.008447579635,0.024321997350000013,-0.09700526522000008,0.16380055091
11:22:54,0.10024625000000001,-0.24138525,0.0015562499999999813,-0.09683324999999998,-0.10136800000000001,0.12365175,-14.73427775,-5.19479125,-25.49977875,40.39544275,0.06002952055000002,-0.2371541875,0.008409972250000002,0.0266284725,-0.09401406700000009,0.1597589385
11:22:54,0.09934430500000002,-0.24079600499999998,0.0004278050000000033,-0.093290965,-0.09814532000000004,0.123609135,-14.731701415,-5.206358005,-25.501677555,40.433424395,0.058715169087,-0.23653943314999998,0.008372364865,0.028934947649999987,-0.09102286878000004,0.15571732609
11:22:54,0.09844236,-0.24020676000000002,-0.0007006400000000024,-0.08974867999999991,-0.09492264,0.12356652,-14.72912508,-5.21792476,-25.50357636,40.47140604,0.05740081762400001,-0.23592467879999998,0.00833475748,0.03124142280000003,-0.08803167056000005,0.15167571368
11:22:54,0.09754041500000002,-0.239617515,-0.001829085000000008,-0.08620639499999994,-0.09169996000000002,0.123523905,-14.726548745,-5.229491515,-25.505475165,40.509387685,0.05608646616100002,-0.23530992444999999,0.008297150095,0.033547897950000016,-0.08504047234000006,0.14763410126999998
11:22:54,0.09663847,-0.23902827,-0.0029575300000000138,-0.08266410999999996,-0.08847728000000005,0.12348129000000001,-14.72397241,-5.24105827,-25.50737397,40.54736933,0.054772114698,-0.2346951701,0.008259542710000001,0.0358543731,-0.08204927412000007,0.14359248885999998
11:22:54,0.09573652500000002,-0.238439025,-0.0040859750000000195,-0.07912182499999998,-0.08525460000000001,0.123438675,-14.721396075,-5.252625025,-25.509272775,40.585350975,0.05345776323500001,-0.23408041575,0.008221935325,0.03816084824999999,-0.07905807590000008,0.13955087644999997
11:22:54,0.09483458,-0.23784978,-0.005214419999999997,-0.07557954,-0.08203192000000004,0.12339606,-14.71881974,-5.26419178,-25.51117158,40.62333262,0.05214341177200002,-0.23346566139999997,0.00818432794,0.04046732340000003,-0.07606687768000009,0.13550926404000008
11:22:54,0.09393263500000001,-0.237260535,-0.006342865000000003,-0.07203725499999991,-0.07880924,0.123353445,-14.716243405,-5.275758535,-25.513070385000002,40.661314265,0.050829060309,-0.23285090705,0.008146720555,0.04277379855000002,-0.07307567946000004,0.13146765163000007
11:22:54,0.09303069,-0.23667128999999998,-0.007471310000000009,-0.06849496999999993,-0.07558656000000008,0.12331083,-14.71366707,-5.28732529,-25.514969190000002,40.699295910000004,0.04951470884600001,-0.23223615269999998,0.008109113170000001,0.045080273700000006,-0.07008448124000005,0.12742603922000006
11:22:54,0.09212874500000001,-0.23608204500000002,-0.008599755000000014,-0.06495268499999995,-0.07236388000000005,0.123268215,-14.711090734999999,-5.298892045,-25.516867995000002,40.737277555,0.04820035738300002,-0.23162139835,0.008071505785,0.04738674884999999,-0.06709328302000006,0.12338442681000006
11:22:54,0.09122680000000002,-0.2354928,-0.00972820000000002,-0.061410399999999976,-0.06914120000000001,0.1232256,-14.7085144,-5.3104588,-25.5187668,40.7752592,0.04688600592000003,-0.23100664399999998,0.0080338984,0.049693224000000036,-0.06410208480000007,0.11934281440000005
11:22:54,0.09032485500000001,-0.23490355499999999,-0.010856644999999998,-0.057868115,-0.06591851999999998,0.123182985,-14.705938065,-5.322025555,-25.520665605,40.813240845,0.04557165445700001,-0.23039188965,0.007996291015,0.05199969915000002,-0.06111088658000008,0.11530120199000005
11:22:54,0.08942291000000002,-0.23431431,-0.011985090000000004,-0.05432582999999991,-0.06269584000000006,0.12314037,-14.70336173,-5.33359231,-25.52256441,40.85122249,0.04425730299400002,-0.2297771353,0.007958683630000001,0.05430617430000001,-0.05811968836000009,0.11125958958000004
11:22:54,0.08852096500000001,-0.233725065,-0.01311353500000001,-0.05078354499999993,-0.059473160000000025,0.123097755,-14.700785395,-5.345159065,-25.524463215,40.889204135,0.04294295153100003,-0.22916238094999997,0.007921076245,0.05661264945,-0.0551284901400001,0.10721797717000003
11:22:54,0.08761902000000002,-0.23313582,-0.014241980000000015,-0.04724125999999995,-0.05625047999999999,0.12305514000000001,-14.69820906,-5.35672582,-25.52636202,40.92718578,0.04162860006800001,-0.2285476266,0.00788346886,0.058919124599999984,-0.05213729192000005,0.10317636476000003
11:22:54,0.086717075,-0.23254657499999998,-0.015370424999999993,-0.04369897499999997,-0.05302780000000007,0.123012525,-14.695632725,-5.368292575,-25.528260825,40.965167425000004,0.04031424860500002,-0.22793287224999997,0.007845861475,0.061225599750000026,-0.04914609370000006,0.09913475235000002
11:22:54,0.08581513000000002,-0.23195733000000002,-0.01649887,-0.040156689999999995,-0.049805120000000036,0.12296991,-14.69305639,-5.37985933,-25.53015963,41.00314907,0.03899989714200003,-0.2273181179,0.00780825409,0.06353207490000001,-0.04615489548000007,0.09509313994000002
11:22:54,0.084913185,-0.231368085,-0.017627315000000005,-0.036614404999999905,-0.04658244,0.122927295,-14.690480055,-5.391426085,-25.532058435,41.041130715,0.03768554567900001,-0.22670336354999998,0.007770646705,0.06583855005,-0.04316369726000008,0.09105152753000001
11:22:54,0.08401124000000001,-0.23077883999999999,-0.01875576000000001,-0.03307211999999993,-0.04335976000000008,0.12288468,-14.68790372,-5.40299284,-25.53395724,41.07911236,0.03637119421600002,-0.22608860919999998,0.00773303932,0.06814502519999999,-0.04017249904000009,0.08700991512
11:22:54,0.083109295,-0.230189595,-0.019884205000000016,-0.02952983499999995,-0.04013708000000005,0.122842065,-14.685327385,-5.414559595,-25.535856045000003,41.117094005,0.03505684275300003,-0.22547385485,0.007695431935,0.07045150035000003,-0.03718130082000004,0.08296830271
11:22:54,0.08220735000000001,-0.22960035,-0.021012649999999994,-0.02598754999999997,-0.036914400000000014,0.12279945,-14.68275105,-5.42612635,-25.537754850000002,41.15507565,0.03374249129000001,-0.2248591005,0.00765782455,0.07275797550000002,-0.034190102600000105,0.07892669029999999
11:22:54,0.08130540500000003,-0.229011105,-0.022141095,-0.022445264999999992,-0.03369171999999998,0.12275683500000001,-14.680174715,-5.437693105,-25.539653655000002,41.193057295,0.03242813982700002,-0.22424434615,0.007620217165,0.07506445065,-0.03119890438000006,0.07488507788999998
11:22:54,0.08040346000000001,-0.22842186,-0.023269540000000005,-0.018902979999999903,-0.03046904000000006,0.12271422,-14.67759838,-5.44925986,-25.541552460000002,41.23103894,0.031113788364000028,-0.22362959179999997,0.00758260978,0.07737092579999999,-0.028207706160000123,0.07084346547999998
11:22:54,0.07950151500000002,-0.22783261500000002,-0.02439798500000001,-0.015360694999999924,-0.027246360000000025,0.122671605,-14.675022045,-5.460826615,-25.543451265,41.269020585,0.02979943690100001,-0.22301483745,0.007545002395,0.07967740095000003,-0.025216507940000077,0.06680185306999997
11:22:54,0.07859957000000001,-0.22724337,-0.025526430000000017,-0.011818409999999946,-0.02402367999999999,0.12262899000000001,-14.67244571,-5.47239337,-25.54535007,41.30700223,0.02848508543800002,-0.22240008309999998,0.00750739501,0.08198387610000002,-0.02222530972000003,0.06276024066000008
11:22:54,0.07769762500000002,-0.22665412499999998,-0.026654874999999995,-0.008276124999999968,-0.02080100000000007,0.122586375,-14.669869375,-5.483960124999999,-25.547248875,41.344983875,0.027170733975000028,-0.22178532874999998,0.007469787625,0.08429035125,-0.019234111500000095,0.05871862825000007
11:22:54,0.07679568,-0.22606488,-0.02778332,-0.004733839999999989,-0.017578320000000036,0.12254376,-14.66729304,-5.49552688,-25.54914768,41.38296552,0.02585638251200001,-0.2211705744,0.007432180240000001,0.0865968264,-0.01624291328000005,0.054677015840000065
11:22:54,0.07589373500000002,-0.225475635,-0.028911765000000006,-0.0011915549999998998,-0.014355640000000003,0.122501145,-14.664716705,-5.507093635,-25.551046485,41.420947165,0.024542031049000018,-0.22055582005,0.007394572855000001,0.08890330154999998,-0.013251715060000113,0.05063540343000006
11:22:54,0.07499179,-0.22488639,-0.03004021000000001,0.0023507300000000786,-0.01113296000000008,0.12245853000000001,-14.66214037,-5.51866039,-25.55294529,41.45892881,0.023227679586000027,-0.2199410657,0.007356965470000001,0.09120977670000002,-0.010260516840000067,0.04659379102000005
11:22:54,0.07408984500000002,-0.224297145,-0.031168655000000017,0.005893015000000057,-0.007910280000000047,0.122415915,-14.659564035,-5.530227145,-25.554844095,41.496910455,0.02191332812300001,-0.21932631134999997,0.007319358085000001,0.09351625185000001,-0.007269318620000131,0.04255217861000005
11:22:54,0.0731879,-0.22370790000000002,-0.032297099999999995,0.009435300000000035,-0.004687600000000014,0.1223733,-14.6569877,-5.5417939,-25.5567429,41.5348921,0.020598976660000018,-0.218711557,0.007281750700000001,0.095822727,-0.004278120400000085,0.03851056620000004
11:22:54,0.07228595500000001,-0.223118655,-0.033425545,0.012977585000000014,-0.0014649199999999807,0.12233068500000001,-14.654411365,-5.5533606550000005,-25.558641705,41.572873745,0.019284625197000027,-0.21809680264999998,0.007244143315000001,0.09812920214999998,-0.0012869221800000386,0.034468953790000034
11:22:54,0.07138401000000003,-0.22252940999999998,-0.03455399000000001,0.016519870000000103,0.0017577599999999416,0.12228807,-14.65183503,-5.56492741,-25.560540510000003,41.61085539,0.01797027373400001,-0.21748204829999998,0.007206535930000001,0.10043567730000003,0.0017042760399998969,0.030427341380000028
11:22:54,0.07048206500000001,-0.221940165,-0.03568243500000001,0.02006215500000008,0.004980439999999975,0.122245455,-14.649258695,-5.576494165,-25.562439315000002,41.648837035,0.016655922271000018,-0.21686729394999998,0.007168928545000001,0.10274215245000001,0.004695474259999943,0.026385728970000022
11:22:54,0.06958012000000002,-0.22135092,-0.03681088000000002,0.02360444000000006,0.008203120000000008,0.12220284000000001,-14.64668236,-5.58806092,-25.564338120000002,41.68681868,0.015341570808000027,-0.2162525396,0.007131321160000001,0.1050486276,0.007686672479999879,0.022344116560000016
11:22:54,0.06867817500000001,-0.220761675,-0.037939324999999996,0.027146725000000038,0.01142579999999993,0.12216022500000001,-14.644106025,-5.599627675,-25.566236925000002,41.724800325000004,0.014027219345000008,-0.21563778525,0.0070937137750000006,0.10735510274999999,0.010677870699999925,0.01830250415000001
11:22:54,0.06777623000000002,-0.22017243,-0.03906777,0.030689010000000017,0.014648479999999964,0.12211761,-14.64152969,-5.611194429999999,-25.56813573,41.76278197,0.012712867882000017,-0.21502303089999997,0.0070561063900000005,0.10966157790000003,0.013669068919999972,0.014260891740000003
11:22:54,0.066874285,-0.21958318500000001,-0.04019621500000001,0.034231295000000106,0.017871159999999997,0.122074995,-14.638953355,-5.622761185,-25.570034535,41.800763615,0.011398516419000027,-0.21440827655,0.0070184990050000005,0.11196805305000002,0.016660267139999907,0.010219279329999997
11:22:54,0.06597234000000002,-0.21899394,-0.04132466000000001,0.037773580000000084,0.02109383999999992,0.12203238,-14.63637702,-5.63432794,-25.57193334,41.83874526,0.010084164956000008,-0.21379352219999997,0.0069808916200000005,0.1142745282,0.019651465359999953,0.006177666919999991
11:22:54,0.065070395,-0.21840469499999998,-0.04245310500000002,0.04131586500000006,0.024316519999999953,0.121989765,-14.633800685,-5.645894695,-25.573832145,41.876726905,0.008769813493000017,-0.21317876784999998,0.0069432842350000004,0.11658100334999999,0.02264266357999989,0.002136054509999985
11:22:54,0.06416845000000002,-0.21781545,-0.04358155,0.04485815000000004,0.027539199999999986,0.12194715,-14.63122435,-5.65746145,-25.57573095,41.91470855,0.007455462030000026,-0.21256401349999998,0.00690567685,0.11888747850000003,0.025633861799999935,-0.0019055579000000211
11:22:54,0.063266505,-0.217226205,-0.044709995,0.04840043500000002,0.03076188000000002,0.12190453500000001,-14.628648015,-5.669028205,-25.577629755,41.952690195,0.006141110567000008,-0.21194925914999999,0.006868069465,0.12119395365000002,0.02862506001999987,-0.005947170310000027
11:22:54,0.06236456000000001,-0.21663696,-0.04583844000000001,0.05194272000000011,0.03398455999999994,0.12186192,-14.62607168,-5.6805949600000005,-25.57952856,41.990671840000005,0.004826759103999989,-0.2113345048,0.00683046208,0.1235004288,0.03161625823999992,-0.009988782720000033
11:22:54,0.061462615000000026,-0.216047715,-0.046966885000000014,0.05548500500000009,0.037207239999999975,0.121819305,-14.623495345,-5.692161715,-25.581427365,42.028653485,0.003512407641000026,-0.21071975044999997,0.006792854695,0.12580690395,0.03460745645999996,-0.014030395129999929
11:22:54,0.06056067000000001,-0.21545847,-0.04809533000000002,0.059027290000000066,0.04042992000000001,0.12177669,-14.62091901,-5.70372847,-25.583326170000003,42.06663513,0.0021980561780000074,-0.2101049961,0.00675524731,0.12811337909999998,0.0375986546799999,-0.018072007539999935
11:22:54,0.059658725000000024,-0.214869225,-0.049223775,0.06256957500000004,0.04365259999999993,0.121734075,-14.618342675,-5.715295225,-25.585224975000003,42.104616775,0.0008837047150000443,-0.20949024174999997,0.006717639925,0.13041985425000002,0.040589852899999945,-0.02211361994999994
11:22:54,0.05875678000000001,-0.21427997999999998,-0.05035222,0.06611186000000002,0.046875279999999964,0.12169146,-14.61576634,-5.72686198,-25.587123780000002,42.14259842,-0.00043064674799997427,-0.20887548739999998,0.00668003254,0.1327263294,0.04358105111999988,-0.026155232359999947
11:22:54,0.05785483500000002,-0.213690735,-0.05148066500000001,0.069654145,0.05009796,0.121648845,-14.613190005,-5.738428734999999,-25.589022585000002,42.180580065,-0.0017449982109999929,-0.20826073304999998,0.006642425155,0.13503280455,0.04657224933999993,-0.030196844769999953
11:22:54,0.056952890000000006,-0.21310149,-0.052609110000000014,0.07319643000000009,0.05332063999999992,0.12160623000000001,-14.61061367,-5.74999549,-25.590921390000002,42.21856171,-0.003059349673999956,-0.20764597869999998,0.00660481777,0.13733927969999998,0.04956344755999986,-0.03423845717999996
11:22:54,0.05605094500000002,-0.212512245,-0.05373755500000002,0.07673871500000007,0.05654331999999995,0.121563615,-14.608037335,-5.761562245,-25.592820195,42.256543355,-0.0043737011369999745,-0.20703122435,0.006567210385,0.13964575485000003,0.05255464577999991,-0.038280069589999965
11:22:55,0.055149,-0.211923,-0.054866,0.080281,0.059766,0.121521,-14.605461,-5.773129,-25.594719,42.294525,-0.0056880526,-0.20641647,0.006529603,0.14195223,0.055545844,-0.042321682
11:22:55,0.05585907,-0.21287235,-0.055364279999999995,0.07949264,0.059105485,0.121201395,-14.60313556,-5.77812667,-25.595709295000002,42.285934225,-0.005741680147,-0.20731509474999998,0.005985213185,0.14132591556000001,0.054878940259999995,-0.04155125397
11:22:55,0.05656914,-0.2138217,-0.05586256,0.07870428,0.05844497,0.12088179,-14.60081012,-5.78312434,-25.59669959,42.277343450000004,-0.005795307694,-0.20821371949999998,0.00544082337,0.14069960112000002,0.05421203652,-0.04078082594
11:22:55,0.05727921,-0.21477105,-0.056360839999999995,0.07791592,0.057784455,0.120562185,-14.59848468,-5.78812201,-25.597689885,42.268752675,-0.005848935241,-0.20911234425,0.004896433555,0.14007328668000002,0.05354513278,-0.04001039791
11:22:55,0.05798928,-0.2157204,-0.05685912,0.07712756000000001,0.05712394,0.12024258,-14.59615924,-5.79311968,-25.598680180000002,42.2601619,-0.005902562788,-0.210010969,0.00435204374,0.13944697224000002,0.052878229039999995,-0.03923996988
11:22:55,0.05869935,-0.21666975,-0.057357399999999996,0.07633920000000001,0.056463425,0.119922975,-14.5938338,-5.79811735,-25.599670475,42.251571125,-0.005956190335,-0.21090959374999999,0.0038076539250000005,0.13882065780000002,0.0522113253,-0.03846954185
11:22:55,0.05940942,-0.2176191,-0.05785568,0.07555084000000001,0.05580291,0.11960337,-14.59150836,-5.80311502,-25.60066077,42.24298035,-0.006009817882,-0.21180821849999998,0.0032632641100000005,0.13819434336,0.05154442156,-0.03769911382
11:22:55,0.06011949,-0.21856845,-0.058353959999999996,0.07476248,0.055142395,0.119283765,-14.58918292,-5.80811269,-25.601651065000002,42.234389575,-0.006063445429,-0.21270684325,0.0027188742950000006,0.13756802892,0.050877517819999996,-0.03692868579
11:22:55,0.06082956,-0.2195178,-0.05885224,0.07397412,0.054481879999999996,0.11896416,-14.58685748,-5.81311036,-25.60264136,42.2257988,-0.006117072976,-0.213605468,0.0021744844800000006,0.13694171448,0.05021061407999999,-0.03615825776
11:22:55,0.06153963,-0.22046715,-0.05935052,0.07318576,0.053821364999999996,0.118644555,-14.584532040000001,-5.81810803,-25.603631655,42.217208025,-0.006170700523,-0.21450409274999999,0.0016300946650000007,0.13631540004,0.04954371034,-0.03538782973
11:22:55,0.0622497,-0.2214165,-0.059848799999999994,0.0723974,0.05316085,0.11832495,-14.5822066,-5.8231057,-25.604621950000002,42.20861725,-0.00622432807,-0.21540271749999998,0.0010857048500000008,0.1356890856,0.048876806599999996,-0.0346174017
11:22:55,0.06295977,-0.22236585,-0.06034708,0.07160904000000001,0.052500335,0.118005345,-14.57988116,-5.82810337,-25.605612245,42.200026475,-0.006277955617,-0.21630134225,0.0005413150350000008,0.13506277116,0.04820990286,-0.03384697367
11:22:55,0.06366983999999999,-0.2233152,-0.06084536,0.07082068000000001,0.05183982,0.11768574,-14.57755572,-5.83310104,-25.60660254,42.1914357,-0.006331583164,-0.217199967,-3.074779999999097e-06,0.13443645672,0.04754299912,-0.033076545639999996
11:22:55,0.06437991,-0.22426455,-0.06134364,0.07003232000000001,0.051179305,0.11736613500000001,-14.57523028,-5.83809871,-25.607592835000002,42.182844925,-0.006385210711,-0.21809859175,-0.000547464594999999,0.13381014228000002,0.046876095379999996,-0.032306117610000004
11:22:55,0.06508997999999999,-0.2252139,-0.061841919999999995,0.06924396000000001,0.05051879,0.11704653000000001,-14.57290484,-5.8430963799999995,-25.60858313,42.17425415,-0.006438838258,-0.21899721649999998,-0.001091854409999999,0.13318382784000002,0.046209191639999994,-0.03153568958
11:22:55,0.06580005,-0.22616325,-0.0623402,0.0684556,0.049858275,0.11672692500000001,-14.5705794,-5.84809405,-25.609573425,42.165663375,-0.006492465805,-0.21989584125,-0.001636244224999998,0.13255751340000002,0.0455422879,-0.03076526155
11:22:55,0.06651011999999999,-0.2271126,-0.06283848,0.06766724,0.04919776,0.11640732000000001,-14.56825396,-5.85309172,-25.610563720000002,42.1570726,-0.006546093352,-0.220794466,-0.002180634039999999,0.13193119896000002,0.04487538416,-0.02999483352
11:22:55,0.06722019,-0.22806195,-0.06333675999999999,0.06687888,0.048537245,0.11608771500000001,-14.56592852,-5.85808939,-25.611554015,42.148481825,-0.006599720899,-0.22169309075,-0.0027250238549999996,0.13130488452,0.044208480419999995,-0.02922440549
11:22:55,0.06793025999999999,-0.2290113,-0.06383504,0.06609052,0.04787673,0.11576811000000001,-14.56360308,-5.86308706,-25.61254431,42.13989105,-0.006653348446,-0.22259171549999998,-0.0032694136699999987,0.13067857008,0.04354157668,-0.02845397746
11:22:55,0.06864033,-0.22996065,-0.06433332,0.06530216,0.047216215,0.115448505,-14.56127764,-5.86808473,-25.613534605,42.131300275,-0.006706975993,-0.22349034025,-0.003813803484999998,0.13005225564,0.04287467294,-0.02768354943
11:22:55,0.06935039999999999,-0.23091,-0.06483159999999999,0.06451380000000001,0.0465557,0.1151289,-14.5589522,-5.8730823999999995,-25.6145249,42.1227095,-0.00676060354,-0.224388965,-0.004358193299999999,0.1294259412,0.042207769199999995,-0.0269131214
11:22:55,0.07006047,-0.23185935,-0.06532987999999999,0.06372544000000001,0.045895185,0.114809295,-14.55662676,-5.87808007,-25.615515195,42.114118725,-0.006814231087,-0.22528758975,-0.004902583114999999,0.12879962676,0.04154086545999999,-0.02614269337
11:22:55,0.07077053999999999,-0.2328087,-0.06582816,0.06293708,0.045234670000000005,0.11448969,-14.55430132,-5.88307774,-25.61650549,42.10552795,-0.006867858634,-0.22618621449999998,-0.0054469729299999985,0.12817331232,0.04087396172,-0.02537226534
11:22:55,0.07148061,-0.23375805,-0.06632644,0.062148720000000005,0.044574155000000004,0.114170085,-14.55197588,-5.88807541,-25.617495785000003,42.096937175,-0.006921486181,-0.22708483925,-0.0059913627449999975,0.12754699788,0.040207057979999995,-0.02460183731
11:22:55,0.07219068,-0.2347074,-0.06682472,0.06136036,0.043913640000000004,0.11385048,-14.54965044,-5.89307308,-25.61848608,42.0883464,-0.006975113728,-0.227983464,-0.006535752559999998,0.12692068344000002,0.03954015424,-0.02383140928
11:22:55,0.07290075,-0.23565675,-0.067323,0.060572,0.043253125,0.113530875,-14.547325,-5.89807075,-25.619476375,42.079755625,-0.007028741275,-0.22888208875,-0.007080142374999999,0.12629436900000002,0.0388732505,-0.02306098125
11:22:55,0.07361082,-0.2366061,-0.06782128,0.059783640000000006,0.04259261,0.11321127,-14.54499956,-5.90306842,-25.620466670000003,42.07116485,-0.007082368822,-0.22978071349999998,-0.007624532189999998,0.12566805456000002,0.038206346759999996,-0.022290553220000002
11:22:55,0.07432089,-0.23755545,-0.06831956,0.058995280000000004,0.041932095,0.112891665,-14.542674120000001,-5.90806609,-25.621456965,42.062574075,-0.007135996369,-0.23067933825,-0.008168922004999997,0.12504174012000002,0.03753944301999999,-0.02152012519
11:22:55,0.07503096,-0.23850480000000002,-0.06881783999999999,0.05820692000000001,0.04127158,0.11257206,-14.54034868,-5.91306376,-25.62244726,42.0539833,-0.007189623916,-0.231577963,-0.008713311819999998,0.12441542568000001,0.03687253928,-0.02074969716
11:22:55,0.07574103,-0.23945415,-0.06931612,0.05741856000000001,0.040611065,0.112252455,-14.53802324,-5.91806143,-25.623437555000002,42.045392525,-0.007243251463,-0.23247658775,-0.009257701634999999,0.12378911124000001,0.036205635539999996,-0.01997926913
11:22:55,0.0764511,-0.2404035,-0.0698144,0.056630200000000006,0.03995055,0.11193285,-14.5356978,-5.9230591,-25.62442785,42.03680175,-0.00729687901,-0.23337521249999998,-0.009802091449999996,0.1231627968,0.0355387318,-0.0192088411
11:22:55,0.07716117,-0.24135285,-0.07031267999999999,0.055841840000000004,0.039290035,0.111613245,-14.53337236,-5.9280567699999995,-25.625418145,42.028210975,-0.007350506557,-0.23427383725,-0.010346481264999997,0.12253648236,0.03487182806,-0.01843841307
11:22:55,0.07787124,-0.2423022,-0.07081095999999999,0.05505348,0.03862952,0.11129364,-14.53104692,-5.93305444,-25.626408440000002,42.0196202,-0.007404134104,-0.235172462,-0.010890871079999998,0.12191016792,0.034204924319999996,-0.01766798504
11:22:55,0.07858131,-0.24325155,-0.07130924,0.05426512000000001,0.037969005,0.110974035,-14.52872148,-5.93805211,-25.627398735,42.011029425,-0.007457761651,-0.23607108675,-0.011435260894999999,0.12128385348000001,0.033538020579999994,-0.01689755701
11:22:55,0.07929138,-0.2442009,-0.07180752,0.053476760000000005,0.03730849,0.11065443,-14.52639604,-5.94304978,-25.62838903,42.00243865,-0.007511389198,-0.23696971149999999,-0.01197965071,0.12065753904000001,0.03287111683999999,-0.016127128980000002
11:22:55,0.08000145,-0.24515025000000001,-0.0723058,0.05268840000000001,0.036647975,0.110334825,-14.5240706,-5.94804745,-25.629379325000002,41.993847875,-0.007565016745,-0.23786833624999998,-0.012524040524999997,0.12003122460000001,0.0322042131,-0.01535670095
11:22:55,0.08071152,-0.2460996,-0.07280408,0.05190004000000001,0.03598746,0.11001522,-14.52174516,-5.95304512,-25.63036962,41.9852571,-0.007618644292,-0.238766961,-0.013068430339999998,0.11940491016000002,0.031537309359999995,-0.01458627292
11:22:55,0.08142159,-0.24704895,-0.07330236,0.05111168000000001,0.035326945,0.109695615,-14.51941972,-5.9580427899999995,-25.631359915,41.976666325,-0.007672271838999999,-0.23966558575,-0.013612820154999998,0.11877859572,0.030870405619999996,-0.013815844890000002
11:22:55,0.08213166,-0.2479983,-0.07380064,0.050323320000000005,0.03466643,0.10937601,-14.51709428,-5.96304046,-25.632350210000002,41.96807555,-0.007725899386,-0.2405642105,-0.014157209969999996,0.11815228128000001,0.030203501879999997,-0.013045416859999999
11:22:55,0.08284173,-0.24894765,-0.07429891999999999,0.04953496,0.034005915,0.109056405,-14.51476884,-5.96803813,-25.633340505,41.959484775,-0.007779526933,-0.24146283525,-0.014701599784999997,0.11752596684000001,0.029536598139999995,-0.01227498883
11:22:55,0.0835518,-0.249897,-0.0747972,0.04874660000000001,0.0333454,0.1087368,-14.5124434,-5.9730358,-25.6343308,41.950894,-0.00783315448,-0.24236146,-0.015245989599999997,0.11689965240000001,0.028869694399999996,-0.0115045608
11:22:55,0.08426187,-0.25084635,-0.07529548,0.047958240000000006,0.032684885,0.10841719500000001,-14.51011796,-5.97803347,-25.635321095000002,41.942303224999996,-0.007886782027,-0.24326008475,-0.015790379415,0.11627333796000001,0.028202790659999998,-0.010734132770000002
11:22:55,0.08497194,-0.2517957,-0.07579375999999999,0.047169880000000004,0.032024369999999996,0.10809759000000001,-14.50779252,-5.98303114,-25.63631139,41.93371245,-0.007940409574,-0.2441587095,-0.016334769229999997,0.11564702352,0.027535886919999995,-0.009963704740000003
11:22:55,0.08568201,-0.25274505,-0.07629203999999999,0.04638152,0.031363854999999996,0.107777985,-14.50546708,-5.98802881,-25.637301685,41.925121675,-0.007994037121,-0.24505733424999998,-0.016879159044999995,0.11502070908,0.026868983179999997,-0.009193276710000003
11:22:55,0.08639208,-0.2536944,-0.07679032,0.04559316000000001,0.030703340000000003,0.10745838,-14.50314164,-5.99302648,-25.63829198,41.9165309,-0.008047664668,-0.245955959,-0.01742354886,0.11439439464000001,0.026202079439999998,-0.008422848679999997
11:22:55,0.08710214999999999,-0.25464375,-0.0772886,0.044804800000000006,0.030042825000000002,0.107138775,-14.500816200000001,-5.99802415,-25.639282275,41.907940124999996,-0.008101292215,-0.24685458375,-0.017967938674999996,0.11376808020000001,0.025535175699999996,-0.007652420649999998
11:22:55,0.08781222,-0.2555931,-0.07778688,0.044016440000000004,0.029382310000000002,0.10681917,-14.49849076,-6.00302182,-25.64027257,41.89934935,-0.008154919762,-0.2477532085,-0.018512328489999993,0.11314176576000001,0.024868271959999997,-0.006881992619999999
11:22:55,0.08852229,-0.25654245,-0.07828515999999999,0.04322808,0.028721795,0.106499565,-14.49616532,-6.00801949,-25.641262865,41.890758575,-0.008208547309,-0.24865183325,-0.019056718304999998,0.11251545132000002,0.02420136822,-0.00611156459
11:22:55,0.08923236,-0.2574918,-0.07878344,0.04243972000000001,0.02806128,0.10617996,-14.49383988,-6.0130171599999995,-25.64225316,41.8821678,-0.008262174856,-0.249550458,-0.019601108119999995,0.11188913688000002,0.023534464479999996,-0.005341136560000001
11:22:55,0.08994242999999999,-0.25844115,-0.07928172,0.041651360000000005,0.027400765,0.105860355,-14.49151444,-6.01801483,-25.643243455,41.873577024999996,-0.008315802403,-0.25044908275,-0.020145497935,0.11126282244,0.022867560739999994,-0.004570708530000002
11:22:55,0.0906525,-0.2593905,-0.07977999999999999,0.040863000000000003,0.02674025,0.10554075,-14.489189,-6.0230125,-25.64423375,41.86498625,-0.00836942995,-0.2513477075,-0.020689887749999997,0.11063650800000001,0.022200657,-0.003800280500000003
11:22:55,0.09136257,-0.26033985,-0.08027828,0.04007464000000001,0.026079735,0.105221145,-14.48686356,-6.02801017,-25.645224045,41.856395475,-0.008423057497,-0.25224633225,-0.021234277564999994,0.11001019356000001,0.021533753259999996,-0.0030298524700000037
11:22:55,0.09207264,-0.2612892,-0.08077656,0.03928628000000001,0.02541922,0.10490154,-14.48453812,-6.03300784,-25.64621434,41.8478047,-0.008476685044,-0.253144957,-0.02177866738,0.10938387912,0.020866849519999994,-0.0022594244400000046
11:22:55,0.09278270999999999,-0.26223855,-0.08127483999999999,0.038497920000000005,0.024758705,0.104581935,-14.48221268,-6.03800551,-25.647204635,41.839213925,-0.008530312591,-0.25404358174999997,-0.022323057194999996,0.10875756468,0.02019994578,-0.0014889964099999986
11:22:55,0.09349278,-0.26318790000000003,-0.08177311999999999,0.03770956,0.02409819,0.10426233,-14.47988724,-6.0430031799999995,-25.64819493,41.83062315,-0.008583940138,-0.2549422065,-0.022867447009999993,0.10813125024,0.019533042039999997,-0.0007185683799999995
11:22:55,0.09420285,-0.26413725,-0.0822714,0.03692120000000001,0.023437674999999998,0.103942725,-14.4775618,-6.04800085,-25.649185225,41.822032375,-0.008637567685,-0.25584083125,-0.023411836824999997,0.1075049358,0.018866138299999995,5.185964999999959e-05
11:22:55,0.09491292,-0.2650866,-0.08276968,0.036132840000000006,0.022777160000000005,0.10362312,-14.47523636,-6.05299852,-25.65017552,41.8134416,-0.008691195232,-0.256739456,-0.023956226639999995,0.10687862136000001,0.01819923456,0.0008222876799999987
11:22:55,0.09562298999999999,-0.26603595,-0.08326796,0.035344480000000005,0.022116645000000004,0.103303515,-14.47291092,-6.05799619,-25.651165815,41.804850825,-0.008744822779,-0.25763808075,-0.024500616455,0.10625230692000001,0.017532330819999997,0.0015927157099999978
11:22:55,0.09633306,-0.2669853,-0.08376623999999999,0.03455612,0.021456130000000004,0.10298391,-14.47058548,-6.06299386,-25.65215611,41.79626005,-0.008798450326,-0.2585367055,-0.025045006269999996,0.10562599248000001,0.016865427079999995,0.002363143739999997
11:22:55,0.09704313,-0.26793465,-0.08426452,0.03376776000000001,0.020795615000000003,0.102664305,-14.46826004,-6.06799153,-25.653146405,41.787669275,-0.008852077873,-0.25943533025,-0.025589396084999994,0.10499967804000002,0.016198523339999993,0.003133571769999996
11:22:55,0.0977532,-0.268884,-0.0847628,0.032979400000000006,0.020135100000000003,0.1023447,-14.4659346,-6.0729892,-25.654136700000002,41.7790785,-0.00890570542,-0.260333955,-0.02613378589999999,0.1043733636,0.015531619599999998,0.003903999800000002
11:22:55,0.09846326999999999,-0.26983335,-0.08526107999999999,0.032191040000000004,0.019474585000000003,0.10202509500000001,-14.46360916,-6.07798687,-25.655126995,41.770487725,-0.008959332967,-0.26123257975,-0.026678175714999995,0.10374704916000001,0.014864715859999995,0.004674427830000001
11:22:55,0.09917334,-0.2707827,-0.08575935999999999,0.03140268,0.018814070000000002,0.10170549000000001,-14.46128372,-6.08298454,-25.65611729,41.76189695,-0.009012960514,-0.2621312045,-0.027222565529999992,0.10312073472000001,0.014197812119999993,0.00544485586
