Timestamp,linacce_x,linacce_y,linacce_z,gyro_x,gyro_y,gyro_z,X-magnetometer,Y-magnetometer,Z-magnetometer,Yaw, worldXAccel,worldYAccel,worldZAccel,worldXgyro,worldYgyro,worldZgyro
04:38:27,-0.219801,-0.045172,0.982666,0.387322,-0.294933,-0.025662,4.682384,6.461815,-33.001381,-0.7017789,0.6388897,-0.16267851,0.7763515,0.24781556,-0.2590502,-0.323726
04:38:27,-0.217630705,-0.043915575,0.977849685,0.38519663,-0.29513009,-0.0257419,4.677521045,6.458658835,-33.00457268,-0.718706903,0.636324781,-0.16081365235,0.7716658677,0.24635977585,-0.25942205150000003,-0.322128044607
04:38:27,-0.21546041,-0.04265915,0.97303337,0.38307126,-0.29532718,-0.025821800000000002,4.67265809,6.4555026699999996,-33.00776436,-0.735634906,0.633759862,-0.1589487947,0.7669802353999999,0.2449039917,-0.259793903,-0.320530089214
04:38:27,-0.213290115,-0.041402724999999994,0.968217055,0.38094589,-0.29552427,-0.0259017,4.6677951349999995,6.4523465049999995,-33.01095604,-0.752562909,0.631194943,-0.15708393705,0.7622946031,0.24344820755,-0.2601657545,-0.318932133821
04:38:27,-0.21111981999999999,-0.040146299999999996,0.9634007400000001,0.37882052,-0.29572136,-0.0259816,4.66293218,6.4491903399999995,-33.014147720000004,-0.769490912,0.628630024,-0.1552190794,0.7576089708,0.2419924234,-0.26053760600000003,-0.317334178428
04:38:27,-0.208949525,-0.038889875,0.9585844250000001,0.37669515,-0.29591845,-0.0260615,4.658069225,6.446034174999999,-33.017339400000004,-0.7864189149999999,0.626065105,-0.15335422175,0.7529233384999999,0.24053663925,-0.2609094575,-0.31573622303500004
04:38:27,-0.20677923,-0.03763345,0.9537681100000001,0.37456978,-0.29611554,-0.026141400000000002,4.65320627,6.442878009999999,-33.020531080000005,-0.803346918,0.623500186,-0.1514893641,0.7482377062,0.2390808551,-0.261281309,-0.31413826764200004
04:38:27,-0.204608935,-0.036377025,0.948951795,0.37244441,-0.29631263,-0.0262213,4.648343315,6.439721844999999,-33.023722760000005,-0.820274921,0.620935267,-0.14962450645,0.7435520739,0.23762507095,-0.2616531605,-0.31254031224900003
04:38:27,-0.20243864,-0.0351206,0.94413548,0.37031904,-0.29650972,-0.0263012,4.64348036,6.436565679999999,-33.02691444,-0.837202924,0.618370348,-0.1477596488,0.7388664415999999,0.2361692868,-0.262025012,-0.310942356856
04:38:27,-0.200268345,-0.033864174999999996,0.939319165,0.36819367,-0.29670681,-0.0263811,4.638617405,6.433409514999999,-33.03010612,-0.8541309269999999,0.615805429,-0.14589479115,0.7341808093,0.23471350265,-0.2623968635,-0.309344401463
04:38:27,-0.19809805,-0.03260775,0.93450285,0.3660683,-0.2969039,-0.026461000000000002,4.63375445,6.430253349999999,-33.0332978,-0.87105893,0.61324051,-0.14402993349999998,0.729495177,0.2332577185,-0.262768715,-0.30774644607
04:38:27,-0.19592775499999998,-0.031351325,0.929686535,0.36394293,-0.29710099,-0.0265409,4.6288914949999995,6.427097185,-33.03648948,-0.887986933,0.610675591,-0.14216507585,0.7248095447,0.23180193435,-0.2631405665,-0.306148490677
04:38:27,-0.19375746,-0.0300949,0.9248702200000001,0.36181756,-0.29729808,-0.0266208,4.62402854,6.42394102,-33.03968116,-0.904914936,0.608110672,-0.1403002182,0.7201239124,0.2303461502,-0.263512418,-0.304550535284
04:38:27,-0.191587165,-0.028838475,0.9200539050000001,0.35969219,-0.29749517,-0.0267007,4.619165585,6.420784855,-33.04287284,-0.921842939,0.605545753,-0.13843536055,0.7154382801,0.22889036605,-0.2638842695,-0.302952579891
04:38:27,-0.18941687,-0.02758205,0.91523759,0.35756682,-0.29769226,-0.0267806,4.61430263,6.41762869,-33.04606452,-0.938770942,0.602980834,-0.1365705029,0.7107526477999999,0.2274345819,-0.264256121,-0.301354624498
04:38:27,-0.187246575,-0.026325625,0.910421275,0.35544145,-0.29788935,-0.026860500000000002,4.609439675,6.414472525,-33.0492562,-0.955698945,0.600415915,-0.13470564525,0.7060670155,0.22597879775,-0.26462797250000003,-0.299756669105
04:38:27,-0.18507627999999998,-0.0250692,0.90560496,0.35331608,-0.29808644,-0.0269404,4.60457672,6.41131636,-33.05244788,-0.972626948,0.597850996,-0.1328407876,0.7013813832,0.2245230136,-0.264999824,-0.29815871371200003
04:38:27,-0.182905985,-0.023812775,0.900788645,0.35119071,-0.29828353,-0.0270203,4.599713765,6.408160195,-33.05563956,-0.989554951,0.595286077,-0.13097592995000001,0.6966957509,0.22306722945,-0.2653716755,-0.29656075831900003
04:38:27,-0.18073569,-0.02255635,0.89597233,0.34906534,-0.29848062,-0.0271002,4.59485081,6.40500403,-33.05883124,-1.006482954,0.592721158,-0.1291110723,0.6920101186,0.2216114453,-0.26574352700000003,-0.294962802926
04:38:27,-0.178565395,-0.021299925,0.891156015,0.34693997,-0.29867771,-0.027180100000000002,4.5899878549999995,6.401847865,-33.062022920000004,-1.023410957,0.590156239,-0.12724621465,0.6873244863,0.22015566115,-0.2661153785,-0.293364847533
04:38:27,-0.1763951,-0.0200435,0.8863397000000001,0.34481459999999997,-0.2988748,-0.02726,4.5851249,6.3986917,-33.065214600000004,-1.04033896,0.58759132,-0.125381357,0.682638854,0.218699877,-0.26648723,-0.29176689214
04:38:27,-0.17422480499999998,-0.018787075,0.881523385,0.34268923,-0.29907189,-0.0273399,4.580261945,6.395535535,-33.068406280000005,-1.057266963,0.585026401,-0.12351649935,0.6779532216999999,0.21724409285,-0.2668590815,-0.290168936747
04:38:27,-0.17205451,-0.017530650000000002,0.87670707,0.34056386,-0.29926898,-0.0274198,4.57539899,6.39237937,-33.07159796,-1.0741949659999999,0.582461482,-0.12165164170000001,0.6732675894,0.2157883087,-0.267230933,-0.288570981354
04:38:27,-0.169884215,-0.016274225,0.871890755,0.33843849,-0.29946607000000003,-0.027499700000000002,4.570536035,6.3892232049999995,-33.07478964,-1.091122969,0.579896563,-0.11978678405,0.6685819571,0.21433252455,-0.2676027845,-0.286973025961
04:38:27,-0.16771392,-0.015017800000000001,0.86707444,0.33631312,-0.29966316,-0.0275796,4.56567308,6.3860670399999995,-33.07798132,-1.108050972,0.577331644,-0.1179219264,0.6638963247999999,0.2128767404,-0.267974636,-0.28537507056800004
04:38:27,-0.165543625,-0.013761375,0.862258125,0.33418775,-0.29986025,-0.0276595,4.560810125,6.382910874999999,-33.081173,-1.1249789749999999,0.574766725,-0.11605706874999999,0.6592106925,0.21142095625,-0.2683464875,-0.28377711517500004
04:38:27,-0.16337332999999998,-0.01250495,0.8574418100000001,0.33206238,-0.30005734,-0.0277394,4.55594717,6.379754709999999,-33.08436468,-1.141906978,0.572201806,-0.1141922111,0.6545250602,0.20996517209999999,-0.26871833900000003,-0.28217915978200003
04:38:27,-0.161203035,-0.011248525000000002,0.8526254950000001,0.32993701,-0.30025443,-0.0278193,4.5510842149999995,6.376598544999999,-33.08755636,-1.158834981,0.569636887,-0.11232735345,0.6498394278999999,0.20850938794999999,-0.2690901905,-0.280581204389
04:38:27,-0.15903274,-0.009992100000000004,0.84780918,0.32781164,-0.30045152,-0.0278992,4.54622126,6.373442379999999,-33.09074804,-1.175762984,0.567071968,-0.1104624958,0.6451537956,0.20705360379999999,-0.269462042,-0.278983248996
04:38:27,-0.156862445,-0.008735675000000005,0.842992865,0.32568627,-0.30064861,-0.0279791,4.541358305,6.370286214999999,-33.09393972,-1.192690987,0.564507049,-0.10859763815000001,0.6404681633,0.20559781964999999,-0.26983389350000003,-0.277385293603
04:38:27,-0.15469215,-0.00747925,0.83817655,0.3235609,-0.3008457,-0.028059,4.53649535,6.36713005,-33.0971314,-1.20961899,0.56194213,-0.1067327805,0.635782531,0.20414203549999999,-0.270205745,-0.27578733821
04:38:27,-0.15252185499999998,-0.006222825000000001,0.833360235,0.32143553,-0.30104279,-0.0281389,4.531632395,6.363973885,-33.10032308,-1.226546993,0.559377211,-0.10486792285,0.6310968987,0.20268625134999999,-0.2705775965,-0.274189382817
04:38:27,-0.15035156,-0.004966400000000003,0.82854392,0.31931016,-0.30123988,-0.028218800000000002,4.52676944,6.36081772,-33.10351476,-1.243474996,0.556812292,-0.1030030652,0.6264112664,0.20123046719999998,-0.270949448,-0.272591427424
04:38:27,-0.148181265,-0.0037099750000000042,0.823727605,0.31718479,-0.30143697,-0.0282987,4.521906485,6.357661555,-33.10670644,-1.260402999,0.554247373,-0.10113820755,0.6217256340999999,0.19977468304999998,-0.2713212995,-0.270993472031
04:38:27,-0.14601097,-0.0024535500000000057,0.81891129,0.31505942,-0.30163406,-0.0283786,4.51704353,6.35450539,-33.109898120000004,-1.277331002,0.551682454,-0.0992733499,0.6170400018,0.19831889889999998,-0.271693151,-0.269395516638
04:38:27,-0.143840675,-0.0011971250000000003,0.814094975,0.31293404999999996,-0.30183115,-0.0284585,4.5121805749999995,6.351349225,-33.113089800000004,-1.294259005,0.549117535,-0.09740849225,0.6123543695,0.19686311474999998,-0.2720650025,-0.267797561245
04:38:27,-0.14167037999999998,5.929999999999824e-05,0.80927866,0.31080868,-0.30202824,-0.0285384,4.50731762,6.34819306,-33.11628148,-1.311187008,0.546552616,-0.0955436346,0.6076687372,0.19540733059999998,-0.272436854,-0.26619960585200003
04:38:27,-0.139500085,0.0013157249999999968,0.804462345,0.30868331,-0.30222533,-0.0286183,4.502454665,6.345036895,-33.11947316,-1.328115011,0.543987697,-0.09367877695,0.6029831049,0.19395154644999998,-0.2728087055,-0.264601650459
04:38:27,-0.13732979,0.0025721499999999953,0.79964603,0.30655794000000003,-0.30242242,-0.0286982,4.49759171,6.34188073,-33.12266484,-1.345043014,0.541422778,-0.0918139193,0.5982974726,0.19249576229999998,-0.273180557,-0.263003695066
04:38:27,-0.135159495,0.003828574999999994,0.794829715,0.30443257,-0.30261951,-0.0287781,4.492728755,6.338724565,-33.12585652,-1.3619710170000001,0.5388578589999999,-0.08994906165,0.5936118402999999,0.19103997814999998,-0.2735524085,-0.261405739673
04:38:27,-0.1329892,0.005084999999999999,0.7900134,0.3023072,-0.3028166,-0.028858,4.4878658,6.3355684,-33.1290482,-1.37889902,0.53629294,-0.088084204,0.588926208,0.18958419399999998,-0.27392426000000003,-0.25980778428
04:38:27,-0.13081890499999999,0.006341424999999998,0.7851970850000001,0.30018183,-0.30301369,-0.0289379,4.483002845,6.332412235,-33.13223988,-1.395827023,0.5337280209999999,-0.08621934635,0.5842405757,0.18812840984999998,-0.2742961115,-0.258209828887
04:38:27,-0.12864861,0.007597849999999996,0.7803807700000001,0.29805645999999997,-0.30321078,-0.0290178,4.47813989,6.32925607,-33.13543156,-1.4127550260000001,0.531163102,-0.08435448870000001,0.5795549434,0.18667262569999998,-0.274667963,-0.256611873494
04:38:27,-0.126478315,0.008854274999999995,0.775564455,0.29593109,-0.30340787,-0.0290977,4.4732769349999995,6.3260999049999995,-33.13862324,-1.429683029,0.5285981829999999,-0.08248963105,0.5748693111,0.18521684155,-0.27503981450000003,-0.255013918101
04:38:27,-0.12430801999999999,0.010110699999999993,0.77074814,0.29380572,-0.30360496,-0.0291776,4.46841398,6.3229437399999995,-33.14181492,-1.4466110319999999,0.5260332640000001,-0.0806247734,0.5701836788,0.18376105739999998,-0.275411666,-0.25341596270800004
04:38:27,-0.12213772499999999,0.011367124999999992,0.765931825,0.29168035,-0.30380205,-0.0292575,4.463551025,6.319787574999999,-33.1450066,-1.4635390350000002,0.523468345,-0.07875991575,0.5654980464999999,0.18230527325,-0.2757835175,-0.25181800731500004
04:38:27,-0.11996743,0.012623549999999997,0.76111551,0.28955498,-0.30399914,-0.0293374,4.45868807,6.316631409999999,-33.14819828,-1.480467038,0.5209034260000001,-0.0768950581,0.5608124141999999,0.18084948909999998,-0.276155369,-0.25022005192200003
04:38:27,-0.117797135,0.013879974999999996,0.756299195,0.28742961,-0.30419623,-0.0294173,4.453825115,6.313475244999999,-33.15138996,-1.4973950409999999,0.518338507,-0.07503020045,0.5561267819,0.17939370495,-0.2765272205,-0.24862209652900003
04:38:27,-0.11562684,0.015136399999999994,0.75148288,0.28530424,-0.30439332,-0.0294972,4.44896216,6.310319079999999,-33.15458164,-1.5143230440000002,0.5157735880000001,-0.0731653428,0.5514411496,0.17793792079999998,-0.276899072,-0.24702414113600002
04:38:27,-0.11345654499999999,0.016392824999999993,0.746666565,0.28317886999999997,-0.30459041,-0.029577100000000002,4.444099205,6.307162914999999,-33.157773320000004,-1.531251047,0.513208669,-0.07130048515,0.5467555172999999,0.17648213665,-0.2772709235,-0.245426185743
04:38:27,-0.11128624999999999,0.01764925,0.74185025,0.2810535,-0.3047875,-0.029657,4.4392362499999996,6.304006749999999,-33.160965000000004,-1.54817905,0.5106437500000001,-0.0694356275,0.542069885,0.17502635249999998,-0.277642775,-0.24382823035
04:38:27,-0.109115955,0.01890567499999999,0.737033935,0.27892813,-0.30498459,-0.0297369,4.434373295,6.300850585,-33.16415668,-1.565107053,0.508078831,-0.06757076985,0.5373842527,0.17357056835,-0.27801462650000003,-0.242230274957
04:38:27,-0.10694566,0.020162099999999995,0.73221762,0.27680276,-0.30518168,-0.0298168,4.42951034,6.29769442,-33.16734836,-1.582035056,0.5055139120000001,-0.06570591220000001,0.5326986203999999,0.17211478419999998,-0.278386478,-0.240632319564
04:38:27,-0.104775365,0.021418524999999987,0.727401305,0.27467739,-0.30537877,-0.0298967,4.424647385,6.294538255,-33.17054004,-1.598963059,0.502948993,-0.06384105455,0.5280129881,0.17065900005,-0.2787583295,-0.23903436417100002
04:38:27,-0.10260506999999999,0.022674949999999992,0.72258499,0.27255202,-0.30557586,-0.0299766,4.41978443,6.29138209,-33.17373172,-1.615891062,0.500384074,-0.0619761969,0.5233273558,0.16920321589999998,-0.27913018100000003,-0.237436408778
04:38:27,-0.10043477499999999,0.023931374999999998,0.7177686750000001,0.27042665,-0.30577295,-0.0300565,4.414921475,6.288225925,-33.1769234,-1.632819065,0.49781915499999996,-0.06011133925000001,0.5186417235,0.16774743175,-0.2795020325,-0.235838453385
04:38:27,-0.09826447999999999,0.02518779999999999,0.7129523600000001,0.26830128,-0.30597004,-0.0301364,4.41005852,6.28506976,-33.18011508,-1.649747068,0.49525423599999996,-0.0582464816,0.5139560912,0.16629164759999998,-0.279873884,-0.23424049799200003
04:38:27,-0.096094185,0.026444224999999995,0.708136045,0.26617590999999996,-0.30616713,-0.0302163,4.405195565,6.281913595,-33.18330676,-1.666675071,0.49268931699999996,-0.05638162395,0.5092704588999999,0.16483586345,-0.2802457355,-0.23264254259900002
04:38:27,-0.09392388999999998,0.027700649999999986,0.70331973,0.26405054,-0.30636422,-0.030296200000000002,4.4003326099999995,6.27875743,-33.18649844,-1.683603074,0.49012439799999996,-0.054516766300000005,0.5045848265999999,0.16338007929999998,-0.280617587,-0.23104458720600002
04:38:27,-0.091753595,0.028957074999999992,0.698503415,0.26192517,-0.30656131,-0.0303761,4.395469655,6.275601265,-33.18969012,-1.700531077,0.48755947899999996,-0.052651908649999996,0.49989919429999996,0.16192429515,-0.2809894385,-0.229446631813
04:38:27,-0.0895833,0.030213499999999997,0.6936871,0.2597998,-0.3067584,-0.030456,4.3906067,6.2724451,-33.1928818,-1.7174590799999998,0.48499455999999996,-0.050787051,0.495213562,0.16046851099999998,-0.28136129,-0.22784867642
04:38:27,-0.08741300499999999,0.03146992499999999,0.688870785,0.25767443,-0.30695549,-0.0305359,4.385743745,6.269288935,-33.19607348,-1.734387083,0.48242964099999996,-0.048922193350000004,0.4905279297,0.15901272685,-0.2817331415,-0.226250721027
04:38:27,-0.08524271,0.032726349999999994,0.68405447,0.25554906,-0.30715258,-0.0306158,4.38088079,6.26613277,-33.19926516,-1.751315086,0.47986472199999997,-0.04705733570000001,0.48584229739999996,0.15755694269999998,-0.282104993,-0.224652765634
04:38:27,-0.08307241499999998,0.033982774999999986,0.679238155,0.25342369,-0.30734967,-0.0306957,4.376017835,6.2629766049999995,-33.20245684,-1.7682430889999998,0.47729980299999997,-0.04519247805,0.4811566651,0.15610115855,-0.2824768445,-0.22305481024100002
04:38:27,-0.08090212,0.03523919999999999,0.6744218399999999,0.25129831999999996,-0.30754676000000003,-0.0307756,4.37115488,6.2598204399999995,-33.205648520000004,-1.7851710920000001,0.47473488399999997,-0.0433276204,0.47647103279999997,0.15464537439999998,-0.282848696,-0.221456854848
04:38:27,-0.078731825,0.036495625,0.6696055249999999,0.24917295,-0.30774385,-0.0308555,4.366291925,6.256664274999999,-33.2088402,-1.802099095,0.47216996499999997,-0.04146276275000001,0.47178540049999995,0.15318959025,-0.28322054750000003,-0.219858899455
04:38:27,-0.07656152999999999,0.03775204999999999,0.66478921,0.24704758,-0.30794094,-0.030935400000000002,4.3614289699999995,6.253508109999999,-33.21203188,-1.8190270979999998,0.46960504599999997,-0.0395979051,0.4670997682,0.15173380609999998,-0.283592399,-0.21826094406200003
04:38:27,-0.074391235,0.039008474999999994,0.659972895,0.24492221,-0.30813803,-0.0310153,4.356566015,6.250351944999999,-33.21522356,-1.8359551010000001,0.46704012699999997,-0.03773304745,0.46241413589999997,0.15027802195,-0.2839642505,-0.21666298866900002
04:38:27,-0.07222093999999998,0.040264899999999985,0.65515658,0.24279683999999999,-0.30833512,-0.0310952,4.35170306,6.247195779999999,-33.21841524,-1.852883104,0.464475208,-0.035868189800000005,0.45772850359999995,0.14882223779999998,-0.28433610200000003,-0.21506503327600002
04:38:27,-0.070050645,0.04152132499999999,0.650340265,0.24067147,-0.30853221000000003,-0.0311751,4.346840105,6.244039614999999,-33.22160692,-1.8698111069999999,0.461910289,-0.03400333215000001,0.4530428713,0.14736645365,-0.2847079535,-0.213467077883
04:38:27,-0.06788035,0.042777749999999996,0.6455239500000001,0.23854609999999998,-0.3087293,-0.031255,4.34197715,6.24088345,-33.2247986,-1.8867391100000002,0.45934537,-0.032138474500000014,0.44835723899999996,0.14591066949999998,-0.285079805,-0.21186912249
04:38:27,-0.06571005499999999,0.04403417499999999,0.640707635,0.23642073,-0.30892639,-0.0313349,4.337114195,6.237727285,-33.22799028,-1.903667113,0.456780451,-0.03027361684999999,0.4436716067,0.14445488535,-0.2854516565,-0.210271167097
04:38:27,-0.06353976,0.04529059999999999,0.63589132,0.23429535999999998,-0.30912348,-0.0314148,4.33225124,6.23457112,-33.23118196,-1.9205951159999999,0.454215532,-0.028408759199999994,0.4389859744,0.14299910119999998,-0.285823508,-0.208673211704
04:38:27,-0.061369464999999984,0.046547024999999985,0.631075005,0.23216999,-0.30932057,-0.0314947,4.327388285,6.231414955,-33.23437364,-1.9375231190000002,0.451650613,-0.02654390155,0.43430034209999996,0.14154331705,-0.2861953595,-0.20707525631100002
04:38:27,-0.059199169999999995,0.04780344999999999,0.62625869,0.23004461999999998,-0.30951766000000003,-0.0315746,4.3225253299999995,6.22825879,-33.23756532,-1.954451122,0.449085694,-0.024679043900000003,0.4296147098,0.14008753289999998,-0.286567211,-0.205477300918
04:38:27,-0.05702887500000001,0.049059874999999996,0.621442375,0.22791925,-0.30971475,-0.0316545,4.317662375,6.225102625,-33.240757,-1.971379125,0.446520775,-0.022814186250000007,0.4249290775,0.13863174875,-0.2869390625,-0.203879345525
04:38:27,-0.05485857999999999,0.05031629999999999,0.61662606,0.22579388,-0.30991184,-0.0317344,4.31279942,6.22194646,-33.24394868,-1.9883071280000002,0.443955856,-0.02094932860000001,0.42024344519999995,0.13717596459999998,-0.28731091400000003,-0.20228139013200003
04:38:27,-0.052688285,0.05157272499999999,0.611809745,0.22366851,-0.31010893,-0.031814300000000004,4.307936465,6.218790295,-33.24714036,-2.005235131,0.441390937,-0.019084470950000015,0.4155578129,0.13572018045,-0.2876827655,-0.20068343473900002
04:38:27,-0.050517989999999985,0.052829149999999984,0.60699343,0.22154314,-0.31030602,-0.0318942,4.30307351,6.21563413,-33.25033204,-2.022163134,0.438826018,-0.017219613299999992,0.41087218059999997,0.13426439629999998,-0.288054617,-0.19908547934600002
04:38:27,-0.048347694999999996,0.05408557499999999,0.6021771149999999,0.21941776999999998,-0.31050311,-0.0319741,4.298210555,6.212477965,-33.25352372,-2.039091137,0.436261099,-0.015354755649999996,0.40618654829999995,0.13280861215,-0.28842646850000003,-0.197487523953
04:38:27,-0.04617740000000001,0.055341999999999995,0.5973607999999999,0.2172924,-0.3107002,-0.032054,4.2933476,6.2093218,-33.2567154,-2.05601914,0.43369618,-0.013489898,0.401500916,0.13135282799999998,-0.28879832,-0.19588956856
04:38:27,-0.04400710499999999,0.05659842499999999,0.592544485,0.21516702999999998,-0.31089729,-0.0321339,4.288484645,6.206165635,-33.25990708,-2.072947143,0.431131261,-0.011625040350000004,0.39681528369999997,0.12989704385,-0.2891701715,-0.194291613167
04:38:27,-0.04183681,0.05785484999999999,0.58772817,0.21304166,-0.31109438,-0.0322138,4.28362169,6.20300947,-33.26309876,-2.0898751460000002,0.428566342,-0.009760182700000009,0.39212965139999995,0.12844125969999998,-0.289542023,-0.19269365777400002
04:38:27,-0.039666514999999986,0.059111274999999984,0.582911855,0.21091628999999998,-0.31129147,-0.0322937,4.278758735,6.1998533049999995,-33.26629044,-2.106803149,0.426001423,-0.007895325050000013,0.3874440191,0.12698547555,-0.2899138745,-0.19109570238100002
04:38:27,-0.03749622,0.06036769999999999,0.57809554,0.20879092,-0.31148856,-0.0323736,4.27389578,6.1966971399999995,-33.26948212,-2.123731152,0.423436504,-0.006030467400000017,0.38275838679999996,0.12552969139999998,-0.290285726,-0.189497746988
04:38:27,-0.03532592499999998,0.06162412499999998,0.5732792250000001,0.20666554999999998,-0.31168565,-0.032453499999999996,4.269032825,6.1935409749999994,-33.2726738,-2.140659155,0.420871585,-0.004165609749999993,0.3780727545,0.12407390724999999,-0.2906575775,-0.187899791595
04:38:27,-0.03315562999999999,0.06288054999999998,0.56846291,0.20454018,-0.31188274,-0.0325334,4.26416987,6.190384809999999,-33.27586548,-2.157587158,0.418306666,-0.0023007520999999975,0.3733871222,0.1226181231,-0.291029429,-0.186301836202
04:38:27,-0.030985335000000003,0.06413697499999998,0.563646595,0.20241481,-0.31207983,-0.0326133,4.259306915,6.187228644999999,-33.27905716,-2.174515161,0.415741747,-0.0004358944500000017,0.36870148989999996,0.12116233895,-0.2914012805,-0.18470388080900002
04:38:27,-0.028815039999999986,0.06539339999999999,0.55883028,0.20028943999999999,-0.31227692,-0.0326932,4.25444396,6.184072479999999,-33.28224884,-2.191443164,0.413176828,0.001428963199999994,0.3640158576,0.1197065548,-0.291773132,-0.18310592541600001
04:38:27,-0.026644744999999997,0.066649825,0.554013965,0.19816407,-0.31247401,-0.0327731,4.249581005,6.180916314999999,-33.28544052,-2.208371167,0.410611909,0.00329382084999999,0.3593302253,0.11825077065,-0.2921449835,-0.181507970023
04:38:27,-0.02447444999999998,0.06790624999999997,0.54919765,0.19603869999999998,-0.3126711,-0.032853,4.2447180499999995,6.177760149999999,-33.2886322,-2.22529917,0.40804699,0.005158678499999986,0.35464459299999995,0.1167949865,-0.29251683500000003,-0.17991001463
04:38:27,-0.022304154999999992,0.06916267499999998,0.544381335,0.19391333,-0.31286819,-0.0329329,4.239855095,6.174603985,-33.29182388,-2.242227173,0.405482071,0.007023536150000009,0.3499589607,0.11533920235,-0.2928886865,-0.178312059237
04:38:27,-0.020133860000000003,0.07041909999999998,0.53956502,0.19178795999999998,-0.31306528,-0.0330128,4.23499214,6.17144782,-33.29501556,-2.259155176,0.402917152,0.008888393800000005,0.34527332839999997,0.1138834182,-0.293260538,-0.17671410384400002
04:38:27,-0.017963564999999987,0.07167552499999999,0.5347487049999999,0.18966259,-0.31326237,-0.0330927,4.230129185,6.168291655,-33.298207239999996,-2.276083179,0.400352233,0.010753251450000001,0.34058769609999995,0.11242763405,-0.29363238950000004,-0.17511614845100001
04:38:27,-0.015793269999999998,0.07293195,0.5299323899999999,0.18753721999999998,-0.31345946,-0.0331726,4.22526623,6.16513549,-33.30139892,-2.293011182,0.397787314,0.012618109099999997,0.3359020638,0.1109718499,-0.294004241,-0.173518193058
04:38:27,-0.013622974999999982,0.07418837499999997,0.5251160749999999,0.18541185,-0.31365655000000003,-0.0332525,4.220403275,6.161979325,-33.3045906,-2.309939185,0.395222395,0.014482966749999993,0.33121643149999996,0.10951606575,-0.2943760925,-0.171920237665
04:38:27,-0.011452679999999993,0.07544479999999998,0.52029976,0.18328647999999997,-0.31385364,-0.0333324,4.21554032,6.15882316,-33.30778228,-2.326867188,0.392657476,0.01634782439999999,0.32653079919999994,0.1080602816,-0.294747944,-0.17032228227200003
04:38:27,-0.009282385000000004,0.07670122499999998,0.515483445,0.18116111,-0.31405073,-0.0334123,4.210677365,6.155666995,-33.31097396,-2.343795191,0.390092557,0.018212682049999984,0.3218451669,0.10660449745,-0.2951197955,-0.16872432687900002
04:38:27,-0.007112089999999988,0.07795764999999999,0.51066713,0.17903574,-0.31424782,-0.0334922,4.20581441,6.15251083,-33.31416564,-2.360723194,0.387527638,0.020077539700000008,0.31715953459999996,0.1051487133,-0.295491647,-0.167126371486
04:38:27,-0.004941794999999999,0.079214075,0.505850815,0.17691036999999998,-0.31444491,-0.0335721,4.200951455,6.149354665,-33.31735732,-2.377651197,0.384962719,0.021942397350000004,0.3124739023,0.10369292915,-0.2958634985,-0.165528416093
04:38:27,-0.0027714999999999823,0.0804705,0.5010345,0.174785,-0.314642,-0.033652,4.1960885,6.1461985,-33.320549,-2.3945792,0.3823978,0.023807255,0.30778827,0.102237145,-0.29623535,-0.1639304607
04:38:27,-0.0006012049999999936,0.08172692499999998,0.496218185,0.17265962999999998,-0.31483909,-0.0337319,4.191225545,6.143042335,-33.32374068,-2.411507203,0.379832881,0.025672112649999995,0.30310263769999995,0.10078136085,-0.29660720150000003,-0.16233250530700002
04:38:27,0.0015690899999999952,0.08298334999999998,0.49140186999999996,0.17053426,-0.31503618,-0.0338118,4.18636259,6.13988617,-33.32693236,-2.428435206,0.377267962,0.02753697029999999,0.2984170054,0.0993255767,-0.296979053,-0.16073454991400002
04:38:27,0.0037393850000000117,0.08423977499999999,0.48658555499999995,0.16840888999999998,-0.31523327,-0.0338917,4.181499635,6.1367300049999995,-33.33012404,-2.445363209,0.374703043,0.029401827949999987,0.29373137309999997,0.09786979255,-0.2973509045,-0.159136594521
04:38:27,0.0059096800000000005,0.0854962,0.48176924,0.16628352,-0.31543036,-0.0339716,4.17663668,6.1335738399999995,-33.33331572,-2.4622912120000002,0.372138124,0.03126668559999998,0.28904574079999995,0.0964140084,-0.297722756,-0.157538639128
04:38:27,0.008079975000000017,0.086752625,0.47695292499999997,0.16415814999999997,-0.31562745000000003,-0.0340515,4.1717737249999995,6.1304176749999995,-33.3365074,-2.479219215,0.369573205,0.033131543250000006,0.2843601085,0.09495822425,-0.2980946075,-0.155940683735
04:38:27,0.010250270000000006,0.08800904999999998,0.47213660999999996,0.16203278,-0.31582454,-0.0341314,4.166910769999999,6.127261509999999,-33.33969908,-2.496147218,0.367008286,0.0349964009,0.27967447619999997,0.0935024401,-0.298466459,-0.15434272834200002
04:38:27,0.012420564999999995,0.08926547499999998,0.46732029499999994,0.15990741,-0.31602163,-0.0342113,4.162047815,6.124105344999999,-33.34289076,-2.5130752210000002,0.36444336699999996,0.03686125855,0.2749888439,0.09204665595,-0.2988383105,-0.15274477294900002
04:38:27,0.014590860000000011,0.09052189999999999,0.4625039799999999,0.15778203999999998,-0.31621872,-0.0342912,4.15718486,6.120949179999999,-33.346082439999996,-2.530003224,0.36187844799999996,0.038726116199999994,0.2703032115999999,0.0905908718,-0.299210162,-0.151146817556
04:38:27,0.016761155,0.091778325,0.4576876649999999,0.15565667,-0.31641581,-0.0343711,4.152321905,6.117793014999999,-33.34927412,-2.546931227,0.35931352899999996,0.04059097384999999,0.26561757929999996,0.08913508765,-0.2995820135,-0.149548862163
04:38:27,0.018931450000000016,0.09303475,0.45287135,0.15353129999999998,-0.31661290000000003,-0.034450999999999996,4.14745895,6.11463685,-33.3524658,-2.56385923,0.35674860999999997,0.042455831499999985,0.260931947,0.0876793035,-0.299953865,-0.14795090677
04:38:27,0.021101745000000005,0.09429117499999998,0.448055035,0.15140593,-0.31680999,-0.0345309,4.142595995,6.111480685,-33.35565748,-2.580787233,0.35418369099999997,0.04432068914999998,0.2562463146999999,0.08622351935,-0.3003257165,-0.14635295137700002
04:38:27,0.02327204000000002,0.09554759999999998,0.44323872,0.14928055999999998,-0.31700708,-0.0346108,4.13773304,6.10832452,-33.35884916,-2.597715236,0.35161877199999997,0.046185546800000005,0.25156068239999996,0.0847677352,-0.300697568,-0.14475499598400002
04:38:27,0.02544233500000001,0.09680402499999999,0.43842240499999996,0.14715519,-0.31720417,-0.0346907,4.132870085,6.105168355,-33.36204084,-2.614643239,0.34905385299999997,0.04805040445,0.2468750501,0.08331195105,-0.3010694195,-0.143157040591
04:38:27,0.02761263,0.09806045,0.43360608999999994,0.14502981999999998,-0.31740126,-0.0347706,4.12800713,6.10201219,-33.36523252,-2.631571242,0.34648893399999997,0.049915262099999996,0.24218941779999992,0.0818561669,-0.301441271,-0.141559085198
04:38:27,0.029782925000000016,0.099316875,0.42878977499999993,0.14290445,-0.31759835000000003,-0.0348505,4.123144175,6.098856025,-33.3684242,-2.648499245,0.34392401499999997,0.05178011974999999,0.23750378549999995,0.08040038275,-0.30181312250000003,-0.139961129805
04:38:27,0.03195322000000003,0.10057329999999998,0.4239734599999999,0.14077907999999997,-0.31779544,-0.0349304,4.11828122,6.09569986,-33.37161588,-2.665427248,0.341359096,0.05364497739999999,0.2328181532,0.0789445986,-0.302184974,-0.13836317441200002
04:38:27,0.03412351500000002,0.10182972499999998,0.419157145,0.13865370999999999,-0.31799253,-0.0350103,4.113418265,6.092543695,-33.37480756,-2.682355251,0.338794177,0.055509835049999984,0.22813252090000002,0.07748881445,-0.3025568255,-0.13676521901900002
04:38:27,0.03629381000000001,0.10308614999999999,0.41434083,0.13652833999999997,-0.31818962,-0.0350902,4.10855531,6.08938753,-33.37799924,-2.699283254,0.336229258,0.05737469270000001,0.22344688859999995,0.0760330303,-0.30292867700000004,-0.135167263626
04:38:27,0.038464105,0.10434257499999999,0.409524515,0.13440297,-0.31838671,-0.035170099999999996,4.103692355,6.086231365,-33.38119092,-2.716211257,0.333664339,0.05923955035,0.21876125629999998,0.07457724615,-0.3033005285,-0.133569308233
04:38:27,0.04063439999999999,0.105599,0.40470819999999996,0.1322776,-0.31858380000000003,-0.035250000000000004,4.0988294,6.0830752,-33.3843826,-2.7331392599999997,0.33109942,0.061104408,0.21407562400000002,0.073121462,-0.30367238,-0.13197135284
04:38:27,0.04280469500000003,0.10685542499999998,0.39989188499999995,0.13015222999999998,-0.31878089,-0.0353299,4.0939664449999995,6.079919035,-33.38757428,-2.750067263,0.328534501,0.06296926565,0.20938999169999994,0.07166567785,-0.3040442315,-0.13037339744700002
04:38:27,0.04497499000000002,0.10811184999999998,0.39507556999999993,0.12802685999999996,-0.31897798,-0.0354098,4.08910349,6.07676287,-33.390765959999996,-2.766995266,0.325969582,0.06483412329999999,0.20470435939999998,0.0702098937,-0.304416083,-0.12877544205400002
04:38:27,0.04714528500000001,0.10936827499999999,0.3902592549999999,0.12590149,-0.31917507,-0.0354897,4.084240535,6.0736067049999996,-33.393957639999996,-2.7839232689999998,0.323404663,0.06669898094999999,0.20001872710000002,0.06875410955,-0.3047879345,-0.127177486661
04:38:27,0.04931558,0.11062469999999999,0.3854429399999999,0.12377611999999999,-0.31937216,-0.0355696,4.07937758,6.0704505399999995,-33.39714932,-2.800851272,0.320839744,0.06856383859999998,0.19533309479999994,0.0672983254,-0.305159786,-0.125579531268
04:38:27,0.051485874999999987,0.111881125,0.380626625,0.12165074999999997,-0.31956925,-0.0356495,4.074514625,6.0672943749999995,-33.400341,-2.817779275,0.318274825,0.07042869625,0.19064746249999998,0.06584254125,-0.3055316375,-0.123981575875
04:38:27,0.05365617000000003,0.11313754999999998,0.37581031,0.11952537999999996,-0.31976634,-0.0357294,4.06965167,6.064138209999999,-33.40353268,-2.8347072779999998,0.315709906,0.0722935539,0.1859618302,0.0643867571,-0.30590348900000003,-0.12238362048200002
04:38:27,0.05582646500000002,0.11439397499999998,0.37099399499999997,0.11740001,-0.31996343,-0.0358093,4.064788715,6.060982044999999,-33.40672436,-2.851635281,0.313144987,0.07415841155,0.18127619789999994,0.06293097295,-0.3062753405,-0.12078566508900002
04:38:27,0.05799676000000001,0.11565039999999999,0.36617767999999995,0.11527463999999998,-0.32016052,-0.035889199999999996,4.05992576,6.057825879999999,-33.40991604,-2.868563284,0.310580068,0.0760232692,0.17659056559999997,0.0614751888,-0.306647192,-0.11918770969600001
04:38:27,0.060167055,0.11690682499999999,0.36136136499999993,0.11314926999999997,-0.32035761,-0.035969100000000004,4.055062805,6.054669714999999,-33.41310772,-2.885491287,0.308015149,0.07788812684999999,0.1719049333,0.06001940465,-0.3070190435,-0.117589754303
04:38:27,0.062337349999999986,0.11816325,0.3565450499999999,0.11102390000000001,-0.3205547,-0.036049,4.05019985,6.051513549999999,-33.4162994,-2.90241929,0.30545023,0.07975298449999998,0.16721930099999993,0.058563620499999997,-0.307390895,-0.11599179891
04:38:27,0.06450764500000003,0.11941967499999998,0.3517287349999999,0.10889853,-0.32075179,-0.0361289,4.045336895,6.048357384999999,-33.41949108,-2.919347293,0.302885311,0.08161784214999998,0.16253366869999997,0.057107836349999996,-0.3077627465,-0.11439384351700002
04:38:27,0.06667794000000002,0.12067609999999998,0.34691242,0.10677315999999998,-0.32094888,-0.0362088,4.04047394,6.04520122,-33.42268276,-2.936275296,0.300320392,0.0834826998,0.1578480364,0.055652052199999996,-0.308134598,-0.11279588812400002
04:38:27,0.06884823500000001,0.12193252499999999,0.342096105,0.10464778999999996,-0.32114597,-0.0362887,4.035610985,6.042045055,-33.42587444,-2.953203299,0.297755473,0.08534755745,0.15316240409999993,0.054196268049999996,-0.3085064495,-0.11119793273100001
04:38:27,0.07101853,0.12318894999999999,0.33727978999999997,0.10252242,-0.32134306,-0.0363686,4.03074803,6.03888889,-33.42906612,-2.970131302,0.295190554,0.0872124151,0.14847677179999996,0.052740483899999996,-0.308878301,-0.109599977338
04:38:27,0.07318882499999999,0.124445375,0.33246347499999995,0.10039704999999999,-0.32154015,-0.0364485,4.025885075,6.035732725,-33.4322578,-2.987059305,0.292625635,0.08907727274999999,0.1437911395,0.051284699749999996,-0.3092501525,-0.108002021945
04:38:27,0.07535912000000003,0.12570179999999997,0.32764715999999994,0.09827167999999997,-0.32173724000000004,-0.0365284,4.02102212,6.03257656,-33.435449479999996,-3.003987308,0.290060716,0.09094213039999999,0.13910550719999992,0.049828915599999996,-0.309622004,-0.10640406655200002
04:38:27,0.07752941500000002,0.12695822499999998,0.3228308449999999,0.09614630999999996,-0.32193433,-0.036608299999999996,4.0161591649999995,6.029420395,-33.438641159999996,-3.020915311,0.287495797,0.09280698804999998,0.13441987489999996,0.048373131449999995,-0.3099938555,-0.10480611115900001
04:38:27,0.07969971,0.12821464999999999,0.3180145299999999,0.09402094,-0.32213142,-0.0366882,4.01129621,6.02626423,-33.44183284,-3.037843314,0.284930878,0.09467184569999998,0.1297342426,0.046917347299999995,-0.310365707,-0.10320815576600001
04:38:27,0.081870005,0.129471075,0.3131982149999999,0.09189556999999998,-0.32232851,-0.0367681,4.006433255,6.023108065,-33.44502452,-3.054771317,0.282365959,0.09653670334999997,0.12504861029999992,0.045461563149999995,-0.3107375585,-0.101610200373
04:38:27,0.08404029999999998,0.1307275,0.3083819,0.08977019999999997,-0.3225256,-0.036848,4.0015703,6.0199519,-33.4482162,-3.07169932,0.27980104,0.09840156099999997,0.12036297799999995,0.044005778999999995,-0.31110941000000003,-0.10001224498
04:38:27,0.08621059500000003,0.13198392499999997,0.30356558499999997,0.08764483,-0.32272269,-0.0369279,3.996707345,6.016795735,-33.45140788,-3.088627323,0.277236121,0.10026641864999997,0.11567734569999999,0.042549994849999995,-0.3114812615,-0.09841428958700002
04:38:27,0.08838089000000002,0.13324034999999998,0.29874926999999996,0.08551945999999999,-0.32291978,-0.0370078,3.99184439,6.01363957,-33.45459956,-3.1055553259999997,0.274671202,0.10213127630000002,0.11099171340000002,0.041094210699999995,-0.311853113,-0.09681633419400001
04:38:27,0.090551185,0.13449677499999999,0.29393295499999994,0.08339408999999998,-0.32311687,-0.0370877,3.9869814349999997,6.010483405,-33.45779124,-3.122483329,0.272106283,0.10399613395000001,0.10630608109999995,0.039638426549999994,-0.31222496450000004,-0.09521837880100001
04:38:27,0.09272148,0.1357532,0.2891166399999999,0.08126871999999996,-0.32331396,-0.037167599999999995,3.98211848,6.0073272399999995,-33.46098292,-3.139411332,0.269541364,0.10586099160000001,0.10162044879999999,0.038182642399999994,-0.312596816,-0.093620423408
04:38:27,0.09489177499999998,0.137009625,0.2843003249999999,0.07914335,-0.32351105,-0.0372475,3.977255525,6.0041710749999995,-33.4641746,-3.1563393349999997,0.266976445,0.10772584925,0.09693481650000002,0.036726858249999994,-0.3129686675,-0.092022468015
04:38:27,0.09706207000000003,0.13826604999999997,0.2794840099999999,0.07701797999999999,-0.32370814000000003,-0.0373274,3.97239257,6.001014909999999,-33.46736628,-3.173267338,0.264411526,0.1095907069,0.09224918419999995,0.035271074099999994,-0.313340519,-0.09042451262200002
04:38:27,0.09923236500000002,0.13952247499999998,0.274667695,0.07489260999999997,-0.32390523,-0.0374073,3.967529615,5.997858744999999,-33.47055796,-3.190195341,0.261846607,0.11145556455,0.08756355189999998,0.033815289949999994,-0.3137123705,-0.08882655722900001
04:38:27,0.10140266,0.14077889999999998,0.26985138,0.07276723999999996,-0.32410232,-0.0374872,3.96266666,5.994702579999999,-33.47374964,-3.2071233439999998,0.259281688,0.11332042219999999,0.08287791960000002,0.032359505799999994,-0.314084222,-0.08722860183600001
04:38:27,0.103572955,0.142035325,0.26503506499999996,0.07064187,-0.32429941,-0.0375671,3.957803705,5.991546414999999,-33.47694132,-3.224051347,0.256716769,0.11518527984999999,0.07819228729999994,0.030903721649999993,-0.3144560735,-0.085630646443
04:38:27,0.10574324999999998,0.14329175,0.26021874999999994,0.06851649999999998,-0.3244965,-0.037647,3.95294075,5.98839025,-33.480132999999995,-3.24097935,0.25415184999999996,0.11705013749999998,0.07350665499999998,0.029447937499999993,-0.314827925,-0.08403269105
04:38:27,0.10791354500000003,0.14454817499999997,0.2554024349999999,0.06639112999999996,-0.32469359000000003,-0.0377269,3.948077795,5.985234085,-33.483324679999996,-3.257907353,0.25158693099999996,0.11891499514999998,0.06882102270000001,0.027992153349999993,-0.31519977650000003,-0.08243473565700002
04:38:27,0.11008384000000002,0.14580459999999998,0.2505861199999999,0.06426576,-0.32489068,-0.0378068,3.94321484,5.98207792,-33.486516359999996,-3.274835356,0.24902201199999996,0.12077985279999998,0.06413539039999994,0.026536369199999993,-0.315571628,-0.08083678026400001
04:38:27,0.112254135,0.14706102499999998,0.2457698049999999,0.06214038999999999,-0.32508777,-0.037886699999999995,3.938351885,5.978921755,-33.48970804,-3.291763359,0.24645709299999996,0.12264471044999997,0.05944975809999997,0.025080585049999993,-0.3159434795,-0.07923882487100001
04:38:27,0.11442443,0.14831745,0.24095348999999988,0.060015019999999974,-0.32528486,-0.0379666,3.93348893,5.97576559,-33.49289972,-3.308691362,0.24389217399999996,0.12450956809999997,0.05476412580000001,0.023624800899999993,-0.316315331,-0.077640869478
04:38:27,0.11659472499999998,0.149573875,0.23613717499999998,0.05788964999999996,-0.32548195,-0.0380465,3.928625975,5.972609425,-33.4960914,-3.325619365,0.24132725499999996,0.12637442575000002,0.05007849349999993,0.022169016749999992,-0.3166871825,-0.076042914085
04:38:27,0.11876502000000003,0.15083029999999997,0.23132085999999996,0.05576428,-0.32567904000000003,-0.0381264,3.92376302,5.96945326,-33.49928308,-3.342547368,0.23876233599999996,0.12823928340000001,0.04539286119999997,0.020713232599999992,-0.317059034,-0.07444495869200002
04:38:27,0.12093531500000002,0.15208672499999998,0.22650454499999995,0.053638909999999984,-0.32587613,-0.0382063,3.918900065,5.966297095,-33.50247476,-3.359475371,0.23619741699999997,0.13010414105,0.0407072289,0.019257448449999992,-0.3174308855,-0.07284700329900001
04:38:27,0.12310561,0.15334314999999998,0.22168822999999993,0.05151353999999997,-0.32607322,-0.0382862,3.9140371099999998,5.96314093,-33.50566644,-3.376403374,0.23363249799999997,0.1319689987,0.03602159659999993,0.017801664299999992,-0.317802737,-0.07124904790600001
04:38:27,0.125275905,0.154599575,0.21687191499999992,0.049388169999999953,-0.32627031,-0.0383661,3.909174155,5.959984765,-33.50885812,-3.393331377,0.23106757899999997,0.13383385635,0.03133596429999996,0.01634588014999999,-0.3181745885,-0.069651092513
04:38:27,0.12744619999999998,0.155856,0.2120555999999999,0.047262799999999994,-0.3264674,-0.038446,3.9043112,5.9568286,-33.5120498,-3.41025938,0.22850265999999997,0.135698714,0.026650332,0.014890095999999992,-0.31854644,-0.06805313712
04:38:27,0.12961649500000003,0.15711242499999997,0.20723928499999988,0.04513742999999998,-0.32666449000000003,-0.0385259,3.899448245,5.953672435,-33.51524148,-3.427187383,0.22593774099999997,0.13756357165,0.021964699699999923,0.013434311849999991,-0.3189182915,-0.06645518172699999
04:38:27,0.13178679000000001,0.15836884999999998,0.20242296999999998,0.04301205999999996,-0.32686158,-0.038605799999999996,3.89458529,5.95051627,-33.51843316,-3.444115386,0.22337282199999997,0.1394284293,0.01727906739999996,0.011978527699999991,-0.319290143,-0.06485722633399998
04:38:27,0.133957085,0.15962527499999998,0.19760665499999996,0.04088669,-0.32705867,-0.0386857,3.889722335,5.947360105,-33.52162484,-3.461043389,0.22080790299999997,0.14129328694999999,0.012593435099999994,0.010522743549999991,-0.3196619945,-0.06325927094100003
04:38:27,0.13612738,0.1608817,0.19279033999999995,0.03876131999999999,-0.32725576,-0.0387656,3.88485938,5.9442039399999995,-33.52481652,-3.477971392,0.21824298399999997,0.14315814459999998,0.007907802799999919,0.009066959399999991,-0.320033846,-0.06166131554800003
04:38:27,0.13829767500000004,0.16213812499999997,0.18797402499999993,0.03663594999999997,-0.32745285,-0.0388455,3.879996425,5.9410477749999995,-33.528008199999995,-3.494899395,0.21567806499999997,0.14502300224999998,0.0032221704999999545,0.007611175249999991,-0.32040569750000003,-0.06006336015500002
04:38:27,0.14046797000000003,0.16339454999999997,0.18315770999999992,0.03451057999999996,-0.32764994000000003,-0.0389254,3.8751334699999997,5.937891609999999,-33.531199879999996,-3.511827398,0.21311314599999998,0.14688785989999997,-0.00146346180000001,0.006155391099999991,-0.320777549,-0.05846540476200002
04:38:27,0.14263826500000001,0.16465097499999998,0.1783413949999999,0.03238521,-0.32784703000000004,-0.0390053,3.870270515,5.934735444999999,-33.534391559999996,-3.5287554009999997,0.21054822699999998,0.14875271754999997,-0.006149094099999974,0.00469960694999999,-0.3211494005,-0.05686744936900001
04:38:27,0.14480856,0.16590739999999998,0.1735250799999999,0.030259839999999982,-0.32804412,-0.0390852,3.86540756,5.931579279999999,-33.53758324,-3.545683404,0.20798330799999998,0.15061757519999996,-0.01083472640000005,0.0032438227999999902,-0.32152125200000004,-0.055269493976000006
04:38:27,0.146978855,0.167163825,0.16870876499999987,0.028134469999999967,-0.32824121,-0.0391651,3.860544605,5.928423114999999,-33.54077492,-3.562611407,0.20541838899999998,0.15248243285000002,-0.015520358700000014,0.00178803864999999,-0.3218931035,-0.053671538583
04:38:27,0.14914915000000004,0.16842024999999997,0.16389244999999997,0.02600909999999995,-0.3284383,-0.039245,3.85568165,5.925266949999999,-33.5439666,-3.5795394099999998,0.20285346999999998,0.1543472905,-0.02020599099999998,0.0003322544999999899,-0.322264955,-0.052073583189999995
04:38:27,0.15131944500000002,0.16967667499999997,0.15907613499999995,0.023883729999999992,-0.32863539,-0.039324899999999996,3.850818695,5.922110784999999,-33.54715828,-3.596467413,0.20028855099999998,0.15621214815,-0.024891623300000054,-0.0011235296500000103,-0.32263680650000004,-0.05047562779699999
04:38:27,0.15348974,0.17093309999999998,0.15425981999999994,0.021758359999999977,-0.32883248,-0.0394048,3.84595574,5.91895462,-33.55034996,-3.613395416,0.19772363199999998,0.1580770058,-0.02957725560000002,-0.0025793137999999827,-0.323008658,-0.04887767240399998
04:38:27,0.155660035,0.17218952499999998,0.14944350499999992,0.01963298999999996,-0.32902957,-0.0394847,3.841092785,5.915798455,-33.55354164,-3.6303234189999998,0.19515871299999998,0.15994186345,-0.03426288789999998,-0.004035097950000011,-0.3233805095,-0.04727971701100003
04:38:27,0.15783033,0.17344595,0.1446271899999999,0.01750762,-0.32922666,-0.0395646,3.8362298299999997,5.91264229,-33.55673332,-3.647251422,0.19259379399999998,0.1618067211,-0.03894852020000006,-0.005490882099999983,-0.323752361,-0.04568176161800003
04:38:27,0.16000062500000004,0.17470237499999997,0.1398108749999999,0.015382249999999986,-0.32942375,-0.0396445,3.831366875,5.909486125,-33.559925,-3.664179425,0.19002887499999999,0.16367157875,-0.04363415250000002,-0.006946666250000011,-0.3241242125,-0.04408380622500002
04:38:27,0.16217092000000002,0.17595879999999997,0.13499455999999987,0.013256879999999971,-0.32962084,-0.0397244,3.82650392,5.90632996,-33.56311668,-3.681107428,0.187463956,0.1655364364,-0.04831978479999999,-0.008402450399999983,-0.324496064,-0.042485850832000016
04:38:27,0.164341215,0.17721522499999998,0.13017824499999997,0.011131509999999956,-0.32981793000000004,-0.0398043,3.821640965,5.903173795,-33.56630836,-3.698035431,0.184899037,0.16740129404999998,-0.05300541710000006,-0.009858234550000011,-0.3248679155,-0.04088789543900001
04:38:27,0.16651151,0.17847164999999998,0.12536192999999995,0.009006139999999996,-0.33001502,-0.0398842,3.81677801,5.90001763,-33.56950004,-3.714963434,0.182334118,0.16926615169999998,-0.05769104940000003,-0.011314018699999984,-0.325239767,-0.039289940046000005
04:38:27,0.168681805,0.179728075,0.12054561499999994,0.0068807699999999805,-0.33021211,-0.0399641,3.811915055,5.896861465,-33.572691719999995,-3.731891437,0.179769199,0.17113100934999997,-0.06237668169999999,-0.012769802850000012,-0.3256116185,-0.037691984653
04:38:27,0.17085210000000003,0.18098449999999996,0.11572929999999992,0.004755399999999965,-0.3304092,-0.040043999999999996,3.8070521,5.8937053,-33.575883399999995,-3.74881944,0.17720428,0.17299586699999997,-0.06706231400000007,-0.014225586999999984,-0.32598347,-0.03609402925999999
04:38:27,0.17302239500000002,0.18224092499999997,0.11091298499999991,0.00263002999999995,-0.33060629,-0.0401239,3.802189145,5.890549135,-33.579075079999996,-3.765747443,0.174639361,0.17486072464999997,-0.07174794630000003,-0.015681371150000012,-0.3263553215,-0.03449607386699999
04:38:27,0.17519269,0.18349734999999998,0.10609666999999989,0.0005046599999999901,-0.33080338,-0.0402038,3.7973261899999997,5.88739297,-33.582266759999996,-3.782675446,0.172074442,0.17672558230000002,-0.0764335786,-0.017137155299999984,-0.326727173,-0.03289811847399998
04:38:27,0.177362985,0.18475377499999998,0.10128035499999988,-0.0016207100000000252,-0.33100047,-0.0402837,3.792463235,5.884236805,-33.58545844,-3.799603449,0.169509523,0.17859043995,-0.08111921090000007,-0.018592939450000012,-0.3270990245,-0.03130016308100003
04:38:27,0.17953328,0.1860102,0.09646403999999986,-0.0037460800000000405,-0.33119756,-0.0403636,3.78760028,5.8810806399999995,-33.58865012,-3.816531452,0.166944604,0.1804552976,-0.08580484320000004,-0.020048723599999985,-0.327470876,-0.029702207688000026
04:38:27,0.18170357500000003,0.18726662499999996,0.09164772499999996,-0.00587145,-0.33139465,-0.0404435,3.782737325,5.8779244749999995,-33.5918418,-3.833459455,0.164379685,0.18232015525,-0.0904904755,-0.021504507750000013,-0.3278427275,-0.02810425229500002
04:38:27,0.18387387000000002,0.18852304999999997,0.08683140999999994,-0.007996820000000016,-0.33159174,-0.0405234,3.77787437,5.874768309999999,-33.59503348,-3.850387458,0.161814766,0.1841850129,-0.09517610780000008,-0.022960291899999985,-0.328214579,-0.026506296902000015
04:38:27,0.186044165,0.18977947499999998,0.08201509499999993,-0.010122190000000031,-0.33178883000000003,-0.040603299999999995,3.773011415,5.871612144999999,-33.59822516,-3.867315461,0.159249847,0.18604987055,-0.09986174010000004,-0.024416076050000013,-0.3285864305,-0.02490834150900001
04:38:27,0.18821446,0.19103589999999998,0.07719877999999991,-0.012247560000000046,-0.33198592,-0.0406832,3.76814846,5.868455979999999,-33.60141684,-3.884243464,0.156684928,0.1879147282,-0.1045473724,-0.025871860199999985,-0.328958282,-0.023310386116000004
04:38:27,0.190384755,0.192292325,0.0723824649999999,-0.014372930000000006,-0.33218301,-0.0407631,3.763285505,5.865299814999999,-33.60460852,-3.901171467,0.154120009,0.18977958585,-0.10923300470000008,-0.027327644350000013,-0.3293301335,-0.021712430722999998
04:38:27,0.19255505000000003,0.19354874999999996,0.06756614999999988,-0.01649830000000002,-0.3323801,-0.040843,3.7584225499999997,5.86214365,-33.6078002,-3.91809947,0.15155509,0.19164444349999998,-0.11391863700000004,-0.028783428499999986,-0.32970198500000003,-0.020114475329999992
04:38:27,0.19472534500000002,0.19480517499999997,0.06274983499999987,-0.018623670000000037,-0.33257719,-0.0409229,3.753559595,5.858987485,-33.61099188,-3.935027473,0.148990171,0.19350930114999998,-0.11860426930000001,-0.030239212650000014,-0.3300738365,-0.018516519936999987
04:38:27,0.19689564,0.19606159999999997,0.05793351999999996,-0.020749040000000052,-0.33277428000000003,-0.0410028,3.74869664,5.85583132,-33.61418356,-3.951955476,0.146425252,0.19537415879999998,-0.12328990160000008,-0.031694996799999986,-0.330445688,-0.016918564544000037
04:38:27,0.199065935,0.19731802499999998,0.053117204999999945,-0.02287441000000001,-0.33297137,-0.0410827,3.7438336850000002,5.852675155,-33.617375239999994,-3.968883479,0.14386033299999995,0.19723901644999997,-0.12797553390000005,-0.033150780950000014,-0.33081753950000004,-0.01532060915100003
04:38:27,0.20123623,0.19857444999999999,0.04830088999999993,-0.024999780000000027,-0.33316846,-0.0411626,3.73897073,5.84951899,-33.620566919999995,-3.985811482,0.14129541399999995,0.19910387409999997,-0.1326611662,-0.034606565099999986,-0.331189391,-0.013722653758000025
04:38:27,0.20340652500000003,0.19983087499999996,0.043484574999999914,-0.027125150000000042,-0.33336555,-0.0412425,3.734107775,5.846362825,-33.623758599999995,-4.002739485,0.138730495,0.20096873174999996,-0.13734679849999998,-0.036062349250000014,-0.3315612425,-0.01212469836500002
04:38:27,0.20557682000000002,0.20108729999999997,0.0386682599999999,-0.029250520000000002,-0.33356264,-0.041322399999999995,3.72924482,5.84320666,-33.626950279999996,-4.0196674880000005,0.136165576,0.20283358940000001,-0.14203243080000005,-0.03751813339999999,-0.331933094,-0.010526742972000014
04:38:27,0.207747115,0.20234372499999997,0.03385194499999988,-0.03137589000000002,-0.33375973000000003,-0.0414023,3.724381865,5.840050495,-33.630141959999996,-4.036595491,0.133600657,0.20469844705,-0.14671806310000002,-0.038973917550000015,-0.3323049455,-0.008928787579000008
04:38:27,0.20991741,0.20360014999999998,0.029035629999999868,-0.03350126000000003,-0.33395682,-0.0414822,3.71951891,5.83689433,-33.63333364,-4.053523494,0.131035738,0.2065633047,-0.15140369539999998,-0.04042970169999999,-0.332676797,-0.0073308321860000025
04:38:27,0.212087705,0.20485657499999999,0.024219314999999852,-0.03562663000000005,-0.33415391,-0.0415621,3.714655955,5.833738165,-33.63652532,-4.0704514970000005,0.128470819,0.20842816235,-0.15608932770000006,-0.041885485850000015,-0.3330486485,-0.005732876792999997
04:38:28,0.214258,0.206113,0.019403,-0.037752,-0.334351,-0.041642,3.709793,5.830582,-33.639717,-4.0873795,0.1259059,0.21029302,-0.16077496,-0.04334127,-0.3334205,-0.0041349214
04:38:28,0.20782393,0.205187695,0.011235625,-0.035093955,-0.335229915,-0.041663305,3.691800525,5.8206876649999995,-33.635230995,-4.0022316575,0.11598087249999998,0.21058652475,-0.1578166047,-0.0419136032,-0.3339947457,-0.006291702243
04:38:28,0.20138986,0.20426239,0.0030682500000000015,-0.03243591,-0.33610883,-0.04168461,3.67380805,5.81079333,-33.63074499,-3.917083815,0.10605584499999998,0.2108800295,-0.15485824939999998,-0.0404859364,-0.3345689914,-0.008448483086
04:38:28,0.19495579,0.203337085,-0.0050991249999999995,-0.029777865,-0.336987745,-0.041705914999999996,3.655815575,5.800898995,-33.626258985,-3.8319359725,0.0961308175,0.21117353425,-0.1518998941,-0.0390582696,-0.3351432371,-0.010605263929
04:38:28,0.18852172,0.20241177999999999,-0.013266499999999997,-0.027119820000000003,-0.33786666,-0.041727219999999995,3.6378231,5.79100466,-33.621772979999996,-3.74678813,0.08620578999999999,0.211467039,-0.1489415388,-0.0376306028,-0.3357174828,-0.012762044772
04:38:28,0.18208765,0.201486475,-0.021433874999999995,-0.024461775,-0.338745575,-0.041748525,3.619830625,5.781110324999999,-33.617286975,-3.6616402875,0.07628076249999999,0.21176054375,-0.1459831835,-0.036202936000000005,-0.3362917285,-0.014918825615
04:38:28,0.17565358,0.20056116999999998,-0.02960125,-0.02180373,-0.33962449,-0.04176983,3.60183815,5.77121599,-33.612800969999995,-3.576492445,0.066355735,0.2120540485,-0.14302482819999998,-0.0347752692,-0.33686597420000003,-0.017075606458
04:38:28,0.16921951,0.199635865,-0.037768625,-0.019145685000000003,-0.340503405,-0.041791135,3.583845675,5.761321655,-33.608314965,-3.4913446025,0.056430707499999996,0.21234755325,-0.1400664729,-0.0333476024,-0.3374402199,-0.019232387301
04:38:28,0.16278544,0.19871055999999998,-0.04593599999999999,-0.01648764,-0.34138232,-0.04181244,3.5658532,5.7514273199999995,-33.603828959999994,-3.40619676,0.046505679999999994,0.212641058,-0.1371081176,-0.031919935600000005,-0.33801446560000004,-0.021389168144
04:38:28,0.15635137,0.197785255,-0.054103374999999995,-0.013829595,-0.342261235,-0.041833745,3.547860725,5.741532985,-33.599342955,-3.3210489174999998,0.03658065249999999,0.21293456275,-0.1341497623,-0.0304922688,-0.3385887113,-0.023545948987
04:38:28,0.14991729999999998,0.19685995,-0.062270749999999986,-0.011171550000000002,-0.34314015000000003,-0.04185505,3.52986825,5.73163865,-33.59485695,-3.235901075,0.02665562499999999,0.2132280675,-0.13119140699999998,-0.029064602000000002,-0.339162957,-0.02570272983
04:38:28,0.14348323,0.195934645,-0.07043812499999999,-0.008513505000000001,-0.344019065,-0.041876355,3.511875775,5.721744315,-33.590370945,-3.1507532325,0.0167305975,0.21352157224999999,-0.1282330517,-0.0276369352,-0.3397372027,-0.027859510673
04:38:28,0.13704916,0.19500934,-0.0786055,-0.00585546,-0.34489798,-0.041897659999999996,3.4938833,5.711849979999999,-33.58588494,-3.06560539,0.006805569999999997,0.213815077,-0.1252746964,-0.0262092684,-0.3403114484,-0.030016291516
04:38:28,0.13061509,0.194084035,-0.08677287499999999,-0.003197415000000002,-0.34577689500000003,-0.041918964999999996,3.475890825,5.701955645,-33.581398934999996,-2.9804575475,-0.0031194575000000058,0.21410858175,-0.12231634109999999,-0.0247816016,-0.3408856941,-0.032173072359
04:38:28,0.12418101999999999,0.19315873,-0.09494024999999999,-0.0005393700000000043,-0.34665581,-0.04194027,3.45789835,5.69206131,-33.57691293,-2.895309705,-0.013044484999999995,0.2144020865,-0.11935798579999998,-0.0233539348,-0.3414599398,-0.034329853202
04:38:28,0.11774694999999999,0.19223342499999999,-0.10310762499999998,0.0021186750000000004,-0.347534725,-0.041961575,3.439905875,5.6821669749999995,-33.572426924999995,-2.8101618625,-0.02296951250000001,0.21469559125,-0.11639963049999999,-0.021926268000000002,-0.34203418550000003,-0.036486634045
04:38:28,0.11131287999999999,0.19130812,-0.11127499999999999,0.004776719999999998,-0.34841364,-0.04198288,3.4219133999999998,5.67227264,-33.56794092,-2.7250140199999997,-0.03289454,0.214989096,-0.1134412752,-0.0204986012,-0.3426084312,-0.038643414888
04:38:28,0.10487880999999999,0.19038281499999998,-0.11944237499999999,0.007434764999999996,-0.349292555,-0.042004185,3.403920925,5.662378305,-33.563454915,-2.6398661775,-0.04281956749999999,0.21528260075,-0.11048291989999999,-0.0190709344,-0.3431826769,-0.040800195731
04:38:28,0.09844473999999999,0.18945751,-0.12760975,0.01009281,-0.35017147,-0.04202549,3.3859284499999998,5.65248397,-33.55896891,-2.554718335,-0.052744595000000005,0.2155761055,-0.10752456459999998,-0.017643267600000002,-0.3437569226,-0.042956976574
04:38:28,0.09201066999999999,0.188532205,-0.13577712499999997,0.012750854999999998,-0.351050385,-0.042046795,3.367935975,5.642589634999999,-33.554482905,-2.4695704925,-0.0626696225,0.21586961025,-0.10456620929999999,-0.0162156008,-0.3443311683,-0.045113757417
04:38:28,0.08557659999999997,0.1876069,-0.14394449999999998,0.015408899999999996,-0.3519293,-0.0420681,3.3499435,5.6326953,-33.5499969,-2.38442265,-0.07259465000000001,0.216163115,-0.101607854,-0.014787934000000003,-0.344905414,-0.04727053826
04:38:28,0.07914252999999999,0.186681595,-0.15211187499999998,0.018066945,-0.352808215,-0.042089404999999996,3.331951025,5.622800965,-33.545510895,-2.2992748075,-0.0825196775,0.21645661975,-0.09864949869999999,-0.013360267200000001,-0.3454796597,-0.049427319103
04:38:28,0.07270845999999997,0.18575629,-0.16027924999999998,0.02072499,-0.35368713,-0.042110709999999996,3.3139585499999997,5.6129066299999995,-33.541024889999996,-2.214126965,-0.09244470499999999,0.2167501245,-0.09569114339999998,-0.0119326004,-0.34605390540000003,-0.051584099946
04:38:28,0.06627438999999999,0.184830985,-0.168446625,0.023383034999999996,-0.354566045,-0.042132015,3.295966075,5.603012295,-33.536538885,-2.1289791224999997,-0.1023697325,0.21704362925,-0.09273278809999999,-0.010504933600000002,-0.3466281511,-0.053740880789
04:38:28,0.059840319999999975,0.18390568,-0.176614,0.02604108,-0.35544496000000003,-0.04215332,3.2779736,5.59311796,-33.532052879999995,-2.04383128,-0.11229476,0.217337134,-0.08977443279999998,-0.009077266799999997,-0.34720239680000003,-0.055897661632
04:38:28,0.05340624999999999,0.182980375,-0.18478137499999997,0.028699125,-0.356323875,-0.042174625,3.259981125,5.583223625,-33.527566875,-1.9586834375,-0.12221978749999998,0.21763063875,-0.08681607749999999,-0.0076495999999999995,-0.3477766425,-0.058054442475
04:38:28,0.046972179999999975,0.18205506999999999,-0.19294874999999997,0.03135717,-0.35720279,-0.04219593,3.24198865,5.573329289999999,-33.52308087,-1.8735355949999999,-0.132144815,0.2179241435,-0.08385772219999998,-0.006221933200000002,-0.3483508882,-0.060211223318
04:38:28,0.04053810999999999,0.181129765,-0.20111612499999998,0.034015214999999994,-0.35808170500000003,-0.042217235,3.223996175,5.563434955,-33.518594865,-1.7883877524999998,-0.14206984250000002,0.21821764825,-0.08089936689999999,-0.004794266400000004,-0.3489251339,-0.062368004161
04:38:28,0.034104039999999974,0.18020445999999998,-0.20928349999999998,0.03667325999999999,-0.35896062,-0.04223854,3.2060037,5.55354062,-33.51410886,-1.7032399099999997,-0.15199486999999998,0.218511153,-0.07794101159999998,-0.003366599599999999,-0.3494993796,-0.06452478500400001
04:38:28,0.027669969999999988,0.179279155,-0.217450875,0.039331305000000004,-0.359839535,-0.042259845,3.188011225,5.5436462849999995,-33.509622854999996,-1.6180920675000001,-0.1619198975,0.21880465775,-0.07498265629999999,-0.0019389328000000011,-0.3500736253,-0.06668156584700001
04:38:28,0.021235899999999974,0.17835384999999998,-0.22561824999999996,0.04198935,-0.36071845,-0.042281149999999997,3.17001875,5.53375195,-33.50513685,-1.532944225,-0.171844925,0.2190981625,-0.07202430099999999,-0.0005112660000000033,-0.350647871,-0.06883834669000001
04:38:28,0.014801829999999988,0.177428545,-0.233785625,0.044647395,-0.361597365,-0.042302454999999996,3.152026275,5.523857615,-33.500650844999996,-1.4477963825,-0.18176995249999997,0.21939166725,-0.06906594569999999,0.0009164008000000015,-0.35122211670000003,-0.07099512753300001
04:38:28,0.008367759999999974,0.17650324,-0.24195299999999997,0.04730544,-0.36247628,-0.04232376,3.1340338,5.51396328,-33.49616484,-1.36264854,-0.19169498,0.219685172,-0.06610759039999999,0.0023440675999999994,-0.3517963624,-0.07315190837600001
04:38:28,0.0019336899999999602,0.175577935,-0.25012037499999995,0.049963484999999995,-0.363355195,-0.042345065,3.116041325,5.504068945,-33.491678834999995,-1.2775006974999998,-0.2016200075,0.21997867675,-0.06314923509999998,0.003771734399999997,-0.3523706081,-0.07530868921900001
04:38:28,-0.004500380000000026,0.17465263,-0.25828775,0.05262152999999999,-0.36423411,-0.04236637,3.09804885,5.49417461,-33.48719283,-1.1923528549999998,-0.21154503499999996,0.2202721815,-0.060190879799999986,0.005199401200000002,-0.3529448538,-0.07746547006200001
04:38:28,-0.01093445000000004,0.173727325,-0.26645512499999996,0.05527957499999999,-0.365113025,-0.042387675,3.080056375,5.484280275,-33.482706825,-1.1072050124999997,-0.22147006249999998,0.22056568625,-0.05723252449999998,0.006627068,-0.3535190995,-0.07962225090500001
04:38:28,-0.017368520000000026,0.17280202,-0.2746225,0.05793762,-0.36599194,-0.04240898,3.0620639,5.4743859399999995,-33.47822082,-1.02205717,-0.23139509,0.220859191,-0.054274169199999986,0.008054734799999998,-0.3540933452,-0.08177903174800001
04:38:28,-0.02380259000000004,0.171876715,-0.28278987499999997,0.060595665,-0.366870855,-0.042430285,3.044071425,5.464491605,-33.473734815,-0.9369093275,-0.24132011749999996,0.22115269575000002,-0.05131581389999998,0.009482401600000002,-0.3546675909,-0.08393581259100001
04:38:28,-0.030236660000000026,0.17095141,-0.29095724999999995,0.06325370999999999,-0.36774977,-0.04245159,3.02607895,5.45459727,-33.469248809999996,-0.8517614849999999,-0.25124514499999995,0.2214462005,-0.048357458599999986,0.0109100684,-0.3552418366,-0.08609259343400001
04:38:28,-0.03667073000000004,0.17002610499999998,-0.299124625,0.06591175499999999,-0.368628685,-0.042472895,3.008086475,5.444702935,-33.464762805,-0.7666136424999999,-0.26117017249999996,0.22173970525,-0.04539910329999998,0.012337735199999998,-0.3558160823,-0.08824937427700001
04:38:28,-0.043104800000000054,0.1691008,-0.30729199999999995,0.06856979999999999,-0.3695076,-0.042494199999999996,2.990094,5.4348086,-33.460276799999995,-0.6814657999999998,-0.2710952,0.22203321,-0.042440747999999986,0.013765401999999996,-0.35639032800000003,-0.09040615512000001
04:38:28,-0.04953887000000001,0.168175495,-0.315459375,0.07122784499999998,-0.370386515,-0.042515504999999995,2.9721015250000002,5.424914265,-33.455790795,-0.5963179574999997,-0.2810202275,0.22232671475000002,-0.03948239269999998,0.0151930688,-0.3569645737,-0.09256293596300001
04:38:28,-0.05597294000000003,0.16725019,-0.32362674999999996,0.07388589000000001,-0.37126543,-0.04253681,2.95410905,5.41501993,-33.45130479,-0.5111701150000001,-0.290945255,0.2226202195,-0.03652403739999999,0.0166207356,-0.3575388194,-0.09471971680600001
04:38:28,-0.06240701000000004,0.166324885,-0.33179412499999994,0.07654393500000001,-0.372144345,-0.042558115,2.936116575,5.4051255949999994,-33.446818785,-0.4260222725,-0.30087028250000003,0.22291372425,-0.033565682099999994,0.018048402399999997,-0.3581130651,-0.09687649764900001
04:38:28,-0.06884108000000005,0.16539958,-0.33996149999999997,0.07920198,-0.37302326,-0.04257942,2.9181241,5.39523126,-33.44233278,-0.34087442999999995,-0.31079530999999994,0.223207229,-0.030607326799999973,0.0194760692,-0.3586873108,-0.09903327849200001
04:38:28,-0.07527515000000001,0.164474275,-0.34812887499999995,0.081860025,-0.373902175,-0.042600725,2.900131625,5.385336925,-33.437846775,-0.2557265874999999,-0.32072033749999995,0.22350073375,-0.02764897149999998,0.020903736000000006,-0.3592615565,-0.10119005933500001
04:38:28,-0.08170922000000003,0.16354897,-0.35629625,0.08451807,-0.37478109,-0.04262203,2.88213915,5.37544259,-33.43336077,-0.1705787449999998,-0.33064536499999997,0.2237942385,-0.024690616199999987,0.022331402799999997,-0.3598358022,-0.10334684017800001
04:38:28,-0.08814329000000004,0.162623665,-0.36446362499999996,0.087176115,-0.375660005,-0.042643335,2.8641466749999998,5.365548255,-33.428874764999996,-0.08543090249999974,-0.3405703925,0.22408774325,-0.021732260899999994,0.023759069600000002,-0.36041004790000003,-0.10550362102100001
04:38:28,-0.09457736000000005,0.16169835999999999,-0.372631,0.08983416,-0.37653892,-0.04266464,2.8461542,5.35565392,-33.42438876,-0.00028306000000011267,-0.35049542,0.224381248,-0.018773905599999974,0.025186736400000007,-0.3609842936,-0.10766040186400001
04:38:28,-0.10101143000000007,0.160773055,-0.38079837499999997,0.092492205,-0.377417835,-0.042685944999999996,2.828161725,5.345759585,-33.419902754999995,0.0848647825000004,-0.3604204475,0.22467475275,-0.01581555029999998,0.026614403199999997,-0.36155853930000004,-0.10981718270700001
04:38:28,-0.10744550000000003,0.15984775,-0.38896574999999994,0.09515024999999999,-0.37829675,-0.04270725,2.81016925,5.3358652499999994,-33.41541675,0.17001262500000003,-0.3703454749999999,0.2249682575,-0.012857194999999988,0.028042070000000002,-0.362132785,-0.11197396355000001
04:38:28,-0.11387957000000004,0.158922445,-0.397133125,0.09780829499999999,-0.379175665,-0.042728555,2.792176775,5.325970915,-33.410930745,0.25516046750000054,-0.38027050249999994,0.22526176225,-0.009898839699999967,0.029469736799999993,-0.3627070307,-0.11413074439300001
04:38:28,-0.12031364000000005,0.15799714,-0.40530049999999995,0.10046633999999999,-0.38005458000000003,-0.04274986,2.7741843,5.31607658,-33.40644474,0.34030831000000017,-0.39019552999999996,0.225555267,-0.006940484399999974,0.030897403599999998,-0.3632812764,-0.11628752523600001
04:38:28,-0.12674771000000007,0.157071835,-0.413467875,0.10312438499999999,-0.380933495,-0.042771165,2.756191825,5.306182245,-33.401958735,0.4254561524999998,-0.4001205575,0.22584877175,-0.0039821290999999814,0.0323250704,-0.3638555221,-0.11844430607900001
04:38:28,-0.13318178000000003,0.15614653,-0.42163524999999996,0.10578242999999998,-0.38181241,-0.04279247,2.73819935,5.29628791,-33.39747273,0.5106039950000003,-0.410045585,0.22614227650000002,-0.0010237737999999885,0.033752737199999994,-0.3644297678,-0.12060108692200001
04:38:28,-0.13961585000000004,0.155221225,-0.42980262499999994,0.10844047499999998,-0.382691325,-0.042813775,2.720206875,5.286393575,-33.392986725,0.5957518374999999,-0.4199706124999999,0.22643578125,0.0019345815000000322,0.035180404,-0.3650040135,-0.12275786776500001
04:38:28,-0.14604992000000006,0.15429592,-0.43796999999999997,0.11109851999999998,-0.38357024,-0.04283508,2.7022144,5.27649924,-33.388500719999996,0.6808996800000005,-0.4298956399999999,0.226729286,0.004892936800000025,0.0366080708,-0.36557825920000003,-0.12491464860800001
04:38:28,-0.15248399000000007,0.153370615,-0.44613737499999995,0.11375656499999998,-0.384449155,-0.042856385,2.684221925,5.2666049049999994,-33.384014715,0.7660475225000001,-0.43982066749999993,0.22702279075,0.007851292100000018,0.038035737599999994,-0.3661525049,-0.127071429451
04:38:28,-0.15891806000000003,0.15244531,-0.45430475,0.11641461,-0.38532807,-0.042877689999999996,2.6662294500000003,5.25671057,-33.379528709999995,0.8511953649999997,-0.44974569499999995,0.22731629550000002,0.010809647400000011,0.0394634044,-0.36672675060000004,-0.129228210294
04:38:28,-0.16535213000000004,0.151520005,-0.46247212499999996,0.119072655,-0.386206985,-0.042898994999999995,2.648236975,5.246816235,-33.375042705,0.9363432075000002,-0.45967072249999996,0.22760980025,0.013768002700000032,0.040891071200000004,-0.3673009963,-0.131384991137
04:38:28,-0.17178620000000006,0.1505947,-0.47063949999999993,0.1217307,-0.3870859,-0.0429203,2.6302445,5.2369219,-33.3705567,1.0214910499999998,-0.46959575,0.227903305,0.016726358000000024,0.042318737999999995,-0.367875242,-0.13354177198
04:38:28,-0.17822027000000007,0.14966939499999998,-0.47880687499999997,0.124388745,-0.387964815,-0.042941605,2.612252025,5.227027565,-33.366070695,1.1066388925000004,-0.4795207774999999,0.22819680975,0.019684713300000017,0.0437464048,-0.3684494877,-0.135698552823
04:38:28,-0.18465434000000003,0.14874409,-0.48697425,0.12704679,-0.38884373,-0.04296291,2.5942595500000003,5.21713323,-33.36158469,1.191786735,-0.4894458049999999,0.2284903145,0.02264306860000001,0.045174071600000004,-0.3690237334,-0.137855333666
04:38:28,-0.19108841000000004,0.147818785,-0.495141625,0.129704835,-0.389722645,-0.042984215,2.576267075,5.207238895,-33.357098685,1.2769345775000005,-0.4993708324999999,0.22878381925000002,0.02560142390000003,0.046601738399999995,-0.36959797910000003,-0.140012114509
04:38:28,-0.19752248000000006,0.14689348,-0.503309,0.13236288,-0.39060156,-0.04300552,2.5582746,5.1973445599999994,-33.35261268,1.3620824200000001,-0.5092958599999999,0.229077324,0.028559779200000024,0.0480294052,-0.3701722248,-0.142168895352
04:38:28,-0.20395655000000007,0.145968175,-0.511476375,0.13502092499999999,-0.391480475,-0.043026825,2.540282125,5.187450225,-33.348126674999996,1.4472302624999998,-0.5192208875,0.22937082875,0.03151813450000002,0.049457072000000005,-0.37074647050000004,-0.144325676195
04:38:28,-0.21039062000000008,0.14504287,-0.51964375,0.13767896999999998,-0.39235939,-0.04304813,2.5222896500000003,5.17755589,-33.34364067,1.5323781050000003,-0.529145915,0.2296643335,0.03447648980000004,0.050884738799999996,-0.3713207162,-0.146482457038
04:38:28,-0.21682469000000004,0.144117565,-0.527811125,0.14033701499999998,-0.393238305,-0.043069434999999996,2.504297175,5.167661555,-33.339154665,1.6175259475,-0.5390709425,0.22995783825,0.03743484510000003,0.0523124056,-0.37189496190000004,-0.148639237881
04:38:28,-0.22325876000000006,0.14319226000000002,-0.5359785,0.14299505999999998,-0.39411722,-0.043090739999999995,2.4863047,5.15776722,-33.33466866,1.7026737900000004,-0.5489959699999999,0.230251343,0.04039320040000002,0.053740072400000005,-0.3724692076,-0.150796018724
04:38:28,-0.22969283000000007,0.142266955,-0.544145875,0.14565310499999998,-0.39499613499999997,-0.043112045,2.468312225,5.147872885,-33.330182655,1.7878216325,-0.5589209974999999,0.23054484775,0.043351555700000016,0.055167739199999996,-0.3730434533,-0.152952799567
04:38:28,-0.23612690000000008,0.14134164999999999,-0.55231325,0.14831114999999997,-0.39587505,-0.04313335,2.4503197500000002,5.13797855,-33.32569665,1.8729694750000005,-0.5688460249999999,0.2308383525,0.04630991100000004,0.056595406,-0.373617699,-0.15510958041
04:38:28,-0.24256097000000004,0.140416345,-0.560480625,0.150969195,-0.396753965,-0.043154655,2.432327275,5.1280842149999994,-33.321210645,1.9581173175000002,-0.5787710524999999,0.23113185725000002,0.04926826630000003,0.058023072800000006,-0.3741919447,-0.157266361253
04:38:28,-0.24899504000000006,0.13949104,-0.568648,0.15362724,-0.39763287999999997,-0.04317596,2.4143348,5.11818988,-33.31672464,2.04326516,-0.58869608,0.231425362,0.05222662160000002,0.0594507396,-0.37476619040000003,-0.159423142096
04:38:28,-0.25542911000000007,0.138565735,-0.576815375,0.156285285,-0.398511795,-0.043197265,2.396342325,5.108295545,-33.312238635,2.1284130025000003,-0.5986211075,0.23171886675,0.055184976900000016,0.0608784064,-0.3753404361,-0.161579922939
04:38:28,-0.2618631800000001,0.13764043,-0.58498275,0.15894333,-0.39939071,-0.04321857,2.37834985,5.09840121,-33.307752629999996,2.213560845,-0.6085461349999999,0.2320123715,0.058143332200000036,0.062306073200000006,-0.3759146818,-0.163736703782
04:38:28,-0.26829725000000004,0.136715125,-0.593150125,0.161601375,-0.400269625,-0.043239875,2.3603573750000004,5.088506875,-33.303266625,2.2987086875000005,-0.6184711624999999,0.23230587625000002,0.06110168750000003,0.06373374,-0.3764889275,-0.165893484625
04:38:28,-0.27473132000000006,0.13578982,-0.6013175,0.16425942,-0.40114854,-0.043261179999999996,2.3423649,5.07861254,-33.29878062,2.38385653,-0.6283961899999999,0.232599381,0.06406004280000002,0.0651614068,-0.3770631732,-0.168050265468
04:38:28,-0.28116539000000007,0.13486451500000002,-0.609484875,0.166917465,-0.402027455,-0.043282484999999996,2.324372425,5.068718205,-33.294294615,2.4690043724999997,-0.6383212174999999,0.23289288575,0.06701839810000002,0.0665890736,-0.3776374189,-0.170207046311
04:38:28,-0.2875994600000001,0.13393921,-0.61765225,0.16957550999999998,-0.40290637,-0.04330379,2.30637995,5.0588238699999994,-33.28980861,2.5541522150000002,-0.6482462449999999,0.2331863905,0.06997675340000004,0.0680167404,-0.3782116646,-0.172363827154
04:38:28,-0.29403353000000004,0.133013905,-0.625819625,0.17223355499999998,-0.403785285,-0.043325095,2.2883874750000004,5.048929535,-33.285322605,2.6393000575,-0.6581712725,0.23347989525,0.07293510870000003,0.0694444072,-0.37878591030000003,-0.174520607997
04:38:28,-0.3004676000000001,0.1320886,-0.633987,0.17489159999999998,-0.40466420000000003,-0.0433464,2.270395,5.0390352,-33.2808366,2.7244479000000004,-0.6680963,0.23377340000000002,0.07589346400000002,0.070872074,-0.379360156,-0.17667738884
04:38:28,-0.30690167000000007,0.131163295,-0.6421543749999999,0.17754964499999998,-0.405543115,-0.043367705,2.252402525,5.029140865,-33.276350595,2.8095957425,-0.6780213274999999,0.23406690475,0.07885181930000004,0.0722997408,-0.37993440170000004,-0.178834169683
04:38:28,-0.31333574000000003,0.13023799,-0.65032175,0.18020768999999998,-0.40642203,-0.04338901,2.23441005,5.01924653,-33.27186459,2.8947435850000005,-0.6879463549999999,0.2343604095,0.08181017460000004,0.0737274076,-0.3805086474,-0.180990950526
04:38:28,-0.3197698100000001,0.12931268499999998,-0.658489125,0.18286573499999997,-0.407300945,-0.043410315,2.2164175750000004,5.009352195,-33.267378584999996,2.9798914275,-0.6978713824999999,0.23465391425,0.08476852990000003,0.0751550744,-0.3810828931,-0.183147731369
04:38:28,-0.32620388000000006,0.12838738,-0.6666565,0.18552378,-0.40817986,-0.04343162,2.1984251,4.99945786,-33.26289258,3.0650392699999998,-0.7077964099999999,0.23494741900000002,0.08772688520000002,0.0765827412,-0.3816571388,-0.185304512212
04:38:28,-0.3326379500000001,0.127462075,-0.674823875,0.188181825,-0.409058775,-0.043452924999999996,2.180432625,4.9895635249999994,-33.258406575,3.1501871125000003,-0.7177214375,0.23524092375,0.09068524050000001,0.078010408,-0.3822313845,-0.187461293055
04:38:28,-0.3390720200000001,0.12653677000000002,-0.6829912499999999,0.19083987,-0.40993769,-0.043474229999999996,2.16244015,4.97966919,-33.25392057,3.235334955,-0.727646465,0.2355344285,0.0936435958,0.0794380748,-0.3828056302,-0.189618073898
04:38:28,-0.34550609000000004,0.125611465,-0.691158625,0.193497915,-0.410816605,-0.043495535,2.1444476750000003,4.969774855,-33.249434565,3.3204827975000004,-0.7375714924999999,0.23582793325,0.09660195110000006,0.0808657416,-0.3833798759,-0.191774854741
04:38:28,-0.3519401600000001,0.12468616,-0.699326,0.19615596,-0.41169552,-0.04351684,2.1264552,4.95988052,-33.24494856,3.40563064,-0.7474965199999999,0.23612143800000002,0.09956030640000005,0.0822934084,-0.38395412160000003,-0.193931635584
04:38:28,-0.35837423000000007,0.123760855,-0.707493375,0.198814005,-0.412574435,-0.043538145,2.108462725,4.949986185,-33.240462555,3.4907784825000006,-0.7574215474999999,0.23641494275000002,0.10251866170000004,0.08372107520000001,-0.3845283673,-0.196088416427
04:38:28,-0.36480830000000003,0.12283555,-0.71566075,0.20147204999999999,-0.41345335,-0.04355945,2.09047025,4.94009185,-33.23597655,3.575926325,-0.7673465749999999,0.2367084475,0.10547701700000003,0.08514874200000001,-0.38510261300000004,-0.19824519727
04:38:28,-0.3712423700000001,0.121910245,-0.7238281249999999,0.20413009499999998,-0.414332265,-0.043580755,2.0724777750000003,4.930197515,-33.231490545,3.6610741675,-0.7772716024999999,0.23700195225,0.10843537230000003,0.08657640879999999,-0.3856768587,-0.200401978113
04:38:28,-0.37767644000000006,0.12098494,-0.7319955,0.20678813999999998,-0.41521118,-0.04360206,2.0544853,4.920303179999999,-33.22700454,3.7462220100000003,-0.78719663,0.23729545700000002,0.11139372760000002,0.0880040756,-0.3862511044,-0.202558758956
04:38:28,-0.3841105100000001,0.120059635,-0.740162875,0.20944618499999998,-0.416090095,-0.043623365,2.036492825,4.910408845,-33.222518535,3.8313698525,-0.7971216574999999,0.23758896175000002,0.11435208290000001,0.0894317424,-0.3868253501,-0.204715539799
04:38:28,-0.3905445800000001,0.11913433000000001,-0.74833025,0.21210422999999998,-0.41696901,-0.043644669999999997,2.01850035,4.90051451,-33.21803253,3.9165176950000005,-0.8070466849999999,0.2378824665,0.1173104382,0.0908594092,-0.3873995958,-0.206872320642
04:38:28,-0.39697865000000004,0.11820902500000001,-0.756497625,0.214762275,-0.417847925,-0.043665974999999996,2.0005078750000003,4.890620175,-33.213546525,4.0016655375,-0.8169717124999999,0.23817597125,0.12026879350000005,0.09228707600000001,-0.3879738415,-0.209029101485
04:38:28,-0.4034127200000001,0.11728372000000001,-0.764665,0.21742032,-0.41872684,-0.04368728,1.9825154,4.88072584,-33.20906052,4.08681338,-0.8268967399999999,0.238469476,0.12322714880000005,0.09371474280000001,-0.3885480872,-0.211185882328
04:38:28,-0.40984679000000007,0.116358415,-0.772832375,0.220078365,-0.41960575499999997,-0.043708585,1.9645229250000003,4.870831505,-33.204574515,4.171961222499999,-0.8368217674999999,0.23876298075000002,0.12618550410000004,0.09514240959999999,-0.38912233290000003,-0.213342663171
04:38:28,-0.41628086000000014,0.11543311,-0.78099975,0.22273641,-0.42048467,-0.04372989,1.9465304500000002,4.86093717,-33.20008851,4.257109065000001,-0.8467467949999999,0.2390564855,0.12914385940000003,0.0965700764,-0.3896965786,-0.215499444014
04:38:28,-0.4227149300000001,0.114507805,-0.789167125,0.225394455,-0.421363585,-0.043751195,1.9285379750000002,4.851042834999999,-33.195602505,4.3422569075,-0.8566718225,0.23934999025,0.13210221470000003,0.0979977432,-0.39027082430000004,-0.217656224857
04:38:28,-0.42914900000000006,0.1135825,-0.7973345,0.2280525,-0.42224249999999997,-0.0437725,1.9105455000000002,4.8411485,-33.1911165,4.42740475,-0.8665968499999999,0.239643495,0.13506057000000002,0.09942541,-0.39084507,-0.2198130057
04:38:28,-0.4355830700000001,0.112657195,-0.805501875,0.230710545,-0.423121415,-0.043793805,1.8925530250000002,4.831254165,-33.186630495,4.5125525925,-0.8765218774999999,0.23993699975000002,0.1380189253,0.10085307680000001,-0.3914193157,-0.221969786543
04:38:28,-0.4420171400000001,0.11173189,-0.81366925,0.23336859,-0.42400033,-0.04381511,1.8745605500000002,4.82135983,-33.18214449,4.597700435000001,-0.8864469049999999,0.2402305045,0.14097728060000006,0.10228074359999999,-0.3919935614,-0.224126567386
04:38:28,-0.44845121000000004,0.110806585,-0.821836625,0.23602663499999998,-0.42487924499999996,-0.043836415,1.8565680750000002,4.811465495,-33.177658485,4.682848277500001,-0.8963719324999999,0.24052400925,0.14393563590000005,0.10370841039999999,-0.3925678071,-0.226283348229
04:38:28,-0.4548852800000001,0.10988128000000001,-0.830004,0.23868467999999998,-0.42575816,-0.043857719999999996,1.8385756000000002,4.80157116,-33.17317248,4.76799612,-0.9062969599999999,0.240817514,0.14689399120000005,0.1051360772,-0.39314205280000003,-0.228440129072
04:38:28,-0.4613193500000001,0.10895597500000001,-0.8381713749999999,0.24134272499999998,-0.426637075,-0.043879025,1.8205831250000002,4.791676825,-33.168686475,4.8531439625,-0.9162219875,0.24111101875000002,0.14985234650000004,0.106563744,-0.3937162985,-0.230596909915
04:38:28,-0.46775342000000014,0.10803067000000001,-0.84633875,0.24400076999999998,-0.42751599,-0.04390033,1.8025906500000002,4.781782489999999,-33.16420047,4.9382918049999995,-0.926147015,0.24140452350000002,0.15281070180000003,0.1079914108,-0.39429054420000004,-0.232753690758
04:38:28,-0.4741874900000001,0.10710536500000001,-0.854506125,0.24665881499999998,-0.428394905,-0.043921635,1.7845981750000002,4.771888155,-33.159714465,5.023439647500001,-0.9360720425,0.24169802825,0.15576905710000002,0.10941907760000001,-0.3948647899,-0.234910471601
04:38:28,-0.48062156000000006,0.10618006,-0.8626735,0.24931685999999997,-0.42927382000000003,-0.04394294,1.7666057000000002,4.76199382,-33.15522846,5.108587490000001,-0.94599707,0.241991533,0.15872741240000002,0.11084674439999999,-0.39543903560000004,-0.237067252444
04:38:28,-0.48705563000000013,0.105254755,-0.870840875,0.25197490499999997,-0.430152735,-0.043964245,1.7486132250000002,4.752099485,-33.150742455,5.1937353325,-0.9559220974999998,0.24228503775000002,0.1616857677,0.1122744112,-0.3960132813,-0.239224033287
04:38:28,-0.4934897000000001,0.10432945,-0.8790082499999999,0.25463294999999997,-0.43103165,-0.04398555,1.7306207500000002,4.74220515,-33.14625645,5.278883175,-0.9658471249999998,0.24257854250000002,0.16464412300000006,0.113702078,-0.396587527,-0.24138081413
04:38:28,-0.49992377000000005,0.103404145,-0.887175625,0.25729099499999997,-0.431910565,-0.044006855,1.7126282750000001,4.732310815,-33.141770445,5.364031017499999,-0.9757721524999998,0.24287204725,0.16760247830000005,0.1151297448,-0.3971617727,-0.243537594973
04:38:28,-0.5063578400000002,0.10247884,-0.895343,0.25994903999999996,-0.43278948,-0.04402816,1.6946358000000004,4.72241648,-33.13728444,5.449178860000001,-0.9856971799999998,0.243165552,0.17056083360000004,0.11655741160000001,-0.3977360184,-0.245694375816
04:38:28,-0.51279191,0.101553535,-0.903510375,0.26260708499999996,-0.433668395,-0.044049464999999996,1.6766433250000001,4.712522144999999,-33.132798435,5.5343267025000005,-0.9956222074999999,0.24345905675,0.17351918890000004,0.11798507840000001,-0.39831026410000003,-0.247851156659
04:38:28,-0.5192259800000001,0.10062823000000001,-0.91167775,0.26526512999999996,-0.43454731,-0.044070769999999995,1.6586508500000003,4.70262781,-33.12831243,5.619474545,-1.0055472349999999,0.24375256150000002,0.17647754420000003,0.11941274519999999,-0.3988845098,-0.250007937502
04:38:28,-0.5256600500000002,0.09970292500000001,-0.9198451249999999,0.26792317499999996,-0.435426225,-0.044092075,1.6406583750000001,4.692733475,-33.123826425,5.7046223875,-1.0154722625,0.24404606625000003,0.17943589950000002,0.120840412,-0.3994587555,-0.25216471834500004
04:38:28,-0.53209412,0.09877762000000001,-0.9280125,0.27058122,-0.43630514,-0.04411338,1.6226659000000003,4.68283914,-33.11934042,5.789770229999999,-1.02539729,0.244339571,0.18239425480000002,0.1222680788,-0.4000330012,-0.254321499188
04:38:28,-0.5385281900000001,0.09785231500000001,-0.936179875,0.273239265,-0.437184055,-0.044134685,1.604673425,4.672944805,-33.114854415,5.874918072500001,-1.0353223175,0.24463307575,0.18535261010000006,0.1236957456,-0.40060724690000005,-0.256478280031
04:38:28,-0.5449622600000001,0.09692701000000001,-0.94434725,0.27589731,-0.43806297,-0.04415599,1.5866809500000003,4.66305047,-33.11036841,5.960065915,-1.045247345,0.24492658050000002,0.18831096540000006,0.12512341240000002,-0.4011814926,-0.258635060874
04:38:28,-0.5513963300000002,0.096001705,-0.952514625,0.278555355,-0.438941885,-0.044177295,1.568688475,4.653156135,-33.105882405,6.0452137575,-1.0551723725,0.24522008525,0.19126932070000005,0.12655107920000003,-0.4017557383,-0.26079184171700004
04:38:28,-0.5578304000000001,0.0950764,-0.9606819999999999,0.2812134,-0.4398208,-0.0441986,1.5506960000000003,4.643261799999999,-33.1013964,6.1303616,-1.0650974,0.24551359,0.19422767600000004,0.12797874599999998,-0.40232998400000003,-0.26294862256
04:38:28,-0.5642644700000001,0.094151095,-0.968849375,0.283871445,-0.440699715,-0.044219905,1.532703525,4.633367465,-33.096910395,6.215509442500001,-1.0750224275,0.24580709475,0.19718603130000004,0.12940641279999998,-0.4029042297,-0.265105403403
04:38:28,-0.5706985400000002,0.09322579,-0.97701675,0.28652949,-0.44157862999999997,-0.044241209999999996,1.5147110500000003,4.62347313,-33.09242439,6.300657285000001,-1.0849474549999998,0.24610059950000002,0.20014438660000003,0.1308340796,-0.40347847540000004,-0.267262184246
04:38:28,-0.57713261,0.092300485,-0.9851841249999999,0.289187535,-0.442457545,-0.044262515,1.496718575,4.613578795,-33.087938385,6.3858051275,-1.0948724824999998,0.24639410425000002,0.20310274190000002,0.1322617464,-0.4040527211,-0.26941896508900004
04:38:28,-0.5835666800000001,0.09137518000000001,-0.9933515,0.29184558,-0.44333646,-0.04428382,1.4787261000000003,4.60368446,-33.08345238,6.47095297,-1.1047975099999998,0.24668760900000003,0.20606109720000002,0.1336894132,-0.4046269668,-0.271575745932
04:38:28,-0.5900007500000002,0.09044987500000001,-1.001518875,0.294503625,-0.44421537499999997,-0.044305125,1.460733625,4.593790125,-33.078966375,6.5561008124999995,-1.1147225374999998,0.24698111375,0.20901945250000006,0.13511708,-0.4052012125,-0.273732526775
04:38:28,-0.59643482,0.08952457000000001,-1.00968625,0.29716167,-0.44509429,-0.04432643,1.4427411500000002,4.58389579,-33.07448037,6.641248655000001,-1.1246475649999998,0.24727461850000002,0.21197780780000006,0.1365447468,-0.4057754582,-0.275889307618
04:38:28,-0.6028688900000001,0.08859926500000001,-1.0178536249999999,0.299819715,-0.445973205,-0.044347735,1.424748675,4.574001454999999,-33.069994365,6.726396497500001,-1.1345725924999999,0.24756812325000002,0.21493616310000005,0.1379724136,-0.4063497039,-0.27804608846100004
04:38:28,-0.6093029600000002,0.08767396000000001,-1.0260209999999998,0.30247776,-0.44685211999999996,-0.04436904,1.4067562000000002,4.56410712,-33.06550836,6.81154434,-1.1444976199999999,0.247861628,0.21789451840000004,0.13940008040000001,-0.4069239496,-0.280202869304
04:38:28,-0.61573703,0.08674865500000001,-1.0341883749999998,0.305135805,-0.447731035,-0.044390345,1.3887637250000004,4.554212785,-33.061022355,6.8966921825,-1.1544226475,0.24815513275,0.22085287370000004,0.14082774720000002,-0.40749819530000003,-0.282359650147
04:38:28,-0.6221711000000001,0.08582335,-1.0423557499999998,0.30779385,-0.44860995,-0.04441165,1.3707712500000002,4.54431845,-33.05653635,6.9818400249999995,-1.164347675,0.2484486375,0.22381122900000003,0.14225541400000002,-0.408072441,-0.28451643099
04:38:28,-0.6286051700000002,0.084898045,-1.0505231249999998,0.310451895,-0.44948886499999996,-0.044432954999999996,1.3527787750000004,4.534424115,-33.052050345,7.066987867500001,-1.1742727025,0.24874214225000002,0.22676958430000002,0.14368308079999997,-0.40864668670000004,-0.28667321183300004
04:38:28,-0.6350392400000002,0.08397274,-1.0586904999999998,0.31310994,-0.45036778,-0.044454259999999995,1.3347863000000002,4.52452978,-33.04756434,7.1521357100000005,-1.18419773,0.24903564700000003,0.22972793960000007,0.14511074759999998,-0.4092209324,-0.288829992676
04:38:28,-0.6414733100000001,0.08304743500000002,-1.066857875,0.315767985,-0.451246695,-0.044475565,1.3167938250000004,4.514635445,-33.043078335,7.2372835525,-1.1941227575,0.24932915175,0.23268629490000006,0.14653841439999998,-0.4097951781,-0.290986773519
04:38:28,-0.6479073800000001,0.08212213000000002,-1.07502525,0.31842602999999997,-0.45212561,-0.04449687,1.2988013500000002,4.504741109999999,-33.03859233,7.322431395,-1.204047785,0.2496226565,0.23564465020000006,0.1479660812,-0.4103694238,-0.293143554362
04:38:28,-0.6543414500000002,0.08119682500000001,-1.083192625,0.32108407499999997,-0.453004525,-0.044518175,1.2808088750000004,4.494846775,-33.034106325,7.407579237499999,-1.2139728124999998,0.24991616125000002,0.23860300550000005,0.149393748,-0.4109436695,-0.29530033520500004
04:38:28,-0.6607755200000001,0.08027152000000001,-1.0913599999999999,0.32374211999999997,-0.45388343999999997,-0.04453948,1.2628164000000002,4.48495244,-33.02962032,7.492727080000001,-1.2238978399999998,0.250209666,0.24156136080000004,0.1508214148,-0.41151791520000003,-0.297457116048
04:38:28,-0.6672095900000001,0.079346215,-1.0995273749999999,0.32640016499999996,-0.454762355,-0.044560785,1.2448239250000004,4.475058105,-33.025134315,7.5778749225,-1.2338228674999998,0.25050317075,0.24451971610000003,0.1522490816,-0.4120921609,-0.299613896891
04:38:28,-0.6736436600000002,0.07842091000000001,-1.1076947499999998,0.32905820999999996,-0.45564127,-0.04458209,1.2268314500000002,4.46516377,-33.02064831,7.663022765,-1.2437478949999998,0.2507966755,0.24747807140000003,0.1536767484,-0.41266640660000004,-0.301770677734
04:38:28,-0.68007773,0.07749560500000002,-1.1158621249999998,0.33171625499999996,-0.456520185,-0.044603395,1.2088389750000004,4.455269435,-33.016162305,7.7481706075,-1.2536729224999998,0.25109018025,0.2504364267,0.1551044152,-0.4132406523,-0.30392745857700004
04:38:28,-0.6865118000000001,0.07657030000000001,-1.1240294999999998,0.33437429999999996,-0.4573991,-0.044624699999999996,1.1908465000000001,4.4453751,-33.0116763,7.833318450000001,-1.2635979499999999,0.251383685,0.2533947820000001,0.15653208200000002,-0.41381489800000004,-0.30608423942
04:38:28,-0.6929458700000002,0.07564499500000002,-1.1321968749999998,0.337032345,-0.458278015,-0.044646005,1.1728540250000004,4.435480764999999,-33.007190295,7.918466292500001,-1.2735229774999999,0.25167718975000003,0.2563531373000001,0.15795974880000002,-0.4143891437,-0.308241020263
04:38:28,-0.69937994,0.07471969,-1.1403642499999997,0.33969039,-0.45915693,-0.04466731,1.1548615500000001,4.42558643,-33.002704290000004,8.003614135,-1.283448005,0.25197069450000004,0.2593114926000001,0.15938741560000003,-0.4149633894,-0.310397801106
04:38:28,-0.7058140100000001,0.07379438500000002,-1.148531625,0.342348435,-0.460035845,-0.044688615,1.1368690750000003,4.415692095,-32.998218285,8.088761977499999,-1.2933730325,0.25226419925,0.2622698479000001,0.16081508239999998,-0.4155376351,-0.31255458194900004
04:38:28,-0.7122480800000002,0.07286908,-1.156699,0.34500648,-0.46091476,-0.04470992,1.1188766,4.40579776,-32.99373228,8.173909819999999,-1.30329806,0.252557704,0.26522820320000007,0.16224274919999998,-0.4161118808,-0.314711362792
04:38:28,-0.7186821500000002,0.07194377500000002,-1.164866375,0.347664525,-0.461793675,-0.044731225,1.1008841250000003,4.395903425,-32.989246275,8.259057662500002,-1.3132230875,0.25285120875,0.26818655850000006,0.16367041599999999,-0.41668612650000003,-0.316868143635
04:38:28,-0.7251162200000001,0.07101847,-1.1730337499999999,0.35032257,-0.46267259,-0.04475253,1.08289165,4.38600909,-32.98476027,8.344205505000001,-1.323148115,0.2531447135,0.27114491380000005,0.1650980828,-0.4172603722,-0.319024924478
04:38:28,-0.7315502900000002,0.07009316500000001,-1.1812011249999999,0.352980615,-0.463551505,-0.044773835,1.0648991750000003,4.376114755,-32.980274265,8.429353347500001,-1.3330731425,0.25343821825,0.27410326910000005,0.1665257496,-0.4178346179,-0.32118170532100004
04:38:28,-0.7379843600000002,0.06916786000000003,-1.1893684999999998,0.35563866,-0.46443042,-0.04479514,1.0469067,4.366220419999999,-32.97578826,8.51450119,-1.3429981699999998,0.253731723,0.27706162440000004,0.1679534164,-0.4184088636,-0.323338486164
04:38:28,-0.7444184300000001,0.06824255500000001,-1.1975358749999998,0.358296705,-0.465309335,-0.044816444999999996,1.0289142250000003,4.356326085,-32.971302255,8.5996490325,-1.3529231974999998,0.25402522775,0.28001997970000003,0.1693810832,-0.41898310930000005,-0.325495267007
04:38:28,-0.7508525000000001,0.06731725000000002,-1.2057032499999998,0.36095475,-0.46618824999999997,-0.044837749999999996,1.0109217500000005,4.34643175,-32.96681625,8.684796875,-1.3628482249999998,0.25431873250000003,0.282978335,0.17080875,-0.419557355,-0.32765204785
04:38:28,-0.7572865700000002,0.06639194500000001,-1.2138706249999998,0.363612795,-0.467067165,-0.044859055,0.9929292750000003,4.336537415,-32.962330245000004,8.7699447175,-1.3727732524999998,0.25461223725000004,0.2859366903,0.17223641680000001,-0.4201316007,-0.32980882869300004
04:38:28,-0.7637206400000001,0.06546664000000002,-1.2220379999999997,0.36627084,-0.46794608,-0.04488036,0.9749368000000005,4.32664308,-32.95784424,8.85509256,-1.3826982799999998,0.25490574200000005,0.2888950456,0.17366408360000002,-0.4207058464,-0.331965609536
04:38:28,-0.7701547100000001,0.064541335,-1.230205375,0.368928885,-0.46882499499999997,-0.044901665,0.9569443250000003,4.316748745,-32.953358235,8.940240402499999,-1.3926233074999999,0.25519924675,0.2918534009,0.17509175040000002,-0.4212800921,-0.334122390379
04:38:28,-0.7765887800000002,0.06361603000000002,-1.23837275,0.37158693,-0.46970391,-0.04492297,0.9389518500000005,4.30685441,-32.94887223,9.025388244999998,-1.4025483349999999,0.2554927515,0.2948117562,0.17651941720000003,-0.42185433780000003,-0.336279171222
04:38:28,-0.78302285,0.062690725,-1.2465401249999999,0.374244975,-0.470582825,-0.044944275,0.9209593750000002,4.296960074999999,-32.944386225,9.110536087500002,-1.4124733624999999,0.25578625625,0.2977701115000001,0.17794708399999998,-0.4224285835,-0.33843595206500005
04:38:28,-0.7894569200000001,0.061765420000000015,-1.2547074999999999,0.37690302,-0.47146173999999996,-0.04496558,0.9029669000000005,4.28706574,-32.93990022,9.195683930000001,-1.42239839,0.256079761,0.3007284668000001,0.17937475079999998,-0.4230028292,-0.340592732908
04:38:28,-0.7958909900000002,0.060840115,-1.2628748749999998,0.379561065,-0.472340655,-0.044986885,0.8849744250000002,4.277171405,-32.935414215,9.280831772500001,-1.4323234175,0.25637326575,0.3036868221000001,0.1808024176,-0.4235770749,-0.342749513751
04:38:28,-0.80232506,0.05991481000000001,-1.2710422499999998,0.38221911,-0.47321957,-0.04500819,0.8669819500000004,4.26727707,-32.93092821,9.365979615,-1.442248445,0.25666677050000003,0.3066451774000001,0.1822300844,-0.42415132060000005,-0.344906294594
04:38:28,-0.8087591300000001,0.058989505000000025,-1.2792096249999998,0.38487715499999997,-0.47409848499999996,-0.045029494999999996,0.8489894750000002,4.257382735,-32.926442205,9.4511274575,-1.4521734725,0.25696027525000004,0.3096035327000001,0.1836577512,-0.4247255663,-0.34706307543700005
04:38:28,-0.8151932000000002,0.05806420000000001,-1.2873769999999998,0.38753519999999997,-0.4749774,-0.0450508,0.8309970000000004,4.2474884,-32.921956200000004,9.5362753,-1.4620985,0.25725378,0.31256188800000007,0.185085418,-0.425299812,-0.34921985628
04:38:28,-0.82162727,0.05713889500000002,-1.2955443749999997,0.39019324499999997,-0.475856315,-0.045072105,0.8130045250000002,4.237594065,-32.917470195,9.6214231425,-1.4720235274999998,0.25754728475,0.31552024330000006,0.1865130848,-0.42587405770000003,-0.351376637123
04:38:28,-0.8280613400000001,0.05621359000000001,-1.3037117499999997,0.39285128999999996,-0.47673522999999995,-0.04509341,0.7950120500000004,4.227699729999999,-32.91298419,9.706570984999999,-1.4819485549999998,0.2578407895,0.31847859860000005,0.1879407516,-0.4264483034,-0.353533417966
04:38:28,-0.8344954100000002,0.05528828500000002,-1.311879125,0.39550933499999996,-0.477614145,-0.045114715,0.7770195750000002,4.217805395,-32.908498185,9.791718827499999,-1.4918735824999998,0.25813429425,0.32143695390000004,0.18936841840000002,-0.42702254910000004,-0.35569019880900005
04:38:28,-0.84092948,0.054362980000000005,-1.3200465,0.39816737999999996,-0.47849306,-0.04513602,0.7590271000000004,4.20791106,-32.90401218,9.876866670000002,-1.5017986099999998,0.258427799,0.32439530920000004,0.19079608520000002,-0.4275967948,-0.357846979652
04:38:28,-0.8473635500000001,0.05343767500000002,-1.3282138749999999,0.40082542499999996,-0.47937197499999995,-0.045157325,0.7410346250000002,4.198016725,-32.899526175,9.962014512500001,-1.5117236374999998,0.25872130375,0.32735366450000003,0.19222375200000003,-0.4281710405,-0.360003760495
04:38:28,-0.8537976200000001,0.05251237,-1.3363812499999999,0.40348346999999996,-0.48025089,-0.04517863,0.7230421500000004,4.18812239,-32.89504017,10.047162355000001,-1.5216486649999998,0.2590148085,0.3303120198,0.19365141879999997,-0.4287452862,-0.362160541338
04:38:28,-0.86023169,0.051587065000000015,-1.3445486249999998,0.406141515,-0.481129805,-0.045199935,0.7050496750000002,4.178228055,-32.890554165000005,10.1323101975,-1.5315736924999999,0.25930831325000003,0.3332703751,0.19507908559999998,-0.42931953190000005,-0.36431732218100005
04:38:28,-0.8666657600000001,0.05066176000000003,-1.3527159999999998,0.40879956,-0.48200871999999995,-0.045221239999999996,0.6870572000000004,4.16833372,-32.88606816,10.21745804,-1.5414987199999999,0.25960181800000004,0.3362287304,0.19650675239999998,-0.4298937776,-0.366474103024
04:38:28,-0.8730998300000001,0.04973645500000001,-1.3608833749999998,0.411457605,-0.482887635,-0.045242545,0.6690647250000001,4.158439384999999,-32.881582155000004,10.3026058825,-1.5514237475,0.25989532275000005,0.3391870857,0.1979344192,-0.4304680233,-0.368630883867
04:38:28,-0.8795339000000002,0.048811150000000025,-1.3690507499999998,0.41411565,-0.48376655,-0.04526385,0.6510722500000004,4.14854505,-32.87709615,10.387753725,-1.561348775,0.2601888275,0.342145441,0.199362086,-0.43104226900000003,-0.37078766471
04:38:28,-0.88596797,0.04788584500000001,-1.3772181249999997,0.416773695,-0.484645465,-0.045285155,0.6330797750000006,4.138650715,-32.872610145,10.4729015675,-1.5712738025,0.26048233225,0.3451037963,0.2007897528,-0.4316165147,-0.37294444555300005
04:38:28,-0.8924020400000001,0.04696054000000002,-1.3853854999999997,0.41943174,-0.48552438,-0.04530646,0.6150873000000003,4.1287563800000004,-32.86812414,10.558049409999999,-1.58119883,0.260775837,0.3480621516,0.2022174196,-0.43219076040000004,-0.375101226396
04:38:28,-0.8988361100000002,0.04603523500000001,-1.393552875,0.422089785,-0.486403295,-0.045327765,0.5970948250000006,4.118862045,-32.863638135,10.643197252499998,-1.5911238574999997,0.26106934175,0.3510205069,0.2036450864,-0.4327650061,-0.377258007239
04:38:28,-0.90527018,0.04510993000000002,-1.40172025,0.42474783,-0.48728221,-0.04534907,0.5791023500000003,4.10896771,-32.85915213,10.728345095000002,-1.6010488849999998,0.2613628465,0.3539788622000001,0.2050727532,-0.4333392518,-0.379414788082
04:38:28,-0.9117042500000001,0.044184625000000005,-1.4098876249999999,0.427405875,-0.488161125,-0.045370375,0.5611098750000005,4.099073375,-32.854666125,10.813492937500001,-1.6109739124999998,0.26165635125000003,0.35693721750000007,0.20650042000000002,-0.4339134975,-0.38157156892500005
04:38:28,-0.9181383200000002,0.04325932000000002,-1.4180549999999998,0.43006392,-0.48904004,-0.04539168,0.5431174000000003,4.089179039999999,-32.850180120000005,10.898640780000001,-1.6208989399999998,0.26194985600000004,0.35989557280000006,0.20792808680000002,-0.4344877432,-0.383728349768
04:38:28,-0.92457239,0.042334015,-1.4262223749999998,0.432721965,-0.489918955,-0.045412984999999996,0.5251249250000005,4.079284705,-32.845694115,10.9837886225,-1.6308239674999998,0.26224336075000004,0.36285392810000006,0.20935575360000003,-0.43506198890000003,-0.385885130611
04:38:28,-0.9310064600000001,0.041408710000000015,-1.4343897499999998,0.43538001,-0.49079786999999997,-0.04543429,0.5071324500000003,4.06939037,-32.841208110000004,11.068936465,-1.6407489949999998,0.2625368655,0.36581228340000005,0.21078342040000003,-0.4356362346,-0.388041911454
04:38:28,-0.9374405300000002,0.04048340500000003,-1.4425571249999998,0.438038055,-0.491676785,-0.045455595,0.4891399750000005,4.0594960350000004,-32.836722105,11.1540843075,-1.6506740224999998,0.26283037025,0.36877063870000004,0.21221108720000004,-0.43621048030000004,-0.39019869229700005
04:38:28,-0.9438746,0.03955810000000001,-1.4507244999999998,0.4406961,-0.4925557,-0.0454769,0.4711475000000003,4.0496017,-32.8322361,11.23923215,-1.6605990499999999,0.263123875,0.37172899400000003,0.21363875400000004,-0.436784726,-0.39235547314
04:38:28,-0.9503086700000001,0.038632795000000025,-1.4588918749999997,0.443354145,-0.49343461499999997,-0.045498205,0.4531550250000005,4.039707365,-32.827750095,11.324379992499999,-1.6705240774999999,0.26341737975,0.3746873493,0.2150664208,-0.43735897170000004,-0.394512253983
04:38:28,-0.9567427400000001,0.03770749000000001,-1.4670592499999997,0.44601219,-0.49431353,-0.04551951,0.43516255000000026,4.02981303,-32.82326409,11.409527834999999,-1.6804491049999999,0.2637108845,0.3776457046,0.2164940876,-0.4379332174,-0.396669034826
04:38:28,-0.9631768100000002,0.03678218500000002,-1.475226625,0.448670235,-0.495192445,-0.045540815,0.4171700750000005,4.019918694999999,-32.818778085,11.494675677500002,-1.6903741325,0.26400438925,0.3806040599,0.2179217544,-0.4385074631,-0.39882581566900005
04:38:28,-0.9696108800000001,0.03585688000000001,-1.4833939999999999,0.45132827999999997,-0.49607135999999996,-0.04556212,0.39917760000000024,4.01002436,-32.81429208,11.579823520000001,-1.70029916,0.26429789400000003,0.3835624152,0.2193494212,-0.4390817088,-0.400982596512
04:38:28,-0.9760449500000001,0.03493157500000002,-1.4915613749999999,0.45398632499999997,-0.496950275,-0.045583425,0.38118512500000046,4.000130025,-32.809806075000004,11.664971362500001,-1.7102241875,0.26459139875000004,0.3865207705,0.220777088,-0.4396559545,-0.403139377355
04:38:28,-0.9824790200000002,0.034006270000000005,-1.4997287499999998,0.45664436999999997,-0.49782919,-0.045604729999999996,0.36319265000000023,3.99023569,-32.80532007,11.750119205,-1.7201492149999997,0.26488490350000005,0.3894791258,0.22220475480000002,-0.44023020020000003,-0.405296158198
04:38:28,-0.98891309,0.03308096500000002,-1.5078961249999998,0.45930241499999996,-0.49870810499999996,-0.045626034999999995,0.34520017500000044,3.980341355,-32.800834065000004,11.8352670475,-1.7300742424999997,0.26517840825000005,0.3924374811,0.22363242160000002,-0.4408044459,-0.40745293904100005
04:38:28,-0.9953471600000001,0.03215566000000003,-1.5160634999999998,0.46196045999999996,-0.49958702,-0.04564734,0.3272077000000002,3.97044702,-32.79634806,11.92041489,-1.7399992699999998,0.265471913,0.3953958364,0.22506008840000002,-0.4413786916,-0.409609719884
04:38:28,-1.0017812300000002,0.031230355000000015,-1.5242308749999998,0.464618505,-0.500465935,-0.045668645,0.3092152250000004,3.9605526849999997,-32.791862055,12.0055627325,-1.7499242974999998,0.26576541775,0.3983541917000001,0.22648775520000003,-0.4419529373,-0.411766500727
04:38:28,-1.0082153,0.030305050000000028,-1.5323982499999997,0.46727655,-0.50134485,-0.04568995,0.2912227500000002,3.95065835,-32.78737605,12.090710575,-1.7598493249999998,0.2660589225,0.4013125470000001,0.22791542200000003,-0.44252718300000005,-0.41392328157
04:38:28,-1.01464937,0.029379745000000013,-1.5405656249999997,0.469934595,-0.502223765,-0.045711255,0.2732302750000004,3.940764015,-32.782890045,12.175858417499999,-1.7697743524999998,0.26635242725,0.40427090230000007,0.22934308880000004,-0.4431014287,-0.41608006241300005
04:38:28,-1.0210834400000002,0.028454440000000025,-1.548733,0.47259264,-0.50310268,-0.04573256,0.2552378000000002,3.93086968,-32.778404040000005,12.261006259999998,-1.7796993799999998,0.26664593200000003,0.40722925760000006,0.23077075560000004,-0.4436756744,-0.418236843256
04:38:28,-1.02751751,0.02752913500000001,-1.556900375,0.475250685,-0.503981595,-0.045753865,0.2372453250000004,3.920975345,-32.773918035,12.346154102499998,-1.7896244074999998,0.26693943675000004,0.41018761290000005,0.2321984224,-0.44424992010000003,-0.420393624099
04:38:28,-1.03395158,0.026603830000000023,-1.5650677499999999,0.47790873,-0.50486051,-0.04577517,0.2192528500000006,3.91108101,-32.769432030000004,12.431301944999998,-1.7995494349999999,0.26723294150000004,0.41314596820000005,0.2336260892,-0.4448241658,-0.422550404942
04:38:28,-1.0403856500000002,0.025678525000000008,-1.5732351249999998,0.480566775,-0.505739425,-0.045796474999999996,0.20126037500000038,3.901186675,-32.764946025,12.516449787500001,-1.8094744624999999,0.26752644625,0.41610432350000004,0.235053756,-0.44539841150000004,-0.42470718578500005
04:38:28,-1.0468197200000002,0.02475322000000002,-1.5814024999999998,0.48322482,-0.50661834,-0.04581778,0.1832679000000006,3.8912923399999997,-32.760460020000004,12.60159763,-1.81939949,0.267819951,0.41906267880000003,0.2364814228,-0.4459726572,-0.426863966628
04:38:28,-1.05325379,0.023827915000000033,-1.5895698749999998,0.485882865,-0.507497255,-0.045839085,0.16527542500000036,3.881398005,-32.755974015,12.6867454725,-1.8293245175,0.26811345575,0.4220210341,0.2379090896,-0.4465469029,-0.429020747471
04:38:28,-1.0596878600000001,0.022902610000000018,-1.5977372499999998,0.48854091,-0.50837617,-0.04586039,0.14728295000000058,3.87150367,-32.75148801,12.771893315,-1.839249545,0.2684069605,0.4249793894,0.23933675640000002,-0.4471211486,-0.431177528314
04:38:28,-1.0661219300000002,0.02197730500000003,-1.6059046249999998,0.491198955,-0.5092550849999999,-0.045881695,0.12929047500000035,3.861609335,-32.747002005,12.8570411575,-1.8491745724999997,0.26870046525,0.4279377447,0.24076442320000002,-0.44769539430000005,-0.43333430915700005
04:38:29,-1.072556,0.021052,-1.614072,0.493857,-0.510134,-0.045903,0.111298,3.851715,-32.742516,12.942189,-1.8590996,0.26899397,0.4308961,0.24219209,-0.44826964,-0.43549109
04:38:29,-1.0669747900000002,0.021010985000000003,-1.6075144799999999,0.49191274,-0.507113735,-0.0457432,0.10368684,3.83131339,-32.739920325,12.858783571,-1.851127857,0.26755701968,0.42800480675,0.2411478715,-0.44558747575,-0.433818492225
04:38:29,-1.06139358,0.02096997,-1.60095696,0.48996848,-0.5040934699999999,-0.045583399999999996,0.09607568,3.81091178,-32.737324650000005,12.775378142000001,-1.843156114,0.26612006936000004,0.4251135135,0.240103653,-0.4429053115,-0.43214589445
04:38:29,-1.0558123700000002,0.020928955000000003,-1.59439944,0.48802422,-0.501073205,-0.0454236,0.08846451999999999,3.79051017,-32.734728975,12.691972713,-1.835184371,0.26468311904,0.42222222025,0.2390594345,-0.44022314725,-0.430473296675
04:38:29,-1.05023116,0.02088794,-1.58784192,0.48607996,-0.49805294,-0.0452638,0.08085336,3.77010856,-32.7321333,12.608567284000001,-1.827212628,0.26324616872,0.419330927,0.238015216,-0.43754098300000005,-0.4288006989
04:38:29,-1.0446499500000002,0.020846925000000002,-1.5812844,0.4841357,-0.495032675,-0.045104,0.07324220000000001,3.74970695,-32.729537625,12.525161855,-1.819240885,0.26180921840000004,0.41643963375,0.2369709975,-0.43485881875000004,-0.42712810112500005
04:38:29,-1.03906874,0.02080591,-1.57472688,0.48219143999999997,-0.49201240999999996,-0.0449442,0.06563104,3.72930534,-32.726941950000004,12.441756426000001,-1.811269142,0.26037226808,0.4135483405,0.235926779,-0.43217665450000003,-0.42545550335000004
04:38:29,-1.0334875300000002,0.020764895000000002,-1.56816936,0.48024718,-0.488992145,-0.0447844,0.05801988,3.70890373,-32.724346275,12.358350997,-1.8032973989999999,0.25893531776,0.41065704725,0.2348825605,-0.42949449025,-0.42378290557500004
04:38:29,-1.02790632,0.02072388,-1.5616118399999999,0.47830291999999996,-0.48597187999999997,-0.0446246,0.050408720000000004,3.68850212,-32.7217506,12.274945568000001,-1.795325656,0.25749836744000004,0.407765754,0.233838342,-0.426812326,-0.42211030780000003
04:38:29,-1.0223251100000001,0.020682865,-1.55505432,0.47635866,-0.482951615,-0.0444648,0.04279756,3.66810051,-32.719154925000005,12.191540139,-1.787353913,0.25606141712,0.40487446075,0.2327941235,-0.42413016175,-0.420437710025
04:38:29,-1.0167439,0.02064185,-1.5484968,0.4744144,-0.47993135,-0.044305,0.03518640000000001,3.6476989,-32.71655925,12.108134710000002,-1.7793821699999999,0.2546244668,0.4019831675,0.231749905,-0.4214479975,-0.41876511225
04:38:29,-1.0111626900000001,0.020600835,-1.54193928,0.47247014,-0.47691108499999996,-0.0441452,0.027575240000000015,3.62729729,-32.713963575,12.024729281,-1.771410427,0.25318751648000004,0.39909187425000003,0.2307056865,-0.41876583325,-0.417092514475
04:38:29,-1.00558148,0.02055982,-1.53538176,0.47052588,-0.47389082,-0.0439854,0.01996408000000001,3.60689568,-32.7113679,11.941323852,-1.763438684,0.25175056616,0.396200581,0.229661468,-0.41608366900000004,-0.4154199167
04:38:29,-1.0000002700000001,0.020518805,-1.52882424,0.46858162,-0.47087055499999997,-0.0438256,0.012352920000000003,3.58649407,-32.708772225000004,11.857918423000001,-1.755466941,0.25031361584,0.39330928775,0.2286172495,-0.41340150475000004,-0.41374731892500005
04:38:29,-0.99441906,0.020477790000000003,-1.52226672,0.46663736,-0.46785029,-0.0436658,0.0047417600000000115,3.56609246,-32.70617655,11.774512994,-1.747495198,0.24887666552000004,0.39041799450000003,0.227573031,-0.41071934050000003,-0.41207472115000005
04:38:29,-0.98883785,0.020436775,-1.5157091999999999,0.46469309999999997,-0.464830025,-0.043505999999999996,-0.0028693999999999803,3.54569085,-32.703580875,11.691107565000001,-1.739523455,0.24743971520000002,0.38752670125,0.2265288125,-0.40803717625,-0.41040212337500004
04:38:29,-0.98325664,0.020395760000000002,-1.50915168,0.46274884,-0.46180975999999996,-0.0433462,-0.010480559999999986,3.52528924,-32.700985200000005,11.607702136,-1.731551712,0.24600276488000003,0.384635408,0.225484594,-0.405355012,-0.40872952560000003
04:38:29,-0.97767543,0.020354745,-1.50259416,0.46080458,-0.458789495,-0.0431864,-0.01809171999999999,3.50488763,-32.698389525,11.524296707000001,-1.723579969,0.24456581456000004,0.38174411475000003,0.2244403755,-0.40267284775,-0.407056927825
04:38:29,-0.97209422,0.020313730000000002,-1.49603664,0.45886032,-0.45576922999999997,-0.0430266,-0.025702879999999997,3.48448602,-32.69579385,11.440891278,-1.715608226,0.24312886424000002,0.3788528215,0.223396157,-0.3999906835,-0.40538433005
04:38:29,-0.9665130100000001,0.020272715,-1.48947912,0.45691606,-0.452748965,-0.0428668,-0.033314039999999975,3.46408441,-32.693198175,11.357485849000001,-1.707636483,0.24169191392000003,0.37596152825,0.2223519385,-0.39730851925,-0.403711732275
04:38:29,-0.9609318,0.020231700000000002,-1.4829216,0.4549718,-0.4497287,-0.042707,-0.04092519999999998,3.4436828,-32.690602500000004,11.27408042,-1.69966474,0.24025496360000004,0.37307023500000003,0.22130771999999999,-0.39462635500000004,-0.4020391345
04:38:29,-0.9553505900000001,0.020190685,-1.47636408,0.45302754,-0.44670843499999996,-0.0425472,-0.04853635999999999,3.42328119,-32.688006825,11.190674991000002,-1.691692997,0.23881801328000002,0.37017894175,0.22026350150000001,-0.39194419075000003,-0.400366536725
04:38:29,-0.94976938,0.02014967,-1.4698065599999999,0.45108328,-0.44368817,-0.0423874,-0.056147519999999965,3.40287958,-32.68541115,11.107269562,-1.683721254,0.23738106296000003,0.3672876485,0.219219283,-0.3892620265,-0.39869393895000005
04:38:29,-0.9441881700000001,0.020108655,-1.46324904,0.44913902,-0.44066790499999997,-0.0422276,-0.06375867999999997,3.38247797,-32.682815475000005,11.023864133,-1.675749511,0.23594411264000004,0.36439635525,0.21817506450000002,-0.38657986225,-0.39702134117500004
04:38:29,-0.93860696,0.02006764,-1.45669152,0.44719475999999997,-0.43764764,-0.0420678,-0.07136983999999998,3.36207636,-32.6802198,10.940458704000001,-1.6677777679999999,0.23450716232000002,0.361505062,0.217130846,-0.383897698,-0.39534874340000004
04:38:29,-0.9330257500000001,0.020026625,-1.450134,0.4452505,-0.434627375,-0.041908,-0.07898099999999998,3.34167475,-32.677624125,10.857053275,-1.659806025,0.23307021200000003,0.35861376875,0.2160866275,-0.38121553375,-0.39367614562500003
04:38:29,-0.92744454,0.01998561,-1.44357648,0.44330623999999996,-0.43160710999999996,-0.0417482,-0.08659215999999999,3.3212731399999997,-32.67502845,10.773647846000001,-1.651834282,0.23163326168000004,0.3557224755,0.215042409,-0.37853336950000005,-0.39200354785
04:38:29,-0.9218633300000001,0.019944595000000002,-1.43701896,0.44136198,-0.428586845,-0.0415884,-0.09420331999999997,3.30087153,-32.672432775000004,10.690242417,-1.643862539,0.23019631136000002,0.35283118225,0.2139981905,-0.37585120525000004,-0.390330950075
04:38:29,-0.9162821200000001,0.01990358,-1.43046144,0.43941772,-0.42556657999999997,-0.041428599999999996,-0.10181447999999997,3.28046992,-32.6698371,10.606836988000001,-1.635890796,0.22875936104000003,0.349939889,0.212953972,-0.37316904100000003,-0.3886583523
04:38:29,-0.9107009100000001,0.019862565000000002,-1.4239039199999999,0.43747346,-0.42254631499999995,-0.0412688,-0.10942563999999998,3.26006831,-32.667241425,10.523431559,-1.627919053,0.22732241072000003,0.34704859575,0.2119097535,-0.37048687675,-0.386985754525
04:38:29,-0.9051197000000001,0.01982155,-1.4173464,0.4355292,-0.41952605,-0.041109,-0.11703679999999995,3.2396667,-32.664645750000005,10.44002613,-1.61994731,0.22588546040000002,0.3441573025,0.210865535,-0.3678047125,-0.38531315675
04:38:29,-0.8995384900000001,0.019780535000000002,-1.41078888,0.43358494,-0.41650578499999996,-0.0409492,-0.12464795999999996,3.21926509,-32.662050075,10.356620701,-1.611975567,0.22444851008000002,0.34126600925,0.2098213165,-0.36512254825,-0.38364055897500005
04:38:29,-0.8939572800000001,0.01973952,-1.40423136,0.43164068,-0.41348552,-0.040789399999999996,-0.13225911999999995,3.19886348,-32.6594544,10.273215272000002,-1.6040038239999999,0.22301155976000003,0.338374716,0.208777098,-0.362440384,-0.38196796120000004
04:38:29,-0.8883760700000001,0.019698505,-1.39767384,0.42969641999999997,-0.410465255,-0.0406296,-0.13987027999999996,3.17846187,-32.656858725,10.189809843,-1.596032081,0.22157460944000001,0.33548342275,0.2077328795,-0.35975821975,-0.38029536342500003
04:38:29,-0.8827948600000001,0.01965749,-1.39111632,0.42775216,-0.40744499,-0.0404698,-0.14748143999999996,3.15806026,-32.654263050000004,10.106404414,-1.588060338,0.22013765912000002,0.3325921295,0.206688661,-0.3570760555,-0.37862276565
04:38:29,-0.8772136500000001,0.019616475,-1.3845588,0.4258079,-0.404424725,-0.04031,-0.15509259999999997,3.13765865,-32.651667375,10.022998985000001,-1.5800885949999999,0.21870070880000003,0.32970083625,0.2056444425,-0.35439389125000004,-0.376950167875
04:38:29,-0.8716324400000001,0.01957546,-1.3780012799999999,0.42386364,-0.40140445999999996,-0.0401502,-0.16270375999999998,3.11725704,-32.6490717,9.939593556,-1.572116852,0.21726375848,0.326809543,0.204600224,-0.35171172700000003,-0.3752775701
04:38:29,-0.8660512300000001,0.019534445,-1.37144376,0.42191938,-0.398384195,-0.039990399999999995,-0.17031491999999993,3.0968554299999997,-32.646476025000005,9.856188127000001,-1.564145109,0.21582680816000002,0.32391824975,0.2035560055,-0.34902956275,-0.373604972325
04:38:29,-0.8604700200000001,0.01949343,-1.36488624,0.41997512,-0.39536393,-0.0398306,-0.17792607999999993,3.0764538200000002,-32.64388035,9.772782698,-1.556173366,0.21438985784000003,0.3210269565,0.202511787,-0.3463473985,-0.37193237455
04:38:29,-0.85488881,0.019452415,-1.3583287199999998,0.41803086,-0.39234366499999995,-0.0396708,-0.18553723999999994,3.05605221,-32.641284675,9.689377269000001,-1.548201623,0.21295290752,0.31813566325,0.2014675685,-0.34366523425,-0.370259776775
04:38:29,-0.8493076,0.019411400000000002,-1.3517712,0.4160866,-0.3893234,-0.039511,-0.19314839999999994,3.0356506,-32.638689,9.60597184,-1.54022988,0.21151595720000002,0.31524437,0.20042335,-0.34098307,-0.36858717900000004
04:38:29,-0.84372639,0.019370385,-1.34521368,0.41414234,-0.38630313499999996,-0.0393512,-0.20075955999999995,3.01524899,-32.636093325000004,9.522566411,-1.532258137,0.21007900688000003,0.31235307675,0.1993791315,-0.33830090575000005,-0.36691458122500004
04:38:29,-0.83814518,0.019329370000000002,-1.33865616,0.41219808,-0.38328286999999994,-0.0391914,-0.20837071999999995,2.99484738,-32.63349765,9.439160982,-1.524286394,0.20864205656,0.3094617835,0.198334913,-0.33561874150000004,-0.36524198345000003
04:38:29,-0.83256397,0.019288355,-1.33209864,0.41025382,-0.380262605,-0.0390316,-0.21598187999999996,2.97444577,-32.630901975,9.355755553000002,-1.516314651,0.20720510624000002,0.30657049025,0.1972906945,-0.33293657725000003,-0.363569385675
04:38:29,-0.82698276,0.01924734,-1.32554112,0.40830955999999996,-0.37724234,-0.0388718,-0.2235930399999999,2.95404416,-32.628306300000006,9.272350124,-1.508342908,0.20576815592000003,0.303679197,0.196246476,-0.330254413,-0.3618967879
04:38:29,-0.82140155,0.019206325,-1.3189836,0.4063653,-0.374222075,-0.038711999999999996,-0.23120419999999992,2.93364255,-32.625710625,9.188944695,-1.500371165,0.2043312056,0.30078790375,0.1952022575,-0.32757224875,-0.360224190125
04:38:29,-0.81582034,0.01916531,-1.3124260799999998,0.40442104,-0.37120180999999997,-0.0385522,-0.23881535999999992,2.91324094,-32.62311495,9.105539266000001,-1.492399422,0.20289425528000005,0.29789661050000005,0.194158039,-0.3248900845,-0.35855159235
04:38:29,-0.81023913,0.019124295,-1.30586856,0.40247678,-0.368181545,-0.0383924,-0.24642651999999993,2.89283933,-32.620519275,9.022133837,-1.484427679,0.20145730496000003,0.29500531725,0.1931138205,-0.32220792025,-0.356878994575
04:38:29,-0.80465792,0.01908328,-1.29931104,0.40053252,-0.36516128,-0.0382326,-0.25403767999999993,2.8724377199999998,-32.617923600000005,8.938728408000001,-1.476455936,0.20002035464,0.29211402399999997,0.192069602,-0.319525756,-0.3552063968
04:38:29,-0.79907671,0.019042265,-1.29275352,0.39858825999999997,-0.36214101499999996,-0.0380728,-0.26164883999999994,2.8520361100000002,-32.615327925,8.855322979,-1.468484193,0.19858340432000005,0.28922273075000005,0.1910253835,-0.31684359175,-0.35353379902500004
04:38:29,-0.7934955,0.01900125,-1.286196,0.396644,-0.35912075,-0.037913,-0.26925999999999994,2.8316345,-32.61273225,8.771917550000001,-1.46051245,0.19714645400000003,0.2863314375,0.189981165,-0.3141614275,-0.35186120125000003
04:38:29,-0.78791429,0.018960235,-1.27963848,0.39469973999999997,-0.356100485,-0.0377532,-0.27687115999999995,2.81123289,-32.610136575000006,8.688512121,-1.452540707,0.19570950368,0.28344014424999997,0.1889369465,-0.31147926325,-0.350188603475
04:38:29,-0.78233308,0.01891922,-1.27308096,0.39275548,-0.35308021999999994,-0.0375934,-0.28448231999999996,2.79083128,-32.607540900000004,8.605106692,-1.444568964,0.19427255336000004,0.28054885100000004,0.187892728,-0.308797099,-0.3485160057
04:38:29,-0.77675187,0.018878205000000002,-1.2665234399999998,0.39081122,-0.350059955,-0.0374336,-0.2920934799999999,2.77042967,-32.604945225,8.521701263,-1.436597221,0.19283560304000003,0.27765755775,0.1868485095,-0.30611493475,-0.346843407925
04:38:29,-0.7711706600000001,0.01883719,-1.25996592,0.38886696,-0.34703969,-0.037273799999999996,-0.2997046399999999,2.75002806,-32.60234955,8.438295834000002,-1.4286254779999998,0.19139865272,0.27476626449999997,0.185804291,-0.3034327705,-0.34517081015
04:38:29,-0.76558945,0.018796175000000002,-1.2534084,0.3869227,-0.344019425,-0.037114,-0.3073157999999999,2.72962645,-32.599753875000005,8.354890405,-1.420653735,0.18996170240000004,0.27187497125000004,0.1847600725,-0.30075060625000005,-0.343498212375
04:38:29,-0.7600082400000001,0.01875516,-1.24685088,0.38497844,-0.34099915999999997,-0.0369542,-0.3149269599999999,2.70922484,-32.5971582,8.271484976,-1.412681992,0.18852475208000002,0.268983678,0.183715854,-0.29806844200000004,-0.3418256146
04:38:29,-0.75442703,0.018714145,-1.24029336,0.38303418,-0.337978895,-0.0367944,-0.32253811999999993,2.6888232299999997,-32.594562525,8.188079547000001,-1.4047102489999999,0.18708780176,0.26609238474999997,0.1826716355,-0.29538627775000004,-0.340153016825
04:38:29,-0.7488458200000001,0.01867313,-1.23373584,0.38108991999999997,-0.33495863,-0.036634599999999996,-0.33014927999999993,2.66842162,-32.591966850000006,8.104674118000002,-1.396738506,0.18565085144000004,0.26320109150000004,0.181627417,-0.29270411350000003,-0.33848041905000004
04:38:29,-0.74326461,0.018632115,-1.22717832,0.37914566,-0.33193836499999996,-0.0364748,-0.33776043999999994,2.6480200099999998,-32.589371175000004,8.021268689,-1.388766763,0.18421390112000002,0.26030979825,0.1805831985,-0.29002194925,-0.33680782127500003
04:38:29,-0.7376834000000001,0.0185911,-1.2206207999999998,0.3772014,-0.3289181,-0.036315,-0.3453715999999999,2.6276184000000002,-32.5867755,7.93786326,-1.3807950199999999,0.18277695080000003,0.257418505,0.17953898000000001,-0.287339785,-0.3351352235
04:38:29,-0.73210219,0.018550085,-1.21406328,0.37525714,-0.325897835,-0.0361552,-0.3529827599999999,2.60721679,-32.584179825,7.854457831,-1.372823277,0.18134000048000004,0.25452721175000004,0.1784947615,-0.28465762075,-0.333462625725
04:38:29,-0.7265209800000001,0.01850907,-1.20750576,0.37331288,-0.32287756999999995,-0.0359954,-0.3605939199999999,2.58681518,-32.581584150000005,7.7710524020000005,-1.364851534,0.17990305016000002,0.2516359185,0.17745054300000002,-0.2819754565,-0.33179002795
04:38:29,-0.72093977,0.018468055,-1.20094824,0.37136862,-0.319857305,-0.035835599999999995,-0.3682050799999999,2.56641357,-32.578988475,7.6876469730000005,-1.356879791,0.17846609984000003,0.24874462525000002,0.1764063245,-0.27929329225,-0.330117430175
04:38:29,-0.7153585600000001,0.01842704,-1.19439072,0.36942436,-0.31683704,-0.0356758,-0.3758162399999999,2.54601196,-32.5763928,7.604241544000001,-1.348908048,0.17702914952000004,0.245853332,0.17536210600000002,-0.276611128,-0.3284448324
04:38:29,-0.70977735,0.018386025,-1.1878332,0.3674801,-0.313816775,-0.035516,-0.3834273999999999,2.52561035,-32.573797125000006,7.520836115000001,-1.340936305,0.17559219920000002,0.24296203875,0.1743178875,-0.27392896375,-0.326772234625
