Timestamp,linacce_x,linacce_y,linacce_z,gyro_x,gyro_y,gyro_z,X-magnetometer,Y-magnetometer,Z-magnetometer,Yaw, worldXAccel,worldYAccel,worldZAccel,worldXgyro,worldYgyro,worldZgyro
01:22:35,0.052904,0.330822,-0.344439,-0.090448,-0.072364,-0.016533,-3.925098,17.375408,-43.037727,8.325356,-0.249868,0.348081,-0.28499994,-0.066247225,-0.07483182,0.066758625
01:22:35,0.052767015,0.328354895,-0.34256561,-0.09051192,-0.07147976,-0.016644859999999997,-3.9224568950000003,17.372776565,-43.037528945,8.332810299999998,-0.24836647338,0.3455289094,-0.28347213622,-0.06644502742500001,-0.07395691519999999,0.066610968295
01:22:35,0.05263003,0.32588779,-0.34069222,-0.09057584,-0.07059552,-0.01675672,-3.9198157900000004,17.37014513,-43.03733089,8.3402646,-0.24686494676,0.34297681879999997,-0.28194433244,-0.06664282985,-0.0730820104,0.06646331159
01:22:35,0.052493045,0.323420685,-0.33881883,-0.09063976,-0.06971128,-0.016868579999999998,-3.917174685,17.367513695,-43.037132834999994,8.347718899999998,-0.24536342014,0.34042472819999997,-0.28041652866,-0.066840632275,-0.07220710559999999,0.066315654885
01:22:35,0.05235606,0.32095358,-0.33694544,-0.09070368,-0.06882703999999999,-0.01698044,-3.91453358,17.36488226,-43.036934779999996,8.3551732,-0.24386189352,0.33787263759999997,-0.27888872488,-0.06703843470000001,-0.0713322008,0.06616799818
01:22:35,0.052219075,0.318486475,-0.33507205,-0.0907676,-0.0679428,-0.017092299999999998,-3.911892475,17.362250825,-43.036736725,8.362627499999999,-0.2423603669,0.33532054699999997,-0.2773609211,-0.067236237125,-0.07045729599999999,0.06602034147500001
01:22:35,0.05208209,0.31601937,-0.33319866,-0.09083152,-0.06705856,-0.01720416,-3.9092513700000002,17.35961939,-43.03653867,8.3700818,-0.24085884028000001,0.33276845639999997,-0.27583311732,-0.06743403955,-0.0695823912,0.06587268477
01:22:35,0.051945105,0.313552265,-0.33132527,-0.09089544,-0.06617432,-0.017316019999999998,-3.9066102650000003,17.356987955,-43.036340615,8.377536099999999,-0.23935731366000002,0.33021636579999997,-0.27430531354,-0.06763184197500001,-0.06870748639999999,0.065725028065
01:22:35,0.05180812,0.31108516,-0.32945188,-0.09095936,-0.06529008,-0.01742788,-3.9039691600000004,17.35435652,-43.036142559999995,8.3849904,-0.23785578704000002,0.32766427519999997,-0.27277750976,-0.0678296444,-0.0678325816,0.06557737136
01:22:35,0.051671135,0.308618055,-0.32757849,-0.09102328,-0.06440583999999999,-0.017539739999999998,-3.901328055,17.351725085,-43.035944504999996,8.392444699999999,-0.23635426042000002,0.32511218459999996,-0.27124970598000003,-0.068027446825,-0.06695767679999999,0.065429714655
01:22:35,0.05153415,0.30615095000000003,-0.32570509999999997,-0.09108720000000001,-0.0635216,-0.0176516,-3.89868695,17.34909365,-43.03574645,8.399899,-0.23485273380000002,0.32256009399999996,-0.26972190220000003,-0.06822524925000001,-0.066082772,0.06528205795
01:22:35,0.051397165,0.303683845,-0.32383171,-0.09115112,-0.06263736,-0.01776346,-3.896045845,17.346462215,-43.035548395,8.407353299999999,-0.23335120718000002,0.32000800339999996,-0.26819409842,-0.06842305167500001,-0.06520786719999999,0.065134401245
01:22:35,0.05126018,0.30121674,-0.32195832,-0.09121504,-0.061753119999999995,-0.01787532,-3.8934047400000003,17.34383078,-43.035350339999994,8.4148076,-0.23184968056,0.31745591279999996,-0.26666629464,-0.0686208541,-0.0643329624,0.06498674454
01:22:35,0.051123194999999996,0.298749635,-0.32008493,-0.09127896,-0.06086888,-0.01798718,-3.8907636350000003,17.341199345,-43.035152284999995,8.422261899999999,-0.23034815394000002,0.31490382219999996,-0.26513849086,-0.06881865652500001,-0.06345805759999999,0.064839087835
01:22:35,0.05098621,0.29628253,-0.31821154,-0.09134288,-0.05998464,-0.01809904,-3.88812253,17.338567910000002,-43.03495423,8.4297162,-0.22884662732,0.31235173159999996,-0.26361068708,-0.06901645895000001,-0.06258315279999999,0.06469143113
01:22:35,0.050849225,0.293815425,-0.31633815,-0.0914068,-0.0591004,-0.0182109,-3.885481425,17.335936475,-43.034756175,8.437170499999999,-0.2273451007,0.30979964099999996,-0.2620828833,-0.069214261375,-0.06170824799999999,0.064543774425
01:22:35,0.05071224,0.29134832,-0.31446476,-0.09147072,-0.058216159999999996,-0.01832276,-3.88284032,17.33330504,-43.03455812,8.4446248,-0.22584357408,0.30724755039999996,-0.26055507952,-0.0694120638,-0.060833343199999994,0.06439611772
01:22:35,0.050575255,0.288881215,-0.31259137,-0.09153464,-0.057331919999999995,-0.01843462,-3.880199215,17.330673605,-43.034360064999994,8.452079099999999,-0.22434204746,0.30469545979999996,-0.25902727574,-0.06960986622500001,-0.059958438399999994,0.06424846101500001
01:22:35,0.05043827,0.28641411,-0.31071798,-0.09159856,-0.05644768,-0.01854648,-3.8775581100000003,17.32804217,-43.034162009999996,8.4595334,-0.22284052084,0.30214336919999996,-0.25749947196,-0.06980766865,-0.059083533599999995,0.06410080431
01:22:35,0.050301285,0.28394700500000003,-0.30884459,-0.09166248,-0.05556344,-0.01865834,-3.8749170050000004,17.325410735000002,-43.033963955,8.466987699999999,-0.22133899422,0.2995912786,-0.25597166818,-0.070005471075,-0.058208628799999995,0.063953147605
01:22:35,0.0501643,0.2814799,-0.3069712,-0.0917264,-0.0546792,-0.0187702,-3.8722759,17.3227793,-43.0337659,8.474442,-0.2198374676,0.29703918799999995,-0.2544438644,-0.07020327350000001,-0.057333723999999996,0.0638054909
01:22:35,0.050027315,0.279012795,-0.30509781,-0.09179032,-0.05379496,-0.01888206,-3.869634795,17.320147865,-43.033567845,8.481896299999999,-0.21833594098,0.2944870974,-0.25291606062,-0.070401075925,-0.056458819199999996,0.063657834195
01:22:35,0.04989033,0.27654569,-0.30322442,-0.09185424,-0.052910719999999994,-0.01899392,-3.86699369,17.31751643,-43.033369789999995,8.4893506,-0.21683441436,0.29193500679999995,-0.25138825684,-0.07059887835,-0.05558391439999999,0.06351017749
01:22:35,0.049753345,0.274078585,-0.30135103,-0.09191816,-0.05202648,-0.01910578,-3.8643525850000002,17.314884995,-43.033171734999996,8.496804899999999,-0.21533288774,0.2893829162,-0.24986045306000002,-0.07079668077500001,-0.0547090096,0.063362520785
01:22:35,0.04961636,0.27161148,-0.29947764,-0.09198208000000001,-0.05114224,-0.01921764,-3.8617114800000003,17.31225356,-43.03297368,8.5042592,-0.21383136112,0.28683082559999995,-0.24833264928,-0.0709944832,-0.05383410479999999,0.06321486408
01:22:35,0.049479375,0.269144375,-0.29760425,-0.092046,-0.050258,-0.0193295,-3.859070375,17.309622125,-43.032775625,8.511713499999999,-0.2123298345,0.284278735,-0.2468048455,-0.071192285625,-0.0529592,0.063067207375
01:22:35,0.04934239,0.26667727,-0.29573086,-0.09210992,-0.04937376,-0.019441359999999998,-3.85642927,17.30699069,-43.03257757,8.5191678,-0.21082830788,0.28172664439999995,-0.24527704172,-0.07139008805000001,-0.05208429519999999,0.06291955067
01:22:35,0.049205405,0.264210165,-0.29385747,-0.09217384,-0.048489519999999994,-0.01955322,-3.853788165,17.304359255,-43.032379514999995,8.526622099999999,-0.20932678126,0.2791745538,-0.24374923794,-0.071587890475,-0.0512093904,0.062771893965
01:22:35,0.04906842,0.26174306,-0.29198408,-0.09223776,-0.04760528,-0.01966508,-3.85114706,17.30172782,-43.03218146,8.5340764,-0.20782525464,0.2766224632,-0.24222143416,-0.0717856929,-0.05033448559999999,0.06262423726
01:22:35,0.048931435,0.259275955,-0.29011069,-0.09230168,-0.04672104,-0.01977694,-3.8485059550000003,17.299096385,-43.031983405,8.5415307,-0.20632372802,0.2740703726,-0.24069363038000002,-0.07198349532500001,-0.04945958079999999,0.062476580555
01:22:35,0.04879445,0.25680885,-0.2882373,-0.0923656,-0.0458368,-0.019888799999999998,-3.8458648500000003,17.29646495,-43.03178535,8.548985,-0.20482220140000001,0.271518282,-0.23916582660000002,-0.07218129775000001,-0.04858467599999999,0.06232892385
01:22:35,0.048657465,0.254341745,-0.28636391,-0.09242952,-0.04495256,-0.02000066,-3.843223745,17.293833515,-43.031587294999994,8.5564393,-0.20332067478000002,0.2689661914,-0.23763802282000002,-0.072379100175,-0.047709771199999994,0.062181267145
01:22:35,0.04852048,0.25187464000000004,-0.28449051999999997,-0.09249344,-0.044068319999999994,-0.02011252,-3.84058264,17.29120208,-43.031389239999996,8.5638936,-0.20181914816000002,0.2664141008,-0.23611021904,-0.0725769026,-0.046834866399999994,0.06203361044
01:22:35,0.048383495,0.249407535,-0.28261713,-0.09255736,-0.04318408,-0.02022438,-3.837941535,17.288570645,-43.031191185,8.5713479,-0.20031762154000002,0.2638620102,-0.23458241526,-0.07277470502500001,-0.045959961599999995,0.061885953735
01:22:35,0.04824651,0.24694043000000002,-0.28074374,-0.09262128,-0.04229984,-0.02033624,-3.83530043,17.28593921,-43.03099313,8.5788022,-0.19881609492000002,0.2613099196,-0.23305461148,-0.07297250745,-0.045085056799999995,0.06173829703
01:22:35,0.048109525,0.24447332500000002,-0.27887035,-0.0926852,-0.0414156,-0.0204481,-3.8326593250000003,17.283307775,-43.030795075,8.5862565,-0.19731456830000002,0.258757829,-0.2315268077,-0.073170309875,-0.044210151999999996,0.061590640325
01:22:35,0.04797254,0.24200622,-0.27699696,-0.09274912,-0.040531359999999995,-0.02055996,-3.8300182200000004,17.28067634,-43.030597019999995,8.5937108,-0.19581304168000002,0.2562057384,-0.22999900392,-0.07336811230000001,-0.043335247199999996,0.06144298362
01:22:35,0.047835555,0.23953911500000002,-0.27512357,-0.09281304,-0.03964712,-0.02067182,-3.827377115,17.278044905,-43.030398964999996,8.6011651,-0.19431151506,0.2536536478,-0.22847120014,-0.073565914725,-0.0424603424,0.061295326915000004
01:22:35,0.047698569999999996,0.23707201,-0.27325018,-0.09287696000000001,-0.03876288,-0.02078368,-3.82473601,17.27541347,-43.03020091,8.6086194,-0.19280998844000002,0.2511015572,-0.22694339636,-0.07376371715,-0.0415854376,0.061147670210000005
01:22:35,0.047561584999999997,0.23460490500000003,-0.27137679,-0.09294088,-0.03787864,-0.02089554,-3.822094905,17.272782035,-43.030002855,8.6160737,-0.19130846182,0.2485494666,-0.22541559258,-0.07396151957500001,-0.0407105328,0.061000013505
01:22:35,0.0474246,0.2321378,-0.2695034,-0.0930048,-0.0369944,-0.0210074,-3.8194538000000002,17.2701506,-43.0298048,8.623528,-0.18980693520000003,0.245997376,-0.22388778880000001,-0.074159322,-0.039835628,0.0608523568
01:22:35,0.047287615,0.229670695,-0.26763001,-0.09306872000000001,-0.036110159999999995,-0.02111926,-3.8168126950000003,17.267519165,-43.029606744999995,8.6309823,-0.18830540858,0.2434452854,-0.22235998502,-0.074357124425,-0.03896072319999999,0.060704700095
01:22:35,0.04715063,0.22720359,-0.26575662,-0.09313264,-0.03522592,-0.02123112,-3.81417159,17.26488773,-43.02940869,8.6384366,-0.18680388196000003,0.2408931948,-0.22083218124,-0.07455492685000001,-0.03808581839999999,0.06055704339
01:22:35,0.047013645,0.224736485,-0.26388323,-0.09319656,-0.03434168,-0.02134298,-3.811530485,17.262256295,-43.029210635,8.6458909,-0.18530235534,0.2383411042,-0.21930437746,-0.07475272927500001,-0.03721091359999999,0.060409386685000004
01:22:35,0.04687666,0.22226938000000002,-0.26200984,-0.09326048,-0.03345744,-0.02145484,-3.80888938,17.25962486,-43.02901258,8.6533452,-0.18380082872000003,0.23578901359999999,-0.21777657368,-0.0749505317,-0.03633600879999999,0.06026172998
01:22:35,0.046739675,0.21980227500000002,-0.26013644999999996,-0.0933244,-0.0325732,-0.0215667,-3.806248275,17.256993425,-43.028814525,8.6607995,-0.1822993021,0.23323692299999998,-0.21624876990000003,-0.07514833412500001,-0.03546110399999999,0.060114073275
01:22:35,0.04660269,0.21733517000000002,-0.25826306,-0.09338832,-0.031688959999999995,-0.02167856,-3.8036071700000003,17.25436199,-43.028616469999996,8.6682538,-0.18079777548,0.23068483239999998,-0.21472096612000002,-0.07534613655,-0.034586199199999994,0.05996641657
01:22:35,0.046465704999999996,0.214868065,-0.25638967,-0.09345224,-0.03080472,-0.021790419999999998,-3.8009660650000003,17.251730555,-43.028418415,8.6757081,-0.17929624886,0.22813274179999998,-0.21319316234000002,-0.075543938975,-0.033711294399999994,0.059818759865
01:22:35,0.04632872,0.21240096000000003,-0.25451628,-0.09351616,-0.02992048,-0.02190228,-3.79832496,17.24909912,-43.02822036,8.6831624,-0.17779472224,0.22558065119999998,-0.21166535856000002,-0.0757417414,-0.032836389599999995,0.05967110316
01:22:35,0.046191735,0.209933855,-0.25264289,-0.09358008,-0.029036239999999998,-0.02201414,-3.795683855,17.246467685,-43.028022305,8.6906167,-0.17629319562,0.22302856059999998,-0.21013755478,-0.07593954382500001,-0.031961484799999995,0.059523446455000004
01:22:35,0.04605475,0.20746675000000003,-0.2507695,-0.093644,-0.028151999999999996,-0.022126,-3.79304275,17.24383625,-43.027824249999995,8.698070999999999,-0.174791669,0.22047646999999998,-0.208609751,-0.07613734625,-0.031086579999999996,0.05937578975
01:22:35,0.045917765,0.204999645,-0.24889611,-0.09370792,-0.027267759999999995,-0.022237859999999998,-3.790401645,17.241204815,-43.027626194999996,8.7055253,-0.17329014238,0.21792437939999998,-0.20708194722,-0.076335148675,-0.030211675199999996,0.059228133045
01:22:35,0.04578078,0.20253254,-0.24702272,-0.09377184,-0.02638352,-0.02234972,-3.7877605400000003,17.238573380000002,-43.02742814,8.7129796,-0.17178861576,0.21537228879999998,-0.20555414344,-0.07653295110000001,-0.029336770399999997,0.05908047634
01:22:35,0.045643795,0.200065435,-0.24514933,-0.09383576,-0.02549928,-0.022461580000000002,-3.7851194350000004,17.235941945,-43.027230085,8.7204339,-0.17028708914000001,0.21282019819999998,-0.20402633966,-0.076730753525,-0.028461865599999997,0.058932819635
01:22:35,0.04550681,0.19759833000000002,-0.24327594,-0.09389968,-0.024615039999999998,-0.02257344,-3.78247833,17.23331051,-43.02703203,8.727888199999999,-0.16878556252000002,0.2102681076,-0.20249853588,-0.07692855595,-0.027586960799999997,0.05878516293
01:22:35,0.045369825,0.19513122500000002,-0.24140255,-0.09396360000000001,-0.023730799999999996,-0.0226853,-3.779837225,17.230679075,-43.026833974999995,8.7353425,-0.16728403590000002,0.207716017,-0.2009707321,-0.07712635837500001,-0.026712055999999998,0.058637506225
01:22:35,0.045232839999999996,0.19266412000000002,-0.23952916,-0.09402752,-0.022846559999999995,-0.02279716,-3.77719612,17.22804764,-43.02663592,8.742796799999999,-0.16578250928000002,0.2051639264,-0.19944292832,-0.0773241608,-0.02583715119999999,0.05848984952
01:22:35,0.045095855,0.19019701500000002,-0.23765577,-0.09409144,-0.02196232,-0.022909020000000002,-3.7745550150000002,17.225416205000002,-43.026437865,8.7502511,-0.16428098266000002,0.2026118358,-0.19791512454,-0.077521963225,-0.024962246399999992,0.058342192815
01:22:35,0.04495887,0.18772991000000003,-0.23578238,-0.09415536000000001,-0.02107808,-0.02302088,-3.7719139100000003,17.22278477,-43.02623981,8.757705399999999,-0.16277945604,0.2000597452,-0.19638732076,-0.07771976565000001,-0.024087341599999992,0.05819453611
01:22:35,0.044821885,0.185262805,-0.23390898999999998,-0.09421928,-0.020193839999999998,-0.02313274,-3.769272805,17.220153335,-43.026041755,8.7651597,-0.16127792942000002,0.1975076546,-0.19485951698,-0.077917568075,-0.023212436799999993,0.058046879405
01:22:35,0.0446849,0.1827957,-0.2320356,-0.0942832,-0.019309599999999996,-0.0232446,-3.7666317,17.2175219,-43.025843699999996,8.772613999999999,-0.1597764028,0.194955564,-0.1933317132,-0.0781153705,-0.022337531999999993,0.0578992227
01:22:35,0.044547915,0.180328595,-0.23016220999999998,-0.09434712,-0.018425359999999995,-0.02335646,-3.763990595,17.214890465,-43.025645645,8.7800683,-0.15827487618000002,0.1924034734,-0.19180390942,-0.07831317292500001,-0.021462627199999994,0.057751565995000004
01:22:35,0.04441093,0.17786149,-0.22828882,-0.09441104,-0.01754112,-0.02346832,-3.76134949,17.21225903,-43.02544759,8.787522599999999,-0.15677334956,0.1898513828,-0.19027610564000003,-0.07851097535000001,-0.020587722399999994,0.05760390929
01:22:35,0.044273944999999995,0.175394385,-0.22641543,-0.09447496,-0.01665688,-0.02358018,-3.7587083850000003,17.209627595,-43.025249535,8.7949769,-0.15527182294000003,0.1872992922,-0.18874830186000002,-0.078708777775,-0.019712817599999995,0.057456252585
01:22:35,0.04413696,0.17292728000000002,-0.22454204,-0.09453888,-0.015772639999999997,-0.02369204,-3.75606728,17.20699616,-43.02505148,8.8024312,-0.15377029632,0.1847472016,-0.18722049808000002,-0.0789065802,-0.018837912799999995,0.05730859588
01:22:35,0.043999975,0.17046017500000002,-0.22266865,-0.0946028,-0.014888399999999996,-0.0238039,-3.753426175,17.204364725,-43.024853424999996,8.8098855,-0.15226876970000003,0.182195111,-0.18569269430000002,-0.079104382625,-0.017963007999999996,0.057160939175
01:22:35,0.04386299,0.16799307000000002,-0.22079526,-0.09466672,-0.014004159999999995,-0.02391576,-3.75078507,17.20173329,-43.02465537,8.8173398,-0.15076724308,0.1796430204,-0.18416489052,-0.07930218505,-0.017088103199999996,0.05701328247
01:22:35,0.043726005,0.16552596500000002,-0.21892187,-0.09473064,-0.01311992,-0.02402762,-3.748143965,17.199101855,-43.024457315,8.8247941,-0.14926571646000003,0.1770909298,-0.18263708674,-0.079499987475,-0.016213198399999997,0.056865625765
01:22:35,0.04358902,0.16305886000000003,-0.21704848,-0.09479456,-0.012235679999999999,-0.02413948,-3.74550286,17.19647042,-43.02425926,8.8322484,-0.14776418984,0.1745388392,-0.18110928296,-0.07969778990000001,-0.015338293599999997,0.05671796906
01:22:35,0.043452035,0.16059175500000003,-0.21517508999999999,-0.09485848,-0.011351439999999997,-0.02425134,-3.7428617550000003,17.193838985,-43.024061205,8.8397027,-0.14626266322000003,0.1719867486,-0.17958147918,-0.079895592325,-0.014463388799999997,0.056570312355
01:22:35,0.04331505,0.15812465,-0.2133017,-0.0949224,-0.010467199999999996,-0.0243632,-3.74022065,17.19120755,-43.02386315,8.847157,-0.1447611366,0.169434658,-0.1780536754,-0.08009339475,-0.013588483999999998,0.05642265565
01:22:35,0.043178065,0.155657545,-0.21142831,-0.09498632,-0.009582960000000001,-0.02447506,-3.737579545,17.188576115,-43.023665095,8.8546113,-0.14325960998,0.1668825674,-0.17652587162,-0.08029119717500001,-0.012713579199999998,0.056274998945
01:22:35,0.043041079999999995,0.15319044,-0.20955492,-0.09505024000000001,-0.008698719999999993,-0.024586919999999998,-3.73493844,17.18594468,-43.02346704,8.8620656,-0.14175808336,0.16433047679999999,-0.17499806784,-0.0804889996,-0.011838674399999999,0.05612734224
01:22:35,0.042904095,0.150723335,-0.20768153,-0.09511416,-0.007814479999999999,-0.02469878,-3.732297335,17.183313245,-43.023268985,8.8695199,-0.14025655674,0.16177838619999999,-0.17347026406,-0.080686802025,-0.010963769599999992,0.055979685535000004
01:22:35,0.04276711,0.14825623000000002,-0.20580814,-0.09517808,-0.006930240000000004,-0.024810640000000002,-3.7296562300000002,17.18068181,-43.023070929999996,8.8769742,-0.13875503012,0.15922629559999998,-0.17194246028,-0.08088460445000001,-0.0100888648,0.05583202883
01:22:35,0.042630125,0.14578912500000002,-0.20393475,-0.09524200000000001,-0.006045999999999996,-0.0249225,-3.7270151250000003,17.178050375,-43.022872875,8.8844285,-0.1372535035,0.156674205,-0.1704146565,-0.081082406875,-0.009213959999999993,0.055684372125
01:22:35,0.04249314,0.14332202000000002,-0.20206136,-0.09530592,-0.005161760000000001,-0.02503436,-3.72437402,17.17541894,-43.02267482,8.8918828,-0.13575197688,0.1541221144,-0.16888685272,-0.0812802093,-0.0083390552,0.05553671542
01:22:35,0.042356155,0.14085491500000002,-0.20018797,-0.09536984,-0.004277519999999993,-0.02514622,-3.721732915,17.172787505,-43.022476765,8.8993371,-0.13425045026000001,0.1515700238,-0.16735904894,-0.08147801172500001,-0.007464150399999994,0.055389058715
01:22:35,0.04221917,0.13838781000000003,-0.19831458,-0.09543376,-0.0033932799999999985,-0.025258080000000002,-3.71909181,17.17015607,-43.02227871,8.9067914,-0.13274892364000002,0.1490179332,-0.16583124516,-0.08167581415,-0.006589245600000002,0.055241402009999996
01:22:35,0.042082185,0.13592070500000003,-0.19644119,-0.09549768,-0.002509040000000004,-0.02536994,-3.716450705,17.167524635,-43.022080654999996,8.9142457,-0.13124739702000002,0.1464658426,-0.16430344138000003,-0.081873616575,-0.005714340799999995,0.055093745305
01:22:35,0.0419452,0.1334536,-0.1945678,-0.0955616,-0.0016247999999999957,-0.0254818,-3.7138096000000003,17.1648932,-43.0218826,8.9217,-0.12974587040000002,0.143913752,-0.16277563760000002,-0.082071419,-0.0048394360000000025,0.0549460886
01:22:35,0.041808214999999996,0.130986495,-0.19269441,-0.09562552,-0.0007405600000000012,-0.02559366,-3.711168495,17.162261765,-43.021684545,8.9291543,-0.12824434378000002,0.1413616614,-0.16124783382000002,-0.08226922142500001,-0.003964531199999996,0.054798431895
01:22:35,0.041671230000000004,0.12851939,-0.19082102,-0.09568944,0.00014368000000000714,-0.025705520000000003,-3.70852739,17.15963033,-43.02148649,8.9366086,-0.12674281716000002,0.1388095708,-0.15972003004000002,-0.08246702385,-0.0030896263999999896,0.05465077519
01:22:35,0.041534245,0.12605228500000001,-0.18894763,-0.09575336000000001,0.0010279200000000016,-0.02581738,-3.705886285,17.156998895,-43.021288435,8.9440629,-0.12524129054000002,0.1362574802,-0.15819222626,-0.082664826275,-0.002214721599999997,0.054503118485
01:22:35,0.04139726,0.12358518000000002,-0.18707424,-0.09581728,0.001912159999999996,-0.02592924,-3.70324518,17.15436746,-43.02109038,8.9515172,-0.12373976392000002,0.1337053896,-0.15666442248,-0.0828626287,-0.0013398167999999905,0.05435546178
01:22:35,0.041260275,0.12111807500000002,-0.18520085,-0.0958812,0.0027964000000000044,-0.0260411,-3.700604075,17.151736025,-43.020892325,8.9589715,-0.12223823730000002,0.131153299,-0.1551366187,-0.083060431125,-0.0004649119999999979,0.054207805075000004
01:22:35,0.04112329,0.11865097000000002,-0.18332746,-0.09594512000000001,0.003680639999999999,-0.026152960000000003,-3.6979629700000003,17.14910459,-43.02069427,8.9664258,-0.12073671068000003,0.1286012084,-0.15360881492,-0.08325823355,0.0004099928000000086,0.05406014837
01:22:35,0.040986305,0.11618386500000003,-0.18145407,-0.09600904,0.004564880000000007,-0.02626482,-3.695321865,17.146473155,-43.020496215,8.9738801,-0.11923518406000003,0.1260491178,-0.15208101114,-0.08345603597500001,0.0012848976000000012,0.053912491665
01:22:35,0.04084932,0.11371676000000003,-0.17958068,-0.09607296,0.005449120000000002,-0.02637668,-3.69268076,17.14384172,-43.02029816,8.9813344,-0.11773365744000003,0.1234970272,-0.15055320736,-0.0836538384,0.0021598024000000077,0.05376483496
01:22:35,0.040712335,0.11124965500000003,-0.17770729,-0.09613688000000001,0.006333359999999996,-0.02648854,-3.690039655,17.141210285,-43.020100105,8.9887887,-0.11623213082000003,0.1209449366,-0.14902540358,-0.083851640825,0.0030347072000000003,0.053617178255
01:22:35,0.040575349999999996,0.10878255000000003,-0.1758339,-0.0962008,0.007217600000000005,-0.0266004,-3.68739855,17.138578850000002,-43.01990205,8.996243,-0.1147306042,0.118392846,-0.14749759980000002,-0.08404944325000001,0.003909612000000007,0.053469521549999996
01:22:35,0.040438365,0.10631544500000001,-0.17396051,-0.09626472,0.008101839999999999,-0.02671226,-3.6847574450000002,17.135947415,-43.019703995,9.0036973,-0.11322907758,0.1158407554,-0.14596979602000001,-0.084247245675,0.004784516799999999,0.053321864845
01:22:35,0.04030138,0.10384834000000001,-0.17208712,-0.09632864000000001,0.008986080000000007,-0.02682412,-3.6821163400000003,17.13331598,-43.01950594,9.0111516,-0.11172755096,0.1132886648,-0.14444199224,-0.0844450481,0.005659421600000006,0.05317420814
01:22:35,0.040164395,0.10138123500000001,-0.17021373,-0.09639256,0.009870320000000002,-0.026935979999999998,-3.679475235,17.130684545,-43.019307884999996,9.0186059,-0.11022602434,0.1107365742,-0.14291418846,-0.08464285052500001,0.006534326399999998,0.053026551435
01:22:35,0.04002741,0.09891413000000002,-0.16834034,-0.09645648,0.010754559999999996,-0.02704784,-3.67683413,17.12805311,-43.01910983,9.0260602,-0.10872449772000001,0.10818448359999999,-0.14138638468,-0.08484065295000001,0.007409231200000005,0.05287889473
01:22:35,0.039890425,0.09644702500000002,-0.16646695,-0.0965204,0.011638800000000005,-0.027159700000000002,-3.674193025,17.125421675000002,-43.018911775,9.0335145,-0.10722297110000001,0.10563239299999999,-0.1398585809,-0.085038455375,0.008284135999999998,0.052731238025
01:22:35,0.03975344,0.09397992000000002,-0.16459356,-0.09658432,0.01252304,-0.02727156,-3.67155192,17.12279024,-43.01871372,9.0409688,-0.10572144448000001,0.10308030239999999,-0.13833077712,-0.0852362578,0.009159040800000004,0.05258358132
01:22:35,0.039616455,0.09151281500000003,-0.16272017,-0.09664824,0.013407280000000008,-0.02738342,-3.6689108150000003,17.120158805,-43.018515665,9.0484231,-0.10421991786000001,0.10052821180000002,-0.13680297334,-0.085434060225,0.01003394560000001,0.052435924615
01:22:35,0.03947947,0.08904571000000003,-0.16084678,-0.09671216,0.014291520000000002,-0.02749528,-3.66626971,17.11752737,-43.01831761,9.0558774,-0.10271839124000001,0.09797612119999999,-0.13527516956,-0.08563186265,0.010908850400000003,0.05228826791
01:22:35,0.039342484999999996,0.08657860500000003,-0.15897339,-0.09677608,0.015175759999999996,-0.027607140000000002,-3.663628605,17.114895935,-43.018119555,9.0633317,-0.10121686462000001,0.09542403059999999,-0.13374736578000002,-0.085829665075,0.01178375520000001,0.052140611205
01:22:35,0.0392055,0.08411150000000003,-0.1571,-0.09684000000000001,0.016060000000000005,-0.027719,-3.6609875,17.112264500000002,-43.0179215,9.070786,-0.09971533800000001,0.09287193999999999,-0.132219562,-0.08602746750000001,0.012658660000000002,0.0519929545
01:22:35,0.039068515,0.08164439500000004,-0.15522661,-0.09690392,0.01694424,-0.02783086,-3.658346395,17.109633065,-43.017723445,9.078240300000001,-0.09821381138000002,0.09031984939999999,-0.13069175822,-0.086225269925,0.013533564800000009,0.051845297795
01:22:35,0.03893153,0.07917729000000001,-0.15335322,-0.09696784,0.017828480000000008,-0.02794272,-3.65570529,17.10700163,-43.01752539,9.0856946,-0.09671228476000002,0.08776775879999998,-0.12916395444,-0.08642307235,0.014408469600000001,0.051697641089999996
01:22:35,0.038794545,0.07671018500000004,-0.15147983,-0.09703176000000001,0.018712720000000002,-0.028054580000000003,-3.653064185,17.104370195,-43.017327335,9.0931489,-0.09521075814000002,0.08521566819999998,-0.12763615066,-0.086620874775,0.015283374400000008,0.051549984385
01:22:35,0.03865756,0.07424308000000002,-0.14960644,-0.09709568,0.019596959999999997,-0.02816644,-3.65042308,17.10173876,-43.01712928,9.1006032,-0.09370923152000002,0.08266357759999998,-0.12610834688,-0.0868186772,0.0161582792,0.05140232768
01:22:35,0.038520575,0.07177597500000005,-0.14773305,-0.0971596,0.020481200000000005,-0.0282783,-3.647781975,17.099107325,-43.016931225,9.108057500000001,-0.09220770490000002,0.08011148699999998,-0.1245805431,-0.087016479625,0.017033184000000007,0.051254670975
01:22:35,0.038383589999999995,0.06930887000000002,-0.14585966,-0.09722352000000001,0.02136544,-0.02839016,-3.64514087,17.09647589,-43.01673317,9.1155118,-0.09070617828000002,0.07755939639999998,-0.12305273931999999,-0.08721428205000001,0.0179080888,0.05110701427
01:22:35,0.038246605,0.066841765,-0.14398627,-0.09728744,0.022249680000000008,-0.028502020000000003,-3.642499765,17.093844455,-43.016535115,9.1229661,-0.08920465166000002,0.07500730580000003,-0.12152493554000002,-0.087412084475,0.018782993600000006,0.050959357565
01:22:35,0.03810962,0.06437466000000003,-0.14211288,-0.09735136,0.023133920000000002,-0.02861388,-3.6398586600000002,17.09121302,-43.01633706,9.1304204,-0.08770312504000002,0.07245521520000003,-0.11999713176000001,-0.0876098869,0.0196578984,0.05081170086
01:22:35,0.037972635,0.061907555,-0.14023949,-0.09741528,0.024018159999999997,-0.02872574,-3.637217555,17.088581585,-43.016139005,9.1378747,-0.08620159842000003,0.06990312460000003,-0.11846932798000001,-0.08780768932500001,0.020532803200000005,0.050664044155000004
01:22:35,0.03783565,0.059440450000000034,-0.1383661,-0.0974792,0.024902400000000005,-0.0288376,-3.63457645,17.08595015,-43.01594095,9.145329,-0.08470007180000003,0.06735103400000003,-0.11694152420000001,-0.08800549175,0.021407707999999998,0.05051638745
01:22:35,0.037698665,0.05697334500000001,-0.13649271,-0.09754312,0.02578664,-0.028949460000000003,-3.631935345,17.083318715,-43.015742895,9.1527833,-0.08319854518000003,0.06479894340000003,-0.11541372042,-0.088203294175,0.022282612800000004,0.050368730745
01:22:35,0.03756168,0.05450624000000004,-0.13461932,-0.09760704,0.026670880000000008,-0.02906132,-3.62929424,17.08068728,-43.01554484,9.1602376,-0.08169701856000003,0.06224685280000003,-0.11388591664,-0.0884010966,0.02315751760000001,0.05022107404
01:22:35,0.037424695,0.052039135000000014,-0.13274593,-0.09767096,0.027555120000000002,-0.02917318,-3.626653135,17.078055845,-43.015346785,9.1676919,-0.08019549194000003,0.05969476220000003,-0.11235811286,-0.08859889902500001,0.024032422400000003,0.050073417334999995
01:22:35,0.03728771,0.049572030000000045,-0.13087254,-0.09773488,0.028439359999999997,-0.029285040000000002,-3.6240120300000003,17.07542441,-43.01514873,9.1751462,-0.07869396532000003,0.05714267160000003,-0.11083030908,-0.08879670145,0.02490732720000001,0.049925760629999996
01:22:35,0.037150724999999996,0.04710492500000002,-0.12899915,-0.0977988,0.029323600000000005,-0.029396900000000004,-3.621370925,17.072792975,-43.014950675,9.1826005,-0.07719243870000003,0.05459058100000003,-0.10930250529999999,-0.088994503875,0.025782232000000002,0.049778103925
01:22:35,0.03701374,0.04463782000000005,-0.12712576,-0.09786272,0.03020784,-0.029508760000000002,-3.61872982,17.07016154,-43.01475262,9.1900548,-0.07569091208,0.052038490400000026,-0.10777470152000002,-0.0891923063,0.02665713680000001,0.04963044722
01:22:35,0.036876755,0.042170715000000025,-0.12525237,-0.09792664000000001,0.031092080000000008,-0.02962062,-3.616088715,17.067530105,-43.014554565,9.1975091,-0.07418938546,0.049486399800000025,-0.10624689774000001,-0.089390108725,0.0275320416,0.049482790515
01:22:35,0.03673977,0.03970361,-0.12337898,-0.09799056,0.03197632,-0.02973248,-3.61344761,17.06489867,-43.01435651,9.2049634,-0.07268785884000001,0.046934309200000024,-0.10471909396000001,-0.08958791115,0.028406946400000008,0.04933513381
01:22:35,0.036602785,0.03723650500000003,-0.12150559,-0.09805448,0.03286056,-0.02984434,-3.610806505,17.062267235,-43.014158455,9.2124177,-0.07118633222000001,0.04438221860000002,-0.10319129018,-0.08978571357500001,0.0292818512,0.049187477105
01:22:35,0.0364658,0.034769400000000006,-0.1196322,-0.09811840000000001,0.033744800000000005,-0.029956200000000002,-3.6081654,17.0596358,-43.0139604,9.219872,-0.06968480560000001,0.04183012800000002,-0.1016634864,-0.089983516,0.030156756000000007,0.0490398204
01:22:35,0.036328815,0.032302295000000036,-0.11775880999999999,-0.09818232,0.03462904,-0.03006806,-3.605524295,17.057004365,-43.013762345,9.2273263,-0.06818327898000001,0.03927803740000002,-0.10013568262,-0.090181318425,0.0310316608,0.048892163695
01:22:35,0.036191829999999994,0.02983519000000001,-0.11588541999999999,-0.09824624,0.03551328000000001,-0.03017992,-3.60288319,17.05437293,-43.01356429,9.2347806,-0.06668175236000001,0.03672594680000002,-0.09860787884,-0.09037912085000001,0.031906565600000006,0.04874450699
01:22:35,0.036054845,0.027368085000000042,-0.11401203000000001,-0.09831016000000001,0.03639752,-0.03029178,-3.600242085,17.051741495,-43.013366235,9.2422349,-0.06518022574000001,0.03417385620000002,-0.09708007505999999,-0.090576923275,0.0327814704,0.048596850285
01:22:35,0.035917859999999996,0.024900980000000017,-0.11213864000000001,-0.09837408,0.03728176,-0.030403640000000003,-3.59760098,17.04911006,-43.01316818,9.2496892,-0.06367869912000002,0.03162176560000002,-0.09555227128000002,-0.0907747257,0.033656375200000005,0.048449193579999994
01:22:35,0.035780875000000004,0.022433875000000048,-0.11026525000000001,-0.098438,0.038166000000000005,-0.0305155,-3.594959875,17.046478625,-43.012970125,9.2571435,-0.062177172500000016,0.029069675000000017,-0.09402446750000001,-0.09097252812500001,0.03453128,0.048301536874999995
01:22:35,0.03564389,0.019966770000000023,-0.10839186,-0.09850192,0.03905024,-0.03062736,-3.59231877,17.04384719,-43.012772070000004,9.2645978,-0.06067564588000002,0.026517584400000016,-0.09249666372000001,-0.09117033055000001,0.035406184800000004,0.048153880169999996
01:22:35,0.035506905,0.017499665000000053,-0.10651847,-0.09856584,0.03993448000000001,-0.03073922,-3.589677665,17.041215755,-43.012574015,9.2720521,-0.05917411926000002,0.023965493800000015,-0.09096885994000001,-0.091368132975,0.0362810896,0.048006223465
01:22:35,0.03536992,0.015032560000000028,-0.10464508,-0.09862976000000001,0.04081872,-0.030851080000000003,-3.58703656,17.038584320000002,-43.01237596,9.2795064,-0.05767259264000002,0.021413403200000014,-0.08944105616,-0.0915659354,0.0371559944,0.04785856676
01:22:35,0.035232935,0.012565455000000003,-0.10277169,-0.09869368,0.04170296,-0.03096294,-3.584395455,17.035952885,-43.012177905,9.2869607,-0.05617106602000002,0.018861312600000013,-0.08791325238,-0.091763737825,0.03803089920000001,0.047710910055
01:22:35,0.03509595,0.010098350000000034,-0.1008983,-0.0987576,0.042587200000000006,-0.0310748,-3.58175435,17.03332145,-43.01197985,9.294415,-0.05466953940000002,0.016309222000000012,-0.0863854486,-0.09196154025,0.038905804,0.04756325335
01:22:35,0.034958964999999995,0.007631245000000009,-0.09902491,-0.09882152000000001,0.04347144,-0.03118666,-3.5791132450000003,17.030690015,-43.011781795,9.3018693,-0.053168012780000024,0.013757131400000011,-0.08485764482,-0.092159342675,0.03978070880000001,0.047415596645
01:22:35,0.03482198,0.005164140000000039,-0.09715151999999999,-0.09888544,0.04435568000000001,-0.03129852,-3.57647214,17.02805858,-43.01158374,9.3093236,-0.051666486160000025,0.01120504080000001,-0.08332984103999999,-0.09235714510000001,0.0406556136,0.04726793994
01:22:35,0.034684994999999996,0.0026970350000000143,-0.09527812999999999,-0.09894936,0.04523992,-0.03141038,-3.573831035,17.025427145000002,-43.011385685,9.3167779,-0.050164959540000026,0.00865295020000001,-0.08180203726000002,-0.092554947525,0.04153051840000001,0.047120283235
01:22:35,0.034548010000000004,0.00022993000000004482,-0.09340473999999999,-0.09901328000000001,0.04612416,-0.03152224,-3.57118993,17.02279571,-43.01118763,9.3242322,-0.04866343292000003,0.006100859600000008,-0.08027423348000001,-0.09275274995,0.0424054232,0.04697262653
01:22:35,0.034411025,-0.00223717499999998,-0.09153135000000001,-0.0990772,0.047008400000000006,-0.0316341,-3.568548825,17.020164275,-43.010989575,9.3316865,-0.04716190630000003,0.003548769000000007,-0.07874642970000001,-0.092950552375,0.04328032800000001,0.046824969825
01:22:35,0.03427404,-0.00470427999999995,-0.08965795999999998,-0.09914112,0.04789264,-0.031745960000000004,-3.5659077200000002,17.01753284,-43.01079152,9.339140800000001,-0.04566037968000003,0.0009966784000000062,-0.07721862592,-0.0931483548,0.0441552328,0.046677313119999994
01:22:35,0.034137055,-0.007171384999999975,-0.08778457,-0.09920504000000001,0.04877688000000001,-0.03185782,-3.563266615,17.014901405,-43.010593465,9.3465951,-0.04415885306000003,-0.0015554121999999948,-0.07569082214,-0.093346157225,0.045030137600000006,0.046529656414999995
01:22:35,0.03400007,-0.009638489999999944,-0.08591117999999998,-0.09926896,0.04966112,-0.03196968,-3.56062551,17.012269970000002,-43.01039541,9.354049400000001,-0.04265732644000003,-0.004107502799999996,-0.07416301836,-0.09354395965000001,0.0459050424,0.046381999709999996
01:22:35,0.033863085,-0.012105594999999969,-0.08403779,-0.09933288,0.05054536,-0.032081540000000006,-3.557984405,17.009638535,-43.010197355,9.3615037,-0.04115579982000003,-0.006659593399999997,-0.07263521458,-0.093741762075,0.046779947200000005,0.046234343005
01:22:35,0.033726099999999995,-0.014572699999999994,-0.08216440000000003,-0.09939680000000001,0.051429600000000006,-0.0321934,-3.5553433,17.0070071,-43.009999300000004,9.368958000000001,-0.039654273200000034,-0.009211683999999998,-0.07110741079999999,-0.0939395645,0.047654852,0.0460866863
01:22:35,0.033589115,-0.017039804999999963,-0.08029101,-0.09946072,0.05231384,-0.03230526,-3.552702195,17.004375665,-43.009801245,9.3764123,-0.03815274658000001,-0.011763774599999999,-0.06957960702000002,-0.09413736692500001,0.048529756800000004,0.045939029595
01:22:35,0.03345213,-0.01950690999999999,-0.07841762000000002,-0.09952464,0.053198079999999995,-0.03241712,-3.55006109,17.00174423,-43.00960319,9.383866600000001,-0.03665121996000001,-0.0143158652,-0.06805180324000001,-0.09433516935,0.0494046616,0.04579137289
01:22:35,0.033315145,-0.021974014999999958,-0.07654422999999999,-0.09958856,0.05408232,-0.03252898,-3.547419985,16.999112795,-43.009405135,9.3913209,-0.03514969334000001,-0.0168679558,-0.06652399946000001,-0.094532971775,0.0502795664,0.045643716185
01:22:35,0.03317816,-0.024441119999999983,-0.07467084000000002,-0.09965248,0.05496656000000001,-0.032640840000000004,-3.54477888,16.99648136,-43.00920708,9.398775200000001,-0.03364816672000001,-0.0194200464,-0.06499619568000001,-0.0947307742,0.051154471199999996,0.045496059479999996
01:22:35,0.033041175,-0.026908224999999952,-0.07279744999999999,-0.09971640000000001,0.05585079999999999,-0.0327527,-3.542137775,16.993849925,-43.009009025000005,9.4062295,-0.03214664010000001,-0.021972137000000003,-0.0634683919,-0.09492857662500001,0.052029376000000016,0.045348402775
01:22:35,0.03290419,-0.029375329999999977,-0.07092406000000001,-0.09978032,0.05673504,-0.03286456,-3.53949667,16.99121849,-43.00881097,9.413683800000001,-0.030645113480000014,-0.024524227600000004,-0.06194058812,-0.09512637905,0.05290428080000001,0.04520074607
01:22:35,0.032767205,-0.03184243499999995,-0.06905066999999998,-0.09984424,0.05761928000000001,-0.032976420000000006,-3.536855565,16.988587055,-43.008612915,9.4211381,-0.029143586860000015,-0.027076318200000005,-0.06041278434,-0.095324181475,0.0537791856,0.04505308936499999
01:22:35,0.03263022,-0.03430953999999997,-0.06717728,-0.09990816000000001,0.05850351999999999,-0.03308828,-3.53421446,16.98595562,-43.00841486,9.4285924,-0.027642060240000016,-0.029628408800000006,-0.058884980559999994,-0.0955219839,0.054654090399999994,0.044905432659999994
01:22:35,0.032493234999999995,-0.03677664499999994,-0.06530388999999998,-0.09997208,0.05938776,-0.03320014,-3.531573355,16.983324185,-43.008216805,9.4360467,-0.026140533620000017,-0.03218049940000001,-0.05735717677999999,-0.095719786325,0.055528995200000014,0.044757775954999995
01:22:35,0.03235625,-0.039243749999999966,-0.0634305,-0.100036,0.060272000000000006,-0.033312,-3.52893225,16.98069275,-43.008018750000005,9.443501000000001,-0.02463900700000002,-0.03473258999999995,-0.055829373000000015,-0.09591758875,0.05640390000000001,0.04461011925
01:22:35,0.032219265,-0.04171085499999999,-0.061557110000000026,-0.10009992000000001,0.061156240000000014,-0.03342386,-3.526291145,16.978061315,-43.007820695,9.4509553,-0.02313748038000002,-0.03728468059999995,-0.05430156922000001,-0.09611539117500001,0.0572788048,0.044462462545
01:22:35,0.03208228,-0.04417795999999996,-0.059683719999999996,-0.10016384,0.062040479999999995,-0.033535720000000005,-3.52365004,16.97542988,-43.00762264,9.4584096,-0.02163595376000002,-0.039836771199999954,-0.05277376544000001,-0.0963131936,0.05815370959999999,0.04431480584
01:22:35,0.031945295,-0.046645064999999986,-0.05781033000000002,-0.10022776,0.06292472,-0.03364758,-3.5210089350000002,16.972798445,-43.007424585,9.4658639,-0.020134427140000022,-0.042388861799999955,-0.051245961660000006,-0.096510996025,0.05902861440000001,0.044167149135
01:22:35,0.03180831,-0.049112169999999955,-0.05593693999999999,-0.10029168000000001,0.06380896000000001,-0.03375944,-3.51836783,16.97016701,-43.007226530000004,9.473318200000001,-0.018632900520000023,-0.044940952399999956,-0.04971815788,-0.09670879845,0.059903519200000005,0.04401949243
01:22:35,0.031671325,-0.05157927499999998,-0.054063550000000016,-0.1003556,0.06469319999999999,-0.0338713,-3.515726725,16.967535575,-43.007028475,9.4807725,-0.017131373900000024,-0.04749304299999996,-0.0481903541,-0.096906600875,0.060778424,0.043871835725
01:22:35,0.031534339999999994,-0.05404637999999995,-0.052190159999999985,-0.10041952000000001,0.06557744,-0.03398316,-3.51308562,16.96490414,-43.00683042,9.4882268,-0.015629847280000025,-0.05004513359999996,-0.046662550319999996,-0.0971044033,0.06165332879999999,0.04372417902
01:22:35,0.031397355,-0.056513484999999974,-0.05031677000000001,-0.10048344000000001,0.06646168000000001,-0.034095020000000004,-3.510444515,16.962272705,-43.006632365,9.4956811,-0.014128320660000027,-0.05259722419999996,-0.04513474653999999,-0.09730220572500001,0.06252823360000001,0.043576522315
01:22:35,0.031260369999999996,-0.058980589999999944,-0.04844337999999998,-0.10054736,0.06734591999999999,-0.03420688,-3.50780341,16.95964127,-43.00643431,9.503135400000001,-0.012626794040000028,-0.05514931479999996,-0.04360694276000002,-0.09750000815000001,0.0634031384,0.04342886561
01:22:35,0.031123385,-0.06144769499999997,-0.046569990000000006,-0.10061128,0.06823016,-0.03431874,-3.505162305,16.957009835,-43.006236255000005,9.5105897,-0.011125267420000029,-0.05770140539999996,-0.042079138980000014,-0.097697810575,0.0642780432,0.04328120890499999
01:22:35,0.030986399999999997,-0.0639148,-0.04469660000000003,-0.1006752,0.0691144,-0.034430600000000006,-3.5025212,16.9543784,-43.0060382,9.518044,-0.00962374080000003,-0.06025349599999996,-0.04055133520000001,-0.09789561299999999,0.06515294799999999,0.043133552199999994
01:22:35,0.030849414999999998,-0.06638190499999996,-0.04282321,-0.10073912,0.06999864000000001,-0.03454246,-3.499880095,16.951746965,-43.005840145,9.5254983,-0.008122214180000031,-0.06280558659999996,-0.03902353142000001,-0.098093415425,0.06602785280000001,0.042985895494999996
01:22:35,0.03071243,-0.06884900999999999,-0.040949820000000026,-0.10080304000000001,0.07088288,-0.03465432,-3.49723899,16.94911553,-43.00564209,9.5329526,-0.0066206875600000326,-0.06535767719999996,-0.037495727640000004,-0.09829121785,0.0669027576,0.04283823879
01:22:35,0.030575445,-0.07131611499999996,-0.039076429999999995,-0.10086696,0.07176712,-0.03476618,-3.494597885,16.946484095,-43.005444035000004,9.5404069,-0.005119160940000034,-0.06790976779999996,-0.03596792386,-0.098489020275,0.0677776624,0.042690582085
01:22:35,0.03043846,-0.07378321999999998,-0.03720304000000002,-0.10093088,0.07265136000000001,-0.03487804,-3.4919567799999998,16.94385266,-43.005245980000005,9.5478612,-0.003617634320000035,-0.07046185839999997,-0.034440120080000025,-0.09868682270000001,0.06865256720000001,0.04254292538
01:22:35,0.030301474999999998,-0.07625032499999995,-0.03532964999999999,-0.10099480000000001,0.07353559999999999,-0.034989900000000004,-3.489315675,16.941221225,-43.005047925,9.5553155,-0.002116107700000036,-0.07301394899999997,-0.03291231630000002,-0.098884625125,0.069527472,0.042395268675
01:22:35,0.03016449,-0.07871742999999998,-0.033456260000000015,-0.10105872,0.07441984,-0.03510176,-3.48667457,16.93858979,-43.00484987,9.5627698,-0.0006145810800000373,-0.07556603959999997,-0.03138451252000002,-0.09908242755,0.0704023768,0.04224761197
01:22:35,0.030027505,-0.08118453499999995,-0.031582869999999985,-0.10112264,0.07530408000000001,-0.03521362,-3.484033465,16.935958355,-43.004651815,9.5702241,0.0008869455399999893,-0.07811813019999997,-0.029856708740000015,-0.099280229975,0.07127728159999999,0.042099955265
01:22:35,0.02989052,-0.08365163999999997,-0.02970948000000001,-0.10118656000000001,0.07618831999999999,-0.035325480000000006,-3.48139236,16.93332692,-43.004453760000004,9.5776784,0.0023884721599999603,-0.08067022079999997,-0.028328904960000012,-0.0994780324,0.07215218640000001,0.04195229856
01:22:35,0.029753534999999998,-0.08611874499999994,-0.02783608999999998,-0.10125048,0.07707256,-0.03543734,-3.478751255,16.930695485,-43.004255705000006,9.5851327,0.003889998779999987,-0.08322231139999997,-0.02680110118000001,-0.099675834825,0.0730270912,0.041804641855
01:22:35,0.02961655,-0.08858584999999997,-0.025962700000000005,-0.1013144,0.0779568,-0.0355492,-3.4761101500000002,16.92806405,-43.00405765,9.592587,0.005391525399999958,-0.08577440199999997,-0.025273297400000005,-0.09987363725000001,0.073901996,0.04165698515
01:22:35,0.029479565,-0.09105295499999999,-0.02408931000000003,-0.10137832000000001,0.07884104000000001,-0.03566106,-3.473469045,16.925432615000002,-43.003859595,9.6000413,0.0068930520199999845,-0.08832649259999997,-0.023745493620000002,-0.100071439675,0.07477690079999999,0.04150932844499999
01:22:35,0.02934258,-0.09352005999999996,-0.02221592,-0.10144224,0.07972528,-0.03577292,-3.47082794,16.92280118,-43.00366154,9.6074956,0.008394578639999956,-0.09087858319999997,-0.02221768984,-0.1002692421,0.07565180560000001,0.041361671739999994
01:22:35,0.029205594999999997,-0.09598716499999999,-0.020342530000000025,-0.10150616000000001,0.08060952,-0.035884780000000005,-3.468186835,16.920169745,-43.003463485000005,9.614949900000001,0.009896105259999982,-0.09343067379999997,-0.020689886059999996,-0.100467044525,0.0765267104,0.041214015034999996
01:22:35,0.029068609999999998,-0.09845426999999995,-0.018469139999999995,-0.10157008000000001,0.08149376000000001,-0.03599664,-3.46554573,16.91753831,-43.00326543,9.6224042,0.011397631879999953,-0.09598276439999998,-0.019162082279999992,-0.10066484695,0.0774016152,0.04106635833
01:22:35,0.028931625,-0.10092137499999998,-0.01659575000000002,-0.101634,0.08237799999999999,-0.0361085,-3.462904625,16.914906875,-43.003067375,9.629858500000001,0.01289915849999998,-0.09853485499999998,-0.01763427849999999,-0.100862649375,0.07827651999999999,0.040918701625
01:22:35,0.02879464,-0.10338847999999995,-0.01472235999999999,-0.10169792,0.08326224,-0.03622036000000001,-3.46026352,16.912275440000002,-43.00286932,9.6373128,0.01440068511999995,-0.10108694559999998,-0.016106474719999986,-0.1010604518,0.07915142480000001,0.04077104492
01:22:35,0.028657655,-0.10585558499999997,-0.012848970000000015,-0.10176184,0.08414648000000001,-0.03633222,-3.457622415,16.909644005,-43.002671265000004,9.644767100000001,0.015902211739999977,-0.10363903619999998,-0.014578670939999983,-0.10125825422500001,0.0800263296,0.040623388215
01:22:35,0.028520669999999998,-0.10832268999999994,-0.010975579999999985,-0.10182576,0.08503071999999999,-0.036444080000000004,-3.45498131,16.90701257,-43.002473210000005,9.6522214,0.01740373835999995,-0.10619112679999998,-0.01305086715999998,-0.10145605665,0.0809012344,0.04047573151
01:22:35,0.028383685,-0.11078979499999997,-0.00910219000000001,-0.10188968000000001,0.08591496,-0.03655594,-3.452340205,16.904381135,-43.002275155,9.659675700000001,0.018905264979999975,-0.10874321739999998,-0.011523063379999976,-0.10165385907499999,0.08177613920000001,0.040328074804999996
01:22:35,0.0282467,-0.11325689999999994,-0.00722879999999998,-0.1019536,0.0867992,-0.0366678,-3.4496991,16.9017497,-43.0020771,9.66713,0.0204067916,-0.11129530799999998,-0.009995259600000028,-0.1018516615,0.082651044,0.0401804181
01:22:35,0.028109715,-0.11572400499999996,-0.005355410000000005,-0.10201752,0.08768344000000002,-0.036779660000000006,-3.4470579949999998,16.899118265,-43.001879045,9.674584300000001,0.021908318219999973,-0.11384739859999998,-0.008467455820000025,-0.102049463925,0.0835259488,0.040032761395
01:22:35,0.027972729999999998,-0.11819110999999999,-0.00348202000000003,-0.10208144000000001,0.08856768,-0.03689152,-3.44441689,16.89648683,-43.001680990000004,9.6820386,0.02340984484,-0.11639948919999998,-0.006939652040000022,-0.10224726635,0.08440085359999999,0.03988510468999999
01:22:35,0.027835745,-0.12065821499999996,-0.0016086299999999998,-0.10214536,0.08945192,-0.03700338,-3.441775785,16.893855395,-43.001482935000006,9.689492900000001,0.02491137145999997,-0.11895157979999998,-0.005411848260000018,-0.10244506877500001,0.08527575840000001,0.03973744798499999
01:22:35,0.02769876,-0.12312531999999998,0.000264759999999975,-0.10220928,0.09033616000000001,-0.03711524,-3.43913468,16.89122396,-43.00128488,9.6969472,0.026412898079999997,-0.12150367039999999,-0.003884044480000015,-0.1026428712,0.0861506632,0.039589791279999995
01:22:35,0.027561775,-0.12559242499999995,0.0021381500000000053,-0.10227320000000001,0.0912204,-0.0372271,-3.436493575,16.888592525,-43.001086825,9.704401500000001,0.027914424699999968,-0.12405576099999999,-0.002356240700000012,-0.102840673625,0.087025568,0.039442134574999996
01:22:35,0.027424789999999998,-0.12805952999999998,0.00401153999999998,-0.10233712,0.09210464,-0.037338960000000004,-3.43385247,16.88596109,-43.00088877,9.7118558,0.029415951319999994,-0.1266078516,-0.0008284369200000086,-0.10303847605,0.08790047279999999,0.03929447787
01:22:35,0.027287805,-0.13052663499999995,0.00588493000000001,-0.10240104,0.09298888000000001,-0.03745082,-3.431211365,16.883329655,-43.000690715000005,9.719310100000001,0.030917477939999966,-0.1291599422,0.0006993668599999947,-0.103236278475,0.08877537760000001,0.039146821165
01:22:35,0.02715082,-0.13299373999999997,0.007758319999999985,-0.10246496000000001,0.09387311999999999,-0.03756268,-3.42857026,16.88069822,-43.000492660000006,9.7267644,0.03241900455999999,-0.1317120328,0.002227170639999998,-0.1034340809,0.0896502824,0.03899916446
01:22:35,0.027013835,-0.13546084499999994,0.009631710000000016,-0.10252888,0.09475736,-0.037674540000000006,-3.425929155,16.878066785,-43.000294605,9.734218700000001,0.03392053117999996,-0.1342641234,0.0037549744200000013,-0.10363188332500001,0.0905251872,0.038851507755
01:22:35,0.026876849999999997,-0.13792794999999997,0.01150509999999999,-0.10259280000000001,0.09564160000000001,-0.0377864,-3.42328805,16.87543535,-43.00009655,9.741673,0.03542205779999999,-0.136816214,0.0052827782000000045,-0.10382968575000001,0.09140009199999999,0.03870385105
01:22:35,0.026739864999999998,-0.14039505499999994,0.01337849000000002,-0.10265672,0.09652584000000002,-0.03789826,-3.420646945,16.872803915,-42.999898495000004,9.749127300000001,0.03692358441999996,-0.1393683046,0.006810581980000008,-0.104027488175,0.09227499680000001,0.038556194344999996
01:22:35,0.02660288,-0.14286215999999996,0.015251879999999995,-0.10272064,0.09741008,-0.03801012,-3.41800584,16.87017248,-42.999700440000005,9.7565816,0.03842511103999999,-0.1419203952,0.008338385760000011,-0.10422529059999999,0.0931499016,0.03840853764
01:22:35,0.026465895,-0.14532926499999999,0.01712526999999997,-0.10278456000000001,0.09829432,-0.03812198,-3.415364735,16.867541045,-42.999502385,9.764035900000001,0.03992663765999996,-0.14447248579999994,0.009866189540000014,-0.104423093025,0.0940248064,0.038260880935
01:22:35,0.02632891,-0.14779636999999995,0.01899866,-0.10284848,0.09917856000000001,-0.038233840000000005,-3.41272363,16.86490961,-42.99930433,9.7714902,0.041428164279999985,-0.14702457639999994,0.011393993320000018,-0.10462089545,0.09489971120000001,0.03811322422999999
01:22:35,0.026191924999999998,-0.15026347499999998,0.020872049999999975,-0.1029124,0.1000628,-0.0383457,-3.410082525,16.862278175,-42.999106275,9.778944500000001,0.042929690899999956,-0.14957666699999994,0.012921797100000021,-0.104818697875,0.095774616,0.037965567524999994
01:22:35,0.02605494,-0.15273057999999995,0.022745440000000006,-0.10297632000000001,0.10094704,-0.03845756,-3.40744142,16.85964674,-42.998908220000004,9.7863988,0.04443121751999998,-0.1521287576,0.014449600880000024,-0.10501650030000001,0.0966495208,0.037817910819999995
01:22:35,0.025917955,-0.15519768499999997,0.02461882999999998,-0.10304024,0.10183128000000001,-0.03856942000000001,-3.404800315,16.857015305,-42.998710165000006,9.793853100000002,0.045932744139999954,-0.15468084819999994,0.015977404659999972,-0.105214302725,0.09752442559999999,0.037670254114999996
01:22:35,0.02578097,-0.15766478999999994,0.02649222000000001,-0.10310416,0.10271551999999999,-0.03868128,-3.4021592099999998,16.85438387,-42.99851211,9.8013074,0.04743427075999998,-0.1572329388,0.017505208439999975,-0.10541210514999999,0.09839933040000001,0.03752259741
01:22:35,0.025643984999999998,-0.16013189499999997,0.028365609999999986,-0.10316808000000001,0.10359976,-0.038793140000000004,-3.399518105,16.851752435,-42.998314055,9.808761700000002,0.04893579737999995,-0.15978502939999994,0.01903301221999998,-0.105609907575,0.0992742352,0.037374940705
01:22:36,0.025507,-0.162599,0.030239,-0.103232,0.104484,-0.038905,-3.396877,16.849121,-42.998116,9.816216,0.050437324,-0.16233712,0.020560816,-0.10580771,0.10014914,0.037227284
01:22:36,0.026322175,-0.16176833999999998,0.030175709999999998,-0.10287511,0.10396198,-0.03869193,-3.398528135,16.860285705,-42.996181795000005,9.803678365000001,0.05090262138,-0.161481561165,0.01983890749,-0.105375999055,0.099643297703,0.03716845573
01:22:36,0.027137349999999998,-0.16093768,0.030112419999999997,-0.10251822000000001,0.10343996,-0.038478860000000004,-3.4001792699999998,16.87145041,-42.99424759,9.79114073,0.05136791876,-0.16062600233,0.01911699898,-0.10494428811,0.099137455406,0.03710962746
01:22:36,0.027952525,-0.16010702,0.030049129999999997,-0.10216133000000001,0.10291794,-0.03826579,-3.401830405,16.882615115,-42.992313385,9.778603095000001,0.05183321614,-0.159770443495,0.01839509047,-0.104512577165,0.098631613109,0.03705079919
01:22:36,0.028767699999999997,-0.15927636,0.02998584,-0.10180444000000001,0.10239591999999999,-0.038052720000000005,-3.40348154,16.89377982,-42.990379180000005,9.76606546,0.05229851352,-0.15891488466,0.01767318196,-0.10408086622,0.098125770812,0.03699197092
01:22:36,0.029582874999999998,-0.1584457,0.02992255,-0.10144755,0.10187389999999999,-0.03783965,-3.405132675,16.904944525,-42.988444975,9.753527825,0.0527638109,-0.158059325825,0.01695127345,-0.103649155275,0.097619928515,0.03693314265
01:22:36,0.030398049999999996,-0.15761503999999998,0.02985926,-0.10109066,0.10135187999999999,-0.03762658,-3.40678381,16.91610923,-42.98651077,9.740990190000002,0.05322910828,-0.15720376699,0.016229364939999998,-0.10321744433,0.097114086218,0.03687431438
01:22:36,0.031213224999999997,-0.15678438,0.029795969999999998,-0.10073377,0.10082986,-0.037413510000000004,-3.4084349449999998,16.927273935,-42.984576565000005,9.728452555,0.05369440566,-0.156348208155,0.01550745643,-0.102785733385,0.096608243921,0.03681548611
01:22:36,0.0320284,-0.15595372,0.029732679999999997,-0.10037688,0.10030784,-0.03720044,-3.41008608,16.93843864,-42.98264236,9.715914920000001,0.05415970304,-0.15549264932,0.01478554792,-0.10235402244,0.096102401624,0.03675665784
01:22:36,0.032843575,-0.15512305999999998,0.029669389999999997,-0.10001999,0.09978582,-0.036987370000000006,-3.411737215,16.949603345,-42.980708155,9.703377285,0.05462500042,-0.154637090485,0.014063639409999999,-0.101922311495,0.095596559327,0.03669782957
01:22:36,0.03365875,-0.1542924,0.0296061,-0.0996631,0.0992638,-0.0367743,-3.41338835,16.96076805,-42.978773950000004,9.690839650000001,0.0550902978,-0.15378153165,0.0133417309,-0.10149060055,0.09509071703,0.0366390013
01:22:36,0.034473924999999996,-0.15346173999999999,0.02954281,-0.09930621,0.09874177999999999,-0.03656123,-3.415039485,16.971932755,-42.976839745,9.678302015,0.05555559518,-0.152925972815,0.01261982239,-0.101058889605,0.094584874733,0.036580173029999996
01:22:36,0.0352891,-0.15263108,0.02947952,-0.09894932000000001,0.09821975999999999,-0.036348160000000004,-3.41669062,16.98309746,-42.97490554,9.66576438,0.05602089256,-0.15207041398,0.01189791388,-0.10062717866,0.09407903243599999,0.03652134476
01:22:36,0.036104275,-0.15180042,0.029416229999999998,-0.09859243000000001,0.09769773999999999,-0.03613509,-3.418341755,16.994262165,-42.972971335000004,9.653226745000001,0.05648618994,-0.151214855145,0.011176005369999999,-0.100195467715,0.09357319013899999,0.03646251649
01:22:36,0.03691945,-0.15096976,0.029352939999999998,-0.09823554000000001,0.09717572,-0.03592202,-3.41999289,17.00542687,-42.971037130000006,9.64068911,0.05695148732,-0.15035929631,0.01045409686,-0.09976375677,0.09306734784199999,0.03640368822
01:22:36,0.037734624999999994,-0.1501391,0.029289649999999997,-0.09787865000000001,0.0966537,-0.03570895,-3.421644025,17.016591575,-42.969102925,9.628151475000001,0.0574167847,-0.149503737475,0.00973218835,-0.09933204582499999,0.092561505545,0.03634485995
01:22:36,0.038549799999999995,-0.14930844,0.02922636,-0.09752176,0.09613168,-0.03549588,-3.42329516,17.027756280000002,-42.967168720000004,9.61561384,0.05788208208,-0.14864817864,0.00901027984,-0.09890033488,0.09205566324799999,0.03628603168
01:22:36,0.039364974999999996,-0.14847778,0.02916307,-0.09716487,0.09560966,-0.035282810000000005,-3.424946295,17.038920985,-42.965234515000006,9.603076205,0.05834737946,-0.147792619805,0.008288371329999999,-0.098468623935,0.091549820951,0.03622720341
01:22:36,0.04018015,-0.14764712,0.02909978,-0.09680798,0.09508764,-0.03506974,-3.42659743,17.05008569,-42.96330031,9.590538570000001,0.058812676839999994,-0.14693706097,0.00756646282,-0.09803691299,0.09104397865399999,0.03616837514
01:22:36,0.040995325,-0.14681645999999998,0.029036489999999998,-0.09645109,0.09456561999999999,-0.03485667,-3.428248565,17.061250395000002,-42.961366105,9.578000935,0.05927797422,-0.146081502135,0.006844554310000001,-0.097605202045,0.090538136357,0.03610954687
01:22:36,0.0418105,-0.1459858,0.028973199999999998,-0.0960942,0.09404359999999999,-0.034643600000000004,-3.4298997,17.0724151,-42.959431900000006,9.565463300000001,0.059743271599999995,-0.1452259433,0.0061226458,-0.0971734911,0.09003229406,0.0360507186
01:22:36,0.042625674999999995,-0.14515514,0.028909909999999997,-0.09573731,0.09352157999999999,-0.03443053,-3.431550835,17.083579805,-42.957497695,9.552925665,0.06020856898,-0.144370384465,0.005400737289999999,-0.096741780155,0.089526451763,0.03599189033
01:22:36,0.043440849999999996,-0.14432448,0.02884662,-0.09538042000000001,0.09299956,-0.034217460000000005,-3.43320197,17.09474451,-42.95556349,9.54038803,0.060673866359999995,-0.14351482563,0.0046788287800000015,-0.09631006921,0.089020609466,0.03593306206
01:22:36,0.044256025,-0.14349382,0.02878333,-0.09502353000000001,0.09247754,-0.03400439,-3.4348531049999997,17.105909215,-42.953629285000005,9.527850395000002,0.06113916374,-0.14265926679500002,0.003956920270000001,-0.095878358265,0.088514767169,0.03587423379
01:22:36,0.04507119999999999,-0.14266315999999998,0.02872004,-0.09466664,0.09195552,-0.03379132,-3.43650424,17.11707392,-42.95169508,9.51531276,0.061604461119999995,-0.14180370796,0.00323501176,-0.09544664732,0.088008924872,0.035815405519999996
01:22:36,0.04588637499999999,-0.1418325,0.028656749999999998,-0.09430975,0.0914335,-0.033578250000000004,-3.438155375,17.128238625,-42.949760875,9.502775125000001,0.0620697585,-0.140948149125,0.002513103249999999,-0.095014936375,0.087503082575,0.03575657725
01:22:36,0.046701549999999994,-0.14100184,0.028593459999999998,-0.09395286,0.09091147999999999,-0.03336518,-3.43980651,17.13940333,-42.947826670000005,9.49023749,0.06253505588,-0.14009259029,0.0017911947399999982,-0.09458322543,0.086997240278,0.03569774898
01:22:36,0.047516724999999996,-0.14017118,0.028530169999999997,-0.09359597,0.09038945999999999,-0.03315211,-3.441457645,17.150568035,-42.945892465,9.477699855000001,0.06300035326,-0.139237031455,0.0010692862300000008,-0.094151514485,0.086491397981,0.03563892071
01:22:36,0.0483319,-0.13934052,0.02846688,-0.09323908,0.08986743999999999,-0.03293904,-3.4431087799999998,17.16173274,-42.94395826,9.46516222,0.06346565064,-0.13838147262,0.00034737772,-0.09371980354000001,0.085985555684,0.03558009244
01:22:36,0.049147075,-0.13850985999999998,0.02840359,-0.09288219,0.08934542,-0.03272597,-3.444759915,17.172897445,-42.942024055000005,9.452624585,0.06393094802,-0.137525913785,-0.00037453079000000083,-0.093288092595,0.085479713387,0.03552126417
01:22:36,0.04996225,-0.1376792,0.0283403,-0.0925253,0.0888234,-0.032512900000000004,-3.44641105,17.18406215,-42.94008985,9.440086950000001,0.0643962454,-0.13667035495000002,-0.0010964392999999982,-0.09285638165,0.08497387109,0.0354624359
01:22:36,0.050777424999999994,-0.13684854,0.028277009999999998,-0.09216841,0.08830138,-0.03229983,-3.448062185,17.195226855,-42.938155645,9.427549315,0.06486154278,-0.135814796115,-0.001818347809999999,-0.092424670705,0.084468028793,0.03540360763
01:22:36,0.051592599999999995,-0.13601787999999998,0.028213719999999998,-0.09181152000000001,0.08777936,-0.032086760000000006,-3.44971332,17.20639156,-42.936221440000004,9.415011680000001,0.06532684016,-0.13495923728,-0.00254025632,-0.09199295975999999,0.083962186496,0.03534477936
01:22:36,0.052407775,-0.13518722,0.028150429999999997,-0.09145463000000001,0.08725733999999999,-0.03187369,-3.4513644549999998,17.217556265,-42.934287235,9.402474045,0.06579213754,-0.134103678445,-0.0032621648300000007,-0.091561248815,0.083456344199,0.035285951089999996
01:22:36,0.05322294999999999,-0.13435655999999999,0.02808714,-0.09109774000000001,0.08673531999999999,-0.03166062,-3.45301559,17.22872097,-42.93235303,9.38993641,0.06625743492,-0.13324811961,-0.0039840733400000015,-0.09112953787,0.082950501902,0.03522712282
01:22:36,0.05403812499999999,-0.1335259,0.02802385,-0.09074085000000001,0.08621329999999999,-0.031447550000000005,-3.454666725,17.239885675,-42.930418825000004,9.377398775000001,0.0667227323,-0.132392560775,-0.004705981849999999,-0.090697826925,0.082444659605,0.03516829455
01:22:36,0.054853299999999994,-0.13269524,0.02796056,-0.09038396,0.08569128,-0.031234480000000002,-3.45631786,17.25105038,-42.92848462,9.36486114,0.06718802968,-0.13153700194,-0.00542789036,-0.09026611598,0.081938817308,0.03510946628
01:22:36,0.055668474999999995,-0.13186458,0.02789727,-0.09002707,0.08516926,-0.031021410000000003,-3.457968995,17.262215085,-42.926550415,9.352323505000001,0.06765332705999999,-0.13068144310500002,-0.006149798870000001,-0.089834405035,0.081432975011,0.035050638009999996
01:22:36,0.056483649999999996,-0.13103392,0.027833979999999998,-0.08967018,0.08464724,-0.030808340000000004,-3.45962013,17.27337979,-42.92461621,9.33978587,0.06811862444,-0.12982588427,-0.006871707379999998,-0.08940269409,0.080927132714,0.03499180974
01:22:36,0.057298825,-0.13020326,0.027770689999999997,-0.08931329,0.08412522,-0.03059527,-3.461271265,17.284544495,-42.922682005000006,9.327248235,0.06858392182,-0.128970325435,-0.007593615889999999,-0.088970983145,0.080421290417,0.03493298147
01:22:36,0.058114,-0.1293726,0.0277074,-0.0889564,0.08360319999999999,-0.0303822,-3.4629224,17.2957092,-42.9207478,9.314710600000002,0.0690492192,-0.12811476659999999,-0.0083155244,-0.08853927219999999,0.07991544812,0.0348741532
01:22:36,0.058929175,-0.12854194,0.02764411,-0.08859951,0.08308117999999999,-0.030169130000000002,-3.464573535,17.306873905,-42.918813595,9.302172965,0.06951451657999999,-0.127259207765,-0.00903743291,-0.088107561255,0.079409605823,0.03481532493
01:22:36,0.05974434999999999,-0.12771127999999998,0.02758082,-0.08824262000000001,0.08255915999999999,-0.029956060000000003,-3.46622467,17.318038610000002,-42.916879390000005,9.289635330000001,0.06997981396,-0.12640364893,-0.009759341420000001,-0.08767585031,0.078903763526,0.03475649666
01:22:36,0.06055952499999999,-0.12688062,0.02751753,-0.08788573000000001,0.08203714,-0.029742990000000004,-3.467875805,17.329203315,-42.914945185,9.277097695,0.07044511134,-0.125548090095,-0.010481249929999999,-0.087244139365,0.078397921229,0.03469766839
01:22:36,0.06137469999999999,-0.12604996,0.027454239999999998,-0.08752884,0.08151512,-0.02952992,-3.46952694,17.34036802,-42.91301098,9.26456006,0.07091040872,-0.12469253126,-0.011203158439999996,-0.08681242842,0.07789207893200001,0.03463884012
01:22:36,0.06218987499999999,-0.12521929999999998,0.027390949999999997,-0.08717195,0.0809931,-0.029316850000000002,-3.471178075,17.351532725000002,-42.911076775000005,9.252022425,0.07137570609999999,-0.123836972425,-0.011925066949999997,-0.08638071747500001,0.077386236635,0.03458001185
01:22:36,0.06300504999999999,-0.12438864,0.027327659999999997,-0.08681506,0.08047108,-0.029103780000000003,-3.47282921,17.36269743,-42.90914257,9.23948479,0.07184100348,-0.12298141359,-0.012646975459999998,-0.08594900653,0.07688039433800001,0.034521183579999996
01:22:36,0.063820225,-0.12355797999999998,0.02726437,-0.08645817,0.07994905999999999,-0.02889071,-3.474480345,17.373862135,-42.907208365,9.226947155000001,0.07230630086,-0.122125854755,-0.013368883969999999,-0.085517295585,0.076374552041,0.03446235531
01:22:36,0.0646354,-0.12272732,0.02720108,-0.08610128,0.07942703999999999,-0.028677640000000004,-3.47613148,17.385026840000002,-42.905274160000005,9.21440952,0.07277159824,-0.12127029591999999,-0.01409079248,-0.08508558464,0.075868709744,0.03440352704
01:22:36,0.065450575,-0.12189665999999999,0.02713779,-0.08574439,0.07890501999999999,-0.02846457,-3.477782615,17.396191545,-42.903339955,9.201871885000001,0.07323689561999999,-0.120414737085,-0.01481270099,-0.08465387369499999,0.07536286744699999,0.03434469877
01:22:36,0.06626575,-0.121066,0.027074499999999998,-0.0853875,0.078383,-0.028251500000000002,-3.47943375,17.40735625,-42.90140575,9.18933425,0.073702193,-0.11955917825000001,-0.015534609500000001,-0.08422216275,0.07485702515,0.034285870499999996
01:22:36,0.067080925,-0.12023534,0.027011209999999997,-0.08503061,0.07786098,-0.028038430000000003,-3.481084885,17.418520955,-42.899471545000004,9.176796615,0.07416749038,-0.118703619415,-0.016256518010000002,-0.083790451805,0.07435118285299999,0.03422704223
01:22:36,0.06789609999999999,-0.11940467999999999,0.02694792,-0.08467372000000001,0.07733896,-0.02782536,-3.48273602,17.42968566,-42.89753734,9.164258980000001,0.07463278776,-0.11784806058,-0.016978426520000003,-0.08335874086,0.073845340556,0.03416821396
01:22:36,0.06871127499999999,-0.11857402,0.02688463,-0.08431683000000001,0.07681694,-0.027612290000000005,-3.484387155,17.440850365,-42.895603135,9.151721345,0.07509808513999999,-0.116992501745,-0.017700335029999997,-0.082927029915,0.073339498259,0.03410938569
01:22:36,0.06952644999999999,-0.11774335999999999,0.02682134,-0.08395994000000001,0.07629491999999999,-0.027399220000000002,-3.48603829,17.45201507,-42.893668930000004,9.139183710000001,0.07556338252,-0.11613694291,-0.018422243539999997,-0.08249531897,0.072833655962,0.03405055742
01:22:36,0.07034162499999999,-0.1169127,0.02675805,-0.08360305000000001,0.07577289999999999,-0.027186150000000003,-3.487689425,17.463179775,-42.891734725,9.126646075,0.07602867989999999,-0.11528138407499999,-0.01914415205,-0.082063608025,0.072327813665,0.03399172915
01:22:36,0.07115679999999999,-0.11608204,0.026694759999999998,-0.08324616,0.07525087999999999,-0.026973080000000003,-3.48934056,17.47434448,-42.88980052,9.11410844,0.07649397728,-0.11442582524,-0.01986606056,-0.08163189708,0.071821971368,0.03393290088
01:22:36,0.071971975,-0.11525137999999999,0.026631469999999997,-0.08288927,0.07472886,-0.02676001,-3.490991695,17.485509185,-42.887866315000004,9.101570805000001,0.07695927466,-0.11357026640500001,-0.02058796907,-0.081200186135,0.071316129071,0.03387407261
01:22:36,0.07278715,-0.11442072,0.026568179999999997,-0.08253238,0.07420684,-0.026546940000000005,-3.49264283,17.49667389,-42.88593211,9.08903317,0.07742457204,-0.11271470757,-0.02130987758,-0.08076847519,0.070810286774,0.03381524434
01:22:36,0.073602325,-0.11359005999999999,0.02650489,-0.08217549,0.07368482,-0.026333870000000002,-3.494293965,17.507838595,-42.883997905,9.076495535000001,0.07788986942,-0.111859148735,-0.02203178609,-0.080336764245,0.070304444477,0.033756416069999996
01:22:36,0.0744175,-0.1127594,0.0264416,-0.0818186,0.0731628,-0.026120800000000003,-3.4959451,17.5190033,-42.8820637,9.0639579,0.0783551668,-0.1110035899,-0.022753694599999996,-0.0799050533,0.06979860218,0.0336975878
01:22:36,0.075232675,-0.11192874,0.02637831,-0.08146171,0.07264077999999999,-0.025907730000000004,-3.497596235,17.530168005,-42.880129495,9.051420265,0.07882046418,-0.110148031065,-0.023475603109999996,-0.079473342355,0.069292759883,0.03363875953
01:22:36,0.07604784999999999,-0.11109807999999999,0.026315019999999998,-0.08110482000000001,0.07211876,-0.02569466,-3.49924737,17.54133271,-42.87819529,9.03888263,0.07928576156,-0.10929247222999999,-0.024197511619999997,-0.07904163141000001,0.068786917586,0.03357993126
01:22:36,0.07686302499999999,-0.11026741999999999,0.026251729999999997,-0.08074793,0.07159673999999999,-0.025481590000000002,-3.500898505,17.552497415,-42.876261085,9.026344995,0.07975105894,-0.108436913395,-0.024919420129999998,-0.078609920465,0.068281075289,0.033521102989999996
01:22:36,0.07767819999999999,-0.10943676,0.02618844,-0.08039104,0.07107472,-0.025268520000000003,-3.50254964,17.56366212,-42.874326880000005,9.013807360000001,0.08021635632,-0.10758135456000001,-0.02564132864,-0.07817820952,0.067775232992,0.03346227472
01:22:36,0.07849337499999999,-0.1086061,0.02612515,-0.08003415,0.0705527,-0.025055450000000003,-3.504200775,17.574826825,-42.872392675,9.001269725,0.0806816537,-0.106725795725,-0.02636323715,-0.077746498575,0.067269390695,0.03340344645
01:22:36,0.07930854999999999,-0.10777544,0.02606186,-0.07967726,0.07003067999999998,-0.024842380000000004,-3.50585191,17.58599153,-42.87045847,8.988732090000001,0.08114695108,-0.10587023689,-0.02708514566,-0.07731478762999999,0.066763548398,0.03334461818
01:22:36,0.08012372499999999,-0.10694477999999999,0.02599857,-0.07932037,0.06950866,-0.02462931,-3.507503045,17.597156235,-42.868524265000005,8.976194455,0.08161224846,-0.105014678055,-0.02780705417,-0.076883076685,0.066257706101,0.03328578991
01:22:36,0.0809389,-0.10611411999999999,0.025935279999999998,-0.07896348,0.06898663999999999,-0.024416240000000002,-3.50915418,17.60832094,-42.86659006,8.96365682,0.08207754583999999,-0.10415911922,-0.028528962680000002,-0.07645136574,0.065751863804,0.03322696164
01:22:36,0.081754075,-0.10528346,0.025871989999999997,-0.07860659,0.06846462,-0.024203170000000003,-3.510805315,17.619485645,-42.864655855,8.951119185000001,0.08254284322,-0.10330356038499999,-0.029250871189999996,-0.076019654795,0.065246021507,0.03316813337
01:22:36,0.08256925,-0.10445279999999998,0.025808699999999997,-0.0782497,0.06794259999999999,-0.0239901,-3.51245645,17.63065035,-42.862721650000005,8.93858155,0.0830081406,-0.10244800155,-0.029972779699999997,-0.07558794385,0.06474017921,0.0331093051
01:22:36,0.083384425,-0.10362214,0.02574541,-0.07789281,0.06742058,-0.023777030000000005,-3.514107585,17.641815055000002,-42.860787445,8.926043915000001,0.08347343798,-0.10159244271500001,-0.030694688209999998,-0.075156232905,0.064234336913,0.03305047683
01:22:36,0.08419959999999999,-0.10279147999999999,0.02568212,-0.07753592000000001,0.06689856,-0.023563960000000002,-3.51575872,17.65297976,-42.85885324,8.91350628,0.08393873535999999,-0.10073688388,-0.031416596719999995,-0.07472452196,0.063728494616,0.032991648559999996
01:22:36,0.08501477499999999,-0.10196082,0.02561883,-0.07717903000000001,0.06637653999999998,-0.023350890000000003,-3.517409855,17.664144465,-42.856919035000004,8.900968645,0.08440403274,-0.099881325045,-0.03213850523,-0.074292811015,0.06322265231900001,0.03293282029
01:22:36,0.08582994999999999,-0.10113016,0.025555539999999998,-0.07682214000000001,0.06585452,-0.023137820000000003,-3.51906099,17.675309170000002,-42.85498483,8.888431010000001,0.08486933012,-0.09902576621,-0.03286041374,-0.07386110006999999,0.062716810022,0.03287399202
01:22:36,0.08664512499999999,-0.10029949999999999,0.025492249999999998,-0.07646525000000001,0.06533249999999999,-0.022924750000000004,-3.520712125,17.686473875,-42.853050625,8.875893375,0.0853346275,-0.098170207375,-0.033582322250000005,-0.073429389125,0.062210967725,0.03281516375
01:22:36,0.08746029999999999,-0.09946883999999999,0.02542896,-0.07610836,0.06481048,-0.02271168,-3.52236326,17.69763858,-42.851116420000004,8.863355740000001,0.08579992487999999,-0.09731464854,-0.03430423076,-0.07299767818,0.061705125428,0.032756335479999996
01:22:36,0.08827547499999999,-0.09863817999999999,0.02536567,-0.07575147,0.06428845999999999,-0.022498610000000002,-3.524014395,17.708803285000002,-42.849182215,8.850818105,0.08626522226,-0.096459089705,-0.03502613926999999,-0.072565967235,0.061199283131,0.03269750721
01:22:36,0.08909065,-0.09780752,0.02530238,-0.07539458,0.06376644,-0.022285540000000003,-3.52566553,17.71996799,-42.84724801,8.83828047,0.08673051964,-0.09560353087000001,-0.03574804778,-0.07213425629,0.060693440834,0.03263867894
01:22:36,0.089905825,-0.09697686,0.02523909,-0.07503769,0.06324442,-0.022072470000000004,-3.527316665,17.731132695,-42.845313805,8.825742835,0.08719581702,-0.094747972035,-0.036469956289999994,-0.07170254534500001,0.060187598537,0.03257985067
01:22:36,0.090721,-0.09614619999999999,0.025175799999999998,-0.0746808,0.0627224,-0.0218594,-3.5289678,17.7422974,-42.8433796,8.8132052,0.08766111439999999,-0.0938924132,-0.0371918648,-0.0712708344,0.05968175624,0.0325210224
01:22:36,0.091536175,-0.09531553999999999,0.025112509999999998,-0.07432391,0.06220037999999999,-0.021646330000000002,-3.530618935,17.753462105,-42.841445395,8.800667565000001,0.08812641178,-0.093036854365,-0.037913773309999996,-0.070839123455,0.059175913943,0.03246219413
01:22:36,0.09235135,-0.09448488,0.025049219999999997,-0.07396702000000001,0.061678359999999995,-0.021433260000000003,-3.53227007,17.76462681,-42.83951119,8.78812993,0.08859170916,-0.09218129553,-0.038635681820000004,-0.07040741251,0.058670071646,0.03240336586
01:22:36,0.093166525,-0.09365422,0.024985929999999996,-0.07361013,0.06115634,-0.021220190000000003,-3.533921205,17.775791515,-42.837576985,8.775592295000001,0.08905700654,-0.091325736695,-0.03935759033,-0.06997570156499999,0.058164229349,0.03234453759
01:22:36,0.09398169999999999,-0.09282356,0.02492264,-0.07325324,0.06063431999999999,-0.021007120000000004,-3.53557234,17.78695622,-42.83564278,8.76305466,0.08952230391999999,-0.09047017786,-0.040079498840000005,-0.06954399062,0.057658387052,0.03228570932
01:22:36,0.09479687499999999,-0.09199289999999999,0.02485935,-0.07289635,0.060112299999999994,-0.02079405,-3.5372234750000002,17.798120925,-42.833708575,8.750517025,0.0899876013,-0.08961461902500001,-0.04080140735,-0.069112279675,0.057152544755,0.032226881049999996
01:22:36,0.09561204999999999,-0.09116223999999999,0.024796059999999998,-0.07253946,0.059590279999999995,-0.020580980000000002,-3.53887461,17.80928563,-42.83177437,8.73797939,0.09045289868,-0.08875906019,-0.04152331585999999,-0.06868056873,0.056646702458,0.03216805278
01:22:36,0.09642722499999999,-0.09033158,0.024732769999999998,-0.07218257,0.05906826,-0.020367910000000003,-3.540525745,17.820450335,-42.829840165,8.725441755,0.09091819606,-0.087903501355,-0.04224522437,-0.068248857785,0.056140860161,0.03210922451
01:22:36,0.09724239999999999,-0.08950092,0.02466948,-0.07182568,0.05854623999999999,-0.020154840000000004,-3.54217688,17.83161504,-42.82790596,8.712904120000001,0.09138349343999999,-0.08704794252,-0.042967132879999995,-0.06781714684000001,0.055635017864000005,0.03205039624
01:22:36,0.098057575,-0.08867026,0.02460619,-0.07146879,0.058024219999999994,-0.019941770000000004,-3.543828015,17.842779745,-42.825971755000005,8.700366485,0.09184879082,-0.086192383685,-0.04368904139,-0.067385435895,0.055129175567000005,0.031991567969999996
01:22:36,0.09887275,-0.08783959999999999,0.0245429,-0.0711119,0.057502199999999996,-0.019728700000000002,-3.5454791500000002,17.85394445,-42.82403755,8.68782885,0.0923140882,-0.08533682485,-0.044410949899999996,-0.06695372495,0.054623333270000005,0.0319327397
01:22:36,0.099687925,-0.08700893999999999,0.02447961,-0.07075501000000001,0.05698017999999999,-0.019515630000000003,-3.547130285,17.865109155,-42.822103345,8.675291215000001,0.09277938558,-0.084481266015,-0.045132858410000004,-0.06652201400499999,0.054117490973000004,0.03187391143
01:22:36,0.1005031,-0.08617828,0.02441632,-0.07039812000000001,0.05645815999999999,-0.019302560000000003,-3.54878142,17.87627386,-42.820169140000004,8.66275358,0.09324468295999999,-0.08362570718000001,-0.04585476692,-0.06609030306,0.053611648676000004,0.03181508316
01:22:36,0.101318275,-0.08534762,0.024353029999999998,-0.07004123000000001,0.055936139999999995,-0.019089490000000004,-3.550432555,17.887438565,-42.818234935,8.650215945000001,0.09370998034,-0.082770148345,-0.046576675430000006,-0.065658592115,0.053105806379,0.03175625489
01:22:36,0.10213344999999999,-0.08451695999999999,0.024289739999999997,-0.06968434000000001,0.05541412,-0.01887642,-3.55208369,17.89860327,-42.81630073,8.63767831,0.09417527772,-0.08191458951,-0.04729858394,-0.06522688117,0.052599964082,0.03169742662
01:22:36,0.10294862499999999,-0.08368629999999999,0.024226449999999997,-0.06932745000000001,0.05489209999999999,-0.018663350000000002,-3.5537348250000003,17.909767975,-42.814366525000004,8.625140675,0.0946405751,-0.081059030675,-0.04802049245000001,-0.064795170225,0.052094121785,0.03163859835
01:22:36,0.10376379999999999,-0.08285564,0.02416316,-0.06897056,0.054370079999999994,-0.018450280000000003,-3.55538596,17.92093268,-42.81243232,8.61260304,0.09510587247999999,-0.08020347184,-0.04874240096,-0.06436345928000001,0.051588279488,0.03157977008
01:22:36,0.10457897499999999,-0.08202498,0.02409987,-0.06861367,0.053848059999999996,-0.018237210000000004,-3.557037095,17.932097385,-42.810498115,8.600065405,0.09557116986,-0.079347913005,-0.049464309469999995,-0.06393174833500001,0.051082437191,0.03152094181
01:22:36,0.10539414999999999,-0.08119432,0.02403658,-0.06825678,0.05332603999999999,-0.018024140000000004,-3.55868823,17.94326209,-42.808563910000004,8.587527770000001,0.09603646724,-0.07849235417,-0.05018621798,-0.06350003739,0.050576594894,0.031462113539999996
01:22:36,0.106209325,-0.08036365999999999,0.023973289999999998,-0.06789989,0.05280401999999999,-0.017811070000000002,-3.560339365,17.954426795,-42.806629705,8.574990135,0.09650176462,-0.07763679533500001,-0.05090812649,-0.063068326445,0.050070752597,0.03140328527
01:22:36,0.1070245,-0.07953299999999999,0.02391,-0.067543,0.052281999999999995,-0.017598000000000003,-3.5619905000000003,17.965591500000002,-42.8046955,8.562452500000001,0.09696706199999999,-0.0767812365,-0.051630035000000005,-0.06263661549999999,0.0495649103,0.031344457
01:22:36,0.107839675,-0.07870234,0.02384671,-0.06718611,0.05175998,-0.017384930000000003,-3.563641635,17.976756205,-42.802761295,8.549914865,0.09743235938,-0.075925677665,-0.05235194351,-0.062204904555,0.049059068003,0.03128562873
01:22:36,0.10865485,-0.07787168,0.02378342,-0.06682922,0.05123795999999999,-0.017171860000000004,-3.56529277,17.98792091,-42.80082709,8.53737723,0.09789765676,-0.07507011883,-0.053073852020000006,-0.06177319361,0.048553225706,0.03122680046
01:22:36,0.109470025,-0.07704101999999999,0.02372013,-0.06647233,0.050715939999999994,-0.01695879,-3.566943905,17.999085615000002,-42.798892885,8.524839595,0.09836295414,-0.074214559995,-0.05379576053,-0.061341482665,0.048047383409,0.031167972189999997
01:22:36,0.11028519999999999,-0.07621035999999999,0.02365684,-0.06611544,0.050193919999999996,-0.016745720000000002,-3.56859504,18.01025032,-42.79695868,8.51230196,0.09882825152,-0.07335900116,-0.05451766904000001,-0.06090977172,0.047541541112,0.03110914392
01:22:36,0.11110037499999999,-0.0753797,0.023593549999999998,-0.06575855,0.04967189999999999,-0.016532650000000003,-3.570246175,18.021415025,-42.795024475,8.499764325000001,0.0992935489,-0.072503442325,-0.05523957755,-0.060478060775,0.047035698815000006,0.03105031565
01:22:36,0.11191554999999999,-0.07454904,0.023530259999999997,-0.06540166,0.04914987999999999,-0.016319580000000004,-3.57189731,18.032579730000002,-42.79309027,8.48722669,0.09975884628000001,-0.07164788349000001,-0.055961486059999996,-0.06004634983,0.046529856518000005,0.03099148738
01:22:36,0.11273072499999999,-0.07371838,0.023466969999999997,-0.06504477,0.048627859999999995,-0.016106510000000004,-3.573548445,18.043744435,-42.791156065,8.474689055,0.10022414365999999,-0.070792324655,-0.056683394570000004,-0.059614638885,0.046024014221000005,0.03093265911
01:22:36,0.11354589999999999,-0.07288771999999999,0.02340368,-0.06468788,0.04810584,-0.01589344,-3.57519958,18.05490914,-42.78922186,8.462151420000001,0.10068944104,-0.06993676582,-0.05740530308,-0.05918292794,0.045518171924000005,0.030873830839999998
01:22:36,0.11436107499999999,-0.07205705999999999,0.02334039,-0.06433099,0.04758381999999999,-0.015680370000000003,-3.576850715,18.066073845000002,-42.787287655,8.449613785,0.10115473842,-0.069081206985,-0.058127211590000005,-0.058751216995,0.045012329627000004,0.03081500257
01:22:36,0.11517625,-0.0712264,0.0232771,-0.0639741,0.047061799999999994,-0.015467300000000003,-3.57850185,18.07723855,-42.78535345,8.437076150000001,0.1016200358,-0.06822564815,-0.0588491201,-0.05831950605,0.044506487330000004,0.030756174299999998
01:22:36,0.115991425,-0.07039574,0.023213809999999998,-0.06361721000000001,0.046539779999999996,-0.015254230000000004,-3.5801529850000002,18.088403255,-42.783419245,8.424538515,0.10208533317999999,-0.067370089315,-0.05957102861000001,-0.057887795105,0.044000645033,0.03069734603
01:22:36,0.1168066,-0.06956508,0.02315052,-0.06326032000000001,0.04601775999999999,-0.015041160000000005,-3.58180412,18.09956796,-42.78148504,8.41200088,0.10255063056,-0.06651453048,-0.06029293712,-0.057456084160000004,0.043494802736,0.030638517759999997
01:22:36,0.117621775,-0.06873441999999999,0.02308723,-0.06290343000000001,0.04549573999999999,-0.014828090000000002,-3.583455255,18.110732665,-42.779550835,8.399463245,0.10301592794,-0.06565897164500001,-0.061014845629999995,-0.057024373215,0.042988960439,0.03057968949
01:22:36,0.11843694999999999,-0.06790376,0.02302394,-0.06254654000000001,0.044973719999999995,-0.014615020000000003,-3.58510639,18.12189737,-42.777616630000004,8.38692561,0.10348122532,-0.06480341281,-0.06173675414,-0.05659266227,0.042483118142,0.03052086122
01:22:36,0.11925212499999999,-0.0670731,0.02296065,-0.062189650000000006,0.0444517,-0.014401950000000004,-3.586757525,18.133062075,-42.775682425,8.374387975000001,0.10394652269999999,-0.063947853975,-0.062458662649999996,-0.056160951325,0.041977275845,0.03046203295
01:22:36,0.12006729999999999,-0.06624244,0.02289736,-0.06183276,0.04392967999999999,-0.014188880000000004,-3.5884086600000002,18.14422678,-42.77374822,8.36185034,0.10441182008,-0.06309229514,-0.06318057116,-0.05572924038,0.041471433548,0.030403204679999997
01:22:36,0.12088247499999999,-0.06541177999999999,0.022834069999999998,-0.06147587,0.043407659999999994,-0.013975810000000002,-3.590059795,18.155391485,-42.771814015000004,8.349312705000001,0.10487711746,-0.062236736305,-0.06390247967,-0.055297529435,0.040965591251,0.03034437641
01:22:36,0.12169764999999999,-0.06458111999999999,0.022770779999999997,-0.06111898,0.042885639999999996,-0.013762740000000002,-3.59171093,18.16655619,-42.76987981,8.33677507,0.10534241484,-0.061381177470000006,-0.06462438818,-0.05486581849,0.040459748954,0.03028554814
01:22:36,0.12251282499999999,-0.06375046,0.022707489999999997,-0.060762090000000005,0.04236362,-0.013549670000000003,-3.593362065,18.177720895,-42.767945605,8.324237435,0.10580771221999999,-0.060525618635,-0.06534629669,-0.054434107545,0.039953906657,0.030226719869999998
01:22:36,0.123328,-0.0629198,0.0226442,-0.060405200000000006,0.04184159999999999,-0.013336600000000004,-3.5950132,18.1888856,-42.766011400000004,8.3116998,0.1062730096,-0.05967005980000001,-0.0660682052,-0.0540023966,0.03944806436000001,0.0301678916
01:22:36,0.124143175,-0.06208914,0.02258091,-0.06004831,0.041319579999999995,-0.013123530000000005,-3.5966643350000003,18.200050305,-42.764077195,8.299162165,0.10673830698,-0.058814500965,-0.06679011371,-0.053570685655,0.03894222206300001,0.030109063329999998
01:22:36,0.12495835,-0.06125847999999999,0.02251762,-0.05969142,0.04079756,-0.012910460000000002,-3.59831547,18.21121501,-42.76214299,8.286624530000001,0.10720360436,-0.057958942129999996,-0.06751202222,-0.05313897471,0.038436379766000006,0.03005023506
01:22:36,0.125773525,-0.06042781999999999,0.022454329999999998,-0.05933453,0.04027554,-0.012697390000000003,-3.599966605,18.222379715,-42.760208785,8.274086895,0.10766890173999999,-0.057103383295000004,-0.06823393073,-0.052707263765,0.037930537469000006,0.029991406789999998
01:22:36,0.12658869999999997,-0.059597159999999996,0.02239104,-0.058977640000000005,0.03975352,-0.012484320000000004,-3.60161774,18.23354442,-42.75827458,8.26154926,0.10813419912,-0.05624782446,-0.06895583924,-0.05227555282,0.037424695172000005,0.02993257852
01:22:36,0.12740387499999997,-0.0587665,0.02232775,-0.058620750000000006,0.03923149999999999,-0.012271250000000004,-3.603268875,18.244709125,-42.756340375,8.249011625000001,0.1085994965,-0.055392265625000006,-0.06967774775,-0.051843841875,0.036918852875000005,0.029873750249999997
01:22:36,0.12821904999999997,-0.05793583999999999,0.02226446,-0.05826386,0.03870947999999999,-0.012058180000000002,-3.6049200100000003,18.25587383,-42.75440617,8.23647399,0.10906479388,-0.05453670679,-0.07039965626,-0.05141213093,0.036413010578000005,0.02981492198
01:22:36,0.12903422499999997,-0.05710517999999999,0.02220117,-0.05790697,0.03818745999999999,-0.011845110000000002,-3.606571145,18.267038535,-42.752471965,8.223936355000001,0.10953009125999999,-0.05368114795500001,-0.07112156477,-0.050980419985,0.035907168281000004,0.02975609371
01:22:36,0.12984939999999998,-0.056274519999999995,0.02213788,-0.05755008,0.037665439999999994,-0.011632040000000003,-3.60822228,18.27820324,-42.75053776,8.21139872,0.10999538864,-0.05282558912,-0.07184347328,-0.05054870904,0.035401325984000004,0.02969726544
01:22:36,0.13066457499999998,-0.05544386,0.022074589999999998,-0.057193190000000005,0.037143419999999996,-0.011418970000000004,-3.609873415,18.289367945000002,-42.748603555,8.198861085,0.11046068602,-0.051970030284999996,-0.07256538179,-0.050116998095000004,0.034895483687000003,0.029638437169999997
01:22:36,0.13147974999999998,-0.0546132,0.022011299999999998,-0.056836300000000006,0.0366214,-0.011205900000000005,-3.61152455,18.30053265,-42.74666935,8.18632345,0.1109259834,-0.051114471450000004,-0.0732872903,-0.04968528715,0.03438964139,0.0295796089
01:22:36,0.13229492499999998,-0.05378253999999999,0.021948009999999997,-0.05647941,0.03609938,-0.010992830000000002,-3.613175685,18.311697355,-42.744735145,8.173785815,0.11139128077999999,-0.050258912615,-0.07400919881,-0.049253576205,0.033883799093,0.02952078063
01:22:36,0.13311009999999998,-0.05295187999999999,0.021884719999999996,-0.05612252,0.03557735999999999,-0.010779760000000003,-3.61482682,18.322862060000002,-42.74280094,8.161248180000001,0.11185657816,-0.049403353780000006,-0.07473110732,-0.04882186526,0.033377956796,0.029461952359999998
01:22:36,0.13392527499999998,-0.052121219999999996,0.02182143,-0.055765630000000004,0.03505533999999999,-0.010566690000000004,-3.616477955,18.334026765,-42.740866735,8.148710545,0.11232187554,-0.048547794945,-0.07545301583,-0.048390154315,0.032872114499,0.029403124089999996
01:22:36,0.13474044999999998,-0.05129056,0.02175814,-0.055408740000000005,0.03453331999999999,-0.010353620000000004,-3.61812909,18.34519147,-42.73893253,8.13617291,0.11278717292,-0.04769223611000001,-0.07617492434,-0.04795844337,0.032366272202,0.029344295819999998
01:22:36,0.13555562499999999,-0.05045989999999999,0.021694849999999998,-0.055051850000000006,0.034011299999999994,-0.010140550000000002,-3.619780225,18.356356175000002,-42.736998325,8.123635275,0.11325247029999999,-0.046836677275,-0.07689683285,-0.047526732425,0.031860429905,0.02928546755
01:22:36,0.1363708,-0.04962923999999999,0.02163156,-0.05469496,0.033489279999999996,-0.009927480000000002,-3.62143136,18.36752088,-42.73506412,8.11109764,0.11371776768,-0.045981118439999996,-0.07761874136000001,-0.04709502148,0.031354587608,0.02922663928
01:22:36,0.137185975,-0.048798579999999994,0.02156827,-0.05433807,0.03296726,-0.009714410000000003,-3.6230824950000002,18.378685585,-42.733129915,8.098560005,0.11418306506,-0.045125559605000004,-0.07834064987,-0.046663310535,0.030848745311,0.02916781101
01:22:36,0.13800115,-0.04796792,0.02150498,-0.053981180000000004,0.03244524,-0.009501340000000004,-3.62473363,18.389850290000002,-42.73119571,8.08602237,0.11464836243999998,-0.04427000077,-0.07906255838,-0.04623159959,0.030342903014,0.029108982739999997
01:22:36,0.138816325,-0.04713726,0.02144169,-0.053624290000000005,0.03192321999999999,-0.009288270000000005,-3.626384765,18.401014995,-42.729261505000004,8.073484735000001,0.11511365981999999,-0.043414441935000006,-0.07978446689,-0.045799888645,0.029837060717,0.02905015447
01:22:36,0.1396315,-0.04630659999999999,0.0213784,-0.053267400000000006,0.03140119999999999,-0.009075200000000002,-3.6280359,18.4121797,-42.7273273,8.0609471,0.1155789572,-0.0425588831,-0.0805063754,-0.0453681777,0.02933121842,0.0289913262
01:22:36,0.140446675,-0.04547593999999999,0.021315109999999998,-0.05291051,0.030879179999999992,-0.008862130000000003,-3.629687035,18.423344405,-42.725393095,8.048409465,0.11604425458,-0.04170332426500001,-0.08122828391,-0.044936466755,0.028825376123,0.02893249793
01:22:36,0.14126185,-0.044645279999999996,0.021251819999999998,-0.05255362,0.030357159999999994,-0.008649060000000004,-3.6313381700000003,18.43450911,-42.72345889,8.035871830000001,0.11650955195999999,-0.04084776543,-0.08195019242,-0.04450475581,0.028319533826,0.028873669659999997
01:22:36,0.14207702499999997,-0.04381462,0.021188529999999997,-0.052196730000000004,0.029835139999999996,-0.008435990000000004,-3.632989305,18.445673815,-42.721524685,8.023334195,0.11697484933999999,-0.039992206594999996,-0.08267210093,-0.044073044865,0.027813691528999998,0.02881484139
01:22:36,0.14289219999999997,-0.04298395999999999,0.021125239999999997,-0.051839840000000005,0.029313119999999998,-0.008222920000000002,-3.63464044,18.45683852,-42.71959048,8.010796560000001,0.11744014672,-0.039136647760000004,-0.08339400944,-0.04364133392,0.027307849231999998,0.02875601312
01:22:36,0.14370737499999997,-0.04215329999999999,0.02106195,-0.051482950000000006,0.0287911,-0.008009850000000002,-3.636291575,18.468003225,-42.717656275,7.998258925,0.1179054441,-0.038281088925,-0.08411591795,-0.043209622975,0.02680200693500001,0.028697184849999998
01:22:36,0.14452254999999997,-0.041322639999999994,0.02099866,-0.05112606,0.028269079999999988,-0.007796780000000003,-3.63794271,18.47916793,-42.71572207,7.985721290000001,0.11837074147999999,-0.037425530090000006,-0.08483782646,-0.042777912030000004,0.02629616463800001,0.028638356579999996
01:22:36,0.14533772499999997,-0.04049198,0.02093537,-0.05076917,0.02774705999999999,-0.0075837100000000005,-3.6395938450000003,18.490332635,-42.713787865,7.973183655000001,0.11883603885999999,-0.036569971255,-0.08555973497,-0.04234620108500001,0.02579032234100001,0.028579528309999998
01:22:36,0.14615289999999997,-0.03966132,0.02087208,-0.050412280000000004,0.027225039999999992,-0.007370640000000005,-3.64124498,18.50149734,-42.71185366,7.96064602,0.11930133624,-0.03571441242000001,-0.08628164348,-0.041914490139999996,0.02528448004400001,0.02852070004
01:22:36,0.14696807499999998,-0.03883065999999999,0.02080879,-0.050055390000000005,0.026703019999999994,-0.007157570000000002,-3.642896115,18.512662045,-42.709919455,7.948108385,0.11976663362000001,-0.034858853585000016,-0.08700355199,-0.041482779195,0.02477863774700001,0.02846187177
01:22:36,0.14778324999999998,-0.03799999999999999,0.0207455,-0.04969850000000001,0.026180999999999996,-0.006944500000000006,-3.64454725,18.52382675,-42.70798525,7.93557075,0.12023193099999999,-0.034003294749999996,-0.0877254605,-0.04105106825,0.02427279545000001,0.0284030435
01:22:36,0.14859842499999998,-0.037169339999999995,0.02068221,-0.04934161,0.025658979999999998,-0.0067314300000000035,-3.646198385,18.534991455,-42.706051045,7.923033115000001,0.12069722838,-0.033147735915000004,-0.08844736901,-0.040619357305000006,0.02376695315300001,0.028344215229999997
01:22:36,0.14941359999999998,-0.036338679999999984,0.02061892,-0.04898472,0.02513696,-0.006518360000000001,-3.6478495200000003,18.546156160000002,-42.70411684,7.910495480000001,0.12116252576,-0.03229217708000001,-0.08916927751999999,-0.040187646359999996,0.02326111085600001,0.02828538696
01:22:36,0.15022877499999998,-0.03550802,0.02055563,-0.048627830000000004,0.024614939999999988,-0.006305290000000005,-3.649500655,18.557320865,-42.702182635,7.8979578450000005,0.12162782314000001,-0.03143661824499999,-0.08989118603,-0.039755935415,0.022755268559000008,0.02822655869
01:22:36,0.15104394999999998,-0.03467735999999999,0.020492339999999998,-0.048270940000000005,0.02409291999999999,-0.006092220000000002,-3.65115179,18.56848557,-42.70024843,7.88542021,0.12209312051999999,-0.03058105941,-0.09061309454,-0.03932422447,0.022249426262000008,0.02816773042
01:22:36,0.15185912499999998,-0.03384670000000001,0.020429049999999997,-0.04791405000000001,0.023570899999999992,-0.005879150000000007,-3.652802925,18.579650275,-42.698314225,7.872882575,0.1225584179,-0.029725500575000008,-0.09133500305,-0.038892513525000005,0.021743583965000007,0.028108902149999997
01:22:36,0.15267429999999999,-0.033016039999999997,0.020365759999999997,-0.04755716,0.023048879999999994,-0.005666080000000004,-3.65445406,18.59081498,-42.69638002,7.860344940000001,0.12302371528,-0.028869941740000016,-0.09205691156,-0.038460802579999995,0.021237741668000007,0.028050073879999998
01:22:36,0.153489475,-0.032185379999999986,0.02030247,-0.04720027,0.022526859999999996,-0.005453010000000001,-3.6561051950000003,18.601979685,-42.694445815,7.847807305,0.12348901266000001,-0.028014382904999996,-0.09277882007,-0.038029091635,0.020731899371000007,0.02799124561
01:22:36,0.15430465,-0.03135472,0.02023918,-0.046843380000000004,0.022004839999999998,-0.005239940000000005,-3.6577563300000002,18.613144390000002,-42.69251161,7.835269670000001,0.12395431003999999,-0.027158824070000004,-0.09350072858,-0.03759738069,0.020226057074000006,0.027932417339999998
01:22:36,0.155119825,-0.030524059999999992,0.02017589,-0.046486490000000005,0.02148282,-0.005026870000000003,-3.659407465,18.624309095,-42.690577405,7.8227320350000005,0.12441960742,-0.026303265235000012,-0.09422263709,-0.037165669745000005,0.019720214777000006,0.027873589069999996
01:22:36,0.155935,-0.02969339999999998,0.020112599999999998,-0.04612960000000001,0.0209608,-0.0048138,-3.6610586,18.6354738,-42.6886432,7.8101944,0.1248849048,-0.025447706399999992,-0.0949445456,-0.036733958799999994,0.019214372480000005,0.027814760799999998
01:22:36,0.156750175,-0.028862739999999998,0.02004931,-0.04577271,0.02043877999999999,-0.004600730000000004,-3.662709735,18.646638505000002,-42.686708995,7.797656765000001,0.12535020218,-0.024592147565,-0.09566645411,-0.036302247855,0.018708530183000005,0.02775593253
01:22:36,0.15756535,-0.028032079999999987,0.01998602,-0.04541582,0.01991675999999999,-0.0043876600000000016,-3.6643608700000003,18.65780321,-42.68477479,7.78511913,0.12581549956,-0.023736588730000008,-0.09638836262,-0.03587053691,0.018202687886000005,0.02769710426
01:22:36,0.158380525,-0.027201420000000004,0.01992273,-0.045058930000000004,0.019394739999999994,-0.004174590000000006,-3.6660120050000002,18.668967915,-42.682840585,7.772581495000001,0.12628079694,-0.022881029895000016,-0.09711027113,-0.035438825965000004,0.017696845589000004,0.02763827599
01:22:36,0.1591957,-0.026370759999999993,0.01985944,-0.044702040000000005,0.018872719999999996,-0.003961520000000003,-3.66766314,18.680132620000002,-42.68090638,7.760043860000001,0.12674609432,-0.022025471059999996,-0.09783217964,-0.03500711502000001,0.017191003292000004,0.027579447719999997
01:22:36,0.160010875,-0.025540099999999982,0.01979615,-0.04434515,0.018350699999999998,-0.0037484500000000004,-3.669314275,18.691297325,-42.678972175,7.747506225,0.1272113917,-0.021169912225000004,-0.09855408815,-0.034575404074999996,0.016685160995000003,0.02752061945
01:22:36,0.16082605,-0.02470944,0.019732859999999998,-0.04398826,0.01782868,-0.0035353800000000046,-3.67096541,18.70246203,-42.67703797,7.73496859,0.12767668908,-0.02031435339000001,-0.09927599666,-0.03414369313,0.016179318698000003,0.02746179118
01:22:36,0.161641225,-0.02387877999999999,0.019669569999999997,-0.04363137,0.01730666,-0.003322310000000002,-3.6726165450000003,18.713626735000002,-42.675103765,7.722430955,0.12814198646,-0.019458794554999992,-0.09999790517,-0.033711982185,0.015673476401000003,0.02740296291
01:22:36,0.16245639999999997,-0.023048120000000005,0.019606279999999997,-0.043274480000000004,0.01678463999999999,-0.003109240000000006,-3.6742676800000003,18.72479144,-42.67316956,7.709893320000001,0.12860728384,-0.01860323572,-0.10071981368,-0.033280271240000006,0.015167634104000002,0.027344134639999997
01:22:36,0.16327157499999997,-0.022217459999999994,0.019542989999999996,-0.042917590000000005,0.01626261999999999,-0.0028961700000000035,-3.675918815,18.735956145,-42.671235355,7.697355685,0.12907258122,-0.017747676885000008,-0.10144172219,-0.032848560294999996,0.014661791807000002,0.027285306369999998
01:22:36,0.16408674999999998,-0.021386799999999984,0.0194797,-0.0425607,0.015740599999999993,-0.0026831000000000008,-3.67756995,18.74712085,-42.66930115,7.6848180500000005,0.1295378786,-0.016892118050000016,-0.1021636307,-0.03241684935,0.014155949510000002,0.0272264781
01:22:36,0.16490192499999998,-0.02055614,0.01941641,-0.04220381,0.015218579999999995,-0.002470030000000005,-3.679221085,18.758285555,-42.667366945,7.672280415,0.13000317598,-0.016036559214999996,-0.10288553921,-0.031985138405,0.013650107213000001,0.027167649829999998
01:22:36,0.16571709999999998,-0.01972547999999999,0.019353119999999998,-0.04184692,0.014696559999999997,-0.0022569600000000023,-3.6808722200000004,18.76945026,-42.66543274,7.65974278,0.13046847336,-0.015181000380000004,-0.10360744772,-0.031553427460000005,0.013144264916,0.027108821559999996
01:22:36,0.16653227499999998,-0.018894820000000007,0.01928983,-0.041490030000000004,0.01417454,-0.0020438900000000065,-3.6825233550000003,18.780614965,-42.663498535,7.647205145000001,0.13093377073999998,-0.014325441545000012,-0.10432935623,-0.031121716514999995,0.012638422619,0.027049993289999998
01:22:36,0.16734744999999998,-0.018064159999999996,0.01922654,-0.041133140000000006,0.013652520000000001,-0.0018308200000000038,-3.68417449,18.79177967,-42.66156433,7.63466751,0.13139906812,-0.013469882709999992,-0.10505126474,-0.030690005569999998,0.012132580322,0.02699116502
01:22:36,0.16816262499999998,-0.017233499999999985,0.01916325,-0.04077625,0.01313049999999999,-0.0016177500000000011,-3.685825625,18.802944375,-42.659630125,7.622129875000001,0.1318643655,-0.012614323875,-0.10577317325,-0.030258294625,0.011626738025,0.02693233675
01:22:36,0.16897779999999998,-0.016402840000000002,0.01909996,-0.04041936,0.012608479999999991,-0.0014046800000000054,-3.68747676,18.81410908,-42.65769592,7.6095922400000005,0.13232966288,-0.011758765040000008,-0.10649508175999998,-0.029826583680000004,0.011120895728000013,0.02687350848
01:22:36,0.16979297499999998,-0.015572179999999991,0.01903667,-0.04006247,0.012086459999999993,-0.0011916100000000027,-3.6891278950000004,18.825273785,-42.655761715,7.597054605,0.13279496025999998,-0.010903206205000016,-0.10721699026999999,-0.029394872735000008,0.010615053431000013,0.026814680209999997
01:22:36,0.17060815,-0.014741520000000008,0.018973379999999998,-0.039705580000000004,0.011564439999999995,-0.000978540000000007,-3.6907790300000003,18.83643849,-42.65382751,7.584516970000001,0.13326025764,-0.010047647369999996,-0.10793889878,-0.028963161789999997,0.010109211134000012,0.02675585194
01:22:36,0.171423325,-0.013910859999999997,0.018910089999999997,-0.039348690000000006,0.011042419999999997,-0.0007654700000000042,-3.692430165,18.847603195,-42.651893305,7.571979335,0.13372555502,-0.009192088535000004,-0.10866080729000001,-0.028531450845,0.009603368837000012,0.02669702367
01:22:36,0.1722385,-0.013080199999999986,0.018846799999999997,-0.03899180000000001,0.0105204,-0.0005524000000000015,-3.6940813,18.8587679,-42.6499591,7.559441700000001,0.1341908524,-0.008336529700000012,-0.10938271579999999,-0.028099739900000004,0.009097526540000012,0.0266381954
01:22:36,0.173053675,-0.012249540000000003,0.018783509999999996,-0.03863491000000001,0.009998380000000001,-0.00033933000000000574,-3.695732435,18.869932605000002,-42.648024895,7.5469040650000005,0.13465614977999998,-0.007480970864999992,-0.11010462431,-0.027668028955000007,0.008591684243000011,0.026579367129999996
01:22:36,0.17386885,-0.011418879999999992,0.01872022,-0.03827802000000001,0.00947635999999999,-0.00012626000000000304,-3.6973835700000004,18.88109731,-42.64609069,7.53436643,0.13512144716,-0.00662541203,-0.11082653282,-0.027236318009999996,0.00808584194600001,0.026520538859999998
01:22:36,0.174684025,-0.010588219999999982,0.01865693,-0.03792113,0.008954339999999991,8.680999999999967e-05,-3.6990347050000003,18.892262015,-42.644156484999996,7.521828795,0.13558674454,-0.005769853195000008,-0.11154844133000001,-0.026804607065,0.0075799996490000104,0.02646171059
01:22:36,0.1754992,-0.009757559999999998,0.018593639999999998,-0.03756424,0.008432319999999993,0.00029987999999999543,-3.7006858400000002,18.90342672,-42.64222228,7.50929116,0.13605204192,-0.0049142943600000155,-0.11227034983999999,-0.026372896120000003,0.00707415735200001,0.026402882319999998
01:22:36,0.176314375,-0.008926899999999988,0.01853035,-0.03720735,0.007910299999999995,0.0005129499999999981,-3.702336975,18.914591425,-42.640288075,7.496753525000001,0.13651733929999998,-0.004058735524999996,-0.11299225835,-0.025941185175000006,0.00656831505500001,0.026344054049999996
01:22:36,0.17712955,-0.008096240000000005,0.01846706,-0.03685046,0.007388279999999997,0.0007260199999999939,-3.70398811,18.92575613,-42.638353869999996,7.48421589,0.13698263668,-0.0032031766900000036,-0.11371416686000001,-0.025509474229999995,0.006062472758000009,0.026285225779999997
01:22:36,0.177944725,-0.007265579999999994,0.01840377,-0.03649357,0.006866259999999999,0.0009390899999999966,-3.705639245,18.936920835000002,-42.636419665,7.4716782550000005,0.13744793406,-0.0023476178550000115,-0.11443607536999999,-0.025077763285,0.005556630461000009,0.02622639751
01:22:36,0.17875989999999997,-0.006434919999999983,0.01834048,-0.036136680000000004,0.006344240000000001,0.0011521599999999993,-3.7072903800000003,18.94808554,-42.63448546,7.45914062,0.13791323144,-0.0014920590199999917,-0.11515798388,-0.024646052340000002,0.0050507881640000085,0.02616756924
01:22:36,0.17957507499999997,-0.00560426,0.01827719,-0.035779790000000006,0.005822219999999989,0.001365229999999995,-3.7089415150000002,18.959250245,-42.632551255,7.446602985,0.13837852881999999,-0.0006365001849999996,-0.11587989239,-0.024214341395000005,0.004544945867000008,0.02610874097
01:22:36,0.18039024999999997,-0.004773599999999989,0.018213899999999998,-0.03542290000000001,0.005300199999999991,0.0015782999999999978,-3.71059265,18.970414950000002,-42.63061705,7.434065350000001,0.1388438262,0.00021905864999999247,-0.11660180090000001,-0.023782630449999995,0.004039103570000008,0.026049912699999997
01:22:36,0.18120542499999998,-0.003942940000000006,0.018150609999999998,-0.03506601000000001,0.004778179999999993,0.0017913699999999935,-3.712243785,18.981579655,-42.628682845,7.421527715,0.13930912358,0.0010746174849999846,-0.11732370940999999,-0.023350919504999998,0.0035332612730000074,0.02599108443
01:22:36,0.18202059999999998,-0.003112279999999995,0.018087319999999997,-0.034709119999999996,0.004256159999999995,0.0020044399999999962,-3.71389492,18.99274436,-42.62674864,7.408990080000001,0.13977442096,0.0019301763200000044,-0.11804561792,-0.02291920856,0.003027418976000007,0.02593225616
01:22:36,0.18283577499999998,-0.002281619999999984,0.018024029999999996,-0.03435223,0.003734139999999997,0.002217509999999999,-3.7155460550000003,19.003909065000002,-42.624814435,7.396452445,0.14023971833999999,0.0027857351549999965,-0.11876752643,-0.022487497615000004,0.0025215766790000066,0.025873427889999998
01:22:36,0.18365094999999998,-0.0014509600000000011,0.01796074,-0.03399534,0.003212119999999999,0.0024305799999999947,-3.7171971900000003,19.01507377,-42.62288023,7.38391481,0.14070501572,0.0036412939899999885,-0.11948943493999999,-0.022055786670000008,0.002015734382000006,0.025814599619999996
01:22:36,0.18446612499999998,-0.0006202999999999903,0.01789745,-0.03363845,0.002690100000000001,0.0026436499999999974,-3.718848325,19.026238475,-42.620946025,7.371377175000001,0.1411703131,0.004496852825000008,-0.12021134345,-0.021624075724999997,0.0015098920850000058,0.025755771349999998
01:22:36,0.18528129999999998,0.00021035999999999277,0.017834159999999998,-0.03328156,0.002168079999999989,0.002856719999999993,-3.72049946,19.037403180000002,-42.61901182,7.35883954,0.14163561048,0.0053524116600000005,-0.12093325196,-0.02119236478,0.0010040497880000054,0.02569694308
01:22:36,0.18609647499999998,0.0010410200000000036,0.01777087,-0.03292467,0.0016460599999999909,0.003069789999999996,-3.722150595,19.048567885,-42.617077615,7.346301905000001,0.14210090786,0.0062079704949999925,-0.12165516047000001,-0.020760653835000004,0.000498207491000005,0.025638114809999998
01:22:36,0.18691164999999998,0.0018716800000000144,0.01770758,-0.032567780000000005,0.0011240399999999928,0.0032828599999999986,-3.7238017300000004,19.05973259,-42.61514341,7.3337642700000005,0.14256620524,0.007063529329999985,-0.12237706897999999,-0.020328942890000007,-7.634805999995331e-06,0.025579286539999996
01:22:36,0.18772682499999999,0.0027023399999999975,0.01764429,-0.032210890000000006,0.0006020199999999948,0.0034959299999999943,-3.7254528650000003,19.070897295,-42.613209205,7.321226635,0.14303150262,0.007919088165000004,-0.12309897749,-0.019897231944999996,-0.0005134771029999957,0.025520458269999997
01:22:37,0.188542,0.003533,0.017581,-0.031854,8e-05,0.003709,-3.727104,19.082062,-42.611275,7.308689,0.1434968,0.008774647,-0.123820886,-0.019465521,-0.0010193194,0.02546163
01:22:37,0.18653827499999998,0.0042667,0.01599355,-0.031108255,0.00010663500000000001,0.004092525,-3.720448325,19.081148035000002,-42.611149114999996,7.3171541950000005,0.14089891315,0.009523152265,-0.12346567726,-0.018682463395,-0.000977937823,0.025155148574999998
01:22:37,0.18453455,0.0050004,0.0144061,-0.03036251,0.00013327,0.00447605,-3.7137926500000003,19.08023407,-42.61102323,7.32561939,0.13830102630000002,0.01027165753,-0.12311046852,-0.01789940579,-0.000936556246,0.02484866715
01:22:37,0.18253082499999998,0.0057341,0.01281865,-0.029616765,0.000159905,0.004859575,-3.707136975,19.079320105,-42.610897345,7.334084585,0.13570313945,0.011020162795,-0.12275525978,-0.017116348185,-0.000895174669,0.024542185725
01:22:37,0.1805271,0.006467799999999999,0.0112312,-0.02887102,0.00018654,0.0052431,-3.7004813000000003,19.078406140000002,-42.61077146,7.342549780000001,0.1331052526,0.011768668060000001,-0.12240005104,-0.01633329058,-0.000853793092,0.0242357043
01:22:37,0.17852337499999998,0.0072015,0.00964375,-0.028125275,0.00021317500000000002,0.005626625,-3.693825625,19.077492175,-42.610645575,7.351014975,0.13050736575,0.012517173325,-0.12204484230000001,-0.015550232975000002,-0.000812411515,0.023929222875
01:22:37,0.17651964999999997,0.0079352,0.008056299999999999,-0.02737953,0.00023981000000000002,0.00601015,-3.6871699500000004,19.07657821,-42.61051969,7.35948017,0.1279094789,0.01326567859,-0.12168963356000001,-0.01476717537,-0.000771029938,0.023622741449999998
01:22:37,0.174515925,0.008668899999999998,0.00646885,-0.026633785,0.00026644500000000003,0.006393675,-3.680514275,19.075664245000002,-42.610393805,7.367945365000001,0.12531159205,0.014014183855,-0.12133442482000001,-0.013984117765000002,-0.000729648361,0.023316260025
01:22:37,0.17251219999999998,0.009402599999999999,0.004881399999999999,-0.02588804,0.00029308000000000003,0.0067772,-3.6738586,19.07475028,-42.61026792,7.37641056,0.12271370520000001,0.01476268912,-0.12097921608000001,-0.01320106016,-0.000688266784,0.0230097786
01:22:37,0.170508475,0.010136299999999999,0.0032939499999999986,-0.025142295000000002,0.00031971500000000004,0.007160725,-3.6672029250000002,19.073836315,-42.610142035,7.384875755,0.12011581835,0.015511194385,-0.12062400734,-0.012418002555000002,-0.000646885207,0.022703297174999998
01:22:37,0.16850474999999998,0.01087,0.0017064999999999997,-0.02439655,0.00034635,0.00754425,-3.66054725,19.07292235,-42.61001615,7.39334095,0.1175179315,0.01625969965,-0.1202687986,-0.011634944950000002,-0.0006055036299999999,0.02239681575
01:22:37,0.166501025,0.011603699999999998,0.00011904999999999902,-0.023650805,0.000372985,0.007927775,-3.6538915750000003,19.072008385,-42.609890265,7.401806145,0.11492004465,0.017008204915,-0.11991358986,-0.010851887345000002,-0.000564122053,0.022090334325
01:22:37,0.16449729999999999,0.012337399999999998,-0.0014684000000000016,-0.022905059999999998,0.00039962,0.008311299999999999,-3.6472359,19.07109442,-42.60976438,7.41027134,0.1123221578,0.01775671018,-0.11955838112,-0.010068829740000002,-0.000522740476,0.021783852899999998
01:22:37,0.162493575,0.013071099999999999,-0.0030558500000000023,-0.022159315,0.000426255,0.008694825,-3.6405802250000003,19.070180455,-42.609638495,7.418736535,0.10972427095000001,0.018505215445,-0.11920317238,-0.009285772135000002,-0.00048135889899999997,0.021477371475
01:22:37,0.16048985,0.013804799999999997,-0.0046432999999999995,-0.02141357,0.00045289,0.009078349999999999,-3.63392455,19.06926649,-42.609512609999996,7.42720173,0.1071263841,0.019253720709999998,-0.11884796364,-0.008502714530000002,-0.00043997732200000005,0.02117089005
01:22:37,0.15848612499999998,0.014538499999999998,-0.00623075,-0.020667825,0.000479525,0.009461875,-3.6272688750000004,19.068352525,-42.609386725,7.4356669250000005,0.10452849725,0.020002225975000003,-0.11849275490000001,-0.007719656925000002,-0.000398595745,0.020864408624999997
01:22:37,0.1564824,0.015272199999999998,-0.0078182,-0.01992208,0.0005061600000000001,0.009845399999999999,-3.6206132,19.06743856,-42.60926084,7.44413212,0.10193061040000001,0.02075073124,-0.11813754616000001,-0.006936599320000002,-0.000357214168,0.0205579272
01:22:37,0.15447867499999998,0.0160059,-0.009405650000000002,-0.019176335,0.0005327950000000001,0.010228925,-3.613957525,19.066524595,-42.609134955,7.452597315,0.09933272355,0.021499236504999998,-0.11778233742000001,-0.006153541715000002,-0.00031583259099999996,0.020251445775
01:22:37,0.15247495,0.0167396,-0.010993100000000002,-0.01843059,0.0005594300000000001,0.010612449999999999,-3.6073018500000003,19.065610630000002,-42.60900907,7.4610625100000005,0.0967348367,0.022247741770000003,-0.11742712868,-0.005370484110000002,-0.00027445101399999994,0.01994496435
01:22:37,0.150471225,0.017473299999999997,-0.01258055,-0.017684844999999998,0.000586065,0.010995975,-3.600646175,19.064696665,-42.608883184999996,7.469527705,0.09413694985000001,0.022996247035,-0.11707191994,-0.004587426505000002,-0.00023306943700000002,0.019638482925
01:22:37,0.14846749999999997,0.018206999999999997,-0.014168,-0.0169391,0.0006127,0.011379499999999999,-3.5939905000000003,19.0637827,-42.6087573,7.4779929,0.091539063,0.0237447523,-0.1167167112,-0.003804368900000004,-0.00019168786,0.0193320015
01:22:37,0.146463775,0.018940699999999998,-0.015755450000000004,-0.016193355,0.000639335,0.011763025,-3.587334825,19.062868735000002,-42.608631415,7.486458095000001,0.08894117615,0.024493257565,-0.11636150246,-0.0030213112950000023,-0.00015030628299999996,0.019025520075
01:22:37,0.14446004999999998,0.019674399999999998,-0.0173429,-0.01544761,0.00066597,0.012146549999999999,-3.5806791500000004,19.06195477,-42.60850553,7.49492329,0.0863432893,0.02524176283,-0.11600629372,-0.002238253690000004,-0.00010892470600000004,0.01871903865
01:22:37,0.142456325,0.0204081,-0.01893035,-0.014701865000000001,0.000692605,0.012530075,-3.574023475,19.061040805,-42.608379645,7.503388485,0.08374540245,0.025990268095,-0.11565108498,-0.0014551960850000024,-6.754312900000001e-05,0.018412557225
01:22:37,0.14045259999999998,0.0211418,-0.020517800000000003,-0.013956119999999999,0.00071924,0.012913599999999999,-3.5673678,19.06012684,-42.60825376,7.51185368,0.0811475156,0.02673877336,-0.11529587624000001,-0.0006721384800000042,-2.6161551999999985e-05,0.0181060758
01:22:37,0.13844887499999997,0.0218755,-0.02210525,-0.013210375,0.000745875,0.013297125,-3.5607121250000002,19.059212875,-42.608127875,7.520318875,0.07854962875,0.027487278625,-0.11494066750000001,0.00011091912499999745,1.5220024999999934e-05,0.017799594374999998
01:22:37,0.13644515,0.0226092,-0.023692700000000004,-0.01246463,0.00077251,0.013680649999999999,-3.55405645,19.05829891,-42.60800199,7.52878407,0.0759517419,0.02823578389,-0.11458545876000001,0.0008939767299999957,5.660160200000007e-05,0.01749311295
01:22:37,0.134441425,0.0233429,-0.02528015,-0.011718884999999998,0.000799145,0.014064175,-3.5474007750000003,19.057384945,-42.607876105,7.537249265,0.07335385505,0.028984289155000002,-0.11423025002000001,0.0016770343349999974,9.798317899999999e-05,0.017186631525
01:22:37,0.1324377,0.024076599999999997,-0.0268676,-0.01097314,0.00082578,0.014447699999999999,-3.5407451,19.05647098,-42.60775022,7.54571446,0.0707559682,0.02973279442,-0.11387504128,0.0024600919399999956,0.0001393647559999999,0.016880150099999998
01:22:37,0.13043397499999998,0.024810299999999997,-0.028455050000000003,-0.010227395,0.000852415,0.014831225,-3.5340894250000003,19.055557015,-42.607624335,7.554179655,0.06815808135,0.030481299685,-0.11351983254,0.0032431495449999972,0.00018074633300000005,0.016573668675
01:22:37,0.12843025,0.025543999999999997,-0.0300425,-0.009481650000000001,0.00087905,0.015214749999999999,-3.52743375,19.05464305,-42.60749845,7.56264485,0.0655601945,0.031229804950000002,-0.1131646238,0.0040262071499999955,0.00022212790999999996,0.01626718725
01:22:37,0.12642652499999998,0.026277699999999998,-0.031629950000000004,-0.008735904999999999,0.000905685,0.015598275,-3.520778075,19.053729085,-42.607372565,7.571110045,0.06296230765,0.031978310215,-0.11280941506,0.004809264754999997,0.0002635094870000001,0.015960705824999998
01:22:37,0.12442279999999999,0.027011399999999998,-0.0332174,-0.00799016,0.00093232,0.015981799999999997,-3.5141224,19.05281512,-42.607246679999996,7.5795752400000005,0.0603644208,0.032726815480000004,-0.11245420632,0.005592322359999995,0.000304891064,0.0156542244
01:22:37,0.12241907499999999,0.027745099999999998,-0.03480485,-0.007244415000000001,0.000958955,0.016365324999999997,-3.507466725,19.051901155,-42.607120795,7.588040435,0.057766533950000004,0.033475320745,-0.11209899758,0.006375379964999994,0.00034627264099999994,0.015347742975
01:22:37,0.12041534999999999,0.0284788,-0.0363923,-0.006498669999999998,0.0009855900000000002,0.01674885,-3.5008110500000003,19.05098719,-42.60699491,7.59650563,0.055168647099999996,0.03422382601,-0.11174378884000001,0.007158437569999995,0.0003876542180000001,0.01504126155
01:22:37,0.11841162499999999,0.0292125,-0.03797975,-0.005752924999999999,0.001012225,0.017132375,-3.494155375,19.050073225000002,-42.606869025,7.6049708250000005,0.05257076025,0.034972331275000004,-0.11138858010000001,0.007941495174999993,0.000429035795,0.014734780125
01:22:37,0.11640789999999998,0.0299462,-0.039567200000000004,-0.00500718,0.0010388600000000002,0.017515899999999997,-3.4874997000000003,19.04915926,-42.60674314,7.61343602,0.04997287339999999,0.03572083654,-0.11103337136000001,0.008724552779999995,0.00047041737200000013,0.0144282987
01:22:37,0.11440417499999998,0.030679899999999996,-0.04115465,-0.004261435000000001,0.001065495,0.017899424999999997,-3.480844025,19.048245295,-42.606617254999996,7.621901215,0.04737498655,0.036469341805,-0.11067816262,0.009507610384999993,0.000511798949,0.014121817275
01:22:37,0.11240044999999999,0.03141359999999999,-0.0427421,-0.0035156899999999984,0.00109213,0.01828295,-3.4741883500000004,19.047331330000002,-42.60649137,7.630366410000001,0.0447770997,0.037217847070000004,-0.11032295388,0.010290667989999995,0.000553180526,0.013815335849999999
01:22:37,0.11039672499999999,0.0321473,-0.04432955,-0.0027699449999999994,0.001118765,0.018666475,-3.467532675,19.046417365,-42.606365485,7.638831605,0.042179212849999995,0.037966352335,-0.10996774514,0.011073725594999993,0.0005945621030000001,0.013508854425
01:22:37,0.10839299999999999,0.032880999999999994,-0.045917,-0.0020242000000000003,0.0011454,0.019049999999999997,-3.460877,19.0455034,-42.6062396,7.6472968,0.039581326,0.0387148576,-0.1096125364,0.011856783199999991,0.00063594368,0.013202373
01:22:37,0.10638927499999999,0.0336147,-0.047504450000000004,-0.0012784549999999978,0.001172035,0.019433525,-3.4542213250000002,19.044589435,-42.606113715,7.655761995,0.03698343914999999,0.039463362865000004,-0.10925732766,0.012639840804999997,0.000677325257,0.012895891575
01:22:37,0.10438554999999998,0.034348399999999994,-0.04909190000000001,-0.0005327099999999987,0.00119867,0.01981705,-3.44756565,19.04367547,-42.60598783,7.66422719,0.0343855523,0.040211868129999995,-0.10890211892,0.013422898409999995,0.0007187068340000001,0.01258941015
01:22:37,0.10238182499999998,0.0350821,-0.05067935,0.0002130350000000003,0.001225305,0.020200575,-3.4409099750000003,19.042761505,-42.605861945,7.672692385,0.03178766545,0.040960373395,-0.10854691018000001,0.014205956014999993,0.000760088411,0.012282928725
01:22:37,0.10037809999999998,0.035815799999999995,-0.0522668,0.0009587799999999994,0.00125194,0.020584099999999998,-3.4342543,19.04184754,-42.60573606,7.68115758,0.029189778599999994,0.041708878660000004,-0.10819170144000001,0.014989013619999991,0.0008014699879999999,0.0119764473
01:22:37,0.09837437499999999,0.0365495,-0.053854250000000006,0.0017045249999999984,0.0012785750000000001,0.020967625,-3.4275986250000003,19.040933575,-42.605610175,7.689622775,0.02659189175,0.042457383924999995,-0.10783649270000001,0.015772071224999996,0.0008428515650000001,0.011669965875
01:22:37,0.09637064999999999,0.037283199999999996,-0.0554417,0.0024502699999999975,0.00130521,0.02135115,-3.42094295,19.04001961,-42.60548429,7.6980879700000004,0.02399400489999999,0.04320588919,-0.10748128396000001,0.016555128829999995,0.000884233142,0.01136348445
01:22:37,0.09436692499999999,0.0380169,-0.05702915,0.0031960150000000034,0.0013318450000000001,0.021734675,-3.4142872750000004,19.039105645,-42.605358405,7.706553165,0.021396118049999996,0.043954394455000004,-0.10712607522,0.017338186434999993,0.0009256147190000001,0.011057003025
01:22:37,0.09236319999999998,0.038750599999999996,-0.058616600000000005,0.0039417600000000025,0.00135848,0.022118199999999998,-3.4076316,19.03819168,-42.60523252,7.71501836,0.018798231199999987,0.044702899719999994,-0.10677086648,0.01812124403999999,0.000966996296,0.0107505216
01:22:37,0.09035947499999998,0.03948429999999999,-0.060204049999999995,0.0046875050000000015,0.0013851150000000001,0.022501724999999997,-3.400975925,19.037277715000002,-42.605106635,7.7234835550000005,0.016200344350000007,0.045451404985,-0.10641565774,0.01890430164499999,0.001008377873,0.010444040175
01:22:37,0.08835574999999998,0.040218,-0.0617915,0.005433250000000001,0.00141175,0.02288525,-3.3943202500000003,19.03636375,-42.604980749999996,7.73194875,0.013602457499999998,0.046199910250000004,-0.106060449,0.019687359249999994,0.0010497594499999999,0.010137558750000001
01:22:37,0.08635202499999999,0.040951699999999994,-0.06337895,0.006178995,0.0014383850000000001,0.023268775,-3.387664575,19.035449785,-42.604854865,7.740413945,0.01100457064999999,0.04694841551500001,-0.10570524026,0.020470416854999993,0.0010911410270000002,0.009831077325
01:22:37,0.08434829999999999,0.0416854,-0.06496640000000001,0.006924739999999999,0.00146502,0.023652299999999998,-3.3810089000000003,19.034535820000002,-42.60472898,7.74887914,0.008406683799999981,0.04769692078,-0.10535003152,0.02125347445999999,0.0011325226040000001,0.009524595900000002
01:22:37,0.08234457499999999,0.042419099999999994,-0.06655385,0.007670484999999998,0.0014916550000000002,0.024035824999999997,-3.374353225,19.033621855,-42.604603095,7.757344335,0.00580879695,0.048445426045000003,-0.10499482278,0.02203653206499999,0.001173904181,0.009218114475
01:22:37,0.08034084999999999,0.0431528,-0.0681413,0.008416230000000004,0.00151829,0.02441935,-3.36769755,19.03270789,-42.60447721,7.76580953,0.0032109100999999918,0.04919393131000001,-0.10463961404000001,0.022819589669999994,0.001215285758,0.00891163305
