Timestamp,linacce_x,linacce_y,linacce_z,gyro_x,gyro_y,gyro_z,X-magnetometer,Y-magnetometer,Z-magnetometer,Yaw, worldXAccel,worldYAccel,worldZAccel,worldXgyro,worldYgyro,worldZgyro
20240424 02:52:33,-0.045611,-0.050015,0.113822,0.052185,-0.007429,-0.028698,-19.088783,2.230251,-4.444809,79.80322,0.09564014,-0.059610106,0.066055045,-0.00910221,-0.003871109,-0.048485093
20240424 02:52:33,-0.051841,-0.088803,-0.003496,0.060708,0.011747,-0.029763,-19.41584,1.924198,-4.562073,81.372536,-0.011471599,-0.08974181,0.077518374,-0.009291396,0.016688932,-0.062629305
20240424 02:52:33,-0.135239,-0.063145,-0.073697,0.057512,0.02027,-0.024436,-19.00132,2.430367,-4.858917,81.56614,-0.1041919,-0.058925625,0.14465044,-0.007216783,0.02572385,-0.06204646
20240424 02:52:33,-0.215381,-0.018867,-0.133533,0.052185,0.017074,-0.011652,-19.203903,2.128849,-4.573318,84.04502,-0.18968609,-0.009158492,0.20612992,0.002800322,0.02120974,-0.055256397
20240424 02:52:33,-0.233987,-0.036723,-0.21669,0.039401,0.005355,0.003263,-19.131802,2.697117,-4.341751,84.1866,-0.26949468,-0.014683865,0.22728646,0.014270252,0.006709856,-0.03904787
20240424 02:52:33,-0.166417,-0.051353,-0.233487,0.015964,-0.006364,0.012851,-19.149345,2.315193,-4.049042,83.452576,-0.2651626,-0.029364578,0.16594195,0.017766217,-0.007240764,-0.012834119
20240424 02:52:33,-0.089447,-0.06973,-0.228609,-0.002147,-0.004233,0.013916,-18.91309,2.246712,-4.712082,79.717224,-0.23794496,-0.051898275,0.09366502,0.012920019,-0.005494875,0.004066593
20240424 02:52:33,-0.02081,-0.080237,-0.194517,-0.019193,0.005355,0.007524,-19.352699,2.397446,-4.324387,80.42864,-0.18442546,-0.06514214,0.034275383,7.6191826E-4,0.004249189,0.017001003
20240424 02:52:33,-0.004229,-0.087719,-0.153195,-0.025585,0.012812,0.005393,-19.643902,2.471481,-4.46608,80.34678,-0.1389839,-0.07497009,0.023192737,-0.004022378,0.011627158,0.020578073
20240424 02:52:33,-0.03927,-0.087558,-0.056354,-0.030912,0.029858,0.005393,-19.476791,2.201035,-4.446762,80.5336,-0.058599964,-0.08368862,0.062043004,-0.007345245,0.028433522,0.020043314
20240424 02:52:33,-0.057318,-0.063884,0.010608,-0.023454,0.028793,0.009655,-19.406876,2.019218,-4.568176,81.04051,-0.002931373,-0.06647085,0.07550494,-0.001419676,0.026952077,0.013228814
20240424 02:52:33,-0.058771,-0.055269,0.074699,-0.011735,0.026662,0.020308,-19.424419,1.637291,-4.275482,81.120316,0.054948933,-0.062376466,0.07739175,0.013161138,0.024706837,0.003367052
20240424 02:52:33,0.023851,-0.066141,0.087039,0.00531,0.019205,0.022439,-19.450661,2.869869,-5.026062,76.77507,0.09347042,-0.070295654,0.005489262,0.021852884,0.018057566,-0.009511421
20240424 02:52:33,0.078886,-0.015777,0.067472,0.018094,0.018139,0.012851,-19.219646,2.688889,-4.208115,77.54251,0.09008697,-0.016981421,-0.064666376,0.017525736,0.017931215,-0.021997882
20240424 02:52:33,0.143207,0.026303,0.042233,0.028748,0.016009,-0.002064,-19.34412,2.684357,-4.610977,76.15216,0.085463956,0.026440281,-0.1405564,0.006936773,0.016269613,-0.032379128
20240424 02:52:33,0.118093,0.053332,-0.01707,0.029813,0.012812,-0.022306,-19.098129,2.327122,-4.719177,77.396904,0.018397372,0.055880386,-0.12963109,-0.01239158,0.014294346,-0.033758793
20240424 02:52:33,0.045541,0.070621,-0.092039,0.020225,0.008551,-0.029763,-19.168045,2.508926,-4.597763,79.37426,-0.07863984,0.07863203,-0.069989234,-0.022629889,0.011326325,-0.023526473
20240424 02:52:33,-0.080064,0.078455,-0.138669,-0.002147,0.014943,-0.023371,-19.34412,2.684357,-4.610977,80.36557,-0.16342004,0.08881664,0.045161415,-0.024208568,0.017031787,-0.003705321
20240424 02:52:33,-0.088268,0.060969,-0.099015,-0.023454,0.027727,-0.011652,-19.301868,2.601265,-5.274979,78.91428,-0.12735006,0.06759562,0.058925755,-0.021156667,0.027959608,0.01298188
20240424 02:52:33,-0.099313,0.025521,-0.050109,-0.036238,0.037315,-0.00526,-19.071617,2.80407,-5.01799,78.08096,-0.08161865,0.026709963,0.082385585,-0.019773446,0.036595948,0.022011276
20240424 02:52:33,-0.026401,-0.009742,0.031805,-0.030912,0.017074,-0.004195,-18.901939,3.091805,-4.365219,79.182495,0.021733694,-0.012911146,0.030087372,-0.015654702,0.016484486,0.023210723
20240424 02:52:33,-0.02488,-0.015898,0.139363,-0.021324,0.001094,-0.008456,-19.150501,2.890854,-4.890457,78.23667,0.12358411,-0.02748798,0.038259905,-0.015213828,0.001153637,0.019129878
20240424 02:52:33,0.00978,-0.022379,0.148515,0.002114,-0.027671,-0.012718,-19.459244,2.582962,-4.739471,78.55092,0.14425953,-0.032168023,0.00814268,-0.009348029,-0.026683558,0.006309507
20240424 02:52:33,0.071364,-0.043597,0.071235,0.010637,-0.024475,-0.022306,-19.301868,2.601265,-5.274979,76.10584,0.092743516,-0.04592244,-0.048091523,-0.016334135,-0.023107674,-0.00405635
20240424 02:52:33,0.088555,-0.045459,0.030809,0.00531,-0.005298,-0.026567,-19.133606,1.755154,-4.414246,78.94718,0.060434267,-0.045394775,-0.06704268,-0.023046285,-0.003862574,-0.00498027
20240424 02:52:33,0.074076,-0.072673,0.060681,-0.014932,0.057557,-0.031894,-19.362434,2.686207,-4.879211,77.80204,0.08651116,-0.074702464,-0.041699532,-0.038667005,0.059125364,-0.007038449
20240424 02:52:33,-0.012026,-0.030696,0.117494,-0.013866,0.073537,-0.031894,-18.947533,3.000484,-4.895599,78.42568,0.10844462,-0.041184243,0.029692892,-0.040993623,0.07555833,-0.013872907
20240424 02:52:33,-0.056348,-0.017859,0.244488,-0.004278,0.058622,-0.023371,-19.020401,2.815998,-5.68811,77.07626,0.21050757,-0.0429886,0.07777482,-0.028872687,0.060393542,-0.017520666
20240424 02:52:33,-0.110951,0.003522,0.228881,0.018094,0.019205,-0.015914,-19.221184,3.45644,-5.329987,77.695496,0.17550083,-0.02275987,0.11976894,-0.010541827,0.021296002,-0.02459037
20240424 02:52:33,-0.095881,-0.011526,0.161108,0.037271,-0.021279,-0.007391,-18.967648,2.060368,-5.236343,78.99078,0.11955253,-0.030267261,0.10446,0.007719036,-0.019170087,-0.0284984
20240424 02:52:33,-0.018909,-0.010128,0.093425,0.046859,-0.038324,0.001132,-19.32542,2.49062,-4.062241,80.675156,0.082433276,-0.017493587,0.026141668,0.019358972,-0.03707924,-0.031697273
20240424 02:52:33,0.034374,-0.030477,-0.003246,0.048989,-0.031932,0.004328,-19.158695,2.412056,-4.32341,79.35835,0.00994247,-0.02946061,-0.023082072,0.021897797,-0.031077676,-0.036006738
20240424 02:52:33,0.079887,-0.045757,-0.034204,0.045793,-0.012756,0.005393,-19.107094,2.232101,-4.713058,77.89393,-0.004454978,-0.042415578,-0.06374531,0.020383202,-0.012199923,-0.03906865
20240424 02:52:33,0.106133,-0.058161,-0.055413,0.042597,-0.005298,0.006459,-18.885815,2.339882,-4.449951,77.3612,-0.016390722,-0.054778468,-0.086285554,0.0199324,-0.005004645,-0.038254462
20240424 02:52:33,0.143049,-0.053603,-0.045856,0.036205,-0.011691,-0.00526,-19.249115,1.845642,-4.823212,76.84577,0.003786329,-0.050536156,-0.122335926,0.00691041,-0.011120645,-0.031084547
20240424 02:52:33,0.184414,0.004673,-0.065888,0.027682,-0.012756,-0.014848,-19.522381,2.109715,-4.977142,75.097404,-0.00460368,0.005842032,-0.18180871,-0.005273268,-0.012534105,-0.023603348
20240424 02:52:33,0.228492,-0.014784,-0.080699,0.014898,0.003224,-0.030829,-19.565018,2.384689,-4.593613,76.20181,-0.005434923,-0.012516592,-0.21868768,-0.024712194,0.003744307,-0.017419431
20240424 02:52:33,0.210509,-0.005384,-0.097616,-0.002147,0.02027,-0.041482,-19.379978,2.304279,-4.586517,76.14786,-0.026935324,-0.002969208,-0.20565303,-0.04036823,0.020857887,-0.007203825
20240424 02:52:33,0.117106,0.025676,-0.037486,-0.012801,0.014943,-0.043613,-19.389713,2.593037,-5.141342,77.09505,5.731471E-4,0.030326322,-0.121630505,-0.046239484,0.017306808,0.00432646
20240424 02:52:33,0.01774,0.0825,0.068396,-0.012801,-0.006364,-0.037221,-19.116058,2.137081,-4.70694,78.98585,0.06441834,0.07785282,-0.03886901,-0.03881033,-0.004020209,0.011823213
20240424 02:52:33,0.058365,0.057756,0.058955,-0.008539,-0.020213,-0.031894,-19.380749,2.688057,-5.147461,77.201805,0.07078573,0.05509191,-0.06921899,-0.03156041,-0.01828745,0.012170043
20240424 02:52:33,0.057398,-0.011524,0.021934,-0.004278,-0.014887,-0.029763,-19.052925,2.610329,-4.469254,78.55207,0.039867505,-0.011649682,-0.049328167,-0.028600398,-0.013141348,0.006840895
20240424 02:52:33,0.058734,-0.004033,0.009523,-0.004278,-0.005298,-0.028698,-19.485756,2.106014,-4.440643,79.39858,0.028234486,-0.003384884,-0.053728305,-0.028161846,-0.003636068,0.004024895
20240424 02:52:33,0.064242,0.015106,0.021114,-0.004278,0.012812,-0.027632,-19.043957,2.705349,-4.475372,78.175514,0.040137537,0.015146833,-0.06411704,-0.028181273,0.014261536,-0.001931184
20240424 02:52:33,0.090858,-0.041574,0.072246,-0.000017,0.023466,-0.029763,-19.273438,2.118771,-4.171432,79.304634,0.10018308,-0.04352007,-0.067818224,-0.029220339,0.024908606,-0.009431247
20240424 02:52:33,0.08594,-0.005577,0.112108,0.020225,0.010682,-0.041482,-19.203903,2.128849,-4.573318,79.00701,0.1342659,-0.010814055,-0.07230749,-0.033103064,0.013759158,-0.025154073
20240424 02:52:33,0.036896,0.059896,0.027109,0.033009,-0.001037,-0.05107,-19.177395,2.605797,-4.872116,78.60574,0.032676898,0.058540683,-0.051970568,-0.03764993,0.003828388,-0.034179762
20240424 02:52:33,-0.036974,0.017766,-0.090797,0.037271,0.011747,-0.056397,-19.133987,1.947041,-4.694717,81.51279,-0.09917194,0.026363473,0.025515683,-0.042955093,0.019264452,-0.04162285
20240424 02:52:33,-0.125345,0.064167,-0.175759,0.033009,0.014943,-0.057462,-19.016678,2.798519,-4.213257,84.514496,-0.2131317,0.0843524,0.09509311,-0.046380695,0.025251579,-0.03762187
20240424 02:52:33,-0.26665,0.08591,-0.224452,0.020225,0.002159,-0.052135,-18.931404,2.248562,-4.980331,85.729706,-0.30662182,0.11257686,0.22369702,-0.042968504,0.014020958,-0.021103993
20240424 02:52:33,-0.369014,0.131508,-0.259505,-0.002147,-0.024475,-0.034025,-19.34412,2.684357,-4.610977,87.46421,-0.38097882,0.15904987,0.30858403,-0.02689953,-0.016571736,0.008981355
20240424 02:52:33,-0.369493,0.104371,-0.228979,-0.011735,-0.038324,-0.02124,-19.380363,2.496166,-4.866974,86.597946,-0.34753597,0.12509435,0.31583983,-0.015210825,-0.03367796,0.022477916
20240424 02:52:33,-0.302353,0.034651,-0.139266,-0.033042,-0.051108,0.006459,-19.41584,1.924198,-4.562073,85.14925,-0.23100272,0.040530846,0.27243632,0.004017546,-0.053193614,0.047556844
20240424 02:52:33,-0.135257,0.009412,-0.015716,-0.049023,-0.02554,0.034158,-19.362049,2.494316,-4.59874,80.75505,-0.059968572,0.006264942,0.123942204,0.01859324,-0.030481977,0.056368824
20240424 02:52:33,0.056946,-0.060203,0.167103,-0.038369,0.007486,0.036288,-18.991585,2.141609,-4.304092,78.63825,0.17918958,-0.06718595,-0.021703314,0.020404119,0.005040012,0.03594451
20240424 02:52:33,0.138035,-0.044904,0.256572,-0.005343,0.02027,0.016047,-19.098129,2.327122,-4.719177,77.21372,0.2902822,-0.053981658,-0.09445886,0.012270312,0.019445883,-6.28E-04
20240424 02:52:33,0.145718,-0.00341,0.293264,0.015964,0.02027,0.005393,-19.151917,1.757004,-4.682495,78.98687,0.3251056,-0.018563364,-0.116336584,0.009270545,0.020253357,-0.021486798
20240424 02:52:33,0.023275,0.030481,0.193879,0.066035,0.003224,-0.018044,-19.433769,1.734161,-4.549835,81.18593,0.18692087,0.013334693,-0.022086624,0.004741317,0.006995244,-0.06425241
20240424 02:52:33,-0.011658,0.060094,0.138328,0.071362,-0.005298,-0.018044,-19.255508,2.308811,-4.183655,83.78393,0.11818887,0.040866777,-0.003276276,0.006594842,2.769034E-4,-0.06655053
20240424 02:52:33,-0.12591,0.061756,-0.010899,0.073492,-0.021279,-0.003129,-19.140766,2.602097,-4.335632,84.366356,-0.05920169,0.05621695,0.0999508,0.023389362,-0.016780004,-0.06324101
20240424 02:52:33,-0.133672,0.065578,-0.115337,0.045793,-0.020213,0.028831,-19.203522,1.936958,-4.292831,84.22378,-0.15866293,0.07486386,0.10366737,0.04398463,-0.021943541,-0.036531113
20240424 02:52:33,-0.028777,0.014314,-0.157824,0.026617,-0.015952,0.036288,-19.539925,1.727787,-4.684448,81.2669,-0.15961936,0.028723147,0.015638955,0.04409676,-0.01856677,-0.018769044
20240424 02:52:33,0.034129,0.008681,-0.09399,0.012768,-0.008494,0.034158,-19.142952,1.852024,-4.688599,79.541595,-0.07890746,0.01650985,-0.04043756,0.03697234,-0.010702334,-0.007556506
20240424 02:52:33,0.063003,0.008358,-0.049874,0.008506,-0.003168,0.030962,-19.255508,2.308811,-4.183655,80.251686,-0.027992664,0.013239942,-0.065053366,0.032207146,-0.005110559,-0.005445384
20240424 02:52:33,0.145675,-0.06547,0.006845,0.011702,0.027727,0.011785,-19.00132,2.430367,-4.858917,77.06993,0.056226347,-0.063251115,-0.11723901,0.013487438,0.027292296,-0.018866979
20240424 02:52:33,0.119836,-0.024574,-0.015533,0.020225,0.030923,-0.008456,-19.142952,1.852024,-4.688599,78.65929,0.024751844,-0.021230731,-0.106980376,-0.003424045,0.03176496,-0.029322464
20240424 02:52:33,0.103084,-0.010421,-0.012043,0.025552,0.024531,-0.020175,-19.125023,2.042061,-4.700836,78.868065,0.02189405,-0.007300634,-0.09529711,-0.012648637,0.026383944,-0.03308343
20240424 02:52:33,0.033387,0.034017,-0.059087,0.026617,0.00642,-0.042547,-19.106327,1.848324,-4.152115,83.297935,-0.04971128,0.04179277,-0.044136107,-0.032934852,0.012246439,-0.028801708
20240424 02:52:33,-0.102699,0.024973,-0.190555,0.008506,0.009616,-0.040417,-19.51265,1.820957,-4.422302,84.32236,-0.21406797,0.046904113,0.0849419,-0.036956348,0.015550936,-0.012172544
20240424 02:52:33,-0.121193,0.041321,-0.205184,-0.003213,0.014943,-0.032959,-19.749672,2.273212,-4.320221,85.03468,-0.23586994,0.06614724,0.09793036,-0.034271967,0.019601163,-0.002257737
20240424 02:52:33,-0.144252,0.043298,-0.138519,-0.034108,0.02027,-0.006326,-19.018482,1.856552,-4.285751,84.63084,-0.18091452,0.05618705,0.12002899,-0.019389017,0.01934626,0.026069798
20240424 02:52:33,-0.121248,0.0292,-0.058455,-0.038369,0.021335,0.001132,-19.115292,1.753304,-4.146011,83.86401,-0.097208485,0.031129505,0.10366122,-0.0138087,0.01941971,0.029637216
20240424 02:52:33,-0.062217,-0.017514,0.095263,-0.021324,0.021335,0.012851,-19.370628,2.207409,-4.312149,82.05523,0.07007763,-0.029685171,0.06885433,0.002629025,0.019064536,0.013575668
20240424 02:52:33,-0.045182,-0.07334,0.167238,-0.007474,0.019205,0.014981,-19.064075,1.765232,-4.816116,80.32162,0.14840698,-0.09018949,0.07631542,0.0097227,0.01745196,0.001519991
20240424 02:52:33,-0.012858,-0.029796,0.180327,0.036205,0.002159,0.013916,-19.133987,1.947041,-4.694717,80.49562,0.16767435,-0.04692357,0.031844098,0.024922647,0.002044164,-0.034078266
20240424 02:52:33,-0.006238,-0.023005,0.154383,0.052185,-0.003168,0.01072,-19.124256,1.658283,-4.139893,82.11001,0.14548719,-0.037157662,0.020125771,0.027261928,-0.002504854,-0.047890566
20240424 02:52:33,0.01176,-0.000696,0.057678,0.073492,-0.014887,0.005393,-19.097363,1.94334,-4.158234,81.21737,0.05825744,-0.005058868,-0.008094042,0.029870046,-0.013247051,-0.06462764
20240424 02:52:33,0.066844,0.033619,-0.107782,0.074558,-0.018083,-0.008456,-19.203903,2.128849,-4.573318,80.113525,-0.08494292,0.044123914,-0.079315595,0.015980298,-0.015370348,-0.0661328
20240424 02:52:33,0.059275,0.036951,-0.141449,0.056447,-0.015952,-0.014848,-19.291752,2.120621,-4.439667,81.00635,-0.120018065,0.051258937,-0.074076734,0.00419866,-0.01293852,-0.04985611
20240424 02:52:33,0.028298,0.055799,-0.20202,0.044728,-0.014887,-0.016979,-19.292519,2.504398,-5.000626,78.256386,-0.18811266,0.07120022,-0.055392586,-0.001818699,-0.012563535,-0.039426345
20240424 02:52:33,0.112034,0.036326,-0.176058,0.022356,-0.011691,-0.025502,-18.710892,2.740116,-5.278152,76.71705,-0.13698551,0.051340815,-0.12948856,-0.01680769,-0.009331311,-0.019709144
20240424 02:52:33,0.098053,0.024063,-0.176584,-0.004278,-0.002102,-0.030829,-19.467827,2.296055,-4.452881,80.227425,-0.14034128,0.04015504,-0.10964379,-0.030429421,2.0335731E-4,0.00313256
20240424 02:52:33,0.052007,-0.008981,-0.089233,-0.033042,0.019205,-0.028698,-19.176243,2.030132,-4.030701,81.700806,-0.066790745,5.0292816E-5,-0.050547145,-0.03927699,0.020604812,0.023891198
20240424 02:52:33,0.03995,0.001668,0.063313,-0.025585,0.028793,-0.026567,-19.582561,2.002762,-4.300903,81.47177,0.072429225,-0.002691411,-0.035297718,-0.035831254,0.030230781,0.013722437
20240424 02:52:33,0.002386,-0.032818,0.130767,-0.017062,0.027727,-0.024436,-19.388176,1.825485,-4.019455,82.974945,0.12666331,-0.045686483,0.013956783,-0.031384375,0.02941799,0.005903736
20240424 02:52:33,-0.023149,-0.06267,0.1749,0.024486,0.007486,-0.023371,-19.300331,1.833714,-4.153091,82.84503,0.16280498,-0.08158937,0.049770743,-0.014542358,0.010815856,-0.026531128
20240424 02:52:33,-0.027327,-0.03848,0.152395,0.040467,-0.004233,-0.02124,-19.179195,1.663834,-4.944626,81.29414,0.138244,-0.05657465,0.04590932,-0.006118299,-1.92E-04,-0.037894763
20240424 02:52:33,-0.079505,-0.079348,0.061794,0.066035,-0.029801,-0.018044,-19.185589,2.126999,-4.305069,83.3878,0.042818546,-0.08993237,0.10275627,0.007915124,-0.024387702,-0.053811666
20240424 02:52:33,-0.072405,-0.053699,-0.080153,0.066035,-0.037259,-0.014848,-19.364235,1.744244,-4.951721,82.41835,-0.09058364,-0.045654193,0.08196445,0.011056201,-0.032143474,-0.052223567
20240424 02:52:33,-0.085308,-0.028476,-0.19145,0.044728,-0.044716,-0.012718,-19.291752,2.120621,-4.439667,83.45355,-0.20254683,-0.006264187,0.08340879,0.007126936,-0.04075329,-0.030032387
20240424 02:52:33,-0.005843,-0.007625,-0.189487,0.010637,-0.031932,-0.009522,-19.168045,2.508926,-4.597763,81.33442,-0.18062511,0.013208804,-6.53E-04,-0.002339913,-0.030296452,-0.001218443
20240424 02:52:33,0.008715,-0.033549,-0.150532,-0.020258,0.001094,-0.013783,-18.789001,2.443127,-4.589706,80.3059,-0.13654451,-0.01849462,-0.005916321,-0.01938551,0.001789632,0.018229522
20240424 02:52:33,-0.00188,-0.048829,-0.01562,-0.036238,0.021335,-0.02124,-19.054073,3.185993,-5.310669,77.55548,-0.010892337,-0.04724246,0.016005337,-0.033594508,0.022050768,0.026163854
20240424 02:52:33,-0.006462,-0.034986,0.111232,-0.031977,0.027727,-0.024436,-19.170616,1.950737,-5.231201,80.573784,0.106239386,-0.04818166,0.023445116,-0.036702555,0.029086366,0.019885946
20240424 02:52:33,-0.114384,-0.028714,0.19679,-0.014932,0.014943,-0.02124,-19.513416,2.204735,-4.983261,82.33035,0.148464,-0.06116519,0.12615085,-0.026881427,0.016968217,0.008083663
20240424 02:52:33,-0.179995,-0.067804,0.172066,0.022356,-0.018083,0.002197,-19.176624,2.222019,-4.311172,84.363464,0.11029584,-0.10161892,0.19781914,0.012149259,-0.017023785,-0.015015919
20240424 02:52:33,-0.157498,-0.069963,0.150263,0.031944,-0.024475,0.011785,-19.309296,1.738693,-4.146988,85.24202,0.09823445,-0.09892747,0.17580946,0.025097972,-0.024270998,-0.0217655
20240424 02:52:33,-0.109829,-0.084139,0.094207,0.046859,-0.038324,0.030962,-18.98262,2.236629,-4.310196,83.19338,0.06447205,-0.10022817,0.1342164,0.04890071,-0.039936107,-0.031187404
20240424 02:52:33,-0.071636,-0.06071,-0.000359,0.047924,-0.04152,0.030962,-19.178814,1.471943,-4.664154,82.14712,-0.015955307,-0.06289992,0.08685598,0.048879232,-0.042931885,-0.031299837
20240424 02:52:34,-0.020461,-0.037426,-0.074205,0.041532,-0.043651,0.027766,-19.246544,2.403828,-4.189774,81.9755,-0.07273372,-0.030393858,0.027651424,0.043399796,-0.044859,-0.025121642
20240424 02:52:34,0.049161,-0.04517,-0.107309,0.027682,-0.04152,0.027766,-19.380363,2.496166,-4.866974,79.83368,-0.08298692,-0.033407666,-0.039298996,0.03854162,-0.043115396,-0.01275362
20240424 02:52:34,0.075549,0.009048,-0.145863,0.009571,-0.031932,0.020308,-19.326843,1.356766,-3.854279,82.17938,-0.11673736,0.021190662,-0.08071242,0.024480157,-0.03308272,0.001188161
20240424 02:52:34,0.140185,0.00394,-0.124215,-0.006409,-0.020213,0.013916,-19.000935,2.23848,-4.578445,78.82806,-0.07623747,0.014789775,-0.14209113,0.01261402,-0.021194505,0.012892524
20240424 02:52:34,0.141046,0.023065,-0.082853,-0.019193,-0.011691,0.006459,-19.116058,2.137081,-4.70694,78.889984,-0.036789984,0.03183429,-0.14607885,0.00102415,-0.012530593,0.022175318
20240424 02:52:34,0.102548,0.037651,-0.048362,-0.030912,-0.002102,0.000067,-19.195324,2.415756,-4.859894,78.75451,-0.016889954,0.04380574,-0.11187121,-0.009368097,-0.002874673,0.030029632
20240424 02:52:34,0.072536,0.045016,0.041711,-0.038369,0.011747,0.003263,-19.389328,2.401146,-4.86087,79.24977,0.058965392,0.043429434,-0.0804103,-0.010258853,0.010347205,0.032801867
20240424 02:52:34,0.045409,-0.00649,0.094345,-0.030912,0.017074,0.005393,-19.49472,2.010994,-4.43454,81.25355,0.1041573,-0.013636088,-0.036197104,-0.006525125,0.015534701,0.02401615
20240424 02:52:34,0.023409,0.018041,0.156591,-0.000017,-0.010625,0.01072,-19.371014,2.399296,-4.592636,79.70105,0.15369275,0.00623345,-0.01877279,0.010930293,-0.011436192,0.004060143
20240424 02:52:34,0.050402,0.031995,0.153213,0.014898,-0.027671,0.007524,-19.000553,2.046589,-4.297974,80.51619,0.15826571,0.021205552,-0.049730852,0.014091631,-0.02776571,-0.004856404
20240424 02:52:34,0.038488,0.044969,0.045911,0.037271,-0.047912,0.001132,-19.600876,2.004612,-4.569153,81.17125,0.051174976,0.041614182,-0.04822725,0.017201632,-0.04663176,-0.020596419
20240424 02:52:34,0.019907,0.038386,-0.081526,0.030878,-0.044716,0.003263,-19.292133,2.312511,-4.720154,80.52683,-0.07511735,0.046786163,-0.03440518,0.016761329,-0.04384552,-0.016025621
20240424 02:52:34,0.020415,0.076847,-0.138585,0.01916,-0.034063,0.006459,-19.125023,2.042061,-4.700836,81.01606,-0.13353872,0.0914069,-0.048336275,0.015326317,-0.033916865,-0.00806015
20240424 02:52:34,0.042451,0.079755,-0.151547,-0.003213,-0.002102,0.01072,-19.001705,2.622257,-5.139389,77.668915,-0.13740587,0.09203273,-0.07360808,0.009387817,-0.002987175,0.004368668
20240424 02:52:34,0.083406,0.010065,-0.104861,-0.013866,0.025597,0.006459,-19.653244,2.568352,-4.740448,79.169785,-0.07450481,0.019883286,-0.08846513,-5.86E-05,0.024699863,0.005819416
20240424 02:52:34,0.051715,0.022182,0.011602,-0.002147,0.024531,-0.008456,-19.309296,1.738693,-4.146988,82.20723,0.025199931,0.022589648,-0.05550926,-0.010925302,0.025129102,-0.005976309
20240424 02:52:34,-0.047163,0.019464,0.044104,0.003179,0.011747,-0.010587,-19.125023,2.042061,-4.700836,81.48974,0.024436435,0.012604009,0.040715814,-0.010286634,0.012973228,-0.007187157
20240424 02:52:34,-0.106991,0.070842,0.060641,0.020225,-0.023409,-0.007391,-19.53096,1.822807,-4.690552,82.69257,0.014410257,0.058269788,0.08172682,0.002350717,-0.021452457,-0.012144038
20240424 02:52:34,-0.096149,0.045441,-0.004669,0.029813,-0.052174,-0.000999,-19.380363,2.496166,-4.866974,81.0662,-0.039483488,0.042004723,0.077273756,0.014353829,-0.050539624,-0.012416427
20240424 02:52:34,-0.041929,0.012834,-0.039768,0.031944,-0.060697,0.003263,-19.221836,1.938808,-4.561096,81.216965,-0.05172682,0.015347592,0.034201022,0.018796274,-0.05968915,-0.01195381
20240424 02:52:34,-0.010437,-0.026374,-0.064771,0.026617,-0.046847,0.004328,-19.698071,2.093254,-4.709869,81.47261,-0.06172188,-0.019717816,0.014938659,0.017112527,-0.046121478,-0.011137161
20240424 02:52:34,-0.033258,-0.007705,-0.077756,0.01916,-0.02554,0.004328,-19.592297,2.291523,-4.855728,81.069695,-0.082861386,-3.02E-04,0.03030879,0.01274143,-0.02517164,-0.010337618
20240424 02:52:34,-0.03619,0.015453,-0.067791,0.014898,-0.010625,0.006459,-19.442348,1.44725,-4.263245,83.821396,-0.07695575,0.022039995,0.02750482,0.011934717,-0.010739757,-0.010731096
20240424 02:52:34,-0.059922,0.012312,-0.041657,0.013833,-0.001037,0.007524,-19.61919,2.006462,-4.837387,81.79002,-0.05915554,0.014829317,0.051480897,0.011468432,-0.001387572,-0.012523333
20240424 02:52:34,-0.036024,-0.011956,-0.032523,0.010637,0.003224,0.01072,-19.78553,1.893131,-4.295761,82.89881,-0.040552054,-0.009629733,0.03668833,0.013062608,0.002418889,-0.010696807
20240424 02:52:34,-0.045913,-0.023955,-0.004846,0.007441,0.008551,0.014981,-19.266659,1.463711,-4.530518,82.089745,-0.01632658,-0.024866104,0.050801676,0.01557483,0.007193011,-0.009061354
20240424 02:52:34,-0.003909,0.009378,0.06255,0.007441,-0.001037,0.020308,-19.327991,1.93243,-4.695694,80.45397,0.056955464,0.003601084,0.004063582,0.021626629,-0.002632256,-0.005659632
20240424 02:52:34,0.029587,0.044454,0.07635,0.012768,-0.023409,0.017112,-19.538776,1.152119,-3.843033,82.78915,0.07815883,0.03922716,-0.039030403,0.022022683,-0.024314405,-0.00403321
20240424 02:52:34,0.043267,0.045575,0.08806,0.020225,-0.035128,0.006459,-19.415455,1.732311,-4.281586,80.34547,0.094092995,0.040709563,-0.05059736,0.01479518,-0.035026874,-0.007858702
20240424 02:52:34,0.10022,-0.00082,0.064735,0.026617,-0.032997,-0.007391,-19.51265,1.820957,-4.422302,80.92073,0.09285142,-0.003378262,-0.091643736,0.004081874,-0.031555425,-0.01536435
20240424 02:52:34,0.030166,0.012594,0.030558,0.026617,-0.023409,-0.011652,-19.688725,1.996384,-4.435516,81.52236,0.03711302,0.010609851,-0.031142756,-5.68E-04,-0.021403618,-0.018631948
20240424 02:52:34,-0.02897,0.0164,0.00166,0.02129,-0.010625,-0.009522,-19.539543,1.535896,-4.403961,82.828995,-0.009194325,0.015082505,0.02256861,-0.001240113,-0.008761205,-0.017345546
20240424 02:52:34,-0.063514,0.025089,0.003399,0.010637,0.003224,0.005393,-19.521229,1.534046,-4.135727,83.269646,-0.019323079,0.022389673,0.05262819,0.008087375,0.003007955,-0.010906372
20240424 02:52:34,0.010166,0.017327,0.051472,0.008506,0.008551,0.020308,-19.485371,1.914124,-4.160187,81.022446,0.05061758,0.013769561,-0.012531339,0.021279266,0.007252619,-0.009744769
20240424 02:52:34,0.114573,0.028639,0.138968,0.017029,-0.008494,0.022439,-19.282787,2.215641,-4.445786,78.21312,0.16702414,0.02417254,-0.1083699,0.02707736,-0.009223416,-0.011974448
20240424 02:52:34,0.198005,0.053605,0.119414,0.029813,-0.02554,0.006459,-19.636738,1.624535,-4.544708,77.64022,0.17396411,0.05221867,-0.19645302,0.016102053,-0.025446301,-0.020081095
20240424 02:52:34,0.219623,0.032658,0.044725,0.033009,-0.021279,-0.000999,-19.697689,1.901363,-4.429398,77.4722,0.10986349,0.033197764,-0.215694,0.009707799,-0.021033682,-0.025020652
20240424 02:52:34,0.236845,0.007445,0.001969,0.028748,-0.002102,-0.000999,-19.902458,0.84977,-4.496765,78.68239,0.07430252,0.009429583,-0.22755514,0.007921382,-0.001827281,-0.02679071
20240424 02:52:34,0.200167,0.008812,-0.019052,0.027682,0.014943,-0.003129,-19.372051,1.073555,-4.104187,79.13184,0.042325623,0.010927271,-0.19445565,0.005030974,0.01524342,-0.03100801
20240424 02:52:34,0.188095,-0.027674,-0.01594,0.026617,0.022401,0.000067,-19.363087,1.168575,-4.110306,79.007034,0.043566335,-0.025725717,-0.17147781,0.007710207,0.022608534,-0.032098584
20240424 02:52:34,0.211618,-0.035065,-0.013028,0.036205,0.016009,-0.003129,-19.653896,1.05072,-3.971527,79.40031,0.053469796,-0.033365287,-0.19147366,0.007834667,0.016312722,-0.039467968
20240424 02:52:34,0.201869,-0.049745,-0.032917,0.045793,0.002159,-0.012718,-19.372437,1.265446,-4.384644,78.5195,0.031714477,-0.04670756,-0.1794099,0.001781101,0.003003006,-0.04503152
20240424 02:52:34,0.166765,-0.012382,-0.087416,0.045793,-0.017017,-0.018044,-19.345158,1.358616,-4.122528,79.84366,-0.034033313,-0.006350352,-0.16037615,-0.003062043,-0.015605893,-0.039799266
20240424 02:52:34,0.148706,-0.032351,-0.216814,0.03514,-0.026605,-0.01911,-19.662861,0.9557,-3.965408,81.70346,-0.16364704,-0.016796246,-0.14244229,-0.006786814,-0.024802957,-0.027049642
20240424 02:52:34,0.118982,-0.047122,-0.274316,0.012768,-0.028736,-0.015914,-19.830742,1.609924,-4.545685,79.493195,-0.22740903,-0.030121513,-0.11531737,-0.010136589,-0.027614448,-0.005215695
20240424 02:52:34,0.105791,-0.056086,-0.287992,-0.011735,-0.02554,-0.014848,-19.94548,1.316639,-4.393692,80.98836,-0.24229032,-0.03402815,-0.0986803,-0.015748292,-0.024689266,0.017677484
20240424 02:52:34,0.069365,-0.054715,-0.251747,-0.034108,-0.012756,-0.012718,-19.406876,2.019218,-4.568176,79.64115,-0.21682645,-0.035677537,-0.063991904,-0.021054432,-0.01254912,0.03561785
20240424 02:52:34,0.055011,-0.057384,-0.14466,-0.050088,-0.001037,-0.013783,-19.591526,1.907742,-4.294785,81.274185,-0.11659616,-0.04396034,-0.042198256,-0.027906235,-0.001180169,0.047510598
20240424 02:52:34,-0.022593,-0.076166,-0.05458,-0.049023,0.005355,-0.015914,-19.23938,1.556881,-4.268387,82.64989,-0.05070151,-0.070827015,0.042602234,-0.030697055,0.005328581,0.044379815
20240424 02:52:34,-0.101141,-0.085279,0.043831,-0.037304,-0.001037,-0.009522,-19.388561,2.017368,-4.299927,83.25466,0.019649245,-0.09394952,0.12432132,-0.02060708,-0.001377204,0.03537008
20240424 02:52:34,-0.134325,-0.078135,0.056491,-0.022389,-0.007429,0.000067,-19.300716,2.0256,-4.433563,83.41095,0.0210341,-0.090618365,0.15397482,-0.006015206,-0.008339373,0.023576306
20240424 02:52:34,-0.139578,-0.078616,0.030291,-0.007474,-0.006364,0.011785,-19.84687,2.361851,-4.460938,83.05052,-0.005341187,-0.0874264,0.1581275,0.009552505,-0.008081735,0.009520592
20240424 02:52:34,-0.141335,-0.077214,0.000797,-0.000017,-0.017017,0.020308,-19.346306,1.93428,-4.963943,81.952156,-0.033194445,-0.08250205,0.15810674,0.021301545,-0.019457845,0.006119913
20240424 02:52:34,-0.139216,-0.024003,-0.032334,0.002114,-0.024475,0.021374,-19.317879,1.451782,-3.860397,84.844215,-0.0697376,-0.025222523,0.1390595,0.023787133,-0.02676289,0.005924715
20240424 02:52:34,-0.104447,-0.021289,-0.050495,-0.004278,-0.030867,0.022439,-19.300716,2.0256,-4.433563,82.12526,-0.07714693,-0.019278748,0.10383194,0.023291875,-0.03324356,0.014270925
20240424 02:52:34,-0.056206,-0.006815,-0.076518,-0.013866,-0.036194,0.016047,-19.688339,1.804497,-4.155045,83.05592,-0.088699244,-6.67E-04,0.05288196,0.014821504,-0.038095232,0.024570832
20240424 02:52:34,-0.064883,-0.020535,-0.098084,-0.02452,-0.030867,0.01072,-19.609459,1.717705,-4.282562,83.062386,-0.1101422,-0.011901918,0.064465754,0.006200489,-0.032675568,0.03295042
20240424 02:52:34,-0.067952,0.001809,-0.091949,-0.036238,-0.021279,0.008589,-19.70742,2.190125,-4.984238,80.46131,-0.10782942,0.008964036,0.059670195,-6.08E-04,-0.023194108,0.041304696
20240424 02:52:34,-0.037499,-0.025441,-0.063274,-0.044761,-0.012756,0.006459,-19.398293,2.306129,-4.854752,79.59443,-0.06922813,-0.020896448,0.039856613,-0.006375457,-0.014497839,0.046811454
20240424 02:52:34,-0.002382,-0.012102,-0.019164,-0.047957,-0.007429,0.001132,-19.565788,2.768471,-5.154541,78.56344,-0.017834147,-0.010453211,0.004757534,-0.013105876,-0.008851077,0.047928963
20240424 02:52:34,-0.016847,0.024795,0.066776,-0.044761,-0.012756,-0.00526,-19.504066,2.107864,-4.708893,80.08623,0.05568817,0.01858234,0.011900442,-0.018034384,-0.013519775,0.04615243
20240424 02:52:34,0.026212,0.03742,0.099297,-0.042631,-0.017017,-0.008456,-19.539162,1.344009,-4.123505,80.870255,0.10009752,0.03199871,-0.031567603,-0.020481747,-0.01732406,0.045331746
20240424 02:52:34,0.085257,0.016677,0.081907,-0.038369,-0.001037,-0.015914,-19.521614,1.725937,-4.416199,79.343025,0.10371328,0.013871923,-0.08125861,-0.027172998,-8.74E-04,0.035783272
20240424 02:52:34,0.085559,-0.013023,0.112795,-0.033042,0.008551,-0.029763,-19.821392,1.513054,-4.271317,80.86568,0.13477562,-0.018479848,-0.07129541,-0.03923232,0.00974896,0.027123883
20240424 02:52:34,0.025971,0.014312,0.091495,-0.028781,0.003224,-0.040417,-19.600494,1.812725,-4.288681,82.08486,0.09323629,0.006417329,-0.025145266,-0.04753972,0.006121908,0.024556173
20240424 02:52:34,-0.081768,0.062387,0.021206,-0.028781,-0.00956,-0.041482,-19.609459,1.717705,-4.282562,83.438416,-0.01283632,0.05633186,0.0590259,-0.04700024,-0.005774666,0.028824233
20240424 02:52:34,-0.107921,0.033853,-0.010645,-0.0405,-0.021279,-0.032959,-19.564632,2.192802,-4.313126,83.74622,-0.047904734,0.030328127,0.09180871,-0.040819146,-0.018499916,0.043949142
20240424 02:52:34,-0.122715,0.025241,-0.045326,-0.052219,-0.020213,-0.024436,-19.467827,2.296055,-4.452881,83.44948,-0.08410249,0.025700163,0.10728871,-0.036472246,-0.019014461,0.055007286
20240424 02:52:34,-0.083324,-0.00429,-0.006822,-0.055415,-0.007429,-0.016979,-19.520847,1.342159,-3.855255,84.370926,-0.03227216,-0.006513645,0.08020011,-0.032698758,-0.007537995,0.054389488
20240424 02:52:34,-0.035515,-0.016665,0.061382,-0.055415,0.001094,-0.02124,-19.600876,2.004612,-4.569153,82.045135,0.048122574,-0.024600819,0.041670915,-0.03792847,0.001349822,0.05117227
20240424 02:52:34,-0.091792,-0.014777,0.086204,-0.041565,0.011747,-0.025502,-19.785915,2.085022,-4.576248,83.29872,0.053180497,-0.029984523,0.09486659,-0.038838364,0.013118587,0.03463056
20240424 02:52:34,-0.151397,0.000842,0.052869,-0.028781,0.018139,-0.016979,-19.918587,1.601696,-4.412033,84.2197,9.839311E-4,-0.01272209,0.14485158,-0.0275158,0.018910363,0.020932801
20240424 02:52:34,-0.13991,0.01364,0.023458,-0.023454,0.024531,-0.009522,-19.309681,1.93058,-4.427444,83.9988,-0.0242885,0.003705443,0.12915362,-0.019790303,0.024498446,0.014185373
20240424 02:52:34,-0.14318,0.035425,0.030423,-0.02665,0.022401,0.001132,-19.636353,1.432644,-4.264221,84.76639,-0.021459226,0.024631917,0.12554085,-0.010360437,0.020839283,0.018256133
20240424 02:52:34,-0.059321,0.127939,0.087106,-0.033042,0.003224,0.014981,-19.467827,2.296055,-4.452881,81.79893,0.049339317,0.11574438,0.019512387,0.003147413,4.230116E-4,0.030954538
20240424 02:52:34,-0.047597,0.124981,0.101477,-0.030912,-0.001037,0.017112,-19.467827,2.296055,-4.452881,80.824684,0.06889879,0.11388903,0.010174543,0.006157545,-0.003511453,0.030453276
20240424 02:52:34,0.005738,0.083365,0.139575,-0.018128,-0.008494,0.011785,-19.548889,1.632767,-4.678329,80.61174,0.12620054,0.07142628,-0.024896897,0.005872495,-0.009984633,0.020501833
20240424 02:52:34,0.018523,0.04229,0.147697,-0.003213,-0.005298,0.009655,-19.17701,2.413906,-4.59166,79.77026,0.14162922,0.03040493,-0.022524793,0.008485917,-0.006170657,0.005294488
20240424 02:52:34,0.002816,0.046319,0.119525,0.015964,-0.003168,0.013916,-19.743279,1.810047,-4.959778,80.92201,0.10854649,0.033860847,-0.011383073,0.01858945,-0.004016548,-0.013373517
20240424 02:52:34,-0.04109,0.047143,0.079117,0.031944,-0.018083,0.014981,-19.610226,2.101482,-4.843506,81.18097,0.056395188,0.036787257,0.028030325,0.02620883,-0.018428741,-0.023892105
20240424 02:52:34,-0.030671,0.054473,0.005291,0.038336,-0.034063,0.018178,-19.477558,2.584812,-5.007721,79.58052,-0.009757118,0.052715287,0.01286122,0.03235951,-0.03443584,-0.025052816
20240424 02:52:34,0.019163,0.040838,-0.109605,0.033009,-0.034063,0.013916,-19.458092,2.007294,-3.898056,82.00209,-0.10155419,0.049851075,-0.035102278,0.025893304,-0.034218077,-0.020682286
20240424 02:52:34,0.087687,0.041475,-0.119253,0.014898,-0.03939,0.002197,-19.680141,2.283295,-4.722107,78.47864,-0.08984496,0.049734134,-0.10291533,0.008773202,-0.03918019,-0.00258414
20240424 02:52:34,0.144401,0.106477,-0.113923,-0.004278,-0.036194,-0.022306,-19.424805,1.829182,-4.555954,77.78115,-0.06915894,0.11175711,-0.17606793,-0.021336416,-0.035466317,0.013229174
20240424 02:52:34,0.22428,0.067137,-0.124652,-0.020258,-0.007429,-0.057462,-19.468208,2.487942,-4.733353,76.5534,-0.052952945,0.07287961,-0.2422874,-0.06065233,-0.005920004,0.01745575
20240424 02:52:34,0.112896,-0.01827,-0.084464,-0.031977,0.026662,-0.086227,-19.795265,2.181892,-4.850586,79.88018,-0.04331421,-0.007930608,-0.10632373,-0.09382491,0.032963894,0.017521502
20240424 02:52:34,-0.104591,0.021425,-0.010458,-0.036238,0.042642,-0.095815,-19.873764,2.076794,-4.442596,84.94564,-0.046472322,0.017373884,0.09198579,-0.107677534,0.054795675,0.018060133
20240424 02:52:34,-0.27035,0.053172,0.097778,-0.029846,0.028793,-0.077704,-19.874146,2.268684,-4.723083,86.750984,-0.00999406,0.013680635,0.2393071,-0.08728076,0.041502472,0.017171018
20240424 02:52:34,-0.39093,0.036809,0.162367,-0.014932,-0.004233,-0.043613,-19.980305,2.262302,-4.857681,86.82355,0.009641975,-0.025957339,0.358595,-0.044246648,0.003691686,0.014665648
20240424 02:52:34,-0.391131,0.010633,0.175047,0.004245,-0.038324,-0.007391,-19.716,1.903214,-4.697647,86.25839,0.027783617,-0.04795391,0.36851987,0.00170939,-0.03592372,0.00873044
20240424 02:52:34,-0.220149,-0.011127,0.168047,0.024486,-0.062827,0.006459,-19.758636,2.178192,-4.314102,84.24205,0.08540592,-0.044721134,0.21695982,0.022776678,-0.061862964,-0.002165129
20240424 02:52:34,-0.053613,-0.018902,0.094427,0.041532,-0.075611,-0.000999,-19.628155,1.911442,-4.831284,80.66684,0.07375915,-0.02955235,0.06164398,0.019523649,-0.07379581,-0.015631745
20240424 02:52:34,0.039922,-0.017598,-0.043024,0.039401,-0.058566,-0.022306,-19.213253,2.225719,-4.847656,79.02925,-0.027189422,-0.013196647,-0.035205297,-0.004514039,-0.05565027,-0.02115396
20240424 02:52:34,0.070588,-0.044173,-0.122004,0.014898,-0.011691,-0.037221,-19.434536,2.117939,-5.110779,78.88159,-0.09049021,-0.032071806,-0.061145104,-0.029783413,-0.008181229,-0.012871361
20240424 02:52:34,0.075435,-0.031824,-0.074128,-0.007474,0.037315,-0.045743,-19.715618,1.711327,-4.417175,81.91574,-0.043623097,-0.02233952,-0.065129966,-0.049105078,0.0412173,-0.006394594
20240424 02:52:34,-0.012351,-0.044896,-0.014543,-0.017062,0.055426,-0.053201,-19.486137,2.297905,-4.72113,82.0822,-0.012082769,-0.04323842,0.025247144,-0.062256258,0.060796082,-0.003671339
20240424 02:52:34,-0.111882,-0.017579,0.055276,-0.011735,0.043708,-0.056397,-19.670795,2.186424,-4.447739,84.76904,0.017654099,-0.031772546,0.113103315,-0.06313474,0.051160205,-0.004824932
20240424 02:52:34,-0.198396,0.025865,0.110349,0.004245,0.013878,-0.046809,-19.115677,1.94519,-4.426468,86.05771,0.0328136,-0.006400385,0.18147914,-0.044510942,0.022202216,-0.009600537
20240424 02:52:34,-0.254725,0.015813,0.066653,0.023421,-0.020213,-0.032959,-19.353085,2.589336,-4.604858,85.37458,-0.023901336,-0.012451823,0.23748013,-0.019301828,-0.012403241,-0.016454808
20240424 02:52:34,-0.213165,0.019522,0.008586,0.038336,-0.053239,-0.014848,-19.600494,1.812725,-4.288681,87.0552,-0.063184425,0.004744873,0.1960954,0.007948833,-0.047273144,-0.01972082
20240424 02:52:35,-0.201006,-0.003329,-0.037881,0.037271,-0.076677,0.003263,-19.549274,1.824657,-4.958801,84.920746,-0.09759157,-0.008198578,0.19093247,0.02807156,-0.07380212,-0.011452733
20240424 02:52:35,-0.153437,0.005043,-0.074532,0.023421,-0.0852,0.018178,-19.742512,1.426266,-4.398834,85.325356,-0.11824399,0.008621955,0.14246704,0.036935776,-0.08572318,0.004469199
20240424 02:52:35,-0.010977,0.016074,-0.064679,0.007441,-0.067089,0.023504,-19.60984,1.909592,-4.563049,81.93919,-0.066196755,0.022428669,0.002646427,0.031603225,-0.06889839,0.014651489
20240424 02:52:35,0.075061,-0.053106,-0.02562,-0.001082,-0.031932,0.019243,-19.724583,1.616306,-4.411057,81.15804,0.003781052,-0.048894867,-0.055818442,0.020380436,-0.033376716,0.011959055
20240424 02:52:35,0.166298,-0.056773,0.035949,-0.004278,0.001094,0.005393,-19.521229,1.534046,-4.135727,80.881615,0.09083486,-0.05536869,-0.13774806,0.003658219,6.602028E-4,0.00398042
20240424 02:52:35,0.132824,-0.072434,0.063502,0.00531,0.017074,-0.015914,-19.495102,2.202885,-4.715012,79.47559,0.108268276,-0.07358334,-0.09899393,-0.014595508,0.018363515,-0.011381041
20240424 02:52:35,0.073755,-0.007611,0.063076,0.014898,0.018139,-0.031894,-19.979919,2.070412,-4.577225,82.09373,0.08378749,-0.011655543,-0.06469178,-0.027202817,0.02198192,-0.021266341
20240424 02:52:35,-0.082451,0.041896,0.049483,0.023421,0.009616,-0.036155,-19.600109,1.620838,-4.008194,86.44567,0.013905071,0.029488562,0.06604732,-0.027963381,0.016262744,-0.025958158
20240424 02:52:35,-0.170082,0.075951,0.003867,0.027682,-0.019148,-0.023371,-19.573597,2.097782,-4.307022,86.50566,-0.06298923,0.064067274,0.1379077,-0.00977562,-0.01308433,-0.020760568
20240424 02:52:35,-0.213705,0.0694,-0.059956,0.025552,-0.053239,-0.004195,-19.706654,1.806347,-4.423279,87.18073,-0.13510579,0.06622613,0.18078965,0.013973342,-0.049853127,-0.007879049
20240424 02:52:35,-0.150276,0.029901,-0.068521,0.022356,-0.077742,0.014981,-19.309681,1.93058,-4.427444,84.43308,-0.11512822,0.032446478,0.13172454,0.03237143,-0.077947244,0.003043306
20240424 02:52:35,-0.036222,-0.011454,-0.056166,0.017029,-0.091592,0.025635,-19.85545,2.074944,-4.174362,83.31581,-0.062982336,-0.006423889,0.035936303,0.039707236,-0.093199514,0.012947531
20240424 02:52:35,0.077559,-0.021214,-0.040022,0.010637,-0.078807,0.021374,-20.024361,1.403423,-4.266174,81.42677,-0.012164045,-0.016503166,-0.06898176,0.029164195,-0.07985581,0.015247474
20240424 02:52:35,0.195316,-0.101614,-0.022165,0.009571,-0.03939,0.006459,-19.803844,1.894981,-4.564026,79.035324,0.045453712,-0.09690846,-0.15560065,0.011191575,-0.039502922,0.003396945
20240424 02:52:35,0.210107,-0.138123,-0.023293,0.011702,0.008551,-0.014848,-19.988503,1.783504,-4.290634,79.689896,0.050554834,-0.13349876,-0.15807183,-0.010810622,0.009437118,-0.01458815
20240424 02:52:35,0.156623,-0.072156,0.021004,0.018094,0.022401,-0.036155,-20.095043,1.969013,-4.705719,80.35046,0.07497089,-0.069434114,-0.12510955,-0.030270912,0.025676843,-0.026042674
20240424 02:52:35,0.021011,0.023283,0.005994,0.027682,0.003224,-0.048939,-19.840092,1.706795,-4.820023,82.96803,0.009107664,0.023170928,-0.026876595,-0.038030647,0.010674745,-0.029167553
20240424 02:52:35,-0.114564,0.057728,-0.081265,0.027682,-0.022344,-0.042547,-19.891308,1.694866,-4.149918,87.01489,-0.12051304,0.06440135,0.09058457,-0.027829275,-0.013363078,-0.020337306
20240424 02:52:35,-0.211756,0.046659,-0.172239,0.018094,-0.038324,-0.023371,-19.521614,1.725937,-4.416199,87.442085,-0.23272187,0.06620448,0.18625468,-0.009165095,-0.031979,-0.006281049
20240424 02:52:35,-0.188903,0.019389,-0.201178,0.002114,-0.045782,-0.000999,-20.024361,1.403423,-4.266174,88.23709,-0.24780113,0.04598002,0.17296763,0.008329637,-0.044567842,0.011462258
20240424 02:52:35,-0.139885,0.026043,-0.186134,-0.009605,-0.045782,0.009655,-19.706268,1.614456,-4.142822,86.63155,-0.22098584,0.04875987,0.12254108,0.0136427,-0.047167376,0.022947049
20240424 02:52:35,-0.104567,-0.02626,-0.151062,-0.012801,-0.036194,0.013916,-19.397907,2.114239,-4.574295,82.975136,-0.17088056,-0.010739194,0.101960264,0.013958101,-0.03818789,0.023586104
20240424 02:52:35,-0.003582,-0.032627,-0.11453,-0.01067,-0.027671,0.004328,-19.901039,1.983624,-4.704742,83.44098,-0.104648545,-0.01692431,0.009298015,0.004582544,-0.028438194,0.018684525
20240424 02:52:35,-0.089618,-0.020001,-0.07806,-0.002147,-0.013821,-0.002064,-19.477173,2.392921,-4.727234,83.839424,-0.09776762,-0.012134723,0.0888092,-4.58E-04,-0.013424729,0.006204946
20240424 02:52:35,-0.14289,0.053661,-0.039075,0.00531,-0.006364,0.004328,-19.928703,2.08234,-5.24733,83.95262,-0.08950301,0.051625874,0.11838391,0.00676016,-0.006705652,-0.002974169
20240424 02:52:35,-0.195775,0.035935,-0.063624,0.014898,0.00642,0.018178,-19.777336,2.371929,-4.862823,85.030975,-0.12618461,0.03533897,0.17350902,0.020442655,0.003939911,-0.015659077
20240424 02:52:35,-0.206309,0.065561,-0.063458,0.01916,0.001094,0.032027,-20.077114,2.159054,-4.717941,86.06179,-0.13390464,0.06394282,0.17539124,0.03557293,-0.003638309,-0.017918732
20240424 02:52:35,-0.168239,0.113317,-0.086527,0.02129,-0.015952,0.036288,-19.740322,2.176346,-4.045853,87.46824,-0.15207136,0.1172949,0.12520666,0.043263376,-0.020987092,-0.015022925
20240424 02:52:35,-0.131358,0.134216,-0.106727,0.026617,-0.021279,0.039484,-19.794498,1.798115,-4.289658,86.49622,-0.1616656,0.14324993,0.08411382,0.048563134,-0.026201949,-0.018463245
20240424 02:52:35,-0.126357,0.100159,-0.156907,0.024486,-0.015952,0.038419,-19.803844,1.894981,-4.564026,85.302185,-0.20094918,0.117782764,0.087952435,0.04593865,-0.020706784,-0.017858518
20240424 02:52:35,-0.133088,0.100028,-0.15438,0.01916,-0.006364,0.036288,-20.024361,1.403423,-4.266174,87.17334,-0.20140159,0.11775814,0.09554701,0.040848862,-0.011443244,-0.015913475
20240424 02:52:35,-0.146226,0.095386,-0.112254,0.013833,-0.006364,0.037354,-20.191853,1.865761,-4.565979,85.91108,-0.16549371,0.104904644,0.108178474,0.04030013,-0.011768531,-0.010459436
20240424 02:52:35,-0.069223,0.095464,-0.028863,0.017029,-0.019148,0.037354,-20.358192,1.752441,-4.024338,85.27568,-0.060601458,0.09545547,0.03624627,0.042902883,-0.023078762,-0.009473651
20240424 02:52:35,0.015579,0.045924,-0.000625,0.024486,-0.024475,0.02457,-19.916016,2.159885,-3.778595,83.37105,-2.05E-04,0.046228535,-0.028771728,0.033076175,-0.025942126,-0.015039748
20240424 02:52:35,0.097679,0.008903,0.011504,0.031944,-0.017017,0.01072,-20.033325,1.308407,-4.260071,82.13924,0.04019337,0.010504804,-0.09518047,0.021367721,-0.016987722,-0.024768494
20240424 02:52:35,0.118711,-0.006368,-0.04496,0.037271,0.00642,-0.00526,-20.164959,2.150822,-4.584305,80.90969,-0.00654272,6.8620546E-4,-0.113482475,0.005640435,0.007845075,-0.037704457
20240424 02:52:35,0.094195,0.00203,-0.066489,0.038336,0.023466,-0.014848,-20.182121,1.577007,-4.011124,84.029366,-0.035241183,0.012141713,-0.092581816,-0.005147446,0.026152756,-0.04400719
20240424 02:52:35,0.019367,0.017485,-0.090015,0.036205,0.025597,-0.02124,-19.909237,1.504826,-4.13768,84.87151,-0.081594214,0.029595058,-0.02608318,-0.012554212,0.029524308,-0.04273015
20240424 02:52:35,-0.044415,-0.000437,-0.082833,0.033009,0.014943,-0.020175,-19.821777,1.704945,-4.551788,84.48614,-0.091371745,0.009459794,0.040121444,-0.011286348,0.01915818,-0.03652973
20240424 02:52:35,-0.088887,-0.027519,-0.085449,0.03514,-0.002102,-0.014848,-19.839706,1.514904,-4.539566,85.68994,-0.1025247,-0.017860867,0.09110561,-0.003120529,0.002087345,-0.033238895
20240424 02:52:35,-0.093242,-0.06598,-0.104449,0.03514,-0.012756,-0.008456,-19.881958,1.597996,-3.875549,86.95321,-0.116095774,-0.053570755,0.106997885,0.004476652,-0.00960736,-0.029872011
20240424 02:52:35,-0.04641,-0.084795,-0.125504,0.038336,-0.020213,-0.004195,-19.600494,1.812725,-4.288681,84.38188,-0.12107702,-0.06907718,0.06564245,0.010066049,-0.01786474,-0.030801317
20240424 02:52:35,0.027572,-0.075011,-0.107908,0.041532,-0.030867,-0.010587,-20.006046,1.401577,-3.997925,83.601006,-0.08720177,-0.06335921,-0.007925225,0.005160959,-0.028443977,-0.030996496
20240424 02:52:35,0.088598,-0.063039,-0.140236,0.041532,-0.04152,-0.023371,-20.155609,2.053951,-4.309952,82.99399,-0.10103139,-0.04464315,-0.07169629,-0.005765531,-0.037387278,-0.028686145
20240424 02:52:35,0.052972,-0.013316,-0.198132,0.034074,-0.042586,-0.038286,-19.918201,1.409805,-4.131577,84.36632,-0.17210668,0.011808243,-0.05256446,-0.021835733,-0.036609314,-0.021771621
20240424 02:52:35,-0.00013,-0.013591,-0.215777,0.012768,-0.03939,-0.038286,-19.951878,1.779808,-3.75415,85.69766,-0.20351236,0.014061124,-6.17E-04,-0.027790077,-0.033675842,-0.00200185
20240424 02:52:35,0.004559,-0.006021,-0.221264,-0.019193,-0.024475,-0.036155,-19.733547,1.521286,-4.404938,84.10119,-0.20807669,0.022645611,-0.009148493,-0.03666976,-0.020341061,0.024280947
20240424 02:52:35,0.033222,-0.064384,-0.130136,-0.041565,-0.006364,-0.028698,-19.927166,1.314789,-4.125458,83.26254,-0.10750948,-0.050529744,-0.017222285,-0.039020218,-0.004816626,0.040559147
20240424 02:52:35,0.117714,-0.080863,0.002657,-0.046892,0.000028,-0.022306,-19.970188,1.781658,-4.022385,81.59423,0.04470424,-0.07817103,-0.086891375,-0.03572425,5.098585E-4,0.04354594
20240424 02:52:35,0.219539,-0.08292,0.140469,-0.028781,-0.024475,-0.026567,-20.103626,1.682106,-4.419128,80.2209,0.20759568,-0.08678526,-0.17469135,-0.03280338,-0.023406208,0.033515222
20240424 02:52:35,0.25357,-0.04993,0.01732,0.007441,-0.032997,-0.037221,-20.279316,1.665649,-4.151871,79.61399,0.09749463,-0.047549203,-0.22452433,-0.03183319,-0.0315678,9.825083E-4
20240424 02:52:35,0.258981,-0.188826,0.100846,0.030878,-0.076677,-0.057462,-20.103626,1.682106,-4.419128,79.76267,0.18280593,-0.18960507,-0.18687396,-0.041650042,-0.07308036,-0.010131506
20240424 02:52:35,0.208104,-0.05185,-0.19314,0.045793,-0.072415,-0.046809,-20.182121,1.577007,-4.011124,81.54586,-0.12193534,-0.035875373,-0.19286232,-0.027159648,-0.06850381,-0.025360992
20240424 02:52:35,0.199132,0.021458,-0.195709,0.037271,-0.082003,-0.023371,-19.864029,1.788036,-3.887772,80.606094,-0.13450918,0.033009946,-0.2060659,-0.008491433,-0.08035164,-0.014749969
20240424 02:52:35,0.292199,0.074533,-0.34573,0.029813,-0.074546,-0.006326,-19.803844,1.894981,-4.564026,76.46553,-0.25523132,0.077342205,-0.32261908,0.002388789,-0.074448064,-0.009690529
20240424 02:52:35,0.410898,0.063048,-0.290117,0.034074,-0.084134,-0.00526,-20.024361,1.403423,-4.266174,75.93844,-0.16815256,0.05291118,-0.43113282,0.00192732,-0.084474,-0.011379024
20240424 02:52:35,0.466147,0.146253,-0.329465,0.048989,-0.106507,-0.018044,-20.13052,1.397045,-4.400787,74.24769,-0.18886115,0.12344603,-0.5100417,-0.009914773,-0.10791858,-0.021848433
20240424 02:52:35,0.537805,0.149314,-0.366968,0.054316,-0.132075,-0.03509,-20.288666,1.76252,-4.426208,72.42423,-0.20469067,0.10925796,-0.5846241,-0.030212056,-0.13549055,-0.023064636
20240424 02:52:35,0.571357,0.131377,-0.441621,0.043663,-0.143794,-0.05107,-20.39444,1.564247,-4.280365,71.33856,-0.2670898,0.06762674,-0.6198394,-0.05348374,-0.149576,-0.012102101
20240424 02:52:35,0.626471,0.066846,-0.457098,0.026617,-0.14699,-0.059593,-20.694984,1.735149,-4.696411,68.900444,-0.2674688,-0.015849378,-0.66377544,-0.069525614,-0.15439227,0.004068257
20240424 02:52:35,0.719213,0.067599,-0.320052,0.014898,-0.158709,-0.065985,-20.155994,2.245842,-4.590424,66.2487,-0.09474996,-0.022334356,-0.74396706,-0.08528073,-0.1681232,0.018151548
20240424 02:52:35,0.798604,0.049417,-0.16223,0.03514,-0.1928,-0.081965,-20.422104,1.662968,-4.822952,65.096306,0.08391437,-0.026776923,-0.7978065,-0.10339663,-0.20645118,0.006223777
20240424 02:52:35,0.829961,0.021714,-0.127619,0.076688,-0.226891,-0.106468,-20.368698,2.424973,-5.140106,63.72262,0.11751581,-0.048697323,-0.8178118,-0.12140796,-0.24679203,-0.029616594
20240424 02:52:35,0.836685,0.012259,-0.231754,0.116106,-0.243936,-0.135233,-20.536457,1.177792,-4.390503,66.81255,0.001897737,-0.0729776,-0.8343298,-0.14287287,-0.27029285,-0.06727206
20240424 02:52:35,0.694368,0.020652,-0.496391,0.138479,-0.230087,-0.165062,-20.597794,1.646507,-4.555695,68.13192,-0.3140266,-0.07978139,-0.7227017,-0.16163793,-0.25727263,-0.09972122
20240424 02:52:35,0.498128,0.080914,-0.785806,0.12676,-0.199192,-0.178912,-20.509945,1.654739,-4.689331,74.23265,-0.667798,0.04573287,-0.545959,-0.1580223,-0.20713092,-0.09592355
20240424 02:52:35,0.198233,0.202405,-0.972865,0.08095,-0.189604,-0.175716,-20.809727,1.441856,-4.544449,86.21631,-0.94172996,0.3580438,-0.242335,-0.1265989,-0.1573232,-0.048136007
20240424 02:52:35,-0.104061,0.356211,-1.0928,0.018094,-0.207715,-0.144821,-20.685253,1.446388,-4.141586,93.789505,-1.1491038,0.63183606,0.053093303,-0.07810582,-0.15995903,0.019985184
20240424 02:52:35,-0.197408,0.462076,-1.080128,-0.058611,-0.255655,-0.097945,-20.906151,1.146721,-4.124222,94.27564,-1.182331,0.7285286,0.12796146,-0.033334717,-0.22186452,0.103511244
20240424 02:52:35,-0.107919,0.484978,-0.989699,-0.134251,-0.296138,-0.056397,-20.518909,1.559719,-4.683212,86.73121,-1.0622888,0.64792514,0.006163194,-0.027156634,-0.28585094,0.18597676
20240424 02:52:35,0.058232,0.419588,-0.808411,-0.198171,-0.308923,-0.030829,-21.022045,1.429096,-4.81366,81.08042,-0.80952626,0.4822843,-0.16766535,-0.04659745,-0.30877256,0.25554565
20240424 02:52:35,0.169568,0.364085,-0.56682,-0.233328,-0.289746,-0.023371,-21.128201,1.422722,-4.948288,78.232,-0.52386,0.38416454,-0.27445,-0.067166924,-0.29065397,0.29166222
20240424 02:52:35,0.208531,0.321974,-0.312978,-0.231197,-0.249263,-0.032959,-20.870293,1.526798,-4.148682,80.69118,-0.26248538,0.33839655,-0.29693824,-0.08042741,-0.25031152,0.28570342
20240424 02:52:35,0.09762,0.285015,-0.083585,-0.192845,-0.206649,-0.038286,-20.940205,1.708611,-4.027267,83.16972,-0.077146366,0.29343352,-0.17523384,-0.07262403,-0.2073295,0.24103248
20240424 02:52:35,-0.012146,0.225953,0.016277,-0.126793,-0.165101,-0.037221,-21.215664,1.222603,-4.53418,84.45688,-0.015249603,0.22175439,-0.051706944,-0.05143806,-0.16382109,0.16718183
20240424 02:52:35,-0.17887,0.220478,0.029319,-0.044761,-0.141663,-0.024436,-21.188385,1.315769,-4.272034,87.408455,-0.05871867,0.20399088,0.10946839,-0.012833967,-0.13781114,0.08273085
20240424 02:52:35,-0.317841,0.229486,-0.059108,0.028748,-0.148055,-0.00526,-21.285961,1.596302,-4.693237,90.47253,-0.1964097,0.21507081,0.24256542,0.037745558,-0.1404131,0.013110091
20240424 02:52:35,-0.368706,0.217174,-0.224569,0.093734,-0.186408,0.02457,-21.595089,1.480289,-4.822708,91.962746,-0.3605643,0.24200836,0.3022796,0.095585,-0.17938972,-0.04276042
20240424 02:52:35,-0.368435,0.210522,-0.400618,0.135283,-0.245002,0.052269,-20.967102,1.42355,-4.008926,93.29637,-0.5167612,0.28197303,0.3132604,0.1434227,-0.24133004,-0.073847815
20240424 02:52:35,-0.237136,0.174595,-0.622843,0.147001,-0.287616,0.062922,-21.488163,1.102894,-4.127151,91.01478,-0.6815588,0.29160655,0.1969098,0.15230763,-0.2873127,-0.0826859
20240424 02:52:35,-0.102652,0.124695,-0.769725,0.135283,-0.304661,0.055465,-21.15176,1.312073,-3.73555,87.461845,-0.7845531,0.22729512,0.06933544,0.12275483,-0.3055148,-0.07209784
20240424 02:52:35,0.082346,0.029155,-0.887596,0.097995,-0.287616,0.036288,-21.127815,1.230835,-4.667801,78.66656,-0.8562688,0.052954312,-0.11939465,0.06180144,-0.28796893,-0.041313387
20240424 02:52:35,0.245529,-0.063585,-0.912813,0.05112,-0.233283,0.006459,-21.082226,1.322151,-4.137436,76.115654,-0.8508736,-0.10245111,-0.27106884,0.006652767,-0.23322572,-0.006598891
20240424 02:52:35,0.2997,-0.160757,-0.856552,0.014898,-0.152316,-0.037221,-21.409283,1.016102,-4.254669,76.32144,-0.78653604,-0.19484629,-0.30297133,-0.03923451,-0.15370648,0.012688725
20240424 02:52:35,0.234088,-0.193508,-0.761339,-0.01067,-0.073481,-0.083031,-21.576008,1.094666,-3.993515,81.30191,-0.68867004,-0.16296968,-0.2132809,-0.08062796,-0.07039862,0.022863891
20240424 02:52:35,0.02194,-0.161483,-0.667468,-0.020258,-0.017017,-0.119252,-21.691517,1.185154,-4.402481,88.2164,-0.6080953,-0.04121285,0.009008873,-0.115947224,0.003341245,0.022655603
20240424 02:52:35,-0.281545,-0.0493,-0.580137,-0.012801,-0.007429,-0.130971,-21.109505,1.228985,-4.399551,96.41715,-0.58244926,0.11722572,0.30018458,-0.12099177,0.033789974,0.017525021
20240424 02:52:35,-0.643612,0.053831,-0.543341,-0.003213,-0.042586,-0.11073,-21.340134,1.218075,-4.937027,102.41187,-0.64631724,0.21702722,0.6408225,-0.078594446,0.009647146,0.01838613
20240424 02:52:35,-0.799939,0.114582,-0.584065,0.00531,-0.091592,-0.054266,-21.452305,1.482971,-4.151611,105.937195,-0.7392992,0.28154135,0.78967977,-0.003169496,-0.05518352,0.018782977
20240424 02:52:35,-0.726673,0.18366,-0.633129,0.007441,-0.14912,0.017112,-21.443726,1.769878,-4.438187,101.85884,-0.79290396,0.36059433,0.6989434,0.07791239,-0.14168264,0.02339828
20240424 02:52:35,-0.451895,0.263226,-0.771625,-0.003213,-0.165101,0.063987,-21.49828,1.583542,-4.962463,93.92702,-0.8859583,0.4559729,0.40401366,0.10874402,-0.17658798,0.033506468
20240424 02:52:35,-0.133582,0.242308,-0.842874,-0.035173,-0.134206,0.081033,-21.401085,1.4949,-4.821732,85.989975,-0.8808589,0.36966512,0.07776221,0.0938018,-0.14637229,0.059519626
20240424 02:52:35,0.110975,0.277127,-0.864037,-0.069264,-0.0852,0.07038,-21.346912,1.873127,-4.577942,80.37446,-0.8452141,0.32513013,-0.18226616,0.061753403,-0.08959834,0.08493516
20240424 02:52:35,0.179123,0.34994,-0.840771,-0.109747,-0.020213,0.046942,-21.622368,1.387119,-5.084839,79.48658,-0.8131362,0.39722034,-0.2651013,0.027619239,-0.02384362,0.113062374
20240424 02:52:35,0.160346,0.32338,-0.736281,-0.1481,0.035185,0.02457,-21.364841,1.68309,-4.56572,80.14024,-0.70510274,0.3608917,-0.24507548,-0.006953934,0.03245465,0.1391583
20240424 02:52:35,0.123689,0.291254,-0.554278,-0.171538,0.071407,0.008589,-21.779743,1.368809,-4.549332,82.36197,-0.5361549,0.33728567,-0.19905251,-0.034477513,0.06739753,0.15244216
20240424 02:52:35,0.042747,0.222374,-0.355376,-0.168342,0.110825,0.000067,-21.655273,1.373341,-4.146469,84.85836,-0.35670245,0.2607172,-0.10231463,-0.052385353,0.10560074,0.1369204
20240424 02:52:35,-0.07559,0.118871,-0.139748,-0.137447,0.149177,0.005393,-21.436947,1.114822,-4.797272,85.458374,-0.17039315,0.13492723,0.039297327,-0.052362442,0.14127539,0.09415802
20240424 02:52:35,-0.1705,0.110518,0.031037,-0.084179,0.169419,0.02457,-21.709827,1.187004,-4.670731,86.79058,-0.035395466,0.09603476,0.13400647,-0.02727752,0.15913872,0.0347307
20240424 02:52:35,-0.237227,0.141034,0.128654,-0.017062,0.175811,0.053334,-21.45269,1.674862,-4.432068,88.167496,0.028035969,0.10188574,0.18880366,0.013044462,0.16181473,-0.032879815
20240424 02:52:35,-0.322224,0.129051,0.188432,0.05112,0.156634,0.092752,-21.391354,1.206142,-4.266907,89.66163,0.057280757,0.06983183,0.27109623,0.0708279,0.13805258,-0.094299056
20240424 02:52:36,-0.315884,0.141416,0.225322,0.131021,0.116151,0.143889,-21.164059,1.042645,-4.923828,86.191864,0.100275874,0.086607635,0.26739222,0.15374342,0.0969797,-0.15572213
20240424 02:52:36,-0.088194,0.099042,0.110823,0.211988,0.080995,0.183306,-21.321438,1.024334,-4.388306,82.21959,0.075962916,0.08899863,0.06295015,0.22667196,0.07173979,-0.21909699
20240424 02:52:36,0.209677,0.012895,-0.094067,0.279105,0.060753,0.196091,-21.542717,0.916553,-4.651413,73.981865,-0.0386433,0.003571925,-0.21267147,0.26210213,0.06853671,-0.27159747
20240424 02:52:36,0.565599,-0.028291,-0.332455,0.324915,0.059688,0.173718,-21.127815,1.230835,-4.667801,63.751347,-0.19920442,-0.13336441,-0.5785227,0.24901652,0.081460014,-0.3121311
20240424 02:52:36,0.828633,-0.112117,-0.65764,0.331307,0.084191,0.124712,-21.066868,0.953999,-4.783096,54.255566,-0.47571772,-0.4190262,-0.8697898,0.20925152,0.100188494,-0.32412255
20240424 02:52:36,0.951035,-0.222675,-0.937574,0.302542,0.123609,0.05653,-21.057518,0.857128,-4.508743,48.8199,-0.74843913,-0.7255466,-1.0144967,0.16037229,0.1095029,-0.307636
20240424 02:52:36,0.951421,-0.306473,-1.145073,0.252471,0.177941,-0.012718,-21.357681,0.836143,-4.644333,45.66171,-0.9745342,-0.9389994,-1.0287553,0.12140004,0.12348841,-0.27024752
20240424 02:52:36,0.85279,-0.420489,-1.204734,0.192811,0.229078,-0.060658,-20.979404,1.154118,-5.197205,45.5648,-1.1109765,-1.0314467,-0.92395616,0.09196213,0.15236428,-0.22125241
20240424 02:52:36,0.777341,-0.517029,-1.148307,0.149132,0.266365,-0.097945,-21.21785,0.472527,-4.887146,53.093136,-1.1257919,-0.98397565,-0.81040543,0.041954525,0.19428755,-0.18890667
20240424 02:52:36,0.638696,-0.606305,-0.968436,0.141675,0.291934,-0.12671,-20.626873,0.611374,-4.890335,62.21527,-0.97120136,-0.8526177,-0.6163839,-0.025752544,0.24547143,-0.1913853
20240424 02:52:36,0.474585,-0.634869,-0.796044,0.1747,0.289803,-0.137363,-21.111309,0.287014,-4.472061,71.75743,-0.7685643,-0.7274862,-0.40743172,-0.07289196,0.2695613,-0.22632736
20240424 02:52:36,0.209309,-0.590367,-0.745734,0.242883,0.262104,-0.136298,-20.768509,0.033024,-4.720001,79.844826,-0.67464477,-0.55586314,-0.13230866,-0.10564667,0.26953757,-0.28605947
20240424 02:52:36,0.032343,-0.529307,-0.78416,0.316392,0.217359,-0.122448,-20.838039,0.022945,-4.31813,87.99467,-0.6715658,-0.3904332,0.04227687,-0.10870151,0.24252404,-0.3457031
20240424 02:52:36,-0.099399,-0.451611,-0.997291,0.376051,0.149177,-0.108599,-20.416744,-0.125946,-4.974075,96.10043,-0.79166824,-0.09350088,0.16398577,-0.10741429,0.19186115,-0.38952917
20240424 02:52:36,-0.19384,-0.234488,-1.247083,0.395228,0.061818,-0.100076,-20.292271,-0.121414,-4.571228,110.47544,-0.92853385,0.47474438,0.25187206,-0.08167669,0.1257347,-0.39568934
20240424 02:52:36,-0.215871,0.009933,-1.525596,0.360071,-0.007429,-0.091553,-20.416359,-0.317837,-4.693604,132.97998,-0.87385046,1.2567729,0.27604002,-0.023938358,0.0890406,-0.35547462
20240424 02:52:36,-0.118497,0.0454,-1.703694,0.290823,0.005355,-0.085161,-20.26461,-0.220135,-4.028625,125.74299,-1.1988722,1.2728167,0.15259747,-0.05159973,0.0734659,-0.2890194
20240424 02:52:36,-0.009235,0.125842,-1.733325,0.192811,0.058622,-0.094749,-20.452602,-0.506027,-4.949631,130.19516,-1.1249443,1.4709314,0.05605225,-0.09434147,0.118122086,-0.19185933
20240424 02:52:36,-0.075213,0.182239,-1.597792,0.102257,0.132131,-0.088357,-20.240284,-0.493267,-4.680405,110.87694,-1.4303522,1.0374265,0.098707244,-0.14067534,0.16223773,-0.10752169
20240424 02:52:36,-0.061836,0.266524,-1.260521,0.020225,0.202444,-0.061724,-19.95882,-0.278538,-5.093521,97.25397,-1.270259,0.70598793,0.051107794,-0.1290582,0.21159488,-0.03924819
20240424 02:52:36,-0.059658,0.471539,-0.761353,-0.02665,0.230144,-0.031894,-19.888905,-0.460346,-5.214951,86.34956,-0.8361845,0.6029394,-0.015794102,-0.07758269,0.23125625,-0.00703179
20240424 02:52:36,0.05505,0.705328,-0.26935,-0.034108,0.234405,-0.020175,-19.967785,-0.373558,-5.087418,81.6277,-0.32152158,0.72877574,-0.18641259,-0.048367858,0.23462601,-0.008587613
20240424 02:52:36,0.173709,0.821309,0.118989,-0.004278,0.242928,-0.024436,-19.667625,-0.35257,-4.951828,79.07936,0.11248405,0.8163876,-0.32879817,-0.036323834,0.24376124,-0.045033455
20240424 02:52:36,0.259676,0.835911,0.263641,0.044728,0.292999,-0.041482,-19.694519,-0.637627,-4.933487,78.51649,0.28696558,0.82879585,-0.42162144,-0.040129952,0.29450822,-0.10847166
20240424 02:52:36,0.190426,0.923696,0.570795,0.104387,0.323894,-0.063854,-19.827572,-0.929066,-5.049759,81.10312,0.52738845,0.8807853,-0.38026384,-0.061857406,0.3297128,-0.17955516
20240424 02:52:36,0.030551,1.110509,0.677824,0.183223,0.333482,-0.077704,-19.193954,-1.065193,-5.436478,85.642204,0.45634124,0.9717405,-0.27746075,-0.09085496,0.349591,-0.25752437
20240424 02:52:36,-0.276034,1.357532,0.543892,0.274843,0.330286,-0.084096,-19.121471,-0.688816,-4.924454,95.37779,2.9820204E-4,1.0826151,-0.022417108,-0.12813891,0.35792837,-0.3357133
20240424 02:52:36,-0.674188,1.812728,0.055617,0.359006,0.342005,-0.116056,-19.500515,-0.623016,-4.93251,115.52205,-1.2166668,1.2836335,0.37738422,-0.24137104,0.37565482,-0.39827934
20240424 02:52:36,-1.294872,2.306181,-0.595955,0.40162,0.344136,-0.144821,-19.272453,-1.170296,-5.028488,140.67595,-2.5405266,1.2804412,1.092269,-0.29427254,0.3389779,-0.41418496
20240424 02:52:36,-1.889379,2.642829,-1.128947,0.353679,0.252516,-0.088357,-18.707985,-1.508392,-4.732864,155.85834,-3.1211944,1.1665804,1.8402123,-0.18706356,0.1989224,-0.3509655
20240424 02:52:36,-2.195622,2.771779,-1.450512,0.208792,0.065015,0.043746,-18.841427,-1.607944,-5.129608,158.25061,-3.3074236,1.2720075,2.2144513,-0.015336696,0.007566854,-0.21765152
20240424 02:52:36,-1.944801,2.723492,-1.238058,-0.017062,-0.216237,0.214202,-18.70837,-1.316509,-5.013336,144.95137,-3.2736716,1.7631943,1.8206264,0.26942933,-0.27505416,0.007973887
20240424 02:52:36,-1.147123,2.532923,-0.593662,-0.266354,-0.487901,0.3772,-19.096764,-1.153835,-5.295761,105.24441,-1.9582887,2.385397,0.75523746,0.52066565,-0.63128173,0.32383665
20240424 02:52:36,-0.002541,2.016561,0.685425,-0.43894,-0.672206,0.492257,-19.493351,-1.469963,-5.011124,71.85664,0.8426861,2.0711975,-0.47723275,0.28346613,-0.61082155,0.6442809
20240424 02:52:36,1.122032,1.372553,2.10539,-0.463443,-0.788329,0.512499,-19.114693,-1.343876,-5.283539,59.71571,2.6772976,1.7718315,-1.0784007,0.03246343,-0.54056346,0.7991494
20240424 02:52:36,2.139551,0.716145,2.990428,-0.356908,-0.748911,0.449643,-19.740108,-0.728947,-5.463867,51.41224,3.6423168,1.3756437,-1.2514002,-0.12642956,-0.40107882,0.72842824
20240424 02:52:36,3.214439,-0.071832,2.986761,-0.198171,-0.488966,0.277057,-19.739727,-0.920837,-5.183395,47.08697,3.7867842,0.3605957,-1.5504721,-0.14835097,-0.21106516,0.46489823
20240424 02:52:36,3.550918,-0.862678,2.863674,-0.009605,-0.136336,0.01072,-20.067165,-1.034992,-5.581116,43.649593,3.4195762,-0.4105568,-1.5212077,-0.06678336,-0.10037034,0.06361021
20240424 02:52:36,3.164534,-1.088167,2.326827,0.162982,0.226947,-0.270532,-20.121342,-1.413223,-5.824905,48.780655,2.816979,-0.6958631,-1.6035899,-0.02256243,0.035025664,-0.31323624
20240424 02:52:36,1.835846,-0.935748,1.964998,0.299346,0.409122,-0.485732,-20.049236,-0.844955,-5.593353,63.850044,2.2747207,-0.65696096,-1.0337195,-0.23344004,0.2684589,-0.50078154
20240424 02:52:36,0.220247,-0.673394,1.397212,0.415469,0.415514,-0.575221,-19.502701,-1.373096,-5.285492,90.16529,1.5099101,-0.95744026,0.004238757,-0.49231336,0.5673825,-0.52558017
20240424 02:52:36,-1.001767,-0.614018,0.712445,0.49537,0.331352,-0.528346,-19.547909,-1.656303,-5.5354,112.149864,0.5961896,-1.0839603,1.0456625,-0.44408342,0.6604005,-0.50489503
20240424 02:52:36,-1.794261,-0.591441,0.203134,0.524135,0.213098,-0.406896,-19.275024,-1.728481,-5.661942,129.51979,7.8094006E-4,-0.9644134,1.8048772,-0.21545322,0.5777771,-0.46664312
20240424 02:52:36,-2.362664,-0.559663,-0.422814,0.514547,0.118282,-0.259878,-19.46225,-2.398148,-6.022003,141.43903,-0.39735824,-0.52500886,2.4563103,-0.03137306,0.42421928,-0.4472508
20240424 02:52:36,-2.496587,-0.341296,-0.746152,0.442103,0.047969,-0.089423,-18.950153,-2.172512,-5.897675,146.59737,-0.6315007,-0.12963879,2.6248324,0.06523931,0.22275561,-0.40725377
20240424 02:52:36,-2.34385,-0.182273,-0.914399,0.333437,-0.013821,0.052269,-19.240971,-2.290371,-5.758896,147.20926,-0.7107426,0.1849339,2.491198,0.11708674,0.03462211,-0.33084223
20240424 02:52:36,-1.913397,-0.07711,-0.801735,0.205596,-0.091592,0.143889,-19.222656,-2.292221,-5.490646,141.07904,-0.6823456,0.27798778,2.0171993,0.1847275,-0.120806046,-0.2126094
20240424 02:52:36,-1.701001,-0.045478,-0.707285,0.062839,-0.173623,0.187568,-19.152355,-2.665916,-5.331573,126.33318,-0.7406915,0.2455993,1.7578331,0.26031148,-0.24218151,-0.055797786
20240424 02:52:36,-0.879409,0.028502,-0.170781,-0.058611,-0.236479,0.17798,-19.443169,-2.783779,-5.19281,107.58895,-0.3316866,0.020803161,0.86682457,0.25797015,-0.29875696,0.09144837
20240424 02:52:36,-0.464597,-0.099943,0.231726,-0.154492,-0.256721,0.128974,-19.346359,-2.680527,-5.33255,94.73974,0.14219823,-0.19934,0.47087067,0.16456205,-0.2942733,0.2050132
20240424 02:52:36,-0.25141,-0.243096,0.591217,-0.22374,-0.24074,0.068249,-19.956032,-2.625637,-5.878098,88.74008,0.5476826,-0.3820949,0.30770618,0.061386935,-0.2623453,0.27744183
20240424 02:52:36,-0.252729,-0.346335,0.836198,-0.277007,-0.198126,0.018178,-19.840527,-2.716129,-5.469131,89.985146,0.78901976,-0.5370087,0.33844802,-0.015751772,-0.21433613,0.3208831
20240424 02:52:36,-0.296554,-0.429155,0.989815,-0.319621,-0.142728,-0.016979,-19.392338,-2.57996,-6.143402,87.978455,0.9281981,-0.6543399,0.4194905,-0.07825504,-0.15667365,0.34721833
20240424 02:52:36,-0.348375,-0.539555,1.062721,-0.3633,-0.070285,-0.037221,-19.329197,-2.106709,-5.905731,89.79459,0.99771583,-0.80741525,0.5009431,-0.13083301,-0.08797529,0.3670028
20240424 02:52:36,-0.480937,-0.643923,1.212898,-0.394195,-0.014887,-0.044678,-19.259666,-2.09663,-6.307617,89.12833,1.0967056,-0.96092075,0.6767851,-0.1704254,-0.038154267,0.37571993
20240424 02:52:36,-0.492302,-0.816781,1.391668,-0.400588,0.027727,-0.041482,-19.699276,-1.945889,-5.919922,89.57224,1.2705564,-1.1536049,0.7557543,-0.18728514,0.001226808,0.36401093
20240424 02:52:36,-0.407656,-0.941291,1.474506,-0.382477,0.075668,-0.029763,-19.516808,-2.584488,-6.546265,85.89218,1.3599684,-1.2193595,0.76781636,-0.18341815,0.051810857,0.32593128
20240424 02:52:36,-0.21828,-1.123195,1.516693,-0.33134,0.138524,-0.027632,-19.189369,-2.470329,-6.148544,84.285965,1.4633858,-1.3361571,0.6816711,-0.1700413,0.12175912,0.2536036
20240424 02:52:36,-0.125652,-1.286482,1.435916,-0.238655,0.210967,-0.041482,-19.674568,-2.410908,-6.291229,83.99388,1.4500785,-1.4784586,0.64797586,-0.15607826,0.20108292,0.14197436
20240424 02:52:36,-0.2078,-1.29817,1.250515,-0.120401,0.263169,-0.041482,-19.638325,-2.222721,-6.035202,87.65489,1.3300339,-1.5327898,0.66690326,-0.1324971,0.2564593,0.020071963
20240424 02:52:36,-0.385043,-1.183021,0.926461,-0.007474,0.277019,-0.020175,-19.596073,-2.305813,-6.699219,91.60342,1.0686545,-1.4388661,0.7291436,-0.10374473,0.26809692,-0.079782724
20240424 02:52:36,-0.599854,-1.051252,0.477389,0.084146,0.253581,0.013916,-19.28656,-2.381687,-6.289276,100.83131,0.7119031,-1.2195929,0.83267987,-0.077848375,0.22936337,-0.14913438
20240424 02:52:36,-0.756296,-0.986117,-0.024888,0.134217,0.201379,0.065053,-19.004711,-2.358852,-6.421936,108.74697,0.3764693,-0.8823633,0.95220906,-0.034536444,0.14280348,-0.17918739
20240424 02:52:36,-0.81565,-0.804964,-0.477037,0.139544,0.153438,0.120451,-19.128414,-2.747162,-6.26384,117.82819,0.07089576,-0.3488167,0.98075455,0.003871061,0.043811165,-0.17397612
20240424 02:52:36,-0.799497,-0.705599,-0.828321,0.106518,0.125739,0.167326,-19.083591,-2.272064,-6.294418,121.95812,-0.13366836,0.062396467,0.9631871,0.030330129,-0.030557774,-0.13796765
20240424 02:52:36,-0.747665,-0.634554,-0.946023,0.047924,0.079929,0.205679,-18.837605,-2.629303,-6.402618,121.22441,-0.25141206,0.20564348,0.90018636,0.080159545,-0.096164405,-0.07472834
20240424 02:52:36,-0.686191,-0.474164,-0.921222,-0.017062,0.009616,0.238705,-19.401302,-2.67498,-6.137299,116.68263,-0.44200778,0.21114162,0.80485404,0.16210867,-0.15715213,-6.31E-04
20240424 02:52:36,-0.567077,-0.341698,-0.812245,-0.084179,-0.075611,0.262142,-19.313068,-2.858635,-5.990463,108.089966,-0.55593526,0.12425554,0.64588267,0.24384496,-0.21576364,0.08185821
20240424 02:52:36,-0.375371,-0.251384,-0.657516,-0.143839,-0.152316,0.274926,-19.286175,-2.573578,-6.008804,94.368454,-0.57722294,-0.02618742,0.41623807,0.2858567,-0.24587801,0.16185297
20240424 02:52:36,-0.059542,-0.236577,-0.484934,-0.197106,-0.189604,0.265338,-19.701462,-2.695969,-6.272888,79.1339,-0.46404347,-0.19165589,0.08252406,0.2445396,-0.21642098,0.23422934
20240424 02:52:36,0.271008,-0.246995,-0.205211,-0.232263,-0.197061,0.220594,-18.883194,-2.720623,-6.932983,65.73606,-0.1710054,-0.27224585,-0.23737608,0.14840858,-0.16863006,0.28161588
20240424 02:52:36,0.555559,-0.203938,0.05418,-0.249308,-0.175754,0.139627,-19.36544,-2.294903,-6.161743,61.90204,0.13549867,-0.21506311,-0.49408552,0.03912832,-0.13018854,0.2930868
20240424 02:52:36,0.705082,-0.217887,0.287989,-0.246112,-0.115029,0.033092,-19.208065,-2.276592,-6.697266,62.000774,0.412264,-0.1948198,-0.5985806,-0.05251897,-0.09475238,0.2678018
20240424 02:52:36,0.531049,-0.234038,0.484015,-0.22374,-0.052174,-0.069181,-19.498878,-2.394447,-6.558487,70.144905,0.5936564,-0.21263362,-0.40776777,-0.13003458,-0.052473582,0.22235371
20240424 02:52:36,0.181122,-0.18355,0.617755,-0.202433,-0.027671,-0.107534,-19.720161,-2.502228,-6.821594,79.09132,0.6584787,-0.23720092,-0.090949155,-0.15658438,-0.022829544,0.19628564
20240424 02:52:36,-0.297732,-0.124419,0.698428,-0.120401,0.029858,-0.159736,-19.702232,-2.312191,-6.833832,86.903175,0.5917866,-0.30308366,0.33180296,-0.19005758,0.057536002,0.10418786
20240424 02:52:36,-0.568072,-0.131228,0.696521,-0.052219,0.041577,-0.146951,-19.535507,-2.390751,-7.094971,90.874374,0.5027005,-0.39323545,0.57835805,-0.16112286,0.07971358,0.038287092
20240424 02:52:36,-0.75803,-0.139355,0.686655,0.013833,0.024531,-0.117122,-19.683918,-2.314041,-6.565582,93.98122,0.43314135,-0.4410421,0.75061804,-0.10869611,0.063770846,-0.018089633
20240424 02:52:36,-0.800533,-0.03898,0.714299,0.090538,-0.023409,-0.084096,-19.1991,-2.181572,-6.703384,93.606476,0.41115886,-0.36781877,0.7624231,-0.03988463,0.016786583,-0.07789884
20240424 02:52:36,-0.772697,0.037961,0.720562,0.177896,-0.106507,-0.06492,-19.553436,-2.580791,-7.082748,92.60042,0.40925658,-0.28405496,0.71901965,0.029038545,-0.059997078,-0.13854592
20240424 02:52:36,-0.691217,0.146298,0.627581,0.26632,-0.216237,-0.05107,-19.438313,-2.479389,-6.954254,91.7199,0.3417415,-0.12612915,0.6236621,0.09345457,-0.16374099,-0.19985446
20240424 02:52:36,-0.527094,0.23353,0.322539,0.327045,-0.296138,-0.043613,-19.729126,-2.597248,-6.815491,91.114784,0.109610796,0.084049426,0.4614265,0.12373832,-0.24417625,-0.25370082
20240424 02:52:36,-0.307847,0.276675,-0.087229,0.339829,-0.318511,-0.044678,-20.019943,-2.715111,-6.676727,89.09348,-0.21371824,0.27416056,0.25265387,0.10633536,-0.27660123,-0.27694318
20240424 02:52:36,-0.219956,0.275442,-0.229222,0.31213,-0.276962,-0.058528,-19.738091,-2.692268,-6.809372,85.41286,-0.31686926,0.31214595,0.17181203,0.054812636,-0.24527876,-0.26620606
20240424 02:52:36,-0.065874,0.401908,-0.469305,0.256732,-0.1928,-0.074508,-19.888691,-3.365635,-6.63295,85.27659,-0.54788685,0.48945475,1.38985E-4,0.006611712,-0.16459157,-0.22637084
20240424 02:52:36,-0.06888,0.496881,-0.361706,0.207726,-0.109703,-0.079835,-19.571365,-2.770832,-7.070526,86.35629,-0.48240462,0.56925696,-0.015258191,-0.014906198,-0.077100635,-0.18828443
20240424 02:52:36,-0.20156,0.585249,-0.16958,0.194942,-0.078807,-0.076638,-19.976917,-3.181976,-6.779785,90.35326,-0.3687647,0.59731686,0.092364214,-0.01322946,-0.04184445,-0.17734909
20240424 02:52:36,-0.355805,0.69269,0.055048,0.208792,-0.123552,-0.061724,-19.99485,-3.372013,-6.767563,91.96288,-0.23829678,0.6154539,0.2131115,0.02277353,-0.08410968,-0.18018332
20240424 02:52:36,-0.340147,0.859267,0.144392,0.235425,-0.193865,-0.041482,-19.792263,-3.070499,-7.053162,86.76666,-0.1412363,0.778769,0.17442487,0.053221725,-0.16590309,-0.19530362
20240424 02:52:36,-0.081109,0.967582,0.109096,0.247144,-0.236479,-0.040417,-20.012394,-3.753944,-6.474854,83.278145,-0.062017784,0.9352555,-0.0867132,0.041728303,-0.21994674,-0.20287582
20240424 02:52:36,0.055461,1.068533,0.05963,0.219445,-0.241806,-0.06492,-20.022129,-3.465187,-7.029678,81.6683,-0.10218035,1.0466255,-0.23477176,0.012977734,-0.22225755,-0.176699
20240424 02:52:36,-0.135781,1.342127,0.095372,0.168308,-0.197061,-0.085161,-20.251991,-3.859871,-7.00621,91.42736,-0.3584366,1.2335707,-0.10168848,0.012249626,-0.15033393,-0.13083829
20240424 02:52:36,-0.541353,1.737892,0.181385,0.144871,-0.142728,-0.087292,-20.189888,-4.712372,-6.28009,103.15616,-0.75447536,1.397469,0.19482769,0.018861994,-0.07197371,-0.11130856
20240424 02:52:36,-0.968597,2.028017,0.32904,0.11078,0.00429,-0.062789,-19.774986,-4.39809,-6.296478,110.087845,-1.1026845,1.3382208,0.51192105,-0.028419917,0.053154707,-0.10441418
20240424 02:52:36,-1.348007,2.171829,0.384106,0.106518,0.012812,-0.046809,-19.925583,-5.071457,-6.120056,113.67479,-1.3218815,1.2831926,0.83528733,-0.019732213,0.053141013,-0.10225057
20240424 02:52:36,-1.408694,2.272468,0.216892,0.045793,-0.088396,0.039484,-20.092693,-4.801006,-6.139374,115.981544,-1.587628,1.3863915,0.9412948,0.09531103,-0.08591527,-0.032099783
20240424 02:52:36,-1.027297,2.189771,0.146235,-0.065003,-0.216237,0.083164,-20.526295,-4.921543,-6.671692,104.200516,-1.1410568,1.7293203,0.62298703,0.16584376,-0.23395103,0.09792357
20240424 02:52:36,-0.485166,2.109254,0.128308,-0.205629,-0.329164,0.083164,-20.278118,-4.528706,-6.426926,90.559586,-0.5357737,1.969097,0.12903228,0.1347965,-0.34844187,0.25715578
20240424 02:52:36,0.026363,1.868947,0.182232,-0.284465,-0.355798,0.067184,-20.444839,-4.450146,-6.165787,77.20437,0.12739629,1.8626887,-0.33335724,0.027849775,-0.35917103,0.34261176
20240424 02:52:37,0.427436,1.500885,0.322976,-0.535887,-0.294008,0.016047,-20.51733,-4.826523,-6.677811,68.03543,0.5829632,1.517025,-0.6889665,-0.13382138,-0.27598193,0.5830264
20240424 02:52:37,0.738396,1.070086,0.816113,-0.671186,-0.214107,-0.009522,-20.753971,-4.566158,-6.295242,66.17894,1.1735103,1.1604764,-0.8914738,-0.23754138,-0.17560439,0.6980963
20240424 02:52:37,0.978319,0.607218,1.473673,-0.737238,-0.138467,-0.037221,-20.773052,-4.180531,-7.124435,65.12696,1.8149397,0.7954744,-0.8843791,-0.33061263,-0.0888303,0.72600466
20240424 02:52:37,1.09227,0.101583,2.335793,-0.718061,-0.072415,-0.048939,-20.402973,-4.341347,-7.11026,68.45006,2.5620248,0.3752269,-0.633873,-0.37626126,-0.02341199,0.6639468
20240424 02:52:37,1.181352,-0.407942,2.975671,-0.588089,0.037315,-0.034025,-20.489399,-3.215725,-7.184601,69.266174,3.050769,-0.08387649,-0.22829205,-0.3381574,0.08528044,0.4713376
20240424 02:52:37,1.249645,-0.902372,3.801936,-0.327079,0.104432,-0.029763,-20.771633,-3.046677,-7.332397,71.27348,3.6620822,-0.5401295,0.21511924,-0.20398116,0.12871851,0.20012718
20240424 02:52:37,1.177858,-1.20325,4.071026,0.047924,0.120413,-0.045743,-20.37466,-2.922436,-7.336563,72.26295,3.8107805,-0.8648392,0.49220902,0.004944924,0.11097959,-0.11559102
20240424 02:52:37,0.92657,-1.397044,3.721875,0.46341,0.068211,-0.077704,-20.365311,-3.019306,-7.062195,74.52343,3.5088677,-1.1943915,0.5329753,0.19803494,0.043148823,-0.43307987
20240424 02:52:37,0.450441,-1.45783,2.752347,0.811779,-0.020213,-0.100076,-20.349567,-3.579342,-7.427399,77.66592,2.6879613,-1.5168476,0.5178832,0.28209177,-0.008007106,-0.72298056
20240424 02:52:37,-0.065592,-1.390825,1.40184,1.017391,-0.111833,-0.092619,-20.340603,-3.484322,-7.433517,86.438255,1.574672,-1.6628611,0.5314514,0.26241902,-0.014697732,-0.9308703
20240424 02:52:37,-0.327716,-1.286789,0.719144,1.051482,-0.14699,-0.0809,-20.385426,-3.959419,-7.402954,109.975525,1.2770481,-1.485443,0.5027855,0.22475278,0.05671225,-1.0016726
20240424 02:52:37,-0.76156,-1.007846,-1.171897,0.902333,-0.172558,-0.023371,-20.878441,-4.570686,-6.698105,150.03043,0.6095489,0.80430895,0.96738416,0.28828079,0.1080483,-0.878426
20240424 02:52:37,-0.933704,-0.881815,-1.834189,0.645584,-0.187473,0.02457,-20.896755,-4.56884,-6.966339,177.18556,1.1958811,1.8582784,1.1900122,0.26372555,0.11500922,-0.6412429
20240424 02:52:37,-0.842613,-0.674453,-2.153017,0.331307,-0.221564,0.066118,-21.135201,-5.250431,-6.656296,-174.17345,1.3633356,2.1367445,1.0850908,0.21544097,0.064317055,-0.33949888
20240424 02:52:37,-0.499829,-0.679635,-1.97839,0.008506,-0.276962,0.071445,-20.669079,-4.924225,-7.342789,172.22466,1.0320406,2.0396686,0.6304007,0.25676587,-0.013184268,-0.010625255
20240424 02:52:37,-0.053017,-0.815715,-1.457005,-0.139577,-0.303596,0.05653,-20.826073,-5.134426,-6.526825,85.27595,-1.2619823,-0.5050335,0.1028447,0.10651904,-0.3107623,0.1613662
20240424 02:52:37,0.341342,-0.997044,-0.687534,-0.474097,-0.33236,-0.029763,-20.826839,-4.750648,-7.087753,67.25148,-0.7224949,-1.0704232,-0.22689533,-0.14397287,-0.3250223,0.51685333
20240424 02:52:37,0.490024,-1.150589,0.09152,-0.587023,-0.290812,-0.095815,-20.887409,-4.665707,-6.691986,70.25588,0.10486464,-1.1487602,-0.18411514,-0.27231315,-0.28343782,0.6295484
20240424 02:52:37,0.537235,-1.251403,0.776178,-0.627507,-0.233283,-0.137363,-20.96629,-4.578918,-6.564484,72.80526,0.80997896,-1.2012907,-0.03694602,-0.3544674,-0.2260991,0.6524973
20240424 02:52:37,0.52429,-1.248206,1.29186,-0.621115,-0.174689,-0.167193,-20.879978,-3.803135,-7.819977,71.53401,1.3316985,-1.1938727,0.1127563,-0.39662844,-0.17032105,0.6179602
20240424 02:52:37,0.43831,-1.22571,1.642961,-0.578501,-0.096918,-0.173585,-20.825806,-3.424904,-7.576202,74.3085,1.6611203,-1.2048727,0.26256543,-0.3958708,-0.09569232,0.5470767
20240424 02:52:37,0.322939,-1.189546,1.92671,-0.50073,-0.023409,-0.15654,-21.281925,-2.330349,-7.384247,76.42738,1.9011104,-1.2274636,0.40725958,-0.35782784,-0.025232881,0.44502947
20240424 02:52:37,0.152209,-1.114353,2.039287,-0.380346,0.018139,-0.127775,-21.047085,-3.532681,-7.839294,78.89668,1.9647361,-1.2307163,0.5112487,-0.2817073,0.014676483,0.32376733
20240424 02:52:37,0.065017,-1.056197,2.032956,-0.253569,0.008551,-0.087292,-21.091911,-4.007778,-7.808731,81.214584,1.9627777,-1.2403799,0.50910705,-0.18598858,0.005669548,0.22104156
20240424 02:52:37,-0.106586,-0.907633,1.670918,-0.144904,-0.02554,-0.032959,-21.118423,-4.484726,-7.509933,82.903,1.5896577,-1.0957224,0.5283318,-0.08353092,-0.028542832,0.14178582
20240424 02:52:37,-0.078987,-0.907492,1.313097,-0.062872,-0.058566,0.020308,-20.861282,-3.996872,-7.271271,82.21774,1.2978041,-1.0555954,0.45091367,0.003636081,-0.06317647,0.080167
20240424 02:52:37,-0.0446,-0.869841,1.073931,-0.007474,-0.07135,0.055465,-21.233932,-4.394238,-7.9189,79.18107,1.0849223,-0.96688753,0.36518738,0.056909703,-0.07639015,0.031716537
20240424 02:52:37,0.091287,-0.825905,0.415985,0.022356,-0.060697,0.071445,-21.082565,-4.104649,-7.534378,78.605255,0.4934642,-0.85572356,0.14892131,0.07967569,-0.06597421,-0.001994856
20240424 02:52:37,0.142522,-0.815052,0.056193,0.030878,-0.045782,0.078902,-21.118423,-4.484726,-7.509933,77.2431,0.14104733,-0.8147016,0.041568577,0.08669073,-0.05047996,-0.016220057
20240424 02:52:37,0.167149,-0.761301,-0.273655,0.018094,-0.02554,0.081033,-20.976021,-4.290161,-7.119308,79.41104,-0.15914229,-0.72703695,-0.02806857,0.08512778,-0.033076517,-0.0099625
20240424 02:52:37,0.103574,-0.666698,-0.510765,0.009571,-0.011691,0.082098,-21.091911,-4.007778,-7.808731,79.24069,-0.39324683,-0.5927105,-1.36E-04,0.08328085,-0.02193509,-0.004539079
20240424 02:52:37,0.082887,-0.649224,-0.601122,-0.013866,0.022401,0.081033,-21.303078,-4.596207,-7.236542,83.864975,-0.45136547,-0.5268498,0.014966887,0.07218444,0.006928481,0.011408436
20240424 02:52:37,0.018162,-0.544664,-0.618034,-0.030912,0.049034,0.084229,-20.836575,-4.461887,-7.642578,81.56131,-0.5079581,-0.43577227,0.060832366,0.06834253,0.033714436,0.024081904
20240424 02:52:37,0.017787,-0.331885,-0.49041,-0.019193,0.031989,0.069314,-20.791367,-4.17868,-7.39267,82.9749,-0.4119133,-0.23753552,0.029648,0.057983182,0.018371113,0.014823033
20240424 02:52:37,-0.057685,-0.24282,-0.594085,0.022356,-0.023409,0.012851,-20.984985,-4.385178,-7.11319,88.91413,-0.5082055,-0.07625711,0.09350616,0.02203713,-0.025019785,-0.018342573
20240424 02:52:37,-0.113492,-0.197324,-0.697564,0.026617,-0.038324,-0.002064,-20.897526,-4.185062,-7.527298,96.67092,-0.560074,0.10483672,0.15344636,0.018090414,-0.03221947,-0.020621564
20240424 02:52:37,-0.414763,-0.048932,-0.941326,0.003179,-0.052174,-0.007391,-20.872433,-4.841965,-7.618134,104.62367,-0.81451845,0.4340307,0.45179033,0.02248557,-0.039491206,0.004464875
20240424 02:52:37,-0.469939,0.001551,-0.953044,-0.044761,-0.038324,0.020308,-21.021614,-4.381477,-7.649673,104.2592,-0.8653519,0.47131905,0.5002356,0.030464927,-0.046813328,0.049174506
20240424 02:52:37,-0.510721,-0.002064,-0.882177,-0.117205,-0.012756,0.103405,-21.081795,-4.488426,-6.973434,94.75071,-0.8987984,0.2785536,0.5159966,0.07909769,-0.055880293,0.11613411
20240424 02:52:37,-0.324441,0.021507,-0.562729,-0.125728,-0.013821,0.130039,-20.817875,-4.655628,-7.093872,86.524124,-0.6033055,0.13212661,0.30870503,0.104500644,-0.04746259,0.12757066
20240424 02:52:37,0.047745,-0.00017,-0.240918,-0.108682,-0.017017,0.152411,-21.022377,-3.997704,-8.210617,71.33439,-0.22519213,5.4205465E-4,-0.063055456,0.12577568,-0.017516024,0.12002254
20240424 02:52:37,0.487112,-0.074965,0.077943,-0.020258,-0.010625,0.11619,-20.75769,-4.548679,-7.770096,58.84119,0.1811338,-0.08507849,-0.44356325,0.10106766,0.018492922,0.0374562
20240424 02:52:37,0.987078,-0.052936,0.316101,0.020225,-0.005298,0.085294,-20.985367,-4.193291,-7.393646,57.08946,0.5375516,-0.03779964,-0.89492655,0.082564086,0.017305348,-0.006091786
20240424 02:52:37,1.060363,-0.036879,0.321199,0.144871,0.061818,-0.047874,-21.543056,-4.510246,-8.04837,53.828712,0.5455079,-0.01918199,-0.973042,0.011318892,0.031934764,-0.15971144
20240424 02:52:37,0.876284,0.028174,0.056028,0.190681,0.140654,-0.130971,-21.260826,-4.679298,-7.900558,60.58116,0.24754933,8.608587E-5,-0.8551646,-0.05593571,0.10290548,-0.226384
20240424 02:52:37,0.677203,0.086064,-0.061581,0.199203,0.183268,-0.157605,-20.881397,-4.936985,-7.612015,74.63554,0.065606825,0.092665024,-0.68371946,-0.12299951,0.18992192,-0.23717104
20240424 02:52:37,0.195901,0.144161,-0.235424,0.20453,0.266365,-0.175716,-20.793552,-4.928757,-7.745651,89.593,-0.22658518,0.21839258,-0.21973243,-0.20533934,0.31764424,-0.25099948
20240424 02:52:37,-0.422075,0.264661,-0.311909,0.193877,0.312175,-0.123514,-20.748348,-4.64555,-7.495758,99.096054,-0.47428903,0.3356139,0.37084946,-0.20653665,0.35076147,-0.24794945
20240424 02:52:37,-0.603793,0.329484,-0.261148,0.200269,0.25145,-0.06492,-20.290421,-4.798138,-7.615204,101.93622,-0.512376,0.34747145,0.5314408,-0.13444102,0.27109274,-0.2458434
20240424 02:52:37,-0.746841,0.487173,-0.027169,0.219445,0.155569,-0.009522,-20.556908,-5.189129,-8.128204,99.270744,-0.41237733,0.36450395,0.6226677,-0.030914586,0.16452952,-0.24767739
20240424 02:52:37,-0.63862,0.539367,0.040995,0.231164,0.11189,0.012851,-20.423473,-5.089577,-7.731461,93.60621,-0.29465422,0.43640885,0.5051182,0.0222201,0.11801136,-0.2501446
20240424 02:52:37,-0.283152,0.585759,0.159453,0.265255,0.059688,0.033092,-20.150208,-5.353645,-7.577545,82.34894,-0.003578618,0.54112464,0.1555418,0.079429865,0.06303906,-0.27081865
20240424 02:52:37,0.19124,0.638744,0.320453,0.273778,0.061818,0.019243,-20.317699,-4.891312,-7.877335,67.10464,0.40775317,0.6596225,-0.29033905,0.08526255,0.057907116,-0.27789778
20240424 02:52:37,0.530883,0.748819,0.408326,0.269516,0.150242,-0.06492,-20.053394,-5.250397,-7.717285,65.57259,0.59805155,0.7768347,-0.63039017,0.013437517,0.13477404,-0.29882747
20240424 02:52:37,0.511466,1.032524,0.314616,0.253536,0.290868,-0.127775,-19.861576,-5.985867,-8.06929,66.98969,0.49091104,1.0451031,-0.67128605,-0.05020962,0.27622774,-0.31366643
20240424 02:52:37,0.261376,1.215613,0.223997,0.246079,0.377162,-0.161866,-19.567425,-5.693592,-7.013672,86.728645,-0.013670802,1.1428918,-0.48180467,-0.19439973,0.4144265,-0.314021
20240424 02:52:37,-0.62311,1.78711,0.085765,0.237556,0.511395,-0.194892,-20.212959,-6.018784,-7.53476,110.69423,-1.1490426,1.2685117,0.2602473,-0.4116582,0.54951715,-0.31660083
20240424 02:52:37,-1.970495,2.460623,-0.036204,0.192811,0.415514,-0.057462,-19.649261,-5.973106,-7.800079,125.497284,-2.4345832,1.0724916,1.4537947,-0.31733286,0.32203686,-0.2586141
20240424 02:52:37,-1.9782,2.664007,-0.136069,0.074558,0.147046,0.128974,-19.455257,-5.9585,-7.799103,119.70188,-2.5081012,1.4963511,1.3807414,-0.00705424,0.016104214,-0.118399486
20240424 02:52:37,-1.895714,2.860606,0.210382,-0.110813,-0.206649,0.273861,-19.278416,-6.517704,-7.224945,114.77591,-2.143382,1.6988571,1.2423613,0.30801398,-0.34894717,0.124372974
20240424 02:52:37,-1.038799,2.939549,0.609857,-0.215217,-0.347275,0.324998,-19.552067,-6.061749,-7.659332,88.779144,-0.4681458,2.588298,0.35636032,0.35086238,-0.4358968,0.28913304
20240424 02:52:37,0.288882,2.467173,1.250638,-0.410176,-0.466594,0.365481,-19.931496,-5.804054,-7.947876,64.92118,1.619827,2.6056406,-0.7750679,0.15877362,-0.39112034,0.5612342
20240424 02:52:37,1.34457,1.734272,2.204921,-0.526299,-0.42185,0.320736,-20.134464,-5.913685,-7.942749,58.09576,2.9511724,2.1145518,-1.3570937,-0.04695937,-0.24499047,0.69123447
20240424 02:52:37,2.173142,1.03657,2.780268,-0.489011,-0.069219,0.11619,-20.029072,-5.523529,-8.36908,53.700317,3.6531048,1.4791012,-1.4651585,-0.18036431,0.079618394,0.4848905
20240424 02:52:37,2.613214,0.202245,3.213868,-0.426156,0.112955,0.023504,-20.319504,-5.833275,-7.949829,58.90791,3.9784694,0.6830056,-1.4145672,-0.17346089,0.19762567,0.31501603
20240424 02:52:37,2.424414,-0.445331,3.291537,-0.235459,0.477304,-0.171454,-19.886669,-5.328957,-7.978455,62.058804,3.8271022,0.032897174,-1.0121064,-0.1396746,0.44832397,-0.06974776
20240424 02:52:37,1.424687,-0.602421,3.208036,0.009571,0.66374,-0.34191,-19.568581,-5.117931,-7.855087,72.84115,3.44214,-0.42145312,-0.50935435,-0.24437939,0.6357061,-0.36436108
20240424 02:52:37,0.005182,-0.235462,2.654171,0.241817,0.660544,-0.420746,-19.508011,-5.202869,-8.250854,86.98017,2.3931918,-0.77050465,0.15400109,-0.40384996,0.7524773,-0.5076492
20240424 02:52:37,-1.108238,-0.09832,1.608463,0.38777,0.567859,-0.379197,-19.201073,-5.836937,-8.47435,102.02802,0.9270758,-1.0525426,0.9427738,-0.42965758,0.74077487,-0.53573567
20240424 02:52:37,-1.820616,-0.169374,0.818042,0.413338,0.441082,-0.265205,-18.936382,-6.387917,-8.033829,118.81144,8.7863207E-4,-1.1492196,1.6216043,-0.32952988,0.5870678,-0.47748172
20240424 02:52:37,-2.316789,0.001031,-0.066573,0.337699,0.304718,-0.102207,-18.336441,-6.154049,-8.043137,129.40082,-0.7870353,-0.5991596,2.2038925,-0.18787786,0.33108878,-0.37485078
20240424 02:52:37,-2.288231,0.057394,-0.418095,0.202399,0.170484,0.082098,-18.636223,-6.366928,-7.898254,127.578094,-0.87631154,-0.14789602,2.2604997,-0.042124204,0.070278436,-0.2446742
20240424 02:52:37,-1.77028,-0.04702,-0.512802,0.057512,0.05223,0.221659,-18.654152,-6.556965,-7.886032,110.96468,-0.7535543,0.026770025,1.7755952,0.14462341,-0.09150554,-0.085139334
20240424 02:52:37,-0.947078,-0.299561,-0.277029,-0.068199,-0.017017,0.283449,-18.520714,-6.457417,-7.489288,99.56729,-0.30916804,-0.23512952,0.9986664,0.23775668,-0.1507622,0.059970103
20240424 02:52:37,-0.140591,-0.501451,0.03474,-0.166211,-0.00956,0.273861,-18.769272,-6.658367,-8.014511,78.46006,0.057560842,-0.5058709,0.25493735,0.22577295,-0.045526378,0.17669311
20240424 02:52:37,0.427603,-0.739217,0.490558,-0.219478,0.079929,0.219528,-19.112457,-6.212486,-8.047043,68.93391,0.54392433,-0.71340704,-0.15454912,0.15026723,0.09890245,0.21107987
20240424 02:52:37,0.686587,-0.956108,0.932152,-0.218413,0.18966,0.143889,-19.112843,-6.020599,-8.327515,67.52474,1.0165901,-0.88743854,-0.22264212,0.07785953,0.20959666,0.16431612
20240424 02:52:37,0.634168,-1.038465,1.240499,-0.172603,0.287672,0.071445,-18.504971,-7.017452,-7.854477,73.81268,1.3541299,-1.0074253,-0.09649439,0.011868857,0.29181147,0.066377215
20240424 02:52:37,0.33426,-1.066408,1.412501,-0.096963,0.313241,0.023504,-18.87582,-6.472858,-8.429596,80.53527,1.5435039,-1.1994063,0.16697344,-0.048788406,0.30419135,-0.023384383
20240424 02:52:37,-0.023049,-0.971425,1.390779,-0.018128,0.2653,0.007524,-18.548374,-6.3587,-8.031876,83.39173,1.4155124,-1.1691264,0.43199813,-0.039587386,0.25961897,-0.07897549
20240424 02:52:37,-0.24595,-0.925982,1.153787,0.036205,0.194987,0.022439,-18.539795,-6.071789,-8.318466,85.55851,1.1726701,-1.1695652,0.5751785,-0.00926795,0.18775627,-0.09947877
20240424 02:52:37,-0.356957,-0.948508,0.856779,0.042597,0.140654,0.059726,-17.948433,-6.124832,-8.041183,84.338455,0.8846929,-1.1265513,0.65222174,0.039401323,0.12776028,-0.08127761
20240424 02:52:37,-0.05461,-1.05621,0.578929,0.010637,0.122543,0.095948,-17.994411,-6.024261,-8.852036,76.558426,0.6554842,-1.117552,0.39536643,0.079902895,0.110878214,-0.03878
20240424 02:52:37,0.061181,-1.071712,0.577832,-0.036238,0.132131,0.112993,-18.082256,-6.032494,-8.718399,72.71582,0.6156341,-1.0947441,0.29657674,0.09131139,0.1266304,0.007096024
20240424 02:52:37,0.394957,-1.209551,0.596435,-0.069264,0.168353,0.101275,-18.161522,-5.753811,-8.871338,66.43316,0.62064636,-1.1815344,0.034600414,0.08447581,0.17489296,0.03126149
20240424 02:52:37,0.584573,-1.329708,0.665145,-0.076722,0.218425,0.071445,-17.870708,-5.635956,-9.010132,63.4991,0.6864772,-1.2782818,-0.08252576,0.063859776,0.22656833,0.02083932
20240424 02:52:37,0.620071,-1.361014,0.698112,-0.050088,0.248254,0.032027,-17.861744,-5.540936,-9.016235,65.97527,0.7864244,-1.3338419,-0.112326965,0.02740736,0.25036898,-0.01912447
20240424 02:52:37,0.509168,-1.349668,0.636108,-0.004278,0.254647,-0.004195,-17.966747,-6.122982,-8.309433,70.63161,0.7438625,-1.3435872,-0.033183873,-0.002090352,0.25458863,-0.06947855
20240424 02:52:37,0.296552,-1.293798,0.452102,0.044728,0.238666,-0.025502,-17.763779,-6.013351,-8.31456,76.299065,0.6429422,-1.3233658,0.09188934,-0.035785735,0.2412017,-0.10872369
20240424 02:52:37,-0.183784,-1.104291,0.092459,0.073492,0.194987,-0.025502,-17.588474,-5.805004,-8.862305,82.6433,0.3118865,-1.1025312,0.4583625,-0.053252526,0.19958459,-0.12093303
20240424 02:52:37,-0.317367,-1.034293,-0.04241,0.072427,0.14172,-0.002064,-17.933079,-6.492981,-8.686859,91.22206,0.2748211,-0.96731275,0.54992825,-0.037977297,0.13808326,-0.10345587
20240424 02:52:37,-0.439087,-0.8873,-0.185977,0.050055,0.093779,0.044811,-17.526756,-6.465607,-8.416656,93.161476,0.09693067,-0.77228826,0.62732536,0.012874566,0.071769156,-0.070166804
20240424 02:52:37,-0.422542,-0.769051,-0.188322,0.01916,0.031989,0.084229,-17.544685,-6.655647,-8.404419,90.235275,0.010305271,-0.6826682,0.5811643,0.06930286,0.001298061,-0.025787782
20240424 02:52:37,-0.264855,-0.676916,-0.153048,-0.002147,-0.04152,0.100209,-17.817951,-6.391582,-8.558365,83.71342,-0.02976802,-0.62964684,0.4014192,0.10451519,-0.06569147,0.013476824
20240424 02:52:37,-0.028804,-0.649152,-0.108083,-0.018128,-0.093722,0.097013,-17.685284,-5.908257,-8.722565,75.29486,-0.02831199,-0.63069105,0.15924245,0.10182397,-0.10577621,0.042865854
20240424 02:52:37,0.220978,-0.640303,-0.007205,-0.021324,-0.10118,0.074641,-17.784283,-6.761581,-8.935791,69.070045,0.05417058,-0.6391763,-0.08052782,0.069638565,-0.10255495,0.048183538
20240424 02:52:37,0.36753,-0.619374,0.057471,-0.013866,-0.076677,0.039484,-17.872128,-6.76981,-8.802139,67.87297,0.13342178,-0.6197328,-0.21812479,0.034105852,-0.07608956,0.033567294
20240424 02:52:37,0.357512,-0.543557,0.125316,0.001049,-0.058566,0.002197,-17.396275,-6.732361,-8.933838,68.32439,0.21033692,-0.54393786,-0.21995066,0.002980081,-0.058582544,0.011784268
20240424 02:52:37,0.265144,-0.406042,0.12782,0.02129,-0.053239,-0.025502,-17.863163,-6.674789,-8.808258,71.95403,0.20885706,-0.4090804,-0.15972136,-0.016772639,-0.051376298,-0.010853587
20240424 02:52:37,0.208721,-0.300276,0.153755,0.043663,-0.075611,-0.038286,-17.711796,-6.385201,-8.423737,72.29938,0.21304226,-0.3054142,-0.12739135,-0.023245774,-0.07291455,-0.028752351
20240424 02:52:37,0.219939,-0.281249,0.083586,0.062839,-0.111833,-0.047874,-17.951008,-6.683022,-8.674637,71.89778,0.14463836,-0.28270942,-0.15105806,-0.026881086,-0.108258866,-0.04150452
20240424 02:52:38,0.271992,-0.257861,0.010609,0.083081,-0.132075,-0.057462,-17.854195,-6.579769,-8.814377,69.14752,0.07269164,-0.2568226,-0.21464472,-0.036040284,-0.1304969,-0.059650052
20240424 02:52:38,0.319835,-0.218142,-0.074618,0.106518,-0.13101,-0.072377,-17.687088,-6.85022,-8.795059,67.7431,-0.009176768,-0.21805531,-0.27876768,-0.049590964,-0.13095146,-0.08565684
20240424 02:52:38,0.316797,-0.186155,-0.150014,0.14274,-0.128879,-0.100076,-17.881092,-6.86483,-8.796036,69.691376,-0.081525594,-0.17871748,-0.28828225,-0.06705728,-0.124368705,-0.124105416
20240424 02:52:38,0.223276,-0.097516,-0.269379,0.182158,-0.140598,-0.134167,-18.2691,-6.894047,-8.797989,74.048584,-0.21508104,-0.06369087,-0.2166056,-0.08505491,-0.12186811,-0.16264623
20240424 02:52:38,0.070658,0.004653,-0.437551,0.208792,-0.159774,-0.154409,-18.217117,-7.2659,-8.907181,88.06311,-0.39480612,0.16273344,-0.07279226,-0.054356575,-0.08333923,-0.1828793
20240424 02:52:38,-0.154542,0.132554,-0.5603,0.213053,-0.173623,-0.149082,-18.074711,-7.071327,-8.516541,93.11952,-0.58003867,0.3466469,0.13746059,-0.027836978,-0.08027766,-0.1833304
20240424 02:52:38,-0.330397,0.21476,-0.666274,0.192811,-0.167231,-0.117122,-18.207767,-7.36277,-8.632813,98.240204,-0.72461116,0.49482712,0.3091924,0.013192967,-0.07044508,-0.1634008
20240424 02:52:38,-0.346444,0.254092,-0.575672,0.170439,-0.153382,-0.071312,-18.110569,-7.451405,-8.492096,93.40773,-0.6763903,0.44779074,0.30690444,0.02779314,-0.09742005,-0.14308831
20240424 02:52:38,-0.25178,0.295918,-0.386597,0.17257,-0.152316,-0.037221,-18.322887,-7.464161,-8.761307,88.440384,-0.5013932,0.394978,0.19598852,0.047131658,-0.119872555,-0.14431953
20240424 02:52:38,-0.109963,0.318209,-0.170856,0.199203,-0.170427,-0.020175,-18.349781,-7.749222,-8.742966,81.06069,-0.25136432,0.34270597,0.046961684,0.05253861,-0.15442745,-0.16629635
20240424 02:52:38,0.096779,0.42835,-0.067571,0.235425,-0.213041,-0.025502,-18.374489,-7.284203,-8.371658,77.18737,-0.10691999,0.4357598,-0.17107533,0.04520704,-0.20189705,-0.19638562
20240424 02:52:38,0.217209,0.473091,-0.087948,0.263124,-0.242871,-0.045743,-18.762497,-7.313423,-8.373611,74.24637,-0.08740465,0.48160803,-0.29570177,0.019455712,-0.2347208,-0.22155334
20240424 02:52:38,0.274547,0.52943,-0.127855,0.26632,-0.241806,-0.072377,-18.322502,-7.656052,-8.48085,73.92704,-0.12731849,0.54254335,-0.35967103,-0.0064274,-0.23062313,-0.2280988
20240424 02:52:38,0.210282,0.609756,-0.124797,0.245013,-0.197061,-0.093684,-18.816288,-7.883541,-8.336929,78.57172,-0.17685634,0.6266255,-0.3115658,-0.021037035,-0.17474647,-0.21230632
20240424 02:52:38,0.064997,0.728737,0.014622,0.207726,-0.116095,-0.089423,-18.579647,-8.143909,-8.719482,80.99198,-0.12275536,0.71238095,-0.19127601,-0.02560328,-0.08775152,-0.18656772
20240424 02:52:38,-0.062336,0.912624,0.160029,0.175766,0.028793,-0.06705,-18.825638,-7.786674,-8.611282,87.26736,-0.13253996,0.8190692,-0.11306669,-0.037373476,0.057527613,-0.17862946
20240424 02:52:38,-0.368232,1.244718,0.374993,0.17257,0.190726,-0.041482,-18.71986,-7.588402,-8.757141,93.33552,-0.23620641,0.9577418,0.090561,-0.07581678,0.20567869,-0.2086399
20240424 02:52:38,-0.75686,1.843481,0.602674,0.216249,0.302587,-0.02124,-18.455173,-8.139378,-8.316635,101.56472,-0.5887903,1.1942481,0.2924096,-0.11862577,0.2960346,-0.2777662
20240424 02:52:38,-1.238193,2.339292,0.725561,0.301477,0.261039,-0.00526,-18.227882,-8.302883,-8.973557,107.64979,-1.1736102,1.1939092,0.6081161,-0.089669056,0.25238225,-0.35236344
20240424 02:52:38,-1.716872,2.736814,0.631387,0.370724,0.010682,0.022439,-18.482452,-8.232552,-8.578766,117.80367,-1.9930112,1.0505393,1.0053284,0.09684852,0.05815474,-0.36444604
20240424 02:52:38,-1.934862,3.125291,0.259058,0.348352,-0.36219,0.094883,-18.306377,-8.407982,-8.565567,122.26935,-2.727291,1.3132432,1.2674826,0.41623488,-0.22781022,-0.28273758
20240424 02:52:38,-1.704796,3.28159,-0.093403,0.171504,-0.723343,0.183306,-18.96727,-8.365021,-8.440979,121.09152,-2.8952394,1.8630372,1.2164063,0.7024163,-0.5642923,-0.080877565
20240424 02:52:38,-0.819469,2.945648,-0.162766,-0.121466,-0.869296,0.2696,-19.515228,-8.970737,-8.540863,89.4092,-1.2426081,2.791004,0.37773818,0.52000076,-0.9144246,0.24822226
20240424 02:52:38,0.458283,2.29491,0.493961,-0.418698,-0.813898,0.316475,-19.522003,-8.315678,-8.181778,55.355274,1.2148452,2.3051863,-0.8122092,-0.031156868,-0.6612413,0.6011338
20240424 02:52:38,1.607436,1.588307,1.481621,-0.615788,-0.600828,0.260011,-19.804237,-8.146626,-8.329575,46.87823,2.4656174,1.8065412,-1.564407,-0.2487775,-0.32558292,0.78594625
20240424 02:52:38,2.538693,0.786505,2.081469,-0.675447,-0.1928,0.10234,-19.832283,-7.856022,-9.152664,44.98598,3.0966427,1.0468544,-1.862587,-0.3095016,0.03180372,0.6975593
20240424 02:52:38,2.744111,-0.019005,2.884595,-0.579566,0.236536,-0.145886,-19.892849,-7.771076,-8.756897,56.022625,3.658356,0.42736006,-1.5488203,-0.32557374,0.2834025,0.36046302
20240424 02:52:38,1.835706,-0.374314,3.460725,-0.346255,0.507134,-0.381328,-19.734703,-8.136547,-8.731461,73.44875,3.8462148,-0.10766807,-0.8909773,-0.44556338,0.4833548,-0.006228864
20240424 02:52:38,0.164513,-0.103946,3.702299,-0.049023,0.492219,-0.475079,-19.768761,-7.574661,-8.634506,88.523155,3.251089,-0.6519158,-0.042328246,-0.50414956,0.5525814,-0.21056171
20240424 02:52:38,-1.259936,0.177258,3.378573,0.207726,0.275953,-0.397308,-19.392292,-8.198647,-9.259903,97.45119,2.0905893,-1.1835815,0.81479925,-0.31592172,0.4247477,-0.2884903
20240424 02:52:38,-1.858955,-0.134991,2.819628,0.370724,0.011747,-0.221526,-19.373978,-8.200497,-8.991638,104.28479,1.3417902,-1.7791779,1.3718634,1.8166006E-4,0.1931979,-0.30634916
20240424 02:52:38,-2.118601,-0.389791,2.034876,0.435711,-0.234348,-0.009522,-18.950108,-7.791203,-9.014145,108.058624,0.7878524,-1.9209371,1.8017104,0.30368927,-0.07595899,-0.2965917
20240424 02:52:38,-1.912514,-0.487933,1.564212,0.431449,-0.37604,0.220594,-19.410221,-8.388687,-9.247665,104.464485,0.71760726,-1.5713067,1.7940567,0.5236105,-0.3377945,-0.27751106
20240424 02:52:38,-1.178461,-0.684376,1.319661,0.388835,-0.435699,0.401703,-19.346313,-8.299217,-8.449051,94.213486,0.9784272,-1.2015454,1.307957,0.62732226,-0.4924563,-0.2258437
20240424 02:52:38,-0.239388,-0.930052,1.272223,0.351548,-0.413327,0.464558,-19.71896,-8.696583,-9.096664,76.93581,1.1734338,-1.001877,0.6148104,0.57534117,-0.43125165,-0.16719206
20240424 02:52:38,0.518008,-0.973522,1.25579,0.337699,-0.367517,0.415552,-19.649815,-8.494617,-9.779022,61.812885,1.1849343,-0.7889967,-0.023863494,0.4383956,-0.31475103,-0.15249318
20240424 02:52:38,0.979602,-0.856069,1.155098,0.333437,-0.335556,0.297299,-20.247952,-7.786518,-9.697205,53.56685,1.1075088,-0.5806413,-0.5186999,0.2772262,-0.26678538,-0.18301886
20240424 02:52:38,1.137754,-0.771688,0.817292,0.298281,-0.28655,0.146019,-20.07188,-7.961948,-9.684006,47.92223,0.76011753,-0.5392828,-0.8059527,0.108289026,-0.24383822,-0.20691234
20240424 02:52:38,1.055229,-0.772185,0.375293,0.198138,-0.204519,0.009655,-20.193394,-7.600178,-9.172958,47.01155,0.27986658,-0.6613439,-0.8526944,-0.024485767,-0.20183526,-0.15965907
20240424 02:52:38,0.814777,-0.830197,0.062183,0.045793,-0.083069,-0.091553,-20.284199,-7.974709,-9.953232,52.843643,0.008892905,-0.8272257,-0.66571915,-0.09879493,-0.105329886,-0.0428552
20240424 02:52:38,0.480598,-0.878162,0.107788,-0.11827,0.034119,-0.150147,-20.001575,-8.335648,-9.524948,66.171616,0.16025573,-0.8766673,-0.29129547,-0.16969302,0.027503658,0.096248075
20240424 02:52:38,0.199331,-1.026145,0.418083,-0.232263,0.119347,-0.182108,-20.548115,-7.80751,-9.832809,74.78153,0.53633183,-1.0518309,0.09261957,-0.24505395,0.12853652,0.18207575
20240424 02:52:38,-0.053562,-1.260538,0.831177,-0.258896,0.159831,-0.191696,-20.106968,-8.725803,-9.098618,82.53982,0.95317996,-1.3725141,0.47372186,-0.28457245,0.17391406,0.18892139
20240424 02:52:38,-0.263929,-1.417605,1.144825,-0.205629,0.171549,-0.197023,-19.798229,-8.417908,-9.249619,86.88397,1.269757,-1.6530665,0.7537266,-0.28835636,0.19381382,0.13092297
20240424 02:52:38,-0.51864,-1.510788,1.184649,-0.101225,0.174745,-0.1885,-19.886456,-8.234249,-9.396454,91.176445,1.3225998,-1.8430452,1.0038732,-0.2548856,0.21066011,0.035369862
20240424 02:52:38,-0.716797,-1.543403,1.055587,0.008506,0.165157,-0.152278,-19.832283,-7.856022,-9.152664,96.350586,1.2672548,-1.9141445,1.1473943,-0.19209845,0.21074635,-0.057020705
20240424 02:52:38,-0.890011,-1.484644,0.688442,0.094799,0.14172,-0.099011,-19.701416,-8.314659,-9.389359,100.484985,1.0100602,-1.7463787,1.2462953,-0.12108961,0.18393967,-0.12656495
20240424 02:52:38,-0.925198,-1.37255,0.32963,0.138479,0.107628,-0.037221,-19.72908,-8.215939,-9.931961,102.57703,0.7732687,-1.4471476,1.218502,-0.05287759,0.12913652,-0.1586555
20240424 02:52:38,-0.80202,-1.285357,-0.080491,0.131021,0.092714,0.0267,-19.906956,-8.982475,-10.01767,105.2164,0.52673644,-1.0786104,1.0547234,-0.006028106,0.07497516,-0.14871424
20240424 02:52:38,-0.620641,-1.246164,-0.290155,0.097995,0.108694,0.079968,-20.274849,-8.071575,-9.678864,101.22354,0.31782252,-0.94924134,0.844347,0.025291078,0.057791233,-0.11871416
20240424 02:52:38,-0.36751,-1.206568,-0.431325,0.048989,0.168353,0.112993,-19.940243,-8.804367,-9.359772,94.6941,0.0845668,-0.92086023,0.56137043,0.034608454,0.10532227,-0.07676198
20240424 02:52:38,-0.109262,-1.159209,-0.406839,0.00531,0.253581,0.117255,-19.710381,-8.409679,-9.383255,84.07169,-0.091931045,-1.0105735,0.28838307,0.043912515,0.21263602,-0.044266354
20240424 02:52:38,0.032623,-1.106465,-0.232962,-0.015997,0.301522,0.105536,-19.534691,-8.393219,-9.650513,79.642044,0.003257558,-1.0354016,0.1578884,0.03830848,0.27347058,-0.034664962
20240424 02:52:38,0.001518,-0.950719,-0.23787,-0.018128,0.301522,0.085294,-19.552235,-8.775146,-9.357819,79.94951,-0.041565895,-0.88431364,0.14608797,0.019792847,0.27792877,-0.02864385
20240424 02:52:38,0.075081,-0.89817,-0.163791,-0.017062,0.29513,0.081033,-19.534306,-8.585106,-9.370056,80.68894,0.041839227,-0.8412719,0.07751009,0.013778456,0.27107346,-0.032183614
20240424 02:52:38,0.002554,-0.998712,-0.178329,-0.009605,0.258908,0.083164,-19.616524,-8.672733,-10.436905,79.77596,0.06535587,-0.92752254,0.15912396,0.016875707,0.23137814,-0.03132507
20240424 02:52:38,0.010301,-0.910309,-0.251926,-0.007474,0.23547,0.103405,-19.313408,-8.285439,-9.387405,78.2546,-0.07841158,-0.84911805,0.1233507,0.056633893,0.212593,-0.025921546
20240424 02:52:38,0.149453,-0.924996,-0.299263,-0.017062,0.229078,0.120451,-19.622536,-8.401451,-9.516876,72.95551,-0.18600985,-0.89111716,-0.025744673,0.09471024,0.21668804,-0.011260388
20240424 02:52:38,0.270551,-0.972926,-0.35949,-0.030912,0.242928,0.112993,-19.552235,-8.775146,-9.357819,68.16797,-0.31053188,-0.9711079,-0.15229051,0.10599332,0.24239384,0.003090392
20240424 02:52:38,0.306496,-0.970238,-0.339782,-0.054349,0.272757,0.097013,-19.076382,-8.737701,-9.489502,65.85933,-0.30976558,-0.9780049,-0.19071698,0.09334379,0.27487177,0.022254877
20240424 02:52:38,0.263239,-0.969499,-0.324696,-0.075656,0.339874,0.085294,-19.12159,-9.020908,-9.73941,70.725494,-0.215003,-0.94428474,-0.12610784,0.050036788,0.33300826,0.026255045
20240424 02:52:38,0.157418,-1.013851,-0.062391,-0.074591,0.389946,0.095948,-18.988922,-8.537575,-9.90361,75.484314,0.11290282,-0.99022985,0.03979738,0.023517251,0.37039617,0.002074486
20240424 02:52:38,-0.027968,-0.922019,0.219322,-0.037304,0.395272,0.13217,-18.943714,-8.254372,-9.653687,79.139755,0.37058717,-0.94684434,0.24333961,0.046247587,0.36280808,-0.046600457
20240424 02:52:38,-0.128488,-0.802633,0.389915,0.031944,0.370769,0.186503,-18.758675,-8.334782,-9.646606,78.34927,0.47539276,-0.8605937,0.33038497,0.124794096,0.3358092,-0.10839477
20240424 02:52:38,-0.002729,-0.742253,0.490399,0.107584,0.322829,0.238705,-18.970608,-8.539425,-9.635361,73.49062,0.5309328,-0.77757984,0.20613314,0.2320346,0.305554,-0.16225186
20240424 02:52:38,0.234654,-0.561437,0.485305,0.177896,0.252516,0.254685,-19.040524,-8.357624,-9.513947,65.44999,0.49366498,-0.536573,-0.0686148,0.3017646,0.26397327,-0.20117874
20240424 02:52:38,0.5079,-0.279369,0.388379,0.229033,0.177941,0.226986,-18.837555,-8.247993,-9.519089,56.620033,0.42290878,-0.2216048,-0.40926334,0.296744,0.20812206,-0.22918868
20240424 02:52:38,0.653962,-0.082238,0.047081,0.245013,0.147046,0.160934,-18.698109,-8.41972,-10.042374,45.94682,0.122742064,-0.09671216,-0.6307451,0.23651108,0.17775217,-0.24083911
20240424 02:52:38,0.734361,-0.06941,-0.343337,0.200269,0.172615,0.085294,-18.927586,-9.006298,-9.738434,43.405945,-0.2536746,-0.22258012,-0.75333476,0.16595267,0.18276954,-0.20564
20240424 02:52:38,0.513734,0.01623,-0.662042,0.101191,0.264235,0.028831,-19.130554,-9.115925,-9.733292,54.511055,-0.5964553,-0.11329566,-0.549028,0.08583397,0.26328427,-0.11950078
20240424 02:52:38,0.22811,0.14646,-0.537996,-0.009605,0.355855,0.002197,-18.724617,-8.896671,-9.743576,71.28949,-0.51947343,0.20373219,-0.26327598,-0.035523105,0.3536018,-0.030182242
20240424 02:52:38,-0.024924,0.239838,-0.194773,-0.092702,0.396338,0.002197,-18.433422,-8.970699,-9.601852,78.29849,-0.23966,0.2725993,-0.021226468,-0.09159699,0.38477936,0.026686125
20240424 02:52:38,-0.143579,0.334087,0.358354,-0.124662,0.370769,0.027766,-18.442772,-8.873825,-9.876221,77.14166,0.2582619,0.26649553,0.08450192,-0.061054215,0.35657352,0.041450027
20240424 02:52:38,-0.131567,0.411606,0.97039,-0.101225,0.284476,0.062922,-18.275276,-9.336163,-9.576431,74.25615,0.8658127,0.33847484,0.0903772,0.01246037,0.27714658,0.027423954
20240424 02:52:38,0.167283,0.435699,1.497984,-0.038369,0.175811,0.08849,-18.13364,-8.757824,-9.74675,67.106995,1.4954047,0.5074799,-0.10244812,0.08083145,0.18063542,-0.00328017
20240424 02:52:38,0.590941,0.384545,1.760364,0.036205,0.120413,0.085294,-18.02787,-8.559547,-9.892609,59.469242,1.8948568,0.6363032,-0.37866867,0.11105648,0.13062614,-0.05369058
20240424 02:52:38,0.897407,0.368245,1.601297,0.109714,0.206706,0.039484,-18.451351,-9.16074,-9.58963,57.079514,1.8340931,0.64541996,-0.69323534,0.11366411,0.20260327,-0.14950372
20240424 02:52:38,0.763175,0.659326,1.222942,0.184289,0.398468,-0.038286,-18.151955,-8.755974,-10.014984,61.000343,1.434082,0.76283926,-0.7361058,0.04958191,0.38734603,-0.26834947
20240424 02:52:38,0.078386,1.264246,0.797663,0.237556,0.533768,-0.117122,-18.091007,-9.032795,-10.130295,82.89161,0.399319,0.9835083,-0.3025697,-0.21704298,0.55758816,-0.33923906
20240424 02:52:38,-0.974397,2.029701,0.356556,0.248209,0.503938,-0.135233,-17.897003,-9.018192,-10.129318,110.9477,-1.3846767,1.0162998,0.5499062,-0.39783168,0.48083088,-0.32768452
20240424 02:52:38,-2.002566,2.791064,-0.031616,0.175766,0.306849,-0.054266,-17.666756,-8.815392,-9.872314,127.42535,-2.8810654,0.9046412,1.4626806,-0.2511359,0.22199163,-0.21829195
20240424 02:52:38,-2.503577,3.336535,-0.282776,0.008506,0.071407,0.103405,-17.729893,-9.288639,-10.110001,129.75749,-3.6330907,1.1210587,1.9120625,-0.019959606,-0.06068474,-0.035152145
20240424 02:52:38,-2.186016,3.450395,-0.131215,-0.234393,-0.135271,0.272796,-17.657406,-8.912258,-9.597946,114.85041,-3.076611,2.025228,1.5315418,0.22858442,-0.32594875,0.23133269
20240424 02:52:38,-1.158826,3.187502,0.587551,-0.510318,-0.306792,0.39318,-17.605804,-9.092224,-9.98761,80.771545,-0.4722342,2.8815215,0.4624986,0.33432406,-0.4203902,0.5780423
20240424 02:52:38,0.130907,2.647452,1.77078,-0.72978,-0.382432,0.428337,-18.13364,-8.757824,-9.74675,62.85988,2.0404923,2.8463216,-0.64234,0.10530794,-0.28930524,0.867143
20240424 02:52:38,1.300128,1.899747,3.298677,-0.801158,-0.39202,0.385723,-18.892883,-8.050552,-10.604294,57.787186,3.864927,2.4432068,-1.0802763,-0.13533106,-0.18953839,0.9591831
20240424 02:52:38,1.989145,1.214959,4.217972,-0.694624,-0.314249,0.268534,-18.486942,-7.831295,-10.614578,55.686134,4.765431,1.9794203,-0.9437139,-0.24699338,-0.096069664,0.8066883
20240424 02:52:38,2.478311,0.420141,4.721521,-0.458116,-0.109703,0.099144,-18.371819,-7.7299,-10.486069,57.65105,5.1519785,1.2174339,-0.721285,-0.22615883,0.019918628,0.4559312
20240424 02:52:38,2.39445,-0.331447,4.605321,-0.165146,0.112955,-0.099011,-18.565823,-7.744507,-10.487045,60.83029,4.875291,0.3886937,-0.44704902,-0.14562155,0.11277898,0.0472276
20240424 02:52:38,1.630847,-0.574975,4.085516,0.123564,0.269561,-0.267336,-18.672363,-7.558994,-10.90213,64.177,4.1873198,-0.09975147,-0.17108178,-0.11714645,0.21298878,-0.29462194
20240424 02:52:38,0.522709,-0.47405,3.218223,0.336633,0.310045,-0.35576,-18.256695,-7.628498,-10.357574,73.36731,3.113666,-0.5194465,0.15567636,-0.16982721,0.318103,-0.4806246
20240424 02:52:38,-0.379731,-0.496251,2.194307,0.446364,0.254647,-0.374936,-18.362854,-7.63488,-10.492188,81.849754,1.9570439,-0.97377175,0.6457814,-0.23104557,0.36310092,-0.5268573
20240424 02:52:38,-0.821274,-0.660729,1.186026,0.445299,0.198183,-0.354694,-18.001358,-8.082603,-10.191422,92.91044,1.0334772,-1.1875496,0.9666526,-0.24744102,0.38209212,-0.4791305
20240424 02:52:38,-1.222576,-0.70677,0.43773,0.338764,0.117217,-0.304623,-18.000973,-8.274494,-9.91095,105.93065,0.4399335,-1.0167835,1.3262504,-0.21073928,0.3330338,-0.334611
20240424 02:52:38,-1.374068,-0.57349,-0.071875,0.1747,0.088452,-0.225787,-17.879841,-8.444374,-10.702484,109.44998,0.020750582,-0.585843,1.4690957,-0.17325771,0.24815255,-0.1716197
20240424 02:52:38,-1.301479,-0.554717,-0.286089,-0.007474,0.09591,-0.144821,-17.879456,-8.636265,-10.421997,107.00153,-0.13825001,-0.42184952,1.4070632,-0.16884665,0.16472612,-0.003953912
20240424 02:52:38,-0.997173,-0.685927,-0.050941,-0.172603,0.085256,-0.092619,-17.694416,-8.716679,-10.414917,96.681885,0.060872525,-0.68644077,1.1343815,-0.16170937,0.09770748,0.14944254
20240424 02:52:38,-0.745897,-0.735259,0.386261,-0.286595,0.054361,-0.070246,-17.773682,-8.437992,-10.567871,87.24596,0.3818763,-0.89501786,0.9308363,-0.1637725,0.045439795,0.25792724
20240424 02:52:38,-0.540853,-0.679855,0.970283,-0.349451,0.010682,-0.054266,-17.70158,-7.869724,-10.336304,81.92829,0.8623625,-0.9247457,0.7797792,-0.16860035,-0.00545985,0.3233839
20240424 02:52:39,-0.374301,-0.733586,1.459419,-0.367562,-0.024475,-0.045743,-17.492599,-8.03138,-11.261459,77.14625,1.3058192,-0.9831357,0.74112856,-0.17727935,-0.041097935,0.3452281
20240424 02:52:39,-0.295536,-0.798855,1.901021,-0.350516,-0.031932,-0.038286,-17.313957,-7.648621,-10.614822,78.009865,1.6921263,-1.0671962,0.76070154,-0.17671862,-0.04834854,0.3280897
20240424 02:52:39,-0.287285,-0.806912,2.219358,-0.314294,-0.021279,-0.022306,-17.720276,-7.675987,-10.88501,78.61598,1.9510525,-1.1181567,0.80048454,-0.15567361,-0.039006546,0.28926167
20240424 02:52:39,-0.373593,-0.844327,2.428418,-0.268484,0.014943,0.000067,-17.780842,-7.591049,-10.489258,80.214455,2.0607717,-1.1795044,0.9111157,-0.12714426,-0.003810983,0.23061949
20240424 02:52:39,-0.372791,-0.91605,2.64184,-0.206694,0.053296,0.028831,-18.00251,-7.506939,-11.032837,79.90173,2.234605,-1.2956089,0.98308426,-0.08170721,0.03311851,0.15845479
20240424 02:52:39,-0.424344,-0.922071,2.703529,-0.123597,0.080995,0.060791,-17.72924,-7.771008,-10.878906,80.505745,2.2578475,-1.313367,1.0271717,-0.018358096,0.062298663,0.07436485
20240424 02:52:39,-0.45681,-0.903641,2.689902,-0.02665,0.073537,0.08636,-17.923244,-7.785618,-10.879883,81.03698,2.245706,-1.3232838,1.0272615,0.051287755,0.057658773,-0.004814673
20240424 02:52:39,-0.484809,-0.78922,2.522827,0.061774,0.022401,0.109797,-18.011475,-7.601959,-11.026733,80.345,2.1219106,-1.220874,0.97502446,0.12066351,0.009424126,-0.05677164
20240424 02:52:39,-0.432351,-0.684072,2.21105,0.125694,-0.026605,0.13217,-18.081387,-7.420147,-10.905304,78.438774,1.9070145,-1.033696,0.8553853,0.17475443,-0.037397847,-0.09255001
20240424 02:52:39,-0.236955,-0.611428,1.780891,0.151263,-0.040455,0.140693,-17.923626,-7.593727,-11.160355,73.748116,1.6176353,-0.80551267,0.62487406,0.19039874,-0.048621442,-0.11114959
20240424 02:52:39,-0.025623,-0.620502,1.360421,0.138479,-0.011691,0.121516,-18.01186,-7.410069,-11.30719,69.17164,1.3036658,-0.6961826,0.38474217,0.16172187,-0.015684221,-0.11192234
20240424 02:52:39,0.169345,-0.605138,1.073078,0.099061,0.034119,0.076772,-18.029404,-7.792,-11.014496,66.480125,1.0756011,-0.6116671,0.14930084,0.103871,0.033836443,-0.09421091
20240424 02:52:39,0.261745,-0.579246,0.904184,0.039401,0.069276,0.019243,-17.924011,-7.401836,-11.440842,64.27015,0.94220144,-0.58089,0.025346719,0.030062579,0.06926212,-0.053832993
20240424 02:52:39,0.248043,-0.551989,0.837481,-0.023454,0.096975,-0.042547,-17.790577,-7.302292,-11.044098,66.02784,0.88198036,-0.5641055,0.02227977,-0.049238022,0.09752458,-0.010070989
20240424 02:52:39,0.135227,-0.573585,0.927545,-0.080983,0.118282,-0.088357,-17.957684,-7.031841,-11.0634,69.17125,0.9564761,-0.6278129,0.14750335,-0.116799355,0.121868536,0.031567857
20240424 02:52:39,0.007938,-0.658497,1.079468,-0.112944,0.14172,-0.113926,-17.878803,-7.118629,-11.190918,71.95338,1.0768735,-0.76358074,0.32337403,-0.1595711,0.14822823,0.047466166
20240424 02:52:39,-0.167051,-0.771292,1.329022,-0.115074,0.14172,-0.11073,-17.508724,-7.279453,-11.176743,75.05389,1.260912,-0.95602965,0.5649117,-0.16441125,0.14897206,0.04419125
20240424 02:52:39,-0.323484,-0.78832,1.638412,-0.077787,0.09804,-0.087292,-17.226879,-7.256615,-11.309402,76.91873,1.4694095,-1.0659622,0.7588348,-0.12607867,0.1050422,0.024158496
20240424 02:52:39,-0.428327,-0.720284,1.898794,-0.002147,0.014943,-0.048939,-17.472481,-7.091263,-10.920715,78.755974,1.6357468,-1.0618,0.8403342,-0.047077652,0.022779929,-0.008197658
20240424 02:52:39,-0.428612,-0.647109,1.970174,0.095865,-0.0852,-0.008456,-17.790962,-7.110401,-11.324554,76.98441,1.6935418,-0.9722928,0.8325094,0.045009118,-0.0759676,-0.054020025
20240424 02:52:39,-0.262309,-0.633601,1.797016,0.182158,-0.168297,0.019243,-18.135563,-7.798378,-11.149109,75.51531,1.6188604,-0.8567821,0.65183234,0.10800774,-0.16005324,-0.10339748
20240424 02:52:39,-0.03557,-0.60739,1.471203,0.222641,-0.210911,0.021374,-17.744984,-7.210972,-10.513702,72.25808,1.409187,-0.7204198,0.39077365,0.113823205,-0.20543447,-0.13652551
20240424 02:52:39,0.14243,-0.529194,1.158371,0.211988,-0.219433,0.007524,-18.293705,-7.432907,-11.17453,67.56104,1.1587474,-0.5616445,0.1604693,0.080866545,-0.21746024,-0.13575459
20240424 02:52:39,0.242635,-0.450651,0.915798,0.155524,-0.203453,-0.014848,-17.915047,-7.30682,-11.446945,64.3842,0.9486361,-0.4549512,0.01056286,0.033780787,-0.20312162,-0.09490594
20240424 02:52:39,0.299795,-0.409155,0.866237,0.078819,-0.17895,-0.041482,-18.135944,-7.606487,-11.429581,64.403435,0.9154113,-0.40761727,-0.06445723,-0.016439749,-0.1790813,-0.03243871
20240424 02:52:39,0.286051,-0.416389,0.893301,0.009571,-0.152316,-0.074508,-18.250687,-7.899776,-11.277603,66.292206,0.9432201,-0.42657787,-0.045380667,-0.06603917,-0.15131252,0.024447516
20240424 02:52:39,0.228113,-0.462795,0.976111,-0.049023,-0.137402,-0.106468,-18.18755,-7.426529,-11.039932,68.63687,1.0165961,-0.5006357,0.035303786,-0.110596806,-0.13343121,0.07495788
20240424 02:52:39,0.128173,-0.52936,1.125165,-0.093767,-0.135271,-0.132037,-18.487709,-7.447514,-11.175507,71.397354,1.1390884,-0.61105126,0.17208165,-0.14516228,-0.12721772,0.117449716
20240424 02:52:39,-0.026929,-0.506429,1.372854,-0.117205,-0.150186,-0.138429,-18.347881,-7.811138,-11.418335,74.24524,1.3186947,-0.6658676,0.33773682,-0.1527654,-0.13801335,0.14806515
20240424 02:52:39,-0.194113,-0.435427,1.623148,-0.103355,-0.191734,-0.119252,-18.12698,-7.511467,-11.435699,75.41168,1.4643545,-0.65930414,0.49999645,-0.12306726,-0.17951986,0.15544435
20240424 02:52:39,-0.191631,-0.434422,1.752841,-0.058611,-0.255655,-0.106468,-18.62038,-7.930843,-11.011322,76.23326,1.5783317,-0.64085734,0.50221384,-0.090857364,-0.24431868,0.14054337
20240424 02:52:39,-0.109989,-0.496582,1.666775,-0.003213,-0.296138,-0.111795,-18.594254,-7.262009,-11.590591,73.21153,1.5458251,-0.67462736,0.46142226,-0.07276001,-0.28249168,0.097363904
20240424 02:52:39,-0.061925,-0.530905,1.437569,0.030878,-0.282289,-0.121383,-18.717571,-7.842205,-11.152039,74.73784,1.3740264,-0.6945005,0.37217018,-0.06943999,-0.26489785,0.05592021
20240424 02:52:39,-0.057995,-0.558564,1.154236,0.037271,-0.210911,-0.127775,-18.497059,-7.350647,-11.449875,74.024414,1.1354384,-0.71421254,0.33718187,-0.07796958,-0.18927965,0.020210052
20240424 02:52:39,-0.190389,-0.605211,0.929225,0.02129,-0.111833,-0.130971,-18.690292,-7.749035,-10.889893,79.85605,0.9243553,-0.7976134,0.42303172,-0.09092856,-0.08026762,0.007626702
20240424 02:52:39,-0.373051,-0.572437,0.882718,0.001049,-0.040455,-0.123514,-18.495907,-7.926311,-10.608459,83.25484,0.8283618,-0.8064725,0.57069314,-0.10208906,-0.007764801,0.007323646
20240424 02:52:39,-0.547819,-0.510759,0.889885,0.002114,-0.018083,-0.107534,-18.708992,-7.555294,-11.438629,84.674904,0.7705604,-0.8142396,0.71206063,-0.089799434,0.016052756,6.4930855E-4
20240424 02:52:39,-0.687708,-0.459023,0.948002,0.026617,-0.046847,-0.084096,-18.699257,-7.844055,-10.883789,87.43022,0.7552885,-0.81638175,0.8162315,-0.050324902,-0.013812222,-0.010581489
20240424 02:52:39,-0.715694,-0.39852,0.960821,0.068166,-0.109703,-0.061724,-18.505253,-7.829445,-10.882813,87.49845,0.7508892,-0.7750251,0.81981087,0.004055616,-0.074301034,-0.029758684
20240424 02:52:39,-0.706256,-0.341536,0.80029,0.101191,-0.156578,-0.046809,-18.938473,-8.141872,-11.134674,87.59753,0.61579674,-0.6714158,0.78645504,0.042926002,-0.11879809,-0.049824588
20240424 02:52:39,-0.593628,-0.254247,0.53283,0.11078,-0.174689,-0.041482,-18.80542,-7.850437,-11.018402,86.2846,0.4041873,-0.4758817,0.6497169,0.05215778,-0.13871455,-0.05980211
20240424 02:52:39,-0.443467,-0.169569,0.280379,0.082015,-0.158709,-0.048939,-18.990074,-7.961914,-10.745026,84.83123,0.20234764,-0.2837014,0.4774321,0.025044058,-0.12823923,-0.04204767
20240424 02:52:39,-0.292178,-0.091421,0.099058,0.01916,-0.115029,-0.06705,-18.823349,-8.040474,-11.00618,82.03536,0.052686647,-0.13557269,0.30816975,-0.024733845,-0.08912753,0.004943756
20240424 02:52:39,-0.183864,-0.040699,0.048207,-0.059676,-0.057501,-0.086227,-18.80542,-7.850437,-11.018402,79.4229,0.01416212,-0.061958544,0.19014291,-0.08031057,-0.03752146,0.06730584
20240424 02:52:39,-0.106148,-0.040974,0.143137,-0.135316,0.005355,-0.107534,-18.841663,-8.038624,-11.274414,78.40025,0.11918684,-0.07928769,0.119519815,-0.13488396,0.02255259,0.12500584
20240424 02:52:39,-0.154477,-0.073113,0.31013,-0.192845,0.060753,-0.123514,-19.096615,-7.776405,-11.16011,79.88287,0.2668531,-0.15548275,0.18225086,-0.18064676,0.07592353,0.164692
20240424 02:52:39,-0.274605,-0.089689,0.562981,-0.216282,0.085256,-0.127775,-18.611801,-7.643936,-11.297897,81.2601,0.45929572,-0.2563344,0.31386316,-0.20375341,0.09791728,0.1758947
20240424 02:52:39,-0.419585,-0.117013,0.815372,-0.200302,0.080995,-0.119252,-18.549698,-8.496429,-10.571777,86.10939,0.635974,-0.39018124,0.45253557,-0.19496112,0.09222161,0.16156913
20240424 02:52:39,-0.520799,-0.115146,0.923727,-0.156623,0.046904,-0.100076,-19.034897,-8.437012,-10.714447,86.999535,0.6882733,-0.43879515,0.54548997,-0.15552355,0.057894528,0.1304614
20240424 02:52:39,-0.552053,-0.07886,0.970432,-0.105486,0.00429,-0.081965,-19.007618,-8.343845,-10.452316,88.6788,0.70573574,-0.44428182,0.5545629,-0.108994365,0.018397735,0.097554184
20240424 02:52:39,-0.580418,-0.044565,0.853248,-0.055415,-0.005298,-0.058528,-18.629345,-8.025864,-11.005203,87.43933,0.5865842,-0.39324152,0.57651323,-0.06776396,0.008428378,0.053381953
20240424 02:52:39,-0.573055,-0.04974,0.702421,-0.020258,0.024531,-0.01911,-18.647274,-8.215904,-10.992981,87.829254,0.46082723,-0.3507414,0.5682468,-0.031644896,0.027145429,0.011369743
