Timestamp,linacce_x,linacce_y,linacce_z,gyro_x,gyro_y,gyro_z,X-magnetometer,Y-magnetometer,Z-magnetometer,Yaw, worldXAccel,worldYAccel,worldZAccel,worldXgyro,worldYgyro,worldZgyro
20240117 01:22:35,0.052904,0.330822,-0.344439,-0.090448,-0.072364,-0.016533,-3.925098,17.375408,-43.037727,8.325356,-0.249868,0.348081,-0.28499994,-0.066247225,-0.07483182,0.066758625
20240117 01:22:35,0.107940,0.266047,-0.323710,-0.160761,-0.108586,-0.030382,-4.366512,16.584185,-42.722542,8.880866,-0.19225374,0.28352797,-0.31286258,-0.12095885,-0.11284514,0.1156099
20240117 01:22:35,0.084818,0.168839,-0.146802,-0.206571,-0.117108,-0.038905,-4.031258,17.369030,-43.172340,8.63808,-0.062726974,0.17863062,-0.17584674,-0.159426,-0.12333316,0.1422505
20240117 01:22:35,0.050854,0.133857,-0.032286,-0.224682,-0.118174,-0.042101,-4.331806,17.539928,-43.588402,9.45869,0.0033834707,0.13750947,-0.07382925,-0.17574988,-0.12604804,0.15195419
20240117 01:22:35,-0.044363,0.062537,0.242439,-0.220421,-0.104324,-0.041036,-3.976700,17.555370,-42.648079,9.611324,0.14238611,0.046409853,0.18878362,-0.17482018,-0.113320746,0.14495574
20240117 01:22:35,-0.156040,0.035396,0.420954,-0.189525,-0.081952,-0.038905,-4.055965,17.834049,-42.801033,10.385916,0.19078112,-0.0012682285,0.39552164,-0.15434322,-0.09084413,0.11994867
20240117 01:22:35,-0.228960,0.034702,0.556920,-0.128801,-0.045730,-0.033578,-4.225262,17.354420,-43.173317,11.0900755,0.23252814,-0.01880574,0.54169846,-0.11100072,-0.051865716,0.074931554
20240117 01:22:35,-0.270110,0.074569,0.586925,-0.042507,0.001145,-0.026121,-3.995399,17.749109,-43.196800,10.692471,0.22154503,0.016454916,0.58748144,-0.048434015,7.245003E-5,0.012114041
20240117 01:22:35,-0.222713,0.046374,0.537906,0.053374,0.051217,-0.023990,-4.302723,18.575064,-43.253777,10.571844,0.2262658,-0.0019282848,0.52221775,0.016771667,0.05585116,-0.061266564
20240117 01:22:35,-0.175443,0.024222,0.361945,0.134340,0.090634,-0.028252,-4.100403,17.167063,-42.489983,10.265551,0.14018326,-0.008160822,0.3691542,0.06625139,0.09981008,-0.12783319
20240117 01:22:35,-0.088356,0.021235,0.180338,0.186542,0.113007,-0.037840,-3.809975,17.476809,-42.909233,9.586175,0.07197374,0.0054868227,0.18273059,0.09106009,0.12512934,-0.17564656
20240117 01:22:35,-0.050319,0.001239,-0.032770,0.204653,0.118334,-0.051689,-4.437576,17.341660,-43.442528,10.605799,-0.05789491,4.7004235E-4,0.01611946,0.08964831,0.1329263,-0.20126985
20240117 01:22:35,-0.072618,-0.017257,-0.129237,0.199327,0.109811,-0.060212,-3.916134,17.470428,-43.043831,9.921494,-0.14388114,-0.012772073,-0.025744978,0.07689163,0.12462744,-0.2022688
20240117 01:22:35,-0.065362,0.058395,-0.343793,0.176954,0.106615,-0.060212,-3.934448,17.472279,-43.312080,9.837696,-0.30896547,0.07731226,-0.17278993,0.060015257,0.11993431,-0.18562314
20240117 01:22:35,0.032340,0.075212,-0.464687,0.139667,0.113007,-0.061277,-3.988621,17.094049,-43.555885,9.3433485,-0.3432647,0.10385004,-0.32234654,0.034184057,0.122967355,-0.15806356
20240117 01:22:35,0.098260,0.049569,-0.600616,0.094923,0.130052,-0.062343,-3.934448,17.472279,-43.312080,9.180715,-0.4091477,0.08927141,-0.4521133,0.003138572,0.13779715,-0.12553124
20240117 01:22:35,0.107610,0.048698,-0.619315,0.043786,0.141771,-0.063408,-3.670147,17.113190,-43.152046,8.760806,-0.41762763,0.08855121,-0.47124076,-0.030027539,0.14697772,-0.08684802
20240117 01:22:35,0.067468,0.008626,-0.551738,-0.012678,0.143902,-0.064474,-3.836872,17.191750,-42.890892,9.600021,-0.38385862,0.047766782,-0.39715305,-0.067081235,0.14689554,-0.045547526
20240117 01:22:35,0.042385,-0.027405,-0.411165,-0.039311,0.141771,-0.063408,-3.731480,17.581907,-43.317223,9.760868,-0.2829492,0.003047768,-0.29151565,-0.08321048,0.14324734,-0.026017774
20240117 01:22:35,0.002465,-0.092839,-0.205435,-0.094709,0.122595,-0.050624,-3.476143,17.127798,-43.151070,9.647025,-0.14481509,-0.07849862,-0.12628423,-0.10890892,0.11982081,0.023793057
20240117 01:22:36,0.025507,-0.162599,0.030239,-0.103232,0.104484,-0.038905,-3.396877,16.849121,-42.998116,9.816216,0.050437324,-0.16233712,0.020560816,-0.10580771,0.10014914,0.037227284
20240117 01:22:36,-0.051022,-0.207507,0.214319,-0.089383,0.077850,-0.031448,-3.333736,17.322371,-42.760445,10.108797,0.13476089,-0.22551201,0.20719716,-0.089832254,0.07360181,0.034197662
20240117 01:22:36,-0.116865,-0.177060,0.216789,-0.069141,0.052282,-0.019729,-3.246281,17.522488,-43.174553,10.371348,0.09053427,-0.20161465,0.25317353,-0.065788664,0.048423197,0.030545741
20240117 01:22:36,-0.108293,-0.224449,0.168550,-0.049965,0.037367,-0.004814,-3.122574,17.910793,-43.332634,9.481957,0.06338341,-0.24227175,0.21821758,-0.04037108,0.034248415,0.028866746
20240117 01:22:36,0.006944,-0.236513,0.070245,-0.035050,0.026714,-0.000553,-3.555019,17.214588,-43.023537,9.514876,0.07072956,-0.239627,0.06863807,-0.02590905,0.024628831,0.022314426
20240117 01:22:36,0.067548,-0.270627,-0.058562,-0.029723,0.024583,-0.004814,-3.837257,17.383638,-43.171364,9.851289,0.01936331,-0.26204067,-0.057663225,-0.025091683,0.023087986,0.01598512
20240117 01:22:36,0.066117,-0.252414,-0.184951,-0.032919,0.025648,-0.012271,-3.404037,17.696066,-42.919502,9.038338,-0.07825743,-0.23658541,-0.1444503,-0.032594137,0.024516148,0.01386017
20240117 01:22:36,0.060149,-0.203277,-0.281228,-0.045703,0.017125,-0.018664,-3.051506,17.153318,-42.612633,9.504682,-0.15582478,-0.17781347,-0.20599543,-0.04535906,0.015472122,0.020352578
20240117 01:22:36,-0.021189,-0.132419,-0.327426,-0.070206,0.001145,-0.023990,-3.703430,17.291302,-42.494148,11.305314,-0.2481701,-0.10460764,-0.17721047,-0.064079575,-0.0020709638,0.037515286
20240117 01:22:36,-0.139926,-0.101204,-0.339447,-0.108559,-0.024423,-0.020794,-3.457443,16.934061,-42.602364,11.849926,-0.33588135,-0.0790712,-0.09885514,-0.08442489,-0.03141713,0.07183323
20240117 01:22:36,-0.206707,-0.025280,-0.222012,-0.154369,-0.056384,-0.014402,-3.642868,17.206360,-42.889915,12.065006,-0.29940742,-0.021319695,0.01409255,-0.107652,-0.06777657,0.11396461
20240117 01:22:36,-0.232831,0.000209,-0.100631,-0.189525,-0.097932,-0.008010,-3.658226,17.574509,-42.244255,11.764597,-0.23014742,-0.009863843,0.10680406,-0.123880066,-0.11217193,0.1488176
20240117 01:22:36,-0.183719,-0.017793,-0.002646,-0.206571,-0.133089,0.000513,-3.667191,17.479490,-42.238136,11.368876,-0.12463939,-0.031818263,0.13597661,-0.12795231,-0.1483963,0.1702744
20240117 01:22:36,-0.095170,-0.032150,0.059576,-0.211898,-0.154396,0.002643,-3.791660,17.474960,-42.640999,10.372326,-0.019725073,-0.04226943,0.11344992,-0.1325375,-0.1676001,0.1752464
20240117 01:22:36,0.007015,-0.093663,0.184352,-0.193787,-0.166114,-0.003749,-3.552448,17.772779,-42.390114,9.283042,0.14281797,-0.10368629,0.13145193,-0.12728694,-0.17618133,0.15574948
20240117 01:22:36,0.071938,-0.089229,0.285256,-0.160761,-0.172506,-0.014402,-3.677307,17.960136,-43.073433,8.875836,0.25845826,-0.09995603,0.15491298,-0.11375129,-0.17932138,0.123729765
20240117 01:22:36,0.088827,-0.077768,0.327752,-0.116016,-0.175703,-0.025056,-4.047382,18.120956,-43.087608,9.041214,0.30017933,-0.089046925,0.17029455,-0.09043214,-0.17947213,0.085224494
20240117 01:22:36,0.110717,-0.079044,0.214192,-0.072337,-0.163984,-0.033578,-4.480217,17.616640,-43.058998,9.379081,0.23457506,-0.083700806,0.07479811,-0.06693281,-0.16524929,0.04788534
20240117 01:22:36,0.195726,-0.033197,0.110520,-0.039311,-0.133089,-0.043167,-3.765152,17.951906,-42.939796,7.884091,0.2154226,-0.030389324,-0.06556449,-0.053209864,-0.13265097,0.012078097
20240117 01:22:36,0.201696,-0.004216,-0.040913,-0.020135,-0.093671,-0.049559,-4.143425,17.633930,-42.386925,8.444118,0.10522164,0.0045987396,-0.17628263,-0.046510756,-0.09230302,-0.008736655
20240117 01:22:36,0.167970,0.063325,-0.129540,-0.018004,-0.059580,-0.052755,-3.922527,17.933599,-42.404289,8.492756,0.012736373,0.07577353,-0.21684632,-0.048579104,-0.05782524,-0.0154939145
20240117 01:22:36,0.144269,0.092196,-0.147933,-0.028658,-0.029750,-0.051689,-4.347549,18.099966,-43.223198,8.945029,-0.017858401,0.104397364,-0.21452703,-0.056226622,-0.028535271,-0.009632973
20240117 01:22:36,0.153317,0.093344,-0.143246,-0.047834,-0.009508,-0.049559,-4.322071,17.251171,-43.033562,9.084222,-0.008290976,0.10584522,-0.2184194,-0.06833468,-0.009190223,0.0039383434
20240117 01:22:36,0.118392,0.100456,-0.153996,-0.058488,0.013929,-0.045297,-4.064930,17.739031,-42.794914,9.288262,-0.0401496,0.11395209,-0.20054342,-0.07345369,0.0135034025,0.012016296
20240117 01:22:36,0.066436,0.155250,-0.080022,-0.062749,0.028844,-0.035709,-4.417461,18.281776,-43.101784,10.262095,-0.02440209,0.16327219,-0.120535515,-0.0701784,0.02748096,0.019746095
20240117 01:22:36,0.051159,0.135698,-0.037917,-0.063814,0.030975,-0.026121,-4.134846,17.920839,-42.673515,9.778264,-0.0012481585,0.1401653,-0.07851497,-0.064046256,0.029025914,0.026221596
20240117 01:22:36,0.028037,0.114226,0.031651,-0.067010,0.013929,-0.020794,-4.241386,18.106346,-43.088585,9.754648,0.03588882,0.11359478,-0.012436271,-0.06162778,0.011586435,0.033435807
20240117 01:22:36,0.017396,0.117248,0.108953,-0.070206,-0.021227,-0.020794,-4.125111,17.632080,-42.118675,10.257068,0.0841029,0.11104069,0.04597255,-0.061619364,-0.023913847,0.04011595
20240117 01:22:36,-0.061307,0.141235,0.109017,-0.072337,-0.041469,-0.018664,-4.301571,17.999397,-42.412361,11.13612,0.027306512,0.12867479,0.09920192,-0.060002066,-0.04476732,0.045811065
20240117 01:22:36,-0.116234,0.143544,0.156081,-0.065945,-0.047861,-0.009075,-4.556141,18.069729,-42.017570,11.728285,0.021887816,0.12315548,0.16943188,-0.048448816,-0.051563185,0.048378974
20240117 01:22:36,-0.164363,0.131476,0.193675,-0.045703,-0.047861,-0.000553,-3.984245,18.594206,-42.849937,11.033042,0.017390974,0.10403563,0.23273298,-0.028073683,-0.050852317,0.0391735
20240117 01:22:36,-0.164731,0.110705,0.085565,-0.030789,-0.038273,0.006905,-4.054546,18.967901,-43.008995,11.212083,-0.059107203,0.091071434,0.16296399,-0.012974825,-0.040874187,0.032200072
20240117 01:22:36,-0.167260,0.101517,0.034639,-0.032919,-0.038273,0.010101,-4.212692,19.333370,-43.034431,11.211845,-0.09620002,0.08616473,0.13246623,-0.0119897835,-0.04122036,0.035948243
20240117 01:22:36,-0.156079,0.125773,-0.004061,-0.045703,-0.048926,0.012232,-3.869507,18.887493,-43.001900,10.546456,-0.118128896,0.1147627,0.09639279,-0.018423261,-0.052707788,0.04781676
20240117 01:22:36,-0.063176,0.107840,0.008955,-0.053161,-0.061710,0.012232,-4.149937,19.998507,-43.077217,9.652109,-0.043009944,0.103474565,0.039802942,-0.02378793,-0.065162495,0.05412328
20240117 01:22:36,0.019842,0.026766,0.056471,-0.053161,-0.084083,0.007970,-4.193993,19.139633,-42.485710,9.497242,0.053147987,0.024667185,0.020749686,-0.026181042,-0.086971216,0.053586464
20240117 01:22:36,0.062874,0.039094,0.065412,-0.046769,-0.104324,-0.003749,-4.150970,18.672766,-42.588783,9.279291,0.08862367,0.038683068,-0.005847141,-0.029484738,-0.10611558,0.043047085
20240117 01:22:36,0.035996,0.077109,0.001203,-0.040377,-0.113912,-0.009075,-4.504539,17.889771,-42.407219,10.06295,0.021172974,0.07863805,-0.034756802,-0.027918622,-0.11513498,0.037072323
20240117 01:22:36,0.023618,0.147118,-0.023652,-0.039311,-0.114978,-0.012271,-4.590199,18.631618,-41.920616,10.210504,-0.009760317,0.1492363,-0.050730422,-0.029077066,-0.11597471,0.034620948
20240117 01:22:36,0.007158,0.142674,-0.109391,-0.041442,-0.102194,-0.013337,-4.451134,18.651777,-42.724373,9.925181,-0.08402162,0.14876308,-0.09417385,-0.03195173,-0.103258565,0.0337151
20240117 01:22:36,0.032461,0.154973,-0.108693,-0.044638,-0.073429,-0.014402,-4.601349,17.786520,-42.267479,10.025067,-0.066677324,0.16184781,-0.11405476,-0.03676072,-0.07461485,0.0321318
20240117 01:22:36,0.085504,0.143694,-0.112870,-0.048899,-0.048926,-0.019729,-4.238052,18.280758,-41.894203,9.218031,-0.03258227,0.1526397,-0.1537587,-0.045121353,-0.050026275,0.028293047
20240117 01:22:36,0.040070,0.083314,-0.088676,-0.054226,-0.024423,-0.026121,-4.486610,18.079809,-42.419441,9.701523,-0.04192518,0.08942162,-0.098295465,-0.054725096,-0.025570266,0.025126358
20240117 01:22:36,0.028003,0.052596,-0.034496,-0.056357,-0.010574,-0.030382,-4.581615,18.918524,-42.207191,9.942982,-0.0086394325,0.0556472,-0.049897783,-0.060128786,-0.011731172,0.0218071
20240117 01:22:36,-0.025402,-0.008296,0.033165,-0.046769,-0.003116,-0.028252,-4.678043,18.623390,-41.786964,10.441773,0.0066370666,-0.011448008,0.04196726,-0.052566364,-0.004034312,0.014783442
20240117 01:22:36,-0.028159,-0.035638,0.074306,-0.027593,-0.005247,-0.021860,-4.725822,17.781990,-42.670326,10.773875,0.035853498,-0.041367587,0.075548284,-0.034533806,-0.005502276,0.005650948
20240117 01:22:36,0.002011,-0.045211,0.099951,-0.006286,-0.004181,-0.016533,-4.678429,18.815277,-42.067451,10.364491,0.07550377,-0.050430827,0.07256331,-0.01599102,-0.0035987096,-0.0062653674
20240117 01:22:36,-0.009433,-0.054081,0.094133,0.007564,-0.012704,-0.015468,-4.714287,18.435198,-42.042992,10.729794,0.06413507,-0.059897628,0.077975646,-0.0051106093,-0.01134166,-0.0143517805
20240117 01:22:36,-0.022681,-0.003402,0.054624,0.017152,-0.031881,-0.012271,-4.290035,18.652609,-41.785011,10.40705,0.024248876,-0.008140186,0.053780332,0.0048641274,-0.029984757,-0.01680876
20240117 01:22:36,-0.071108,0.054487,-0.016175,0.017152,-0.043599,-0.011206,-4.732983,18.628939,-42.591713,11.1497345,-0.06368137,0.050972253,0.034364548,0.0063297134,-0.04162016,-0.01434583
20240117 01:22:36,-0.104047,0.102851,-0.169463,-0.013743,-0.075560,-0.010141,-4.662300,18.063349,-42.152168,11.135283,-0.20184606,0.107477054,-0.047723398,-0.011647513,-0.075404465,0.01330585
20240117 01:22:36,-0.088161,0.083636,-0.253712,-0.045703,-0.091540,-0.011206,-4.405926,18.934984,-42.474464,10.241585,-0.2520183,0.09411334,-0.11157353,-0.0332335,-0.093074515,0.037467837
20240117 01:22:36,-0.035477,0.060753,-0.270083,-0.077664,-0.089409,-0.013337,-4.987171,18.507380,-41.916451,11.415363,-0.22712046,0.07616196,-0.1596199,-0.056126945,-0.092810676,0.060640603
20240117 01:22:36,-0.077898,0.038588,-0.256771,-0.093644,-0.077691,-0.011206,-5.032761,18.416058,-42.446831,11.221678,-0.24216756,0.049617644,-0.12082638,-0.067534335,-0.0820886,0.071073845
20240117 01:22:36,-0.065902,-0.070760,-0.018039,-0.091513,-0.058514,-0.009075,-4.863083,18.703798,-41.794060,10.90365,-0.05470822,-0.073184066,0.044278644,-0.06684083,-0.062933326,0.06717522
20240117 01:22:36,-0.079908,-0.096892,0.107970,-0.074468,-0.047861,-0.004814,-4.829407,18.333799,-42.171486,10.963917,0.02586253,-0.107350715,0.144321,-0.05303537,-0.051672295,0.056007896
20240117 01:22:36,-0.048270,-0.114153,0.134034,-0.049965,-0.042534,-0.000553,-4.475075,18.733017,-41.792107,10.144854,0.06775989,-0.12362982,0.14094123,-0.03308798,-0.045031775,0.040530212
20240117 01:22:36,-0.032658,-0.073512,0.123913,-0.030789,-0.043599,0.003709,-4.943115,19.366253,-42.507957,10.685155,0.069644295,-0.08192904,0.11796157,-0.016448587,-0.045340836,0.030221611
20240117 01:22:36,-0.029410,-0.077954,0.058311,-0.023331,-0.048926,0.002643,-4.996902,18.796137,-42.471275,10.863049,0.025775239,-0.08258602,0.07113749,-0.011560711,-0.05019028,0.024992801
20240117 01:22:36,-0.025408,-0.039875,-0.048211,-0.013743,-0.051057,0.001578,-4.854500,18.990705,-42.080650,10.62243,-0.05011089,-0.038395476,-0.0091189705,-0.005439556,-0.05172615,0.017515259
20240117 01:22:36,-0.030519,-0.014503,-0.138567,-0.014808,-0.044665,-0.000553,-5.323193,18.106312,-42.027580,11.124086,-0.12110194,-0.008541588,-0.06849689,-0.008100108,-0.045256708,0.0163374
20240117 01:22:36,-0.029789,0.005789,-0.208708,-0.024396,-0.011639,-0.002683,-4.969624,18.889305,-42.209145,10.707749,-0.17297086,0.015979387,-0.11860459,-0.017919581,-0.012733023,0.017539233
20240117 01:22:36,-0.024693,-0.037177,-0.188188,-0.038246,0.017125,0.002643,-5.119186,19.541685,-42.521156,10.185198,-0.1518034,-0.029184682,-0.10456047,-0.025134055,0.015232112,0.027539803
20240117 01:22:36,0.109417,-0.095327,-0.138318,-0.049965,0.036302,0.007970,-5.190907,18.781528,-42.472252,9.733391,-0.020316541,-0.0858362,-0.16217431,-0.030228864,0.034100972,0.03725661
20240117 01:22:36,0.123700,-0.121366,-0.093721,-0.061684,0.040563,0.011166,-4.837337,19.564524,-42.653816,9.755333,0.02450902,-0.11129748,-0.13879755,-0.036792617,0.03721855,0.04716894
20240117 01:22:36,0.003074,-0.086146,0.008316,-0.068076,0.035236,0.015428,-4.909824,19.188143,-43.165855,10.430665,0.012654906,-0.08619162,0.014388645,-0.038352538,0.03080322,0.054897793
20240117 01:22:36,-0.041935,-0.070328,0.073856,-0.085121,0.009668,0.033538,-5.083714,20.113651,-42.826088,10.989368,0.027477179,-0.076863274,0.09003684,-0.036162913,0.002748882,0.08259951
20240117 01:22:36,-0.138164,-0.028239,0.125874,-0.087252,0.001145,0.042061,-4.643719,19.771023,-42.933311,10.908394,-0.0062033758,-0.044891812,0.1889072,-0.03163645,-0.007056997,0.09092895
20240117 01:22:36,-0.161366,0.034648,0.169504,-0.086187,-0.011639,0.053780,-5.057854,19.072968,-42.355995,11.679716,0.0047537833,0.013101998,0.22652516,-0.02157079,-0.020625765,0.10001333
20240117 01:22:36,-0.145109,0.060038,0.203898,-0.060618,-0.009508,0.063368,-5.037739,20.013084,-42.015251,11.214602,0.039136328,0.038550217,0.23554829,0.0029943883,-0.017019501,0.08810408
20240117 01:22:36,-0.173947,0.064953,0.161031,-0.052096,-0.007378,0.062303,-4.827991,19.467653,-42.379463,11.357452,-0.011852823,0.042802945,0.22575876,0.008213509,-0.01482399,0.0809896
20240117 01:22:36,-0.160940,0.082850,0.081910,-0.025462,0.020322,0.064434,-5.118801,19.349794,-42.240685,11.6928215,-0.05915696,0.066857785,0.15959574,0.026916683,0.0143835265,0.05937048
20240117 01:22:36,-0.096796,0.056645,0.071879,-0.013743,0.051217,0.068695,-5.021996,19.453045,-42.380440,11.12983,-0.019611433,0.04644994,0.1109256,0.036377832,0.0460975,0.049969494
20240117 01:22:36,-0.091330,0.013493,0.079783,-0.007351,0.066131,0.072956,-4.421284,19.303135,-41.828789,9.739662,-0.00793466,0.0048391484,0.11865644,0.043391123,0.061886508,0.047798887
20240117 01:22:36,0.004470,-0.036806,0.111888,0.003303,0.090634,0.084675,-4.791748,19.655842,-42.123451,9.491814,0.083909996,-0.041239366,0.07890547,0.058485102,0.08706923,0.045996428
20240117 01:22:36,0.087325,-0.079580,0.132088,0.011825,0.097027,0.085741,-4.712486,19.377165,-41.970497,9.2580185,0.15823728,-0.08124351,0.03900492,0.06522048,0.09395624,0.040268905
20240117 01:22:36,0.086570,-0.053639,0.143292,0.020348,0.102353,0.086806,-4.536411,19.201735,-41.957298,8.876645,0.16445324,-0.05567844,0.04446669,0.07197042,0.09974748,0.03498235
20240117 01:22:36,0.019399,-0.019180,0.138197,0.031002,0.098092,0.085741,-4.748726,19.188974,-42.226509,9.951898,0.11276221,-0.024864003,0.08403198,0.07797965,0.09521302,0.025283813
20240117 01:22:36,-0.037239,0.009018,0.081830,0.037394,0.093831,0.084675,-4.845535,19.085726,-42.086769,10.620128,0.03227002,0.0024242,0.081520036,0.08145612,0.09084371,0.018941257
20240117 01:22:36,-0.074852,0.040648,-0.041266,0.051243,0.081046,0.094263,-4.563686,19.108564,-42.219414,10.578886,-0.08383697,0.038684838,0.02122929,0.09845321,0.077970795,0.016378105
20240117 01:22:36,-0.053261,0.038431,-0.126381,0.048047,0.078916,0.096394,-4.185028,19.234652,-42.491829,9.31413,-0.13048576,0.042320084,-0.050434742,0.09896255,0.076035686,0.021086775
20240117 01:22:36,0.033598,0.034248,-0.229527,0.034198,0.073589,0.092133,-4.493389,18.734865,-42.060356,9.381247,-0.14784613,0.046434272,-0.18149096,0.08743811,0.07057526,0.028070632
20240117 01:22:36,0.053067,0.012310,-0.348543,0.008629,0.087438,0.082544,-4.370068,19.315063,-42.498924,9.023691,-0.2223246,0.03062619,-0.27207476,0.0627315,0.08381464,0.039216734
20240117 01:22:36,0.050176,0.004469,-0.306775,-0.027593,0.105549,0.076152,-4.466492,19.019924,-42.078697,9.357618,-0.18998346,0.02110212,-0.24355339,0.031820774,0.10053557,0.059710834
20240117 01:22:36,0.043521,0.014690,-0.198066,-0.041442,0.111941,0.074022,-4.351753,19.313213,-42.230659,9.270066,-0.11429112,0.026117524,-0.16763036,0.019778557,0.106273256,0.06792329
20240117 01:22:36,0.031171,0.040734,0.036654,-0.051030,0.105549,0.068695,-4.582001,19.110415,-42.487663,9.491674,0.04609839,0.040363662,-0.001814507,0.008738749,0.09994249,0.07168576
20240117 01:22:36,0.030848,0.086234,0.200142,-0.040377,0.073589,0.065499,-4.132660,18.670916,-42.320549,9.03586,0.15988648,0.07831831,0.10738294,0.014800146,0.06863356,0.066058174
20240117 01:22:36,0.021278,0.065355,0.225724,-0.037181,0.060805,0.064434,-4.414505,18.648077,-42.187874,8.9468975,0.17254415,0.057177864,0.1346139,0.017156454,0.05671526,0.06455071
20240117 01:22:36,0.081205,0.012185,0.191261,-0.030789,0.032040,0.061238,-4.087833,19.146013,-42.351112,8.218364,0.19258024,0.008079072,0.07384923,0.020755704,0.02862902,0.061260708
20240117 01:22:36,0.129560,0.018464,0.126912,-0.019070,0.022452,0.055911,-4.360718,19.218193,-42.224556,8.159953,0.18063591,0.018425189,-0.006922871,0.025973137,0.020056538,0.050061505
20240117 01:22:36,0.155536,-0.008994,0.054972,-0.013743,0.027779,0.055911,-4.245979,19.511482,-42.376534,7.953881,0.14852917,-0.0059031975,-0.07178079,0.029294116,0.025571223,0.045941785
20240117 01:22:36,0.161355,-0.055090,0.088492,-0.004155,0.046955,0.054845,-3.999603,18.962353,-42.204262,7.6328816,0.1779216,-0.05290011,-0.048149183,0.03467256,0.04512748,0.03675086
20240117 01:22:36,0.217003,-0.069157,0.097540,0.013956,0.065066,0.056976,-3.848621,19.443830,-42.100227,6.952693,0.22363612,-0.06623232,-0.08023557,0.04868844,0.06396555,0.024325218
20240117 01:22:36,0.256947,-0.067173,0.081043,0.036328,0.087438,0.052715,-3.981674,19.152393,-42.216484,7.1728435,0.23903465,-0.062842466,-0.12204689,0.060869288,0.0869453,0.0028654337
20240117 01:22:36,0.208217,-0.052431,0.014441,0.052309,0.101288,0.049519,-3.954781,19.437450,-42.234825,7.0112,0.15565701,-0.04785182,-0.13612165,0.06942692,0.10124205,-0.012368578
20240117 01:22:36,0.220187,-0.020016,-0.071500,0.041655,0.092765,0.047388,-4.193607,18.947742,-42.205238,7.4620295,0.10014482,-0.012720112,-0.20678347,0.060615726,0.09250033,-0.006193664
20240117 01:22:36,0.209635,-0.009549,-0.107033,0.011825,0.066131,0.039931,-4.026497,18.677296,-42.185921,7.21088,0.066966064,-0.0018674512,-0.22432815,0.035427082,0.0653718,0.0129793845
20240117 01:22:36,0.242848,-0.033652,-0.092959,-0.018004,0.033106,0.033538,-3.717373,18.793303,-42.056450,6.4152274,0.101533666,-0.027204175,-0.23667854,0.011104066,0.032089494,0.03349717
20240117 01:22:36,0.259766,-0.032835,-0.061871,-0.037181,0.007537,0.020754,-4.105766,18.955973,-42.338875,7.016859,0.13530296,-0.02612812,-0.22755362,-0.010823085,0.006319122,0.04048375
20240117 01:22:36,0.214365,-0.008933,-0.034602,-0.039311,-0.000985,0.010101,-3.726723,18.890173,-42.330818,6.7643437,0.12425702,-0.0030535257,-0.17733568,-0.020023372,-0.0021534679,0.03532597
20240117 01:22:37,0.188542,0.003533,0.017581,-0.031854,0.000080,0.003709,-3.727104,19.082062,-42.611275,7.308689,0.1434968,0.008774647,-0.123820886,-0.019465521,-0.0010193194,0.02546163
20240117 01:22:37,0.081457,0.040853,0.027007,-0.014808,0.013929,0.000513,-3.620560,18.896553,-42.196190,8.167078,0.07405893,0.043052983,-0.04423678,-0.010509921,0.013247816,0.009658722
20240117 01:22:37,-0.017716,0.085645,0.025942,0.009695,0.040563,0.004774,-3.805599,18.976963,-42.203285,8.656986,0.0023473818,0.08339513,0.021619096,0.008194749,0.0406895,-0.007963939
20240117 01:22:37,-0.016831,0.066535,0.000745,0.031002,0.066131,0.011166,-3.945816,19.532471,-42.240944,8.702813,-0.014251826,0.06559686,0.0056862086,0.026383996,0.06686594,-0.02165806
20240117 01:22:37,0.013461,0.063057,-0.001273,0.046982,0.076785,0.012232,-3.532333,18.712894,-42.049355,7.9468455,0.005648711,0.063551694,-0.016629769,0.037934545,0.07804742,-0.03299459
20240117 01:22:37,0.086290,0.060987,-0.049530,0.048047,0.074654,0.013297,-3.842228,18.980663,-42.739784,7.794516,0.020971898,0.065758005,-0.10211703,0.03986473,0.07574375,-0.032857496
20240117 01:22:37,0.157527,0.019006,-0.118367,0.036328,0.066131,0.011166,-3.735687,18.795153,-42.324699,6.796668,0.021288201,0.02570203,-0.19681293,0.031355157,0.06667095,-0.024226662
20240117 01:22:37,0.217845,-0.011741,-0.144621,0.015021,0.051217,0.000513,-3.954781,19.437450,-42.234825,7.153525,0.044859223,-0.0023220477,-0.25589335,0.009312496,0.05154899,-0.014949868
20240117 01:22:37,0.160615,-0.007397,-0.091578,-0.005220,0.025648,-0.010141,-3.788055,19.358892,-42.495995,7.787909,0.044480175,0.0019023395,-0.17827944,-0.011916097,0.025810454,-0.005520014
20240117 01:22:37,0.093687,0.019407,-0.060040,-0.021200,0.005407,-0.012271,-3.762196,18.318205,-42.025887,8.195005,0.02024744,0.025595289,-0.11076076,-0.023708723,0.005069419,0.0064765746
20240117 01:22:37,0.026899,0.027715,0.005592,-0.027593,-0.003116,-0.005879,-3.991024,19.249262,-42.490852,8.750721,0.02136213,0.028600952,-0.01849506,-0.023197327,-0.004071553,0.016206611
20240117 01:22:37,0.019557,0.017237,0.043764,-0.022266,0.001145,0.005839,-3.929691,18.780544,-42.325676,8.655452,0.044195294,0.01608472,0.014267227,-0.011365123,-9.355496E-5,0.019885082
20240117 01:22:37,0.066213,0.044302,0.091304,-0.008416,0.008603,0.019689,-3.611595,18.991571,-42.202309,7.477568,0.110000014,0.043282706,0.011397157,0.007967187,0.007604367,0.018847309
20240117 01:22:37,0.128134,0.010849,0.051625,0.001172,0.018191,0.025016,-3.963745,19.342432,-42.228706,7.8854485,0.12576827,0.013399635,-0.05756645,0.018126724,0.017322157,0.014652168
20240117 01:22:37,0.120934,-0.022653,-0.005750,0.005433,0.027779,0.031408,-3.805599,18.976963,-42.203285,8.014257,0.08063805,-0.017809378,-0.08887192,0.025265727,0.026707115,0.0149721615
20240117 01:22:37,0.090502,-0.063008,-0.042947,0.004368,0.030975,0.037800,-3.515167,19.286711,-42.622520,7.393769,0.034146287,-0.05811342,-0.089135475,0.029091563,0.029690357,0.020071097
20240117 01:22:37,0.071637,-0.069519,-0.089215,0.000107,0.029910,0.043127,-3.727104,19.082062,-42.611275,7.9766355,-0.011955164,-0.06295327,-0.106174126,0.029951965,0.028102027,0.026588466
20240117 01:22:37,0.055070,-0.070549,-0.094841,-0.009482,0.022452,0.043127,-3.311821,19.204451,-42.347206,7.450178,-0.027820613,-0.06435231,-0.09839126,0.02376402,0.020260865,0.034317676
20240117 01:22:37,0.040506,-0.052129,-0.198242,-0.026527,0.014995,0.048453,-3.072224,19.310381,-41.815834,7.4974637,-0.11399521,-0.041080423,-0.15947224,0.016370015,0.01156595,0.050890826
20240117 01:22:37,0.008957,-0.037467,-0.190081,-0.047834,0.017125,0.053780,-3.523369,18.807913,-42.055473,8.17857,-0.13013811,-0.028103186,-0.13191333,0.0054435357,0.012465087,0.06965031
20240117 01:22:37,0.010881,-0.038505,-0.081524,-0.060618,0.013929,0.058041,-3.453453,18.626104,-42.176872,7.9438295,-0.04954334,-0.03438423,-0.060026318,-7.0521235E-4,0.008790475,0.08220809
20240117 01:22:37,-0.025842,-0.041096,0.000938,-0.057422,0.016060,0.064434,-3.469196,19.186144,-41.811684,8.111332,-0.015575515,-0.042213168,0.023144556,0.004866611,0.010515882,0.084079154
20240117 01:22:37,-0.021770,-0.031966,0.096108,-0.049965,0.016060,0.065499,-3.620945,19.088442,-42.476677,8.072102,0.05400475,-0.036893092,0.08571476,0.010426037,0.011155226,0.079569094
20240117 01:22:37,0.005593,-0.097294,0.148010,-0.028658,0.006472,0.064434,-3.611980,19.183462,-42.482780,7.9144955,0.11256051,-0.10291116,0.10897858,0.02507308,0.002689759,0.06471967
20240117 01:22:37,0.013198,-0.054168,0.127216,-0.014808,-0.000985,0.059107,-3.329750,19.014410,-42.334969,7.5947733,0.10202917,-0.058794674,0.08404603,0.031720363,-0.0040266253,0.05173555
20240117 01:22:37,-0.026837,-0.029086,0.050605,-0.015874,-0.006312,0.051649,-3.593666,19.181612,-42.214531,8.422355,0.018656014,-0.032702662,0.057192456,0.025985241,-0.009515808,0.047752
20240117 01:22:37,-0.058579,-0.063096,0.053272,-0.022266,0.001145,0.050584,-3.382118,19.578150,-42.506264,8.373166,-1.7953664E-4,-0.06863155,0.08517192,0.020156324,-0.002579248,0.05090467
20240117 01:22:37,-0.124688,-0.053657,0.109886,-0.021200,0.014995,0.051649,-3.329750,19.014410,-42.334969,8.7876625,-0.008011289,-0.06657436,0.17074344,0.020492032,0.010887941,0.04949809
20240117 01:22:37,-0.139076,-0.042184,0.179836,-0.008416,0.029910,0.056976,-3.568958,18.716595,-42.585854,8.983003,0.029888786,-0.059210416,0.2287184,0.03244782,0.026314657,0.04255465
20240117 01:22:37,-0.152896,-0.010911,0.249825,0.015021,0.038432,0.063368,-3.832878,18.883795,-42.465416,9.210478,0.06874952,-0.032119576,0.28369373,0.053292744,0.03577409,0.029236253
20240117 01:22:37,-0.121421,-0.000850,0.195191,0.032067,0.043759,0.064434,-3.144711,18.934002,-42.327888,8.029204,0.053072363,-0.016489308,0.22233236,0.06607605,0.042029858,0.017775971
20240117 01:22:37,-0.095107,-0.015426,0.114347,0.038459,0.043759,0.065499,-3.241901,19.022640,-42.468605,8.052619,0.015399627,-0.02552517,0.14871228,0.07142337,0.042307355,0.013755538
20240117 01:22:37,-0.076201,0.005547,0.084454,0.037394,0.046955,0.064434,-3.277378,18.450674,-42.163673,8.105721,0.007005278,-0.0021076158,0.112375125,0.069893435,0.045496553,0.013055202
20240117 01:22:37,-0.021635,0.035787,0.033841,0.032067,0.054413,0.063368,-3.311821,19.204451,-42.347206,7.3684783,0.007826664,0.033563558,0.03569327,0.06561726,0.053049088,0.015794234
20240117 01:22:37,0.027672,-0.021461,-0.023692,0.024610,0.065066,0.062303,-3.241901,19.022640,-42.468605,7.2718573,0.003169885,-0.019449072,-0.03432955,0.05921104,0.063467145,0.01969754
20240117 01:22:37,0.015611,-0.044044,0.013947,0.012891,0.082112,0.062303,-3.445255,19.104902,-42.743950,7.597075,0.022632267,-0.043921202,0.0025878712,0.05018687,0.07999614,0.026393268
20240117 01:22:37,0.004867,-0.044367,0.088242,0.010760,0.093831,0.062303,-3.161221,19.877817,-42.523628,7.427953,0.06781668,-0.047873013,0.06226779,0.047660127,0.0914377,0.027364496
20240117 01:22:37,-0.031031,-0.061366,0.189780,0.022479,0.098092,0.066564,-3.162640,18.743963,-42.315666,7.473015,0.11387935,-0.070358306,0.16113916,0.058712482,0.09611814,0.021981254
20240117 01:22:37,-0.002741,-0.102631,0.238799,0.043786,0.097027,0.070826,-3.072224,19.310381,-41.815834,7.216994,0.16857406,-0.11198766,0.18071815,0.076898284,0.09584971,0.010993127
20240117 01:22:37,0.000954,-0.099620,0.264455,0.064027,0.081046,0.069760,-2.781025,19.236351,-41.674141,6.8816385,0.1900793,-0.1100622,0.19476402,0.09122905,0.08071837,-0.002561584
20240117 01:22:37,0.003640,-0.064945,0.215302,0.074681,0.059739,0.065499,-2.969017,18.950460,-42.595146,6.9319744,0.1574324,-0.07299177,0.15373063,0.0967406,0.059991345,-0.01214486
20240117 01:22:37,0.092737,-0.021970,0.136882,0.072550,0.039498,0.063368,-3.048283,19.229141,-42.748100,6.386799,0.16322634,-0.023371924,0.030886814,0.09477665,0.0397059,-0.010702103
20240117 01:22:37,0.143710,-0.002746,0.047436,0.060831,0.029910,0.059107,-2.844543,18.954990,-42.192284,5.9834056,0.13398914,-8.4643485E-5,-0.07043362,0.08386834,0.029873835,-0.005106386
20240117 01:22:37,0.148977,0.042751,0.017772,0.054439,0.036302,0.055911,-2.951088,19.140499,-42.607368,5.838964,0.11497426,0.045988966,-0.0981165,0.07706429,0.036186103,-0.0032289438
20240117 01:22:37,0.164167,0.028779,0.033456,0.060831,0.048021,0.055911,-3.199650,18.939550,-43.132607,5.9034996,0.13721552,0.031601805,-0.09734736,0.08134804,0.04805491,-0.00874025
20240117 01:22:37,0.165691,0.000402,0.021137,0.066158,0.059739,0.052715,-3.163406,19.127741,-42.876595,5.8891635,0.13044141,0.0036203945,-0.10441822,0.082494035,0.059970945,-0.015305053
20240117 01:22:37,0.170515,-0.032640,0.042119,0.064027,0.064001,0.043127,-3.260216,19.024490,-42.736855,6.035755,0.14979497,-0.02977257,-0.09067379,0.07406175,0.06440844,-0.020704731
20240117 01:22:37,0.145370,-0.017425,0.076961,0.058701,0.057609,0.029277,-2.925613,18.291704,-42.417747,6.0212317,0.15690058,-0.01565542,-0.049765613,0.060293384,0.058325443,-0.026063716
20240117 01:22:37,0.076033,0.011960,0.084617,0.054439,0.046955,0.022885,-2.756317,18.771332,-42.045448,6.448528,0.11317298,0.011537181,0.0027650632,0.05254782,0.047973644,-0.027034331
20240117 01:22:37,-0.004261,-0.010780,0.046923,0.049113,0.041628,0.022885,-2.863243,19.148729,-42.741020,7.0999904,0.03116845,-0.012995123,0.03636687,0.048744433,0.042629696,-0.023081806
20240117 01:22:37,-0.028929,-0.018720,0.049683,0.053374,0.044825,0.027146,-2.598938,18.789640,-42.580971,6.837556,0.016442947,-0.022126378,0.056613617,0.054565035,0.045818496,-0.023413686
20240117 01:22:37,0.005990,-0.015396,0.024468,0.067223,0.060805,0.034604,-2.819836,18.489973,-42.563606,7.1794577,0.022465246,-0.01620575,0.013806719,0.06872406,0.062025458,-0.03002818
20240117 01:22:37,-0.037039,-0.027264,-0.015572,0.085334,0.078916,0.037800,-2.820221,18.681862,-42.844078,7.275864,-0.0355284,-0.028128771,0.018537678,0.0824916,0.08078531,-0.04279897
20240117 01:22:37,-0.052640,-0.021079,-0.027741,0.094923,0.081046,0.039931,-2.492783,18.796021,-42.446358,7.1587706,-0.055177715,-0.022149155,0.021191224,0.08997616,0.08338565,-0.048768193
20240117 01:22:37,-0.075380,0.008083,-0.110070,0.098119,0.064001,0.039931,-2.404167,18.420471,-42.019051,7.31085,-0.13222164,0.010280045,-0.019389894,0.09230985,0.066602916,-0.050737213
20240117 01:22:37,-0.089359,0.051075,-0.193446,0.085334,0.043759,0.036735,-2.643761,18.314543,-42.550392,7.70531,-0.20554781,0.057233885,-0.06796621,0.0821327,0.045958586,-0.042396888
20240117 01:22:37,-0.128263,0.044773,-0.236437,0.068289,0.023518,0.036735,-2.677055,18.492655,-41.892509,7.6802735,-0.26332855,0.051361166,-0.06633285,0.07168626,0.024856254,-0.028262863
20240117 01:22:37,-0.077712,0.051342,-0.213512,0.057635,0.009668,0.030342,-2.555534,18.130882,-42.403572,7.168805,-0.21258076,0.058482572,-0.08909843,0.060655646,0.010759763,-0.023266459
20240117 01:22:37,-0.049816,0.032548,-0.258008,0.050178,-0.000985,0.023950,-2.607521,18.502731,-42.294395,7.3373256,-0.22592022,0.043687254,-0.13762516,0.0514407,1.4949578E-4,-0.021166252
20240117 01:22:37,-0.041205,0.005235,-0.285950,0.038459,-0.013770,0.011166,-2.528641,18.415941,-42.421898,7.262303,-0.23994541,0.018486317,-0.15941747,0.03472636,-0.012487088,-0.02003482
20240117 01:22:37,-0.065899,-0.028100,-0.309438,0.027806,-0.021227,0.005839,-2.494583,17.854055,-42.518852,7.580969,-0.27138916,-0.013761412,-0.15443617,0.024183605,-0.020061797,-0.014856665
20240117 01:22:37,-0.068840,-0.052800,-0.288359,0.015021,-0.029750,-0.003749,-2.680008,18.126352,-42.806419,7.5766587,-0.25640303,-0.04040689,-0.13636628,0.0089356955,-0.028727924,-0.010987744
20240117 01:22:37,-0.112140,-0.064329,-0.323193,0.000107,-0.030815,-0.011206,-2.749538,18.116274,-42.404549,8.023909,-0.31048936,-0.051029205,-0.1251912,-0.006402259,-0.030050842,-0.0046323547
20240117 01:22:37,-0.130265,-0.088980,-0.237484,-0.011612,-0.022292,-0.014402,-2.590359,19.076548,-42.867561,7.399453,-0.2560033,-0.082987525,-0.0627978,-0.017235346,-0.02207215,3.7015416E-4
20240117 01:22:37,-0.105573,-0.124196,-0.094829,-0.007351,-0.027619,-0.014402,-2.625832,18.504581,-42.562630,8.09389,-0.13348977,-0.12397653,0.025154583,-0.013817398,-0.027058873,-0.0016916106
20240117 01:22:37,-0.151034,-0.095795,-0.130853,0.018217,0.013929,-0.016533,-2.898720,18.576761,-42.436089,8.111645,-0.19315632,-0.09617364,0.03010992,-2.5597494E-4,0.015788259,-0.025832271
20240117 01:22:37,-0.096400,-0.138442,-0.046647,0.042720,0.032040,-0.018664,-2.546570,18.225903,-42.409676,7.298215,-0.09297262,-0.14037493,0.05032622,0.014192657,0.034979787,-0.046554536
20240117 01:22:37,-0.077349,-0.148597,-0.028355,0.044851,0.022452,-0.029317,-2.643761,18.314543,-42.550392,7.554147,-0.06587133,-0.15057863,0.050247826,0.008438734,0.026190907,-0.05457653
20240117 01:22:37,-0.063091,-0.084864,-0.091031,0.037394,0.007537,-0.035709,-2.564499,18.035864,-42.397453,7.747813,-0.10460919,-0.08271626,-0.007013403,-0.0012530852,0.011548119,-0.052165277
20240117 01:22:37,-0.075624,-0.040621,-0.219406,0.024610,0.000080,-0.034644,-2.370495,18.050474,-42.396477,7.783885,-0.2100993,-0.031150242,-0.08664407,-0.008980397,0.0036120834,-0.041309215
20240117 01:22:37,-0.126354,-0.095467,-0.292425,0.003303,-0.003116,-0.032513,-2.934578,18.196684,-42.411629,8.575261,-0.29461408,-0.08392755,-0.09131762,-0.021562573,-8.673265E-4,-0.023748547
20240117 01:22:37,-0.153256,-0.069729,-0.245367,-0.025462,-0.007378,-0.026121,-2.528641,18.415941,-42.421898,8.483179,-0.2788642,-0.06220509,-0.04397247,-0.035868604,-0.007153039,0.0020587593
20240117 01:22:37,-0.139766,-0.080685,-0.156106,-0.046769,-0.003116,-0.016533,-2.486004,18.140963,-42.805443,8.24391,-0.20378655,-0.07870518,0.004556924,-0.043758675,-0.0048697074,0.023309365
20240117 01:22:37,-0.145942,-0.116319,-0.041171,-0.056357,0.000080,-0.009075,-2.661694,18.124502,-42.538170,8.370808,-0.12311055,-0.12201289,0.08921228,-0.04543593,-0.0027143755,0.034587815
20240117 01:22:37,-0.135756,-0.138900,0.012245,-0.057422,0.007537,-0.009075,-2.537991,18.512812,-42.696266,8.152056,-0.076623276,-0.1472514,0.11993881,-0.046771754,0.004644282,0.0344433
20240117 01:22:37,-0.136891,-0.106668,0.012639,-0.055292,0.013929,-0.010141,-2.503933,17.950924,-42.793221,8.723613,-0.07811458,-0.116134845,0.118750796,-0.046475157,0.01089998,0.03157359
20240117 01:22:37,-0.168142,-0.070223,0.003899,-0.058488,0.009668,-0.006945,-2.749924,18.308165,-42.685020,8.993401,-0.10799252,-0.08129837,0.13220116,-0.045939,0.006236824,0.036675785
20240117 01:22:37,-0.180827,-0.050756,-0.016950,-0.070206,-0.000985,-0.003749,-2.635181,18.601450,-42.836983,8.553463,-0.13335152,-0.060832214,0.12481328,-0.050973758,-0.005164887,0.048470218
20240117 01:22:37,-0.163836,-0.054478,0.008807,-0.086187,-0.019096,-0.005879,-2.722645,18.401333,-42.422874,8.985679,-0.10298009,-0.06576848,0.13039006,-0.06240977,-0.024346007,0.06039162
20240117 01:22:37,-0.178712,-0.049966,0.009247,-0.095775,-0.037207,-0.009075,-2.749538,18.116274,-42.404549,9.043994,-0.113355584,-0.062264174,0.1409236,-0.070119336,-0.04277317,0.06708156
20240117 01:22:37,-0.215502,-0.007428,0.103789,-0.093644,-0.035077,-0.008010,-2.810871,18.584991,-42.569710,8.98782,-0.07550871,-0.028645609,0.22682574,-0.06857926,-0.04054857,0.065484576
20240117 01:22:37,-0.220902,-0.005893,0.175872,-0.080860,-0.020162,-0.003749,-2.828800,18.394953,-42.557487,9.037689,-0.027110472,-0.032398015,0.28020078,-0.057480697,-0.025138643,0.05779341
20240117 01:22:37,-0.185189,0.134167,0.103641,-0.056357,-0.002051,0.006905,-2.632996,19.351528,-42.484016,8.722841,-0.060752027,0.113943726,0.1912957,-0.033354692,-0.00626115,0.04601791
20240117 01:22:37,-0.196698,0.180146,-0.043660,-0.036115,0.035236,0.028212,-2.846733,18.204914,-42.545265,9.141863,-0.17696516,0.16959564,0.09822461,-0.005849622,0.030657068,0.041732274
20240117 01:22:37,-0.050444,0.209665,-0.219817,-0.035050,0.072524,0.054845,-2.520061,18.702850,-42.708488,6.474899,-0.20635495,0.21691434,-0.12370536,0.014305331,0.06864789,0.056999333
20240117 01:22:37,0.285654,0.005240,-0.312765,-0.055292,0.093831,0.033538,-2.492397,18.604130,-42.165886,3.539644,-0.040635362,0.007389686,-0.4214447,-0.012528064,0.09351497,0.05958595
20240117 01:22:37,0.444002,-0.059002,-0.358346,-0.081925,0.115138,-0.021860,-2.271881,19.095688,-42.463722,3.1841416,0.043257624,-0.05665272,-0.56631744,-0.0723934,0.114969485,0.04035373
20240117 01:22:37,0.191529,0.119683,0.399485,-0.151173,-0.012704,-0.063408,-2.395969,18.899269,-42.586098,4.725823,0.41938722,0.1150237,0.12707072,-0.14956601,-0.014366428,0.06733374
20240117 01:22:37,0.222892,0.207866,0.001081,-0.202310,-0.067037,-0.077258,-2.668091,18.587673,-41.898628,5.9676595,0.14633077,0.21434568,-0.17682585,-0.19239563,-0.070578665,0.100044034
20240117 01:22:37,0.076644,0.098356,-0.098108,-0.184199,-0.022292,-0.096434,-2.792175,18.391253,-42.021004,7.762042,-0.025901344,0.10725313,-0.13111073,-0.19402558,-0.026148163,0.07357564
20240117 01:22:37,-0.083428,-0.155616,0.124483,-0.144781,0.021387,-0.119872,-2.359344,18.895569,-42.049614,8.17973,0.026827171,-0.1674946,0.16451153,-0.18883464,0.018630147,0.00269562
20240117 01:22:37,-0.470496,0.309376,1.090309,-0.041442,-0.081952,-0.087911,-2.368694,18.992439,-42.323982,10.714135,0.38314635,0.15874736,1.056054,-0.08264578,-0.076986246,-0.02238015
20240117 01:22:37,-0.506965,0.395921,0.576722,0.036328,-0.038273,-0.028252,-2.720459,19.151409,-42.069908,10.713407,0.014482141,0.2939119,0.7071789,0.009096039,-0.032078475,-0.040355325
20240117 01:22:37,-0.386192,0.279220,0.341074,0.088530,-0.020162,0.017558,-2.607903,18.694620,-42.574852,9.77826,-0.04872331,0.21892361,0.47818214,0.07583384,-0.014444095,-0.049076173
20240117 01:22:37,-0.200219,0.180645,0.036775,0.109837,0.002211,0.032473,-2.517490,19.261038,-42.075050,8.880172,-0.12584783,0.16295004,0.14996542,0.099346876,0.0075576007,-0.057013348
20240117 01:22:37,-0.443335,0.224894,-0.248599,0.117295,0.079981,0.049519,-2.616867,18.599600,-42.568733,10.572232,-0.5025094,0.20804021,0.13472338,0.10770302,0.08481909,-0.06367787
20240117 01:22:37,-0.136460,0.280642,0.155110,0.140732,0.128987,0.060172,-2.696136,18.878281,-42.721703,8.362207,-0.0015566349,0.26164797,0.17638466,0.13295238,0.13325787,-0.07265732
20240117 01:22:37,-0.232685,0.067128,0.148906,0.160974,0.094896,0.047388,-2.890137,18.863670,-42.722679,10.77589,-0.06205439,0.03277888,0.2601245,0.13726507,0.1039613,-0.095476456
20240117 01:22:37,-0.317891,0.062700,-0.007190,0.152451,0.062935,0.047388,-2.643383,18.122652,-42.269936,10.375891,-0.22815269,0.036098182,0.21946384,0.13287887,0.07103371,-0.08715321
20240117 01:22:37,-0.298570,0.181363,-0.088735,0.135406,0.020322,0.065499,-2.493164,18.987909,-42.726830,9.929281,-0.2817409,0.16362457,0.14242017,0.13707654,0.025300553,-0.059776913
20240117 01:22:38,-0.212203,0.150273,-0.299909,0.117295,0.005407,0.080414,-2.395969,18.899269,-42.586098,9.001728,-0.37608057,0.1584757,-0.052779138,0.137146,0.007256996,-0.035834655
20240117 01:22:38,-0.122360,0.061817,-0.457455,0.091726,-0.000985,0.097459,-2.352566,18.240513,-42.408699,8.115755,-0.42826512,0.085816056,-0.21064925,0.1334924,-0.0022020554,-0.005787559
20240117 01:22:38,0.007372,-0.023237,-0.564459,0.055505,0.009668,0.103851,-2.634418,18.217672,-42.276054,7.4342194,-0.4198778,0.008198431,-0.36955863,0.11413067,0.006570602,0.02451235
20240117 01:22:38,0.135449,-0.083214,-0.551694,0.011825,0.018191,0.105982,-2.660927,17.740725,-41.977226,6.612605,-0.3209541,-0.055022024,-0.45712513,0.08654159,0.014162781,0.0592152
20240117 01:22:38,0.205100,-0.184198,-0.495036,-0.030789,0.018191,0.095329,-2.537220,18.129032,-42.135323,5.6833906,-0.22301137,-0.16280304,-0.47052214,0.049331177,0.014332108,0.085305266
20240117 01:22:38,0.236489,-0.244817,-0.404494,-0.065945,0.016060,0.077218,-2.564884,18.227753,-42.677925,5.7056346,-0.12872876,-0.2253634,-0.43033522,0.011404384,0.0117799975,0.09949575
20240117 01:22:38,0.221237,-0.222043,-0.244315,-0.080860,0.007537,0.060172,-2.273685,18.153721,-42.536217,4.8907185,-0.020502672,-0.2107956,-0.31497347,-0.0118798055,0.0041838028,0.09952312
20240117 01:22:38,0.244144,-0.201509,-0.127806,-0.074468,-0.006312,0.046323,-2.352566,18.240513,-42.408699,5.2426424,0.0805434,-0.19141673,-0.2521846,-0.017358694,-0.00954463,0.08619727
20240117 01:22:38,0.182101,-0.155921,-0.109467,-0.060618,-0.002051,0.038865,-2.652348,18.027634,-42.263817,6.203772,0.050946392,-0.14595112,-0.19554839,-0.01332044,-0.005392339,0.070753306
20240117 01:22:38,0.164483,-0.100451,-0.033677,-0.035050,0.012864,0.052715,-2.176491,18.065083,-42.395500,5.172816,0.09189136,-0.09476182,-0.13608849,0.013650749,0.010315122,0.060775056
20240117 01:22:38,0.194485,-0.068117,-0.007514,-0.029723,0.019256,0.056976,-2.386238,18.610510,-42.031273,5.450649,0.13044919,-0.06229765,-0.14179127,0.020265788,0.016684126,0.059340656
20240117 01:22:38,0.231295,-0.034738,0.042929,-0.025462,0.022452,0.060172,-2.371265,18.434250,-42.957420,4.7865224,0.19191277,-0.030847315,-0.13518013,0.025256949,0.020612178,0.058601215
20240117 01:22:38,0.262267,-0.046822,0.108912,-0.033985,0.007537,0.056976,-2.343987,18.527422,-42.695290,4.632538,0.26194796,-0.043906517,-0.10939948,0.01691535,0.005754995,0.063550696
20240117 01:22:38,0.251641,-0.053171,0.151623,-0.046769,-0.019096,0.049519,-2.308128,18.907499,-42.719749,4.8301635,0.28538066,-0.050966926,-0.07170194,0.003261339,-0.021298867,0.06905356
20240117 01:22:38,0.209438,-0.046586,0.114645,-0.064880,-0.038273,0.038865,-2.589592,18.692770,-42.306618,5.527359,0.22900078,-0.044177018,-0.06883316,-0.015903559,-0.0410198,0.0761392
20240117 01:22:38,0.158243,-0.027076,0.093626,-0.089383,-0.039338,0.032473,-2.492397,18.604130,-42.165886,5.321946,0.1780676,-0.025498606,-0.046831273,-0.037965834,-0.042410035,0.08919072
20240117 01:22:38,0.193378,-0.058555,0.189369,-0.102167,-0.039338,0.023950,-2.607903,18.694620,-42.574852,5.535961,0.27209064,-0.05843189,-1.0944903E-4,-0.054069385,-0.042632233,0.09190647
20240117 01:22:38,0.181486,-0.043622,0.308958,-0.098971,-0.045730,0.015428,-2.545151,19.359756,-42.617638,5.413322,0.34745467,-0.046917,0.09337589,-0.058177955,-0.048734374,0.08368343
20240117 01:22:38,0.160315,-0.041273,0.365471,-0.082991,-0.058514,0.007970,-2.068913,19.205317,-42.468864,4.6713777,0.37123275,-0.046170123,0.15014958,-0.05223836,-0.060733616,0.06719142
20240117 01:22:38,0.179201,-0.049504,0.396210,-0.061684,-0.073429,0.003709,-2.598938,18.789640,-42.580971,4.764074,0.40594,-0.05298748,0.15977456,-0.040285144,-0.07450389,0.050145194
20240117 01:22:38,0.236840,-0.021006,0.354568,-0.042507,-0.100063,-0.003749,-2.317093,18.812481,-42.713631,4.099819,0.41811442,-0.022522971,0.08518952,-0.03149544,-0.10055762,0.032371085
20240117 01:22:38,0.299263,-0.032188,0.212635,-0.043573,-0.143742,-0.009075,-2.968636,18.758572,-42.314690,4.23857,0.36158085,-0.031855375,-0.06295662,-0.036443047,-0.14387698,0.0321652
20240117 01:22:38,0.348520,-0.066076,0.008742,-0.075533,-0.179964,-0.021860,-2.563080,19.169718,-42.605415,3.1464224,0.24749622,-0.066866525,-0.2428718,-0.06851353,-0.17983992,0.04621643
20240117 01:22:38,0.386428,-0.042510,-0.109063,-0.119212,-0.193813,-0.039971,-3.066597,19.230989,-43.016335,3.1874363,0.18643601,-0.047237407,-0.35365525,-0.11297312,-0.19306773,0.06643111
20240117 01:22:38,0.443416,0.004822,-0.064710,-0.152238,-0.181029,-0.063408,-2.862858,18.956841,-42.460533,2.9120965,0.2633515,-5.5663707E-4,-0.36271602,-0.15364462,-0.18008822,0.071183875
20240117 01:22:38,0.407744,0.032249,0.135413,-0.152238,-0.157592,-0.091107,-2.932777,19.138649,-42.339134,3.644496,0.38435757,0.031499173,-0.19381297,-0.17254794,-0.1574218,0.050268598
20240117 01:22:38,0.250916,0.037257,0.326131,-0.105363,-0.122435,-0.112414,-3.214622,19.115810,-42.206474,5.2020907,0.4071221,0.036401693,0.053048357,-0.1524752,-0.12235336,0.00203681
20240117 01:22:38,0.069749,0.080529,0.397090,-0.023331,-0.064906,-0.116676,-3.099884,19.409100,-42.358452,6.5589767,0.3246144,0.07029995,0.22683781,-0.096124485,-0.061950304,-0.06129848
20240117 01:22:38,-0.085163,0.122023,0.430443,0.073616,0.001145,-0.101761,-3.178764,19.495888,-42.230919,7.9267545,0.2339412,0.09729086,0.35211554,-0.018519856,0.009503951,-0.12362569
20240117 01:22:38,-0.229454,0.113735,0.385169,0.163105,0.059739,-0.074062,-3.320400,18.917542,-42.060616,9.2953415,0.10060464,0.07521556,0.41834223,0.060022045,0.07423403,-0.17364994
20240117 01:22:38,-0.360291,0.149703,0.268804,0.220634,0.104484,-0.043167,-3.435905,19.008032,-42.469582,9.985891,-0.07362455,0.10519907,0.4240739,0.11727912,0.122278795,-0.1995112
20240117 01:22:38,-0.367942,0.105815,0.202773,0.244071,0.123660,-0.016533,-3.305424,18.741282,-42.986748,9.858409,-0.12182939,0.065466866,0.3896371,0.150803,0.1411584,-0.20019919
20240117 01:22:38,-0.300630,0.068470,0.148119,0.236614,0.111941,-0.003749,-3.190300,18.842682,-42.858253,9.352717,-0.10820991,0.038763355,0.30973884,0.15467863,0.12706074,-0.18499915
20240117 01:22:38,-0.250437,0.070590,0.095945,0.201457,0.081046,-0.005879,-3.181335,18.937702,-42.864372,9.357934,-0.10964347,0.04746025,0.23811887,0.13000959,0.094215244,-0.15830088
20240117 01:22:38,-0.285923,0.106242,0.105601,0.151386,0.028844,-0.012271,-3.040737,18.190304,-42.546242,9.738909,-0.12999493,0.07772313,0.26591885,0.093888484,0.04028838,-0.120980226
20240117 01:22:38,-0.321936,0.137727,0.106473,0.105576,-0.038273,-0.010141,-2.986565,18.568531,-42.302452,10.038217,-0.15512985,0.10403281,0.2895591,0.06822501,-0.029247945,-0.07903221
20240117 01:22:38,-0.364388,0.197491,-0.002280,0.075746,-0.094736,-0.000553,-2.749538,18.116274,-42.404549,10.574863,-0.26649344,0.16534926,0.24214403,0.059581205,-0.087540165,-0.044348914
20240117 01:22:38,-0.478988,0.232152,-0.151621,0.050178,-0.125631,0.022885,-2.995911,18.665401,-42.576805,11.514109,-0.45488274,0.20136161,0.22783466,0.06332797,-0.12215003,-0.0058450056
20240117 01:22:38,-0.540989,0.241507,-0.338021,0.033132,-0.132023,0.062303,-3.102074,18.659023,-42.711418,11.932482,-0.63381064,0.22446539,0.15825835,0.08267676,-0.13428849,0.032935847
20240117 01:22:38,-0.529044,0.221258,-0.534394,0.016087,-0.095801,0.105982,-2.943542,18.101664,-42.405525,11.502602,-0.76935846,0.22808415,0.035258144,0.100557104,-0.104677364,0.06739191
20240117 01:22:38,-0.391952,0.124046,-0.614897,-0.003090,-0.038273,0.141139,-3.022427,18.188454,-42.278008,9.8521385,-0.72920835,0.14599697,-0.111534595,0.10751569,-0.049778134,0.09725981
20240117 01:22:38,-0.210654,-0.029172,-0.621946,-0.025462,0.025648,0.151792,-2.977982,18.855440,-42.589027,8.179457,-0.603228,-0.0029995963,-0.24492106,0.09541914,0.015178128,0.115822844
20240117 01:22:38,-0.056851,-0.159474,-0.452848,-0.058488,0.072524,0.136877,-3.305042,18.549393,-42.706291,7.6956124,-0.36320224,-0.14121582,-0.24857652,0.05729326,0.06381686,0.12846115
20240117 01:22:38,0.020491,-0.294713,-0.165809,-0.092579,0.078916,0.100655,-2.801907,18.680012,-42.575829,6.788835,-0.091596864,-0.2869719,-0.10594375,0.0030993968,0.07125626,0.12954657
20240117 01:22:38,0.009266,-0.340332,0.151799,-0.105363,0.038432,0.056976,-2.856464,18.493671,-43.100090,6.781114,0.12508453,-0.3451179,0.13017905,-0.037099473,0.032276172,0.11082891
20240117 01:22:38,-0.066144,-0.316222,0.286084,-0.094709,-0.019096,0.019689,-3.074795,18.752193,-42.449287,7.583496,0.16374493,-0.3308127,0.28035876,-0.05383929,-0.02412107,0.08152373
20240117 01:22:38,-0.103552,-0.305014,0.284225,-0.070206,-0.059580,-0.005879,-2.739155,19.345148,-42.618614,7.204194,0.13912326,-0.32209846,0.30082136,-0.051425423,-0.06243189,0.05043039
20240117 01:22:38,-0.112472,-0.224924,0.107182,-0.032919,-0.057449,-0.021860,-2.889370,18.479893,-42.161720,7.515555,0.007938743,-0.23462677,0.17532407,-0.03594528,-0.05781657,0.013548935
20240117 01:22:38,-0.086238,-0.184057,-0.080610,0.011825,-0.009508,-0.030382,-3.074795,18.752193,-42.449287,7.77289,-0.10872541,-0.18371294,0.024525601,-0.013328912,-0.0074525764,-0.028438147
20240117 01:22:38,-0.148652,-0.130470,-0.217096,0.053374,0.061870,-0.030382,-3.313622,18.262486,-42.419701,9.061076,-0.25157663,-0.12511092,-0.02303087,0.010317799,0.06660166,-0.06615607
20240117 01:22:38,-0.209643,-0.052070,-0.267781,0.083204,0.140706,-0.016533,-2.820221,18.681862,-42.844078,8.671254,-0.33473805,-0.046845466,-0.019460067,0.034792602,0.14633109,-0.08667557
20240117 01:22:38,-0.204271,-0.009768,-0.235149,0.091726,0.189712,-0.000553,-3.005260,18.762272,-42.851173,8.897338,-0.30998665,-0.0066163074,-0.006307885,0.049158044,0.19459797,-0.087692164
20240117 01:22:38,-0.195192,-0.001657,-0.176808,0.080008,0.190777,0.009035,-2.643383,18.122652,-42.269936,8.602115,-0.26168266,-0.0019054227,0.024713062,0.048099104,0.1943481,-0.07203801
20240117 01:22:38,-0.123428,0.031111,-0.132493,0.049113,0.150294,0.012232,-2.810490,18.393103,-42.289253,8.296769,-0.18263939,0.032177687,-7.8255683E-4,0.032991134,0.15178578,-0.042659402
20240117 01:22:38,-0.103466,0.056372,-0.176565,0.002237,0.102353,0.015428,-2.704716,18.591372,-42.435112,7.86751,-0.20290639,0.06091343,-0.04722196,0.0069335704,0.10126586,-7.88603E-4
20240117 01:22:38,-0.009215,0.051218,-0.176341,-0.040377,0.052282,0.018624,-2.932007,18.754873,-41.778175,7.2239094,-0.13833821,0.058709558,-0.115707435,-0.015924301,0.049670953,0.037814394
20240117 01:22:38,0.084798,-0.007998,-0.176690,-0.072337,0.019256,0.014362,-2.899105,18.768652,-42.716560,6.628143,-0.071712375,0.0017146305,-0.1807763,-0.03930091,0.016140806,0.061295047
20240117 01:22:38,0.114356,-0.016749,-0.174527,-0.095775,0.013929,0.009035,-2.535034,18.879110,-41.782341,5.8973317,-0.049283028,-0.0071593276,-0.20077775,-0.059063308,0.010572412,0.075299606
20240117 01:22:38,0.100916,-0.028756,-0.121748,-0.103232,0.029910,0.010101,-2.704716,18.591372,-42.435112,5.9786625,-0.018176906,-0.021837644,-0.15445611,-0.064519435,0.026464164,0.07978988
20240117 01:22:38,0.098040,-0.021493,0.003290,-0.092579,0.055478,0.018624,-2.650925,19.161489,-42.471794,6.173213,0.07120772,-0.018244237,-0.06666614,-0.052865673,0.051601112,0.0753287
20240117 01:22:38,0.089617,-0.055714,0.139178,-0.067010,0.071458,0.020754,-2.774246,18.581291,-42.033226,6.6565847,0.16388279,-0.057525113,0.038248297,-0.035149455,0.068083756,0.056265768
20240117 01:22:38,0.108369,-0.048374,0.260654,-0.033985,0.073589,0.022885,-2.783978,18.870050,-42.588051,6.220149,0.2626192,-0.053281188,0.10955201,-0.010137027,0.071674295,0.0345182
20240117 01:22:38,0.133532,-0.027115,0.221738,0.004368,0.074654,0.022885,-2.623264,19.062771,-41.929192,5.701526,0.25252515,-0.029719252,0.060774058,0.017244546,0.07405675,0.007618266
20240117 01:22:38,0.156019,0.007699,0.122317,0.038459,0.085308,0.023950,-2.686787,18.781412,-42.447334,5.731291,0.1960763,0.008498862,-0.028243951,0.041501388,0.08561611,-0.017033337
20240117 01:22:38,0.160051,-0.004890,0.031571,0.057635,0.099157,0.021820,-2.378040,19.089308,-42.598320,5.457722,0.1334351,-0.0011458625,-0.09381409,0.052489124,0.10009086,-0.033227526
20240117 01:22:38,0.122334,0.009758,0.007400,0.068289,0.105549,0.027146,-2.404934,18.804251,-42.579994,6.0363617,0.089289665,0.013855266,-0.08428532,0.062720776,0.10683241,-0.03853097
20240117 01:22:38,0.080426,0.002356,-0.025074,0.081073,0.106615,0.037800,-1.980686,19.021658,-42.322029,5.3904185,0.036890466,0.00607881,-0.0757818,0.0791599,0.10790543,-0.040017687
20240117 01:22:38,0.104661,0.003842,-0.094085,0.083204,0.108745,0.044192,-1.867748,18.372980,-42.546486,5.1540537,0.0027848333,0.010624548,-0.14068124,0.085243195,0.109808646,-0.037339352
20240117 01:22:38,0.118701,-0.032352,-0.124149,0.068289,0.102353,0.043127,-1.919735,18.744829,-42.437309,5.3819876,-0.0088102,-0.023392402,-0.16902533,0.07413982,0.102987975,-0.027340356
20240117 01:22:38,0.091830,-0.000617,-0.159805,0.038459,0.083177,0.043127,-2.007961,18.928488,-42.584145,5.831543,-0.05487644,0.009883273,-0.17527708,0.05415106,0.08270825,-0.0048813242
20240117 01:22:38,0.068697,0.018451,-0.138224,0.002237,0.056543,0.049519,-2.510712,18.605980,-42.434135,6.8355823,-0.056019273,0.027944423,-0.14490665,0.03523624,0.054178853,0.02705279
20240117 01:22:38,0.010542,0.032434,-0.164666,-0.039311,0.034171,0.058041,-2.238209,18.725689,-42.841148,6.543072,-0.11499826,0.04076547,-0.121360265,0.014161427,0.029549133,0.06537307
20240117 01:22:38,0.012755,-0.017128,-0.096595,-0.074468,0.014995,0.069760,-2.229244,18.820709,-42.847267,6.3133397,-0.060918897,-0.012208981,-0.073619746,-7.0565566E-4,0.008689089,0.10062344
20240117 01:22:38,0.074382,-0.066370,-0.045935,-0.092579,0.000080,0.082544,-2.184036,19.103916,-42.597343,5.9917507,0.021125767,-0.061455738,-0.08050464,-0.0046336316,-0.0069431216,0.12363306
20240117 01:22:38,0.124009,-0.099488,0.042706,-0.096840,-0.018031,0.085741,-2.059948,19.300337,-42.474968,4.8651614,0.12003447,-0.09720359,-0.05294645,-0.006015219,-0.023081847,0.13003394
20240117 01:22:38,0.204303,-0.170072,0.106062,-0.085121,-0.029750,0.084675,-2.519676,18.510962,-42.428017,5.0142865,0.22275633,-0.16795523,-0.060102455,7.355064E-4,-0.03330753,0.121668085
20240117 01:22:38,0.271055,-0.207167,0.105568,-0.067010,-0.039338,0.074022,-1.938049,18.746679,-42.705559,3.110359,0.2673303,-0.20599988,-0.11021615,0.0056114607,-0.04033079,0.101132005
20240117 01:22:38,0.370135,-0.192576,0.030721,-0.046769,-0.031881,0.049519,-2.289814,18.905649,-42.451500,3.0769541,0.2807922,-0.19228308,-0.2361086,0.0027688853,-0.031964883,0.06920406
20240117 01:22:38,0.375628,-0.148648,-0.043871,-0.038246,-0.007378,0.023950,-2.165726,19.102066,-42.329109,3.16246,0.23042394,-0.14692914,-0.29460487,-0.009370858,-0.007634162,0.04439375
20240117 01:22:38,0.308750,-0.119974,-0.043483,-0.038246,0.013929,0.005839,-2.271500,18.903799,-42.183250,3.6503553,0.18464458,-0.11705349,-0.24661577,-0.022539344,0.01356385,0.030905072
20240117 01:22:38,0.273807,-0.058542,0.030329,-0.039311,0.026714,-0.004814,-2.404934,18.804251,-42.579994,4.4665213,0.21344107,-0.054551937,-0.17224911,-0.03128327,0.026143394,0.023418218
20240117 01:22:38,0.184099,0.008992,0.164399,-0.042507,0.022452,-0.009075,-2.413898,18.709230,-42.573875,5.149818,0.2460387,0.009423194,-0.016461693,-0.036887065,0.021616004,0.022470709
20240117 01:22:38,0.092807,0.042198,0.352789,-0.036115,-0.007378,-0.004814,-2.211315,19.010748,-42.859489,5.235015,0.3131142,0.0345356,0.18093866,-0.028783211,-0.008296979,0.02254414
20240117 01:22:38,0.083069,0.100429,0.410635,-0.022266,-0.059580,0.002643,-2.323486,19.275648,-42.074074,5.3037314,0.3466141,0.09094269,0.22288592,-0.01212054,-0.060241506,0.02152681
20240117 01:22:38,0.131245,0.173266,0.288512,-0.010547,-0.096867,0.009035,-2.314522,19.370667,-42.080177,4.8925376,0.29420513,0.16925417,0.09550578,0.0014948966,-0.097278535,0.019588182
20240117 01:22:38,0.171395,0.213593,0.138299,-0.005220,-0.113912,0.012232,-2.184036,19.103916,-42.597343,4.129587,0.21454878,0.21393226,-0.040571198,0.007251695,-0.1141732,0.017797958
20240117 01:22:38,0.207160,0.226880,0.028809,-0.002024,-0.108586,0.014362,-2.483818,18.891039,-42.452477,4.2348123,0.15930247,0.22901377,-0.14339241,0.010561192,-0.10878269,0.016711902
20240117 01:22:38,0.214593,0.201814,-0.019397,0.000107,-0.091540,0.007970,-1.953793,19.306717,-42.340370,3.3952844,0.12994741,0.20430359,-0.17823578,0.0069455765,-0.09161887,0.009050704
20240117 01:22:38,0.197541,0.191412,-0.031247,-0.002024,-0.068102,-0.001618,-2.623646,19.254660,-42.209648,4.580642,0.109026775,0.19472142,-0.17606327,-0.0015054633,-0.068091206,0.004090763
20240117 01:22:38,0.168888,0.143346,0.039942,-0.008416,-0.056384,-0.008010,-2.572044,19.074697,-42.599297,5.086784,0.1426569,0.14603908,-0.10289981,-0.010334419,-0.05635803,0.003997359
20240117 01:22:38,0.066072,0.061390,0.123349,-0.012678,-0.058514,-0.015468,-2.342182,19.469387,-42.622780,5.4518895,0.1321887,0.059542112,0.03525617,-0.018096564,-0.058368687,0.0020970218
20240117 01:22:38,-0.037293,-0.028592,0.252648,-0.007351,-0.075560,-0.023990,-2.447956,19.271118,-42.476921,6.5020576,0.1527341,-0.040643044,0.20647785,-0.018955491,-0.07473482,-0.0056397337
20240117 01:22:38,-0.137260,-0.051513,0.269189,0.009695,-0.097932,-0.025056,-2.711880,19.438318,-42.356499,7.5079274,0.09424039,-0.071828336,0.29091394,-0.0058054784,-0.09593603,-0.015378586
20240117 01:22:38,-0.246503,-0.049241,0.210997,0.035263,-0.108586,-0.020794,-2.403133,19.746216,-42.507484,7.4532013,-0.02306746,-0.07444925,0.3267421,0.016318683,-0.105143785,-0.029540015
20240117 01:22:38,-0.248484,-0.027179,0.155684,0.056570,-0.108586,-0.015468,-2.466270,19.272968,-42.745171,7.6066837,-0.060674235,-0.04972076,0.2881802,0.034606323,-0.10422756,-0.041190088
20240117 01:22:38,-0.253129,0.037933,-0.001305,0.069354,-0.098997,-0.006945,-2.712257,19.630207,-42.636955,7.9575596,-0.17701557,0.023710184,0.17951818,0.048461743,-0.094372556,-0.04572862
20240117 01:22:38,-0.238479,0.115310,-0.086373,0.069354,-0.085148,0.003709,-2.766434,19.251980,-42.880760,7.6714935,-0.23146701,0.107614964,0.1065676,0.054474756,-0.08158797,-0.04071799
20240117 01:22:38,-0.198179,0.158355,-0.179988,0.054439,-0.077691,0.016493,-3.012039,19.417330,-42.492088,7.9143133,-0.27481315,0.15789668,0.011858299,0.053064585,-0.07566653,-0.022058047
20240117 01:22:38,-0.149146,0.135612,-0.175997,0.029936,-0.071298,0.028212,-2.951473,19.332388,-42.887840,7.432086,-0.23689334,0.13724527,-0.019738324,0.044478863,-0.07117907,0.0030482858
20240117 01:22:38,-0.122911,0.119724,-0.091028,0.004368,-0.079821,0.042061,-2.917419,18.770500,-42.984795,6.6143165,-0.15480182,0.11868088,0.018730447,0.036669586,-0.0811364,0.0315929
20240117 01:22:39,-0.018674,0.051197,-0.061587,-0.010547,-0.100063,0.048453,-3.181721,19.129589,-43.144829,5.826526,-0.05867864,0.052166965,-0.03218384,0.03015498,-0.10133995,0.0478104
20240117 01:22:39,0.124887,0.041832,-0.038116,-0.012678,-0.113912,0.046323,-2.933159,19.330538,-42.619591,4.487142,0.058073074,0.043252923,-0.118935995,0.025858888,-0.11443318,0.0471548
20240117 01:22:39,0.239582,-0.038665,-0.033885,-0.003090,-0.123500,0.036735,-3.311821,19.204451,-42.347206,4.244589,0.14064999,-0.03890084,-0.19482596,0.024359854,-0.12346463,0.033804834
20240117 01:22:39,0.260325,-0.078258,-0.092680,0.006499,-0.120304,0.022885,-3.250866,18.927622,-42.462486,4.2068567,0.111047916,-0.078389764,-0.24891369,0.021065224,-0.12029785,0.016974851
20240117 01:22:39,0.232778,0.002893,-0.128488,0.013956,-0.100063,0.009035,-2.835579,19.050009,-42.198402,4.064562,0.06468243,0.0045699687,-0.25781322,0.01661043,-0.100041345,7.695295E-4
20240117 01:22:39,0.122611,0.065743,-0.113568,0.017152,-0.074494,0.012232,-3.171604,18.648943,-42.309547,5.674097,-0.001084581,0.070300445,-0.17116988,0.022131965,-0.07439186,7.249117E-4
20240117 01:22:39,0.001550,0.131623,-0.008732,0.025675,-0.051057,0.033538,-3.296459,18.836300,-42.992867,5.947998,-0.008159214,0.1317864,-0.016472463,0.043115348,-0.05123602,0.007923454
20240117 01:22:39,0.035746,0.106289,0.085448,0.037394,-0.045730,0.055911,-3.190300,18.842682,-42.858253,5.486468,0.08455188,0.105372734,0.02604958,0.06701421,-0.046063825,0.014568597
20240117 01:22:39,0.096590,0.049614,0.145770,0.049113,-0.056384,0.067630,-3.065826,18.847212,-42.455406,4.7252436,0.1713952,0.049142312,0.02914264,0.08323186,-0.05655859,0.0149961
20240117 01:22:39,0.166611,-0.023195,0.089856,0.054439,-0.077691,0.067630,-3.490463,18.821692,-42.993843,4.4489074,0.18040162,-0.023276089,-0.056199923,0.08636995,-0.077673465,0.0119484365
20240117 01:22:39,0.212891,-0.152023,0.002425,0.058701,-0.088344,0.053780,-3.278530,19.026339,-43.005089,3.695994,0.1481093,-0.15344498,-0.14511211,0.078821465,-0.088357955,-0.0012340397
20240117 01:22:39,0.228424,-0.167696,-0.125881,0.054439,-0.085148,0.026081,-3.518124,18.920412,-43.536446,4.106158,0.06376552,-0.16945158,-0.24423689,0.05584017,-0.085275315,-0.017696638
20240117 01:22:39,0.134532,-0.128294,-0.219244,0.041655,-0.079821,0.009035,-3.172756,19.224609,-43.150948,4.49444,-0.06835695,-0.12630619,-0.24047318,0.03542706,-0.079647794,-0.020136395
20240117 01:22:39,0.029477,-0.083623,-0.277078,0.021413,-0.069168,0.005839,-3.278530,19.026339,-43.005089,5.3164773,-0.1832582,-0.07909457,-0.20273829,0.019787746,-0.068949714,-0.007549109
20240117 01:22:39,-0.032864,-0.057427,-0.297365,0.003303,-0.052122,0.014362,-3.339096,19.111280,-42.609322,5.7392178,-0.24115524,-0.052212358,-0.1705665,0.013865665,-0.05232497,0.010655449
20240117 01:22:39,0.003737,-0.065860,-0.304196,-0.019070,-0.031881,0.022885,-3.462799,18.722975,-42.451241,5.515549,-0.22080058,-0.06170187,-0.20306599,0.004412543,-0.032419335,0.03151992
20240117 01:22:39,0.033140,-0.108061,-0.234624,-0.043573,-0.025488,0.027146,-3.189915,18.650793,-42.577782,4.4967165,-0.14825156,-0.106890455,-0.1781817,-0.009822683,-0.02578677,0.051674686
20240117 01:22:39,0.125944,-0.155075,-0.167861,-0.058488,-0.027619,0.017558,-3.251251,19.119511,-42.742973,3.9262156,-0.034887902,-0.15616024,-0.19942296,-0.027829122,-0.02734153,0.055688202
20240117 01:22:39,0.213350,-0.179001,-0.108115,-0.067010,-0.032946,-0.005879,-3.348446,19.208151,-42.883690,3.4425802,0.06753949,-0.18257791,-0.22125897,-0.050994392,-0.032269754,0.04568239
20240117 01:22:39,0.222441,-0.154891,-0.092324,-0.071272,-0.042534,-0.027186,-3.454220,19.009882,-42.737831,3.961149,0.0859357,-0.15696707,-0.21703431,-0.069193184,-0.04225241,0.034802508
20240117 01:22:39,0.168329,-0.114528,-0.029776,-0.074468,-0.058514,-0.041036,-3.242287,19.214531,-42.749077,3.3672307,0.09385856,-0.11659086,-0.13735314,-0.08180632,-0.0581773,0.027727734
20240117 01:22:39,0.230627,-0.046185,0.000891,-0.073402,-0.076625,-0.054885,-3.381733,19.386261,-42.225777,3.4961526,0.15901127,-0.048778083,-0.16458316,-0.091260836,-0.07643744,0.01866607
20240117 01:22:39,0.232739,-0.007730,-0.049405,-0.072337,-0.085148,-0.062343,-3.718140,19.177082,-42.617393,3.512072,0.12274556,-0.012301471,-0.20335689,-0.09638822,-0.085033864,0.01390158
20240117 01:22:39,0.305907,0.056318,-0.172095,-0.076599,-0.070233,-0.064474,-3.718140,19.177082,-42.617393,2.9315624,0.081300184,0.045017388,-0.34358904,-0.10100759,-0.07005022,0.015389245
20240117 01:22:39,0.346308,0.015796,-0.262252,-0.088317,-0.031881,-0.070866,-3.551029,18.906633,-42.598076,1.9237093,0.04351455,-0.0049299207,-0.4325558,-0.11306894,-0.031457182,0.017443884
20240117 01:22:39,0.424748,-0.099046,-0.205108,-0.097905,0.011799,-0.092173,-4.157368,19.135935,-41.949226,2.4624403,0.14120619,-0.1228299,-0.4458103,-0.13371384,0.011831,0.0068986416
20240117 01:22:39,0.447364,-0.157017,-0.111573,-0.092579,0.054413,-0.122002,-3.557808,19.561689,-42.238991,1.99297,0.22781056,-0.17564921,-0.3939395,-0.14998658,0.05327362,-0.020414226
20240117 01:22:39,0.356391,-0.159948,0.054335,-0.081925,0.086373,-0.160355,-3.805599,18.976963,-42.203285,3.5246954,0.28822362,-0.16568984,-0.20551324,-0.16941045,0.08486232,-0.059697993
20240117 01:22:39,0.221761,-0.166007,0.253912,-0.060618,0.094896,-0.195511,-3.487892,19.379881,-42.360405,4.1968594,0.33506817,-0.16588132,0.03688328,-0.17893215,0.09423087,-0.10316621
20240117 01:22:39,0.070335,-0.109671,0.387843,-0.026527,0.085308,-0.217884,-3.584702,19.276630,-42.220650,6.026366,0.3219613,-0.1146861,0.23649746,-0.17192061,0.088333525,-0.14367944
20240117 01:22:39,-0.094151,-0.037814,0.415730,0.007564,0.077850,-0.228537,-3.788441,19.550781,-42.776466,7.284889,0.22456399,-0.052932337,0.36386722,-0.15670371,0.084774844,-0.17426577
20240117 01:22:39,-0.201550,0.049589,0.343874,0.038459,0.078916,-0.222145,-3.884483,19.063753,-42.075768,8.710517,0.09639098,0.024753543,0.37791592,-0.13241126,0.0905498,-0.19144505
20240117 01:22:39,-0.312202,0.072177,0.308318,0.062962,0.087438,-0.204034,-3.532719,18.904783,-42.329842,9.091492,-0.006594479,0.037060894,0.42799792,-0.10461321,0.10218959,-0.19652797
20240117 01:22:39,-0.376810,0.116279,0.248964,0.083204,0.101288,-0.179531,-3.797020,19.263872,-42.489876,9.806274,-0.093916416,0.07704793,0.42697012,-0.07584152,0.117273234,-0.19532415
20240117 01:22:39,-0.420002,0.189136,0.218054,0.098119,0.121530,-0.145440,-3.709171,19.272100,-42.623497,10.406265,-0.15068361,0.14272949,0.42692697,-0.044276632,0.13838042,-0.18533698
20240117 01:22:39,-0.466086,0.233747,0.257271,0.106641,0.121530,-0.102826,-3.311821,19.204451,-42.347206,9.95157,-0.15923612,0.18070185,0.4823858,-0.0076174065,0.13595964,-0.1617221
20240117 01:22:39,-0.444138,0.234713,0.244148,0.111968,0.099157,-0.059147,-3.541683,18.809763,-42.323723,10.361423,-0.15041451,0.18361627,0.4572801,0.027890176,0.11101816,-0.13338807
20240117 01:22:39,-0.410794,0.211644,0.141781,0.106641,0.066131,-0.015468,-3.860157,18.790625,-42.727562,10.6307535,-0.19712207,0.17157386,0.36637533,0.05768726,0.074357145,-0.09605165
20240117 01:22:39,-0.328754,0.198929,0.080469,0.090661,0.025648,0.025016,-3.603016,19.278481,-42.488899,9.268669,-0.17868878,0.17442864,0.27213308,0.078651406,0.029233065,-0.05203609
20240117 01:22:39,-0.178147,0.168675,-0.092150,0.069354,-0.015900,0.061238,-3.444485,18.721125,-42.182991,8.151141,-0.19634327,0.16483876,0.053717706,0.092674926,-0.015756924,-0.008728165
20240117 01:22:39,-0.072860,0.102289,-0.235385,0.034198,-0.039338,0.090002,-3.453835,18.817993,-42.457359,6.886235,-0.22652715,0.10768683,-0.11110232,0.090877615,-0.04121535,0.03780115
20240117 01:22:39,0.086288,0.018025,-0.307886,-0.003090,-0.056384,0.115570,-4.081059,18.490955,-42.710197,6.7991123,-0.16987169,0.025773097,-0.2710462,0.0844838,-0.05873844,0.08402869
20240117 01:22:39,0.176511,-0.076501,-0.272902,-0.038246,-0.069168,0.126224,-3.647839,18.803383,-42.458336,5.4297566,-0.078249134,-0.07258947,-0.30949965,0.06674632,-0.0706076,0.11819162
20240117 01:22:39,0.263898,-0.119711,-0.170136,-0.068076,-0.086213,0.126224,-3.726723,18.890173,-42.330818,5.0860453,0.059189163,-0.11855836,-0.3006391,0.04466128,-0.08673492,0.14128567
20240117 01:22:39,0.256377,-0.193572,-0.128007,-0.092579,-0.104324,0.123028,-3.657188,18.900253,-42.732689,4.830318,0.08540818,-0.19323337,-0.2619841,0.024716526,-0.1045156,0.15776974
20240117 01:22:39,0.217442,-0.198548,-0.107159,-0.114951,-0.106455,0.116636,-3.569344,18.908484,-42.866325,4.9957747,0.07593223,-0.19712515,-0.21815065,0.0037521124,-0.10746997,0.16988969
20240117 01:22:39,0.165548,-0.237422,0.011508,-0.122408,-0.100063,0.114505,-3.965931,18.592356,-42.581688,5.796807,0.12690271,-0.23633079,-0.091952406,-0.004957527,-0.10171823,0.17425582
20240117 01:22:39,0.134038,-0.218481,0.094678,-0.112820,-0.087279,0.113440,-3.347679,18.824371,-42.322746,5.1402736,0.16378796,-0.21810412,-0.013399571,4.1873008E-4,-0.0892821,0.1652224
20240117 01:22:39,0.097014,-0.181792,0.125482,-0.086187,-0.067037,0.114505,-3.445641,19.296789,-43.024406,5.2588544,0.15896018,-0.18204013,0.03262592,0.019754138,-0.0689992,0.14606628
20240117 01:22:39,0.083289,-0.180615,0.157837,-0.061684,-0.049991,0.111309,-3.963745,19.342432,-42.228706,6.1765637,0.17228487,-0.18147786,0.06715169,0.034786895,-0.052093636,0.1259492
20240117 01:22:39,0.054745,-0.190469,0.158211,-0.046769,-0.037207,0.103851,-4.035847,18.774164,-42.460289,6.390469,0.15243523,-0.19177662,0.08883742,0.039942414,-0.03918091,0.10933222
20240117 01:22:39,0.034770,-0.186802,0.114463,-0.040377,-0.041469,0.098525,-3.709171,19.272100,-42.623497,5.8003635,0.10760982,-0.18773206,0.06960457,0.041341953,-0.043137852,0.10094203
20240117 01:22:39,0.067548,-0.152837,0.043414,-0.038246,-0.035077,0.085741,-3.912525,19.354362,-42.898842,5.413786,0.07908027,-0.15273157,-0.007218845,0.033944592,-0.035610728,0.08965549
20240117 01:22:39,0.139054,-0.183410,0.009244,-0.038246,-0.018031,0.068695,-3.708794,19.080212,-42.343040,4.655493,0.10426382,-0.1837767,-0.08138261,0.021543108,-0.017727327,0.07647426
20240117 01:22:39,0.159902,-0.166120,0.016094,-0.029723,0.002211,0.038865,-4.088215,19.337902,-42.631569,4.8531685,0.123358145,-0.1669822,-0.09190284,0.006517118,0.0026250689,0.048263375
20240117 01:22:39,0.150699,-0.163898,-0.002539,-0.015874,0.028844,0.007970,-3.814949,19.073833,-42.477654,5.320851,0.10483609,-0.16327159,-0.098240204,-0.005613731,0.028746508,0.0149858575
20240117 01:22:39,0.034711,-0.079929,0.004156,0.005433,0.059739,-0.014402,-3.542450,19.193542,-42.884666,6.006069,0.028764555,-0.07936388,-0.015944002,-0.007510758,0.06007528,-0.018313624
20240117 01:22:39,-0.082834,-0.001073,0.021430,0.028871,0.087438,-0.021860,-3.603016,19.278481,-42.488899,6.696004,-0.042223364,-0.0037252046,0.0743917,0.0021153074,0.088680916,-0.04293618
20240117 01:22:39,-0.156635,0.109994,-0.014312,0.052309,0.098092,-0.020794,-3.752193,19.738970,-42.520439,7.6225133,-0.12213472,0.10486853,0.09398975,0.01722176,0.100577906,-0.061103277
20240117 01:22:39,-0.211965,0.165892,-0.095112,0.065093,0.105549,-0.015468,-4.036617,19.157942,-43.021217,8.595418,-0.22124505,0.1609575,0.07474465,0.028098634,0.10879843,-0.06886648
20240117 01:22:39,-0.275806,0.248593,-0.176252,0.062962,0.108745,-0.002683,-3.478542,19.283010,-42.086037,8.04245,-0.32733995,0.24456406,0.06458115,0.03493845,0.11138686,-0.05871967
20240117 01:22:39,-0.278290,0.285001,-0.277854,0.049113,0.108745,0.014362,-3.584702,19.276630,-42.220650,8.160247,-0.4059905,0.28586006,-0.0019265115,0.038074106,0.1099422,-0.037492722
20240117 01:22:39,-0.260791,0.296194,-0.289004,0.022479,0.104484,0.033538,-3.427326,19.294941,-42.756172,7.773434,-0.40263817,0.29829746,-0.021645963,0.035089936,0.10364848,-0.004133174
20240117 01:22:39,-0.124333,0.313902,-0.264026,-0.008416,0.091700,0.046323,-3.251251,19.119511,-42.742973,6.410861,-0.28914428,0.31830797,-0.1054511,0.026106901,0.089979105,0.030124746
20240117 01:22:39,-0.025195,0.264804,-0.225045,-0.035050,0.073589,0.051649,-3.472149,18.819843,-42.725609,6.165569,-0.18969615,0.26926348,-0.15052463,0.013094474,0.0716653,0.05514063
20240117 01:22:39,-0.033273,0.230171,-0.210006,-0.056357,0.065066,0.052715,-3.426941,19.103052,-42.475700,6.6502414,-0.18498194,0.23541684,-0.13297676,-6.476417E-4,0.06188221,0.071868464
20240117 01:22:39,-0.055575,0.232687,-0.177451,-0.072337,0.068262,0.061238,-3.357410,19.113131,-42.877571,6.451454,-0.17528349,0.23617144,-0.09511764,-0.0053729154,0.06454464,0.08929557
20240117 01:22:39,-0.059059,0.224151,-0.143983,-0.074468,0.081046,0.072956,-3.551414,19.098522,-42.878548,6.8011713,-0.15239485,0.2266252,-0.0717144,5.5994093E-4,0.076761834,0.0973423
20240117 01:22:39,-0.078935,0.156830,-0.092139,-0.068076,0.098092,0.084675,-3.551414,19.098522,-42.878548,7.009551,-0.12614007,0.15724729,-0.018360544,0.0117720775,0.09324277,0.09897019
20240117 01:22:39,-0.079141,0.075617,0.004350,-0.057422,0.107680,0.095329,-3.269180,18.929472,-42.730736,6.393802,-0.05396987,0.0733339,0.05404692,0.02560158,0.10344526,0.098797284
20240117 01:22:39,-0.058498,-0.002801,0.083329,-0.041442,0.104484,0.095329,-2.863628,19.340616,-43.021477,5.6163335,0.018247511,-0.006245462,0.1000814,0.036143214,0.10109486,0.08895569
20240117 01:22:39,-0.059802,-0.064297,0.089010,-0.021200,0.100223,0.092133,-3.172756,19.224609,-43.150948,6.4476175,0.023230933,-0.0686684,0.10975941,0.04764054,0.09675198,0.07148448
20240117 01:22:39,-0.098728,-0.064630,0.098485,-0.005220,0.094896,0.090002,-3.109230,19.505968,-42.632805,6.4924107,0.0023911223,-0.0707407,0.1441506,0.057192028,0.09181033,0.05911315
20240117 01:22:39,-0.070875,-0.051711,0.080259,0.009695,0.089569,0.090002,-3.120388,18.660872,-42.979668,6.438206,0.009129111,-0.05615554,0.110508636,0.06828011,0.08707783,0.048694532
20240117 01:22:39,-0.084323,0.004813,0.063405,0.024610,0.079981,0.093198,-2.738773,19.153259,-42.338158,5.9007177,-0.0129872635,4.3525873E-4,0.10414621,0.081731714,0.07780802,0.040860694
20240117 01:22:39,-0.041490,0.073468,-0.058743,0.034198,0.077850,0.100655,-2.951088,19.140499,-42.607368,5.6251144,-0.07299213,0.073908255,-0.014458224,0.095020324,0.07616117,0.03812681
20240117 01:22:39,0.014134,0.102800,-0.213431,0.036328,0.088504,0.113440,-2.994110,19.607368,-42.504311,5.259517,-0.1494985,0.10709183,-0.16059308,0.10638884,0.08694443,0.04419689
20240117 01:22:39,0.075818,0.110516,-0.271255,0.025675,0.094896,0.121962,-2.793327,18.966921,-42.862419,4.5119257,-0.15139762,0.114703804,-0.243622,0.10642182,0.09366257,0.05761846
20240117 01:22:39,0.145791,0.109360,-0.324238,0.006499,0.094896,0.124093,-2.774632,18.773182,-42.313713,3.4514678,-0.14395735,0.10841477,-0.3289564,0.09695227,0.095141225,0.07400972
20240117 01:22:39,0.249818,0.095523,-0.403634,-0.018004,0.101288,0.119832,-2.553734,19.072847,-42.331062,2.6144261,-0.13357258,0.08965218,-0.45786175,0.078292444,0.10255124,0.090114266
20240117 01:22:39,0.286960,0.050510,-0.431565,-0.043573,0.105549,0.105982,-2.853508,18.859970,-42.186180,2.5505538,-0.12798944,0.039652713,-0.5032046,0.05127784,0.10780867,0.100069486
20240117 01:22:39,0.322268,0.034182,-0.425513,-0.068076,0.107680,0.087871,-2.908070,18.673632,-42.710442,2.6345332,-0.10062644,0.023346234,-0.5248438,0.02149855,0.109914705,0.1059941
20240117 01:22:39,0.323116,0.071594,-0.331047,-0.089383,0.109811,0.074022,-2.271881,19.095688,-42.463722,1.7415406,-0.025112301,0.06149675,-0.46321252,-0.0039213,0.112290576,0.11364015
20240117 01:22:39,0.296363,0.062307,-0.227798,-0.097905,0.104484,0.060172,-2.501747,18.701000,-42.440239,2.43575,0.035757646,0.056768514,-0.37381124,-0.02148107,0.10613386,0.109607756
20240117 01:22:39,0.239883,0.058394,-0.157347,-0.092579,0.090634,0.045257,-2.138447,19.195236,-42.066978,2.2091482,0.048922338,0.055438027,-0.2842153,-0.029317703,0.091649204,0.09617453
20240117 01:22:39,0.200788,0.082272,-0.141969,-0.080860,0.082112,0.036735,-2.384438,19.552477,-41.958778,2.8714445,0.03237752,0.08127808,-0.24647896,-0.027693015,0.08244889,0.081478626
20240117 01:22:39,0.188604,0.182856,-0.144787,-0.060618,0.085308,0.032473,-2.341801,19.277498,-42.342323,2.920613,0.020733252,0.18239212,-0.24304974,-0.016829217,0.08543604,0.063683495
20240117 01:22:39,0.184352,0.214247,-0.172082,-0.043573,0.090634,0.029277,-2.235638,19.283878,-42.207695,3.1403065,-0.004636109,0.21538168,-0.25985682,-0.007828113,0.09040313,0.048592433
20240117 01:22:39,0.133421,0.272554,-0.204977,-0.033985,0.089569,0.029277,-2.299160,19.002520,-42.725853,3.2091222,-0.06424891,0.27365178,-0.24621502,-0.001234293,0.08936565,0.041465364
20240117 01:22:39,0.191902,0.265645,-0.274659,-0.032919,0.079981,0.029277,-2.174690,19.007048,-42.323006,2.7998743,-0.07886326,0.2655838,-0.33400708,1.727622E-4,0.07998905,0.041445754
20240117 01:22:39,0.187157,0.313091,-0.338627,-0.040377,0.069328,0.026081,-2.104774,18.825239,-42.444405,2.87038,-0.13234359,0.31414407,-0.37384707,-0.007094208,0.06919844,0.045255717
20240117 01:22:39,0.175057,0.318195,-0.392795,-0.058488,0.062935,0.025016,-1.786682,19.036266,-42.321053,2.454243,-0.18322176,0.31934965,-0.398049,-0.019477893,0.06277466,0.05882211
20240117 01:22:39,0.143772,0.307560,-0.399863,-0.073402,0.064001,0.026081,-2.262531,18.998819,-42.189354,3.1148276,-0.20914653,0.30896577,-0.38090235,-0.02847537,0.06375981,0.07027394
20240117 01:22:39,0.153416,0.309748,-0.384183,-0.078729,0.072524,0.027146,-2.023323,19.296638,-41.938484,2.9482005,-0.18943712,0.3121234,-0.37864447,-0.031764433,0.07208107,0.07463822
20240117 01:22:39,0.125543,0.278852,-0.321796,-0.071272,0.075720,0.027146,-2.305557,19.465687,-42.086296,3.439353,-0.16013262,0.28165084,-0.3176745,-0.027269518,0.07513221,0.06837471
20240117 01:22:39,0.129121,0.264407,-0.302198,-0.057422,0.082112,0.030342,-2.023323,19.296638,-41.938484,3.1722,-0.14284766,0.26755756,-0.30629903,-0.015933271,0.08149096,0.06007535
20240117 01:22:39,0.076052,0.244559,-0.314901,-0.039311,0.090634,0.032473,-1.681290,19.426424,-42.747383,3.1071715,-0.188586,0.24956915,-0.2741413,-0.0029401463,0.0897319,0.047671646
20240117 01:22:39,0.050313,0.216987,-0.401874,-0.025462,0.102353,0.037800,-2.095425,18.728369,-42.170036,4.008907,-0.27316803,0.22481264,-0.3117459,0.00987762,0.10126274,0.03927827
20240117 01:22:39,0.018564,0.158015,-0.508068,-0.023331,0.127922,0.036735,-1.990032,19.118526,-42.596367,4.33456,-0.37529373,0.17089064,-0.35385686,0.0092788655,0.12644431,0.035291538
20240117 01:22:39,-0.032132,0.119212,-0.541189,-0.028658,0.154555,0.039931,-1.874527,19.028038,-42.187401,4.5158734,-0.43219984,0.13397634,-0.3364752,0.006771365,0.15256263,0.039763175
20240117 01:22:40,-0.049768,0.114749,-0.498766,-0.047834,0.165209,0.039931,-2.059563,19.108446,-42.194496,4.780833,-0.41048986,0.12794697,-0.29714707,-0.006445851,0.16269015,0.05310557
20240117 01:22:40,-0.043217,0.090453,-0.427725,-0.078729,0.142837,0.027146,-1.980301,18.829769,-42.041542,4.8682017,-0.35084465,0.10251623,-0.25607336,-0.036517654,0.13968077,0.06874413
20240117 01:22:40,-0.058810,0.123201,-0.336662,-0.119212,0.101288,0.010101,-1.804993,19.038116,-42.589287,4.9268084,-0.29309276,0.13298866,-0.1886003,-0.07607036,0.097042374,0.08929586
20240117 01:22:40,-0.151739,0.096479,-0.207379,-0.149042,0.051217,-0.011206,-1.848015,19.504986,-42.486229,6.3868012,-0.26000857,0.09979841,-0.036145717,-0.11227616,0.044267055,0.09784891
20240117 01:22:40,-0.289413,0.024516,-0.119795,-0.155434,0.010733,-0.032513,-1.784878,19.978233,-42.248543,7.4555187,-0.2879989,0.013667088,0.124619804,-0.13163024,0.0027473308,0.08897686
20240117 01:22:40,-0.465976,-0.005477,-0.081188,-0.133062,0.000080,-0.049559,-1.865562,19.123056,-42.193520,8.512618,-0.38058,-0.034464028,0.28097326,-0.12771213,-0.0061187022,0.06199415
20240117 01:22:40,-0.529934,0.047881,-0.024151,-0.067010,0.039498,-0.053820,-2.041252,19.106598,-41.926262,9.335025,-0.3896565,0.005291067,0.3591007,-0.08840597,0.038263448,0.0068264604
20240117 01:22:40,-0.523056,0.106653,0.113132,0.045916,0.104484,-0.049559,-1.723545,19.509514,-42.083366,8.386614,-0.2949754,0.05623786,0.4405532,-0.011217654,0.111346215,-0.07779874
20240117 01:22:40,-0.424531,0.151556,0.244835,0.198261,0.166274,-0.052755,-1.680523,19.042646,-42.186424,7.6373134,-0.13162346,0.104686804,0.4595722,0.0887923,0.18270014,-0.19404864
20240117 01:22:40,-0.325699,0.291470,0.182049,0.360194,0.220607,-0.062343,-1.680523,19.042646,-42.186424,7.1284404,-0.10613717,0.25842425,0.33758417,0.18336503,0.24575126,-0.3256164
20240117 01:22:40,-0.240964,0.534702,-0.055134,0.492297,0.267482,-0.070866,-1.707417,18.757587,-42.168083,6.912656,-0.23231182,0.5229611,0.10826309,0.2442282,0.2985421,-0.44325045
20240117 01:22:40,-0.196902,0.766125,-0.449850,0.561545,0.313292,-0.066604,-1.522762,18.869068,-42.441475,6.879644,-0.532104,0.7849204,-0.16845158,0.2635034,0.34809878,-0.51005596
20240117 01:22:40,-0.144020,0.917073,-0.791310,0.557284,0.348449,-0.060212,-1.577320,18.682726,-42.965736,6.9588833,-0.7984197,0.9658252,-0.39529014,0.24333176,0.38124764,-0.51528466
20240117 01:22:40,-0.121405,1.102966,-1.042990,0.489101,0.364429,-0.054885,-1.453228,18.879148,-42.843361,7.487767,-1.0368882,1.1834962,-0.5356524,0.18612504,0.39563707,-0.46638396
20240117 01:22:40,-0.231663,1.189396,-1.243712,0.368717,0.369756,-0.043167,-1.003887,18.439648,-42.676231,8.904913,-1.3143625,1.3116624,-0.54536694,0.11219495,0.39905152,-0.3661887
20240117 01:22:40,-0.409676,1.247689,-1.282293,0.208915,0.365494,-0.018664,-1.005692,17.497683,-42.748726,11.306065,-1.4833522,1.388268,-0.4456734,0.037029423,0.3826016,-0.22490482
20240117 01:22:40,-0.596627,1.251727,-1.109823,0.035263,0.348449,0.016493,-1.155254,18.150059,-43.060738,13.522721,-1.4666355,1.3548849,-0.25165176,-0.032642707,0.34080654,-0.06533514
20240117 01:22:40,-0.774855,1.190841,-0.768130,-0.121343,0.306900,0.062303,-1.023235,17.115753,-42.456017,13.925934,-1.2814584,1.1990627,0.030386358,-0.07861458,0.27081022,0.09094514
20240117 01:22:40,-0.895479,1.059944,-0.315699,-0.240662,0.237653,0.101721,-0.618069,17.718788,-43.027229,13.587427,-0.9854739,0.96172076,0.36821842,-0.11263886,0.17827396,0.21669641
20240117 01:22:40,-0.948205,0.883365,-0.006787,-0.315236,0.160947,0.140073,-0.599754,17.716940,-42.758995,13.809041,-0.7697747,0.71791553,0.59129685,-0.12540933,0.08393215,0.30499667
20240117 01:22:40,-0.960057,0.706604,0.230546,-0.345066,0.090634,0.174164,-0.784790,17.797350,-42.766090,13.841813,-0.57973266,0.50340945,0.76313543,-0.11259428,0.006072335,0.35765308
20240117 01:22:40,-0.916469,0.566914,0.225599,-0.338674,0.055478,0.197602,-1.012852,18.344627,-42.670113,13.4440775,-0.5330763,0.38357726,0.7460942,-0.087966755,-0.027317263,0.37272507
20240117 01:22:40,-0.878650,0.472811,0.194849,-0.324825,0.046955,0.208256,-0.694759,18.555656,-42.546745,12.6760235,-0.51442647,0.3068797,0.7157671,-0.06999241,-0.033210978,0.37114853
20240117 01:22:40,-0.729877,0.262490,0.084391,-0.255577,0.059739,0.230628,-0.775826,17.892370,-42.772209,11.633529,-0.4642649,0.15324503,0.5618787,-0.011437207,-0.006219372,0.33300912
20240117 01:22:40,-0.621042,0.092030,0.043192,-0.178872,0.092765,0.229563,-0.721653,18.270597,-42.528404,10.562259,-0.39833528,0.012967996,0.47649628,0.0349679,0.0412812,0.27274173
20240117 01:22:40,-0.517102,0.026635,-0.046661,-0.080860,0.125791,0.217844,-0.854710,17.979160,-42.644691,10.612915,-0.3832856,-0.026598405,0.35059336,0.0896859,0.08725209,0.18779647
20240117 01:22:40,-0.470215,-0.004580,-0.214702,0.024610,0.148163,0.203994,-0.642776,18.183807,-42.655937,9.832372,-0.46778074,-0.028283138,0.21667437,0.14991991,0.12381931,0.09667074
20240117 01:22:40,-0.411418,-0.021054,-0.517981,0.123687,0.164144,0.188014,-0.412910,18.578495,-42.679420,9.652748,-0.6530766,0.0024455935,-0.0039978027,0.20059586,0.15070462,0.0046115443
20240117 01:22:40,-0.412803,-0.021948,-0.897255,0.197196,0.182254,0.170968,-0.642776,18.183807,-42.655937,10.336284,-0.95005053,0.059563994,-0.20324653,0.22799493,0.17652144,-0.07497145
20240117 01:22:40,-0.352208,0.020653,-1.306390,0.243006,0.198235,0.163511,-0.563892,18.097017,-42.783455,10.209784,-1.2598395,0.17344514,-0.44719726,0.24231404,0.19594902,-0.1276508
20240117 01:22:40,-0.268864,0.082173,-1.630263,0.262182,0.211019,0.162446,-0.045021,17.667597,-43.018196,9.2977705,-1.509819,0.29110163,-0.6475754,0.24569531,0.20866635,-0.15285227
20240117 01:22:40,-0.182445,0.166598,-1.961677,0.260051,0.230195,0.162446,-0.460693,17.737099,-43.562752,9.538795,-1.7823402,0.43054262,-0.8402925,0.23706153,0.22568631,-0.16190594
20240117 01:22:40,-0.150208,0.239410,-2.165915,0.231287,0.246175,0.172034,-0.095585,19.173300,-43.116982,9.032543,-1.9772959,0.54440963,-0.9196028,0.22371511,0.23604356,-0.13914682
20240117 01:22:40,-0.098825,0.319205,-2.365094,0.205719,0.253633,0.178426,-0.052948,18.898321,-43.500526,8.713504,-2.1580186,0.649963,-1.0216478,0.21473622,0.24001497,-0.11802433
20240117 01:22:40,-0.047815,0.362148,-2.441592,0.137536,0.265352,0.192275,0.219933,18.826139,-43.627083,7.4789352,-2.2127616,0.6723406,-1.0945989,0.19769289,0.24678093,-0.05015108
20240117 01:22:40,0.036268,0.436442,-2.344545,0.013956,0.278136,0.208256,0.032322,18.348360,-44.267601,6.878297,-2.0817404,0.703145,-1.1562823,0.15677916,0.25281894,0.06963817
20240117 01:22:40,0.107586,0.446358,-2.091156,-0.060618,0.258960,0.209321,0.221355,19.959995,-43.835045,5.0889544,-1.794975,0.6351042,-1.1423475,0.12808461,0.23596366,0.14437601
20240117 01:22:40,0.148649,0.449507,-1.965625,-0.112820,0.221672,0.197602,0.028114,19.561607,-43.275078,4.8767977,-1.6405541,0.61225796,-1.150659,0.09337996,0.19946364,0.18810603
20240117 01:22:40,0.173853,0.516397,-1.662847,-0.130931,0.205692,0.189079,0.129898,18.067835,-43.846397,4.849548,-1.3682718,0.6553859,-1.0283537,0.07696347,0.18336627,0.20050949
20240117 01:22:40,0.127363,0.600369,-1.551716,-0.166088,0.199300,0.168838,0.227097,17.979195,-43.705681,5.678879,-1.2991805,0.7500874,-0.95443296,0.036128066,0.17248446,0.21933374
20240117 01:22:40,0.050804,0.623598,-1.471626,-0.171414,0.209953,0.163511,0.175495,18.159153,-43.316032,6.883402,-1.2761285,0.7863069,-0.86273235,0.022070043,0.17771739,0.21817082
20240117 01:22:40,-0.129458,0.810856,-1.222826,-0.174611,0.272809,0.165642,0.282036,17.973644,-42.900948,8.079917,-1.1893753,0.9502936,-0.61386275,0.0061053485,0.23279442,0.21488461
20240117 01:22:40,-0.295376,0.900437,-1.015909,-0.177807,0.298377,0.174164,0.360916,17.886854,-43.028465,8.854989,-1.1213648,1.0027454,-0.39872995,-5.964339E-4,0.25202835,0.21797526
20240117 01:22:40,-0.419088,0.892192,-0.726171,-0.192721,0.345253,0.206125,0.431213,17.513155,-42.869408,9.229112,-0.95352197,0.9389768,-0.16493028,0.0012912005,0.28971258,0.24294633
20240117 01:22:40,-0.490099,0.889365,-0.370894,-0.204440,0.333534,0.225301,0.651730,18.004713,-43.167244,8.976159,-0.71413827,0.8737034,0.07704435,0.0026325434,0.27408686,0.2660502
20240117 01:22:40,-0.477698,0.844090,-0.005436,-0.207636,0.310096,0.232759,0.361301,17.694967,-42.748009,8.370351,-0.411009,0.7856853,0.2882347,0.007903546,0.2564358,0.27794594
20240117 01:22:40,-0.434501,0.803766,0.272549,-0.205506,0.185450,0.235955,0.254757,17.880474,-43.163094,8.003446,-0.16977939,0.72159487,0.43252587,0.022041261,0.13664377,0.29131642
20240117 01:22:40,-0.361228,0.758662,0.427507,-0.200179,0.073589,0.217844,0.070103,17.768995,-42.889702,7.3975534,0.0050751567,0.67686766,0.48669165,0.023578584,0.033311013,0.28663886
20240117 01:22:40,-0.323336,0.761177,0.486812,-0.196983,0.018191,0.207190,0.574001,17.515837,-42.198311,6.433063,0.07634175,0.6803853,0.5057955,0.022926047,-0.018687893,0.28249863
20240117 01:22:40,-0.205250,0.796419,0.574085,-0.153304,-0.085148,0.176295,0.530598,18.174593,-42.375710,5.0500846,0.23124862,0.7334523,0.48549965,0.037032977,-0.108886175,0.23604381
20240117 01:22:40,-0.089521,0.871777,0.657628,-0.082991,-0.107520,0.154988,0.203541,17.868546,-42.492958,4.911194,0.3705886,0.81677866,0.45166057,0.06810288,-0.122936554,0.17056069
20240117 01:22:40,-0.011934,1.013664,0.708366,0.020348,-0.110716,0.139008,-0.017742,17.760769,-42.756065,3.9066203,0.47178763,0.97349703,0.4278647,0.12373212,-0.11681097,0.08071223
20240117 01:22:40,0.048705,1.052003,0.715093,0.137536,-0.090475,0.132616,-0.096622,17.847557,-42.628548,3.1411843,0.53258836,1.0224842,0.38717508,0.19369608,-0.09100768,-0.016120225
20240117 01:22:40,0.192499,1.172112,0.533103,0.192935,-0.072364,0.128354,-0.238640,17.461100,-42.738701,2.8288236,0.493169,1.1576502,0.1505631,0.22382206,-0.07127295,-0.06633532
20240117 01:22:40,0.252120,1.275729,0.316566,0.305861,-0.004181,0.111309,-0.317905,17.739777,-42.891655,2.1847844,0.37195352,1.2719862,-0.03454618,0.27575672,-9.42162E-4,-0.17296231
20240117 01:22:40,0.282129,1.354379,0.202664,0.316515,0.038432,0.101721,-0.662891,17.243690,-42.996666,2.4324274,0.30126077,1.3541044,-0.13647589,0.2718654,0.04159857,-0.19110382
20240117 01:22:40,0.346278,1.452240,0.246884,0.284554,0.062935,0.096394,-0.635227,17.144972,-42.454063,1.6855899,0.38879472,1.4523025,-0.15014659,0.24906921,0.06444164,-0.16799054
20240117 01:22:40,0.450328,1.392075,0.482177,0.246202,0.083177,0.090002,-0.514095,16.975092,-43.245598,0.69372845,0.6577483,1.3920306,-0.05482295,0.22533813,0.0832199,-0.13452125
20240117 01:22:40,0.565531,1.319909,1.034978,0.237679,0.085308,0.078283,-0.567501,16.213085,-42.928444,-0.18821086,1.1654048,1.3262904,0.26794118,0.21747464,0.08365589,-0.12542191
20240117 01:22:40,0.661539,1.209702,1.521884,0.267509,0.000080,0.026081,-0.883022,16.560247,-42.418373,-0.40119818,1.5884572,1.2276385,0.5596056,0.20148115,-0.004460107,-0.17788842
20240117 01:22:40,0.748145,1.121828,1.677419,0.309058,-0.097932,-0.027186,-0.398205,16.692713,-42.556175,-1.2123702,1.762686,1.143265,0.6093393,0.18823572,-0.104910515,-0.24635021
20240117 01:22:40,0.739218,1.122574,1.510183,0.347410,-0.181029,-0.080454,-1.018646,15.710619,-43.168083,-0.57288635,1.6456974,1.1431097,0.46360552,0.16722938,-0.19068655,-0.31374574
20240117 01:22:40,0.741318,1.116769,1.159081,0.358063,-0.223643,-0.117741,-1.301262,16.071558,-43.596367,-0.23267047,1.391134,1.1296903,0.19175011,0.13723582,-0.23442942,-0.34935543
20240117 01:22:40,0.729705,1.041775,0.823323,0.350606,-0.231101,-0.133721,-1.476189,15.671320,-42.768150,-0.05525673,1.1274607,1.0473812,-0.044202745,0.1117721,-0.242491,-0.3563269
20240117 01:22:40,0.719908,0.967913,0.624023,0.282424,-0.202336,-0.178466,-2.112755,15.441153,-43.295341,1.0630839,0.9580672,0.96886647,-0.19203922,0.029311895,-0.211713,-0.33001024
20240117 01:22:40,0.606421,0.640299,0.052539,0.241941,-0.165049,-0.192315,-1.769955,15.187162,-43.543297,1.3926585,0.42018783,0.6348878,-0.4576,-0.0066089183,-0.16988924,-0.30654615
20240117 01:22:40,0.515710,0.342255,-0.049922,0.078942,0.002211,-0.246648,-2.060387,14.877415,-43.124062,3.350689,0.28190643,0.34602815,-0.44539413,-0.14253815,0.004737933,-0.216039
20240117 01:22:40,0.261085,-0.030825,0.133265,-0.059553,0.093831,-0.299915,-2.412533,15.228275,-43.150459,7.2589602,0.27523044,-0.025555287,-0.10252707,-0.26671886,0.106085196,-0.16317473
20240117 01:22:40,-0.211240,-0.374403,0.695038,-0.135193,0.113007,-0.325484,-2.633430,14.928606,-43.133110,9.921047,0.37641078,-0.4403311,0.67378545,-0.33480948,0.12702757,-0.14023048
20240117 01:22:40,-0.609023,-0.624353,1.481434,-0.324825,0.006472,-0.353183,-2.730244,14.825357,-42.993355,14.311205,0.5344883,-0.8488094,1.6108029,-0.47328693,0.0025875792,-0.055844814
20240117 01:22:40,-0.949187,-0.847182,2.113145,-0.374896,-0.085148,-0.346791,-2.907085,15.384565,-43.567497,16.463974,0.55984557,-1.2118434,2.3882248,-0.49430627,-0.10179111,-0.026279166
20240117 01:22:40,-1.082983,-0.997031,2.378942,-0.444144,-0.479327,-0.281805,-3.178814,14.881081,-42.599541,17.25396,0.49781507,-1.3884448,2.7370954,-0.47429836,-0.5103631,0.14075424
20240117 01:22:40,-1.124511,-1.289656,2.772329,-0.433490,-0.639129,-0.254106,-3.540314,15.328808,-42.900307,16.056705,0.64118695,-1.6562877,3.1497993,-0.446348,-0.6668843,0.17734586
20240117 01:22:40,-0.872448,-1.580694,2.638724,-0.358916,-0.932100,-0.218949,-3.959808,16.419664,-42.171867,14.735515,0.81812966,-1.8571067,2.949326,-0.35093737,-0.9478384,0.21779446
20240117 01:22:40,-0.086712,-1.656306,1.414109,-0.157565,-1.112144,-0.213622,-4.712532,14.762356,-42.339104,12.046684,0.83297074,-1.7182544,1.447567,-0.20466185,-1.1092345,0.11160974
20240117 01:22:40,0.152950,-1.655746,0.942092,-0.082991,-1.095098,-0.218949,-5.444107,15.370905,-42.654060,8.255993,0.72560596,-1.6582876,0.8017972,-0.20010714,-1.0946795,0.007378176
20240117 01:22:40,0.764392,-1.568160,-0.359412,0.124752,-0.860721,-0.255171,-5.771553,15.256744,-43.051781,2.4189985,0.18096799,-1.634964,-0.7489896,-0.1491995,-0.8819543,-0.24252176
20240117 01:22:40,0.917004,-1.526738,-0.690852,0.182281,-0.739272,-0.270086,-6.563694,15.950233,-42.970940,1.8633975,-0.0032988489,-1.6509602,-1.1069121,-0.13449135,-0.77238727,-0.30129147
20240117 01:22:40,1.103821,-1.348904,-1.075411,0.268574,-0.492111,-0.291393,-6.642189,15.845137,-42.562965,0.08277317,-0.22652507,-1.5677724,-1.5376625,-0.09604034,-0.546856,-0.39357582
20240117 01:22:40,1.175858,-1.226715,-1.191726,0.313319,-0.289695,-0.308438,-7.049545,14.492022,-42.344719,0.017249411,-0.27830958,-1.4839103,-1.668236,-0.06271839,-0.3575972,-0.4385905
20240117 01:22:40,1.232704,-1.247924,-1.134790,0.311188,-0.108586,-0.340399,-7.252899,14.574284,-42.620049,0.5926901,-0.1666078,-1.4954175,-1.6666226,-0.057510853,-0.18001676,-0.45795366
20240117 01:22:40,1.212974,-1.261608,-0.862564,0.289881,-0.097932,-0.369163,-7.182220,14.008696,-42.180519,1.2675638,0.056359112,-1.4618374,-1.457706,-0.08322303,-0.16562718,-0.46172234
20240117 01:22:40,1.178133,-1.177627,-0.624373,0.263248,-0.133089,-0.403254,-7.631561,14.448195,-42.347649,3.0739508,0.2158823,-1.3259435,-1.2509558,-0.13424459,-0.19198912,-0.46013713
20240117 01:22:40,1.122996,-1.068996,-0.647422,0.249398,-0.146938,-0.420300,-7.976929,14.143997,-42.733131,3.9834504,0.16510034,-1.2054201,-1.220691,-0.16155621,-0.20216712,-0.45746058
20240117 01:22:40,0.973058,-0.905559,-0.747716,0.218503,-0.149069,-0.439476,-7.572411,13.229401,-42.535439,5.4101586,-0.01635617,-1.0035701,-1.1701206,-0.20908993,-0.18903497,-0.43777603
20240117 01:22:40,0.781933,-0.644770,-0.847640,0.188673,-0.119239,-0.437345,-7.943253,13.773996,-43.110558,7.9350595,-0.21312839,-0.696736,-1.0778453,-0.23387632,-0.14024428,-0.4044821
20240117 01:22:40,0.564496,-0.423211,-0.999740,0.123687,-0.022292,-0.398993,-7.827370,13.491621,-42.421135,11.350191,-0.4695333,-0.4062704,-0.9847412,-0.24904576,-0.01643517,-0.32795364
20240117 01:22:40,0.201570,-0.290256,-1.132864,0.090661,0.020322,-0.374490,-8.076309,13.482559,-43.226830,15.988612,-0.7837509,-0.19038945,-0.74567086,-0.25424328,0.054121196,-0.28457922
20240117 01:22:40,-0.132692,-0.187076,-1.224787,0.008629,0.102353,-0.300981,-8.278893,13.181042,-42.941231,19.548407,-1.0424291,-0.045878634,-0.52158535,-0.25060758,0.13894343,-0.19049378
20240117 01:22:40,-0.467809,-0.257294,-0.989091,-0.129866,0.175862,-0.171008,-8.217178,12.520435,-42.495583,22.599358,-1.0130963,-0.15602809,-0.13123453,-0.239223,0.18324336,-0.036071144
20240117 01:22:40,-0.531730,-0.314570,-0.800904,-0.176741,0.170536,-0.133721,-8.066193,13.001911,-42.391548,22.792524,-0.8948405,-0.25033474,0.02388388,-0.23981005,0.16547753,0.017760217
20240117 01:22:40,-0.655401,-0.506876,-0.278913,-0.283276,0.068262,-0.031448,-8.383904,12.598995,-42.234428,23.305729,-0.5722733,-0.5427499,0.44644377,-0.22349283,0.034789898,0.17148218
20240117 01:22:40,-0.615344,-0.580857,-0.140723,-0.312040,-0.047861,0.018624,-8.436272,13.162733,-42.405724,21.484417,-0.4555122,-0.6247811,0.5035738,-0.19526115,-0.0838684,0.25081828
20240117 01:22:40,-0.330291,-0.666245,-0.041842,-0.313106,-0.106455,0.032473,-8.454201,12.972691,-42.393501,20.593245,-0.1864928,-0.68754464,0.37428054,-0.18000388,-0.1397279,0.2744993
20240117 01:22:40,-0.293448,-0.641354,-0.125514,-0.292864,-0.220447,0.060172,-8.745018,12.854836,-42.254707,19.726309,-0.22596887,-0.648762,0.28540984,-0.12730111,-0.24892074,0.30655545
20240117 01:22:40,-0.200268,-0.511029,-0.382865,-0.276884,-0.225774,0.090002,-8.654594,13.421253,-41.754906,18.307247,-0.3777962,-0.49004558,0.023349985,-0.09023425,-0.2512597,0.31269643
20240117 01:22:40,-0.084303,-0.432242,-0.624137,-0.264100,-0.208728,0.108113,-8.982040,13.307096,-42.152626,17.078062,-0.5098861,-0.39478478,-0.22826295,-0.06780654,-0.2287016,0.30901933
20240117 01:22:40,0.061880,-0.357842,-0.819617,-0.232139,-0.151200,0.143269,-9.133026,12.825619,-42.256660,16.258444,-0.58601964,-0.3131032,-0.47357318,-0.023710273,-0.16740973,0.29366076
20240117 01:22:40,0.237939,-0.321728,-0.978286,-0.205506,-0.084083,0.164576,-9.775604,12.866730,-41.863838,15.725507,-0.61900806,-0.2843946,-0.7098704,0.0075808614,-0.09431838,0.27338156
20240117 01:22:40,0.347347,-0.344364,-1.149055,-0.203375,-0.013770,0.175230,-9.024292,13.390184,-41.488609,12.832832,-0.69968146,-0.33558795,-0.9099667,0.015757553,-0.015818551,0.26719373
20240117 01:22:41,0.438730,-0.361994,-1.144733,-0.218290,0.035236,0.175230,-9.518456,13.354588,-41.625191,12.668489,-0.63989985,-0.3695089,-0.98124117,0.005502388,0.036978666,0.272542
20240117 01:22:41,0.530272,-0.361674,-1.072126,-0.238531,0.049086,0.160315,-9.306137,13.367348,-41.355965,11.284185,-0.51039976,-0.39437902,-1.0279157,-0.023624025,0.05678671,0.27837512
20240117 01:22:41,0.616511,-0.429271,-0.972332,-0.252381,0.033106,0.097459,-9.227257,13.280558,-41.483467,11.244317,-0.37434402,-0.46005687,-1.027145,-0.082905546,0.039448597,0.25206113
20240117 01:22:41,0.590193,-0.416926,-0.902215,-0.250250,0.025648,0.075087,-9.288597,13.749275,-41.648659,11.987109,-0.3300915,-0.431585,-0.9605287,-0.09980838,0.028612625,0.23694284
20240117 01:22:41,0.468433,-0.287563,-0.846216,-0.234270,0.023518,0.038865,-9.490799,13.255867,-41.082573,13.867868,-0.3583492,-0.2777453,-0.8383793,-0.11791297,0.021683425,0.2019651
20240117 01:22:41,0.384952,-0.020950,-0.662241,-0.199114,0.014995,0.029277,-9.280014,14.036184,-41.935234,13.798939,-0.27348158,-0.0053205667,-0.70020926,-0.10242943,0.011942169,0.17060837
20240117 01:22:41,0.317865,0.259061,-0.514060,-0.152238,-0.002051,0.043127,-9.474022,14.021574,-41.936211,14.357828,-0.20724854,0.2746531,-0.59975475,-0.06158558,-0.0054193363,0.14521441
20240117 01:22:41,0.291239,0.530416,-0.386829,-0.110690,-0.037207,0.075087,-9.093826,13.380104,-41.086739,12.743806,-0.12886721,0.5316368,-0.53278923,-0.008250482,-0.03752823,0.13738498
20240117 01:22:41,0.412921,0.683816,-0.458222,-0.088317,-0.065972,0.109178,-9.667252,13.623184,-41.376259,12.920663,-0.11045745,0.68056166,-0.6921251,0.032837946,-0.0652298,0.14374568
20240117 01:22:41,0.556450,0.759023,-0.578419,-0.081925,-0.070233,0.142204,-9.499763,13.160847,-41.076454,10.376187,-0.09955567,0.72004086,-0.8684791,0.061842263,-0.062357333,0.15703122
20240117 01:22:41,0.688249,0.836003,-0.556816,-0.076599,-0.030815,0.169903,-9.403336,13.455988,-41.496681,9.346741,0.012997955,0.7818823,-0.9623046,0.087486066,-0.01964517,0.16527504
20240117 01:22:41,0.899581,0.902569,-0.367104,-0.054226,0.019256,0.190145,-9.621666,13.714504,-40.845879,7.5847588,0.33900827,0.81356174,-1.0058969,0.116884045,0.03748001,0.15744117
20240117 01:22:41,1.148570,0.897837,-0.130338,-0.015874,0.068262,0.183753,-9.887772,13.131630,-41.078407,6.707005,0.713765,0.7897446,-1.0363015,0.13730718,0.08633047,0.12303145
20240117 01:22:41,1.235878,0.928789,0.175818,0.026740,0.099157,0.158184,-9.906082,13.133480,-41.346657,6.295013,1.0252525,0.8349368,-0.8936253,0.14649841,0.111626536,0.074536406
20240117 01:22:41,1.236125,0.940205,0.386439,0.071485,0.126856,0.120897,-9.631012,13.811375,-41.120232,6.567597,1.184566,0.8720607,-0.75174356,0.14884746,0.13121942,0.015308298
20240117 01:22:41,1.116674,0.963170,0.609411,0.109837,0.153490,0.082544,-9.668678,12.489334,-41.168282,8.570086,1.2598221,0.9337914,-0.52910703,0.14464466,0.1518705,-0.043007042
20240117 01:22:41,0.820206,1.007736,0.762813,0.136471,0.186516,0.053780,-9.702347,12.859329,-40.790855,11.705244,1.1443124,1.0076636,-0.246194,0.13664329,0.18438503,-0.09146421
20240117 01:22:41,0.454280,1.026616,1.032654,0.164170,0.211019,0.049519,-9.774445,12.291061,-41.022408,15.003472,1.0557631,1.0212821,0.16757405,0.14643365,0.21190262,-0.12460002
20240117 01:22:41,0.138351,1.005318,1.344679,0.199327,0.220607,0.066564,-9.871262,12.187817,-40.882668,17.184721,1.0318476,0.96706647,0.58621925,0.17946455,0.2242808,-0.14454013
20240117 01:22:41,-0.096536,0.931197,1.455653,0.248333,0.226999,0.092133,-9.571480,12.400692,-41.027550,18.366892,0.92102087,0.8516637,0.8319074,0.22836694,0.23402621,-0.1658637
20240117 01:22:41,-0.289223,0.834706,1.541541,0.304796,0.239783,0.123028,-9.334457,11.948433,-41.129646,18.634777,0.8408923,0.73218703,1.0466778,0.28871447,0.24890178,-0.18807429
20240117 01:22:41,-0.124595,0.937766,1.653156,0.371913,0.229130,0.149661,-9.606956,11.828724,-40.722633,17.245037,1.0671406,0.8765221,0.9948618,0.35842314,0.23602864,-0.21483782
20240117 01:22:41,0.197064,1.210685,1.566265,0.434769,0.204627,0.154988,-9.281700,11.192806,-40.677895,13.806834,1.3015928,1.2102048,0.67073405,0.40450212,0.20470649,-0.2575832
20240117 01:22:41,0.391879,1.311889,1.283034,0.463533,0.187581,0.137943,-9.212173,11.202888,-41.079765,13.123246,1.2323757,1.316271,0.32707024,0.4086801,0.18634555,-0.29022223
20240117 01:22:41,0.431684,1.177935,0.843896,0.426246,0.198235,0.095329,-9.424103,10.998238,-41.068520,15.380917,0.8996348,1.1669518,-0.012971699,0.3408951,0.20372197,-0.3032891
20240117 01:22:41,0.203165,1.096206,0.686320,0.309058,0.207823,0.047388,-9.169151,10.736019,-41.182838,16.570465,0.61229336,1.0734912,0.06413695,0.22530603,0.21608023,-0.24665503
20240117 01:22:41,-0.150765,1.147756,0.916052,0.137536,0.155621,0.023950,-8.947487,10.651909,-40.639259,19.593151,0.4987896,1.0601466,0.42770645,0.09618653,0.16224629,-0.12317016
20240117 01:22:41,-0.514791,1.017119,1.222198,-0.058488,0.013929,0.039931,-9.248413,11.014694,-41.335777,22.401274,0.4218095,0.8316637,0.8839822,-0.012850417,0.0040257825,0.06422424
20240117 01:22:41,-0.904240,0.505105,1.547726,-0.270492,-0.169310,0.083610,-9.450996,10.713181,-41.050179,25.116684,0.31646544,0.215856,1.4853702,-0.12361941,-0.20904195,0.29201338
20240117 01:22:41,-1.004570,-0.202743,2.018640,-0.447340,-0.387707,0.115570,-9.908539,10.673882,-40.650261,25.607038,0.43396235,-0.47861093,2.1257858,-0.25341412,-0.4424282,0.48766717
20240117 01:22:41,-0.853171,-0.709778,2.275042,-0.533633,-0.597580,0.118766,-9.811340,10.585243,-40.509514,25.3868,0.7121579,-0.9701395,2.4039526,-0.31225818,-0.6577081,0.60972124
20240117 01:22:41,-0.776908,-1.199447,2.169845,-0.514457,-0.715834,0.114505,-10.375038,10.539566,-40.244209,26.139427,0.6649806,-1.4121283,2.4793582,-0.3107924,-0.7685095,0.63637596
20240117 01:22:41,-0.637111,-1.656909,1.932174,-0.404726,-0.724357,0.097459,-11.115196,10.861206,-40.272575,26.250269,0.6247021,-1.8087363,2.4064684,-0.24336576,-0.7598675,0.5636094
20240117 01:22:41,-0.555221,-1.918324,1.583424,-0.219355,-0.636998,0.079348,-10.884949,11.064003,-40.015572,24.702011,0.5123683,-2.025389,2.1678834,-0.10753173,-0.65387124,0.40311757
20240117 01:22:41,-0.374994,-1.833509,1.245969,0.008629,-0.488915,0.080414,-11.121590,11.324375,-39.633003,22.302156,0.484145,-1.8847858,1.7157991,0.06910814,-0.49034718,0.20519342
20240117 01:22:41,-0.131683,-1.804964,0.747704,0.250463,-0.271584,0.074022,-11.326744,10.464668,-39.980843,20.47158,0.37681508,-1.8164326,1.1336946,0.2468682,-0.26829574,-0.02337351
20240117 01:22:41,0.069337,-1.761107,0.347486,0.469925,-0.040403,0.049519,-11.600014,10.728737,-40.134773,18.28425,0.26873064,-1.7597433,0.6287138,0.3904541,-0.042901,-0.25807294
20240117 01:22:41,0.198344,-1.592308,-0.062245,0.633989,0.168405,0.021820,-11.380920,10.086441,-40.224648,16.649757,0.07750888,-1.5958991,0.15046579,0.476664,0.15897042,-0.45696604
20240117 01:22:41,0.313552,-1.306592,-0.414211,0.727739,0.335665,-0.012271,-11.168983,10.291088,-40.235893,15.057411,-0.119375676,-1.322548,-0.2705152,0.4955638,0.31921577,-0.5995373
20240117 01:22:41,0.292773,-1.009254,-0.725835,0.739458,0.441134,-0.052755,-11.028770,9.735580,-40.198235,15.676566,-0.37730995,-1.0204272,-0.49861848,0.4419039,0.43322635,-0.6746405
20240117 01:22:41,0.132481,-0.721057,-0.962735,0.663818,0.490140,-0.086846,-11.409622,8.859413,-40.278801,18.55009,-0.66998565,-0.6984957,-0.5195881,0.32307205,0.50240314,-0.67238176
20240117 01:22:41,-0.039990,-0.491649,-1.153063,0.516800,0.483748,-0.099630,-10.792130,9.475208,-40.580803,19.63814,-0.937198,-0.42723864,-0.49586892,0.18811691,0.5085798,-0.57035446
20240117 01:22:41,-0.243464,-0.340652,-1.428945,0.312254,0.470964,-0.092173,-10.643723,9.398499,-41.110191,22.758575,-1.277725,-0.19938394,-0.45302853,0.045153998,0.4995901,-0.40792194
20240117 01:22:41,-0.476739,-0.298136,-1.502768,0.073616,0.475225,-0.063408,-10.511703,8.364193,-40.505486,26.522953,-1.4425237,-0.10887185,-0.2854696,-0.084323645,0.48438668,-0.2118899
20240117 01:22:41,-0.764383,-0.290936,-1.235869,-0.158630,0.465637,-0.016533,-10.439987,9.124348,-40.554390,29.24839,-1.3653034,-0.15551864,0.059423804,-0.19526464,0.43353873,-0.015956864
20240117 01:22:41,-1.056380,-0.319995,-0.804996,-0.353589,0.434742,0.052715,-10.599930,8.547855,-40.652321,32.228554,-1.2031752,-0.32104868,0.49303827,-0.27519023,0.34768996,0.15459988
20240117 01:22:41,-1.369422,-0.356850,-0.350712,-0.492084,0.411304,0.145400,-10.051979,9.153564,-40.552437,32.779778,-1.0933203,-0.5293597,0.9468694,-0.31353202,0.2699658,0.2973497
20240117 01:22:41,-1.479785,-0.412425,0.110061,-0.561332,0.393193,0.253000,-10.343559,9.419491,-40.974617,32.22411,-0.88465464,-0.69040096,1.2746633,-0.29289407,0.22907773,0.4033367
20240117 01:22:41,-1.300086,-0.572556,0.460887,-0.554940,0.376148,0.347816,-10.185791,9.245907,-41.229652,30.0612,-0.5494946,-0.8355998,1.3914059,-0.22691515,0.22592334,0.46305686
20240117 01:22:41,-1.104040,-0.764784,0.690621,-0.498476,0.368690,0.400018,-10.086800,10.099236,-41.016426,28.078123,-0.27257535,-0.99397326,1.4587209,-0.15554017,0.24113142,0.46635005
20240117 01:22:41,-0.907241,-0.946356,0.843537,-0.412183,0.354841,0.423456,-9.804184,9.738293,-40.588142,26.529625,-0.044925988,-1.1334729,1.4842162,-0.07702696,0.2553438,0.43592736
20240117 01:22:41,-0.706001,-1.083204,0.893038,-0.298191,0.328207,0.429848,-9.680092,9.934715,-40.465752,24.64494,0.123033464,-1.2215875,1.421057,0.018434703,0.25831306,0.38625285
20240117 01:22:41,-0.524045,-1.134143,0.817343,-0.167153,0.285593,0.422391,-9.661781,9.932865,-40.197517,23.375332,0.21953332,-1.2336377,1.2508049,0.12637822,0.23741452,0.316925
20240117 01:22:41,-0.404410,-1.093034,0.471700,-0.038246,0.245110,0.413868,-9.670746,9.837845,-40.191399,22.378536,0.100624055,-1.1521883,0.9001031,0.23399079,0.21101956,0.23828694
20240117 01:22:41,-0.272591,-1.009783,-0.031480,0.058701,0.217411,0.414933,-9.467773,9.947475,-40.196541,20.455904,-0.14643939,-1.0207775,0.4208208,0.32343036,0.1931917,0.17552169
20240117 01:22:41,-0.106984,-0.920491,-0.632228,0.116229,0.218476,0.424521,-8.982574,9.888050,-40.053856,17.49184,-0.5059,-0.892804,-0.12997615,0.38756582,0.20247895,0.13129523
20240117 01:22:41,0.062862,-0.767324,-1.230557,0.121556,0.248306,0.431979,-9.582901,9.846073,-40.325035,15.967907,-0.9246965,-0.73519135,-0.6358067,0.41166693,0.23973067,0.11205907
20240117 01:22:41,0.229273,-0.697644,-1.703551,0.074681,0.311162,0.434109,-9.088730,9.881672,-40.188469,12.795887,-1.2728229,-0.70898783,-1.0476202,0.4010722,0.3134848,0.14077562
20240117 01:22:41,0.399788,-0.648188,-1.868674,-0.008416,0.378278,0.424521,-9.124207,9.309704,-39.883537,11.537323,-1.3267914,-0.7051219,-1.2958674,0.35442296,0.38957074,0.20032787
20240117 01:22:41,0.498192,-0.660168,-1.714506,-0.092579,0.400651,0.396822,-8.825577,10.098251,-40.869835,9.82125,-1.1157051,-0.7421496,-1.3320322,0.2815032,0.41866297,0.2650151
20240117 01:22:41,0.544252,-0.707526,-1.442278,-0.154369,0.370821,0.353143,-9.000893,9.889900,-40.322105,10.611788,-0.81575084,-0.7747487,-1.2266197,0.19378042,0.3876763,0.2942507
20240117 01:22:41,0.555204,-0.846690,-1.143794,-0.184199,0.298377,0.296679,-8.489174,10.307430,-40.478233,9.802705,-0.54501235,-0.9047945,-1.0585947,0.11830396,0.3146024,0.29661322
20240117 01:22:41,0.512761,-0.890612,-0.888578,-0.187395,0.203561,0.234889,-8.619270,10.382290,-39.680580,11.0749235,-0.34699038,-0.92591584,-0.84889495,0.05643376,0.21414346,0.2672246
20240117 01:22:41,0.464073,-0.934268,-0.741761,-0.171414,0.108745,0.170968,-8.763863,9.437645,-40.424187,11.918575,-0.25892437,-0.9563776,-0.7013688,0.014510363,0.11499913,0.22429499
20240117 01:22:41,0.404340,-0.802120,-0.689606,-0.138389,0.024583,0.123028,-9.070801,10.071712,-40.200691,13.436937,-0.2549951,-0.8071213,-0.6234362,0.0011915639,0.02575719,0.17917162
20240117 01:22:41,0.249901,-0.615005,-0.776235,-0.104298,-0.016966,0.093198,-8.798302,10.191418,-40.607719,13.636711,-0.43374884,-0.6084907,-0.58141017,0.005239308,-0.018151209,0.1406532
20240117 01:22:41,0.160058,-0.301383,-0.860324,-0.076599,-0.015900,0.092133,-8.956062,10.364998,-40.352669,14.305453,-0.5720719,-0.2873525,-0.59576154,0.02513044,-0.0180594,0.11785978
20240117 01:22:41,0.120920,-0.119359,-0.951820,-0.060618,0.018191,0.109178,-8.860023,10.852028,-41.053368,13.760471,-0.67719156,-0.10545428,-0.64392614,0.04901457,0.016114904,0.11018325
20240117 01:22:41,0.140477,-0.012544,-0.860593,-0.070206,0.065066,0.124093,-8.638351,10.767918,-40.509773,12.856242,-0.5864661,-0.010196938,-0.63011444,0.053344563,0.06463158,0.1212177
20240117 01:22:41,0.274324,0.013693,-0.543461,-0.093644,0.084242,0.120897,-8.604683,10.397919,-40.887199,11.208701,-0.23575108,-0.0017056251,-0.55610555,0.033037476,0.0881884,0.13755882
20240117 01:22:41,0.457058,-0.068528,-0.130824,-0.112820,0.056543,0.082544,-8.788307,11.612186,-41.102272,10.09307,0.21374276,-0.08796556,-0.4139222,-0.014662031,0.06305654,0.13117766
20240117 01:22:41,0.575671,-0.201968,0.320192,-0.120278,-0.011639,0.009035,-8.842094,11.042068,-41.065590,9.758464,0.62473404,-0.21236141,-0.15924057,-0.07922664,-0.006187857,0.092684
20240117 01:22:41,0.678058,-0.155282,0.733709,-0.113886,-0.110716,-0.083650,-9.184509,11.104168,-40.537163,10.11177,0.98897225,-0.15381038,0.07294315,-0.14503816,-0.10886211,0.033262756
20240117 01:22:41,0.723114,-0.056564,0.996076,-0.093644,-0.209794,-0.185923,-9.493637,10.988159,-40.666634,10.815303,1.2073883,-0.046148,0.21446174,-0.20494956,-0.2131645,-0.03873788
20240117 01:22:41,0.597238,0.210290,1.132699,-0.058488,-0.264126,-0.273282,-9.526924,11.166271,-40.008736,12.5677395,1.2229084,0.22341155,0.34275067,-0.23915875,-0.2693949,-0.109140396
20240117 01:22:41,0.407789,0.490792,1.271753,-0.004155,-0.271584,-0.326549,-9.775871,11.157211,-40.814445,14.668205,1.1885309,0.49307907,0.49439448,-0.23442,-0.27243724,-0.17192397
20240117 01:22:41,0.090523,0.864625,1.414895,0.076812,-0.239623,-0.338268,-9.635651,10.601704,-40.776787,16.592129,1.0577698,0.8360305,0.7091151,-0.18348387,-0.23073283,-0.2334928
20240117 01:22:41,-0.139167,1.219836,1.530663,0.185477,-0.157592,-0.308438,-9.748589,11.250378,-40.552315,18.297081,0.9615912,1.1459444,0.83670664,-0.089370444,-0.13642937,-0.30199274
20240117 01:22:41,-0.329117,1.385032,1.575620,0.296273,-0.052122,-0.254106,-9.802765,10.872150,-40.796104,19.588867,0.84069824,1.2718405,0.9377948,0.020865351,-0.02123344,-0.3679232
20240117 01:22:41,-0.448863,1.394335,1.638198,0.390024,0.039498,-0.197642,-10.341370,10.169563,-40.621635,21.20865,0.78128743,1.2596774,1.0315299,0.12499659,0.07508439,-0.41903704
20240117 01:22:41,-0.420851,1.266573,1.750261,0.455010,0.089569,-0.159290,-9.952980,10.006893,-40.339211,19.98743,0.885192,1.1534084,1.1498652,0.20124243,0.1201695,-0.45083216
20240117 01:22:41,-0.151426,1.250085,2.065146,0.502951,0.070393,-0.147571,-10.148788,9.050323,-40.412682,18.468044,1.3156315,1.1943462,1.2157462,0.25127673,0.086563155,-0.4695058
20240117 01:22:41,0.200281,1.302343,2.325403,0.549826,-0.038273,-0.164616,-10.500549,9.209290,-40.158623,16.00798,1.7933115,1.3199501,1.1882389,0.27319852,-0.044242654,-0.49257556
20240117 01:22:41,0.650326,1.308781,2.236701,0.578591,-0.182095,-0.220014,-10.572266,8.449135,-40.109718,13.365224,2.1021156,1.3709198,0.84785885,0.24107088,-0.21344179,-0.53344876
20240117 01:22:41,0.865782,1.187825,1.948539,0.564741,-0.299283,-0.311634,-10.872818,8.620029,-40.525780,12.513301,2.0717554,1.2435572,0.49250287,0.14371766,-0.34190726,-0.5758308
20240117 01:22:41,0.908791,1.274844,1.580224,0.506147,-0.387707,-0.405385,-10.732605,8.064526,-40.488121,12.200205,1.8569746,1.31438,0.1331588,-8.6545944E-4,-0.43081754,-0.58921945
20240117 01:22:41,0.762894,1.634327,0.923023,0.406004,-0.373857,-0.460783,-11.077591,7.568443,-40.593147,14.049681,1.2493204,1.6449816,-0.3192212,-0.142838,-0.39880753,-0.53813136
20240117 01:22:41,0.427484,1.906874,0.288157,0.265378,-0.227905,-0.444803,-11.086555,7.473423,-40.587029,17.72926,0.44208968,1.9064003,-0.5256581,-0.21503335,-0.2160015,-0.418398
20240117 01:22:41,0.046611,1.676550,0.050636,0.100249,0.004341,-0.377686,-11.262245,7.456963,-40.319756,21.495268,-0.03728308,1.6704564,-0.36597165,-0.24955928,0.032544646,-0.28589052
20240117 01:22:41,-0.201639,1.156029,0.198728,-0.065945,0.244045,-0.299915,-10.998703,7.481647,-40.720650,23.184883,-0.065800935,1.1214937,-0.017020784,-0.29159626,0.26206136,-0.18492316
20240117 01:22:41,-0.357680,0.407789,1.076100,-0.203375,0.361233,-0.229602,-10.874619,7.678066,-40.598274,25.166925,0.4486067,0.29417983,0.8260031,-0.33233535,0.36027583,-0.12096338
20240117 01:22:41,-0.439812,-0.431370,2.119183,-0.274753,0.263221,-0.196577,-11.279404,6.883144,-39.746590,28.013916,0.9543531,-0.59633446,1.9159294,-0.35338077,0.25166267,-0.069897614
20240117 01:22:41,-0.382160,-1.183694,2.784407,-0.277949,-0.002051,-0.209361,-11.623352,7.712799,-40.340050,28.174067,1.2479669,-1.332354,2.733511,-0.3466805,-0.01189085,-0.0021168739
20240117 01:22:41,-0.111862,-1.750602,3.024393,-0.222551,-0.348289,-0.263694,-11.447281,7.537373,-40.326851,26.398396,1.4995887,-1.8269575,3.048884,-0.3177945,-0.3505235,0.044619948
20240117 01:22:41,0.250565,-2.057038,2.719736,-0.123474,-0.654044,-0.359575,-11.623352,7.712799,-40.340050,23.299055,1.6575749,-2.0674129,2.6804519,-0.29170647,-0.6532942,0.00439322
20240117 01:22:41,0.575593,-1.938591,2.008910,-0.011612,-0.808519,-0.454391,-12.390022,7.557491,-40.069603,21.127512,1.6141837,-1.9219962,1.7524164,-0.28544423,-0.8141434,-0.10072103
20240117 01:22:41,0.745927,-1.576385,1.233894,0.103445,-0.803193,-0.504462,-12.673676,6.592686,-40.009453,18.860832,1.3097203,-1.5632341,0.8124624,-0.26901627,-0.8227826,-0.2335414
20240117 01:22:41,0.968836,-1.272669,0.634729,0.218503,-0.691331,-0.518312,-12.998543,7.036716,-39.773720,15.895035,1.0617778,-1.2920378,0.038449377,-0.23528183,-0.7344277,-0.37503815
20240117 01:22:41,1.145369,-1.065241,0.158416,0.311188,-0.524071,-0.522573,-13.137993,7.208447,-39.250435,13.902426,0.82439715,-1.1391109,-0.53099287,-0.19684613,-0.59018433,-0.48918363
20240117 01:22:41,1.246884,-0.963934,-0.264184,0.358063,-0.340831,-0.524704,-13.528183,6.429157,-39.605370,13.240159,0.5548572,-1.093248,-0.9438874,-0.17492194,-0.4213871,-0.556316
20240117 01:22:42,1.264539,-0.962878,-0.476723,0.349541,-0.178899,-0.535357,-13.573776,6.337833,-40.135735,13.203027,0.39615348,-1.1097972,-1.1061357,-0.18067528,-0.2592244,-0.58060974
20240117 01:22:42,1.199590,-0.948264,-0.440950,0.297339,-0.087279,-0.558795,-13.633957,6.230885,-39.459496,15.562596,0.40636054,-1.0579487,-1.004891,-0.22022815,-0.14903969,-0.56565315
20240117 01:22:42,1.021608,-0.991535,-0.314075,0.211045,-0.080887,-0.587559,-13.625381,6.517792,-39.746086,18.461246,0.42115998,-1.0411317,-0.74048793,-0.29177904,-0.11260862,-0.5154758
20240117 01:22:42,0.700118,-1.026147,-0.211195,0.111968,-0.116043,-0.608866,-13.855629,6.314995,-40.003075,22.816385,0.32466072,-1.0215793,-0.3770386,-0.37118086,-0.1122645,-0.4322011
20240117 01:22:42,0.351887,-0.882124,-0.097057,0.020348,-0.154396,-0.599278,-13.961021,5.924839,-39.576744,27.394102,0.21373823,-0.85797536,-0.04111709,-0.41689634,-0.12192714,-0.32807982
20240117 01:22:42,0.003078,-0.747217,0.029020,-0.047834,-0.185291,-0.554534,-13.988686,6.023552,-40.119347,30.553465,0.09092583,-0.7438161,0.2739508,-0.41812214,-0.13761185,-0.22657159
20240117 01:22:42,-0.247878,-0.699787,0.168928,-0.089383,-0.208728,-0.479959,-14.473495,5.891090,-39.981560,33.919643,0.02907373,-0.73794407,0.5467988,-0.37883466,-0.16035822,-0.1312683
20240117 01:22:42,-0.474262,-0.748698,0.286582,-0.102167,-0.216186,-0.397927,-14.429710,5.040443,-39.523689,36.2137,-0.033585176,-0.8348815,0.8104943,-0.3219727,-0.17339642,-0.062822625
20240117 01:22:42,-0.563556,-0.747460,0.341340,-0.080860,-0.220447,-0.300981,-14.445831,5.792370,-39.438942,36.505806,-0.061263084,-0.8570005,0.9071702,-0.2356322,-0.18636402,-0.021458834
20240117 01:22:42,-0.562681,-0.873137,0.290593,-0.026527,-0.241754,-0.206165,-14.659958,4.837643,-39.780663,36.84973,-0.08303641,-0.970103,0.9329021,-0.13002019,-0.21402694,0.0045412406
20240117 01:22:42,-0.484173,-0.976551,0.081673,0.037394,-0.273715,-0.123068,-14.763931,5.581341,-39.562309,36.05855,-0.15612589,-1.0323275,0.7944924,-0.024844948,-0.24860348,0.016513303
20240117 01:22:42,-0.356923,-1.043709,-0.234503,0.099184,-0.329113,-0.057016,-14.454796,5.697350,-39.432823,33.61432,-0.28864545,-1.0410626,0.5214483,0.063928396,-0.30756402,0.017404247
20240117 01:22:42,-0.099482,-1.155274,-0.734927,0.123687,-0.361073,0.003709,-15.001984,4.707855,-38.971764,32.233463,-0.5131699,-1.086489,0.072237104,0.116368435,-0.34899887,0.03257634
20240117 01:22:42,0.163371,-1.322839,-1.103986,0.113033,-0.378119,0.038865,-15.036041,5.269741,-38.874825,28.175941,-0.6831418,-1.2598972,-0.34749928,0.12014475,-0.3747359,0.04776028
20240117 01:22:42,0.465582,-1.450929,-1.360883,0.088530,-0.394099,0.039931,-15.620239,4.475842,-39.230721,25.316343,-0.7685387,-1.4445826,-0.7441517,0.08785102,-0.39398256,0.058333717
20240117 01:22:42,0.704507,-1.459762,-1.497295,0.059766,-0.390903,0.020754,-15.363487,5.155586,-39.272545,21.486618,-0.80070215,-1.5279622,-1.0827461,0.039688516,-0.39141005,0.052278556
20240117 01:22:42,0.902266,-1.416517,-1.568305,0.036328,-0.354681,-0.011206,-15.627022,5.130894,-38.871635,19.568047,-0.78562415,-1.5579603,-1.3261214,-0.009769747,-0.35602462,0.036864836
20240117 01:22:42,1.001986,-1.335993,-1.592553,0.025675,-0.288629,-0.046363,-15.638939,4.669575,-39.779442,17.632908,-0.7618532,-1.5281966,-1.4721245,-0.045455314,-0.2925741,0.005888939
20240117 01:22:42,1.087177,-1.267110,-1.482841,0.040590,-0.203402,-0.080454,-16.050888,4.721600,-38.849144,18.616686,-0.6282112,-1.4566908,-1.4707808,-0.05668199,-0.21172498,-0.039195802
20240117 01:22:42,0.991304,-1.070490,-1.414320,0.074681,-0.102194,-0.098565,-16.299065,4.328762,-39.093910,20.98304,-0.5974488,-1.1965473,-1.35537,-0.039928492,-0.11115236,-0.09300502
20240117 01:22:42,0.816952,-0.924459,-1.323367,0.123687,0.002211,-0.091107,-15.902473,4.644886,-39.378532,22.881968,-0.6012764,-0.97139966,-1.1679522,2.9666722E-4,-0.0022766625,-0.1498704
20240117 01:22:42,0.648209,-0.810742,-1.237854,0.173758,0.084242,-0.052755,-15.620239,4.475842,-39.230721,23.543947,-0.62020314,-0.83276045,-1.0033578,0.061984744,0.08189661,-0.18847236
20240117 01:22:42,0.641755,-0.810268,-1.232357,0.194000,0.141771,-0.013337,-15.743950,4.087528,-39.072639,23.225607,-0.621619,-0.8487034,-1.0005744,0.108576246,0.13813284,-0.19623761
20240117 01:22:42,0.771793,-0.908636,-1.113439,0.175889,0.151359,0.006905,-15.920403,4.454849,-39.366310,21.813742,-0.44200483,-0.9800059,-1.0365826,0.119879074,0.14562951,-0.16941625
20240117 01:22:42,0.912216,-1.036245,-1.056556,0.130079,0.121530,-0.000553,-15.902092,4.452999,-39.098076,20.439367,-0.32368624,-1.1424646,-1.1051394,0.08776209,0.11478825,-0.12866275
20240117 01:22:42,0.998496,-0.997677,-0.958481,0.066158,0.072524,-0.020794,-15.610512,4.187080,-38.675896,20.572262,-0.18089545,-1.0990567,-1.121155,0.029476034,0.06793855,-0.07973859
20240117 01:22:42,0.984705,-0.837834,-0.736893,-0.000959,-0.005247,-0.044232,-15.971626,4.442921,-38.696190,21.371998,0.003057599,-0.92072666,-1.0047088,-0.03515977,-0.0076395283,-0.023997994
