Timestamp,linacce_x,linacce_y,linacce_z,gyro_x,gyro_y,gyro_z,X-magnetometer,Y-magnetometer,Z-magnetometer,Yaw, worldXAccel,worldYAccel,worldZAccel,worldXgyro,worldYgyro,worldZgyro
20240215 11:52:35,-0.164437,-0.282278,0.554581,-0.062258,0.010404,0.027515,-0.679066,0.161907,-30.511032,16.54147,0.5235331,-0.41782433,0.350783,0.0029614158,-0.0014033602,0.066473104
20240215 11:52:35,-0.175377,0.116127,0.124014,-0.114160,-0.016215,-0.013255,-1.138794,-0.627464,-30.464081,8.30043,0.0054164603,0.098981336,0.20489326,-0.06970074,-0.020251133,0.09173563
20240215 11:52:35,0.004870,0.072333,0.209304,-0.106703,-0.030064,-0.002602,-0.591610,0.362026,-30.925140,6.2867,0.17520349,0.0590386,0.10157812,-0.056659084,-0.034028478,0.09097419
20240215 11:52:35,0.116865,-0.091761,0.280081,-0.083265,-0.039653,-0.000471,-0.821472,-0.032665,-30.901672,5.2122407,0.30268982,-0.100375496,0.055258796,-0.043334015,-0.04182324,0.07198064
20240215 11:52:35,0.193402,-0.074506,0.268905,-0.050239,-0.041783,-0.010059,-0.588268,0.536438,-29.730759,4.2232113,0.3330664,-0.0798858,-0.018907696,-0.03361647,-0.042530276,0.03891136
20240215 11:52:35,0.155767,-0.035696,0.154307,-0.016148,-0.040718,-0.020713,-0.573296,0.360180,-30.656891,5.4266353,0.21461754,-0.038766596,-0.050733924,-0.023889165,-0.040060475,0.0050014267
20240215 11:52:35,0.091579,-0.034630,0.053658,0.003028,-0.036457,-0.024974,-0.784073,-0.420139,-29.804230,6.7951345,0.09494362,-0.0344943,-0.049547933,-0.017532786,-0.034628168,-0.013045751
20240215 11:52:35,0.038426,0.001381,-0.095648,0.007289,-0.025803,-0.024974,-0.908165,-0.616554,-29.926620,7.0021725,-0.06304842,0.0089195995,-0.081165135,-0.016175969,-0.02386542,-0.01721427
20240215 11:52:35,0.031365,0.076928,-0.079459,0.003028,-0.028999,-0.027105,-0.432308,-0.579105,-30.058289,6.814964,-0.059124734,0.08405951,-0.07082161,-0.019748801,-0.026686452,-0.014248464
20240215 11:52:35,0.012850,0.144261,-0.193834,-0.008691,-0.020476,-0.022843,-0.732857,-0.408211,-30.474350,7.4583974,-0.17300333,0.15920274,-0.114774294,-0.022509765,-0.019012019,-0.002247179
20240215 11:52:35,0.004205,0.104667,-0.172699,-0.022540,-0.006627,-0.022843,-0.494026,0.081497,-30.503952,6.7338176,-0.1550423,0.117343456,-0.09495525,-0.030455468,-0.0058606905,0.008677055
20240215 11:52:35,0.001077,0.094643,-0.119849,-0.026802,0.008288,-0.022843,-0.881271,-0.331497,-29.944962,7.511702,-0.10944432,0.10297299,-0.0669953,-0.033759516,0.00877834,0.01120536
20240215 11:52:35,0.031977,0.075445,-0.032528,-0.018279,0.030660,-0.020713,-0.863338,-0.141457,-29.957184,7.55413,-0.017202938,0.07891696,-0.04894835,-0.0292931,0.031275578,0.0032883957
20240215 11:52:35,-0.003045,0.084229,0.030810,-0.003364,0.038118,-0.016451,-0.881653,-0.139606,-30.225418,7.624961,0.0186929,0.08153626,0.012488594,-0.018607842,0.03903806,-0.007994918
20240215 11:52:35,0.021346,0.056706,-0.026525,0.001963,0.024268,-0.013255,-0.881271,-0.331497,-29.944962,7.6805334,-0.016132109,0.059377227,-0.035569496,-0.012175395,0.025240753,-0.009996736
20240215 11:52:35,0.035137,0.008567,-0.080352,-0.007626,0.009353,-0.018582,-0.818901,0.525528,-30.268219,7.271491,-0.051623188,0.01579154,-0.07138882,-0.020490153,0.010329876,-0.0034296736
20240215 11:52:35,-0.001383,0.006792,-0.027916,-0.015083,0.000831,-0.022843,-0.600574,0.267006,-30.919022,8.114443,-0.02518154,0.009155282,-0.013413656,-0.027311757,0.0020557777,0.0013595624
20240215 11:52:35,-0.077227,0.069020,-0.019324,-0.009756,0.008288,-0.018582,-0.715309,-0.026283,-30.767059,8.762914,-0.062177833,0.06616899,0.051541466,-0.021643747,0.009440541,-0.0015451168
20240215 11:52:35,-0.111758,0.103719,0.009130,0.007289,0.023203,-0.011125,-0.722088,0.628777,-30.407974,8.784696,-0.058915116,0.095974505,0.0927062,-0.007997146,0.02452216,-0.013677078
20240215 11:52:35,-0.062884,0.080025,0.009849,0.016877,0.031726,-0.002602,-0.442814,0.093426,-31.174072,7.4113016,-0.030361122,0.07570098,0.053790342,0.0037359218,0.032630615,-0.01791894
20240215 11:52:35,-0.019984,0.070953,0.006732,0.022204,0.029595,-0.003667,-0.669067,1.582668,-31.005585,7.828621,-0.01050647,0.06901027,0.01566098,0.005653863,0.03088926,-0.023007724
20240215 11:52:35,-0.003654,0.115996,0.015523,0.019008,0.012549,-0.001536,-0.627468,-0.018055,-30.900696,7.4086146,0.002356966,0.1141198,0.0033743843,0.0072854767,0.013494303,-0.017994454
20240215 11:52:35,0.075149,0.058859,-0.021096,0.000897,-0.009823,-0.002602,-0.969498,-0.147835,-30.091797,6.5168886,0.016683955,0.06242526,-0.078778304,-0.0012264724,-0.009624855,-0.0015192768
20240215 11:52:35,0.156161,-0.031855,-0.033177,-0.023606,-0.027934,-0.012190,-0.695194,0.913834,-30.426315,5.4050193,0.05312495,-0.025327133,-0.14952013,-0.021105302,-0.027980218,0.015412634
20240215 11:52:35,0.127172,-0.046399,-0.014039,-0.036390,-0.031130,-0.021778,-0.811737,-0.321419,-30.346832,6.5186543,0.0561434,-0.040843934,-0.11355221,-0.03546085,-0.03105425,0.021912294
20240215 11:52:35,0.064004,-0.041411,0.051749,-0.027867,-0.008757,-0.017517,-0.475330,-0.112240,-29.955231,7.0536656,0.08058049,-0.042180236,-0.024903553,-0.028806966,-0.008696017,0.015177542
20240215 11:52:35,-0.051657,-0.044243,0.231240,0.001963,0.006157,-0.013255,-0.917130,-0.711575,-29.920502,9.052904,0.17052713,-0.06653994,0.16951492,-0.0106181875,0.0073630465,-0.009178085
20240215 11:52:35,-0.080157,-0.050953,0.214048,0.040315,0.013615,-0.003667,-0.898815,-0.713421,-29.652252,9.539626,0.14299706,-0.075091906,0.18406093,0.016948488,0.016197067,-0.037329797
20240215 11:52:35,-0.094228,-0.021880,0.112973,0.076537,0.029595,0.005921,-0.732857,-0.408211,-30.474350,8.958342,0.048961736,-0.037537545,0.14028598,0.042082112,0.03318963,-0.064731516
20240215 11:52:35,-0.067844,0.004826,0.080373,0.096779,0.030660,0.008052,-1.208324,-0.637543,-30.062195,9.353568,0.033351693,-0.0053996136,0.09854795,0.054015934,0.034719955,-0.081504434
20240215 11:52:35,-0.049792,0.061333,-0.097557,0.089321,0.004027,0.000594,-0.607998,-0.595566,-29.791016,8.140524,-0.114453085,0.067201704,-0.0081811845,0.043930866,0.00842091,-0.0778507
20240215 11:52:35,0.005565,0.098497,-0.342261,0.049903,-0.019411,-0.011125,-0.687267,-0.316891,-29.943985,7.2154126,-0.3058419,0.12479413,-0.17049219,0.015201099,-0.016420802,-0.048080053
20240215 11:52:35,0.166682,0.042923,-0.539288,-0.008691,-0.013019,-0.028170,-0.590069,-0.405529,-29.803253,4.697111,-0.40273824,0.071972825,-0.3976391,-0.0283607,-0.011901533,-0.0047618356
20240215 11:52:35,0.263383,0.074398,-0.510929,-0.068350,0.018942,-0.050542,-0.590454,-0.213638,-30.083725,4.962652,-0.32884905,0.10671543,-0.47566515,-0.07770995,0.019602824,0.03567624
20240215 11:52:35,0.115556,0.101027,-0.336555,-0.106703,0.043445,-0.056935,-0.978462,-0.242855,-30.085678,8.323762,-0.24519692,0.1335176,-0.26973575,-0.10491232,0.04306423,0.06290733
20240215 11:52:35,-0.037631,0.043282,-0.119863,-0.113095,0.063686,-0.049477,-0.651405,0.063187,-29.968430,8.8306875,-0.12574899,0.052311093,-0.031586908,-0.106140256,0.06159807,0.06722282
20240215 11:52:35,-0.119624,0.015131,0.076426,-0.090723,0.059425,-0.046281,-0.908550,-0.424667,-30.207077,10.144823,0.00122758,-2.8408878E-4,0.1399135,-0.09245609,0.05809149,0.048479155
20240215 11:52:35,-0.179829,0.054741,0.120321,-0.066220,0.049837,-0.034562,-0.572140,-0.215488,-29.815475,10.403956,2.8049946E-4,0.027743109,0.20998707,-0.069703914,0.048639867,0.03361336
20240215 11:52:35,-0.207421,-0.009362,0.250679,-0.033194,0.025334,-0.017517,-0.739635,0.246849,-30.115265,10.079556,0.10202942,-0.04976504,0.30754685,-0.035021722,0.024790667,0.016666237
20240215 11:52:35,-0.100055,-0.010250,0.194860,-0.005495,0.007223,-0.011125,-0.748215,-0.040062,-29.828674,8.803282,0.11214146,-0.0331475,0.1877769,-0.01293713,0.007868109,-0.0017575077
20240215 11:52:35,-0.012324,-0.017138,0.238976,0.016877,-0.021542,-0.011125,-0.793037,-0.515160,-29.798111,7.6591682,0.19685796,-0.035026435,0.13684776,0.0010789717,-0.01988788,-0.018637283
20240215 11:52:35,0.100753,-0.046371,0.125446,0.036054,-0.056698,-0.016451,-0.739250,0.054958,-29.834793,6.5049243,0.16202025,-0.05029586,-0.01950302,0.008029514,-0.054172948,-0.036016796
20240215 11:52:35,0.123721,-0.037737,-0.065084,0.043511,-0.051371,-0.030301,-0.908550,-0.424667,-30.207077,6.6409407,0.0085430965,-0.029432105,-0.13724054,-0.0011016298,-0.047915768,-0.04975559
20240215 11:52:35,0.176388,0.052911,-0.086228,0.055230,-0.006627,-0.027105,-0.491074,0.447796,-29.590027,5.0093055,0.0111554265,0.062554665,-0.19800396,0.0046011843,-0.0035602741,-0.061036035
20240215 11:52:35,0.292050,0.089460,-0.072542,0.070145,0.075405,-0.007929,-0.687649,-0.125000,-30.224442,4.200696,0.0845778,0.09788286,-0.29115355,0.026603585,0.07705837,-0.067097224
20240215 11:52:35,0.247017,0.058366,0.247675,0.093583,0.109496,-0.005798,-0.635662,-0.496849,-30.333633,4.8421087,0.33716327,0.054078713,-0.08542088,0.03893716,0.11206486,-0.087766334
20240215 11:52:35,0.206026,0.182653,-0.046407,0.104236,0.074340,-0.017517,-0.511955,-0.108540,-30.491714,5.638216,0.04615522,0.19187538,-0.2117177,0.029688857,0.07868423,-0.103446595
20240215 11:52:35,0.148631,0.132318,-0.528985,0.052034,0.059425,-0.032432,-0.687649,-0.125000,-30.224442,7.294833,-0.41612327,0.18088418,-0.374381,-0.010563418,0.06393,-0.06428005
20240215 11:52:35,0.135962,-0.006163,-0.957331,-0.041717,0.057294,-0.064392,-0.669334,-0.126850,-29.956207,7.7460938,-0.8074043,0.08662674,-0.52047426,-0.08086119,0.061111502,0.007917786
20240215 11:52:35,0.107352,-0.125103,-1.168890,-0.155709,0.093516,-0.087830,-0.714546,-0.410061,-30.206100,9.512451,-0.9902008,0.014585108,-0.5777222,-0.1556224,0.094463244,0.097663365
20240215 11:52:35,-0.089913,-0.026207,-0.778078,-0.242002,0.138261,-0.096352,-0.290676,-0.000763,-30.228607,10.364958,-0.71551573,0.06966706,-0.28416157,-0.21737614,0.13210756,0.15551245
20240215 11:52:35,-0.208427,-0.000724,-0.087671,-0.262244,0.129738,-0.082503,-0.572525,-0.023602,-30.095947,12.749665,-0.18317,-0.0067236135,0.13214195,-0.22605765,0.11626868,0.16535869
20240215 11:52:35,-0.493130,-0.004486,0.413105,-0.222826,0.121215,-0.038824,-0.378521,-0.008991,-30.094971,14.482024,0.052599937,-0.12554924,0.6337995,-0.17772533,0.100316204,0.14439945
20240215 11:52:35,-0.547382,-0.122089,0.933993,-0.123748,0.111627,0.017640,-0.351242,0.084179,-29.832840,13.318715,0.42699993,-0.30875653,0.9989732,-0.07574374,0.09445588,0.09408559
20240215 11:52:35,-0.481527,-0.176824,0.981756,-0.008691,0.077536,0.064515,-0.669720,0.065037,-30.236664,14.3239565,0.51538324,-0.3671558,0.9789591,0.03464903,0.066030696,0.032760497
20240215 11:52:35,-0.542472,-0.186764,0.803781,0.079733,0.045575,0.099672,-0.105640,-0.081169,-30.221512,13.853577,0.3529589,-0.36989617,0.9221041,0.1188315,0.038101807,-0.014620401
20240215 11:52:35,-0.457488,-0.224623,0.554634,0.138327,0.004027,0.123109,-0.466751,0.174667,-30.241806,12.695062,0.2263051,-0.34215334,0.7102678,0.17755467,-8.9222565E-5,-0.047389187
20240215 11:52:35,-0.224111,-0.247989,0.333150,0.162830,-0.006627,0.135893,-0.387486,-0.104008,-30.088867,9.965676,0.17969033,-0.29883954,0.3913368,0.20281836,-0.00971563,-0.06164165
20240215 11:52:35,0.004938,-0.124763,0.308610,0.174549,0.011484,0.126305,-0.624512,0.348248,-29.986771,7.841327,0.27240342,-0.14891885,0.1682726,0.19860749,0.010138388,-0.081525855
20240215 11:52:35,0.049594,0.051692,0.306958,0.187333,0.039183,0.110325,-0.414764,-0.197178,-30.350998,7.972837,0.28023642,0.027236065,0.11621502,0.18924779,0.03964361,-0.10318623
20240215 11:52:35,-0.078934,-0.021193,0.218617,0.200117,0.038118,0.095410,0.052124,-0.254753,-30.476563,9.1224785,0.14446433,-0.051906332,0.18296787,0.18169391,0.041153535,-0.123162955
20240215 11:52:35,-0.145212,-0.203705,-0.023759,0.190529,0.031726,0.103933,-0.263783,0.284298,-30.246948,9.055179,-0.07298323,-0.20900753,0.12877753,0.18323135,0.03266826,-0.112698495
20240215 11:52:35,0.093976,-0.155244,-0.056775,0.177745,0.042379,0.101802,-0.460358,-0.288502,-30.881378,5.7200847,0.008980937,-0.14804168,-0.10170947,0.17580879,0.042543326,-0.10275241
20240215 11:52:35,0.299532,0.057900,0.089271,0.185202,0.026399,0.058123,-0.220760,-0.182568,-30.350021,3.0464919,0.22588396,0.0606914,-0.2155385,0.1425055,0.028034234,-0.13154687
20240215 11:52:35,0.269974,0.137396,-0.102200,0.189464,0.016811,0.017640,-0.159428,-0.651287,-30.184830,5.634918,0.03437391,0.15454388,-0.2917447,0.10721813,0.022921316,-0.15722097
20240215 11:52:35,0.087992,0.092838,-0.191697,0.158569,-0.006627,-0.006863,-0.335117,-0.667747,-29.917572,7.5410395,-0.13463949,0.11408066,-0.17332119,0.06974119,0.001793491,-0.14244242
20240215 11:52:35,0.039766,0.022600,-0.443152,0.108497,0.001896,-0.016451,-0.036106,-0.071091,-30.623398,6.887258,-0.37270352,0.065442175,-0.2426921,0.036249235,0.008738833,-0.10359507
20240215 11:52:35,0.088309,0.038637,-0.313725,0.074406,0.022138,-0.020713,-0.310795,-0.940876,-30.569351,6.749178,-0.23439473,0.06746731,-0.22958757,0.015974326,0.026974166,-0.076370396
20240215 11:52:35,0.154120,-0.007966,-0.174792,0.061622,0.038118,-0.032432,-0.574329,-0.965569,-30.168442,7.2203407,-0.074480645,0.012261253,-0.21921949,-5.315263E-4,0.043161396,-0.07183999
20240215 11:52:35,0.061844,-0.107582,-0.064912,0.062687,0.049837,-0.037758,-0.311180,-0.748989,-30.849823,8.192148,-0.014352683,-0.09715842,-0.07804291,-0.0058154743,0.056693975,-0.07654118
20240215 11:52:35,-0.096783,-0.006896,0.060398,0.076537,0.069013,-0.031366,-0.477901,-0.670425,-30.588669,10.472501,0.0030281246,-0.020969525,0.11417623,0.0039399415,0.07754867,-0.08796454
20240215 11:52:35,-0.214931,0.147574,0.213152,0.104236,0.047706,-0.014321,-0.132534,-0.366230,-30.203171,11.118229,0.052901164,0.0982879,0.2766737,0.033587936,0.05757605,-0.10177003
20240215 11:52:35,-0.288943,0.087351,-0.033990,0.124478,0.033856,0.011248,-0.150463,-0.556267,-30.190948,11.762621,-0.18376029,0.06682438,0.2269303,0.065531835,0.04214392,-0.106524974
20240215 11:52:35,-0.186677,0.004222,-0.178570,0.117020,0.041314,0.035751,-0.098476,-0.928120,-30.300140,9.294544,-0.24527538,0.013347797,0.07891643,0.08226552,0.044309996,-0.08894791
20240215 11:52:35,0.020674,0.041317,-0.274855,0.085060,0.029595,0.047470,-0.168392,-0.746307,-30.178726,6.9728127,-0.23462258,0.06631374,-0.14993097,0.07930545,0.029299602,-0.054255307
20240215 11:52:35,0.173440,-0.038726,-0.277986,0.042446,0.001896,0.042143,-0.574711,-0.773678,-30.448929,5.787788,-0.16091764,-0.016045617,-0.28123307,0.05694215,6.993823E-4,-0.01785204
20240215 11:52:35,0.311472,-0.001937,-0.282411,-0.005495,-0.014084,0.020836,0.034576,-0.636681,-30.183853,3.156946,-0.10170564,0.01753477,-0.4076056,0.016368521,-0.015098048,0.015024616
20240215 11:52:35,0.292467,0.034176,-0.122619,-0.037455,-0.005561,-0.005798,-0.434879,-1.137295,-30.691742,5.365056,0.035119377,0.050558023,-0.31629002,-0.023118224,-0.006426359,0.030045955
20240215 11:52:35,0.153385,0.035446,0.114789,-0.040651,-0.007692,-0.019647,0.131390,-0.533428,-30.323624,5.5393558,0.17383996,0.03351093,-0.07567023,-0.036957987,-0.007989544,0.025426965
20240215 11:52:35,0.038497,-0.048473,0.196805,-0.026802,-0.023672,-0.030301,-0.504799,-0.955486,-30.570328,8.139048,0.19191416,-0.06355243,0.07085171,-0.037547275,-0.022292363,0.009255799
20240215 11:52:35,0.032361,-0.115168,0.236671,0.003028,-0.026868,-0.033497,-0.098862,-0.736229,-30.580597,6.5724134,0.22715183,-0.13192508,0.10175213,-0.024750676,-0.023939168,-0.018320616
20240215 11:52:35,0.059163,-0.130097,0.280833,0.036054,-0.031130,-0.037758,-0.344082,-0.762768,-29.911469,7.234801,0.28004727,-0.1493023,0.102962255,-0.01082338,-0.026161581,-0.048239
20240215 11:52:35,0.043303,-0.063818,0.218060,0.070145,-0.027934,-0.036693,-0.028557,-1.109928,-30.421539,7.4193177,0.21441965,-0.0812931,0.07741219,0.007053286,-0.020499133,-0.077047616
20240215 11:52:35,-0.007593,-0.054276,0.043171,0.088256,-0.014084,-0.028170,-0.080162,-0.929970,-30.031891,7.6310844,0.038708888,-0.05851406,0.031398393,0.020837048,-0.006431303,-0.08955158
20240215 11:52:35,-0.015577,-0.012422,-0.108671,0.085060,-0.000235,-0.008994,-0.292480,-0.942726,-30.301117,8.138176,-0.101003364,-0.002421623,-0.03704248,0.032945316,0.005257816,-0.07890585
20240215 11:52:35,0.110815,-0.004100,-0.222936,0.054165,0.009353,0.006986,-0.362396,-0.760918,-30.179703,6.619002,-0.1419523,0.017838169,-0.20283514,0.031239264,0.011053601,-0.04480208
20240215 11:52:35,0.208206,-0.077050,-0.232091,0.014747,0.005092,0.001660,-0.389671,-0.854088,-30.441833,5.1625314,-0.100163,-0.05710358,-0.28982818,0.00818314,0.0054438845,-0.012400662
20240215 11:52:35,0.185950,-0.068961,-0.201540,-0.017214,0.013615,-0.012190,-0.328724,-1.130913,-30.557129,5.962518,-0.08211119,-0.047817554,-0.2559464,-0.019867213,0.013763022,0.008592337
20240215 11:52:36,0.054416,-0.000281,-0.083927,-0.034259,0.025334,-0.024974,-0.582909,-1.252476,-29.881866,9.141353,-0.045189213,0.01126433,-0.088418245,-0.041107696,0.025696391,0.015436914
20240215 11:52:36,-0.056273,-0.055136,0.144056,-0.026802,0.022138,-0.033497,-0.010628,-0.919891,-30.433777,9.126117,0.099871695,-0.07503222,0.12586366,-0.044790234,0.023939323,0.004190188
20240215 11:52:36,-0.226633,-0.031643,0.239397,0.008355,-0.000235,-0.037758,-0.150078,-0.748158,-29.910492,12.236816,0.09021908,-0.087545335,0.31816816,-0.027539844,0.006193867,-0.026126882
20240215 11:52:36,-0.413796,0.069881,0.265446,0.046707,-0.041783,-0.032432,-0.240494,-1.314575,-30.410294,14.292049,0.004656419,-0.019955385,0.4783485,0.0033058338,-0.030512186,-0.05099161
20240215 11:52:36,-0.447244,0.155712,0.026280,0.057361,-0.057764,0.004856,-0.328339,-1.322803,-30.276657,13.106873,-0.22299777,0.10851125,0.3842128,0.04165035,-0.05238098,-0.04109462
20240215 11:52:36,-0.180899,0.027223,-0.021627,0.056295,-0.063090,0.026163,-0.318989,-1.419674,-30.002304,10.209655,-0.110079505,0.017213188,0.14533411,0.057785474,-0.06182215,-0.031210938
20240215 11:52:36,-0.046456,0.083027,-0.109265,0.043511,-0.066286,0.044274,-0.416565,-1.139145,-30.423492,8.621779,-0.12592536,0.09096898,-0.017103568,0.06618844,-0.067915566,-0.012374567
20240215 11:52:36,0.048525,0.074761,-0.140368,0.014747,-0.066286,0.061319,-0.213219,-1.221405,-30.148163,6.5961013,-0.1056613,0.08789728,-0.11332855,0.06603678,-0.07030633,0.019771341
20240215 11:52:36,0.230952,0.023006,-0.083166,-0.009756,-0.062025,0.068777,-0.540657,-1.335564,-30.545868,4.8350563,0.038332492,0.033008866,-0.24309811,0.058265407,-0.065457255,0.04431431
20240215 11:52:36,0.317513,0.025240,-0.059826,-0.023606,-0.064156,0.061319,-0.380325,-0.950958,-30.167465,3.082893,0.10161354,0.032169655,-0.3070885,0.04391996,-0.066303395,0.05210915
20240215 11:52:36,0.356447,0.030300,0.028613,-0.021475,-0.054567,0.035751,-0.652824,-1.070663,-29.760452,4.3214564,0.19975321,0.03667072,-0.2969991,0.022464894,-0.056283507,0.03830784
20240215 11:52:36,0.224619,0.006822,0.064037,-0.008691,-0.047110,0.016574,-0.231148,-1.411446,-30.135925,5.580313,0.1663667,0.010963274,-0.16381106,0.013100387,-0.048374765,0.017996281
20240215 11:52:36,0.063942,0.018588,0.121476,0.007289,-0.041783,0.006986,-0.512993,-1.434284,-30.003281,7.7150607,0.13512816,0.011476498,0.0037984438,0.013149474,-0.041819274,-2.1254178E-5
20240215 11:52:36,-0.010530,0.027191,0.136788,0.026466,-0.038587,0.009117,-0.495449,-1.052353,-30.295975,8.998556,0.10928045,0.012618769,0.07506482,0.02504694,-0.037686773,-0.0152730085
20240215 11:52:36,-0.065053,-0.017484,0.148783,0.044576,-0.048175,0.021901,-0.379940,-1.142845,-29.887009,8.491374,0.09735107,-0.035590824,0.13109955,0.04581652,-0.047498602,-0.024268128
20240215 11:52:36,-0.013919,-0.045555,0.058081,0.049903,-0.054567,0.030424,-0.601604,-1.058735,-30.430588,7.971887,0.047110956,-0.050981626,0.043829493,0.05575365,-0.05445642,-0.02453864
20240215 11:52:36,0.047192,-0.030589,0.013718,0.047773,-0.057764,0.034685,-0.337303,-1.417824,-30.270554,6.37531,0.037301153,-0.029548762,-0.032747597,0.057757918,-0.058125373,-0.021538468
20240215 11:52:36,0.111657,-0.025639,-0.034930,0.043511,-0.041783,0.035751,-0.485714,-1.341114,-29.741135,5.958485,0.02573048,-0.01943861,-0.113105245,0.054994486,-0.04239255,-0.018491592
20240215 11:52:36,0.143230,0.003529,-0.026114,0.037119,-0.013019,0.021901,-0.292095,-1.134613,-30.020645,5.906928,0.047505155,0.01079595,-0.13767366,0.03814789,-0.013043392,-0.02095475
20240215 11:52:36,0.006109,-0.003126,0.093410,0.037119,0.010419,0.019771,-0.425152,-1.426056,-30.136902,7.723811,0.08345488,-0.010758147,0.04193283,0.034904875,0.0105463285,-0.022748385
20240215 11:52:36,-0.054391,-0.002815,0.336392,0.050969,-0.000235,0.020836,-0.185555,-1.320122,-29.605560,7.912512,0.25687334,-0.036908,0.22078952,0.044329166,7.288754E-4,-0.03263712
20240215 11:52:36,-0.098045,-0.090435,0.351795,0.072276,-0.034326,0.017640,-0.346268,-1.512840,-30.264435,8.217362,0.25711563,-0.12779099,0.27053234,0.05552456,-0.031731542,-0.050322995
20240215 11:52:36,-0.080958,-0.130510,0.181973,0.092517,-0.056698,0.010182,-0.910351,-1.366634,-30.279587,9.278727,0.12812641,-0.150875,0.1705369,0.060317952,-0.052377623,-0.070475794
20240215 11:52:36,-0.009541,-0.099715,-0.009371,0.103171,-0.053502,-0.002602,-0.549622,-1.430584,-30.539764,7.675629,-0.0043413993,-0.09890147,0.010303559,0.051916577,-0.048244182,-0.088231325
20240215 11:52:36,-0.004325,0.036310,-0.151817,0.103171,-0.037522,-0.010059,-0.566132,-0.486771,-30.735519,7.527303,-0.13849664,0.04888228,-0.0691737,0.042861868,-0.031806234,-0.0934369
20240215 11:52:36,0.077980,0.030755,-0.223657,0.089321,-0.027934,-0.014321,-0.450237,-0.769146,-30.046066,6.4938655,-0.16371326,0.050359372,-0.17362969,0.030796522,-0.023287607,-0.08429336
20240215 11:52:36,0.081394,-0.013873,-0.319234,0.065883,-0.023672,-0.019647,-0.247272,-0.659515,-30.051208,5.8642535,-0.2444643,0.0123968115,-0.21724628,0.0145126,-0.019700188,-0.066405006
20240215 11:52:36,0.099496,-0.009135,-0.311239,0.034988,-0.026868,-0.017517,-0.547436,-0.680508,-30.186783,6.3593974,-0.22913727,0.016434653,-0.23010549,0.0024712933,-0.024275076,-0.037706815
20240215 11:52:36,0.090790,-0.069386,-0.322855,0.000897,-0.028999,-0.019647,-0.520542,-0.395451,-30.205124,6.5598874,-0.23800789,-0.041718893,-0.22528633,-0.014791273,-0.027407818,-0.008297418
20240215 11:52:36,0.040031,-0.058090,-0.220851,-0.025736,-0.011954,-0.020713,-0.653591,-0.686886,-30.321411,7.9183598,-0.16860892,-0.036892224,-0.13625027,-0.029404372,-0.011323944,0.013525181
20240215 11:52:36,-0.049366,-0.027326,0.007293,-0.025736,-0.013019,-0.019647,-0.574329,-0.965569,-30.168442,8.67607,-0.015103478,-0.030530766,0.048624188,-0.028338619,-0.012428803,0.013954273
20240215 11:52:36,-0.073482,-0.018608,0.031082,-0.017214,-0.018346,-0.021778,-0.432693,-0.387218,-30.338776,7.9438133,-0.0075530764,-0.02517731,0.08038201,-0.025638577,-0.017136525,0.0056157177
20240215 11:52:36,-0.069074,-0.081300,0.066995,-0.007626,-0.027934,-0.030301,-0.698418,-1.161983,-30.290848,8.723262,0.031124502,-0.090666726,0.09892728,-0.027367283,-0.025379,-0.006123199
20240215 11:52:36,-0.052419,-0.110418,0.126852,0.003028,-0.038587,-0.042020,-0.855793,-1.180294,-29.755325,8.81301,0.0931076,-0.12369009,0.116272725,-0.031345837,-0.034526847,-0.020349775
20240215 11:52:36,0.014304,-0.073168,0.068514,0.022204,-0.037522,-0.048412,-0.628120,-1.535683,-30.131775,7.8643556,0.07267593,-0.077898905,0.02535383,-0.028181937,-0.0322653,-0.040218875
20240215 11:52:36,-0.023688,-0.037420,-0.100943,0.025400,-0.020476,-0.053738,-0.663208,-2.299538,-29.546371,9.521521,-0.0954941,-0.028097961,-0.023913857,-0.03257828,-0.013374466,-0.04605595
20240215 11:52:36,-0.159335,0.045123,-0.042850,0.017943,-0.008757,-0.040954,-0.628498,-1.343796,-30.412247,11.284824,-0.120360814,0.038730904,0.11445452,-0.025532365,-0.0021117544,-0.034384355
20240215 11:52:36,-0.293676,0.072022,0.129698,0.017943,-0.017280,-0.010059,-0.777298,-1.075195,-30.163315,12.833829,-0.04591965,0.028464422,0.30962288,0.0028159507,-0.014139411,-0.018528327
20240215 11:52:36,-0.329889,0.060477,0.226069,0.031792,-0.054567,0.017640,-0.804573,-1.168365,-30.425446,11.856741,0.020171493,0.0061181523,0.39013022,0.03805632,-0.053859,-0.013223013
20240215 11:52:36,-0.208611,0.005620,0.244438,0.055230,-0.079070,0.032555,-0.698418,-1.161983,-30.290848,10.85317,0.10134102,-0.03758853,0.30130467,0.06517087,-0.07831289,-0.023629678
20240215 11:52:36,-0.224027,0.019194,0.304265,0.085060,-0.097181,0.043208,-0.770519,-1.730251,-30.522400,10.907167,0.14551851,-0.031289436,0.34215036,0.09106445,-0.09557082,-0.042876303
20240215 11:52:36,-0.155437,0.056866,0.200303,0.115955,-0.084397,0.054927,-0.776913,-1.267086,-29.882843,9.616575,0.09026309,0.02725772,0.22807461,0.11330731,-0.08270347,-0.067017
20240215 11:52:36,-0.031244,0.019102,0.107569,0.133000,-0.066286,0.053862,-0.619534,-1.248775,-30.418365,7.55926,0.07660954,0.00897292,0.07817763,0.1171556,-0.06434029,-0.085626125
20240215 11:52:36,0.061128,-0.001854,-0.001629,0.130870,-0.051371,0.042143,-0.564980,-1.062435,-29.894104,5.925053,0.027851788,3.0003008E-4,-0.054403823,0.102556854,-0.049459964,-0.09248389
20240215 11:52:36,0.153912,0.008801,-0.140067,0.111693,-0.024738,0.030424,-0.531307,-1.432434,-30.271530,6.1260695,-0.05268938,0.023399346,-0.20145072,0.08042592,-0.022799836,-0.0835975
20240215 11:52:36,0.077272,-0.008455,-0.171315,0.082929,0.011484,0.024032,-0.797417,-2.015308,-30.504059,7.6281676,-0.11376274,0.007956513,-0.14741004,0.059181653,0.012986941,-0.0627584
20240215 11:52:36,-0.041452,-0.011888,-0.083699,0.063753,0.023203,0.025097,-0.758984,-1.077045,-29.895081,9.944594,-0.0914693,-0.005096836,-0.0018038675,0.04970706,0.024051096,-0.046210706
20240215 11:52:36,-0.167145,0.023253,-0.022663,0.053099,0.021072,0.038947,-0.310410,-1.132763,-30.288895,9.235359,-0.10228236,0.0153569095,0.13431948,0.056937024,0.019766208,-0.029871674
20240215 11:52:36,-0.157758,0.001305,0.017757,0.047773,-0.004496,0.047470,-0.849400,-1.643463,-30.394882,10.553034,-0.060429648,-0.010478256,0.14665836,0.064736106,-0.00687085,-0.019111551
20240215 11:52:36,-0.167249,-0.062504,-0.042670,0.033923,-0.051371,0.052796,-0.601223,-1.250626,-30.150116,9.110286,-0.11060403,-0.067007795,0.13162857,0.06753511,-0.054547276,-0.0010748301
20240215 11:52:36,-0.003768,-0.089108,-0.034954,0.019008,-0.084397,0.044274,-0.900234,-1.847282,-29.444290,6.791583,-0.026960157,-0.08685321,-0.008175276,0.053106345,-0.08629001,0.008921056
20240215 11:52:36,0.168370,-0.069843,-0.049807,0.012616,-0.089724,0.024032,-1.095005,-1.478111,-30.006210,5.2263384,0.038491514,-0.0646188,-0.16876534,0.03042313,-0.09028012,0.0040956056
20240215 11:52:36,0.261690,-0.126142,-0.076610,0.010485,-0.069482,-0.002602,-1.007164,-1.469883,-30.139832,4.300887,0.06026493,-0.120149344,-0.2620992,0.0045813303,-0.06922411,-0.007986696
20240215 11:52:36,0.255095,-0.143419,-0.029527,0.012616,-0.035391,-0.023909,-0.715195,-1.927692,-29.437195,4.917699,0.10297084,-0.13607743,-0.23185685,-0.013365505,-0.034045253,-0.021062199
20240215 11:52:36,0.100516,-0.087075,0.009817,0.021139,0.002961,-0.034562,-0.821739,-1.742184,-29.852280,7.9578757,0.064156026,-0.083103456,-0.07734405,-0.020084891,0.0065955436,-0.03528536
20240215 11:52:36,-0.101025,-0.081748,0.154144,0.042446,0.032791,-0.023909,-0.760788,-2.019009,-29.967575,10.640751,0.09121278,-0.104873344,0.17067772,-0.0030416641,0.037938118,-0.051530376
20240215 11:52:36,-0.285264,-0.037572,0.233764,0.070145,0.023203,-0.002602,-0.539886,-1.719341,-29.984940,11.115329,0.064841464,-0.08713947,0.36493132,0.029498152,0.028317574,-0.064453214
20240215 11:52:36,-0.251323,0.056799,0.113039,0.080798,0.004027,0.017640,-0.566784,-2.004398,-29.966599,10.1140375,-0.02919405,0.027676798,0.26905894,0.053758495,0.00704116,-0.06280744
20240215 11:52:36,-0.107469,0.033025,0.047104,0.072276,-0.041783,0.034685,-1.078880,-2.230038,-30.090927,8.828326,-0.01256565,0.024141986,0.114267915,0.068204395,-0.041234475,-0.044250563
20240215 11:52:36,0.142246,-0.034469,0.019025,0.046707,-0.074809,0.029359,-0.743240,-1.637081,-30.260284,4.161308,0.08550528,-0.03253624,-0.11492033,0.050486412,-0.07489202,-0.024582088
20240215 11:52:36,0.311351,-0.010093,0.090682,0.027531,-0.088659,0.006986,-0.900234,-1.847282,-29.444290,3.2107935,0.23067665,-0.008887164,-0.2278597,0.02077791,-0.088524655,-0.018260462
20240215 11:52:36,0.356263,-0.020340,0.202376,0.030727,-0.091855,-0.013255,-1.043022,-1.849960,-30.115387,3.4040627,0.351037,-0.020372035,-0.21131423,0.0047071576,-0.09143345,-0.030604351
20240215 11:52:36,0.276782,0.034976,0.325029,0.059491,-0.075874,-0.029235,-1.079262,-2.038147,-30.371399,4.852375,0.41861367,0.029936094,-0.07939169,0.006722357,-0.073898986,-0.06288082
20240215 11:52:36,0.238927,0.021860,0.344178,0.109563,-0.055633,-0.039889,-0.848248,-2.219128,-29.553467,4.5250683,0.41632617,0.015103236,-0.039540723,0.02113923,-0.05230104,-0.11276108
20240215 11:52:36,0.165338,0.046891,0.197470,0.157503,-0.026868,-0.044150,-1.024708,-1.851810,-29.847153,5.9592643,0.2499739,0.04171371,-0.05380656,0.03775295,-0.020668827,-0.15802222
20240215 11:52:36,0.113342,0.045666,0.000016,0.175614,-0.000235,-0.035628,-0.742855,-1.828972,-29.979797,5.974097,0.049265712,0.048943177,-0.10293403,0.04880926,0.0070551876,-0.17233929
20240215 11:52:36,0.109947,0.010929,-0.223820,0.156438,0.016811,-0.028170,-0.928280,-1.556671,-30.267365,6.544528,-0.15138632,0.028099738,-0.1982118,0.043658517,0.023325704,-0.15333185
20240215 11:52:36,0.113815,0.075178,-0.304072,0.128739,0.021072,-0.024974,-0.760403,-2.210899,-29.687103,6.1315985,-0.22750314,0.09671168,-0.23817837,0.03267236,0.026316192,-0.12760586
20240215 11:52:36,0.053039,0.151429,-0.324121,0.092517,0.008288,-0.017517,-0.778717,-2.209049,-29.955353,7.323393,-0.27990836,0.17773633,-0.19515373,0.02362292,0.0130120125,-0.09139226
20240215 11:52:36,0.006205,0.126288,-0.323420,0.046707,-0.014084,-0.006863,-0.812389,-1.839050,-29.577927,7.3314686,-0.29671416,0.15055612,-0.15281808,0.015328441,-0.011796225,-0.04419979
20240215 11:52:36,0.041187,0.023252,-0.281888,0.007289,-0.025803,-0.007929,-0.909580,-1.750412,-29.718643,6.931771,-0.23500885,0.04339678,-0.16258743,-0.0021148166,-0.024959167,-0.00864413
20240215 11:52:36,0.080114,0.022858,-0.189696,-0.015083,-0.032195,-0.013255,-1.051601,-2.136868,-29.828812,7.081796,-0.13450792,0.037442468,-0.15741202,-0.016538464,-0.03175224,0.009348789
20240215 11:52:36,0.121532,0.044623,-0.141209,-0.032129,-0.017280,-0.023909,-0.848633,-2.027241,-29.833939,5.4118333,-0.072681606,0.054128356,-0.17397091,-0.03503336,-0.016899655,0.01858284
20240215 11:52:36,0.144773,0.000487,-0.016228,-0.037455,0.004027,-0.038824,-0.778717,-2.209049,-29.955353,5.8246155,0.05398826,0.005454703,-0.13529004,-0.05205317,0.0050155357,0.014612244
20240215 11:52:36,0.065894,-0.080249,0.098948,-0.029998,0.007223,-0.058000,-1.112934,-1.668148,-29.993973,8.438645,0.12431175,-0.08479317,-0.0050378665,-0.065639175,0.010407679,-0.001800675
20240215 11:52:36,-0.104704,-0.086975,0.213641,-0.002299,0.017876,-0.056935,-0.646049,-1.725723,-30.119537,9.274606,0.14147235,-0.11365389,0.20212479,-0.05209364,0.02330869,-0.02718453
20240215 11:52:36,-0.199148,-0.040629,0.343172,0.040315,0.016811,-0.040954,-1.051216,-2.328754,-29.548325,11.309799,0.20313436,-0.09143923,0.34269163,-0.017455433,0.023822853,-0.05646348
20240215 11:52:36,-0.227606,0.026584,0.228336,0.074406,-0.003431,-0.017517,-1.282230,-2.147778,-30.366272,11.4617195,0.08835262,-0.012989971,0.3040365,0.020402778,0.0030585635,-0.073317245
20240215 11:52:36,-0.147480,0.067686,-0.019538,0.076537,-0.018346,0.001660,-0.839668,-1.932224,-29.840057,9.82067,-0.09141748,0.06127896,0.11745094,0.038151175,-0.014237145,-0.0660431
20240215 11:52:36,-0.068304,0.120107,-0.178616,0.047773,-0.024738,0.015509,-0.848633,-2.027241,-29.833939,9.073393,-0.20111468,0.13349034,-0.02557135,0.037442967,-0.023794845,-0.03426406
20240215 11:52:36,-0.022642,0.064353,-0.181567,0.013681,-0.036457,0.025097,-0.733505,-1.925842,-29.705429,7.084926,-0.17666158,0.07666083,-0.06401506,0.03117354,-0.03767532,9.371089E-4
20240215 11:52:36,0.075322,0.065291,-0.171060,-0.009756,-0.041783,0.019771,-0.814960,-2.397240,-30.211365,6.9382486,-0.12244757,0.07941274,-0.14760259,0.016017815,-0.043351013,0.01986856
20240215 11:52:36,0.035055,0.045555,0.038894,-0.015083,-0.043914,0.016574,-1.006779,-1.661770,-29.859375,7.9402914,0.04723997,0.04386436,-0.01584714,0.0108150635,-0.04560335,0.023864755
20240215 11:52:36,0.012212,0.019386,0.119762,-0.001233,-0.039653,0.015509,-1.440376,-1.782310,-30.391693,8.22403,0.10958098,0.011862538,0.044312764,0.01563489,-0.040608507,0.01108314
20240215 11:52:36,0.063500,0.016379,0.186605,0.029662,-0.022607,0.012313,-1.016129,-1.564899,-30.133728,6.9413724,0.19273977,0.0070913564,0.03253325,0.026420144,-0.022310229,-0.018803373
20240215 11:52:36,0.051128,-0.059304,0.224588,0.071210,-0.013019,0.008052,-0.955173,-1.841732,-30.249023,7.354688,0.22518352,-0.07253349,0.065085925,0.041949492,-0.01089091,-0.05795403
20240215 11:52:36,-0.000607,-0.009874,0.092680,0.092517,-0.009823,0.003790,-1.254570,-2.246498,-29.823669,8.110568,0.08210926,-0.016281875,0.044020474,0.047211815,-0.006674277,-0.079418354
20240215 11:52:36,0.050560,0.014226,-0.005037,0.091452,-0.020476,0.001660,-1.157761,-2.143246,-29.963409,8.372499,0.017476711,0.016560938,-0.048219386,0.044731133,-0.016910482,-0.0792956
20240215 11:52:36,-0.005782,0.002941,-0.098814,0.075472,-0.026868,0.002725,-1.202969,-2.426456,-30.213318,8.409606,-0.09064355,0.010273721,-0.039251257,0.038615253,-0.024046425,-0.06431379
20240215 11:52:36,0.032999,0.013803,-0.048145,0.065883,-0.023672,0.008052,-0.839668,-1.932224,-29.840057,6.7540336,-0.028733619,0.018019393,-0.05182831,0.038584515,-0.021939658,-0.053831257
20240215 11:52:36,0.073165,0.029302,-0.058081,0.071210,-0.024738,0.009117,-1.051601,-2.136868,-29.828812,6.868513,-0.020638555,0.035001207,-0.092856,0.041648366,-0.023056017,-0.058204252
20240215 11:52:36,0.084353,0.020958,-0.159659,0.070145,-0.013019,0.002725,-1.000000,-2.316830,-30.218460,6.9204803,-0.10645482,0.033727586,-0.14716643,0.034459997,-0.010943331,-0.06092461
20240215 11:52:36,-0.014813,0.034229,-0.170192,0.056295,-0.007692,-0.007929,-1.315903,-1.777779,-29.988846,9.657525,-0.16145499,0.049067724,-0.063682266,0.018608358,-0.0043509705,-0.053350084
20240215 11:52:36,-0.061139,0.031179,-0.143665,0.047773,0.005092,-0.011125,-1.352146,-1.965969,-30.244873,9.943251,-0.15801872,0.041607216,-0.011631742,0.011178693,0.008376402,-0.047979813
20240215 11:52:36,-0.094211,0.007206,0.007285,0.047773,0.013615,-0.013255,-1.563698,-2.362507,-29.953140,11.108753,-0.038093083,0.0015007292,0.08609611,0.009181583,0.017351639,-0.049563985
20240215 11:52:36,-0.130994,-0.025743,0.148625,0.049903,0.000831,-0.017517,-1.042637,-2.041847,-29.834915,10.510496,0.069635786,-0.048794627,0.1871801,0.008510631,0.005546456,-0.05213479
20240215 11:52:36,-0.198545,-0.044191,0.304321,0.062687,-0.034326,-0.013255,-1.088226,-2.133167,-30.365295,10.007247,0.1725493,-0.08419542,0.32267052,0.022207517,-0.029447136,-0.05826388
20240215 11:52:36,-0.068175,-0.025269,0.276252,0.082929,-0.050306,-0.010059,-1.264301,-1.957741,-30.378494,8.503345,0.21085198,-0.048355617,0.19250199,0.03464265,-0.046037666,-0.07399925
20240215 11:52:36,0.054614,-0.054573,0.250821,0.101040,-0.071613,-0.018582,-0.997814,-1.566750,-29.865494,6.2162094,0.24918541,-0.06606816,0.0729792,0.035339497,-0.06766356,-0.09403687
20240215 11:52:36,0.108182,-0.141176,0.030320,0.111693,-0.102508,-0.020713,-1.202583,-2.618343,-29.932846,6.225301,0.08284229,-0.13981533,-0.07555965,0.037286766,-0.09874213,-0.10372768
20240215 11:52:37,0.239014,-0.122081,-0.107406,0.105301,-0.088659,-0.036693,-1.351379,-2.349747,-29.683914,4.6936913,0.014603414,-0.11700558,-0.25710297,0.016686361,-0.08664663,-0.10720952
20240215 11:52:37,0.249072,-0.032280,-0.094786,0.104236,-0.073744,-0.067588,-1.396587,-2.632954,-29.933823,5.988316,0.025357224,-0.02382439,-0.26371038,-0.012111805,-0.06906094,-0.119781874
20240215 11:52:37,0.120589,-0.026605,-0.223903,0.093583,-0.044979,-0.096352,-1.000000,-2.316830,-30.218460,7.8526344,-0.14687206,-0.004663922,-0.20311409,-0.04256628,-0.03386242,-0.123009086
20240215 11:52:37,-0.075307,0.019965,-0.214612,0.079733,-0.005561,-0.107006,-0.805996,-2.302219,-30.217484,10.261315,-0.22656663,0.04025408,-0.026841395,-0.059585087,0.011294889,-0.11748921
20240215 11:52:37,-0.220795,0.095037,-0.138442,0.062687,0.024268,-0.094222,-0.893841,-2.310452,-30.083832,17.057837,-0.23492166,0.1000282,0.13295767,-0.06190287,0.049362577,-0.09774433
20240215 11:52:37,-0.150514,0.081979,-0.059384,0.032858,0.057294,-0.049477,-1.217941,-2.250195,-29.287170,8.79892,-0.12677726,0.08036477,0.102870084,-0.034064822,0.06240304,-0.055146582
20240215 11:52:37,0.109708,-0.044535,-0.031879,0.040315,-0.027934,-0.021778,-1.457153,-2.548012,-29.538055,8.029849,0.023232263,-0.038932934,-0.10951112,2.8510392E-4,-0.02520726,-0.04396203
20240215 11:52:37,0.070156,-0.172649,-0.153380,0.020073,-0.051371,-0.026039,-1.379044,-2.251026,-30.226532,9.186803,-0.09088394,-0.1563028,-0.11816348,-0.009949826,-0.048163295,-0.025784537
20240215 11:52:37,-0.070906,-0.111093,-0.062391,0.000897,-0.069482,-0.022843,-1.264301,-1.957741,-30.378494,10.628549,-0.075253226,-0.107424125,0.04520034,-0.012484693,-0.06650457,-0.0051070517
20240215 11:52:37,-0.144509,-0.033531,-0.047574,-0.012952,-0.068417,-0.013255,-1.317326,-2.911636,-29.780884,11.478214,-0.1032445,-0.036082353,0.111210465,-0.0098471865,-0.06710855,0.011854991
20240215 11:52:37,-0.146578,-0.060847,-0.020027,-0.022540,-0.071613,-0.005798,-1.388008,-2.346046,-30.220413,11.456056,-0.07753017,-0.0664819,0.12713306,-0.0073745637,-0.0716852,0.023959685
20240215 11:52:37,-0.111492,-0.132104,0.006328,-0.026802,-0.074809,0.001660,-1.254955,-2.054607,-30.104126,10.109036,-0.03282539,-0.13754353,0.11253148,-0.0035782536,-0.07587078,0.030589378
20240215 11:52:37,-0.056453,-0.090791,0.043703,-0.019344,-0.085463,0.000594,-1.360729,-2.252876,-29.958282,9.816382,0.02141896,-0.09688119,0.07684685,-4.88768E-4,-0.085964404,0.024111226
20240215 11:52:37,-0.021660,-0.067438,-0.084346,-0.014018,-0.092920,-0.000471,-1.254570,-2.246498,-29.823669,9.600428,-0.078627914,-0.060269605,-0.012245875,0.0019874992,-0.09301873,0.019207211
20240215 11:52:37,-0.018008,-0.115301,-0.204976,-0.019344,-0.066286,0.001660,-1.141636,-2.895176,-30.048141,8.365211,-0.18236336,-0.09950291,-0.06544241,-0.0018127392,-0.0669037,0.02233461
20240215 11:52:37,0.093045,-0.041343,-0.099313,-0.026802,-0.040718,0.002725,-1.394402,-1.882877,-29.580856,7.5401883,-0.044070516,-0.032540523,-0.124984294,-0.007225875,-0.04159509,0.027551388
20240215 11:52:37,0.118138,-0.119858,0.025028,-0.031063,-0.025803,-0.004732,-1.149563,-1.664448,-30.530472,7.1389394,0.08429383,-0.11729494,-0.086254604,-0.016991518,-0.02645172,0.02683258
20240215 11:52:37,0.023351,-0.123402,0.095074,-0.023606,-0.015150,-0.008994,-1.369694,-2.347897,-29.952164,9.421306,0.10495409,-0.12975678,0.032258302,-0.017630039,-0.015364435,0.017936947
20240215 11:52:37,-0.093015,-0.108464,0.103341,-0.019344,-0.007692,0.004856,-1.385818,-1.595970,-29.867447,10.280938,0.05753589,-0.12237783,0.13887668,-0.0040632333,-0.009087231,0.019971946
20240215 11:52:37,-0.045069,-0.153089,0.156610,-0.020410,-0.010888,0.019771,-0.831089,-1.645313,-30.126633,8.351903,0.12951088,-0.16788243,0.12310482,0.0087014735,-0.013469959,0.027955048
20240215 11:52:37,-0.011211,-0.095354,0.111854,-0.017214,-0.014084,0.027228,-1.704296,-1.615108,-30.271271,9.898913,0.10181389,-0.10470268,0.06788021,0.017399415,-0.01701851,0.028685786
20240215 11:52:37,-0.042419,-0.043880,0.018908,-0.011887,0.006157,0.032555,-1.465469,-1.125401,-30.300858,9.668259,0.0015936112,-0.047247853,0.049586818,0.023018494,0.002697236,0.02460246
20240215 11:52:37,-0.046542,-0.007265,-0.131354,-0.015083,0.031726,0.038947,-1.122284,-1.571278,-30.268341,9.886378,-0.13696793,0.0039637266,-0.014117327,0.024953965,0.026760492,0.027949031
20240215 11:52:37,-0.118325,0.038220,-0.144530,-0.033194,0.057294,0.038947,-1.324867,-1.872799,-29.982727,10.520706,-0.18528365,0.046738885,0.03906086,0.0138403885,0.05119849,0.04214129
20240215 11:52:37,-0.110152,0.017813,0.032403,-0.041717,0.049837,0.036816,-0.964138,-1.936752,-30.242920,10.311506,-0.024558483,0.007919034,0.110887825,0.0076106414,0.043107823,0.04962194
20240215 11:52:37,-0.132858,0.076067,0.215268,-0.034259,0.018942,0.033620,-1.712490,-2.093906,-29.704208,11.185568,0.11922315,0.048203997,0.20955096,0.011597466,0.013859151,0.044010524
20240215 11:52:37,-0.083200,0.019088,0.253927,-0.022540,-0.009823,0.022967,-1.281078,-2.723442,-29.524857,10.089643,0.18014248,-0.008251099,0.19115372,0.010153826,-0.012978597,0.031439736
20240215 11:52:37,-0.105757,-0.032404,0.207402,-0.008691,-0.040718,0.012313,-1.599171,-2.934475,-29.648209,11.669349,0.1363505,-0.059474327,0.19125566,0.010995928,-0.04218925,0.01714445
20240215 11:52:37,-0.139565,0.032140,0.101649,-0.005495,-0.034326,0.006986,-1.467270,-2.067368,-30.373352,10.652637,0.021612532,0.014795647,0.16722345,0.0069713397,-0.035082545,0.0109957075
20240215 11:52:37,-0.110965,0.043856,0.124246,-0.002299,-0.022607,0.001660,-1.278893,-1.973370,-29.171875,8.768457,0.054748762,0.029622931,0.15217891,0.0021409406,-0.022742053,0.0043970384
20240215 11:52:37,0.069284,-0.037489,0.091970,-0.007626,-0.010888,-0.006863,-1.360729,-2.252876,-29.958282,7.3067384,0.115558416,-0.040530205,-0.016808052,-0.008996944,-0.0107059125,0.0042369813
20240215 11:52:37,0.146878,-0.036271,0.184749,-0.003364,0.020007,-0.020713,-1.415287,-2.439217,-30.482529,6.970024,0.2341398,-0.04129992,-0.03845206,-0.020726051,0.02089686,-0.008106971
20240215 11:52:37,0.112239,-0.040443,0.413558,0.020073,0.030660,-0.036693,-1.590977,-2.455677,-30.215271,8.185611,0.41564837,-0.06007831,0.11089989,-0.023359727,0.033328604,-0.037759766
20240215 11:52:37,0.001382,-0.047735,0.607678,0.056295,0.026399,-0.040954,-1.421295,-2.167934,-29.562515,9.338792,0.52596617,-0.09283439,0.30694303,-0.0085697025,0.031828195,-0.07118782
20240215 11:52:37,-0.095763,-0.018862,0.617672,0.105301,0.022138,-0.039889,-1.439224,-2.357975,-29.550278,11.746162,0.4832633,-0.088826224,0.38947457,0.016576197,0.03252417,-0.11290223
20240215 11:52:37,-0.279049,0.068604,0.615411,0.152177,0.001896,-0.030301,-1.414131,-3.014881,-29.641113,13.646377,0.37899494,-0.030984685,0.5325363,0.049869273,0.016913408,-0.14674257
20240215 11:52:37,-0.388381,0.081495,0.498416,0.188398,-0.028999,-0.008994,-1.281078,-2.723442,-29.524857,13.857245,0.23022406,-0.017873846,0.56510806,0.08778005,-0.012977041,-0.16552727
20240215 11:52:37,-0.255230,0.114033,0.296316,0.208640,-0.048175,0.010182,-1.651157,-2.562622,-29.539032,12.527337,0.12751733,0.063920304,0.34926188,0.1119164,-0.036361918,-0.1749307
20240215 11:52:37,-0.107522,0.095705,0.075217,0.211836,-0.044979,0.017640,-1.703526,-1.998890,-29.710312,11.118862,0.009346601,0.082345515,0.12092236,0.11480235,-0.035968244,-0.17789744
20240215 11:52:37,0.028267,0.070723,-0.094815,0.187333,-0.027934,0.024032,-1.572662,-2.457527,-29.947021,8.422194,-0.07808907,0.077880815,-0.070210636,0.10390359,-0.023440437,-0.15727052
20240215 11:52:37,0.223593,-0.002477,-0.297353,0.158569,0.006157,0.020836,-1.520679,-2.829376,-30.056198,4.902418,-0.17529175,0.006142588,-0.3275381,0.085586935,0.0072909645,-0.13527054
20240215 11:52:37,0.384710,-0.027971,-0.269447,0.130870,0.055163,0.001660,-1.027279,-2.410000,-30.480576,2.082603,-0.080082834,-0.028794589,-0.4623072,0.05731635,0.055053763,-0.118565455
20240215 11:52:37,0.371918,-0.056715,-0.189922,0.106367,0.105235,-0.024974,-1.415287,-2.439217,-30.482529,3.6541216,-0.005902007,-0.05383471,-0.41579133,0.023705678,0.10582745,-0.1094096
20240215 11:52:37,0.302184,-0.117077,0.078264,0.103171,0.133999,-0.049477,-1.112934,-1.668148,-29.993973,4.7907395,0.21250883,-0.114555046,-0.22754619,-3.9474294E-4,0.13711745,-0.11944625
20240215 11:52:37,0.141954,-0.048611,0.193161,0.130870,0.144653,-0.063327,-1.123055,-1.187504,-30.829285,8.321732,0.23983541,-0.058106333,-0.036054157,-0.0081395395,0.1545466,-0.15458608
20240215 11:52:37,-0.054313,-0.039411,0.093772,0.151111,0.147849,-0.051608,-0.938015,-1.267918,-30.822189,9.723401,0.06303623,-0.05191556,0.09297633,0.006341081,0.16026965,-0.16907352
20240215 11:52:37,-0.052136,-0.096835,-0.066408,0.152177,0.144653,-0.035628,-1.269661,-0.168827,-30.227371,9.831854,-0.07234192,-0.09207086,0.025618669,0.019850407,0.15476954,-0.16302922
20240215 11:52:37,-0.018753,-0.113360,-0.174604,0.134066,0.121215,-0.028170,-0.919701,-1.269764,-30.553940,9.077924,-0.15377076,-0.09604789,-0.048494555,0.019303283,0.1295782,-0.14132592
20240215 11:52:37,-0.008972,-0.166414,-0.323262,0.102105,0.093516,-0.028170,-0.902157,-0.887840,-30.846649,8.965883,-0.2789407,-0.13315818,-0.11416975,0.007684108,0.10051112,-0.110485196
20240215 11:52:37,0.004373,-0.207729,-0.368272,0.076537,0.074340,-0.034562,-0.938015,-1.267918,-30.822189,9.54481,-0.30853269,-0.16643284,-0.14042525,-0.0074537266,0.0812937,-0.08889621
20240215 11:52:37,-0.063177,-0.169290,-0.374698,0.054165,0.066882,-0.034562,-0.857983,-1.930374,-30.108292,11.12191,-0.34182295,-0.12241857,-0.08058268,-0.017549071,0.07389681,-0.06864925
20240215 11:52:37,-0.075130,-0.123405,-0.368498,0.040315,0.072209,-0.027105,-0.911770,-2.500488,-30.071609,10.793303,-0.3486914,-0.08098724,-0.07005271,-0.016920146,0.07711716,-0.053210113
20240215 11:52:37,-0.047384,-0.071115,-0.387151,0.032858,0.079666,-0.018582,-1.088226,-2.133167,-30.365295,11.237069,-0.36101452,-0.024163619,-0.10416195,-0.013657287,0.08308002,-0.043676782
20240215 11:52:37,-0.046863,-0.064048,-0.413163,0.016877,0.092451,-0.008994,-0.859398,-3.064224,-29.900330,10.451944,-0.38704845,-0.01605232,-0.11286698,-0.012683086,0.09361072,-0.025624132
20240215 11:52:37,-0.010734,-0.034633,-0.543944,-0.006560,0.099908,-0.002602,-1.132671,-2.800156,-30.054245,12.518851,-0.49540204,0.043649375,-0.19060811,-0.019304857,0.0986641,-0.0032081923
20240215 11:52:37,-0.105514,0.011278,-0.616250,-0.052370,0.103104,0.010182,-1.097843,-3.745823,-29.590256,13.742992,-0.6026049,0.102133274,-0.1343081,-0.02732436,0.096462175,0.042700123
20240215 11:52:37,-0.178979,0.039541,-0.523517,-0.091788,0.092451,0.029359,-0.992455,-3.355667,-30.016586,13.521054,-0.55070746,0.11008914,-0.039692357,-0.024310784,0.08011186,0.08709354
20240215 11:52:37,-0.144554,0.051899,-0.390553,-0.113095,0.082862,0.047470,-0.832119,-2.971054,-29.638184,12.307857,-0.41848603,0.09843674,-0.029066294,-0.01561331,0.06756273,0.114929
20240215 11:52:37,-0.115008,0.041479,-0.190649,-0.125879,0.057294,0.060254,-0.805225,-2.685997,-29.656525,11.152913,-0.22503051,0.0585625,0.021177799,-0.0068574734,0.041428518,0.13435835
20240215 11:52:37,-0.004956,0.036352,-0.075466,-0.121618,0.041314,0.064515,-0.813808,-2.972904,-29.369949,9.160749,-0.0736577,0.04343316,-0.029562414,0.0023675933,0.028934976,0.13436139
20240215 11:52:37,0.109678,0.042864,-0.141243,-0.118422,0.048771,0.059188,-1.089264,-3.458912,-29.876846,8.355466,-0.08491194,0.0581716,-0.16092688,-2.8947368E-4,0.039384723,0.12908633
20240215 11:52:37,0.159495,0.016200,-0.129949,-0.122683,0.051967,0.046404,-0.814190,-2.781017,-29.650421,7.325326,-0.049939364,0.031555276,-0.20020917,-0.01464406,0.043949414,0.12773708
20240215 11:52:37,0.178958,0.030441,-0.074808,-0.130141,0.040249,0.029359,-1.070297,-1.943130,-30.377518,7.4501066,0.0071676,0.041708734,-0.19517104,-0.032205615,0.033642508,0.12781955
20240215 11:52:37,0.128111,0.116057,-0.111113,-0.139729,0.044510,0.013378,-0.662823,-2.491425,-29.265900,8.6061,-0.05742617,0.13211255,-0.16984586,-0.05129258,0.0365613,0.12943968
20240215 11:52:37,-0.000709,0.145995,-0.087962,-0.139729,0.059425,0.012313,-0.956211,-3.167477,-29.760590,10.658515,-0.09566486,0.15484452,-0.04849414,-0.05631133,0.04984667,0.12642473
20240215 11:52:37,-0.062876,0.104574,0.048688,-0.126945,0.064752,0.015509,-1.142017,-2.703285,-30.328613,10.7746935,0.0038121045,0.09493578,0.06889497,-0.049720578,0.05557815,0.115144886
20240215 11:52:37,-0.032308,0.143525,0.101128,-0.115226,0.051967,0.022967,-0.991035,-2.221809,-30.224579,9.906431,0.060654305,0.13031517,0.06222373,-0.036163215,0.043251075,0.10931574
20240215 11:52:37,0.018111,0.082063,0.077916,-0.114160,0.040249,0.019771,-0.681522,-2.297691,-29.814621,8.702647,0.06949033,0.07492362,0.012551606,-0.037127353,0.032615513,0.108207494
20240215 11:52:37,0.049830,0.080750,0.095036,-0.121618,-0.025803,0.006986,-0.999229,-2.700607,-29.657501,8.136764,0.10064012,0.07495357,-0.0075359866,-0.046227008,-0.031020962,0.11347111
20240215 11:52:37,0.141588,0.068254,0.115808,-0.125879,-0.067352,-0.004732,-0.859398,-3.064224,-29.900330,6.4589543,0.16303942,0.06548713,-0.07770367,-0.057143852,-0.07071404,0.1135676
20240215 11:52:37,0.174313,0.117517,0.166471,-0.115226,-0.087593,-0.012190,-0.796261,-2.590977,-29.662643,6.7369103,0.21936569,0.11212302,-0.08657163,-0.057396345,-0.09039465,0.10184934
20240215 11:52:37,0.180750,0.120174,0.144076,-0.088592,-0.084397,-0.010059,-0.992836,-3.163776,-30.297073,6.331675,0.20305076,0.117045194,-0.103288844,-0.044107363,-0.086112134,0.078876115
20240215 11:52:37,0.217830,0.083928,0.032699,-0.052370,-0.041783,-0.010059,-0.814190,-2.781017,-29.650421,5.7919626,0.12153785,0.08775649,-0.18449429,-0.030044524,-0.04255005,0.04435289
20240215 11:52:37,0.168725,0.136635,-0.012011,-0.019344,0.000831,-0.012190,-1.168530,-3.180233,-30.029800,8.063208,0.053288557,0.14306398,-0.16525014,-0.019464187,0.0010282458,0.012039028
20240215 11:52:37,0.120183,0.170249,-0.036613,0.005159,0.028530,-0.010059,-1.360729,-2.252876,-29.958282,8.493847,0.0064784847,0.1767586,-0.13490291,-0.008937634,0.029373141,-0.010793008
20240215 11:52:37,0.104123,0.197911,-0.115263,0.024335,0.054098,-0.014321,-1.148796,-2.048225,-29.969528,8.117899,-0.07458837,0.20992517,-0.15488097,-0.006676501,0.05589991,-0.03132826
20240215 11:52:37,0.118071,0.193505,-0.103424,0.032858,0.061555,-0.020713,-0.681522,-2.297691,-29.814621,6.059843,-0.054510072,0.20300938,-0.15958652,-0.008382242,0.06367803,-0.041312605
20240215 11:52:37,0.248782,0.172503,-0.112686,0.032858,0.056229,-0.043085,-0.927895,-1.748562,-29.986893,5.6825366,-0.004252374,0.1839478,-0.28013647,-0.027724132,0.059123006,-0.05039954
20240215 11:52:37,0.156328,0.109517,-0.133945,0.011551,0.044510,-0.060131,-0.823925,-2.492256,-30.205261,6.092433,-0.05919578,0.12149803,-0.20361555,-0.051686868,0.048253074,-0.03834551
20240215 11:52:37,0.165388,0.053572,-0.062534,-0.019344,0.035987,-0.068653,-0.735699,-2.675919,-30.058411,6.899855,0.014095966,0.06359717,-0.17859358,-0.0724244,0.0400294,-0.014969813
20240215 11:52:37,0.134545,0.089336,0.051232,-0.031063,0.021072,-0.068653,-0.990650,-2.413700,-29.944092,8.395595,0.099067084,0.09036343,-0.10290755,-0.07674983,0.025332863,-0.0044590663
20240215 11:52:37,0.030692,0.169536,0.161003,-0.023606,0.009353,-0.051608,-0.788067,-2.112179,-30.229706,9.08585,0.13968949,0.15439364,0.03363389,-0.05731487,0.013127977,-0.0031913202
20240215 11:52:37,-0.043267,0.115987,0.212873,-0.014018,0.010419,-0.037758,-0.990650,-2.413700,-29.944092,9.707487,0.15687418,0.09195718,0.125458,-0.040813707,0.013382684,-0.005348799
20240215 11:52:37,-0.015620,0.150061,0.189615,0.001963,0.008288,-0.023909,-0.841854,-2.682297,-30.193024,9.887841,0.14480457,0.12803121,0.08692594,-0.021148777,0.010871928,-0.0130725745
20240215 11:52:37,-0.174465,0.209012,0.142074,0.008355,-0.006627,-0.016451,-0.654629,-2.012630,-29.832962,12.654994,0.014412671,0.17146751,0.19759229,-0.009673347,-0.0034320278,-0.014066643
20240215 11:52:37,-0.391244,0.321037,0.301342,-0.004430,-0.040718,0.009117,-0.893456,-2.502338,-29.803375,14.905018,0.023451537,0.23002523,0.44339275,0.012621087,-0.041899297,0.012978871
20240215 11:52:37,-0.402658,0.355823,0.565018,-0.018279,-0.105704,0.037881,-0.814575,-2.589127,-29.930893,13.431181,0.23491402,0.23559637,0.5803591,0.03887287,-0.11122878,0.046139635
20240215 11:52:37,-0.217975,0.184736,0.687619,-0.015083,-0.167494,0.053862,-0.824310,-2.300369,-30.485718,9.420481,0.46843794,0.10615965,0.5101155,0.055042196,-0.1724407,0.052965
20240215 11:52:37,0.076016,-0.042775,0.527709,0.008355,-0.169625,0.049600,-0.788448,-1.920292,-30.510178,5.5729656,0.4982568,-0.06630162,0.19408207,0.05548642,-0.17154427,0.025095884
20240215 11:52:37,0.321607,-0.234475,0.401316,0.040315,-0.114227,0.026163,-1.218712,-1.866421,-29.848129,4.1193385,0.5115945,-0.23816614,-0.07443544,0.044567727,-0.11426206,-0.018190868
20240215 11:52:37,0.379394,-0.299973,0.397096,0.057361,-0.072678,0.014444,-1.237026,-1.864571,-30.116364,4.7878904,0.5403712,-0.3043908,-0.120839134,0.042810008,-0.072186895,-0.039667413
20240215 11:52:37,0.305551,-0.222441,0.441226,0.123412,0.015746,-0.010059,-0.973106,-2.031769,-30.236801,4.846688,0.5414658,-0.23148018,-0.04338512,0.050832644,0.018418862,-0.11329738
20240215 11:52:37,0.229380,-0.210598,0.287115,0.160699,0.049837,-0.018582,-1.360729,-2.252876,-29.958282,7.3917675,0.3727505,-0.21940686,-0.054874063,0.05676253,0.05562701,-0.15337312
20240215 11:52:37,0.163689,-0.147841,0.138656,0.169222,0.051967,-0.024974,-1.254185,-2.438385,-29.543198,8.371658,0.20855176,-0.151318,-0.07296517,0.05147917,0.059970293,-0.16524357
20240215 11:52:37,0.068427,-0.076995,0.020899,0.148981,0.024268,-0.030301,-1.424252,-2.534233,-30.476425,9.693624,0.055894755,-0.07545905,-0.046321183,0.037200496,0.033372447,-0.14851397
20240215 11:52:37,0.034092,-0.043911,-0.036799,0.126608,-0.014084,-0.032432,-1.069145,-2.518791,-29.536102,10.613952,-0.01297267,-0.03764883,-0.042960133,0.028237045,-0.0035219067,-0.12660834
20240215 11:52:37,-0.065245,0.017331,-0.079132,0.105301,-0.037522,-0.026039,-1.229092,-3.095291,-29.634033,11.567041,-0.10105206,0.022819422,0.023576118,0.026935488,-0.02810784,-0.10265919
20240215 11:52:37,-0.085840,0.038477,-0.178918,0.082929,-0.032195,-0.023909,-1.290428,-2.626575,-29.799225,11.212594,-0.20152865,0.053813003,-0.0016437545,0.018093592,-0.024715103,-0.082217336
20240215 11:52:37,-0.085932,-0.036452,-0.140935,0.064818,-0.011954,-0.029235,-0.893074,-2.694225,-29.522903,10.891083,-0.15890154,-0.02434157,0.019287966,0.0039317925,-0.0045709834,-0.06984422
20240215 11:52:37,-0.086991,-0.166174,-0.024250,0.060557,-0.001300,-0.027105,-1.114357,-2.802006,-29.786011,10.827796,-0.042635046,-0.1671018,0.08089843,0.0036076643,0.0050640143,-0.065935396
20240215 11:52:38,-0.043144,-0.234468,0.035731,0.064818,-0.000235,-0.024974,-1.192852,-2.907104,-29.378021,11.224368,0.03825129,-0.23906313,0.07503089,0.0073218904,0.006243461,-0.068859786
20240215 11:52:38,-0.089882,-0.169377,0.014994,0.074406,-0.004496,-0.027105,-0.946861,-3.264343,-29.486221,11.524576,-0.0062749116,-0.1751678,0.1021039,0.009992912,0.0034827602,-0.07800307
20240215 11:52:38,-0.116538,-0.133875,0.013384,0.078668,-0.005561,-0.024974,-1.026123,-2.985664,-29.639160,12.601961,-0.022243664,-0.1420876,0.12311759,0.013977779,0.003266026,-0.08069846
20240215 11:52:38,-0.311277,-0.093140,0.048246,0.091452,0.006157,-0.006863,-1.008194,-2.795628,-29.651398,14.25672,-0.0851568,-0.12437312,0.3087785,0.034757245,0.014517623,-0.08510041
20240215 11:52:38,-0.298948,-0.010609,0.121549,0.106367,-0.022607,0.017640,-1.027279,-2.410000,-30.480576,13.526947,-0.025077283,-0.051457416,0.3213364,0.06657482,-0.016898885,-0.08507328
20240215 11:52:38,-0.247841,-0.005720,0.061038,0.108497,-0.041783,0.025097,-1.299778,-2.529705,-30.073563,14.695203,-0.05308809,-0.03468466,0.24941917,0.07623195,-0.036707506,-0.08243679
20240215 11:52:38,-0.198391,0.026059,-0.221405,0.075472,-0.043914,0.034685,-1.097576,-2.036297,-30.639664,12.882047,-0.2852559,0.044866096,0.08752741,0.06911619,-0.043324705,-0.05032256
20240215 11:52:38,-0.124379,0.081655,-0.280615,0.047773,-0.033260,0.038947,-1.141636,-2.895176,-30.048141,12.335924,-0.31522357,0.11152422,-0.005663052,0.05922271,-0.035287216,-0.0251442
20240215 11:52:38,-0.104393,0.075112,-0.314253,0.031792,-0.018346,0.041077,-1.026123,-2.985664,-29.639160,11.734228,-0.33645722,0.10960126,-0.035796985,0.05247423,-0.021702494,-0.011198327
20240215 11:52:38,-0.104618,0.044230,-0.318570,0.005159,0.012549,0.045339,-1.114357,-2.802006,-29.786011,12.117494,-0.33589438,0.07971881,-0.03907103,0.041229863,0.0066999057,0.0127461
20240215 11:52:38,-0.106258,0.010235,-0.218553,-0.008691,0.035987,0.055992,-1.317707,-2.719746,-30.061340,11.864273,-0.24240524,0.030963274,0.004946634,0.042156972,0.028252248,0.027919916
20240215 11:52:38,-0.006256,-0.044276,-0.092594,-0.010822,0.035987,0.066646,-1.326290,-3.006653,-29.774765,10.235581,-0.08145576,-0.035167187,-0.0300621,0.051648628,0.02868798,0.035166472
20240215 11:52:38,0.027023,-0.050406,-0.096519,-0.007626,0.022138,0.065581,-0.981300,-2.510567,-29.669739,9.572508,-0.07007745,-0.03902078,-0.061502848,0.053426422,0.014991883,0.032941844
20240215 11:52:38,-0.009076,-0.018377,-0.071487,-0.010822,0.010419,0.050666,-1.202969,-2.426456,-30.213318,10.550053,-0.065783344,-0.011063798,-0.021232525,0.039324995,0.0043505165,0.03075897
20240215 11:52:38,-0.026856,-0.024946,0.082580,-0.005495,0.008288,0.047470,-1.308743,-2.624725,-30.067459,10.545143,0.06420356,-0.03462203,0.06207258,0.038989387,0.003081758,0.024932811
20240215 11:52:38,0.002422,-0.043995,0.075097,0.022204,0.007223,0.038947,-0.857597,-2.122261,-29.827835,9.264708,0.07253217,-0.05112808,0.033454083,0.043797992,0.004361094,-0.0035955943
20240215 11:52:38,0.053889,-0.063860,-0.230753,0.050969,0.051967,0.021901,-1.414516,-2.822994,-29.921600,9.384517,-0.18179503,-0.04126317,-0.13825159,0.036241185,0.05181698,-0.04109768
20240215 11:52:38,0.086825,-0.033580,-0.292963,0.045642,0.062621,0.015509,-0.990650,-2.413700,-29.944092,8.123046,-0.22895586,-0.0055475496,-0.19466859,0.027293518,0.06274627,-0.039123982
20240215 11:52:38,0.153564,-0.068112,-0.378730,0.021139,0.065817,-0.007929,-1.220127,-3.000271,-29.640137,7.8639793,-0.27992123,-0.035535365,-0.28682742,-0.0035896609,0.066854276,-0.026111167
20240215 11:52:38,0.073933,0.020197,-0.413634,-0.042782,0.041314,-0.026039,-0.683327,-3.239655,-29.887131,9.71719,-0.35029507,0.0714702,-0.23003438,-0.04537961,0.041873816,0.026447497
20240215 11:52:38,-0.013122,0.146515,-0.387859,-0.068350,0.027464,-0.023909,-1.114357,-2.802006,-29.786011,10.532063,-0.37447852,0.18881404,-0.15162854,-0.05226306,0.026568972,0.051175468
20240215 11:52:38,0.027689,0.152517,-0.234676,-0.116291,-0.022607,-0.017517,-0.938282,-2.977436,-29.772812,8.051489,-0.2139938,0.1723091,-0.13003078,-0.06205953,-0.025424087,0.10004755
20240215 11:52:38,0.266932,-0.071655,-0.022676,-0.154644,-0.091855,-0.030301,-1.132671,-2.800156,-30.054245,5.7101264,0.09932943,-0.06500106,-0.24685521,-0.09081994,-0.093682,0.1299272
20240215 11:52:38,0.264102,-0.089094,0.003730,-0.153578,-0.103573,-0.034562,-0.856827,-2.506035,-29.266876,5.519247,0.123552635,-0.08292163,-0.23191853,-0.09341471,-0.10537571,0.1272716
20240215 11:52:38,0.171090,0.004251,0.141692,-0.136533,-0.080136,-0.040954,-1.026123,-2.985664,-29.639160,8.269627,0.20424962,2.7848128E-4,-0.08643935,-0.09353244,-0.082196765,0.10733899
20240215 11:52:38,0.059665,0.007164,0.357363,-0.065154,-0.033260,-0.011125,-0.850433,-2.969204,-29.906433,7.696867,0.3411981,-0.016761916,0.11523468,-0.038255244,-0.034911238,0.054216806
20240215 11:52:38,0.076862,-0.073470,0.445580,-0.022540,-0.007692,0.000594,-1.432831,-2.821144,-30.189850,8.542932,0.43193126,-0.10057441,0.14832067,-0.009732982,-0.008539546,0.02062589
20240215 11:52:38,0.092656,-0.091377,0.440858,-0.003364,-0.000235,0.000594,-0.947247,-3.072456,-29.766693,7.6339035,0.43624806,-0.11795546,0.13453586,-0.001080818,-4.0182454E-4,0.0032483353
20240215 11:52:38,0.079296,-0.035880,0.495758,0.033923,0.001896,-0.002602,-1.530022,-2.732506,-30.330566,9.688658,0.4740323,-0.07178441,0.16791369,0.013859566,0.0035748503,-0.031143505
20240215 11:52:38,-0.099047,-0.007275,0.494265,0.060557,-0.009823,-0.005798,-1.026508,-2.793777,-29.919647,10.499791,0.38564876,-0.06458804,0.31854033,0.024713717,-0.005724162,-0.055152874
20240215 11:52:38,-0.107977,-0.004075,0.415039,0.091452,-0.028999,-0.001536,-1.263535,-2.341518,-29.817551,11.01749,0.31838924,-0.055245303,0.28158218,0.043336242,-0.023536205,-0.07964284
20240215 11:52:38,-0.095649,0.065119,0.194070,0.110628,-0.027934,0.004856,-1.096043,-2.803852,-29.517761,9.511895,0.12553416,0.041961282,0.16503274,0.055382777,-0.023139609,-0.09536733
20240215 11:52:38,0.001447,0.073125,0.011361,0.119151,-0.018346,0.005921,-1.071335,-3.268875,-29.889084,8.193813,0.0050726086,0.071995124,-9.6799294E-4,0.056781396,-0.01437345,-0.10461198
20240215 11:52:38,0.097124,0.035959,-0.200854,0.109563,-0.005561,0.002725,-1.396587,-2.632954,-29.933823,7.6056266,-0.14425503,0.051347647,-0.17296943,0.04829803,-0.0025650826,-0.09825356
20240215 11:52:38,0.191995,0.026486,-0.309225,0.080798,-0.000235,-0.008994,-1.229477,-2.903404,-29.914505,6.745873,-0.20703393,0.048848275,-0.30041614,0.024244864,0.0022968613,-0.07757106
20240215 11:52:38,0.208862,0.020740,-0.378142,0.043511,0.015746,-0.028170,-0.638115,-2.956444,-29.637207,6.100832,-0.26246423,0.051516615,-0.3434984,-0.009226177,0.018808508,-0.05178153
20240215 11:52:38,0.137857,0.023685,-0.304726,0.014747,0.021072,-0.035628,-1.096428,-2.611965,-29.798248,8.095096,-0.22129539,0.05262479,-0.25162894,-0.027886469,0.024337586,-0.02923686
20240215 11:52:38,0.047353,-0.036260,-0.166166,-0.002299,0.016811,-0.040954,-1.149830,-3.373970,-29.481079,9.282529,-0.12553492,-0.019163663,-0.11089471,-0.03926888,0.020299174,-0.016516639
20240215 11:52:38,0.008205,-0.082455,-0.000483,-0.004430,0.011484,-0.046281,-0.937897,-3.169323,-29.492340,9.678729,0.011459237,-0.08148477,-0.0014180054,-0.044335663,0.01582389,-0.017117402
20240215 11:52:38,-0.103436,-0.092788,0.110387,0.007289,0.006157,-0.046281,-1.220127,-3.000271,-29.640137,12.650111,0.062715635,-0.1129777,0.15014353,-0.0383451,0.012593381,-0.027527465
20240215 11:52:38,-0.220504,-0.103408,0.149690,0.026466,-0.004496,-0.038824,-0.947632,-2.880569,-30.047165,13.341236,0.046656497,-0.14069739,0.27343553,-0.021427214,0.0032951066,-0.040263206
20240215 11:52:38,-0.287045,-0.072056,0.171215,0.045642,-0.010888,-0.032432,-1.132286,-2.992043,-29.773788,14.090453,0.030781165,-0.11909756,0.33912864,-0.0060824305,-0.0022947607,-0.053746544
20240215 11:52:38,-0.263423,-0.061152,0.137331,0.088256,-0.013019,-0.029235,-0.956596,-2.975586,-30.041046,13.838441,0.013664626,-0.10196868,0.30173787,0.0154425185,-0.0014468511,-0.0902962
20240215 11:52:38,-0.233271,-0.020856,0.009867,0.095713,-0.004496,-0.028170,-1.131516,-3.375820,-29.212830,13.85759,-0.08941212,-0.038974762,0.2164516,0.017228557,0.006751927,-0.09762562
20240215 11:52:38,-0.189096,-0.026970,-0.054775,0.107432,0.000831,-0.027105,-0.832119,-2.971054,-29.638184,11.828937,-0.12597677,-0.031324454,0.15053055,0.02146565,0.011356516,-0.10855871
20240215 11:52:38,-0.069998,-0.061492,-0.219534,0.105301,0.006157,-0.031366,-1.167759,-3.564007,-29.468857,11.287505,-0.21993259,-0.038550068,-0.01918064,0.013919409,0.0154573675,-0.109169416
20240215 11:52:38,0.033735,-0.078435,-0.355577,0.088256,0.026399,-0.034562,-1.168144,-3.372124,-29.749329,9.867848,-0.30255684,-0.04029861,-0.16541855,0.0010564476,0.03365862,-0.09631769
20240215 11:52:38,0.084657,-0.099525,-0.399442,0.062687,0.027464,-0.045216,-0.992069,-3.547554,-29.736130,9.503875,-0.32156473,-0.054276243,-0.22619164,-0.019501437,0.034670126,-0.076950125
20240215 11:52:38,0.074590,-0.133021,-0.534274,0.038184,0.056229,-0.053738,-1.204002,-3.752201,-29.724884,11.5832,-0.44257322,-0.060811907,-0.2608819,-0.04138371,0.06445902,-0.059940014
20240215 11:52:38,-0.101769,0.010132,-0.472533,0.006224,0.083928,-0.042020,-1.220127,-3.000271,-29.640137,14.702469,-0.46880502,0.08275038,-0.08687429,-0.0497762,0.09006682,-0.030046077
20240215 11:52:38,-0.239678,0.102224,-0.343701,-0.021475,0.100973,-0.020713,-1.150600,-2.990192,-30.042023,15.173955,-0.42337084,0.14231667,0.074437186,-0.045102585,0.10105646,8.922871E-4
20240215 11:52:38,-0.175502,0.044687,-0.211967,-0.034259,0.107365,0.000594,-0.815346,-2.205349,-30.491837,12.657228,-0.269716,0.06419162,0.06999347,-0.030028006,0.10338057,0.02167464
20240215 11:52:38,-0.116580,0.014694,-0.107065,-0.047043,0.100973,0.012313,-0.797031,-2.207199,-30.223602,10.984506,-0.14740142,0.021218862,0.059585396,-0.021879476,0.09556639,0.03952875
20240215 11:52:38,0.006244,0.011815,0.042300,-0.055566,0.077536,0.015509,-0.781673,-2.575348,-30.869263,8.908157,0.039348703,0.007921318,0.011998313,-0.018194309,0.072908506,0.051344536
20240215 11:52:38,0.080964,-0.042922,0.228662,-0.049174,0.047706,0.002725,-0.638885,-2.572666,-30.198166,9.047686,0.24357645,-0.061644293,0.03303451,-0.024668995,0.044593822,0.041674867
20240215 11:52:38,0.053094,-0.042818,0.258566,-0.038521,0.021072,-0.007929,-0.523766,-2.471268,-30.069656,9.074307,0.25778547,-0.06701689,0.07021068,-0.026553985,0.019717537,0.029414285
20240215 11:52:38,0.008994,-0.045278,0.218252,-0.033194,0.025334,-0.014321,-0.620956,-2.382629,-30.210388,9.862634,0.2022883,-0.069086045,0.09270131,-0.030543689,0.024845712,0.02126676
20240215 11:52:38,-0.021691,-0.017046,0.325868,-0.021475,0.033856,-0.020713,-0.928932,-3.074303,-29.498444,9.303174,0.27966553,-0.04845368,0.16794191,-0.03131434,0.034569446,0.0072086332
20240215 11:52:38,0.076615,0.007866,0.347405,-0.000168,0.041314,-0.027105,-0.601875,-2.768257,-29.381210,8.460442,0.3418805,-0.020965755,0.08722675,-0.027950421,0.04360891,-0.014782352
20240215 11:52:38,0.015462,0.035760,0.280825,0.014747,0.055163,-0.027105,-1.202198,-2.810234,-29.652374,11.441784,0.25135437,0.003959857,0.10720678,-0.023695394,0.058688153,-0.0300861
20240215 11:52:38,-0.070028,-0.017565,0.235413,0.017943,0.059425,-0.019647,-0.877712,-3.062374,-30.168579,12.002386,0.1779072,-0.053097572,0.16865808,-0.016988566,0.062565796,-0.030329518
20240215 11:52:38,-0.093411,0.038857,0.297148,0.016877,0.034922,-0.005798,-0.656044,-3.146484,-29.624985,11.142798,0.21468723,-0.005062226,0.21226603,-0.0018529953,0.03638798,-0.020685736
20240215 11:52:38,0.004384,0.053848,0.308178,0.024335,0.001896,0.001660,-0.762207,-3.152866,-29.759613,10.375591,0.26859367,0.018647484,0.12859224,0.012241785,0.0030912552,-0.021129709
20240215 11:52:38,0.049124,-0.016644,0.158683,0.030727,-0.019411,0.000594,-0.586132,-3.328297,-29.746399,8.590051,0.16490167,-0.02955579,0.025957432,0.015915873,-0.017902397,-0.026064662
20240215 11:52:38,0.094524,-0.057706,-0.007020,0.024335,-0.017280,-0.007929,-0.762207,-3.152866,-29.759613,8.686121,0.03971785,-0.052490164,-0.08460721,0.004955831,-0.01534691,-0.024222543
20240215 11:52:38,0.107442,-0.010289,-0.054462,0.025400,0.008288,-0.023909,-1.150215,-3.182083,-29.761566,10.641085,-0.0017183609,0.001287925,-0.11919939,-0.011473744,0.012150775,-0.033671584
20240215 11:52:38,0.009247,0.036334,-0.036880,0.033923,0.045575,-0.028170,-0.683327,-3.239655,-29.887131,11.468605,-0.03379336,0.04146047,-0.027029213,-0.016626855,0.051010575,-0.04641158
20240215 11:52:38,-0.068806,-0.031956,-0.018641,0.047773,0.059425,-0.029235,-0.480740,-2.938133,-30.172745,13.473127,-0.040604644,-0.033742797,0.057620257,-0.015537913,0.06712122,-0.061266854
20240215 11:52:38,-0.197506,-0.014069,-0.079829,0.052034,0.062621,-0.029235,-0.586517,-3.136406,-30.026871,14.019862,-0.15225542,-0.015988676,0.14750257,-0.0147657795,0.07073532,-0.06558137
20240215 11:52:38,-0.191760,0.005360,-0.135118,0.048838,0.037052,-0.021778,-0.929317,-2.882420,-29.778931,14.867378,-0.20121919,0.0136354305,0.119537316,-0.005666649,0.04413296,-0.05712062
20240215 11:52:38,-0.171260,0.052994,-0.270627,0.037119,0.007223,-0.015386,-0.938667,-2.785549,-30.053268,14.267661,-0.3214336,0.08542581,0.04551389,-7.686019E-5,0.012529706,-0.04069825
20240215 11:52:38,-0.115220,0.022693,-0.341319,0.008355,-0.009823,-0.004732,-0.744663,-2.770939,-30.052292,12.347896,-0.35795468,0.066006996,-0.031166054,5.774675E-4,-0.008425172,-0.008661851
20240215 11:52:38,0.040271,-0.031932,-0.338075,-0.016148,-0.020476,-0.002602,-0.638500,-2.764557,-29.917694,9.60669,-0.2872859,0.009338303,-0.16862483,-0.00648888,-0.020830005,0.015130677
20240215 11:52:38,0.154777,-0.068059,-0.329777,-0.040651,-0.009823,-0.003667,-0.656429,-2.954594,-29.905457,8.61421,-0.2298224,-0.027821481,-0.26977295,-0.0188677,-0.011203916,0.036268417
20240215 11:52:38,0.199787,-0.138316,-0.259663,-0.053436,0.011484,-0.013255,-0.674744,-2.952744,-30.173721,6.988898,-0.1426607,-0.1110923,-0.28140664,-0.034962837,0.010607039,0.04266463
20240215 11:52:38,0.248166,-0.164389,-0.205412,-0.044913,0.046641,-0.033497,-0.497902,-3.511951,-29.599564,7.0995455,-0.06913971,-0.13770661,-0.3020717,-0.052846797,0.04750464,0.024570037
20240215 11:52:38,0.254658,-0.105445,-0.138921,-0.027867,0.086058,-0.050542,-0.674744,-2.952744,-30.173721,7.153194,-0.010152817,-0.08505829,-0.2834921,-0.06410207,0.08866704,-3.4236908E-4
20240215 11:52:38,0.221202,-0.128232,-0.131160,-0.017214,0.112692,-0.069719,-0.710220,-3.524712,-29.868790,8.461248,-0.0134182945,-0.105737135,-0.24731192,-0.080681466,0.117858775,-0.020340025
20240215 11:52:38,0.119883,-0.037521,-0.127590,-0.021475,0.116954,-0.084634,-0.815994,-3.722984,-29.722931,11.146424,-0.059297416,-0.0141082425,-0.15843448,-0.09975834,0.12520847,-0.02508081
20240215 11:52:38,-0.070971,-0.014007,-0.110644,-0.040651,0.105235,-0.087830,-0.534531,-3.508251,-30.136063,15.192687,-0.1256555,6.4363703E-4,0.019426856,-0.114748344,0.11573657,-0.011904668
20240215 11:52:38,-0.379753,-0.025273,0.091158,-0.066220,0.082862,-0.059065,-0.374199,-3.123646,-29.757660,17.350807,-0.08948813,-0.08605607,0.38097394,-0.09905335,0.08578633,0.021828527
20240215 11:52:38,-0.501155,0.049068,0.391670,-0.060893,0.020007,-0.015386,-0.841854,-2.682297,-30.193024,18.37522,0.091303304,-0.092931025,0.60953474,-0.04593412,0.015816117,0.04406677
20240215 11:52:38,-0.414683,0.090811,0.329940,-0.035325,-0.066286,0.043208,-0.559624,-2.851349,-30.045212,16.1798,0.077629715,-0.017569534,0.5022893,0.034131836,-0.07665754,0.058930673
20240215 11:52:38,-0.350389,0.074026,0.304039,-0.035325,-0.087593,0.058123,-0.559624,-2.851349,-30.045212,14.736983,0.091036364,-0.012984443,0.43758446,0.04987207,-0.099319495,0.067390546
20240215 11:52:38,-0.131697,0.043282,0.228772,-0.038521,-0.118488,0.073038,-0.277390,-3.020397,-29.897400,10.894315,0.13779867,0.0026741344,0.2143815,0.0635906,-0.12967217,0.076434776
20240215 11:52:38,0.088503,0.067468,0.095256,-0.049174,-0.115292,0.045339,-0.328991,-2.840435,-29.507751,6.6549873,0.118244745,0.062921815,-0.04272645,0.02897086,-0.120354764,0.06946601
20240215 11:52:38,0.256882,0.056070,-0.010381,-0.054501,-0.099312,0.027228,-0.720337,-3.044067,-30.704086,7.302746,0.097172044,0.06621148,-0.23925054,0.008663598,-0.10308255,0.06626728
20240215 11:52:38,0.290033,0.033645,0.038739,-0.054501,-0.052437,-0.007929,-0.540924,-3.045082,-29.496490,6.218024,0.15950367,0.04040449,-0.2454685,-0.027473032,-0.053536095,0.048031557
20240215 11:52:38,0.215868,0.033105,0.123141,-0.043847,-0.013019,-0.036693,-0.622375,-3.516483,-30.002411,8.79525,0.20220394,0.031312257,-0.14177242,-0.050864734,-0.011477409,0.024105456
20240215 11:52:38,0.106952,0.077111,0.169783,-0.023606,0.021072,-0.042020,-0.710606,-3.332825,-30.149261,10.181702,0.18984573,0.063430585,-0.02639439,-0.05022367,0.024299439,7.7917986E-4
20240215 11:52:38,-0.017993,0.102773,0.269538,0.001963,0.030660,-0.032432,-0.497520,-3.703842,-29.319092,11.449735,0.2151826,0.064630195,0.1274378,-0.03169307,0.034754463,-0.019057961
20240215 11:52:38,-0.080358,0.084171,0.256256,0.031792,0.010419,-0.007929,-0.515831,-3.701992,-29.587326,11.879339,0.17857999,0.04170897,0.17637284,0.0057764677,0.01362299,-0.032861724
20240215 11:52:38,-0.054887,0.050646,0.023409,0.047773,-0.001300,0.011248,-0.656429,-2.954594,-29.905457,11.431128,-0.00943478,0.04338457,0.055128925,0.030675583,2.5537668E-4,-0.03834525
20240215 11:52:38,0.034589,0.014480,-0.128745,0.042446,0.000831,0.017640,-0.534531,-3.508251,-30.136063,10.448206,-0.10293792,0.0325533,-0.08575023,0.03360111,0.001079795,-0.031271733
20240215 11:52:38,0.101130,0.043155,-0.177592,0.024335,0.000831,0.016574,-0.611221,-2.671387,-29.655548,9.875746,-0.12283836,0.06914539,-0.1680544,0.024999186,1.899827E-4,-0.015349966
20240215 11:52:38,0.100539,0.057849,-0.170565,0.007289,-0.010888,0.006986,-1.168144,-3.372124,-29.749329,11.079572,-0.11854693,0.08247753,-0.16581051,0.010598896,-0.011221338,-0.0028942719
20240215 11:52:38,0.095594,0.049534,-0.186554,-0.007626,-0.019411,-0.005798,-0.630959,-3.803394,-29.715836,10.123115,-0.13399667,0.07630143,-0.16718802,-0.006118369,-0.018976243,0.005970084
20240215 11:52:38,0.096238,0.037296,-0.072915,-0.011887,-0.034326,-0.014321,-0.419407,-3.406853,-30.007553,9.313676,-0.028221492,0.0503836,-0.12040163,-0.014065966,-0.0330799,0.007053136
20240215 11:52:38,0.058743,0.020797,-0.032778,-0.002299,-0.050306,-0.020713,-0.728920,-3.330975,-30.417496,11.375973,-0.007004937,0.028575096,-0.06858929,-0.012857654,-0.04716909,-0.0023523374
20240215 11:52:38,-0.082177,0.167156,-0.122339,0.020073,-0.052437,-0.017517,-0.728149,-3.714752,-29.856552,13.650362,-0.17096472,0.17847028,0.010033049,0.0011496525,-0.047205683,-0.020213936
20240215 11:52:39,-0.136092,0.187008,-0.324247,0.031792,-0.026868,0.003790,-0.656429,-2.954594,-29.905457,14.29023,-0.37948847,0.23104593,-0.019295469,0.020950124,-0.024532449,-0.025023265
20240215 11:52:39,-0.168731,0.161342,-0.384697,0.030727,0.001896,0.036816,-0.849670,-3.352985,-29.345505,15.546139,-0.4431428,0.21741393,-0.0081979185,0.044851847,-0.002653929,-0.0144453095
20240215 11:52:39,-0.278811,0.282733,-0.394558,0.021139,0.010419,0.076234,-0.808182,-3.052296,-30.570465,16.231586,-0.52107346,0.3319725,0.07658206,0.07452706,-0.0035794126,0.008163491
20240215 11:52:39,-0.231829,0.269735,-0.379253,0.007289,0.004027,0.133763,-0.699070,-2.679615,-29.521927,14.452054,-0.481915,0.31646812,0.047086433,0.123064265,-0.020173796,0.04264653
20240215 11:52:39,-0.042384,0.292225,-0.509494,0.010485,0.013615,0.143351,-0.781288,-2.767239,-30.588791,10.932832,-0.52415913,0.35584354,-0.1639961,0.13397384,-0.0053815087,0.04082723
20240215 11:52:39,0.206788,0.226836,-0.677085,0.010485,0.050902,0.140155,-0.781288,-2.767239,-30.588791,8.928322,-0.5760248,0.30616862,-0.44808525,0.12812431,0.036049835,0.037583023
20240215 11:52:39,0.260177,0.221863,-0.672417,-0.011887,0.059425,0.122044,-0.630692,-2.093872,-30.765213,5.8036613,-0.5517221,0.2731398,-0.48619324,0.10581941,0.050751343,0.051618166
20240215 11:52:39,0.406762,0.116583,-0.773692,-0.053436,0.065817,0.093280,-0.400444,-1.891071,-30.508224,3.0833259,-0.58249587,0.14774665,-0.65663016,0.06598029,0.061951715,0.08175056
20240215 11:52:39,0.561049,-0.158560,0.159788,-0.099246,-0.020476,0.048535,-0.381744,-2.084808,-29.959503,9.438461,0.39004895,-0.14655696,-0.43976486,0.0066078193,-0.03153843,0.111472316
20240215 11:52:39,0.111953,0.307067,-0.298343,-0.139729,-0.031130,0.029359,-0.851204,-2.585426,-30.467377,7.4429965,-0.25912938,0.33404452,-0.22910541,-0.022457175,-0.038030017,0.14200333
20240215 11:52:39,0.324435,0.278441,-0.654138,-0.147186,0.115888,0.052796,-0.364582,-1.510990,-30.532669,0.9895428,-0.5006131,0.28130376,-0.5341547,-0.002376087,0.115489416,0.15565483
20240215 11:52:39,0.759255,-0.198467,-0.912115,-0.100311,0.339611,0.044274,-0.622757,-3.324596,-30.282898,-7.308552,-0.5898298,-0.34750235,-1.0459244,0.0466639,0.3469694,0.12515903
20240215 11:52:39,1.018755,-0.577086,-0.755317,-0.038521,0.501544,0.009117,-0.208241,-2.818432,-30.579758,-7.1706457,-0.3298621,-0.70161784,-1.2654175,0.04571788,0.50094277,0.064426504
20240215 11:52:39,0.805881,-0.759955,-0.247787,0.012616,0.563334,-0.053738,-0.138329,-3.000240,-30.701157,26.824825,0.45623618,-0.47191337,-0.6322576,-0.21796979,0.54217005,-0.16437346
20240215 11:52:39,-1.504440,0.549609,1.005191,0.079733,0.468518,0.001660,0.331520,-2.691509,-29.912811,25.322617,-0.17948776,-0.08635306,1.6316389,-0.099551,0.45163295,-0.17362487
20240215 11:52:39,-1.386250,0.398112,1.195499,0.156438,0.291671,0.113521,0.207047,-2.696041,-30.315659,25.360329,0.13924295,-0.26542383,1.6556273,0.07713763,0.26403916,-0.14651725
20240215 11:52:39,-1.188045,0.558337,0.552105,0.251254,0.220292,0.178507,0.338676,-3.538456,-29.991425,21.738182,-0.21064594,0.1921354,1.2035519,0.19482167,0.19058113,-0.19011402
20240215 11:52:39,-0.539832,0.406003,-0.254271,0.348201,0.321500,0.247755,0.356609,-3.348415,-30.003647,16.906939,-0.53443164,0.39838424,0.35969818,0.2739668,0.28397033,-0.2663894
20240215 11:52:39,-0.462777,0.287728,-0.047848,0.316240,0.312978,0.123109,0.365574,-3.253399,-30.009750,16.748156,-0.30355686,0.23833644,0.36706775,0.16490734,0.30717817,-0.27594775
20240215 11:52:39,-0.844476,0.528138,-0.066773,0.186268,0.067948,0.158266,0.444839,-3.532078,-29.856812,26.201567,-0.58064854,0.37436143,0.6663695,0.17946267,0.03167962,-0.12873936
20240215 11:52:39,-0.859466,0.693910,-0.715907,0.072276,-0.082267,0.265866,0.692245,-2.755463,-30.172989,21.06965,-1.1461895,0.78851783,0.5110129,0.28612363,-0.1573306,0.022788242
20240215 11:52:39,-0.318617,0.460536,-0.960850,-0.049174,-0.136599,0.297826,0.514751,-3.713890,-29.978210,14.920649,-1.0929449,0.6498514,-0.029212773,0.29047215,-0.20727295,0.14887914
20240215 11:52:39,-0.042836,0.134755,-1.141702,-0.131206,-0.163233,0.293565,0.242905,-2.315964,-30.340118,10.75123,-1.1086963,0.32899716,-0.29748693,0.2654998,-0.21867342,0.21945778
20240215 11:52:39,0.223184,-0.064341,-1.396920,-0.187669,-0.122750,0.311676,0.064640,-2.890610,-30.706299,3.4448848,-1.2759361,0.017696768,-0.5966624,0.25448948,-0.14302997,0.26795572
20240215 11:52:39,0.570828,-0.265105,-1.500573,-0.229218,-0.023672,0.305284,0.277344,-3.069736,-30.156601,-6.185616,-1.2922591,-0.40976986,-0.98120415,0.22384101,0.00902101,0.30561084
20240215 11:52:39,0.853557,-0.605563,-1.355457,-0.251590,0.066882,0.260539,-0.101315,-3.195827,-29.884201,-8.956948,-1.0753007,-0.8259197,-1.2720346,0.17150402,0.11389221,0.32480362
20240215 11:52:39,0.897464,-0.965532,-1.123430,-0.255852,0.127607,0.185965,0.540882,-3.045052,-30.557510,-9.49629,-0.8338358,-1.1366003,-1.2935369,0.0954695,0.1612539,0.31230718
20240215 11:52:39,0.814384,-1.037166,-0.860814,-0.253721,0.169156,0.093280,0.516560,-2.771923,-29.905716,-5.198963,-0.5417928,-1.1051786,-1.1168857,-0.0014202595,0.18042824,0.27582532
20240215 11:52:39,0.483158,-0.898026,-0.696133,-0.227087,0.198985,0.016574,0.101269,-2.894306,-30.169815,2.9810357,-0.41444358,-0.85597247,-0.6957362,-0.08130734,0.19366057,0.21194056
20240215 11:52:39,0.114645,-0.647994,-0.681525,-0.175951,0.254384,-0.010059,0.383121,-2.871468,-30.302460,8.156229,-0.49835277,-0.54789674,-0.3259485,-0.10835392,0.24397741,0.145589
20240215 11:52:39,-0.122127,-0.417454,-0.678487,-0.113095,0.340677,-0.005798,0.558811,-2.855011,-30.569733,11.925459,-0.58289164,-0.29102546,-0.10596079,-0.111975886,0.32601961,0.075812995
20240215 11:52:39,-0.312383,-0.309585,-0.643149,-0.061958,0.408859,0.010182,1.122509,-2.809330,-30.835037,14.724346,-0.6177361,-0.17401457,0.08093396,-0.1138215,0.38581795,0.021288361
20240215 11:52:39,-0.570897,-0.304229,-0.711329,-0.045978,0.442950,0.040012,1.274258,-2.711632,-30.170059,19.213694,-0.7430184,-0.13917196,0.3090252,-0.12016179,0.39892858,0.0012036972
20240215 11:52:39,-0.715333,-0.277864,-0.778270,-0.048109,0.471715,0.073038,0.965134,-2.827641,-30.299530,21.606583,-0.84819853,-0.09547073,0.4288288,-0.113253176,0.40865982,0.004742615
20240215 11:52:39,-0.785013,-0.017371,-0.818841,-0.054501,0.484499,0.117783,0.877670,-3.027760,-29.885422,24.00426,-0.98416007,0.16866037,0.45272794,-0.09734646,0.39399883,0.017262686
20240215 11:52:39,-0.925541,0.075182,-0.817007,-0.077939,0.469584,0.172115,1.344177,-2.893444,-30.291458,24.342737,-1.0667493,0.23703331,0.56495607,-0.06400885,0.34954542,0.058335587
20240215 11:52:39,-0.899374,0.115813,-0.648046,-0.116291,0.402467,0.222187,1.307549,-2.889744,-30.827957,21.240477,-0.94620395,0.1968241,0.5748657,0.010149449,0.28389394,0.13099992
20240215 11:52:39,-0.725545,0.214918,-0.473585,-0.137598,0.273560,0.257343,1.395390,-2.881516,-30.961594,14.940206,-0.7509676,0.2514845,0.4770304,0.10738833,0.18339191,0.19483392
20240215 11:52:39,-0.239913,0.500862,-0.598437,-0.147186,0.147849,0.270127,1.431633,-2.693329,-30.705566,7.764239,-0.71591735,0.5749124,-3.0721724E-4,0.17639524,0.09426342,0.22297046
20240215 11:52:39,0.177026,0.686099,-0.889441,-0.162101,0.059425,0.255212,1.634987,-2.775581,-30.430237,-0.67815334,-0.8187962,0.7239654,-0.43985546,0.19023818,0.046860293,0.23303926
20240215 11:52:39,0.600958,0.752268,-1.172073,-0.186604,0.001896,0.220056,1.671230,-2.587395,-30.174225,-9.5294,-0.876225,0.6189019,-0.8682382,0.15738052,0.028306287,0.24047583
20240215 11:52:39,0.841431,0.922446,-1.470860,-0.219630,0.001896,0.167854,1.625637,-2.678719,-30.704590,-12.214503,-1.063196,0.6695236,-1.1272833,0.105583385,0.034194045,0.2539764
20240215 11:52:39,0.847280,1.215852,-1.733694,-0.260113,0.037052,0.132697,1.855885,-2.475914,-30.447601,-9.580113,-1.3740225,1.0239022,-1.1636572,0.07393152,0.055438254,0.28421214
20240215 11:52:39,0.508072,1.460374,-1.966299,-0.329361,0.084993,0.136959,1.846535,-2.379047,-30.721954,0.69173396,-1.9194697,1.6018728,-0.90059733,0.060868606,0.07038064,0.35010955
20240215 11:52:39,0.158474,1.514004,-2.035316,-0.434830,0.126542,0.181703,1.652531,-2.393658,-30.722931,6.5533376,-2.1643207,1.8224481,-0.6376081,0.05911602,0.08046168,0.46071807
20240215 11:52:39,0.031503,1.390462,-1.860544,-0.557345,0.116954,0.228579,1.954884,-1.622589,-30.234375,3.9965022,-1.9476426,1.6141186,-0.54033494,0.058493897,0.068144865,0.59542096
20240215 11:52:39,0.067832,1.090902,-1.654215,-0.689448,0.072209,0.241363,1.997135,-1.705681,-30.898376,0.6708212,-1.6439464,1.2091917,-0.53091073,0.033193916,0.039945237,0.72918826
20240215 11:52:39,0.310049,0.705083,-1.355116,-0.821552,0.030660,0.210468,2.085365,-1.889339,-30.751541,-4.7688103,-1.1705093,0.69236106,-0.71929395,-0.07241702,0.03497705,0.845564
20240215 11:52:39,0.505891,0.269016,-0.943330,-0.916367,-0.022607,0.125240,1.663689,-1.548561,-30.376068,-6.7526402,-0.6562537,0.21380875,-0.819751,-0.24456024,0.0018030223,0.890921
20240215 11:52:39,0.559367,-0.130105,-0.549194,-0.955785,-0.062025,-0.000471,1.839764,-1.723991,-30.362869,-6.3876953,-0.2469293,-0.15712182,-0.750214,-0.42767105,-0.04643925,0.8527103
20240215 11:52:39,0.454712,-0.303782,-0.183839,-0.916367,-0.069482,-0.112333,1.999325,-0.955601,-30.545410,-3.5868106,0.06396291,-0.29932374,-0.4957567,-0.5436554,-0.07352244,0.7436527
20240215 11:52:39,0.204092,-0.378253,0.150392,-0.793852,-0.047110,-0.198626,2.156700,-0.937294,-31.080933,-0.21991262,0.25566703,-0.37889573,-0.09679067,-0.5796574,-0.06307772,0.57447994
20240215 11:52:39,-0.157620,-0.355468,0.348196,-0.597828,-0.014084,-0.248697,1.983582,-0.395565,-30.180206,6.0223985,0.255334,-0.4094674,0.3363943,-0.52253157,-0.029970173,0.37786886
20240215 11:52:39,-0.599413,-0.189075,0.195706,-0.358125,0.057294,-0.240174,2.008671,-1.052471,-30.271057,12.477618,-0.09534326,-0.30007663,0.6349862,-0.3930291,0.06260001,0.18635544
20240215 11:52:39,-0.906797,0.118272,-0.288849,-0.115226,0.168090,-0.173057,1.841179,-0.590134,-30.570831,16.699245,-0.6871768,0.064729206,0.668922,-0.24570322,0.19173603,0.0061906353
20240215 11:52:39,-0.829064,0.293659,-0.897124,0.092517,0.308716,-0.091026,2.228802,-0.369026,-30.849365,14.232443,-1.1945361,0.42730936,0.3897274,-0.1271432,0.33043638,-0.14981738
20240215 11:52:39,-0.488487,0.408838,-1.357684,0.227816,0.426970,-0.039889,2.353279,-0.364498,-30.446503,9.869943,-1.4972273,0.65687907,-0.03483814,-0.05091502,0.4425339,-0.25277278
20240215 11:52:39,-0.061065,0.432011,-1.634461,0.280018,0.481303,-0.037758,2.669182,-0.903545,-30.676117,2.0914555,-1.6013994,0.61258626,-0.48521948,0.0019688793,0.49320748,-0.2826148
20240215 11:52:39,0.312271,0.405901,-1.646926,0.261908,0.428035,-0.082503,3.029911,-0.967499,-30.936295,-2.8267627,-1.4774249,0.49063534,-0.81698096,-0.014854245,0.4357993,-0.2677288
20240215 11:52:39,0.429939,0.410469,-1.779527,0.191595,0.316174,-0.157077,3.084469,-0.781158,-30.412033,-2.7233675,-1.5812525,0.512375,-0.94827616,-0.10743308,0.3273732,-0.22586842
20240215 11:52:39,0.354681,0.581892,-1.821076,0.096779,0.201116,-0.217802,3.127102,-1.056141,-30.795578,0.99848026,-1.6870694,0.79437554,-0.88191366,-0.20039216,0.22751307,-0.15806854
20240215 11:52:39,0.194839,0.886721,-1.799525,0.011551,0.099908,-0.231652,2.908394,-0.605728,-30.425232,5.081545,-1.7871549,1.1900028,-0.73467314,-0.23159322,0.13846987,-0.08126776
20240215 11:52:39,-0.059753,1.110745,-1.876062,-0.032129,0.049837,-0.195430,2.721165,-1.275394,-30.785294,15.781765,-2.0746338,1.6554186,-0.5311064,-0.20165902,0.108088896,-0.025449242
20240215 11:52:39,-0.484035,1.326042,-2.065499,-0.049174,0.094581,-0.103810,2.721165,-1.275394,-30.785294,21.77949,-2.4760442,2.0007453,-0.19710335,-0.14297372,0.12272619,0.011134438
20240215 11:52:39,-0.619351,1.433173,-2.161907,-0.051305,0.185136,0.022967,3.232880,-0.857868,-30.941422,22.186493,-2.6490743,2.1478748,-0.10082421,-0.07584467,0.14810905,0.03602
20240215 11:52:39,-0.531613,1.402929,-2.001770,-0.061958,0.251187,0.144416,3.251194,-0.859718,-30.673187,14.5048065,-2.4111772,1.9160765,-0.1625394,0.030282378,0.18330917,0.081771985
20240215 11:52:39,-0.107281,1.071625,-1.695040,-0.100311,0.230946,0.212599,3.496796,-1.025070,-31.061874,4.114357,-1.7948477,1.3346238,-0.46658275,0.12682852,0.18557483,0.15782332
20240215 11:52:39,0.269040,0.745489,-1.362427,-0.178081,0.112692,0.198749,3.197021,-1.237946,-30.916977,-0.8242702,-1.2344847,0.86524785,-0.7329577,0.11206102,0.08989325,0.23778
20240215 11:52:39,0.422863,0.639607,-1.005543,-0.279289,-0.076940,0.147612,3.320721,-0.849640,-31.075073,-2.1221173,-0.80962956,0.71702737,-0.76422393,0.03511037,-0.09434,0.31331924
20240215 11:52:39,0.282280,0.637082,-0.841170,-0.369844,-0.258049,0.099672,3.153999,-0.771080,-30.813904,0.20815721,-0.71751493,0.72648287,-0.5935608,-0.03073591,-0.28164914,0.37942258
20240215 11:52:39,0.138016,0.648359,-0.668362,-0.413523,-0.362453,0.070907,3.153999,-0.771080,-30.813904,2.1151845,-0.6234613,0.7320439,-0.41437244,-0.064509675,-0.39110348,0.41090778
20240215 11:52:39,-0.077417,0.775922,-0.407790,-0.383693,-0.412524,0.065581,3.065769,-0.587421,-30.960739,4.4271593,-0.5125662,0.8207657,-0.13256514,-0.046109032,-0.44438055,0.38789517
20240215 11:52:39,-0.198567,0.853058,-0.344456,-0.273963,-0.402936,0.078365,2.880730,-0.507008,-30.967834,4.901619,-0.521693,0.87879294,-3.6363304E-4,0.012769833,-0.42900965,0.2956937
20240215 11:52:39,-0.137851,0.950359,-0.459253,-0.119487,-0.321970,0.099672,2.728596,-0.412819,-31.913300,3.7396286,-0.59541,0.9924721,-0.08922747,0.08270839,-0.33878124,0.15855944
20240215 11:52:39,0.042698,1.008622,-0.705433,0.040315,-0.198389,0.106064,2.801464,-0.228333,-31.120789,-0.59967613,-0.7049858,1.0587254,-0.31071812,0.12769751,-0.20431048,0.0035040863
20240215 11:52:39,0.341370,0.982820,-0.937183,0.161765,-0.076940,0.077299,2.959610,-0.593800,-31.095367,-4.7318873,-0.7579801,1.0014721,-0.63615525,0.1336281,-0.077134505,-0.123479426
20240215 11:52:39,0.485640,1.016820,-0.936485,0.211836,-0.000235,0.005921,2.677761,-0.616638,-30.962692,-4.7344756,-0.68969464,1.0278064,-0.7733263,0.08641459,5.5825175E-4,-0.19351572
20240215 11:52:39,0.380840,1.121262,-0.628987,0.205444,-0.009823,-0.086764,2.774570,-0.513390,-31.102448,-2.3182185,-0.47064775,1.1578965,-0.5861993,0.0055317655,-0.0012697442,-0.22309268
20240215 11:52:39,0.119949,1.398632,-0.165704,0.185202,-0.116358,-0.162404,2.968193,-0.306889,-31.381943,1.0508167,-0.23615462,1.4123081,-0.19082654,-0.053972118,-0.090610415,-0.23625147
20240215 11:52:39,-0.219319,1.717298,0.184082,0.167092,-0.263376,-0.200757,2.826557,-0.885235,-31.211624,5.912151,-0.21291044,1.6417087,0.19935134,-0.060299143,-0.21317232,-0.22626844
20240215 11:52:39,-0.617084,1.844940,0.404107,0.147915,-0.400806,-0.194364,2.808243,-0.883385,-31.479874,10.133147,-0.33018997,1.6349344,0.5823823,-0.013926074,-0.33071205,-0.1867697
20240215 11:52:39,-0.979175,1.913399,0.482408,0.123412,-0.523321,-0.135770,2.498734,-0.807507,-31.889832,13.854209,-0.52728844,1.5808669,0.87426996,0.074577495,-0.45044217,-0.11259173
20240215 11:52:39,-1.081346,1.939448,0.479018,0.104236,-0.593634,-0.039889,2.350704,-0.922688,-31.079956,12.971761,-0.55604196,1.6170672,0.9734489,0.15651354,-0.5489059,-0.048811622
20240215 11:52:39,-0.823556,1.822216,0.603292,0.105301,-0.609614,0.041077,2.138767,-1.127335,-31.068710,7.4109287,-0.1530692,1.6271071,0.89758795,0.18192884,-0.59728366,-0.03673292
20240215 11:52:39,-0.173509,1.783479,0.833285,0.139392,-0.612810,0.064515,2.147354,-0.840424,-31.355286,-1.8804008,0.590565,1.7495371,0.57228184,0.14397235,-0.61198115,-0.10215347
20240215 11:52:39,0.531617,1.819355,0.710333,0.192660,-0.592568,0.024032,1.572117,-1.539314,-31.717300,-7.8182974,0.98487264,1.8422196,-0.043938905,0.071896836,-0.5956963,-0.19751877
20240215 11:52:39,0.939919,1.836267,0.489557,0.212901,-0.528647,-0.051608,1.669312,-1.627953,-31.576584,-12.14589,1.0699073,1.8229635,-0.4586839,-0.014182866,-0.54262924,-0.26252928
20240215 11:52:39,1.108552,1.788785,0.437428,0.170288,-0.490295,-0.145358,1.387077,-1.458904,-31.724380,-12.595461,1.1213698,1.7531377,-0.62354946,-0.116918564,-0.5154735,-0.26387668
20240215 11:52:39,1.118935,1.718082,0.583871,0.082929,-0.511602,-0.240174,1.387077,-1.458904,-31.724380,-11.851095,1.2368684,1.7022299,-0.5642232,-0.2339937,-0.5409188,-0.23090637
20240215 11:52:39,0.980759,1.382008,0.616804,-0.009756,-0.540366,-0.336056,1.323559,-1.740265,-32.242554,-8.892191,1.1145725,1.3840384,-0.4813803,-0.34433728,-0.56505024,-0.18590695
20240215 11:52:39,0.575363,0.855198,0.247385,-0.075808,-0.483903,-0.409565,1.007652,-1.201214,-32.012924,-0.19829656,0.4576463,0.8559156,-0.401613,-0.387537,-0.47427246,-0.11698181
20240215 11:52:39,-0.107878,0.287059,-0.168262,-0.091788,-0.216500,-0.425545,0.689560,-1.412239,-32.136292,9.4165,-0.2383933,0.29904944,-0.0055973753,-0.38241762,-0.15975583,-0.10080835
20240215 11:52:39,-0.617142,-0.274655,0.080235,-0.049174,0.147849,-0.399977,0.759476,-1.594051,-32.257706,15.626754,-0.2112579,-0.36447814,0.60106933,-0.38339496,0.2192896,-0.18818486
20240215 11:52:39,-1.142242,-0.727428,0.809791,0.017943,0.423774,-0.362689,1.138134,-1.467960,-32.530090,20.260715,0.049895942,-1.0978329,1.5243467,-0.35605,0.49207067,-0.32066524
20240215 11:52:39,-1.629890,-1.038626,2.020124,0.076537,0.484499,-0.301965,0.883179,-1.205742,-32.415787,22.358284,0.38440132,-1.7436743,2.759704,-0.24417181,0.540684,-0.38621023
20240215 11:52:39,-1.681062,-1.371315,3.187304,0.156438,0.218162,-0.226325,1.120590,-1.849888,-32.237411,19.807617,0.9784758,-2.1640131,3.7172828,-0.061196566,0.27761522,-0.31916693
20240215 11:52:39,-1.253810,-1.427492,3.350421,0.220359,-0.220762,-0.176254,1.350067,-1.263317,-32.541351,13.775095,1.5038769,-2.0330985,3.488761,0.074037634,-0.160559,-0.23676129
20240215 11:52:39,-0.675407,-1.318816,2.575601,0.231012,-0.598960,-0.130444,1.146713,-1.181053,-32.816681,7.141916,1.5728906,-1.603538,2.3192484,0.1135254,-0.5629755,-0.20862982
20240215 11:52:39,0.113863,-1.093589,1.456929,0.215032,-0.781135,-0.088895,0.873833,-1.108875,-32.690140,-1.070287,1.2538973,-1.1068364,0.75566953,0.06271796,-0.7786912,-0.23465747
20240215 11:52:39,0.812845,-0.832589,0.597325,0.207575,-0.784331,-0.068653,0.467510,-1.136246,-32.960342,-9.00012,0.84840924,-0.8172258,-0.4513551,-0.027308539,-0.7984977,-0.27662465
20240215 11:52:40,1.269070,-0.701501,-0.092167,0.236339,-0.623463,-0.061196,0.371468,-1.623268,-32.259659,-15.109572,0.3948024,-0.83190125,-1.2449895,-0.0567439,-0.64464676,-0.31343547
20240215 11:52:40,1.489050,-0.605835,-0.594041,0.291737,-0.339015,-0.062261,0.404755,-1.801384,-32.917542,-18.62499,0.009658575,-0.9058985,-1.670135,-0.0045113564,-0.37665412,-0.33575913
20240215 11:52:40,1.586633,-0.541689,-0.727083,0.348201,-0.031130,-0.078241,0.510914,-1.795002,-32.782944,-18.258072,-0.04384321,-0.8773525,-1.8038383,0.08103329,-0.08887882,-0.34900045
20240215 11:52:40,1.404918,-0.556366,-0.536092,0.372704,0.170221,-0.112333,0.492985,-1.985039,-32.770706,-12.928733,0.08373839,-0.7478165,-1.5453209,0.09903936,0.11905122,-0.36417252
20240215 11:52:40,0.995515,-0.654888,-0.317452,0.339678,0.228815,-0.156012,0.651512,-2.542397,-32.464798,-4.787465,0.16182157,-0.6919376,-1.0526748,0.03336394,0.21347365,-0.36380327
20240215 11:52:40,0.450738,-0.724456,-0.155761,0.266169,0.184071,-0.174123,0.536388,-2.643799,-32.593292,2.7850993,0.114761695,-0.7031124,-0.4535826,-0.035115004,0.19980502,-0.32115883
20240215 11:52:40,0.030413,-0.737479,-0.133074,0.171353,0.120150,-0.177319,0.448544,-2.652027,-32.459671,11.070427,0.012833372,-0.70324224,-0.021241646,-0.08777447,0.15991175,-0.24549615
20240215 11:52:40,-0.557092,-0.719616,-0.002406,0.062687,0.035987,-0.148554,0.808887,-2.524086,-33.000320,18.18935,-0.10962077,-0.7699034,0.592713,-0.09951252,0.07986742,-0.13150027
20240215 11:52:40,-1.019386,-0.687768,0.256834,-0.025736,-0.081201,-0.080372,0.579792,-3.302551,-32.415894,24.443367,-0.124711126,-0.9114928,1.1395851,-0.05283779,-0.056392364,0.0010413341
20240215 11:52:40,-1.477945,-0.485450,0.314104,-0.079004,-0.152579,0.028293,0.457893,-2.748898,-32.185318,28.659088,-0.37919655,-0.876924,1.5208577,0.032647252,-0.16627963,0.11915655
20240215 11:52:40,-1.750127,-0.234704,0.453394,-0.076873,-0.189867,0.185965,0.721809,-2.916092,-32.305740,29.106516,-0.5163784,-0.77307034,1.7483976,0.16777088,-0.255718,0.20237738
20240215 11:52:40,-1.756129,-0.177432,0.500232,-0.026802,-0.236742,0.375597,0.288597,-3.228527,-32.557602,27.55471,-0.48368248,-0.6916817,1.7671311,0.3570143,-0.34753287,0.25771344
20240215 11:52:40,-1.221218,-0.400887,0.267029,0.026466,-0.293205,0.533268,0.182819,-3.426788,-32.411743,18.806358,-0.30166167,-0.61526906,1.2468653,0.52484596,-0.40316895,0.2800088
20240215 11:52:40,-0.461170,-0.843802,-0.107471,0.044576,-0.360322,0.605712,-0.136040,-3.254044,-33.096054,7.5970025,-0.23334998,-0.852175,0.4085818,0.5853774,-0.412827,0.26756436
20240215 11:52:40,0.339844,-1.228336,-0.501943,0.017943,-0.423178,0.593993,-0.177906,-3.362839,-32.151566,-6.083056,-0.38947597,-1.2797569,-0.5919026,0.4973869,-0.37225077,0.23597006
20240215 11:52:40,0.983108,-1.452240,-0.716432,-0.021475,-0.494556,0.513027,-0.418274,-3.084991,-33.243851,-16.673847,-0.4859864,-1.6835165,-1.3831015,0.31679118,-0.35897255,0.18147215
20240215 11:52:40,1.424291,-1.512825,-0.855061,-0.067285,-0.568065,0.384120,-0.760303,-3.214779,-32.434967,-22.576868,-0.5138854,-1.9145153,-1.8987513,0.11088377,-0.40200585,0.12318052
20240215 11:52:40,1.569209,-1.350778,-0.908656,-0.104572,-0.647966,0.237102,-1.087746,-3.328941,-32.832687,-23.091673,-0.4919616,-1.8163505,-2.0163264,-0.06425415,-0.5064386,0.07710404
20240215 11:52:40,1.419798,-1.144251,-1.112970,-0.121618,-0.663947,0.108194,-0.875427,-3.316181,-32.563461,-20.984098,-0.74595183,-1.6197975,-1.8823847,-0.16417523,-0.57302624,0.056410648
20240215 11:52:40,1.033052,-0.889845,-1.486866,-0.101376,-0.558477,0.031489,-1.439507,-3.169968,-32.578613,-15.054753,-1.2146593,-1.3431982,-1.5463178,-0.15280858,-0.51830846,0.055409394
20240215 11:52:40,0.720716,-0.515452,-1.873713,-0.044913,-0.335819,0.018705,-1.396873,-3.444942,-32.962143,-12.874496,-1.6393872,-0.9954016,-1.2672446,-0.07545809,-0.31762666,0.025978465
20240215 11:52:40,0.678567,-0.302544,-2.003065,0.019008,-0.038587,0.042143,-1.351665,-3.161736,-32.712250,-14.106237,-1.7071406,-0.8534463,-1.2632971,0.034738056,-0.02808847,-0.008461819
20240215 11:52:40,0.805921,-0.403819,-1.739107,0.081864,0.225619,0.042143,-1.299679,-3.533588,-32.821426,-14.094714,-1.3805472,-0.88298655,-1.3886847,0.12153712,0.22063434,-0.042383164
20240215 11:52:40,0.789149,-0.495467,-1.152772,0.122347,0.361984,0.003790,-1.184940,-3.240299,-32.973404,-11.643025,-0.8011467,-0.77567637,-1.2227933,0.12345622,0.34387743,-0.08025042
20240215 11:52:40,0.849998,-0.538236,-0.619802,0.138327,0.358788,-0.055869,-1.087746,-3.328941,-32.832687,-11.511332,-0.25710657,-0.7166035,-1.0806522,0.07824528,0.32865036,-0.1159624
20240215 11:52:40,0.824153,-0.684092,-0.290412,0.130870,0.258645,-0.134705,-0.869419,-3.587460,-33.483490,-9.533867,0.04667324,-0.7809484,-0.9148513,-0.016761675,0.2256939,-0.15801434
20240215 11:52:40,0.692476,-0.692616,0.008257,0.109563,0.089255,-0.214606,-1.080971,-3.983994,-33.191772,-6.405413,0.26804003,-0.7279147,-0.6391214,-0.12348196,0.05880247,-0.19439861
20240215 11:52:40,0.595927,-0.532806,-0.006423,0.097844,-0.058829,-0.272135,-0.753525,-3.869835,-32.794052,-5.4782944,0.223065,-0.55892015,-0.55426466,-0.19954512,-0.08781376,-0.21514717
20240215 11:52:40,0.495927,-0.212866,-0.169921,0.112759,-0.118488,-0.290246,-0.895931,-4.064404,-33.184677,-2.4680817,0.048715264,-0.23576894,-0.5246001,-0.2194844,-0.1379783,-0.22900754
20240215 11:52:40,0.275582,0.102918,-0.481580,0.160699,-0.073744,-0.257220,-1.044727,-3.795807,-32.935745,1.6705973,-0.3389679,0.09958458,-0.4398964,-0.17660227,-0.0755529,-0.24600029
20240215 11:52:40,0.114874,0.468171,-0.816387,0.221424,0.083928,-0.175188,-1.063419,-3.602070,-33.484467,4.5967197,-0.7410642,0.50025785,-0.40660018,-0.089275144,0.09361575,-0.27101907
20240215 11:52:40,0.076135,0.700691,-0.812462,0.276822,0.283148,-0.061196,-0.896313,-3.872517,-33.465149,1.9109236,-0.73070496,0.7029444,-0.37536088,0.04314627,0.28360084,-0.2835144
20240215 11:52:40,0.286948,0.722250,-0.423552,0.314110,0.410990,0.022967,-0.886581,-4.161274,-32.910309,-2.1919048,-0.2301163,0.6907933,-0.4229924,0.17112206,0.40386176,-0.2712657
20240215 11:52:40,0.619604,0.548834,0.093905,0.318371,0.425905,0.040012,-0.686569,-4.417942,-33.829376,-7.058851,0.42033255,0.5209562,-0.4828584,0.22452529,0.409576,-0.24386594
20240215 11:52:40,0.892184,0.416920,0.485106,0.282149,0.293801,0.003790,-0.765831,-4.139267,-33.982330,-8.481007,0.89840734,0.41320163,-0.5291289,0.17428082,0.27195615,-0.22614528
20240215 11:52:40,0.944814,0.320561,0.639965,0.239535,0.128672,-0.063327,-0.095592,-4.279095,-33.832565,-10.091636,1.0499808,0.3329451,-0.49966702,0.076517,0.102302015,-0.22925636
20240215 11:52:40,0.936778,0.224143,0.716226,0.203313,-0.007692,-0.131509,-0.270897,-4.487446,-33.284805,-7.5733485,1.1001482,0.24209017,-0.45792985,-0.01583469,-0.032197718,-0.24155569
20240215 11:52:40,0.716674,0.306107,0.849563,0.218228,-0.097181,-0.193299,-0.528038,-4.975304,-33.523468,-2.8578465,1.1026207,0.32825112,-0.21692091,-0.07006678,-0.112379946,-0.2862618
20240215 11:52:40,0.343494,0.379784,0.683493,0.265104,-0.082267,-0.214606,-0.597954,-4.793491,-33.402069,2.1299567,0.7605746,0.37403584,0.0011953115,-0.06833015,-0.07829416,-0.3325022
20240215 11:52:40,0.072488,0.515782,0.558494,0.338613,0.064752,-0.198626,-0.600906,-5.159794,-34.315979,6.2315297,0.4971851,0.48057783,0.15847316,-0.02990818,0.088431604,-0.39431456
20240215 11:52:40,-0.183358,0.913330,0.680810,0.452605,0.274625,-0.151751,-0.502945,-5.632206,-33.614304,7.479052,0.4496798,0.8457698,0.41213176,0.043953076,0.30456752,-0.48814535
20240215 11:52:40,-0.037817,1.275998,0.867202,0.599623,0.467453,-0.088895,-0.485016,-5.442165,-33.626541,4.509801,0.7055554,1.2336301,0.3651058,0.15822741,0.48418114,-0.5947566
20240215 11:52:40,0.238858,1.383327,0.770443,0.712550,0.603818,-0.062261,-0.070114,-5.127899,-33.642914,-0.21839961,0.80641705,1.3864903,0.107168764,0.2441215,0.6019296,-0.67240334
20240215 11:52:40,0.493498,1.195521,0.574975,0.714680,0.614471,-0.081438,0.070484,-5.875294,-33.324799,-2.7196527,0.7666569,1.207002,-0.19545941,0.2364789,0.6002376,-0.67452604
20240215 11:52:40,0.601187,0.892930,0.329744,0.587904,0.534570,-0.147489,0.616638,-6.211544,-33.297424,-4.4817653,0.57768905,0.8951607,-0.39716846,0.11810726,0.5164868,-0.5821849
20240215 11:52:40,0.586924,0.698099,0.289191,0.388684,0.415251,-0.232717,0.465267,-6.501133,-33.681931,-1.0448654,0.50571704,0.6981291,-0.41100934,-0.051902488,0.4147425,-0.44685492
20240215 11:52:40,0.305442,0.603086,0.801541,0.202248,0.276756,-0.316879,0.711643,-7.050259,-33.509659,4.7324204,0.80326307,0.5512986,0.07233837,-0.20897222,0.3081274,-0.33508804
20240215 11:52:40,-0.143699,0.515443,1.277439,0.091452,0.114823,-0.371212,0.913841,-6.556843,-34.075745,11.269613,0.95005566,0.29251423,0.68129474,-0.29395562,0.17958309,-0.2664455
20240215 11:52:40,-0.698782,0.611278,1.341309,0.045642,0.032791,-0.370147,1.020386,-6.742359,-33.660660,18.395157,0.6412529,0.16500723,1.1332686,-0.29726118,0.12810674,-0.21452276
20240215 11:52:40,-1.112702,0.758290,1.308726,0.055230,0.054098,-0.304095,1.205044,-6.630886,-33.934036,22.793175,0.31600964,0.1319176,1.4139339,-0.2405066,0.15194565,-0.19278508
20240215 11:52:40,-1.330596,0.743629,1.087010,0.090386,0.125476,-0.189038,1.029350,-6.647335,-33.666779,26.120613,0.0052517056,0.07254869,1.4793081,-0.15420833,0.19669391,-0.1855377
20240215 11:52:40,-1.348110,0.719993,0.811782,0.098909,0.184071,-0.059065,1.381496,-6.998203,-33.640381,26.434105,-0.19688225,0.1195319,1.3881732,-0.07126862,0.20755458,-0.14855833
20240215 11:52:40,-1.299257,0.693551,0.407659,0.022204,0.207508,0.078365,0.914227,-6.748745,-33.795273,26.183191,-0.45756742,0.27198353,1.2037777,-2.6632845E-4,0.16585594,-0.029079787
20240215 11:52:40,-0.951555,0.533792,0.347160,-0.134402,0.185136,0.198749,1.265991,-6.907703,-34.049347,18.4014,-0.25677618,0.2951936,0.92700315,0.06331924,0.106640704,0.17758857
20240215 11:52:40,-0.494294,0.224788,0.749265,-0.322969,0.046641,0.250951,1.275726,-7.196468,-33.494507,10.683741,0.38047123,0.057344526,0.76328635,0.057880238,-0.022537893,0.3969922
20240215 11:52:40,-0.078462,-0.131294,1.053338,-0.501947,-0.152579,0.233906,1.044708,-7.015491,-34.312439,6.398693,0.8780945,-0.23999743,0.60146445,-0.036304474,-0.20399378,0.5593108
20240215 11:52:40,0.080254,-0.529506,1.215579,-0.642573,-0.311316,0.188096,1.001690,-6.548618,-34.209381,4.1257343,1.0999616,-0.6084639,0.60724896,-0.16733238,-0.35187805,0.65431005
20240215 11:52:40,0.127065,-0.737026,1.473093,-0.708625,-0.427439,0.132697,0.640961,-6.484676,-33.949188,4.765679,1.3345258,-0.82511294,0.75354636,-0.260588,-0.46609515,0.6805575
20240215 11:52:40,0.069314,-0.759770,1.565450,-0.693710,-0.462596,0.091149,0.774014,-6.193233,-33.832932,4.8233104,1.3724926,-0.86075985,0.86975086,-0.28970635,-0.500143,0.64368445
20240215 11:52:40,-0.000382,-0.740216,1.517687,-0.596763,-0.416786,0.079430,0.695129,-6.106441,-33.705414,6.3174176,1.3144901,-0.86350334,0.8879171,-0.23270096,-0.4549212,0.5647883
20240215 11:52:40,-0.138502,-0.722543,1.112572,-0.450810,-0.268702,0.092214,0.516102,-6.297314,-34.632523,8.157864,0.93336976,-0.8402724,0.76058483,-0.13607755,-0.30541262,0.45017028
20240215 11:52:40,-0.189682,-0.782661,0.844720,-0.305923,-0.048175,0.130567,0.394585,-5.935543,-34.121475,8.854059,0.6886436,-0.8800142,0.6733239,-0.05005119,-0.08275529,0.33130303
20240215 11:52:40,-0.175433,-0.961048,0.844592,-0.178081,0.114823,0.159331,0.730225,-5.342587,-34.290802,7.3276157,0.70347977,-1.0490266,0.6693301,0.024630219,0.086889476,0.22741824
20240215 11:52:40,-0.109249,-1.134552,0.726725,-0.089657,0.191528,0.156135,0.473850,-6.214222,-33.968506,6.857311,0.648198,-1.1975689,0.55409193,0.0658552,0.17200617,0.14676258
20240215 11:52:40,-0.025604,-1.322705,0.513260,-0.056632,0.185136,0.129501,0.597553,-5.825909,-34.126602,5.932027,0.52741706,-1.3596653,0.36448324,0.06428804,0.17086963,0.10612133
20240215 11:52:40,0.042906,-1.580392,0.232637,-0.075808,0.128672,0.089018,0.570660,-6.110966,-34.108276,4.973349,0.33084524,-1.5894872,0.15685658,0.026750147,0.11870821,0.10520456
20240215 11:52:40,0.138660,-1.795443,0.021795,-0.110964,0.040249,0.037881,0.834194,-6.086285,-34.509171,3.4054058,0.19722599,-1.787398,-0.052118927,-0.027532462,0.033900827,0.11327028
20240215 11:52:40,0.108209,-1.888691,-0.182458,-0.143990,-0.046045,-0.012190,0.815880,-6.084431,-34.777405,5.0863233,0.04805371,-1.8609651,-0.100880004,-0.07875775,-0.05152555,0.120708086
20240215 11:52:40,-0.002794,-1.844005,-0.391370,-0.150382,-0.081201,-0.035628,0.676052,-5.720814,-34.534607,6.955401,-0.15405138,-1.7914511,-0.076205805,-0.09440157,-0.08534461,0.12007769
20240215 11:52:40,-0.005367,-1.727841,-0.606613,-0.112030,-0.049241,-0.032432,0.736618,-5.805752,-34.930374,7.12717,-0.3504647,-1.6490912,-0.17141971,-0.07423976,-0.051567655,0.087927856
20240215 11:52:40,-0.051885,-1.654694,-0.874291,-0.042782,0.045575,-0.017517,0.782593,-5.906322,-34.119522,9.740859,-0.55763364,-1.5050168,-0.19625694,-0.040404607,0.044626445,0.028408665
20240215 11:52:40,-0.190558,-1.484498,-1.141523,0.033923,0.205377,0.014444,0.809486,-5.621258,-34.137863,13.748633,-0.78691024,-1.2259896,-0.12752149,-0.016210731,0.20010598,-0.04499769
20240215 11:52:40,-0.373028,-1.330205,-1.077857,0.108497,0.353461,0.063450,0.852509,-6.088131,-34.240921,15.887951,-0.7962373,-1.078306,0.05462587,0.019996855,0.33887824,-0.11344834
20240215 11:52:40,-0.424776,-1.282489,-0.720410,0.179876,0.397140,0.109260,1.028198,-6.071674,-34.508194,13.220069,-0.5695098,-1.152965,0.19814762,0.09848129,0.38384545,-0.15405263
20240215 11:52:40,-0.283623,-1.238063,-0.613498,0.232078,0.324696,0.129501,1.176609,-6.148388,-35.037598,10.32082,-0.4644431,-1.1397216,0.08928606,0.16261223,0.3164755,-0.17884257
20240215 11:52:40,-0.138357,-1.207339,-0.683115,0.223555,0.185136,0.119913,1.292118,-6.238880,-34.628616,7.9761147,-0.50355995,-1.1078452,-0.09003365,0.17642166,0.180834,-0.16316728
20240215 11:52:40,0.011039,-1.189952,-0.769553,0.173484,-0.000235,0.087953,0.894764,-6.171223,-34.904938,6.7020216,-0.5591194,-1.0928394,-0.26249304,0.14988813,-0.0015310384,-0.12346713
20240215 11:52:40,0.143062,-0.966982,-0.942563,0.124478,-0.171756,0.055992,1.495472,-6.321133,-34.353287,2.2727237,-0.75644207,-0.89149296,-0.45602262,0.10905991,-0.1718486,-0.09388983
20240215 11:52:40,0.220798,-0.532234,-1.425581,0.101040,-0.239938,0.031489,1.089149,-6.348507,-34.623489,4.9620733,-1.2432759,-0.37161022,-0.59449387,0.08353271,-0.2387158,-0.0825432
20240215 11:52:40,0.042858,-0.009258,-2.009516,0.096779,-0.137665,0.052796,0.825615,-6.373188,-34.222580,13.105075,-1.8939145,0.45594984,-0.46966454,0.102940485,-0.14093575,-0.07634911
20240215 11:52:40,-0.103007,0.261147,-2.301824,0.119151,0.103104,0.118848,0.858902,-6.551296,-34.880493,13.939911,-2.2632947,0.81011707,-0.38830635,0.112586096,0.07711404,-0.09715311
20240215 11:52:40,-0.059741,0.436195,-2.032782,0.159634,0.342807,0.165723,1.070454,-6.154766,-35.172195,9.893845,-2.028445,0.79809487,-0.45748216,0.13441132,0.3137332,-0.12875721
20240215 11:52:40,-0.061183,0.503979,-1.542755,0.172418,0.458930,0.168919,1.432331,-6.794384,-34.590973,9.105478,-1.5544906,0.76169014,-0.4177161,0.12960166,0.4310399,-0.13666928
20240215 11:52:40,-0.145155,0.358800,-1.024843,0.138327,0.422709,0.144416,1.581131,-7.062977,-34.839905,8.003688,-1.0542111,0.5050267,-0.23263246,0.11570296,0.40231565,-0.10061863
20240215 11:52:40,-0.133321,0.163418,-0.596115,0.069079,0.275690,0.087953,1.529530,-6.883022,-34.450241,8.257242,-0.6193498,0.24419871,-0.11062939,0.064208165,0.26273903,-0.045770578
20240215 11:52:40,-0.306541,0.096196,-0.307265,-0.015083,0.069013,0.000594,1.678322,-7.151623,-34.699173,11.951236,-0.41759956,0.12835255,0.15035574,-0.019482557,0.065850854,0.008233386
20240215 11:52:40,-0.626413,0.197903,-0.228328,-0.089657,-0.132338,-0.056935,1.529530,-6.883022,-34.450241,18.884567,-0.50780094,0.1740813,0.46057287,-0.04726497,-0.12049547,0.077620655
20240215 11:52:40,-1.092693,0.493544,-0.256721,-0.125879,-0.246330,-0.040954,1.502632,-7.168087,-34.431900,25.222368,-0.8371829,0.36912152,0.82179165,0.0057530478,-0.23080705,0.14257471
20240215 11:52:40,-1.359278,0.877580,-0.261008,-0.097115,-0.272964,0.049600,1.441296,-6.699368,-34.597076,25.720842,-1.0901734,0.6760043,1.0020194,0.10584305,-0.28341454,0.15400398
20240215 11:52:40,-1.227881,1.107848,-0.213590,-0.016148,-0.225023,0.162527,1.263035,-7.274014,-34.963257,21.077816,-1.0079367,0.9467471,0.9023929,0.20563379,-0.2648413,0.10459235
20240215 11:52:40,-0.819916,1.216290,-0.158185,0.074406,-0.164298,0.250951,1.186729,-6.629032,-34.202286,12.652303,-0.70156085,1.150011,0.60116297,0.28847158,-0.2055634,0.036809657
20240215 11:52:40,-0.242795,1.129581,-0.119201,0.127674,-0.139795,0.274389,1.211052,-6.902157,-34.854080,2.3597913,-0.27397954,1.1282383,0.16373023,0.31063744,-0.15392953,-0.01434195
20240215 11:52:40,0.407144,1.072537,-0.100446,0.133000,-0.151514,0.226448,1.405056,-6.887547,-34.853104,-8.322125,0.14490378,1.0482075,-0.35523394,0.24765006,-0.13778469,-0.046044037
20240215 11:52:40,0.826027,1.011386,0.037340,0.106367,-0.196259,0.112456,0.931389,-6.174923,-34.368439,-11.061759,0.490847,0.96167636,-0.6643199,0.12027481,-0.18623304,-0.06830822
20240215 11:52:40,0.829853,0.916142,0.406333,0.073341,-0.250592,-0.027105,0.973640,-6.258015,-35.032455,-7.3400645,0.7908793,0.91360736,-0.51917994,-0.009727238,-0.2542111,-0.09170515
20240215 11:52:40,0.399077,0.822619,0.948881,0.076537,-0.327297,-0.149620,0.886181,-6.458134,-34.618347,0.7348678,0.9978023,0.7991797,0.09896776,-0.08435519,-0.3210904,-0.13682403
20240215 11:52:40,-0.203790,0.934659,1.347693,0.128739,-0.447681,-0.209279,0.786415,-6.927677,-35.392517,8.920972,0.95183945,0.74137646,0.75154674,-0.0628667,-0.40779567,-0.17905742
20240215 11:52:40,-0.777656,1.266438,1.272338,0.204379,-0.512667,-0.174123,1.060452,-7.575527,-34.677643,14.491109,0.48792142,0.8916178,1.1097844,0.04721366,-0.44206154,-0.20021111
20240215 11:52:40,-0.926745,1.751640,0.951066,0.306652,-0.487099,-0.047346,0.489590,-6.774265,-34.333710,13.331202,0.13842124,1.4556557,1.0590802,0.1753375,-0.4416223,-0.25258
20240215 11:52:40,-0.412042,1.946476,0.451242,0.395076,-0.370976,0.115652,0.566288,-7.611126,-34.814224,2.734478,0.1676302,1.9108639,0.513576,0.27023,-0.36837667,-0.3201556
20240215 11:52:41,0.547630,1.738423,0.012425,0.397207,-0.212239,0.207272,0.460510,-7.809391,-34.668350,-15.210177,0.55183333,1.6596352,-0.34553942,0.288232,-0.19618243,-0.3199889
20240215 11:52:41,1.516689,1.317171,-0.064451,0.257646,-0.145122,0.187030,0.248962,-8.205936,-34.376633,-28.711657,1.0293758,0.94265926,-1.1669391,0.20540746,-0.10465719,-0.19963995
20240215 11:52:41,2.252494,0.930193,0.207206,0.025400,-0.191997,0.061319,0.582794,-8.554935,-34.618469,-35.212307,1.5721598,0.43943113,-1.681363,-0.018220883,-0.15094358,-0.05028228
20240215 11:52:41,2.556936,0.664081,0.915112,-0.238806,-0.342211,-0.138966,0.364082,-8.104534,-34.248123,-31.483805,2.271173,0.39496,-1.5982744,-0.34834355,-0.3124471,0.049482286
20240215 11:52:41,2.186715,0.184681,1.695132,-0.481705,-0.564869,-0.374408,-0.254555,-8.144657,-34.787552,-20.941486,2.629116,0.21774653,-0.861358,-0.692359,-0.55424356,0.08270605
20240215 11:52:41,1.319773,-0.185921,2.237670,-0.624462,-0.772612,-0.558713,0.054573,-8.028652,-34.658066,-8.985448,2.5588927,-0.080324695,0.23559201,-0.8821647,-0.7765347,0.10227126
20240215 11:52:41,0.301074,-0.158491,2.395942,-0.620201,-0.857840,-0.629026,-0.464684,-7.407345,-34.703796,6.15554,2.1147301,-0.2631235,1.1752466,-0.8316888,-0.84788716,0.18496212
20240215 11:52:41,-0.575690,0.082726,2.342564,-0.462529,-0.759828,-0.551256,-0.995094,-7.631138,-35.096375,15.983869,1.5091462,-0.27838534,1.7855878,-0.613443,-0.7224369,0.18220535
20240215 11:52:41,-0.981528,0.078847,2.352111,-0.179147,-0.564869,-0.380800,-0.913261,-7.351627,-34.309982,16.640327,1.2726246,-0.34759212,2.1134434,-0.3301735,-0.5220616,0.023788333
20240215 11:52:41,-0.669567,-0.102978,2.152198,0.135131,-0.358192,-0.207149,-0.756268,-7.141430,-35.125961,9.432275,1.3717954,-0.30386698,1.7814716,-0.06302303,-0.33340052,-0.19440098
20240215 11:52:41,0.016021,-0.266010,1.647393,0.343939,-0.209043,-0.117659,-1.267597,-7.750835,-34.689362,1.0404032,1.3811536,-0.23368408,0.89188564,0.08597204,-0.21574298,-0.3500833
20240215 11:52:41,0.697209,-0.395126,1.245115,0.389749,-0.166429,-0.130444,-1.207027,-7.835789,-35.085129,-7.975481,1.3701401,-0.29893422,0.036876798,0.07893974,-0.20796652,-0.4110043
20240215 11:52:41,1.169447,-0.400006,1.081820,0.313044,-0.256984,-0.201822,-0.879589,-7.721615,-34.687408,-13.275362,1.4498479,-0.3319816,-0.49245602,-0.047322296,-0.31767657,-0.40047574
20240215 11:52:41,1.334374,-0.331028,0.990791,0.154307,-0.460465,-0.307291,-1.170784,-7.647594,-34.829117,-13.294045,1.4561753,-0.28870952,-0.693618,-0.26145574,-0.52138513,-0.339481
20240215 11:52:41,1.162924,-0.257335,0.774440,-0.026802,-0.677796,-0.418088,-1.303455,-8.130917,-34.664902,-7.913245,1.199075,-0.23759273,-0.6677847,-0.46057144,-0.7213586,-0.22051728
20240215 11:52:41,0.794077,-0.147527,0.458437,-0.177016,-0.804573,-0.468159,-1.718357,-8.445194,-34.648514,-2.6031508,0.7480209,-0.14163406,-0.51486003,-0.5584936,-0.8308986,-0.06265947
20240215 11:52:41,0.535423,-0.084879,-0.110466,-0.262244,-0.761959,-0.460701,-1.779690,-7.976475,-34.813705,-0.4226256,0.10653105,-0.10266469,-0.53559744,-0.56619847,-0.77894425,0.05592242
20240215 11:52:41,0.425327,-0.177278,-0.540540,-0.287812,-0.533974,-0.431937,-1.867538,-7.984707,-34.680069,3.2681215,-0.33476478,-0.18143302,-0.59716094,-0.5127556,-0.5357629,0.11022237
20240215 11:52:41,0.127373,-0.464894,-0.408008,-0.254786,-0.211174,-0.392519,-1.877270,-7.695957,-35.234909,10.882372,-0.265337,-0.42109704,-0.25379708,-0.4447048,-0.18678984,0.07345368
20240215 11:52:41,-0.270321,-0.698876,0.322369,-0.152513,0.045575,-0.339252,-2.097786,-8.187511,-34.937057,16.114725,0.21918793,-0.7524712,0.49309045,-0.3716125,0.076000735,-0.046137646
20240215 11:52:41,-0.413749,-0.951457,0.858479,-0.026802,0.159568,-0.299834,-1.904167,-7.981014,-35.216568,17.642153,0.5958317,-1.0925117,0.96453494,-0.28116977,0.19542074,-0.16579427
20240215 11:52:41,-0.560822,-1.270550,1.062284,0.054165,0.161698,-0.292376,-2.265278,-7.725178,-35.236862,21.63958,0.7147845,-1.4793785,1.3096173,-0.22575895,0.21126682,-0.2386438
20240215 11:52:41,-0.701792,-1.445779,1.058700,0.087190,0.062621,-0.288115,-1.744217,-7.404514,-35.118622,22.956776,0.6994053,-1.6995891,1.4668987,-0.18878712,0.12666507,-0.23966283
20240215 11:52:41,-0.783616,-1.413619,0.746154,0.087190,-0.088659,-0.261481,-1.976265,-8.549274,-35.448120,24.996765,0.49077213,-1.637453,1.3475528,-0.14612255,-0.016534965,-0.18117681
20240215 11:52:41,-0.805202,-1.302265,0.181732,0.041380,-0.225023,-0.210345,-1.842827,-8.449726,-35.051376,25.846617,0.07410984,-1.4079233,1.0625261,-0.0979875,-0.15719819,-0.0813248
20240215 11:52:41,-0.746722,-1.301512,-0.276791,-0.029998,-0.346473,-0.136836,-1.719128,-8.061420,-35.209473,25.49683,-0.22838843,-1.2700592,0.8059374,-0.036936417,-0.29787615,0.038411565
20240215 11:52:41,-0.604280,-1.367369,-0.700496,-0.102442,-0.430635,-0.056935,-2.125065,-8.280682,-35.199203,24.794687,-0.50273,-1.198079,0.5217675,0.020747658,-0.40965155,0.14720121
20240215 11:52:41,-0.412484,-1.435258,-1.043557,-0.156774,-0.446616,0.013378,-1.825668,-7.875912,-35.624542,18.836594,-0.80404747,-1.2219483,0.17281428,0.04163231,-0.451887,0.20586322
20240215 11:52:41,-0.116935,-1.388978,-1.222406,-0.168493,-0.399740,0.060254,-2.388981,-8.113476,-35.078766,13.4202175,-1.001604,-1.2355807,-0.21292558,0.04113679,-0.4117314,0.21263058
20240215 11:52:41,0.205424,-1.266564,-1.352446,-0.139729,-0.302794,0.084757,-2.653667,-7.562496,-35.519272,6.1526594,-1.1700995,-1.2425966,-0.6213435,0.034630086,-0.30503586,0.17207146
20240215 11:52:41,0.505817,-1.260580,-1.337818,-0.104572,-0.168560,0.091149,-2.317261,-7.353321,-35.127670,-1.8439484,-1.1430016,-1.387871,-0.99687135,0.029095687,-0.15628317,0.12948425
20240215 11:52:41,0.775140,-1.330161,-0.891697,-0.069416,-0.102508,0.061319,-2.635738,-7.372456,-35.531494,-4.5437417,-0.6159761,-1.474649,-1.1337712,0.0112972,-0.08975027,0.08566445
20240215 11:52:41,0.934101,-1.310033,-0.505738,-0.034259,-0.137665,-0.003667,-2.538544,-7.461102,-35.390778,-5.606607,-0.19364318,-1.4257787,-1.1190944,-0.03707293,-0.13429467,0.0227182
20240215 11:52:41,0.888923,-1.255373,-0.528862,0.003028,-0.152579,-0.061196,-2.697727,-8.421375,-34.927765,-2.532746,-0.21745625,-1.3439764,-1.0538354,-0.06898484,-0.15795435,-0.03202443
20240215 11:52:41,0.647576,-1.020552,-0.778124,0.040315,-0.101443,-0.082503,-2.565441,-7.746159,-35.372437,2.5440562,-0.49343187,-1.0542355,-0.8833245,-0.06324721,-0.1046239,-0.067714006
20240215 11:52:41,0.374915,-0.687618,-0.989448,0.087190,0.018942,-0.061196,-2.635738,-7.372456,-35.531494,6.6453323,-0.76891434,-0.6605754,-0.6776247,-0.025740191,0.021184208,-0.104119405
20240215 11:52:41,0.196678,-0.352911,-1.107121,0.128739,0.174482,-0.003667,-2.432388,-7.454723,-35.256180,9.823456,-0.9425696,-0.2633249,-0.5384712,0.02766001,0.17772947,-0.13237636
20240215 11:52:41,0.096282,-0.128438,-1.096299,0.146850,0.306586,0.069842,-2.168850,-7.430035,-35.657059,9.904332,-0.9799346,-0.03344395,-0.45745018,0.090616345,0.30407524,-0.13214523
20240215 11:52:41,0.073595,-0.048445,-0.921861,0.117020,0.365180,0.130567,-2.707077,-8.324505,-35.202133,10.793076,-0.8219889,0.024048004,-0.4013677,0.13652268,0.35758594,-0.08640309
20240215 11:52:41,0.107097,-0.077124,-0.538553,0.048838,0.318304,0.167854,-1.922478,-7.979160,-35.484802,8.526639,-0.44351825,-0.040127777,-0.30831224,0.15292102,0.30835772,0.0032606497
20240215 11:52:41,0.149092,-0.057177,-0.134582,-0.043847,0.171286,0.178507,-2.477211,-7.929821,-35.225601,9.567443,-0.053437248,-0.04508248,-0.18767647,0.1317826,0.15933028,0.10326137
20240215 11:52:41,0.102366,0.069339,0.094699,-0.117356,-0.006627,0.177442,-2.195747,-7.715092,-35.638718,9.0679865,0.12529533,0.06644565,-0.056599066,0.10930651,-0.020645645,0.18202946
20240215 11:52:41,0.003148,0.439583,0.138202,-0.137598,-0.102508,0.204076,-2.098549,-7.803730,-35.498001,9.5583,0.09558335,0.42871606,0.023785751,0.13380894,-0.12093375,0.2166903
20240215 11:52:41,0.101012,0.837763,0.269207,-0.103507,-0.109966,0.271193,-2.504486,-8.022984,-35.487732,6.4099636,0.27148572,0.83365774,-0.016293377,0.20215623,-0.11566001,0.21470125
20240215 11:52:41,0.439110,0.936283,0.526134,-0.011887,-0.076940,0.324460,-2.257080,-7.246380,-35.803909,-0.93882614,0.72932345,0.9544156,-0.15046927,0.27877954,-0.054242905,0.1552183
20240215 11:52:41,0.929748,0.793530,0.535825,0.119151,-0.003431,0.327656,-2.220455,-7.250080,-35.267426,-9.416182,1.0201987,0.79219884,-0.5442825,0.34040707,0.043636896,0.03529641
20240215 11:52:41,1.368850,0.870354,0.191813,0.238470,0.127607,0.282912,-2.813232,-8.330883,-35.336731,-13.694558,0.95090795,0.73106885,-1.0822996,0.37821725,0.1657349,-0.09025215
20240215 11:52:41,1.437319,0.930746,-0.034103,0.294933,0.290605,0.212599,-2.267464,-8.475246,-35.589813,-12.86224,0.7602255,0.7518784,-1.244042,0.37303305,0.3001463,-0.15968165
20240215 11:52:41,1.136097,0.910647,0.060112,0.297064,0.415251,0.143351,-2.083195,-8.171879,-36.143677,-7.7953367,0.6661124,0.8274739,-0.9565367,0.31558102,0.41046247,-0.18742134
20240215 11:52:41,0.764711,0.891106,0.443113,0.273626,0.467453,0.089018,-1.977036,-8.165501,-36.009064,-1.652923,0.7957275,0.8931409,-0.48002493,0.23286857,0.46287507,-0.20049506
20240215 11:52:41,0.481160,1.075975,0.926011,0.262973,0.466388,0.069842,-1.959106,-7.975460,-36.021286,1.3552045,1.0771668,1.0967761,-0.0139608085,0.1975672,0.46399274,-0.20660175
20240215 11:52:41,0.433429,1.397197,1.284718,0.262973,0.382225,0.050666,-1.994965,-8.355541,-35.996826,1.0439609,1.3885314,1.434505,0.20386559,0.18136841,0.3786932,-0.21223484
20240215 11:52:41,0.550446,1.449453,1.375604,0.283214,0.294867,0.038947,-1.412952,-8.311710,-35.993896,-2.5233448,1.5657686,1.5166558,0.17463025,0.18430036,0.2870032,-0.22738668
20240215 11:52:41,0.729642,1.292966,1.133080,0.286411,0.236273,0.006986,-1.273121,-8.675327,-36.236725,-3.1419525,1.4271078,1.3427945,-0.11539155,0.15077423,0.22602183,-0.24730796
20240215 11:52:41,0.618042,1.177939,0.983957,0.255515,0.241599,-0.027105,-1.555355,-8.506283,-36.384537,-1.8089845,1.2250447,1.2168564,-0.10848719,0.10235015,0.23179899,-0.23822176
20240215 11:52:41,0.560576,1.320453,0.942293,0.219294,0.306586,-0.050542,-1.430496,-8.693638,-35.701218,0.14050056,1.1373291,1.3423657,-0.09119806,0.061430164,0.30096397,-0.21954003
20240215 11:52:41,0.350271,1.327859,1.156035,0.190529,0.399271,-0.064392,-1.299633,-9.152271,-35.937912,3.9370966,1.1674035,1.3131616,0.17887467,0.024763756,0.4016485,-0.21132796
20240215 11:52:41,0.018427,1.188357,1.476730,0.151111,0.468518,-0.076111,-1.254807,-8.677174,-35.968475,9.685617,1.1953813,1.0643737,0.5977926,-0.03021036,0.47952327,-0.20703414
