Timestamp,linacce_x,linacce_y,linacce_z,gyro_x,gyro_y,gyro_z,X-magnetometer,Y-magnetometer,Z-magnetometer,Yaw, worldXAccel,worldYAccel,worldZAccel,worldXgyro,worldYgyro,worldZgyro
20240215 12:02:58,-0.072383,0.053203,0.219153,0.021279,-0.014539,-0.023885,0.896534,6.799297,-39.502777,3.9250472,0.14988306,0.033090483,0.16923013,-0.009046174,-0.011730294,-0.029786479
20240215 12:02:58,0.062973,0.124352,0.189468,0.047912,0.018487,-0.020689,1.566776,6.659470,-39.352997,1.4659985,0.18877213,0.11546131,0.036069266,0.0043668356,0.021110531,-0.052139908
20240215 12:02:58,0.131156,0.115025,0.108371,0.076677,0.062166,-0.022820,1.435528,7.309994,-39.396759,1.7327791,0.15165001,0.112745725,-0.06369983,0.013788803,0.06578123,-0.07901426
20240215 12:02:58,0.079837,0.019402,0.033418,0.100114,0.083473,-0.026016,1.514790,7.031319,-39.243820,2.767731,0.06598478,0.020083738,-0.054587103,0.018898452,0.089186884,-0.10227446
20240215 12:02:58,0.002050,-0.030750,-0.090324,0.108637,0.082408,-0.028147,1.520798,6.760040,-40.163849,3.6473053,-0.07566436,-0.022620674,-0.04329778,0.019203579,0.089515954,-0.11154479
20240215 12:02:58,0.013080,-0.065864,-0.195172,0.093722,0.072820,-0.032408,1.734535,7.906647,-40.102600,2.9445813,-0.16059852,-0.04887816,-0.10049685,0.008909181,0.07924069,-0.099773005
20240215 12:02:58,0.030958,-0.047387,-0.228950,0.067089,0.070689,-0.046258,1.849007,6.490417,-39.205185,3.0137265,-0.18356304,-0.025946252,-0.13209347,-0.015882824,0.07738623,-0.08256949
20240215 12:02:58,-0.051777,0.007797,-0.158111,0.037259,0.085604,-0.066499,1.223972,6.913456,-39.105057,5.384253,-0.16363065,0.021732118,-0.028991267,-0.049792692,0.094244234,-0.06788601
20240215 12:02:58,-0.101120,0.033141,-0.071866,0.028736,0.091996,-0.073957,1.505440,7.128189,-39.518188,5.184562,-0.11449975,0.034762144,0.053405803,-0.060957577,0.10112279,-0.06430377
20240215 12:02:58,-0.179092,0.085730,0.019233,-0.005355,0.046186,-0.073957,1.461002,6.461201,-39.207138,6.0355244,-0.07936645,0.070785895,0.16208038,-0.072460644,0.054332905,-0.03282924
20240215 12:02:58,-0.158777,0.014391,-0.036450,-0.029858,-0.003885,-0.061173,1.514790,7.031319,-39.243820,6.4135613,-0.10910902,0.007882068,0.12165578,-0.06693412,0.0019432711,-0.002454266
20240215 12:02:58,-0.187234,0.061210,0.010913,-0.050100,-0.045434,-0.041996,1.479694,6.267464,-38.658432,6.611431,-0.08886086,0.04575589,0.16580439,-0.05467508,-0.043071654,0.026262196
20240215 12:02:58,-0.207214,0.103007,0.140865,-0.057557,-0.096570,-0.021755,1.239716,6.353420,-39.470245,6.5732994,0.00807105,0.070581235,0.24339908,-0.035061248,-0.096890435,0.045095395
20240215 12:02:58,-0.198213,0.087355,0.142669,-0.055426,-0.139184,0.007010,1.691628,6.472107,-38.669678,6.4131393,0.014201984,0.053140037,0.23749234,-0.0029809726,-0.14260566,0.05934049
20240215 12:02:58,-0.285618,0.029114,0.106549,-0.059688,-0.165818,0.036839,1.257648,6.543461,-39.482483,7.442471,-0.051166385,-0.0072932374,0.2990657,0.02519056,-0.17331754,0.08038503
20240215 12:02:58,-0.216296,0.014954,0.003802,-0.093779,-0.189256,0.051754,1.223972,6.913456,-39.105057,6.486954,-0.101604484,-9.0652E-5,0.19115208,0.02365443,-0.20001768,0.11714026
20240215 12:02:58,-0.085797,0.019447,-0.178356,-0.136393,-0.188190,0.040035,1.354843,6.454819,-39.341736,3.8897066,-0.19871676,0.03107666,-0.0076407567,-0.011751309,-0.19710842,0.14523952
20240215 12:02:58,0.086515,0.096547,-0.136137,-0.164092,-0.142380,0.020859,1.108467,7.003948,-39.514023,2.7697527,-0.08569586,0.10828919,-0.14237113,-0.04919283,-0.1491071,0.1579247
20240215 12:02:58,0.129504,0.151972,-0.029983,-0.155569,-0.084852,0.014467,1.250488,7.390404,-39.403854,1.8683773,0.027372131,0.15725651,-0.13039847,-0.057179473,-0.090199515,0.14479342
20240215 12:02:58,0.172535,0.125589,0.061613,-0.112955,-0.020931,0.013402,1.145096,7.000248,-38.977524,1.3928838,0.1318187,0.126995,-0.12235798,-0.042219266,-0.024412183,0.105483405
20240215 12:02:58,0.191790,0.014565,0.090076,-0.047969,0.041925,0.009140,1.302086,7.210449,-39.793503,1.3011009,0.1720188,0.0154154515,-0.12276474,-0.017659808,0.040142693,0.04578303
20240215 12:02:58,0.181157,-0.050131,0.045634,-0.000028,0.073885,-0.005775,0.746971,7.451679,-39.814774,2.6612542,0.13089241,-0.046948355,-0.13478082,-0.009141281,0.074055344,-0.004461815
20240215 12:02:58,0.137605,-0.025969,-0.013546,0.008494,0.036598,-0.024951,1.207851,7.665386,-39.020309,3.618805,0.057065725,-0.018619955,-0.12608457,-0.020548763,0.03883083,-0.020630948
20240215 12:02:58,-0.116926,-0.049357,-0.055545,-0.012812,-0.065675,-0.039866,1.241138,7.487274,-39.678223,6.1911945,-0.09891572,-0.049986713,0.07815268,-0.03298625,-0.061189253,-0.0045475746
20240215 12:02:58,-0.260366,0.007269,-0.125755,-0.056492,-0.156230,-0.024951,1.065830,7.278923,-39.130478,7.686909,-0.23515427,0.0048296936,0.16782019,-0.027370032,-0.1551383,0.047680907
20240215 12:02:58,-0.269750,-0.072302,-0.049440,-0.093779,-0.179668,0.024055,0.862862,7.169296,-39.125351,6.0598774,-0.16961059,-0.08307808,0.21288222,-0.007037306,-0.18663622,0.10266104
20240215 12:02:58,-0.076101,-0.028624,0.190312,-0.099106,-0.173276,0.081584,0.950321,7.369415,-39.539444,3.9479253,0.12658454,-0.046690375,0.1631817,0.03284917,-0.18340965,0.13281506
20240215 12:02:58,0.063211,-0.071663,0.270514,-0.067145,-0.173276,0.107152,0.571663,7.243328,-39.267044,2.2297273,0.26859668,-0.082043275,0.082393326,0.066618115,-0.1795894,0.11519794
20240215 12:02:58,0.237004,0.033499,-0.030311,-0.012812,-0.147707,0.093303,0.634804,7.716576,-39.029358,1.0708598,0.08179351,0.038194314,-0.22441472,0.081255764,-0.15068029,0.05580376
20240215 12:02:58,0.221763,0.141564,-0.532196,0.008494,-0.089113,0.064538,1.074413,7.565834,-39.417053,-0.25188053,-0.39302456,0.15472315,-0.42417723,0.06399231,-0.090350136,0.019178944
20240215 12:02:58,0.347523,0.046463,-1.019963,-0.023466,0.004638,0.016598,0.475239,6.948193,-38.846817,0.07882808,-0.8091094,0.061079428,-0.7122335,0.0062663527,0.0043063373,0.02803537
20240215 12:02:58,0.193220,0.073339,-1.323114,-0.089518,0.122891,-0.015363,0.474472,7.331966,-39.407761,8.510881,-1.1516539,0.27996242,-0.66972584,-0.06556175,0.11828084,0.07070008
20240215 12:02:58,-2.045561,0.238788,-0.668177,-0.130001,0.359399,0.102891,0.968254,7.559456,-39.551682,13.123839,-1.6080828,0.13249819,1.4488163,-0.052463822,0.31112665,0.122761935
20240215 12:02:58,0.193993,-0.169658,0.482268,-0.031989,0.545834,0.271216,1.295692,7.673615,-39.153961,-3.975828,0.505001,-0.15990867,0.094392926,0.22423777,0.5534848,0.19550715
20240215 12:02:58,0.698313,-0.149672,0.385847,0.028736,0.481914,0.294654,1.647076,7.706535,-39.688492,-5.683743,0.67973936,-0.15066543,-0.41388333,0.2903388,0.49408028,0.14848617
20240215 12:02:58,0.413661,-0.257460,0.251384,0.084134,0.431842,0.192380,1.585739,8.175255,-39.853668,6.2015452,0.4698344,-0.25086635,-0.1822931,0.15440276,0.4119542,0.013039075
20240215 12:02:58,-0.747115,-0.786160,1.309954,0.076677,0.253929,0.081584,1.427979,8.348831,-39.598633,8.570027,0.6920151,-1.0344913,1.4457083,0.074960776,0.24671876,-0.035579294
20240215 12:02:58,-0.609771,0.221061,1.027977,0.034063,-0.051826,0.053885,1.929306,7.537483,-39.540680,6.1994643,0.5262914,0.03738053,1.0377342,0.0699265,-0.05555228,0.0014020726
20240215 12:02:58,-0.142142,0.608272,0.330000,0.015952,-0.151969,0.050689,1.506092,8.645821,-40.287079,0.59514374,0.1966706,0.5905701,0.27917185,0.058468465,-0.15355423,0.010874337
20240215 12:02:58,0.323231,0.603868,0.020291,0.040455,-0.124270,0.061342,1.858624,8.103069,-39.980194,-3.170671,0.16912137,0.6028268,-0.26362285,0.07214178,-0.123977266,-0.011354141
20240215 12:02:58,0.572754,0.446974,-0.345672,0.057500,-0.012408,0.066669,1.471386,7.690075,-39.421219,-5.160874,-0.050375998,0.4176357,-0.64756656,0.08404009,-0.01051756,-0.024592608
20240215 12:02:58,0.528152,0.301930,-0.769746,0.047912,0.209184,0.080519,1.489315,7.880112,-39.433441,-5.0759974,-0.4558705,0.2555449,-0.79365385,0.10262106,0.21153635,-0.0011539906
20240215 12:02:58,0.051558,0.117752,-1.128678,0.024475,0.417993,0.089041,1.751431,6.770947,-39.626373,4.1263647,-0.9993445,0.23553982,-0.53978336,0.047340337,0.40732518,0.003509421
20240215 12:02:58,-0.172932,-0.121954,-0.059219,-0.008551,0.408405,0.091172,1.999607,7.163784,-39.381607,4.590676,-0.12741025,-0.1260313,0.12159827,0.02863333,0.39475188,0.037733186
20240215 12:02:58,-0.423586,-0.114508,0.645934,-0.024531,0.180420,0.070931,2.133427,7.071445,-38.704407,6.4351826,0.31676978,-0.23638543,0.7129959,0.021041397,0.16648276,0.048054695
20240215 12:02:58,-0.539460,0.072672,0.708361,-0.014943,-0.009212,0.070931,1.778709,6.864113,-39.364243,8.590189,0.30861026,-0.093508005,0.8169718,0.05360175,-0.021824177,0.049539596
20240215 12:02:58,-0.578062,0.151705,0.045581,0.019148,0.030206,0.117806,2.193993,6.986504,-39.100174,8.646306,-0.2597264,0.085909024,0.52041364,0.10547783,0.010545421,0.03582467
20240215 12:02:58,-0.493937,0.341377,-0.145394,0.072415,0.202792,0.200903,1.927891,6.403625,-39.332703,7.625438,-0.41195065,0.31768313,0.34637654,0.17712149,0.17448655,0.017294899
20240215 12:02:58,-0.448991,0.458046,0.194519,0.143794,0.339157,0.298915,2.148788,6.703297,-39.350067,6.4451656,-0.11989306,0.38898292,0.460281,0.28003064,0.30437672,0.0034541637
20240215 12:02:58,-0.399909,0.171263,0.412307,0.215172,0.394555,0.366032,2.749111,6.745274,-39.078903,5.011319,0.117009684,0.08399875,0.5475944,0.36965635,0.35949832,-0.011483535
20240215 12:02:58,-0.354761,-0.189041,0.504436,0.248198,0.361529,0.384143,2.748730,6.937160,-39.359360,3.8645923,0.25373906,-0.26909864,0.5758225,0.41393733,0.33289573,-0.017631486
20240215 12:02:58,-0.197677,-0.435445,0.483144,0.234348,0.260321,0.369228,2.854504,7.135433,-39.505234,1.6678015,0.3360562,-0.48432964,0.43278867,0.41395697,0.24057806,-0.0037238896
20240215 12:02:58,-0.068021,-0.515463,0.415227,0.206649,0.144198,0.340464,2.764854,6.185238,-39.444092,-0.24068394,0.34455323,-0.5399795,0.27617303,0.38953292,0.1320215,0.004982695
20240215 12:02:58,0.114700,-0.562594,0.136692,0.173623,-0.033715,0.327679,2.931965,5.914791,-39.424789,-3.748882,0.18099819,-0.563338,-0.052619986,0.37113297,-0.036186576,0.0040623844
20240215 12:02:58,0.624627,-0.610854,-0.649641,0.078807,-0.067806,0.302111,3.152477,6.406345,-39.722610,-13.84567,-0.38878685,-0.73652816,-0.9017211,0.29337218,-0.03018713,0.05045621
20240215 12:02:58,1.143964,-0.485265,-0.623826,-0.016009,0.064297,0.225406,2.879978,6.286636,-39.315598,-17.954811,-0.09681401,-0.7194176,-1.3588753,0.1992164,0.109486565,0.12407628
20240215 12:02:58,1.233607,-0.245137,-0.171693,-0.059688,0.070689,0.130590,3.109844,6.681324,-39.339066,-16.944273,0.40280986,-0.3922726,-1.1946452,0.095961615,0.098489545,0.122388974
20240215 12:02:58,1.090764,-0.404178,-0.127147,-0.089518,0.040859,0.054950,2.986137,6.293018,-39.180984,-15.236159,0.36385167,-0.512044,-1.0627532,0.009501714,0.056450356,0.109283835
20240215 12:02:58,0.928907,-0.496672,-0.168771,-0.120413,0.020618,-0.000448,3.197685,6.689552,-39.472717,-13.738951,0.2434417,-0.5804127,-0.9483099,-0.056498963,0.029064137,0.10726604
20240215 12:02:58,0.851830,-0.541512,-0.091589,-0.161961,0.009964,-0.047323,3.479919,6.520500,-39.324890,-14.527003,0.27860478,-0.6125573,-0.8492187,-0.12053842,0.016026009,0.118233174
20240215 12:02:58,0.870520,-0.500321,-0.010358,-0.187530,-0.020931,-0.102721,3.047089,6.016186,-39.296280,-13.244714,0.36650175,-0.557999,-0.8157966,-0.18454108,-0.020004809,0.10975878
20240215 12:02:58,0.739737,-0.310104,0.023396,-0.193922,-0.016669,-0.142139,3.216000,6.687702,-39.204468,-10.179379,0.36447752,-0.3393497,-0.6576099,-0.22053924,-0.018961126,0.097221285
20240215 12:02:58,0.471992,-0.115659,0.154723,-0.185399,-0.002820,-0.157054,3.489265,6.423634,-39.050537,-6.8880415,0.3697837,-0.11822256,-0.33639997,-0.22929564,-0.0038462125,0.08084376
20240215 12:02:58,0.194501,-0.063274,0.391587,-0.169419,-0.007081,-0.147466,2.836956,6.753506,-39.212524,-2.5757773,0.4367913,-0.07014551,0.03902048,-0.21432137,-0.0059944205,0.06634771
20240215 12:02:58,-0.090748,0.014203,0.724787,-0.134262,-0.029454,-0.117636,2.854889,6.943542,-39.224762,-0.34351993,0.5520177,-0.029686641,0.47590452,-0.1703461,-0.027782738,0.04688719
20240215 12:02:58,-0.204808,-0.063514,1.036328,-0.078864,-0.083786,-0.077153,2.836956,6.753506,-39.212524,-0.31704298,0.7361517,-0.128317,0.75895435,-0.103589535,-0.08236231,0.020531226
20240215 12:02:58,-0.109996,-0.134028,1.105237,-0.026662,-0.180733,-0.054781,2.838379,7.887356,-39.420486,-2.0847735,0.84898794,-0.17065853,0.7171002,-0.05455821,-0.17947568,-0.013039915
20240215 12:02:58,0.078888,-0.142172,0.891366,0.009560,-0.261699,-0.064369,2.924805,6.761734,-39.346161,-3.2394252,0.79281056,-0.15728027,0.4143591,-0.04403741,-0.26036686,-0.05108902
20240215 12:02:58,0.111874,0.001150,0.535243,0.023409,-0.296856,-0.081414,2.863853,7.038563,-39.230865,-3.4783354,0.51730937,-0.004939638,0.17651168,-0.05419968,-0.2955841,-0.07079993
20240215 12:02:58,0.128522,0.150685,0.216950,0.018083,-0.272353,-0.097394,2.378651,7.097984,-39.373535,-2.408686,0.24944499,0.14814064,-0.0021473542,-0.071137,-0.27042356,-0.06924404
20240215 12:02:58,0.072060,0.235462,0.135953,0.021279,-0.199909,-0.121897,2.024315,6.698769,-39.752914,-0.724585,0.1457691,0.23204853,0.0049874224,-0.08912066,-0.19522926,-0.07934535
20240215 12:02:58,-0.078763,0.333934,0.261544,0.040455,-0.112551,-0.134682,2.343174,6.526016,-39.068619,1.3154781,0.16208577,0.31114858,0.19578427,-0.0877065,-0.10101976,-0.10141522
20240215 12:02:58,-0.331952,0.356887,0.555990,0.074546,-0.066741,-0.128290,2.439602,6.821156,-39.488846,2.9028194,0.26037636,0.28411585,0.5658746,-0.062608354,-0.050160926,-0.12924969
20240215 12:02:58,-0.435489,0.272895,0.900303,0.125683,-0.079525,-0.114440,2.282227,6.802849,-38.953323,3.7061605,0.4797335,0.15351641,0.84834194,-0.017840788,-0.05944894,-0.16495809
20240215 12:02:58,-0.445537,0.102859,0.968679,0.198126,-0.144511,-0.108048,2.070293,6.598198,-38.942078,3.373748,0.55255914,-0.011252373,0.8990277,0.031633273,-0.12226012,-0.22018725
20240215 12:02:58,-0.315295,0.027925,0.656195,0.271635,-0.173276,-0.117636,1.867321,6.488567,-38.936935,3.044205,0.392918,-0.043078057,0.60837674,0.055075154,-0.14884114,-0.28843236
20240215 12:02:58,-0.273347,0.014634,0.279065,0.313184,-0.141315,-0.135747,1.900612,6.310459,-39.594833,2.4199803,0.10555546,-0.01861993,0.37509185,0.04793434,-0.11679442,-0.3363543
20240215 12:02:58,-0.173386,0.059510,0.090483,0.337687,-0.099767,-0.146400,1.918926,6.308609,-39.326584,1.9130903,-0.008266136,0.04622392,0.19456157,0.041041523,-0.07604986,-0.36488485
20240215 12:02:58,-0.109417,0.120008,-0.042891,0.351537,-0.080590,-0.153858,2.043396,6.313141,-38.923737,1.5746385,-0.096567854,0.118684664,0.07607481,0.03049092,-0.05685527,-0.3819124
20240215 12:02:58,-0.075050,0.170524,-0.229921,0.340883,-0.064610,-0.164511,1.892033,6.023548,-39.308243,2.2650964,-0.25195354,0.18484798,-0.036432646,0.0074632764,-0.03873465,-0.37732124
20240215 12:02:58,-0.182665,0.259938,-0.436728,0.311053,-0.056087,-0.169838,1.989223,5.934910,-39.167526,4.066012,-0.4983997,0.29625332,-0.024777263,-0.016420722,-0.02169326,-0.3517644
20240215 12:02:58,-0.301222,0.362620,-0.492617,0.271635,-0.031584,-0.150662,1.740662,5.733963,-39.692764,7.328926,-0.6219694,0.4117255,0.053324923,-0.018226393,0.010577291,-0.30744162
20240215 12:02:58,-0.487299,0.497912,-0.422917,0.223695,-0.011343,-0.099525,1.671513,5.531990,-39.010422,9.024443,-0.6702498,0.5223969,0.22968711,0.008939609,0.024787934,-0.2434971
20240215 12:02:58,-0.553049,0.503515,-0.185831,0.170427,-0.040107,-0.033474,1.810577,5.552151,-39.814163,8.47424,-0.49331728,0.4799465,0.38077864,0.052965604,-0.019721787,-0.1647602
20240215 12:02:58,-0.551983,0.324992,0.009984,0.145924,-0.069937,-0.003644,1.935432,5.364796,-39.130844,8.167838,-0.29562047,0.27150646,0.475115,0.07464816,-0.05590607,-0.12708771
20240215 12:02:58,-0.441284,0.170420,0.179610,0.089461,-0.180733,0.051754,1.969490,4.802906,-39.227798,4.9595146,-0.073840946,0.120700516,0.46613786,0.108589426,-0.1795385,-0.046528004
20240215 12:02:58,-0.205130,-0.042066,0.247969,0.080938,-0.253177,0.057081,1.636040,4.960026,-38.705490,1.9374194,0.12251718,-0.065306365,0.2990657,0.10506599,-0.25334513,-0.03993378
20240215 12:02:58,0.032392,-0.088919,0.029220,0.102245,-0.275549,0.032578,1.113827,5.215038,-39.665131,0.79845494,0.04395235,-0.08931591,-0.015154297,0.08536179,-0.27460745,-0.07479511
20240215 12:02:59,0.093659,-0.118372,-0.307690,0.136336,-0.208432,-0.002578,1.211021,5.126396,-39.524414,-0.016859425,-0.23577358,-0.108655766,-0.21507093,0.06108421,-0.2065147,-0.12464655
20240215 12:02:59,0.114649,-0.017037,-0.537873,0.176819,-0.091244,-0.027081,1.017403,4.919895,-39.244904,0.5729096,-0.44552314,0.002130894,-0.321149,0.049282003,-0.08777525,-0.17241965
20240215 12:02:59,0.109625,0.125282,-0.682287,0.213041,0.045121,-0.040931,1.581100,4.965572,-39.510223,0.2965058,-0.5931316,0.15541974,-0.36236352,0.04177934,0.050443243,-0.21259657
20240215 12:02:59,0.001596,0.160666,-0.806431,0.218368,0.176159,-0.039866,1.211021,5.126396,-39.524414,3.5597088,-0.75500196,0.22786942,-0.31294245,0.03196969,0.18637607,-0.22117546
20240215 12:02:59,-0.127145,0.172257,-0.652930,0.190669,0.253929,-0.028147,1.526539,4.779236,-40.034485,3.6285295,-0.6612162,0.22540104,-0.15171202,0.028535306,0.26286042,-0.19223712
20240215 12:02:59,-0.086917,0.096820,-0.376125,0.150186,0.239014,-0.018559,1.687641,4.780067,-39.095139,2.9190705,-0.3843428,0.124372646,-0.081572205,0.026631305,0.245363,-0.1491372
20240215 12:02:59,-0.110816,0.080946,-0.218781,0.099049,0.184681,-0.020689,1.827087,4.608337,-39.618423,2.9995847,-0.25127196,0.09488168,0.0036489367,0.008296104,0.18972047,-0.10242528
20240215 12:02:59,-0.103426,-0.040027,-0.157601,0.039390,0.118630,-0.032408,1.694035,4.316898,-39.734695,3.2185924,-0.18300405,-0.030700784,0.02424042,-0.021702733,0.12252839,-0.052576702
20240215 12:02:59,-0.131149,-0.167534,-0.063731,-0.014943,0.058970,-0.054781,1.845016,4.798378,-39.630661,4.2566586,-0.098829255,-0.16676319,0.09334451,-0.06133998,0.06345135,-0.013644263
20240215 12:02:59,-0.276143,-0.134476,0.125388,-0.053296,0.016356,-0.076088,1.562786,4.967422,-39.778458,6.607497,-0.0043106005,-0.16853121,0.30952293,-0.09365092,0.02231897,0.010194562
20240215 12:02:59,-0.449672,-0.009633,0.344860,-0.041577,-0.016669,-0.072891,1.711964,4.506935,-39.746918,7.874279,0.08545859,-0.097790435,0.5588183,-0.080459744,-0.008883397,0.0031683557
20240215 12:02:59,-0.531409,0.075600,0.288272,-0.001094,-0.017735,-0.045192,1.757172,4.790146,-39.497025,9.79608,-0.012560084,-0.028726839,0.59655124,-0.036420804,-0.009309521,-0.018438658
20240215 12:02:59,-0.691955,0.113272,0.089847,0.042586,0.020618,0.005944,1.872295,4.891548,-39.368530,10.831497,-0.26010302,0.021446304,0.646436,0.02043522,0.023264809,-0.0370111
20240215 12:02:59,-0.630117,0.108039,0.025158,0.090526,0.074951,0.065604,1.968723,5.186684,-39.788742,8.616869,-0.2795568,0.047486782,0.5668312,0.08536926,0.0701262,-0.056774855
20240215 12:02:59,-0.461534,0.014438,-0.042019,0.136336,0.112238,0.108218,1.687256,4.971954,-39.375626,7.0816607,-0.24433571,-0.012524642,0.39413092,0.14020967,0.104980975,-0.08055653
20240215 12:02:59,-0.273934,-0.137944,-0.153265,0.151251,0.122891,0.129525,2.144798,5.011253,-39.775528,3.8246243,-0.24209377,-0.13487005,0.18353598,0.16884384,0.11613344,-0.08311499
20240215 12:02:59,-0.068655,-0.254965,-0.226129,0.133140,0.090931,0.123133,1.781879,4.325127,-39.868332,1.4776635,-0.21728078,-0.24229051,-0.032419942,0.16248846,0.0869895,-0.06826146
20240215 12:02:59,0.126509,-0.303685,-0.315331,0.089461,0.040859,0.099695,1.905968,4.521545,-39.745941,-1.3006092,-0.2233489,-0.29466158,-0.25238463,0.12741706,0.03948501,-0.037704006
20240215 12:02:59,0.238089,-0.290410,-0.239502,0.031932,-0.020931,0.063473,2.163113,5.009403,-39.507294,-2.1406498,-0.104272276,-0.2842412,-0.32426804,0.07139896,-0.021743828,-8.838363E-4
20240215 12:02:59,0.156305,-0.319483,-0.028356,-0.021335,-0.118943,0.032578,2.108936,4.631176,-39.751083,0.28529778,0.0626959,-0.31337482,-0.15124075,0.025264591,-0.120978154,0.0341435
20240215 12:02:59,-0.034528,-0.263178,0.101370,-0.054361,-0.219085,0.020859,1.693649,4.508785,-40.015167,3.6060593,0.09734174,-0.27254993,0.08479947,0.013131181,-0.22236706,0.06418238
20240215 12:02:59,-0.213855,-0.140465,0.072649,-0.058622,-0.291529,0.037905,1.730278,4.505085,-39.478683,4.7929997,-0.014448404,-0.15901281,0.22901183,0.039912485,-0.29668045,0.08005591
20240215 12:02:59,-0.267222,-0.031860,-0.244011,-0.033054,-0.281941,0.078388,1.527309,4.395458,-39.473541,4.476846,-0.3279917,-0.019024365,0.14366902,0.08628434,-0.2897545,0.07152812
20240215 12:02:59,-0.130535,-0.009553,-0.446001,0.008494,-0.194582,0.121002,1.633469,4.401840,-39.338943,1.5347335,-0.45971736,0.014527814,-0.056579567,0.12623596,-0.20138627,0.042161006
20240215 12:02:59,0.142053,-0.060402,-0.621665,0.052174,-0.076329,0.144440,1.951561,4.612865,-39.215576,-4.23958,-0.51878726,-0.07411294,-0.37339723,0.15179552,-0.07384454,0.0056685284
20240215 12:02:59,0.458755,-0.128354,-0.663166,0.066023,0.033402,0.127394,1.199867,4.281300,-39.871262,-8.059411,-0.43891943,-0.2107062,-0.6867249,0.14566568,0.042811844,-0.009378988
20240215 12:02:59,0.665487,-0.252142,-0.565879,0.051108,0.099454,0.069865,1.439465,4.387230,-39.339920,-10.8539095,-0.26490474,-0.3637128,-0.8562871,0.09718394,0.104504615,-0.010077972
20240215 12:02:59,0.720428,-0.301727,-0.284943,0.031932,0.117564,-0.011101,1.578529,4.407387,-40.143661,-9.465061,0.029268235,-0.36660263,-0.79248834,0.016449861,0.113948695,-0.025037656
20240215 12:02:59,0.497739,-0.174648,-0.050704,0.018083,0.097323,-0.075022,1.633469,4.401840,-39.338943,-4.4455867,0.17080629,-0.18306026,-0.47437048,-0.05635727,0.09487436,-0.046085857
20240215 12:02:59,0.152960,-0.009004,0.093415,0.017017,0.072820,-0.097394,1.597225,4.213650,-39.594955,0.3035564,0.15199536,-0.009701114,-0.0954017,-0.08251591,0.07703905,-0.05874513
20240215 12:02:59,-0.124322,0.146451,0.152864,0.036194,0.066428,-0.079284,1.412186,4.294060,-39.602036,3.7149067,0.068677165,0.12717654,0.1748079,-0.060495995,0.074544854,-0.06938565
20240215 12:02:59,-0.254956,0.191856,0.175630,0.062827,0.074951,-0.037735,1.642433,4.496857,-39.345062,4.2741218,0.022502542,0.16026258,0.30000594,-0.012858218,0.08141177,-0.07553378
20240215 12:02:59,-0.287706,0.157445,0.145683,0.091592,0.065362,0.010206,1.597607,4.021759,-39.314484,4.5903473,-0.010197923,0.12668104,0.31676525,0.041837677,0.06844451,-0.0804817
20240215 12:02:59,-0.270314,0.162663,-0.144063,0.085200,0.066428,0.054950,1.933632,4.422829,-39.203339,4.1906376,-0.2580857,0.16413434,0.18401322,0.07718068,0.064084485,-0.057626575
20240215 12:02:59,-0.209273,0.199080,-0.345319,0.031932,0.090931,0.093303,1.800575,4.131390,-39.319626,3.12697,-0.4166979,0.22079107,0.048094302,0.08970415,0.08339857,0.0063445866
20240215 12:02:59,-0.156298,0.197416,-0.141511,-0.040512,0.081343,0.113544,1.667526,3.839951,-39.435898,2.1800396,-0.20834956,0.20157851,0.077505186,0.079214066,0.07171882,0.083857656
20240215 12:02:59,-0.125750,0.186867,0.123054,-0.103367,0.018487,0.121002,1.702999,4.411919,-39.740814,1.9120703,0.040973462,0.17399879,0.16472746,0.06034945,0.0069647413,0.14631423
20240215 12:02:59,-0.153375,0.155482,0.309514,-0.149177,-0.048630,0.129525,1.836052,4.703358,-39.624542,2.253387,0.19019715,0.12621433,0.27682543,0.04841665,-0.06377383,0.19315639
20240215 12:02:59,-0.188739,0.187629,0.522108,-0.175811,-0.128531,0.139113,1.678291,4.876938,-39.369507,1.9461845,0.35561478,0.14626199,0.4114759,0.0466388,-0.14350688,0.22288987
20240215 12:02:59,-0.185604,0.123029,0.587565,-0.173680,-0.209497,0.156158,1.578911,4.215496,-39.863205,2.489294,0.4127793,0.0745304,0.44520468,0.066053696,-0.2264393,0.23207626
20240215 12:02:59,-0.260670,0.014638,0.571814,-0.158765,-0.270222,0.175335,1.799809,4.515163,-39.880569,1.7778615,0.3687083,-0.031623002,0.50686216,0.0921448,-0.28650633,0.228335
20240215 12:02:59,-0.182340,0.006499,0.581894,-0.119347,-0.292595,0.190250,1.605804,4.500553,-39.881546,0.355357,0.41509318,-0.020903364,0.44594157,0.117988914,-0.30259842,0.19863889
20240215 12:02:59,-0.088394,-0.074315,0.548291,-0.058622,-0.292595,0.192380,1.272354,4.657681,-39.359238,0.8955825,0.43700176,-0.09863945,0.3464449,0.15067042,-0.30147088,0.1476609
20240215 12:02:59,-0.135692,-0.034513,0.538636,0.006364,-0.270222,0.196642,1.157230,4.556278,-39.487732,0.9035111,0.4056378,-0.058066607,0.38063312,0.18515438,-0.27737767,0.0920803
20240215 12:02:59,-0.066050,-0.065182,0.414938,0.071350,-0.249981,0.201968,0.857067,4.535290,-39.623306,-1.964362,0.3331341,-0.06105133,0.25406086,0.2093195,-0.24847007,0.029033385
20240215 12:02:59,0.278624,-0.098791,0.214419,0.124617,-0.214824,0.181727,1.069771,4.356163,-39.073624,-7.843119,0.30832267,-0.09189768,-0.15661219,0.19844304,-0.2031353,-0.041777812
20240215 12:02:59,0.652586,-0.282962,-0.101557,0.144859,-0.186060,0.107152,0.954262,4.446648,-39.482590,-14.033151,0.15010399,-0.35583103,-0.65856117,0.12408097,-0.17559516,-0.103355065
20240215 12:02:59,0.915099,-0.423602,-0.435281,0.112899,-0.153034,-0.010036,1.226761,4.566357,-39.889603,-15.974831,-0.08156383,-0.5953149,-1.0559448,0.0070121363,-0.16218688,-0.124192685
20240215 12:02:59,0.733841,-0.366148,-0.480503,0.052174,-0.102963,-0.128290,0.857067,4.535290,-39.623306,-9.183734,-0.15813372,-0.46101582,-0.89156294,-0.104597725,-0.12016623,-0.108584985
20240215 12:02:59,0.134500,-0.134596,-0.044947,0.026605,-0.073133,-0.198603,0.963612,4.349781,-39.208221,1.0344028,0.026961744,-0.13025472,-0.13897859,-0.1612525,-0.065241635,-0.11436468
20240215 12:02:59,-0.527311,0.227955,0.412535,0.042586,-0.076329,-0.201799,1.060036,4.644920,-39.628448,7.3952475,0.08450878,0.13530937,0.6436697,-0.14658767,-0.0462428,-0.12659404
20240215 12:02:59,-0.833677,0.434964,0.399772,0.172558,-0.084852,-0.112309,0.469059,4.506073,-39.625259,10.244439,-0.09132978,0.29623252,0.8869899,-0.007938057,-0.0514573,-0.19701852
20240215 12:02:59,-0.750747,0.506647,0.029344,0.267374,-0.019865,-0.031343,0.839523,4.153362,-39.330627,7.47537,-0.34844178,0.45256427,0.66973126,0.08391676,4.595532E-4,-0.25556993
20240215 12:02:59,-0.400817,0.434087,-0.395825,0.315315,0.072820,0.025121,0.627586,3.948711,-39.319366,0.7099451,-0.5231141,0.4403181,0.23326418,0.13296871,0.07525098,-0.2864323
20240215 12:02:59,-0.071517,0.302235,-0.796763,0.286550,0.155917,0.044297,0.309498,3.737686,-39.442734,-0.98558295,-0.7688209,0.29584932,-0.21018285,0.14313278,0.1553908,-0.2519536
20240215 12:02:59,0.134006,0.054239,-0.842607,0.246067,0.178289,0.035774,0.839523,4.153362,-39.330627,-5.1342406,-0.73200876,-5.8593974E-4,-0.42684612,0.13322113,0.17425215,-0.21072592
20240215 12:02:59,0.311715,-0.043468,-0.676534,0.091592,0.182551,-0.038800,0.943493,3.409668,-39.548981,-5.8637404,-0.512012,-0.09865184,-0.5425528,0.010972794,0.1768238,-0.09240198
20240215 12:02:59,0.192817,-0.054768,-0.517100,-0.000028,0.175093,-0.082480,0.925179,3.411514,-39.817230,-1.3408691,-0.3989261,-0.0542506,-0.38175154,-0.0759418,0.17516428,-0.030909868
20240215 12:02:59,-0.117382,0.015173,-0.124190,-0.060753,0.153786,-0.082480,1.191284,3.994392,-39.584671,2.9547932,-0.16369696,0.019886374,0.051136576,-0.111381926,0.15706201,0.015249118
20240215 12:02:59,-0.389101,0.053156,0.280658,-0.077799,0.081343,-0.048388,1.191284,3.994392,-39.584671,5.7964115,0.06631558,-4.0576793E-4,0.47091037,-0.087063804,0.081697986,0.043870382
20240215 12:02:59,-0.496976,0.060147,0.297559,-0.066080,0.031271,0.004879,0.881775,4.070271,-39.994629,6.773557,0.033173785,-0.0053198207,0.5735543,-0.029066484,0.026475249,0.059560135
20240215 12:02:59,-0.436960,0.068805,0.254303,-0.041577,0.025945,0.063473,1.190903,4.186279,-39.865158,4.0793023,0.027860329,0.027659612,0.5019178,0.03602826,0.018524718,0.06446802
20240215 12:02:59,-0.200779,0.057151,0.074465,-0.007486,0.052578,0.103956,1.042492,4.262993,-39.335754,1.2056637,-0.019616015,0.050009403,0.21294248,0.08878802,0.047989137,0.05014274
20240215 12:02:59,-0.050671,-0.024241,-0.177481,0.008494,0.127153,0.123133,1.358395,3.723942,-39.565369,-0.8875968,-0.18218082,-0.02147292,-0.026748445,0.1134845,0.12499639,0.043571766
20240215 12:02:59,0.051726,-0.104799,-0.189682,0.009560,0.205988,0.130590,1.067585,3.606083,-39.426590,-2.3343048,-0.1510218,-0.10700488,-0.1289025,0.12448124,0.20727979,0.05012888
20240215 12:02:59,0.202219,-0.183948,-0.024796,-0.005355,0.239014,0.123133,1.121372,4.176201,-39.463272,-3.5214024,0.062249668,-0.18717134,-0.19733019,0.11438824,0.24224962,0.06560597
20240215 12:02:59,0.188813,-0.286548,0.156826,-0.046904,0.217707,0.099695,1.349045,3.820808,-39.839722,-3.4448073,0.22124603,-0.28536683,-0.101876386,0.07046114,0.22007754,0.094064035
20240215 12:02:59,0.186217,-0.364478,0.423453,-0.093779,0.134610,0.061342,1.410381,3.352093,-39.674530,-3.644589,0.45336246,-0.35798776,0.029867887,0.01108788,0.13682991,0.11581612
20240215 12:02:59,0.168946,-0.346867,0.438149,-0.109759,0.082408,0.042166,1.631664,3.459873,-39.411438,-4.331924,0.45709044,-0.338044,0.04564117,-0.012781553,0.08490382,0.11953156
20240215 12:02:59,0.229168,-0.281668,0.199898,-0.124674,-0.016669,0.000618,1.667141,4.031837,-39.716354,-4.6156425,0.27279186,-0.27894136,-0.12575117,-0.055814985,-0.014755756,0.1111326
20240215 12:02:59,0.172860,-0.252660,-0.069575,-0.123609,0.005703,-0.010036,1.782261,4.133240,-39.587860,-3.9618692,0.00761196,-0.25542352,-0.1934296,-0.062533066,0.0066134273,0.10721413
20240215 12:02:59,0.117444,-0.177187,-0.069211,-0.108694,0.069624,-0.010036,1.500801,3.918510,-39.174728,-2.04473,-0.009115543,-0.17664513,-0.13875034,-0.057548918,0.06943735,0.09404152
20240215 12:02:59,-0.029377,-0.144006,0.178668,-0.079929,0.103715,0.001683,1.737438,3.658142,-39.557297,-0.10730276,0.14981963,-0.15112099,0.10887186,-0.0395043,0.10199559,0.0716576
20240215 12:02:59,-0.245301,-0.043839,0.363250,-0.055426,0.093061,0.029382,1.597607,4.021759,-39.314484,2.210975,0.2035645,-0.07701095,0.38990784,-0.0070377644,0.08879702,0.060999792
20240215 12:02:59,-0.254850,-0.060056,0.568188,-0.029858,0.029141,0.052820,1.615154,4.403690,-39.607178,0.532283,0.3728103,-0.09058678,0.5005328,0.030145336,0.0261112,0.051750615
20240215 12:02:59,-0.075425,-0.020232,0.561044,-0.013878,-0.069937,0.058146,1.694035,4.316898,-39.734695,-2.2113054,0.4563331,-0.023786014,0.33456498,0.04478919,-0.0703231,0.038738422
20240215 12:02:59,0.170204,-0.076432,0.332683,-0.010682,-0.154099,0.037905,1.472752,4.209118,-39.997803,-5.693071,0.3693948,-0.06403823,-0.0032004565,0.02103413,-0.15168029,0.019767381
20240215 12:02:59,0.417844,-0.164657,-0.069047,-0.010682,-0.179668,-0.004709,1.651398,4.591877,-39.351166,-9.439598,0.09672822,-0.19113664,-0.4189938,-0.027564628,-0.17843792,-0.004696026
20240215 12:02:59,0.535250,-0.147410,-0.508525,-0.006420,-0.095505,-0.060107,1.430500,4.292210,-39.333801,-10.956256,-0.27216336,-0.2457596,-0.6993885,-0.070139885,-0.10223889,-0.024417955
20240215 12:02:59,0.489721,-0.040774,-0.629964,0.008494,0.067493,-0.114440,1.226761,4.566357,-39.889603,-7.389922,-0.38430703,-0.11279166,-0.6998135,-0.09538453,0.05707173,-0.049462892
20240215 12:02:59,0.198707,0.018543,-0.341129,0.039390,0.218773,-0.144270,1.685841,3.838100,-39.167648,-1.4711916,-0.22460064,0.025894303,-0.3245954,-0.11753319,0.2214897,-0.09456137
20240215 12:02:59,-0.223743,0.103756,0.099693,0.086265,0.298674,-0.136812,1.966915,4.244717,-39.861252,2.6561742,-0.022840306,0.08560251,0.24230051,-0.10614463,0.3123168,-0.14564201
20240215 12:02:59,-0.472674,0.233045,0.395051,0.128879,0.286955,-0.098460,2.027870,3.967892,-39.976532,4.8498387,0.10179201,0.15753749,0.59206593,-0.059785467,0.30354092,-0.17087871
20240215 12:02:59,-0.528682,0.299267,0.357420,0.136336,0.248602,-0.073957,2.276817,3.976948,-39.170822,4.814752,0.043909967,0.22048393,0.62089014,-0.03500589,0.26363638,-0.16422334
20240215 12:02:59,-0.491617,0.301140,0.236807,0.091592,0.118630,-0.015363,1.860760,4.238338,-39.995850,4.2182145,-0.028827071,0.24985057,0.5359311,0.0128456205,0.1239824,-0.09309113
20240215 12:02:59,-0.262121,0.268864,-0.089157,0.023409,0.054709,0.007010,1.879074,4.236488,-39.727600,2.678919,-0.21221638,0.26516324,0.19607407,0.011523539,0.054787014,-0.01943765
20240215 12:02:59,-0.228558,0.262017,-0.103607,-0.052230,0.011030,0.014467,2.160156,4.643101,-40.421204,3.4746244,-0.21647431,0.26006216,0.15646693,-0.0102202315,0.0070483703,0.053144857
20240215 12:02:59,-0.396511,0.279510,0.096147,-0.089518,-0.016669,0.035774,1.923897,4.711586,-39.758163,4.8534985,-0.12348882,0.24347298,0.3871046,-0.006226402,-0.025761556,0.09665024
20240215 12:02:59,-0.456146,0.325855,0.337241,-0.074603,-0.028388,0.073061,1.977688,5.281704,-39.794846,4.6417217,0.053805575,0.2590657,0.5471219,0.033812355,-0.040672034,0.10060465
20240215 12:02:59,-0.432413,0.360298,0.373878,-0.026662,-0.024127,0.125263,2.320869,4.835823,-39.762329,3.522137,0.09906104,0.29637405,0.54424703,0.10152798,-0.038362507,0.08084398
20240215 12:02:59,-0.290181,0.213360,0.253018,0.019148,-0.004951,0.162550,2.275661,4.552612,-40.012238,1.046874,0.0807454,0.18639475,0.37120187,0.15372224,-0.015042786,0.0560373
20240215 12:02:59,-0.188145,0.161173,0.225623,0.047912,-0.002820,0.173204,1.852180,3.951431,-39.709259,0.29630244,0.1096229,0.14624587,0.26896662,0.17622338,-0.009674563,0.034847684
20240215 12:02:59,0.114118,-0.024710,-0.014435,0.059631,-0.006016,0.155093,2.233795,4.443817,-39.067764,-4.247547,0.034993023,-0.02554417,-0.110236585,0.16566,-0.0044466034,0.011360407
20240215 12:02:59,0.162702,-0.064826,-0.302268,0.057500,0.001442,0.141244,2.135448,5.108124,-40.049896,-4.7369804,-0.21132922,-0.07389368,-0.27341825,0.15240748,0.004245372,0.0048301257
20240215 12:02:59,0.282827,-0.091839,-0.385342,0.034063,0.038729,0.103956,2.602718,4.858662,-39.895004,-6.7492676,-0.24112248,-0.11432452,-0.41812804,0.11043781,0.042612225,0.012592748
20240215 12:02:59,0.249945,-0.143680,-0.373760,0.012756,0.067493,0.082649,1.669327,4.781918,-39.363403,-4.237317,-0.24116567,-0.15635693,-0.38571334,0.08229665,0.06947676,0.024399001
20240215 12:02:59,0.193400,-0.114285,-0.313053,-0.013878,0.086669,0.063473,2.221489,4.174385,-40.256042,-2.7936,-0.19438514,-0.11092677,-0.3141464,0.05008899,0.086088434,0.042336516
20240215 12:02:59,-0.069187,-0.061026,0.290111,-0.017074,0.083473,0.057081,2.363888,4.368954,-39.865402,-0.54016143,0.22563437,-0.07548855,0.19749063,0.03851896,0.08042409,0.04233405
20240215 12:02:59,-0.215266,0.048969,0.507171,0.005298,0.041925,0.065604,2.152725,3.780529,-39.293213,0.5166463,0.34160352,0.014279259,0.42918727,0.05787421,0.0383543,0.026156407
20240215 12:02:59,-0.213977,0.088998,0.480476,0.067089,-0.011343,0.107152,2.301907,3.320042,-39.261673,-0.51915663,0.32235202,0.06255655,0.41245127,0.12642115,-0.014534546,-0.009915572
20240215 12:03:00,-0.021612,0.027473,0.316568,0.118225,-0.021996,0.121002,2.258118,4.170685,-39.719543,-4.26562,0.27467626,0.031420283,0.15990068,0.16053522,-0.021237303,-0.05339477
20240215 12:03:00,0.201093,-0.113310,-0.157650,0.139532,-0.014539,0.116741,2.143375,3.877399,-39.567566,-7.067707,-0.06630292,-0.12741703,-0.25364488,0.1630406,-0.011452956,-0.07967463
20240215 12:03:00,0.384021,-0.202079,-0.391129,0.115029,0.007834,0.086911,2.142990,4.069283,-39.848053,-9.369599,-0.22062819,-0.25365746,-0.52009225,0.12616897,0.011209507,-0.07028259
20240215 12:03:00,0.366301,-0.219633,-0.393946,0.091592,0.017422,0.067734,2.549698,3.904770,-39.297379,-7.654792,-0.21667421,-0.25099266,-0.5081105,0.10066336,0.018836893,-0.05421359
20240215 12:03:00,0.139721,-0.189809,-0.029766,0.028736,0.004638,0.029382,2.582985,3.726658,-39.955261,-3.5082088,0.037704892,-0.18914731,-0.14333905,0.03915443,0.004540315,-0.012288892
20240215 12:03:00,-0.127919,-0.119172,0.375065,0.027671,-0.065675,0.030447,2.100357,4.344269,-39.464508,-0.4456222,0.27578217,-0.13699935,0.2884072,0.0425006,-0.066244856,-0.010404269
20240215 12:03:00,-0.236091,-0.014349,0.523238,0.056435,-0.133858,0.051754,2.593754,4.763641,-39.888885,-1.5483941,0.35353068,-0.03697159,0.45209408,0.07670906,-0.13452609,-0.027579155
20240215 12:03:00,-0.163701,0.063325,0.273773,0.080938,-0.210563,0.083715,2.354923,4.273933,-39.859299,-2.6108692,0.17437321,0.05827995,0.26762065,0.113583036,-0.21117316,-0.040675342
20240215 12:03:00,0.056189,0.011726,-0.139965,0.066023,-0.242523,0.098630,1.984467,4.626644,-40.153931,-5.816845,-0.10567549,0.0043973527,-0.10618989,0.10578166,-0.23910853,-0.03157069
20240215 12:03:00,0.270668,-0.028437,-0.648656,-0.005355,-0.231870,0.086911,1.852180,3.951431,-39.709259,-8.96057,-0.5068595,-0.101923354,-0.485105,0.05601811,-0.22189367,0.022929259
20240215 12:03:00,0.297242,-0.038362,-0.826512,-0.098040,-0.191386,0.048558,2.047600,5.099892,-39.916275,-7.964816,-0.6594521,-0.11243723,-0.5794925,-0.0061224625,-0.18383533,0.09909998
20240215 12:03:00,0.122466,0.054551,-0.463053,-0.161961,-0.165818,0.029382,1.720928,4.601955,-39.753036,-3.961083,-0.37284392,0.04355123,-0.29711786,-0.04207865,-0.16362992,0.15537159
20240215 12:03:00,-0.066228,0.119653,-0.039597,-0.169419,-0.174341,0.029382,1.542286,4.219196,-40.399689,-1.1543158,-0.06647803,0.11976292,0.043514997,-0.044102743,-0.17621915,0.16384432
20240215 12:03:00,-0.193442,0.105600,0.145460,-0.122543,-0.170079,0.052820,1.526157,4.971123,-40.314957,-0.6815873,0.04332886,0.09985074,0.23818587,-0.0022389702,-0.17270195,0.13240561
20240215 12:03:00,-0.169140,0.110749,0.095873,-0.059688,-0.134923,0.085845,1.490295,4.591045,-40.290512,-3.08747,0.015202142,0.11301932,0.19643995,0.05006378,-0.1334317,0.08763396
20240215 12:03:00,0.016713,0.009099,-0.158322,-0.013878,-0.067806,0.097564,1.641663,4.880634,-39.905991,-7.003213,-0.13537839,-0.0023673978,-0.08109818,0.077629074,-0.06044525,0.050013788
20240215 12:03:00,0.310416,-0.019255,-0.213410,0.008494,-0.045434,0.085845,1.580330,5.349354,-40.071167,-9.729131,-0.06703171,-0.05925598,-0.37088335,0.07594332,-0.03577903,0.023996739
20240215 12:03:00,0.357717,-0.099972,-0.306232,-0.012812,-0.032650,0.054950,1.341885,4.667759,-39.761093,-9.917358,-0.1478647,-0.15537797,-0.45520648,0.04085475,-0.02498211,0.031093672
20240215 12:03:00,0.337210,-0.117023,-0.409794,-0.034119,-0.010277,0.034709,1.535507,4.874256,-40.040604,-9.388002,-0.24515411,-0.17722034,-0.48136875,0.016287208,-0.0047626775,0.04448598
20240215 12:03:00,0.201782,-0.008579,-0.183514,-0.071407,0.050448,-0.015363,1.163628,4.093109,-40.127274,-5.3973684,-0.080498025,-0.023768688,-0.26065037,-0.041477893,0.051348493,0.060149413
20240215 12:03:00,-0.001223,0.072437,0.061568,-0.067145,0.061101,-0.014297,1.394638,3.912132,-39.309357,-3.0396388,0.055550303,0.07323305,0.0301066,-0.041839518,0.06133999,0.055258222
20240215 12:03:00,-0.130031,0.036362,0.239344,-0.053296,0.037663,0.000618,1.499645,4.494175,-40.016144,-2.9374475,0.15373367,0.03929366,0.22579163,-0.023460077,0.037929695,0.04856212
20240215 12:03:00,-0.063407,-0.052129,0.216233,-0.041577,-0.028388,0.009140,1.118416,3.809902,-40.377182,-3.6607726,0.16398594,-0.044947285,0.15115342,-0.011095845,-0.02751417,0.040498868
20240215 12:03:00,0.060671,-0.091886,-0.098715,-0.053296,-0.063545,0.004879,1.227146,4.374474,-39.609131,-6.1140847,-0.06986754,-0.09980613,-0.10033654,-0.022014007,-0.061488114,0.04758152
20240215 12:03:00,0.232005,-0.085411,-0.343181,-0.072472,-0.053957,-0.012167,1.816319,3.571350,-39.684814,-9.656636,-0.22638452,-0.1315128,-0.3551433,-0.046097737,-0.051509533,0.057697345
20240215 12:03:00,0.279844,-0.113897,-0.405286,-0.085256,0.004638,-0.040931,1.739243,4.600105,-39.484802,-9.28055,-0.2656728,-0.1671992,-0.42583892,-0.071370095,0.0043068663,0.06175109
20240215 12:03:00,0.259054,-0.049221,-0.375303,-0.085256,0.081343,-0.065434,1.711964,4.506935,-39.746918,-8.296035,-0.23719548,-0.09188798,-0.392442,-0.08749775,0.078649044,0.055680037
20240215 12:03:00,0.223489,-0.042305,-0.290476,-0.077799,0.152721,-0.084610,1.385288,4.008999,-39.583694,-3.8285062,-0.16451015,-0.052368917,-0.328941,-0.10622067,0.15147884,0.037521664
20240215 12:03:00,-0.025378,0.025586,0.029044,-0.072472,0.177224,-0.084610,1.499645,4.494175,-40.016144,0.14141677,0.012579529,0.024070652,0.036101557,-0.115025826,0.17867415,0.023348525
20240215 12:03:00,-0.370695,0.171962,0.733230,-0.025597,0.121826,-0.038800,1.254425,4.467640,-39.347015,1.5476028,0.44839233,0.12498143,0.6797353,-0.052352898,0.1228408,0.0017265882
20240215 12:03:00,-0.374281,0.157760,0.650122,-0.005355,0.022749,-0.002578,1.694035,4.316898,-39.734695,-0.2556185,0.388381,0.12881526,0.6386088,-0.005581391,0.022721076,0.0035345107
20240215 12:03:00,-0.181290,0.101223,0.369178,-0.012812,-0.049695,0.017663,1.984848,4.434757,-39.873474,-3.2361743,0.24611658,0.10261927,0.33208758,0.0097223185,-0.049621623,0.018166922
20240215 12:03:00,-0.086615,0.100663,0.261059,-0.039446,-0.098701,0.019794,1.358395,3.723942,-39.565369,-4.7744365,0.19962654,0.1125299,0.19638917,-0.0035852604,-0.097060725,0.040471107
20240215 12:03:00,0.084267,0.071940,0.060091,-0.054361,-0.114681,0.012336,1.782261,4.133240,-39.587860,-6.7557497,0.09505239,0.0729269,-0.046026394,-0.01953813,-0.11211087,0.04835564
20240215 12:03:00,0.169117,0.025998,-0.035954,-0.078864,-0.100832,-0.011101,1.827473,4.416451,-39.337967,-6.760549,0.042755146,0.018991586,-0.16648918,-0.05022266,-0.099020295,0.061066758
20240215 12:03:00,0.157980,0.047630,-0.058607,-0.066080,-0.065675,-0.021755,1.472752,4.209118,-39.997803,-6.4825144,0.018066075,0.03899779,-0.165371,-0.05215271,-0.06489681,0.047214076
20240215 12:03:00,0.143051,0.064717,-0.167162,-0.043708,-0.003885,-0.023885,1.287712,4.289532,-40.004898,-6.5451903,-0.0855998,0.048315965,-0.19693367,-0.04040187,-0.004106624,0.029290909
20240215 12:03:00,0.187950,0.012854,-0.203310,-0.034119,0.025945,-0.027081,1.482101,4.112247,-39.723450,-7.3413053,-0.102439746,-0.009446669,-0.25516328,-0.036953688,0.025009014,0.020867083
20240215 12:03:00,0.169117,-0.025585,-0.210943,-0.021335,0.071755,-0.039866,1.702999,4.411919,-39.740814,-6.2386947,-0.116508625,-0.041459262,-0.24514015,-0.041225024,0.070025146,0.0052230824
20240215 12:03:00,0.105927,-0.106868,0.041119,-0.022401,0.070689,-0.056911,1.139301,4.366241,-39.475494,-4.533264,0.080800384,-0.107307166,-0.07916863,-0.057935867,0.0687847,-0.0035769418
20240215 12:03:00,0.087686,-0.107902,0.153758,-0.017074,0.042990,-0.063303,1.588257,4.118629,-39.588837,-3.73094,0.17488997,-0.10590339,-0.009545371,-0.0631818,0.041984495,-0.012958344
20240215 12:03:00,-0.015575,-0.127026,0.216092,-0.003224,-0.011343,-0.075022,1.439465,4.387230,-39.339920,-2.890004,0.18287915,-0.12489219,0.11112185,-0.06802881,-0.012037165,-0.032235563
20240215 12:03:00,-0.003795,-0.013705,0.254230,0.041520,-0.051826,-0.081414,1.639862,3.938671,-39.978485,-4.140545,0.2235386,-0.0076845516,0.119648464,-0.054350235,-0.05422507,-0.07596451
20240215 12:03:00,0.022434,-0.005029,0.215954,0.059631,-0.065675,-0.081414,1.588257,4.118629,-39.588837,-4.661062,0.20248652,0.0016020234,0.07708776,-0.047751293,-0.06924818,-0.09228076
20240215 12:03:00,0.096465,-0.061233,-0.220511,0.084134,-0.041172,-0.094198,1.403221,4.199039,-39.595932,-5.2716827,-0.16261776,-0.07372238,-0.18178263,-0.052233826,-0.047424972,-0.11722554
20240215 12:03:00,0.120278,-0.012700,-0.286221,0.082004,0.006768,-0.098460,1.199867,4.281300,-39.871262,-4.9274426,-0.21178259,-0.028859407,-0.22726393,-0.055632036,3.243601E-4,-0.11482636
20240215 12:03:00,0.121056,0.128036,-0.329542,0.082004,0.021683,-0.099525,1.209217,4.184433,-39.596909,-4.84858,-0.2467761,0.11015635,-0.23848343,-0.057049025,0.0153817,-0.11421214
20240215 12:03:00,0.122892,0.172720,-0.361309,0.077742,0.056840,-0.102721,1.385288,4.008999,-39.583694,-5.5365195,-0.2734824,0.1505047,-0.24858531,-0.060402904,0.04953457,-0.109687164
20240215 12:03:00,0.083632,0.182954,-0.392336,0.054304,0.091996,-0.106983,1.491451,4.015377,-39.449097,-3.8940198,-0.3203508,0.17221448,-0.22972056,-0.07357188,0.08870605,-0.0902948
20240215 12:03:00,-0.041802,0.211626,-0.106510,-0.001094,0.082408,-0.093133,1.544853,4.777386,-39.766235,-1.7575626,-0.11592399,0.2123628,-0.0057059973,-0.08509524,0.0832045,-0.03830285
20240215 12:03:00,-0.083109,0.221741,0.081946,-0.018139,0.038729,-0.083545,1.630898,3.843651,-39.972382,-1.2340991,0.03228272,0.21942367,0.11301623,-0.08358275,0.04009313,-0.020567972
20240215 12:03:00,-0.158793,0.112863,0.246461,-0.052230,-0.068871,-0.070761,1.314991,4.382702,-39.742767,-0.23333263,0.1448753,0.104287714,0.25334817,-0.08491474,-0.06768826,0.014424615
20240215 12:03:00,-0.159394,0.103824,0.241518,-0.074603,-0.145576,-0.061173,1.154659,3.998089,-40.121170,-0.1542038,0.14148268,0.09624521,0.25113156,-0.084763706,-0.14497337,0.03893085
20240215 12:03:00,-0.170118,0.114660,0.143423,-0.063949,-0.156230,-0.048388,1.642433,4.496857,-39.345062,-1.0605077,0.0512344,0.10970255,0.21684182,-0.06821838,-0.15581575,0.034804195
20240215 12:03:00,-0.131586,0.126868,0.088906,-0.024531,-0.095505,-0.033474,1.254040,4.659531,-39.627472,-0.86879444,0.020229608,0.12447927,0.15808423,-0.03935761,-0.09515804,0.0067365225
20240215 12:03:00,-0.099260,0.122750,0.058202,0.034063,0.001442,-0.021755,1.447277,5.057911,-40.187439,-0.64028805,0.005830262,0.12028051,0.11534172,-0.004592145,0.0023156586,-0.04015077
20240215 12:03:00,-0.156495,0.114004,0.108581,0.075611,0.080277,-0.005775,1.455856,5.344822,-40.474030,-0.560732,0.024944812,0.1095243,0.18894343,0.026527068,0.081280954,-0.069947615
20240215 12:03:00,-0.164151,0.115674,0.151783,0.097984,0.106911,0.001683,1.156849,4.748169,-39.768188,-0.059919056,0.059523366,0.10975495,0.21471533,0.042582817,0.10805572,-0.08686534
20240215 12:03:00,-0.098018,0.100199,0.169595,0.085200,0.078147,0.005944,1.279133,4.002621,-39.718307,-1.0931323,0.10684128,0.09740116,0.16416815,0.04229489,0.078604184,-0.07295689
20240215 12:03:00,-0.070994,0.025211,0.140378,0.004233,-0.055022,0.011271,1.384525,4.392776,-40.144638,-1.1038648,0.09301458,0.022640496,0.12678869,0.012770669,-0.055147737,8.1514893E-4
20240215 12:03:00,-0.076825,0.003535,0.170273,-0.023466,-0.102963,0.014467,1.499645,4.494175,-40.016144,-1.7199428,0.116294265,0.0018154938,0.14617252,0.0029850453,-0.10317566,0.026068332
20240215 12:03:00,-0.035076,-0.058940,0.246993,-0.060753,-0.205236,0.012336,0.935947,4.448498,-39.750824,-0.75161916,0.20565236,-0.061574847,0.14169616,-0.014153784,-0.20564999,0.058631834
20240215 12:03:00,-0.068810,-0.090811,0.080840,-0.069276,-0.247850,0.013402,1.008438,4.824879,-39.238800,-0.9986304,0.042828493,-0.09174504,0.09675408,-0.016580833,-0.24822827,0.06615232
20240215 12:03:00,-0.079386,-0.058156,0.005468,-0.044773,-0.197779,0.022990,1.209217,4.184433,-39.596909,-0.9729952,-0.029591959,-0.058732625,0.073120475,0.003290495,-0.19834527,0.04883259
20240215 12:03:00,-0.060322,-0.053412,0.125775,0.050043,-0.069937,0.040035,0.776382,3.680115,-39.568298,-1.4833168,0.08468253,-0.05277578,0.110035405,0.058053464,-0.0698764,-0.027353637
20240215 12:03:00,-0.025083,-0.061158,0.134070,0.103310,-0.002820,0.044297,1.094479,3.891144,-39.444931,-2.4697344,0.107738316,-0.059493203,0.08149117,0.086014375,-0.002907471,-0.072397135
20240215 12:03:00,0.065379,-0.080766,0.052186,0.118225,0.017422,0.038970,0.945683,4.159740,-39.195999,-4.7388334,0.07158288,-0.079662636,-0.038869325,0.0876731,0.016486198,-0.088579364
20240215 12:03:00,0.175939,-0.110533,-0.042346,0.116095,0.035533,0.015532,0.715050,4.148830,-39.733459,-5.5356903,0.030699816,-0.118629046,-0.18147236,0.06653355,0.032776713,-0.096504286
20240215 12:03:00,0.249495,-0.139540,-0.121868,0.076677,0.023814,-0.017493,1.094093,4.083031,-39.725403,-6.0779133,-0.010405585,-0.15503693,-0.28377697,0.019110736,0.020182934,-0.07553682
20240215 12:03:00,0.286380,-0.189579,-0.100249,0.022344,-0.016669,-0.053715,0.900089,4.068420,-39.726379,-6.320197,0.020394005,-0.20646173,-0.3103013,-0.039751418,-0.021353882,-0.044104435
20240215 12:03:00,0.137329,-0.175261,-0.121177,-0.024531,-0.050761,-0.087806,0.979736,3.597855,-39.292969,-4.3649826,-0.057076264,-0.18295938,-0.18186669,-0.09182758,-0.053910863,-0.017448863
20240215 12:03:00,0.044551,-0.165771,-0.008071,-0.052230,-0.050761,-0.109113,0.503117,3.944180,-39.722214,-0.62540317,0.013281796,-0.1657044,-0.044210512,-0.120829456,-0.0505806,-0.002931673
20240215 12:03:00,-0.216049,-0.068593,0.266767,-0.033054,-0.041172,-0.106983,0.530396,4.037350,-39.460098,3.3359134,0.1381348,-0.09122117,0.3174597,-0.10733149,-0.035730794,-0.019672444
20240215 12:03:00,-0.472474,0.058665,0.485409,0.035128,-0.020931,-0.071826,0.749489,3.395058,-39.549957,5.0913696,0.1927399,-0.007188961,0.64375764,-0.044086624,-0.012797326,-0.06419543
20240215 12:03:00,-0.459755,0.121213,0.495955,0.122487,-0.004951,-0.023885,0.812626,3.868305,-39.312286,2.3120193,0.22195536,0.08300722,0.6338949,0.03540943,-4.219378E-4,-0.119650215
20240215 12:03:00,-0.280190,0.051931,0.308145,0.181081,0.012095,0.002748,1.067200,3.797974,-39.707062,0.43358508,0.14728855,0.038278908,0.38873112,0.08360378,0.014772029,-0.16049866
20240215 12:03:00,-0.095728,-0.003995,0.082916,0.190669,0.009964,-0.002578,0.882160,3.878384,-39.714142,-2.3847964,0.032798268,-0.0020135983,0.1222008,0.080982134,0.008507992,-0.17252597
20240215 12:03:00,0.065198,-0.033002,0.015162,0.171493,-0.025192,-0.023885,0.688156,3.863773,-39.715118,-4.4657674,0.03971713,-0.03373805,-0.053690635,0.049983554,-0.03048529,-0.16619636
20240215 12:03:00,0.223565,-0.079555,-0.129311,0.135271,-0.073133,-0.049454,0.943878,3.217777,-39.268509,-5.8033776,-0.028842285,-0.09442067,-0.26023915,0.0070097595,-0.08019582,-0.14654237
20240215 12:03:00,0.339275,-0.126558,-0.112149,0.071350,-0.093374,-0.102721,0.758453,3.490074,-39.556061,-5.896708,0.038024463,-0.1454227,-0.3596818,-0.06770661,-0.102659315,-0.112854816
20240215 12:03:00,0.268213,-0.188642,0.087009,0.055370,-0.099767,-0.116571,0.785347,3.775135,-39.574402,-5.1820397,0.18619469,-0.19094068,-0.20915955,-0.085306644,-0.10793983,-0.10528331
20240215 12:03:00,0.193253,-0.280623,0.159473,0.039390,-0.127466,-0.141074,0.652679,3.291805,-39.410202,-2.7797365,0.22316186,-0.27899894,-0.10499877,-0.11050241,-0.1314907,-0.102420986
20240215 12:03:00,0.053341,-0.294135,0.174691,0.066023,-0.116812,-0.164511,0.449329,3.374065,-39.685532,-1.1494446,0.17802869,-0.29315823,0.028560713,-0.11777003,-0.11810707,-0.1342051
20240215 12:03:00,-0.041297,-0.103377,0.176479,0.128879,-0.042238,-0.174100,0.555485,3.380447,-39.550934,0.23198035,0.1418544,-0.10651003,0.11501998,-0.09879526,-0.03843188,-0.19233221
20240215 12:03:00,-0.087669,0.047925,0.068492,0.217303,0.058970,-0.163446,0.644100,3.004894,-39.123611,1.0315926,0.023617748,0.044592455,0.108014375,-0.05818809,0.06694041,-0.26641485
20240215 12:03:00,-0.154065,0.134124,-0.101108,0.276962,0.150590,-0.142139,0.749489,3.395058,-39.549957,1.3627636,-0.15974477,0.13526408,0.09881034,-0.023742199,0.1605044,-0.3122082
20240215 12:03:00,-0.075713,0.139060,-0.206767,0.278028,0.188943,-0.130420,0.695316,3.016823,-39.793747,0.44930986,-0.22298379,0.14300354,-0.012530528,-0.014299855,0.1946036,-0.30751762
20240215 12:03:00,-0.003523,0.083127,-0.314325,0.227956,0.148460,-0.130420,0.879974,3.128304,-40.067123,-0.3064938,-0.29268962,0.08798328,-0.11762734,-0.03486432,0.15194803,-0.26029384
20240215 12:03:00,0.029844,0.056784,-0.401767,0.139532,0.066428,-0.135747,0.819790,3.021355,-39.390900,-0.3585527,-0.3621216,0.062466383,-0.17793787,-0.07454254,0.06906106,-0.18004662
20240215 12:03:00,0.088359,0.022857,-0.517298,0.039390,-0.004951,-0.140008,0.916214,3.316494,-39.811111,-1.1500614,-0.44893363,0.024768714,-0.27169585,-0.11579196,-0.004411847,-0.088014305
20240215 12:03:00,0.063167,0.038562,-0.556746,-0.042642,-0.031584,-0.148531,0.634750,3.101765,-39.397980,2.1606116,-0.49478912,0.0667274,-0.26551735,-0.15203434,-0.025164891,-0.014998306
20240215 12:03:00,-0.205165,0.130405,-0.344018,-0.080995,-0.010277,-0.131486,0.616436,3.103615,-39.666214,6.77949,-0.4095914,0.15954652,0.04924354,-0.15048611,0.0012246175,0.023970224
20240215 12:03:00,-0.467754,0.245047,-0.037557,-0.062884,0.037663,-0.071826,0.747303,2.644978,-39.902924,9.160853,-0.26789528,0.21425861,0.39215702,-0.09643739,0.04360821,0.024629505
20240215 12:03:00,-0.554772,0.290234,0.249319,-0.010682,0.049382,0.000618,0.986515,2.942799,-39.652039,8.321023,-0.059760988,0.21217011,0.58874357,-0.011191068,0.047918573,0.006806944
20240215 12:03:00,-0.483673,0.171515,0.240360,0.023409,0.025945,0.061342,0.871391,2.841396,-39.780548,4.941207,-0.0037385225,0.12732065,0.5333159,0.06278443,0.021123668,0.0036778841
20240215 12:03:00,-0.254154,0.075436,0.096723,0.021279,-0.008147,0.083715,1.040688,3.321026,-39.408249,3.2647107,-0.024042457,0.059650693,0.26946208,0.08529905,-0.013501301,0.015768379
20240215 12:03:00,-0.028664,0.030918,-0.016999,-0.005355,-0.048630,0.083715,0.650875,2.349842,-39.482712,1.0721769,-0.028227892,0.031026535,0.018906157,0.07557747,-0.05127082,0.039660025
20240215 12:03:00,0.087685,-0.009464,-0.124624,-0.037315,-0.081656,0.064538,0.853458,2.651356,-39.768326,-0.7235703,-0.07921131,-0.008039749,-0.1301648,0.045006823,-0.08235856,0.05954992
20240215 12:03:00,0.134454,-0.100088,-0.259035,-0.065015,-0.072067,0.040035,0.914795,2.182640,-39.603134,-0.6297626,-0.1830736,-0.096362844,-0.226756,0.011741357,-0.07286054,0.07525486
20240215 12:03:00,0.057483,-0.034323,-0.122859,-0.073537,-0.033715,0.018728,0.598892,2.721687,-39.373535,1.2055242,-0.08744774,-0.029555133,-0.1023895,-0.011912627,-0.03534485,0.07505493
20240215 12:03:01,-0.001519,-0.020677,-0.103753,-0.065015,-0.023061,0.018728,1.189098,3.244316,-39.937653,1.1417164,-0.09422855,-0.01608464,-0.04096987,-0.0085677225,-0.025159067,0.06716499
20240215 12:03:01,-0.145956,0.001002,-0.119261,-0.040512,0.014226,0.032578,0.704666,2.919960,-39.519379,3.2283003,-0.16798724,0.004536868,0.085118994,0.012356246,0.0109105995,0.049895383
20240215 12:03:01,-0.176875,0.080183,-0.122641,-0.019205,0.054709,0.062408,0.889706,2.839550,-39.512299,2.610855,-0.18792021,0.082715355,0.1113147,0.046035532,0.05034153,0.041624457
20240215 12:03:01,-0.064041,0.084039,-0.197659,-0.012812,0.071755,0.083715,0.943493,3.409668,-39.548981,0.60469216,-0.20942621,0.08929659,-0.019268591,0.069634244,0.06893301,0.044427592
20240215 12:03:01,0.072074,-0.001902,-0.349662,-0.039446,0.081343,0.083715,0.801861,2.831318,-39.378662,-0.23200107,-0.2952031,0.0038857867,-0.20067686,0.060932003,0.07980554,0.06866418
20240215 12:03:01,0.072018,-0.044686,-0.388157,-0.085256,0.097323,0.070931,0.898285,3.126453,-39.798889,-0.99903446,-0.32848838,-0.042377017,-0.21887332,0.03123787,0.09672974,0.106916584
20240215 12:03:01,0.132695,-0.092305,-0.236441,-0.131066,0.089865,0.058146,0.871391,2.841396,-39.780548,-1.0896449,-0.1617123,-0.09123149,-0.21807247,-5.027503E-4,0.08944177,0.14407578
20240215 12:03:01,0.107937,-0.155937,-0.162124,-0.186464,0.055774,0.034709,0.934528,3.314648,-39.542862,0.657585,-0.09448953,-0.14921321,-0.16670881,-0.05119058,0.051889695,0.18283097
20240215 12:03:01,-0.027546,-0.153041,0.080308,-0.194987,0.046186,0.028317,0.837334,3.403286,-39.683578,2.0199802,0.06661965,-0.15735427,0.06311049,-0.0646238,0.040028196,0.18616317
20240215 12:03:01,-0.243232,-0.106982,0.463926,-0.182203,0.012095,0.033643,0.916599,3.124607,-39.530640,3.9191155,0.29835534,-0.15152648,0.43799534,-0.05833584,0.002058472,0.17576353
20240215 12:03:01,-0.308784,-0.067474,0.591960,-0.133197,-0.043303,0.052820,0.943493,3.409668,-39.548981,4.036224,0.3813609,-0.12651266,0.5517921,-0.012570977,-0.05282274,0.14378288
20240215 12:03:01,-0.303706,-0.049369,0.375327,-0.079929,-0.032650,0.078388,0.704281,3.111843,-39.799866,3.8221345,0.199452,-0.086733155,0.4419,0.035763696,-0.04097654,0.10767588
20240215 12:03:01,-0.181672,-0.036476,0.223709,-0.027727,0.015291,0.098630,0.907635,3.029587,-39.524521,1.3692278,0.12181074,-0.049135916,0.2621227,0.075549394,0.01072236,0.06824427
20240215 12:03:01,0.007457,-0.023684,0.093368,0.020213,0.062166,0.108218,1.243275,3.622543,-39.693848,-1.6027443,0.08779321,-0.024082167,0.03262312,0.106275015,0.061727397,0.028402824
20240215 12:03:01,0.121481,-0.081230,-0.132601,0.037259,0.116499,0.098630,1.322536,3.343864,-39.540909,-3.2399719,-0.07155142,-0.084634244,-0.16743062,0.107292324,0.11795941,0.0097864475
20240215 12:03:01,0.183134,-0.094881,-0.228091,0.009560,0.162309,0.070931,1.101254,3.236084,-39.804016,-3.5082178,-0.13456365,-0.103385225,-0.2632313,0.07297234,0.16406445,0.024647731
20240215 12:03:01,0.210358,-0.058695,-0.187693,-0.006420,0.164440,0.062408,1.101254,3.236084,-39.804016,-3.8535006,-0.08527748,-0.06789783,-0.27073973,0.059437107,0.16646293,0.036266755
20240215 12:03:01,0.215325,-0.047859,-0.114939,-0.047969,0.136741,0.048558,1.252239,3.717564,-39.699966,-3.1245313,-0.013917409,-0.05176361,-0.24476248,0.026184943,0.1380022,0.067128174
20240215 12:03:01,0.168029,-0.063488,-0.077873,-0.095910,0.083473,0.035774,1.030186,3.993561,-40.524017,-2.9179404,-3.649965E-4,-0.06670976,-0.18652585,-0.006666623,0.0851208,0.1038068
20240215 12:03:01,0.134224,-0.091238,-0.031559,-0.138524,0.030206,0.026186,1.197678,3.531223,-40.224243,-2.842909,0.02768617,-0.09268222,-0.13670754,-0.035316497,0.03160797,0.13699102
20240215 12:03:01,0.171026,-0.064664,-0.086434,-0.160896,0.013160,0.020859,1.206261,3.818134,-40.510818,-2.4862854,-0.005545199,-0.06635517,-0.19273022,-0.049897812,0.014142405,0.15457198
20240215 12:03:01,0.084379,-0.054255,0.054697,-0.163027,0.031271,0.016598,1.321770,3.727638,-40.101852,-2.200583,0.086549565,-0.054221977,-0.051898465,-0.05808927,0.03153411,0.15372844
20240215 12:03:01,0.054661,-0.072667,0.214912,-0.130001,0.049382,0.009140,1.384907,4.200886,-39.864182,-0.68007636,0.2176179,-0.0765684,0.049156483,-0.052298035,0.047775324,0.12008495
20240215 12:03:01,-0.088798,-0.057076,0.295712,-0.079929,0.076016,0.010206,1.727322,4.138786,-40.392593,-0.014548414,0.22324714,-0.06991082,0.21526551,-0.030715369,0.07399504,0.075624265
20240215 12:03:01,-0.103502,0.041511,0.353541,-0.033054,0.102650,0.014467,1.542667,4.027306,-40.119217,-0.36935443,0.26321435,0.029783022,0.2564551,-0.0055552647,0.1016812,0.036295585
20240215 12:03:01,-0.032458,0.044049,0.440332,0.003168,0.099454,0.015532,1.499645,4.494175,-40.016144,-0.87598675,0.3728843,0.034681015,0.2351378,0.013170443,0.09914362,0.0051843245
20240215 12:03:01,0.032295,-0.009232,0.346173,0.021279,0.065362,0.011271,1.048885,3.799824,-39.975311,-1.983954,0.32213718,-0.007469156,0.13041395,0.020149346,0.06536253,-0.01266502
20240215 12:03:01,0.201610,-0.071595,0.188703,0.030867,0.052578,-0.008971,1.384907,4.200886,-39.864182,-4.0897894,0.25666136,-0.068990596,-0.09872312,0.007279085,0.05184142,-0.029943075
20240215 12:03:01,0.249316,-0.069459,0.013602,0.040455,0.068558,-0.037735,1.578911,4.215496,-39.863205,-4.1543365,0.11878559,-0.072222464,-0.22082755,-0.014593273,0.067031026,-0.05063302
20240215 12:03:01,0.102882,-0.065266,-0.011093,0.038324,0.100519,-0.053715,1.685070,4.221878,-39.728577,-1.3753357,0.03637016,-0.06416651,-0.097988635,-0.033199254,0.10178179,-0.056953236
20240215 12:03:01,-0.062270,0.064493,0.142003,0.047912,0.104780,-0.054781,1.411800,4.485943,-39.882523,1.8976921,0.09539739,0.054025054,0.11790982,-0.033926327,0.10923802,-0.068795845
20240215 12:03:01,-0.324405,0.233854,0.224834,0.068154,0.107976,-0.027081,1.790844,4.420147,-39.874451,4.2740602,0.031006962,0.192481,0.3825901,-0.004779849,0.113548666,-0.076634146
20240215 12:03:01,-0.433688,0.316504,0.270422,0.100114,0.098388,0.028317,2.230839,4.077515,-39.981674,3.8630815,0.014794588,0.26255792,0.49889162,0.05907128,0.099946655,-0.080169715
20240215 12:03:01,-0.281583,0.304041,0.173378,0.115029,0.077081,0.075192,1.895851,5.002193,-40.581253,0.8612812,0.018906638,0.2865514,0.3267511,0.112860546,0.07580054,-0.07220177
20240215 12:03:01,-0.025760,0.208973,-0.091637,0.096918,0.060036,0.090107,1.569942,4.120476,-39.857086,-1.8533466,-0.09574254,0.20958589,-0.011394283,0.12151703,0.05967375,-0.05052347
20240215 12:03:01,0.184405,0.107152,-0.190966,0.047912,0.038729,0.074127,1.825550,5.375893,-40.740326,-4.7379475,-0.09420806,0.098320454,-0.2428957,0.08849321,0.04037736,-0.011795701
20240215 12:03:01,0.328066,0.011709,-0.192178,-0.024531,-0.015604,0.034709,2.001240,5.392353,-41.007584,-5.888564,-0.036314547,-0.003978917,-0.37747064,0.020487957,-0.013484408,0.03606779
20240215 12:03:01,0.281303,-0.071564,-0.147820,-0.091648,-0.077394,-0.007905,1.799042,4.898945,-40.441498,-5.116658,-0.015471473,-0.081893906,-0.3199967,-0.04928728,-0.07601513,0.076462656
20240215 12:03:01,0.217392,-0.058972,-0.022098,-0.121478,-0.122139,-0.043062,1.764984,5.460831,-40.344559,-3.9677832,0.073315635,-0.061556965,-0.20716296,-0.0940426,-0.12178942,0.08709145
20240215 12:03:01,0.104829,-0.022202,-0.056351,-0.087387,-0.120008,-0.073957,1.639862,3.938671,-39.978485,-1.2680813,-0.0065572336,-0.020292796,-0.11901225,-0.10168677,-0.11937839,0.047009513
20240215 12:03:01,0.012040,0.017875,-0.145295,-0.066080,-0.085917,-0.078218,1.242889,3.814434,-39.974335,-0.41758907,-0.12725392,0.021180432,-0.0717213,-0.09679477,-0.08484392,0.026990999
20240215 12:03:01,-0.024120,0.064832,-0.190119,-0.010682,0.009964,-0.080349,1.711964,4.506935,-39.746918,-0.25487107,-0.1850774,0.07109848,-0.05703669,-0.07780626,0.012618048,-0.023693468
20240215 12:03:01,-0.076708,0.113256,-0.113060,0.047912,0.109042,-0.078218,1.358395,3.723942,-39.565369,0.82513595,-0.13972586,0.1164701,0.020771202,-0.05513079,0.11328444,-0.07724841
20240215 12:03:01,-0.091741,0.123028,0.079083,0.090526,0.165505,-0.072891,1.561363,3.833572,-39.570496,0.19155277,0.025660787,0.11817116,0.11705764,-0.031666145,0.16984096,-0.11365834
20240215 12:03:01,-0.058024,0.038976,0.180879,0.104376,0.149525,-0.079284,1.894817,3.676449,-40.092804,-0.6903254,0.1338909,0.032202955,0.13359359,-0.028420255,0.15366681,-0.12810357
20240215 12:03:01,0.008065,0.003512,0.255686,0.099049,0.097323,-0.095264,1.852947,3.567650,-39.148331,0.03896188,0.2302511,-0.007186627,0.11061525,-0.042972956,0.103448026,-0.1318267
20240215 12:03:01,-0.057862,0.011476,0.363925,0.087330,0.032337,-0.113375,1.482872,3.728470,-39.162506,1.023589,0.29519263,-0.007578885,0.21905835,-0.06173479,0.039959975,-0.13003364
20240215 12:03:01,-0.114689,0.074285,0.343863,0.074546,-0.044368,-0.122963,1.613350,3.461723,-39.679672,3.2341623,0.24665293,0.04062049,0.25632286,-0.07148064,-0.03083501,-0.121070996
20240215 12:03:01,-0.286646,0.093803,0.268497,0.060697,-0.120008,-0.111244,1.640247,3.746780,-39.698013,3.6932392,0.10369572,0.05595052,0.37307516,-0.061332546,-0.10652197,-0.100213
20240215 12:03:01,-0.223718,0.130163,0.051069,0.054304,-0.156230,-0.086741,1.789040,3.478184,-39.946945,3.1643183,-0.05912324,0.11598703,0.22146234,-0.04187338,-0.14567362,-0.08200574
20240215 12:03:01,-0.217164,0.139902,-0.191464,0.046847,-0.133858,-0.061173,1.437660,3.445263,-39.412415,4.2523685,-0.27548528,0.14845222,0.117461234,-0.023666013,-0.12509547,-0.063475385
20240215 12:03:01,-0.244624,0.121710,-0.302332,0.055370,-0.068871,-0.030278,1.956150,3.207733,-39.927628,3.3040998,-0.38533968,0.13946666,0.09931294,0.00128714,-0.0633279,-0.061256777
20240215 12:03:01,-0.162707,0.096056,-0.249466,0.077742,-0.003885,0.002748,1.665718,2.897987,-39.508392,2.048377,-0.30011085,0.10801819,0.04557822,0.034454793,-0.001663211,-0.06981699
20240215 12:03:01,-0.120503,0.003748,-0.209852,0.079873,0.039794,0.022990,1.364788,3.260773,-40.204926,3.3044367,-0.24058507,0.016085513,0.021615341,0.051055,0.04074706,-0.06388357
20240215 12:03:01,-0.123706,-0.053634,-0.026751,0.048978,0.001442,0.049624,1.479916,3.362171,-40.076416,2.177113,-0.074261904,-0.055639975,0.100702204,0.0657597,-2.5966763E-4,-0.022602718
20240215 12:03:01,-0.101298,-0.054978,0.068233,0.035128,-0.031584,0.056016,1.304607,3.153824,-39.528687,2.2732503,0.020930517,-0.062227216,0.1217806,0.06757519,-0.03397764,-0.0068679135
20240215 12:03:01,-0.040371,-0.090737,-0.006410,0.001037,-0.092309,0.065604,1.568527,2.986626,-39.649109,0.9407386,-0.018555311,-0.091230534,0.034385666,0.06423023,-0.09539992,0.0277739
20240215 12:03:01,0.021129,-0.129131,-0.049666,-0.030923,-0.131727,0.071996,1.268360,2.965633,-39.784698,-0.31017002,-0.03273847,-0.12763958,-0.04061594,0.055060215,-0.13377821,0.058405533
20240215 12:03:01,0.103328,-0.139890,-0.061738,-0.043708,-0.134923,0.071996,1.340466,3.533901,-39.553131,-0.47298804,-0.008036636,-0.13722797,-0.120325446,0.049390554,-0.13706426,0.06992153
20240215 12:03:01,0.073569,-0.128693,-0.010345,-0.034119,-0.107224,0.074127,1.631283,3.651760,-39.691895,-0.7276857,0.026028726,-0.12743565,-0.07146627,0.05472319,-0.109554745,0.062344164
20240215 12:03:01,0.035692,-0.168137,0.029618,-0.005355,-0.067806,0.081584,1.243656,3.430656,-39.413391,-0.56105036,0.045578413,-0.16834334,-0.019957643,0.0724642,-0.069483206,0.040043816
20240215 12:03:01,0.077487,-0.146597,0.034088,0.021279,-0.019865,0.085845,1.101254,3.236084,-39.804016,-1.2551062,0.06517877,-0.14657347,-0.056526646,0.086733736,-0.020351699,0.017727658
20240215 12:03:01,0.120215,-0.202210,-0.004176,0.037259,0.009964,0.075192,1.595421,3.271683,-39.667450,-2.579729,0.047893494,-0.20232174,-0.1141189,0.08392823,0.010067781,-8.885339E-4
20240215 12:03:01,0.126794,-0.176846,-0.043322,0.040455,0.033402,0.054950,1.461987,3.172131,-40.064194,-1.8619514,0.016347162,-0.17627822,-0.13556504,0.06682131,0.033207193,-0.012453759
20240215 12:03:01,0.095978,-0.135464,-0.029753,0.038324,0.041925,0.030447,1.383102,3.258923,-39.936676,-1.2591699,0.016188914,-0.13449517,-0.10071439,0.043449223,0.041766845,-0.021085821
20240215 12:03:01,0.044384,-0.134897,-0.059148,0.042586,0.042990,0.004879,1.613735,3.269833,-39.399216,-0.7209647,-0.03136341,-0.13273652,-0.06588494,0.02123025,0.043364994,-0.036338724
20240215 12:03:01,-0.015765,-0.101171,-0.139370,0.043651,0.053644,-0.023885,1.420116,3.063332,-39.119705,0.55504096,-0.128983,-0.09561125,-0.043251574,-0.0057460107,0.055398818,-0.049847323
20240215 12:03:01,-0.069343,-0.065777,-0.170861,0.050043,0.068558,-0.050519,1.411152,2.968315,-39.113602,1.555761,-0.18028268,-0.057785057,-0.0057785884,-0.029427722,0.07253131,-0.06707168
20240215 12:03:01,-0.185912,-0.012472,-0.279555,0.050043,0.088800,-0.061173,1.762531,3.001236,-39.648132,2.9848146,-0.3281617,0.004715506,0.060193814,-0.04369659,0.0955295,-0.07200209
20240215 12:03:01,-0.206281,0.049850,-0.388606,0.046847,0.133545,-0.064369,1.729244,3.179344,-38.990250,3.994941,-0.44109184,0.08028865,0.03825842,-0.054377884,0.14129587,-0.07171273
20240215 12:03:01,-0.342610,0.078126,-0.342263,0.037259,0.187877,-0.060107,1.850372,3.009464,-39.781769,6.134405,-0.45779037,0.10333277,0.1747307,-0.06498885,0.19614057,-0.0660608
20240215 12:03:01,-0.508623,0.174843,-0.129519,0.035128,0.210250,-0.035604,1.753567,2.906216,-39.642014,8.633866,-0.3559184,0.15466729,0.39907613,-0.052714568,0.2153074,-0.05962066
20240215 12:03:01,-0.617005,0.250912,0.044111,0.032997,0.193204,0.007010,2.186783,3.218639,-39.390167,8.291149,-0.2651887,0.18894543,0.5621949,-0.013157621,0.19111483,-0.038751975
20240215 12:03:01,-0.591630,0.292667,0.148194,0.012756,0.146329,0.058146,1.920677,2.635765,-39.622696,7.954844,-0.17153026,0.21913178,0.57924885,0.033793736,0.13573799,0.00468193
20240215 12:03:01,-0.497416,0.256567,0.290669,-0.026662,0.058970,0.095434,1.974850,3.013996,-39.378922,5.8217907,0.004911065,0.18456121,0.5625014,0.06529097,0.04430666,0.063241705
20240215 12:03:01,-0.340994,0.246618,0.301210,-0.075668,-0.050761,0.122067,2.053341,3.119087,-39.786911,2.509492,0.10062575,0.20679945,0.43340153,0.080577,-0.06373474,0.12225871
20240215 12:03:01,-0.053874,0.103842,0.208075,-0.116151,-0.117877,0.127394,2.256313,3.228718,-39.792053,-1.5656397,0.16087434,0.09724243,0.14028496,0.06736609,-0.12295526,0.15860361
20240215 12:03:01,0.186304,0.002725,0.158060,-0.137458,-0.131727,0.109283,1.674683,2.993008,-39.514496,-3.5364616,0.22365065,0.0036463689,-0.098455034,0.03633434,-0.12930338,0.16776763
20240215 12:03:01,0.279862,-0.086489,0.145319,-0.137458,-0.111485,0.076257,1.543819,3.451645,-39.277817,-3.2315323,0.25398487,-0.086414054,-0.1877493,0.0054777414,-0.10973858,0.15418431
20240215 12:03:01,0.170362,-0.207284,0.270727,-0.109759,-0.055022,0.049624,1.683651,3.088024,-39.520615,-1.6976938,0.32174814,-0.20970193,-0.02686277,-0.0067437887,-0.056472342,0.11945034
20240215 12:03:01,0.072067,-0.171637,0.496755,-0.033054,-0.003885,0.043231,1.559563,2.891605,-39.642990,-1.3421854,0.47380492,-0.17881656,0.1710989,0.022340966,-0.0048469687,0.04959853
20240215 12:03:01,0.057662,-0.128408,0.470982,0.067089,0.047252,0.052820,1.568527,2.986626,-39.649109,-1.5359364,0.44574937,-0.13419436,0.16541527,0.07726275,0.04701278,-0.034407884
20240215 12:03:01,0.156152,-0.151520,0.255764,0.135271,0.094127,0.064538,1.849995,3.201351,-40.062241,-4.074072,0.2958986,-0.14832793,-0.029807203,0.12007229,0.09404678,-0.088959746
20240215 12:03:01,0.326979,-0.235423,0.077461,0.148055,0.096258,0.064538,2.052963,3.310978,-40.067368,-6.781268,0.19912821,-0.23932461,-0.27310815,0.12755676,0.0957131,-0.10052958
20240215 12:03:01,0.442775,-0.256567,-0.100240,0.116095,0.057905,0.049624,1.974850,3.013996,-39.378922,-8.968413,0.07568008,-0.28235134,-0.45983973,0.0991642,0.05719912,-0.08035976
20240215 12:03:01,0.565488,-0.232880,-0.255397,0.056435,-0.001754,0.027251,1.938221,3.017696,-39.915405,-10.330942,-0.025932938,-0.28759953,-0.6358691,0.04756728,-0.001523759,-0.0406665
20240215 12:03:01,0.596385,-0.223524,-0.372951,-0.010682,-0.028388,-0.002578,1.974850,3.013996,-39.378922,-10.339169,-0.12341915,-0.2920261,-0.70978945,-0.009778042,-0.027946899,0.0067045516
20240215 12:03:01,0.488856,-0.216370,-0.330867,-0.058622,-0.020931,-0.023885,2.168468,3.220490,-39.658401,-8.189241,-0.11577743,-0.2561186,-0.5928901,-0.04732195,-0.020677568,0.042513795
20240215 12:03:01,0.347566,-0.115532,-0.132218,-0.077799,-0.006016,-0.030278,1.920292,2.827656,-39.903183,-4.9767613,0.024971917,-0.124340974,-0.37483734,-0.06068948,-0.0058225007,0.057325978
20240215 12:03:01,0.152801,-0.051372,0.045365,-0.066080,0.006768,-0.020689,1.849995,3.201351,-40.062241,-2.5757017,0.10798905,-0.051261663,-0.11844641,-0.047605235,0.0067249043,0.050449073
20240215 12:03:01,0.088519,-0.069248,0.178936,-0.038381,0.017422,-0.000448,2.352737,3.523861,-40.212265,-3.433652,0.1997845,-0.06954305,-0.0014966577,-0.01754254,0.017380903,0.03462502
20240215 12:03:01,0.158754,-0.024458,0.211276,0.004233,0.023814,0.014467,2.052963,3.310978,-40.067368,-4.677046,0.2590471,-0.02145644,-0.050373256,0.015381115,0.024084797,0.0034240142
20240215 12:03:01,0.283440,-0.062322,0.043165,0.025540,0.023814,0.018728,2.168083,3.412380,-39.938889,-6.7908483,0.15683419,-0.066922426,-0.24110293,0.029051075,0.024119752,-0.013942829
20240215 12:03:01,0.327862,-0.080998,-0.147063,0.006364,0.031271,0.002748,2.247345,3.133698,-39.785934,-6.8630643,-0.001537621,-0.09612257,-0.36290854,0.0067466125,0.031213237,-0.0031032036
20240215 12:03:01,0.288461,0.010322,-0.140031,-0.031989,0.032337,-0.015363,2.037601,3.679131,-39.421707,-5.904451,-0.005283214,-0.0010968358,-0.31984195,-0.02602002,0.03227962,0.024003506
20240215 12:03:01,0.184342,0.089805,-0.001650,-0.056492,0.014226,-0.017493,1.710545,3.373085,-39.538956,-3.3019242,0.078923665,0.08891752,-0.1647828,-0.040013053,0.014318382,0.043782823
20240215 12:03:01,0.069387,0.064917,0.174982,-0.076733,-0.028388,-0.012167,2.195362,3.505550,-39.676743,-2.674698,0.1869047,0.06344918,0.016847145,-0.04469743,-0.02865575,0.06275454
20240215 12:03:01,0.010651,0.012685,0.221714,-0.082060,-0.088048,-0.011101,2.273861,3.610645,-40.084732,-3.0133832,0.20358704,0.0112524545,0.08839999,-0.045577414,-0.08823867,0.06671345
20240215 12:03:01,0.099729,0.022838,0.078239,-0.076733,-0.112551,-0.013232,1.769962,3.863808,-40.776138,-3.4393203,0.11369918,0.023207376,-0.056047864,-0.046192862,-0.11226232,0.060774557
20240215 12:03:01,0.115831,0.020695,-0.080929,-0.063949,-0.091244,-0.019624,1.948986,4.054676,-39.849030,-4.1541963,-0.02457966,0.018241754,-0.13836113,-0.04626439,-0.09104541,0.04710283
20240215 12:03:02,0.151814,0.040875,-0.121109,-0.054361,-0.067806,-0.023885,1.852562,3.759541,-39.428802,-4.7642236,-0.045824602,0.03531151,-0.18682787,-0.046277437,-0.0677437,0.03721359
20240215 12:03:02,0.168325,0.049777,-0.142350,-0.021335,0.023814,-0.046258,1.780460,3.191273,-39.660355,-3.6621618,-0.05750817,0.04671413,-0.21116023,-0.05060566,0.023307143,5.481802E-4
20240215 12:03:02,0.110146,0.056729,-0.058747,-0.002159,0.066428,-0.056911,1.904163,3.579578,-39.818451,-2.6498928,-0.006002266,0.05715265,-0.123546615,-0.052582365,0.066640414,-0.021132078
20240215 12:03:02,0.000726,0.091360,0.050986,0.003168,0.072820,-0.066499,1.922478,3.577732,-39.550201,-1.2618836,0.043922063,0.09005385,0.02237893,-0.060314953,0.07449883,-0.031055875
20240215 12:03:02,-0.099598,0.106321,0.142566,-0.005355,0.037663,-0.065434,2.088821,3.691055,-40.091827,0.56951094,0.077463955,0.095575206,0.15205559,-0.062971845,0.041042726,-0.024408827
20240215 12:03:02,-0.230978,0.159341,0.281249,-0.022401,-0.039042,-0.054781,2.143375,3.877399,-39.567566,1.1965162,0.13646367,0.13276967,0.3311303,-0.05630494,-0.036071926,-0.0042034667
20240215 12:03:02,-0.211109,0.157965,0.186357,-0.041577,-0.126400,-0.037735,1.894817,3.676449,-40.092804,1.0193125,0.06602048,0.14103833,0.2700611,-0.044769242,-0.12513313,0.021906061
20240215 12:03:02,-0.087150,0.088808,0.016003,-0.058622,-0.175406,-0.027081,1.737438,3.658142,-39.557297,-0.9790278,-0.024666693,0.08734731,0.08636269,-0.044951055,-0.17534724,0.040358156
20240215 12:03:02,0.067905,0.075752,-0.150266,-0.057557,-0.173276,-0.031343,1.561749,3.641682,-39.290039,-2.8815475,-0.10893127,0.07441485,-0.12166369,-0.053375024,-0.17331146,0.036228247
20240215 12:03:02,0.164677,0.050875,-0.334577,-0.040512,-0.113616,-0.043062,2.116096,3.784225,-39.829712,-4.7549906,-0.23941922,0.04111489,-0.28263694,-0.058383137,-0.1141854,0.016189901
20240215 12:03:02,0.214236,-0.045686,-0.362691,-0.013878,-0.029454,-0.062238,1.428310,3.542130,-39.686768,-4.1534715,-0.24722701,-0.059468817,-0.34287146,-0.06342785,-0.031135045,-0.013094024
20240215 12:03:02,0.183057,-0.063569,-0.328742,0.005298,0.046186,-0.086741,1.931057,3.864639,-39.836792,-3.3686895,-0.22466281,-0.0663796,-0.3034613,-0.07655109,0.045575593,-0.03935777
20240215 12:03:02,0.058207,0.005974,-0.133061,0.014887,0.079212,-0.104852,1.798004,3.573200,-39.953064,-0.44816586,-0.09537691,0.011427484,-0.10960947,-0.09096928,0.08295741,-0.058133125
20240215 12:03:02,-0.114301,0.076239,0.088206,0.018083,0.042990,-0.105917,2.000973,3.682831,-39.958191,0.9035765,0.024881028,0.06770196,0.14080374,-0.089719854,0.049587987,-0.06277516
20240215 12:03:02,-0.186936,0.128467,0.090312,0.006364,-0.024127,-0.097394,1.824902,3.858261,-39.971405,1.8528613,-0.008388072,0.11575505,0.20579246,-0.083171204,-0.017167132,-0.047468428
20240215 12:03:02,-0.191253,0.152384,0.039150,-0.018139,-0.092309,-0.085676,2.027870,3.967892,-39.976532,1.0623343,-0.054887775,0.14409316,0.18867272,-0.07942347,-0.08732137,-0.019056916
20240215 12:03:02,-0.090478,0.165099,-0.086894,-0.047969,-0.139184,-0.079284,1.976265,4.147850,-39.586884,-0.49711943,-0.122730285,0.16668914,0.0470006,-0.086694434,-0.13688754,0.010359526
20240215 12:03:02,-0.036338,0.136297,-0.185112,-0.070341,-0.147707,-0.079284,1.525505,3.453495,-39.546051,0.6640056,-0.18960309,0.14374256,-0.04372657,-0.0944559,-0.14538202,0.032176733
20240215 12:03:02,-0.086811,0.165444,-0.119695,-0.062884,-0.115747,-0.075022,1.728088,3.755009,-39.831665,1.3134246,-0.15465197,0.169774,0.026719302,-0.08756359,-0.11280084,0.026550334
20240215 12:03:02,-0.147322,0.228971,0.002756,-0.016009,-0.065675,-0.056911,1.719124,3.659988,-39.825546,1.8578385,-0.07533456,0.22355464,0.13140428,-0.053801816,-0.062200233,-0.008750614
20240215 12:03:02,-0.137475,0.258648,-0.021276,0.038324,0.002507,-0.039866,0.909439,3.971550,-39.452026,2.2229297,-0.090876326,0.25589645,0.111772135,-0.020245895,0.0056310734,-0.05151606
20240215 12:03:02,-0.039155,0.207265,-0.030774,0.071350,0.051513,-0.027081,1.172970,3.996239,-39.852936,0.7837154,-0.052325748,0.2075651,0.021414129,0.003439594,0.053779546,-0.07642035
20240215 12:03:02,0.044206,0.155882,-0.026062,0.068154,0.048317,-0.028147,1.594654,3.655460,-40.228409,-0.5671384,-0.009070994,0.15709323,-0.050434828,0.0021652933,0.049942665,-0.073451586
20240215 12:03:02,0.024063,0.096532,0.001125,0.037259,0.007834,-0.032408,1.861912,3.662670,-39.154434,-0.25750494,0.0076255323,0.09684663,-0.021036819,-0.013445353,0.009786754,-0.047578245
20240215 12:03:02,0.005169,0.079858,0.069727,0.004233,-0.061414,-0.035604,1.631283,3.651760,-39.691895,-0.0024501055,0.062020984,0.07730773,0.025703982,-0.027915165,-0.059971742,-0.019312292
20240215 12:03:02,0.007401,0.038308,0.032336,-0.016009,-0.124270,-0.037735,1.525120,3.645378,-39.826523,0.47864023,0.030772189,0.03706386,0.0069719465,-0.035736285,-0.12287793,-0.0011860467
20240215 12:03:02,-0.042260,0.033697,-0.114553,-0.023466,-0.142380,-0.034539,1.552784,3.546661,-39.283920,1.0953177,-0.12339974,0.038658947,-0.008766655,-0.033596992,-0.14088479,0.008332333
20240215 12:03:02,-0.101364,0.119163,-0.230428,-0.010682,-0.110420,-0.019624,1.446243,3.732170,-39.698990,1.8212181,-0.25852847,0.13020162,-0.0021317005,-0.0155011155,-0.1092672,0.0032440005
20240215 12:03:02,-0.097778,0.157715,-0.258001,0.012756,-0.057153,0.002748,1.409996,3.543980,-39.955017,1.8528179,-0.28463787,0.17042919,-0.014984295,0.011055609,-0.05685902,-0.009872558
20240215 12:03:02,-0.074931,0.137750,-0.320597,0.031932,0.002507,0.022990,1.376709,3.722092,-39.297119,0.70149744,-0.3295142,0.14994058,-0.059513666,0.03366887,0.0021127532,-0.020157529
20240215 12:03:02,0.014591,0.072260,-0.323959,0.044716,0.063232,0.028317,1.525505,3.453495,-39.546051,-0.027314287,-0.2929749,0.08372778,-0.14376758,0.041699387,0.06288423,-0.0295199
20240215 12:03:02,0.019686,-0.013583,-0.257480,0.051108,0.100519,0.029382,1.119183,3.426125,-39.816254,0.054864835,-0.22610736,-0.006536263,-0.123896524,0.045142755,0.10030997,-0.03452824
20240215 12:03:02,0.077920,-0.093507,-0.089872,0.043651,0.094127,0.020859,1.446625,3.540279,-39.418533,-1.590413,-0.046664525,-0.092291206,-0.110128134,0.036724865,0.09412128,-0.029293124
20240215 12:03:02,0.139932,-0.178795,0.035636,0.022344,0.031271,-0.001513,1.376709,3.722092,-39.297119,-2.0824103,0.093552284,-0.17876993,-0.112971485,0.008419577,0.031280737,-0.020243585
20240215 12:03:02,0.155409,-0.235326,0.045846,-0.007486,-0.044368,-0.033474,1.428310,3.542130,-39.686768,-2.004072,0.109606475,-0.23524213,-0.123532586,-0.03326794,-0.0442842,-0.008504307
20240215 12:03:02,0.120593,-0.207296,-0.081672,-0.024531,-0.093374,-0.056911,1.631664,3.459873,-39.411438,-0.8190057,-0.017756324,-0.20372954,-0.14506485,-0.05956608,-0.092189014,-0.0023940355
20240215 12:03:02,-0.024340,-0.086626,-0.177238,-0.018139,-0.077394,-0.060107,1.321770,3.727638,-40.101852,1.5889663,-0.16656475,-0.07749995,-0.049824648,-0.057967946,-0.074456185,-0.007341737
20240215 12:03:02,-0.142178,0.059649,-0.168056,0.020213,-0.006016,-0.041996,1.216377,3.337486,-39.675507,3.1318612,-0.21557748,0.06725093,0.059374757,-0.029407728,-0.0021614127,-0.035517454
20240215 12:03:02,-0.173994,0.097385,-0.145759,0.070285,0.073885,-0.010036,1.182705,3.707485,-39.298096,2.7942803,-0.21044303,0.10185022,0.097576275,0.014364987,0.07655962,-0.06973263
20240215 12:03:02,-0.048683,0.028329,-0.140621,0.099049,0.130349,0.013402,1.588257,4.118629,-39.588837,0.611091,-0.14931639,0.033720788,-0.013783231,0.047086522,0.13162374,-0.08527357
20240215 12:03:02,0.036919,-0.037540,-0.143362,0.086265,0.138871,0.016598,1.427544,3.925911,-40.247711,-0.83639675,-0.11422503,-0.034386083,-0.093455166,0.048263963,0.13928829,-0.070688926
20240215 12:03:02,0.161343,-0.065954,-0.072218,0.047912,0.105846,0.000618,1.710159,3.564968,-39.819427,-2.7635238,0.0027698278,-0.06630221,-0.17805512,0.021104455,0.10579392,-0.040978506
20240215 12:03:02,0.169593,-0.063940,-0.025169,0.001037,0.035533,-0.019624,1.524738,3.837269,-40.106979,-2.0735497,0.049316928,-0.063584335,-0.16524294,-0.017454388,0.03560077,-0.008707988
20240215 12:03:02,0.181592,-0.059970,-0.009240,-0.049034,-0.031584,-0.037735,1.692616,3.183044,-39.526733,-2.0304282,0.069299154,-0.0591547,-0.16921495,-0.054718778,-0.03145617,0.02789258
20240215 12:03:02,0.130699,-0.068307,0.018845,-0.080995,-0.077394,-0.049454,1.137882,3.232388,-39.267532,-0.0774619,0.074530594,-0.06720772,-0.110192314,-0.077337205,-0.07708333,0.052094374
20240215 12:03:02,0.001810,0.038273,0.037027,-0.090583,-0.080590,-0.048388,1.383102,3.258923,-39.936676,1.0900688,0.03235486,0.03650755,0.013958488,-0.07873607,-0.08022884,0.061669625
20240215 12:03:02,-0.058834,0.069646,0.120886,-0.065015,-0.045434,-0.031343,1.286674,2.963787,-39.516449,1.5034033,0.07960641,0.06186797,0.10466809,-0.05407974,-0.04535919,0.045484785
20240215 12:03:02,-0.101908,0.108490,0.156521,-0.017074,0.017422,-0.012167,1.368515,3.243294,-38.730057,2.1682925,0.088976346,0.09511912,0.15823436,-0.01948646,0.017624095,0.009753222
20240215 12:03:02,-0.119363,0.104439,0.186748,0.036194,0.087735,0.007010,1.507191,3.455341,-39.814301,1.3884469,0.10990172,0.090925485,0.1877904,0.017319717,0.0881486,-0.030430468
20240215 12:03:02,-0.014808,0.060383,0.183556,0.076677,0.127153,0.016598,1.685841,3.838100,-39.167648,-0.7864253,0.15743254,0.05518859,0.09300695,0.044642568,0.12764083,-0.06122768
20240215 12:03:02,0.074556,-0.024431,0.072055,0.082004,0.130349,0.013402,1.419731,3.255222,-39.400192,-0.24482621,0.09781288,-0.025472276,-0.03629918,0.043641794,0.13102512,-0.067996465
20240215 12:03:02,0.082276,-0.105233,0.073357,0.054304,0.091996,0.003814,1.922478,3.577732,-39.550201,-1.5537329,0.10411556,-0.105898365,-0.043182053,0.025259595,0.09244094,-0.046081845
20240215 12:03:02,0.102737,-0.076959,0.170687,0.010625,0.006768,-0.012167,1.922863,3.385845,-39.269745,-1.4426576,0.2002747,-0.07965625,-0.01694458,-0.0063185995,0.007163079,-0.014851471
20240215 12:03:02,0.035094,-0.056476,0.124959,-0.021335,-0.090178,-0.020689,1.540863,3.085342,-40.191727,0.2533838,0.13002144,-0.060581207,0.021867927,-0.024353294,-0.08969097,0.010598926
20240215 12:03:02,0.015545,-0.054560,-0.073295,-0.026662,-0.114681,-0.018559,1.497845,3.552208,-40.088638,0.7314212,-0.057818703,-0.050876338,-0.04410442,-0.02272021,-0.11424925,0.01723749
20240215 12:03:02,0.019627,0.034613,-0.209012,-0.005355,-0.067806,-0.010036,1.400650,3.640850,-40.229385,0.2733491,-0.18464291,0.042425532,-0.10196038,-0.008891692,-0.06747662,0.001004884
20240215 12:03:02,0.069813,0.033941,-0.283351,0.022344,-0.001754,0.000618,1.322922,3.151974,-39.260452,-0.55941254,-0.23276879,0.04095507,-0.17677405,0.009506603,-0.0015504977,-0.020255366
20240215 12:03:02,0.164011,-0.038660,-0.306988,0.030867,0.061101,-0.004709,1.701195,3.469952,-39.813324,-2.4798262,-0.2154279,-0.038126297,-0.27388453,0.007974677,0.06112664,-0.029103875
20240215 12:03:02,0.176567,-0.051212,-0.197158,0.022344,0.090931,-0.017493,1.550213,2.988476,-39.917358,-1.7666905,-0.10595965,-0.04873765,-0.24293801,-0.0074892268,0.09117284,-0.026416508
20240215 12:03:02,0.157658,-0.067753,-0.047794,0.003168,0.058970,-0.028147,1.664955,3.281761,-40.069321,-1.0332564,0.025064182,-0.065027185,-0.16356632,-0.025454432,0.05961181,-0.014347767
20240215 12:03:02,0.079307,-0.085353,-0.007133,-0.022401,0.003572,-0.036670,1.639862,3.938671,-39.978485,-0.38083616,0.03011848,-0.08390189,-0.074993476,-0.042817116,0.0043883985,0.0045953747
20240215 12:03:02,0.062024,-0.087494,-0.011901,-0.038381,-0.053957,-0.040931,1.128147,3.521141,-39.822357,0.042061534,0.017460298,-0.08639037,-0.061284244,-0.051800013,-0.05332141,0.017742889
20240215 12:03:02,0.133110,-0.039416,-0.126503,-0.046904,-0.085917,-0.043062,1.455975,3.443413,-39.144165,-0.8667998,-0.06067976,-0.035535768,-0.17325446,-0.056599613,-0.085431606,0.0248435
20240215 12:03:02,0.148121,-0.046111,-0.253615,-0.037315,-0.065675,-0.048388,1.595421,3.271683,-39.667450,-1.8789216,-0.17382124,-0.043481182,-0.23699862,-0.05866508,-0.06540541,0.014257273
20240215 12:03:02,0.188129,0.076687,-0.365813,-0.016009,-0.000689,-0.050519,1.516155,3.550358,-39.820404,-1.6969148,-0.26447797,0.08068048,-0.3146779,-0.05275885,-2.962795E-4,-0.0049058516
20240215 12:03:02,0.116756,0.106481,-0.320104,0.014887,0.080277,-0.043062,1.419731,3.255222,-39.400192,-0.6688754,-0.2504281,0.11492129,-0.23306875,-0.035521537,0.08138426,-0.030296227
20240215 12:03:02,0.098413,0.150978,-0.246559,0.039390,0.123957,-0.027081,1.419346,3.447113,-39.680649,-0.77516216,-0.19039169,0.1570068,-0.18733531,-0.011827422,0.12484996,-0.04623483
20240215 12:03:02,0.125540,0.149015,-0.238595,0.043651,0.133545,-0.024951,1.525890,3.261604,-39.265579,-0.7975602,-0.17343739,0.15584247,-0.20842762,-0.008908919,0.13452713,-0.049214013
20240215 12:03:02,0.116948,0.168743,-0.266489,0.012756,0.116499,-0.026016,1.780460,3.191273,-39.660355,-0.65832675,-0.20371693,0.17852175,-0.21195237,-0.022477325,0.11741412,-0.021467716
20240215 12:03:02,0.083721,0.163460,-0.150380,-0.027727,0.057905,-0.021755,1.834633,3.569500,-39.416580,-0.60097563,-0.108948395,0.16961178,-0.13675877,-0.03304176,0.058182664,0.01678584
20240215 12:03:02,0.083609,0.147995,-0.108670,-0.058622,0.002507,-0.017493,1.807354,3.476334,-39.678696,0.50377244,-0.07247515,0.15495512,-0.121069595,-0.03989788,0.0020818342,0.046453655
20240215 12:03:02,0.003193,0.150724,-0.086256,-0.069276,-0.024127,-0.004709,1.604385,3.366703,-39.673553,0.8385988,-0.08472827,0.15484259,-0.0391356,-0.03146511,-0.025397295,0.061417084
20240215 12:03:02,0.032778,0.165174,-0.060285,-0.066080,-0.040107,0.016598,1.586071,3.368553,-39.941818,0.79588866,-0.049301825,0.16855672,-0.055642746,-0.010186418,-0.042286992,0.067279145
20240215 12:03:02,0.092784,0.148520,-0.067529,-0.055426,-0.058218,0.033643,1.488880,3.457191,-40.082535,-0.43464562,-0.027859215,0.15143178,-0.11179485,0.009696955,-0.05978774,0.06414707
20240215 12:03:02,0.121206,0.098592,-0.180240,-0.054361,-0.065675,0.035774,1.570713,3.736702,-39.296143,-1.5805662,-0.11762796,0.10149614,-0.18225329,0.011755491,-0.066413395,0.06341747
20240215 12:03:02,0.186678,0.094440,-0.184350,-0.050100,-0.060349,0.034709,1.331116,3.630768,-39.827499,-2.2821417,-0.09303107,0.09333927,-0.24358967,0.011310471,-0.060113892,0.058861714
20240215 12:03:02,0.275107,0.142076,-0.185736,-0.036250,-0.061414,0.032578,1.710545,3.373085,-39.538956,-4.06659,-0.058682047,0.1352267,-0.3219451,0.014219036,-0.06031745,0.044419743
20240215 12:03:02,0.288960,0.093906,-0.322703,-0.029858,-0.037976,0.031513,1.261204,3.812584,-39.706085,-3.1539166,-0.1826798,0.08527768,-0.38967848,0.016642448,-0.037113935,0.038946018
20240215 12:03:02,0.232830,0.102928,-0.293622,-0.021335,-0.007081,0.033643,1.436893,3.829041,-39.973358,-2.9427104,-0.17652245,0.09814423,-0.32762825,0.022393199,-0.006561357,0.032727182
20240215 12:03:02,0.221100,0.165648,-0.238314,-0.003224,0.012095,0.035774,0.961037,3.791592,-39.841675,-2.1624618,-0.13005078,0.16196531,-0.29459497,0.03173897,0.012503545,0.017231742
20240215 12:03:02,0.229209,0.155874,-0.260433,0.001037,0.034467,0.035774,1.403221,4.199039,-39.595932,-2.6080189,-0.14779985,0.15312743,-0.310405,0.03354866,0.034736127,0.013751754
20240215 12:03:02,0.167179,0.134449,-0.187212,-0.007486,0.042990,0.033643,1.454823,4.019077,-39.985580,-1.9170312,-0.10326754,0.1355111,-0.22713141,0.027487699,0.04283952,0.02113856
20240215 12:03:02,0.146549,0.066379,-0.076452,-0.021335,0.004638,0.028317,1.481716,4.304138,-40.003922,-2.3069336,-0.009649906,0.06618561,-0.16388594,0.017103726,0.0046889824,0.031126678
20240215 12:03:02,0.155599,-0.033193,-0.167419,-0.042642,-0.034780,0.017663,1.421150,4.389080,-39.608154,-1.9018978,-0.09056721,-0.03233022,-0.21020478,-8.540433E-4,-0.034913097,0.045677025
20240215 12:03:02,0.114786,-0.141983,-0.277726,-0.068211,-0.045434,0.003814,1.500031,4.302288,-39.735672,-0.7502953,-0.20472468,-0.13437572,-0.21755925,-0.022905203,-0.046198003,0.063741535
20240215 12:03:02,-0.028730,-0.198213,-0.315135,-0.078864,-0.037976,0.001683,1.518730,4.108547,-39.186951,1.4716071,-0.28810096,-0.180274,-0.09807624,-0.027911084,-0.04000127,0.07330055
20240215 12:03:02,-0.171834,-0.260095,-0.338128,-0.079929,-0.016669,0.011271,1.085899,3.604233,-39.158340,3.8566163,-0.3558511,-0.23722893,0.025483727,-0.021163434,-0.020541832,0.07796701
20240215 12:03:02,-0.268223,-0.318940,-0.180753,-0.067145,-0.020931,0.034709,1.552013,3.930439,-39.844864,4.3356667,-0.24495642,-0.31155562,0.17614779,0.0046927817,-0.027425753,0.0761657
20240215 12:03:02,-0.275522,-0.308865,-0.150320,-0.039446,-0.051826,0.062408,1.155426,3.614315,-39.560226,4.410689,-0.2216768,-0.3049581,0.1983935,0.044939592,-0.059017017,0.06335441
20240215 12:03:02,-0.175090,-0.279074,-0.385052,-0.009616,-0.066741,0.089041,0.970772,3.502834,-39.286850,2.6527882,-0.40425104,-0.25863335,0.017104685,0.082375,-0.072495565,0.04458058
20240215 12:03:02,0.032454,-0.236325,-0.613304,0.001037,-0.058218,0.103956,1.094479,3.891144,-39.444931,-0.84148973,-0.55501264,-0.22841479,-0.25773984,0.09772656,-0.05951706,0.03707827
20240215 12:03:02,0.143637,-0.159128,-0.763906,0.002102,-0.027323,0.106087,1.137112,3.616161,-39.828476,-2.8298063,-0.6674777,-0.1738578,-0.40530634,0.09955071,-0.02541744,0.034785297
20240215 12:03:02,0.223517,-0.066685,-0.864681,-0.008551,0.020618,0.105022,1.473137,4.017227,-39.717331,-5.419964,-0.73727024,-0.115503944,-0.50811267,0.09658974,0.026176237,0.044658378
20240215 12:03:02,0.325772,0.015356,-0.884550,-0.026662,0.081343,0.090107,1.376324,3.913982,-39.577591,-6.2461066,-0.71736413,-0.051966093,-0.6054341,0.08086318,0.08783039,0.058616094
20240215 12:03:02,0.316748,0.028044,-0.773078,-0.052230,0.121826,0.066669,1.455593,3.635300,-39.424637,-6.1619368,-0.60749525,-0.028124493,-0.56725776,0.051376127,0.12698157,0.07694167
20240215 12:03:02,0.294745,-0.000795,-0.663660,-0.086322,0.135675,0.038970,1.261971,3.428806,-39.145142,-4.97892,-0.5105954,-0.038156413,-0.5146855,0.011436619,0.13897972,0.098801225
20240215 12:03:02,0.195573,-0.023055,-0.549793,-0.124674,0.130349,0.005944,0.864231,3.688343,-39.701920,-2.1876254,-0.43629503,-0.031770226,-0.3879903,-0.039527483,0.13111691,0.11964095
20240215 12:03:02,0.074711,-0.008179,-0.457551,-0.139589,0.128218,-0.021755,1.261971,3.428806,-39.145142,-0.19829002,-0.39569476,0.004892631,-0.24093911,-0.07596662,0.12723352,0.12139468
20240215 12:03:02,-0.105782,0.028135,-0.563912,-0.127870,0.165505,-0.026016,1.270554,3.715714,-39.431732,2.53649,-0.56428546,0.064526826,-0.10663965,-0.08218888,0.16337492,0.10701953
20240215 12:03:02,-0.248174,0.013596,-0.666508,-0.090583,0.263517,-0.016428,1.510147,3.821640,-38.900391,5.067953,-0.7079293,0.079635,-0.0075454116,-0.07831003,0.25933763,0.070273355
20240215 12:03:03,-0.384533,-0.049554,-0.697321,-0.045838,0.405208,-0.010036,1.368130,3.435184,-39.010529,7.95158,-0.77329916,0.035876714,0.10354763,-0.08932474,0.39817622,0.01809638
20240215 12:03:03,-0.546514,-0.113489,-0.437074,-0.004290,0.534116,-0.005775,1.889187,3.755840,-38.892319,9.159701,-0.59596443,-0.077192076,0.3255703,-0.10374166,0.5240992,-0.033759892
20240215 12:03:03,-0.711380,-0.097489,0.115687,0.038324,0.552226,0.003814,2.037987,3.487244,-39.141235,10.317773,-0.20585951,-0.18850112,0.69271487,-0.0862852,0.5420149,-0.07758338
20240215 12:03:03,-0.844416,-0.062156,0.459496,0.084134,0.445692,0.020859,2.171040,3.778679,-39.024963,11.721575,0.008954048,-0.25575426,0.96274275,-0.038257048,0.43744734,-0.10724019
20240215 12:03:03,-0.951161,0.015734,0.427601,0.124617,0.286955,0.051754,2.143761,3.685509,-39.287109,12.630952,-0.06613675,-0.19436727,1.0354301,0.034999683,0.27989355,-0.11664826
20240215 12:03:03,-0.862309,0.189996,0.101097,0.151251,0.128218,0.098630,2.168854,3.028603,-39.377945,12.430408,-0.30195794,0.07032083,0.8128562,0.11776151,0.11626368,-0.11088538
20240215 12:03:03,-0.662553,0.308078,-0.528119,0.151251,0.003572,0.149766,2.522804,3.619709,-39.279037,10.445923,-0.7748547,0.36497414,0.4310673,0.18693605,-0.018149257,-0.093264155
20240215 12:03:03,-0.389796,0.367849,-1.142595,0.128879,-0.062479,0.194511,1.895966,3.100784,-39.251404,6.852855,-1.2488923,0.5269744,0.055072486,0.22956677,-0.08676438,-0.06955064
20240215 12:03:03,0.036003,0.493688,-1.633372,0.094788,-0.072067,0.224341,2.187168,3.026752,-39.109695,-2.2595265,-1.5953791,0.5203786,-0.38139644,0.24060442,-0.075375386,-0.045058906
20240215 12:03:03,0.339145,0.590409,-2.045714,0.046847,-0.017735,0.234994,2.275009,3.034985,-39.243332,-11.92844,-1.8428035,0.2741982,-0.669745,0.23438618,0.015736531,-0.005636636
20240215 12:03:03,0.568338,0.682992,-2.316590,-0.035185,0.060036,0.222210,2.044762,2.832184,-39.500320,-18.272614,-1.9358584,0.031598568,-0.8811232,0.22148891,0.117249824,0.071788915
20240215 12:03:03,0.625801,0.770879,-2.375705,-0.155569,0.134610,0.193446,2.214062,3.311810,-39.128036,-20.72135,-1.905962,-6.722212E-4,-0.9322945,0.19691582,0.19337016,0.1904285
20240215 12:03:03,0.611312,0.842037,-2.262544,-0.312175,0.172963,0.150832,2.159504,3.125469,-39.652298,-17.785704,-1.8364757,0.2241466,-0.9377881,0.13135736,0.21886894,0.34204432
20240215 12:03:03,0.518138,0.846302,-2.003928,-0.489023,0.170832,0.097564,2.302288,3.128151,-38.981201,-8.585336,-1.7670108,0.6568963,-0.8981832,0.0067319125,0.18800107,0.5037522
20240215 12:03:03,0.188143,0.886303,-1.560764,-0.646695,0.145264,0.056016,2.504875,3.429672,-39.266815,-1.1541096,-1.4931359,0.953573,-0.5853091,-0.121379346,0.1353452,0.6395768
20240215 12:03:03,-0.205878,0.891693,-1.071927,-0.756425,0.113303,0.042166,2.319836,3.510082,-39.273911,6.3390784,-1.2101784,1.0384766,-0.16320248,-0.21175629,0.06617698,0.72859997
20240215 12:03:03,-0.596998,0.875121,-0.710035,-0.825673,0.088800,0.049624,2.540348,4.001640,-39.571732,10.652896,-1.0538381,0.958925,0.25482786,-0.26680142,0.0041695572,0.78386
20240215 12:03:03,-0.854754,0.842407,-0.306218,-0.854437,0.097323,0.067734,2.736923,4.574432,-38.937317,11.123149,-0.81514245,0.7969483,0.59076035,-0.31212583,-0.010374304,0.799258
20240215 12:03:03,-1.039042,0.808643,0.341618,-0.826738,0.086669,0.087976,2.260689,4.728874,-39.086105,10.969987,-0.36258987,0.5996847,1.0028023,-0.33028907,-0.025576409,0.7629463
20240215 12:03:03,-1.079621,0.668643,0.903208,-0.751099,0.011030,0.095434,2.075264,5.001175,-39.373672,10.5666275,0.08210635,0.35752076,1.3187156,-0.30361205,-0.09220467,0.6935527
20240215 12:03:03,-1.081039,0.537921,1.136219,-0.642433,-0.094440,0.086911,1.971680,5.552982,-38.874817,10.173033,0.28453958,0.19714239,1.4561645,-0.24551597,-0.17989221,0.60139424
20240215 12:03:03,-1.023769,0.455441,1.096982,-0.494350,-0.178602,0.070931,1.707756,5.720184,-38.754395,9.195489,0.31730032,0.1638911,1.3984716,-0.1664145,-0.23620231,0.4741544
20240215 12:03:03,-0.846615,0.352205,0.787060,-0.317502,-0.222282,0.051754,1.786640,5.633392,-38.881912,7.9407935,0.20722285,0.15315501,1.0960001,-0.076898575,-0.25408274,0.31698713
20240215 12:03:03,-0.710267,0.212749,0.189907,-0.143850,-0.224412,0.022990,1.513752,5.705578,-38.755371,7.576272,-0.17765778,0.12959836,0.70790094,-0.009933431,-0.23526125,0.15218383
20240215 12:03:03,-0.569002,0.150038,-0.537200,-0.006420,-0.196713,-0.007905,1.285690,6.252853,-38.659409,7.6660285,-0.72923034,0.19416508,0.3163028,0.020288639,-0.19322978,0.012935312
20240215 12:03:03,-0.450195,0.143994,-1.222678,0.090526,-0.128531,-0.029212,1.512989,6.089352,-39.316315,7.159187,-1.3094693,0.3054703,0.021542042,0.022150557,-0.117538616,-0.08977171
20240215 12:03:03,-0.391237,0.174694,-1.638200,0.154447,-0.053957,-0.044127,1.090923,6.622021,-39.221313,8.857788,-1.6854564,0.4370036,-0.10279086,0.012685016,-0.037180994,-0.15804487
20240215 12:03:03,-0.455122,0.224340,-1.959222,0.191734,-0.007081,-0.040931,1.124981,6.060131,-39.318268,11.038404,-2.0116272,0.611221,-0.062469065,0.011921298,0.012644816,-0.1952874
20240215 12:03:03,-0.422263,0.337193,-2.262655,0.186408,0.006768,-0.019624,0.761677,5.565895,-39.691528,12.351604,-2.315541,0.82198274,-0.0968371,0.021385197,0.020775065,-0.18631604
20240215 12:03:03,-0.350582,0.486386,-2.401782,0.138467,-0.001754,0.009140,0.834549,5.750385,-38.899017,8.917234,-2.4680524,0.88159573,-0.18401787,0.038862087,0.0019733282,-0.13322811
20240215 12:03:03,-0.215006,0.568358,-2.375762,0.063893,-0.046499,0.019794,0.886150,5.570423,-39.288681,5.7694693,-2.4179683,0.8454242,-0.30500677,0.03840557,-0.04685278,-0.057244778
20240215 12:03:03,-0.154472,0.600836,-2.373178,-0.013878,-0.107224,0.022990,0.798306,5.562195,-39.155045,3.916088,-2.3958807,0.80237633,-0.35441282,0.028820869,-0.10906031,0.019918533
20240215 12:03:03,-0.046392,0.681985,-2.370047,-0.075668,-0.134923,0.018728,0.716850,5.090797,-39.660965,0.029759916,-2.340514,0.7248054,-0.44428602,0.005144392,-0.13553105,0.07791924
20240215 12:03:03,0.130686,0.803612,-2.350318,-0.122543,-0.114681,0.000618,0.568443,5.167511,-39.131577,-4.545104,-2.214604,0.6502937,-0.60551083,-0.032392837,-0.11272355,0.118045576
20240215 12:03:03,0.227025,0.769156,-2.262853,-0.160896,-0.055022,-0.037735,0.049568,5.596928,-38.896820,-3.9435856,-2.0941355,0.6142125,-0.72768795,-0.07726078,-0.05487721,0.1470649
20240215 12:03:03,0.152683,0.800987,-2.006609,-0.190726,0.025945,-0.087806,-0.198223,5.012203,-38.861115,0.90284365,-1.9059105,0.82198524,-0.67268664,-0.13466404,0.02631732,0.16121063
20240215 12:03:03,-0.056718,1.005979,-1.590511,-0.197118,0.125022,-0.131486,0.215908,5.710258,-39.438461,5.241233,-1.6205353,1.146272,-0.44623324,-0.19528408,0.13087368,0.14561921
20240215 12:03:03,-0.356064,1.150752,-1.101231,-0.179007,0.207054,-0.150662,0.295555,5.239689,-39.005035,9.778213,-1.3299142,1.2928159,-0.103307515,-0.23466198,0.21792534,0.105424
20240215 12:03:03,-0.717192,1.256064,-0.606349,-0.147046,0.257125,-0.144270,0.101551,5.225079,-39.006012,14.020302,-1.0982478,1.2862769,0.3123989,-0.24292326,0.2677218,0.05654299
20240215 12:03:03,-0.995560,1.321327,-0.064102,-0.100171,0.245406,-0.114440,-0.214352,5.764130,-38.776398,16.339008,-0.80413944,1.1735903,0.7117856,-0.20199385,0.2525414,0.013342854
20240215 12:03:03,-1.222721,1.355526,0.363889,-0.047969,0.155917,-0.061173,-0.038662,5.780582,-39.043671,17.301155,-0.5887369,1.0477384,1.0647529,-0.113735706,0.15878475,-0.0047135893
20240215 12:03:03,-1.279353,1.384877,0.465283,-0.003224,0.028075,-0.005775,-0.443832,5.177555,-38.472443,17.323658,-0.51806515,1.0589875,1.1557194,-0.013287369,0.028010773,-0.0033907206
20240215 12:03:03,-1.076121,1.445670,0.457417,0.031932,-0.097636,0.046428,-0.429241,5.193184,-39.679047,13.450916,-0.34525183,1.2248958,1.0152767,0.07344507,-0.10131354,9.5674396E-4
20240215 12:03:03,-0.672850,1.456885,0.258715,0.064958,-0.203105,0.082649,-0.347404,5.472691,-38.892654,8.859902,-0.22789107,1.370452,0.6270862,0.12732017,-0.2079775,-0.01324489
20240215 12:03:03,-0.293936,1.452407,-0.161769,0.079873,-0.237196,0.090107,-0.956310,5.143806,-38.877243,4.8271,-0.33765805,1.4522738,0.16605839,0.12603909,-0.23988907,-0.032836907
20240215 12:03:03,0.095313,1.538221,-0.379213,0.088396,-0.195648,0.077323,-1.186943,5.132896,-39.414719,-0.55028784,-0.26149938,1.5217034,-0.22164387,0.09698225,-0.19392484,-0.054797642
20240215 12:03:03,0.432480,1.618733,-0.320374,0.096918,-0.121073,0.046428,-0.955929,4.951916,-38.596786,-3.7080226,-0.0015778244,1.5721737,-0.48158324,0.06943563,-0.12002715,-0.07534505
20240215 12:03:03,0.526453,1.550460,-0.081480,0.108637,-0.062479,0.001683,-1.504650,4.729973,-39.257599,-2.5939655,0.25557163,1.5216765,-0.48560983,0.040997606,-0.065754615,-0.09973368
20240215 12:03:03,0.430250,1.446022,0.339632,0.124617,-0.059283,-0.050519,-1.441128,5.011337,-38.739456,-0.08379659,0.5429862,1.4495212,-0.23871148,0.0067050904,-0.06308508,-0.13422215
20240215 12:03:03,0.190072,1.460608,0.699148,0.156578,-0.096570,-0.081414,-1.759220,4.800304,-38.862808,3.140655,0.70017254,1.4570287,0.11311057,-3.67634E-4,-0.095614344,-0.17400509
20240215 12:03:03,0.029469,1.401802,0.898471,0.214107,-0.148773,-0.084610,-1.865383,4.793926,-38.997437,4.3820825,0.7809875,1.3821707,0.3359298,0.026388645,-0.14448096,-0.22372133
20240215 12:03:03,0.051632,1.347550,0.799407,0.305727,-0.126400,-0.070761,-1.946064,3.938751,-38.942413,2.0766728,0.7542196,1.3583843,0.2958068,0.074527085,-0.12961996,-0.30227846
20240215 12:03:03,0.404454,1.281923,0.855367,0.428242,-0.046499,-0.073957,-2.273506,3.824593,-39.340134,-2.1548455,1.0480816,1.3297929,0.05306241,0.12643918,-0.07054775,-0.41545966
20240215 12:03:03,0.753779,1.163442,0.668737,0.534776,0.034467,-0.117636,-2.334072,3.909531,-38.944366,-5.987669,1.0894785,1.1912668,-0.3307358,0.13592798,-0.019741658,-0.5301084
20240215 12:03:03,0.969471,1.077706,0.426097,0.558214,0.106911,-0.201799,-2.386707,2.763748,-38.066269,-7.0102553,0.96209794,1.0566652,-0.6444009,0.07293247,0.03135438,-0.58505136
20240215 12:03:03,0.917575,1.169210,0.359239,0.513470,0.121826,-0.284896,-2.219597,2.493301,-38.046951,-5.805748,0.8621311,1.1482669,-0.64312375,-0.030162826,0.04854928,-0.5794266
20240215 12:03:03,0.755386,1.213351,0.272791,0.398412,0.074951,-0.342425,-2.635269,2.562801,-38.591507,-2.1334155,0.6674397,1.2012082,-0.56299806,-0.14386278,0.025693301,-0.50147134
20240215 12:03:03,0.536063,1.033557,0.294727,0.240740,-0.021996,-0.385038,-3.050556,2.440411,-38.855591,2.2897437,0.52734435,1.0346665,-0.38456723,-0.25254405,-0.040370673,-0.3772656
20240215 12:03:03,0.254552,0.756073,0.309002,0.071350,-0.135988,-0.422326,-2.634884,2.370911,-38.311035,6.572388,0.36033323,0.748775,-0.13928337,-0.34892073,-0.11992778,-0.23348898
20240215 12:03:03,-0.098827,0.464677,0.296592,-0.059688,-0.166883,-0.456417,-2.811344,2.738232,-38.604706,13.734013,0.15677688,0.41296518,0.16726948,-0.4086673,-0.107556015,-0.12503734
20240215 12:03:03,-0.687401,0.307981,0.623204,-0.109759,-0.079525,-0.473462,-3.182461,1.573307,-38.130447,20.967999,0.12642321,0.08378285,0.83018804,-0.43734732,0.010779269,-0.10601921
20240215 12:03:03,-1.162320,0.339458,1.221679,-0.079929,0.046186,-0.444698,-3.783165,1.723217,-38.682083,26.18487,0.25150496,-0.17198984,1.4911283,-0.41011617,0.14205393,-0.16346794
20240215 12:03:03,-1.634732,0.313945,2.167661,0.028736,0.103715,-0.373320,-3.525257,1.827293,-37.882492,27.768316,0.55572844,-0.54664755,2.3764644,-0.28896898,0.19604282,-0.25397146
20240215 12:03:03,-1.858935,0.230699,2.890235,0.172558,0.006768,-0.263589,-3.322289,1.936924,-37.887634,28.147425,0.84853303,-0.844115,2.9932323,-0.08207569,0.10401063,-0.28374338
20240215 12:03:03,-1.847539,0.064994,3.077749,0.285485,-0.251046,-0.134682,-3.613102,1.819069,-37.748856,27.546844,1.0801026,-0.9947639,3.1414132,0.1398046,-0.15472068,-0.22255598
20240215 12:03:03,-1.448258,-0.176463,2.451919,0.316380,-0.584500,-0.014297,-4.303459,1.018784,-38.239365,25.601847,1.1147513,-0.9159143,2.5105004,0.29813007,-0.5123804,-0.11722259
20240215 12:03:03,-0.817521,-0.296271,1.365876,0.275897,-0.836987,0.090107,-4.752033,1.074505,-37.845551,20.11318,0.79129016,-0.58553797,1.4057283,0.34950167,-0.81110173,-0.04948885
20240215 12:03:03,-0.180029,-0.414206,0.413878,0.218368,-0.961633,0.178531,-5.291023,0.563808,-37.951569,11.83476,0.3140397,-0.43609244,0.3735801,0.29808375,-0.96377563,-0.036817
20240215 12:03:03,0.457068,-0.663678,-0.401966,0.165101,-0.942457,0.238190,-5.807713,1.743305,-37.363831,2.1295667,-0.26546633,-0.72401446,-0.56692547,0.17832851,-0.9171666,-0.047371075
20240215 12:03:03,1.030319,-0.958473,-0.917956,0.150186,-0.823138,0.263759,-6.267052,0.762043,-37.036407,-10.19483,-0.71889865,-1.3102406,-1.3532815,0.035662934,-0.71514684,-0.097636625
20240215 12:03:03,1.479467,-1.254554,-1.274643,0.154447,-0.659074,0.242452,-6.788883,0.825161,-37.715576,-19.294376,-1.0589089,-1.9250222,-1.968069,-0.03691882,-0.4991974,-0.13973632
20240215 12:03:03,1.762776,-1.571133,-1.490907,0.137402,-0.501403,0.174269,-7.009396,0.333607,-37.417740,-24.787676,-1.2775335,-2.4470613,-2.3986297,-0.07130502,-0.35635746,-0.14684331
20240215 12:03:03,1.805027,-1.723079,-1.392833,0.089461,-0.389541,0.075192,-7.027325,0.143566,-37.405518,-21.583382,-1.1849148,-2.4997678,-2.4242206,-0.08694291,-0.31828016,-0.111290485
20240215 12:03:03,1.666266,-1.592727,-1.167927,0.035128,-0.359711,-0.022820,-7.828049,0.550148,-37.038101,-16.172737,-0.9581322,-2.2048051,-2.15015,-0.154369,-0.33648315,-0.08064037
20240215 12:03:03,1.441448,-1.434224,-1.055822,-0.018139,-0.339470,-0.096329,-7.263966,0.403938,-37.022949,-12.294242,-0.8410215,-1.9122682,-1.8488712,-0.20862243,-0.34486452,-0.04822675
20240215 12:03:03,1.240885,-1.204571,-0.939205,-0.065015,-0.314967,-0.149597,-7.969685,-0.028202,-36.867798,-8.161208,-0.7163155,-1.5874778,-1.5681139,-0.25322157,-0.33470067,-0.013889141
20240215 12:03:03,1.158735,-1.014411,-0.922230,-0.094844,-0.251046,-0.190080,-7.960720,0.066818,-36.873917,-7.0798135,-0.6792448,-1.3749053,-1.4636188,-0.27726668,-0.28300047,0.0058728755
20240215 12:03:03,1.040304,-0.905005,-0.933633,-0.104432,-0.138119,-0.218844,-8.048946,0.250481,-37.020737,-3.4581022,-0.6762555,-1.2064657,-1.3311948,-0.2688331,-0.17710464,0.013251297
20240215 12:03:03,0.871560,-0.912565,-0.842988,-0.122543,-0.032650,-0.231628,-8.136410,0.050362,-36.606644,0.9212335,-0.60246056,-1.1186247,-1.1212008,-0.26251435,-0.06588941,0.02536244
20240215 12:03:03,0.669728,-0.976369,-0.706951,-0.165157,0.029141,-0.240151,-8.102356,-0.511528,-36.703598,7.558014,-0.4641318,-1.0604093,-0.84262717,-0.28251475,0.014080953,0.054770567
20240215 12:03:03,0.287146,-0.987977,-0.390959,-0.207771,0.079212,-0.229498,-8.560276,-0.358932,-36.584137,15.168727,-0.21715887,-0.98430216,-0.3101005,-0.29820305,0.08008089,0.07942203
20240215 12:03:03,-0.025296,-0.928714,0.203085,-0.230143,0.067493,-0.189014,-8.524033,-0.170742,-36.328125,20.82131,0.23230872,-0.94156456,0.28191537,-0.28322488,0.071453325,0.098953374
20240215 12:03:03,-0.385531,-0.933384,0.896812,-0.233340,-0.041172,-0.127224,-8.718037,-0.185352,-36.329102,25.095821,0.62425864,-1.052818,0.9952279,-0.2304824,-0.044140495,0.13876233
20240215 12:03:03,-0.567384,-0.993203,1.387862,-0.210967,-0.256373,-0.052650,-8.523647,-0.362633,-36.047653,25.135696,0.8992964,-1.1751044,1.434093,-0.13741738,-0.2645071,0.20747931
20240215 12:03:03,-0.406041,-1.023098,1.277396,-0.168353,-0.483292,0.009140,-8.814465,-0.480495,-35.908890,21.92781,0.9122602,-1.1247121,1.1981906,-0.051728725,-0.48981386,0.24436139
20240215 12:03:03,0.050027,-1.028433,0.611351,-0.130001,-0.604742,0.035774,-9.326942,-0.514244,-36.313690,14.471204,0.52953035,-1.0118808,0.37047967,-0.048834912,-0.60146004,0.20410267
20240215 12:03:03,0.533136,-0.984939,-0.042648,-0.104432,-0.606872,0.024055,-9.818157,-0.183544,-35.536346,7.107499,0.059164256,-1.015925,-0.4426557,-0.11086944,-0.58855253,0.137475
20240215 12:03:03,0.823694,-0.942536,-0.527730,-0.077799,-0.534429,-0.016428,-9.993847,-0.200005,-35.269073,2.3865943,-0.3372809,-1.1086148,-0.95090616,-0.16139224,-0.51543283,0.07346548
20240215 12:03:03,0.994470,-0.846486,-0.857999,-0.033054,-0.390607,-0.059042,-10.366493,-0.597370,-35.916702,-1.3087155,-0.605441,-1.1575226,-1.2555127,-0.1719493,-0.38535613,0.004343996
20240215 12:03:03,1.085802,-0.782520,-0.942287,0.019148,-0.222282,-0.109113,-10.444992,-0.702469,-35.508713,-1.4655654,-0.61922055,-1.1389487,-1.3760207,-0.1503735,-0.24457741,-0.06260671
20240215 12:03:03,1.113120,-0.718507,-0.812182,0.068154,-0.104028,-0.167707,-10.338829,-0.696087,-35.374100,1.0689331,-0.4489165,-1.0069875,-1.3391858,-0.14639394,-0.14814611,-0.12855978
20240215 12:03:03,0.907610,-0.669503,-0.636150,0.090526,-0.049695,-0.218844,-10.250988,-0.687859,-35.507736,5.399263,-0.31299606,-0.8423333,-1.0620229,-0.16705385,-0.09481445,-0.17037383
20240215 12:03:03,0.720245,-0.587749,-0.334820,0.091592,-0.077394,-0.254001,-10.611717,-0.623909,-35.247543,10.319812,-0.05952227,-0.66250724,-0.7466688,-0.19716594,-0.111773714,-0.18411407
20240215 12:03:03,0.560527,-0.479641,-0.144696,0.071350,-0.176472,-0.280634,-10.311172,-0.794804,-34.831482,11.455351,0.06501472,-0.5172587,-0.52577376,-0.2382011,-0.206281,-0.16789931
20240215 12:03:03,0.413525,-0.337210,-0.177297,0.038324,-0.276614,-0.299811,-10.683437,-1.384064,-35.198639,15.331824,-0.0038452297,-0.3550959,-0.40965915,-0.26939586,-0.29204258,-0.125485
20240215 12:03:03,0.312246,-0.131749,-0.155148,0.037259,-0.329882,-0.298745,-10.902149,-0.933651,-34.828308,17.467531,-0.019213952,-0.13869226,-0.32946914,-0.2661617,-0.3372939,-0.10905495
20240215 12:03:03,0.240557,0.161092,-0.280048,0.097984,-0.261699,-0.272112,-11.132397,-1.136452,-35.085297,20.218904,-0.16918117,0.16690566,-0.34407613,-0.20988333,-0.2568564,-0.15360558
20240215 12:03:03,0.110577,0.362437,-0.289937,0.215172,-0.093374,-0.210321,-11.131626,-1.520229,-34.524368,21.998505,-0.23662722,0.3740175,-0.2592798,-0.10660466,-0.08270855,-0.26048228
20240215 12:03:03,0.093674,0.893036,0.091020,0.360059,0.032337,-0.116571,-11.149940,-1.518379,-34.792603,19.727114,0.11708212,0.8928508,-0.16984448,0.0316772,0.03326177,-0.37869772
20240215 12:03:03,0.321208,1.114282,0.082297,0.446353,0.077081,-0.029212,-11.001144,-1.786976,-35.041534,14.458021,0.27149716,1.1081177,-0.37191427,0.14369231,0.062691934,-0.43216664
20240215 12:03:04,0.692841,1.378043,-0.038186,0.419719,0.045121,0.017663,-11.318851,-2.189899,-34.884430,8.762156,0.43623328,1.3079826,-0.7355719,0.1740683,0.021216454,-0.38799977
20240215 12:03:04,1.070173,1.672065,0.023301,0.288681,-0.069937,0.019794,-11.388386,-2.199978,-34.482544,5.128312,0.77488095,1.5391994,-1.0433908,0.1070048,-0.088194154,-0.259748
20240215 12:03:04,1.198241,1.780108,0.238566,0.108637,-0.221216,-0.013232,-11.617863,-2.786552,-34.178589,8.039411,1.0099195,1.6945662,-1.1094067,-0.010805537,-0.22762123,-0.09321848
20240215 12:03:04,1.008073,1.775254,0.688586,-0.013878,-0.349058,-0.060107,-11.451138,-2.865112,-34.439758,11.303527,1.2743895,1.7868619,-0.7825211,-0.106547765,-0.35246778,0.016554294
20240215 12:03:04,0.851620,1.747932,1.018815,-0.021335,-0.382084,-0.093133,-11.732605,-3.079842,-34.026627,13.153198,1.4856253,1.806018,-0.51520365,-0.13811065,-0.38864246,0.017678373
20240215 12:03:04,0.764924,1.578780,0.960535,0.086265,-0.284072,-0.121897,-11.839146,-2.894333,-34.441711,15.235852,1.3235487,1.6255689,-0.48863298,-0.100303516,-0.29681742,-0.09629086
20240215 12:03:04,0.538744,1.474425,0.495929,0.259917,-0.020931,-0.151727,-12.023800,-3.005810,-34.168320,18.32508,0.73057353,1.485509,-0.4964435,-0.043583088,-0.032938607,-0.2925339
20240215 12:03:04,0.216304,1.552200,0.221246,0.452745,0.300804,-0.140008,-12.022266,-3.773361,-33.046432,23.672989,0.2501807,1.5487446,-0.35339445,0.026056662,0.30764338,-0.5120695
20240215 12:03:04,0.031112,1.653433,0.151418,0.621070,0.526658,-0.087806,-11.868225,-3.929470,-34.776337,22.975084,0.097052656,1.6476389,-0.20208007,0.11191084,0.53689843,-0.6815474
20240215 12:03:04,0.178977,1.464536,-0.179114,0.687121,0.633193,-0.054781,-11.540401,-4.007198,-34.098145,19.55523,-0.10104535,1.4619311,-0.36973098,0.16215213,0.6302487,-0.73464066
20240215 12:03:04,0.360955,1.435524,-0.689607,0.612547,0.659827,-0.071826,-11.355362,-4.087608,-34.091049,17.159449,-0.51147974,1.4030218,-0.63549536,0.119674504,0.6497286,-0.66047925
20240215 12:03:04,0.403455,1.375065,-0.913791,0.432503,0.617213,-0.105917,-10.845455,-4.612045,-34.319702,16.11831,-0.7280183,1.3324466,-0.7040093,0.030169122,0.60783815,-0.48683023
20240215 12:03:04,0.410927,1.482553,-0.999930,0.316380,0.573533,-0.127224,-10.845840,-4.420155,-34.600159,19.01164,-0.88707405,1.4928144,-0.7394526,-0.053545564,0.57542926,-0.38045028
20240215 12:03:04,0.101484,1.374980,-0.990547,-0.122543,0.445692,-0.210321,-10.703053,-4.417477,-33.929062,31.161406,-1.1750897,1.5453825,-0.51840603,-0.31840503,0.47079462,0.007208489
20240215 12:03:04,-0.630266,1.183640,-0.413922,-0.408057,0.391359,-0.243347,-10.898209,-3.856422,-34.771454,43.410156,-1.0064061,1.1527424,0.17508227,-0.49793494,0.3907837,0.2149646
20240215 12:03:04,-1.637934,0.995505,0.478837,-0.518853,0.358333,-0.234824,-10.324390,-4.291389,-34.201462,52.660866,-0.83919585,0.27667356,1.2068251,-0.5808924,0.2929506,0.25537658
20240215 12:03:04,-2.658947,0.675021,1.369548,-0.642433,0.335961,-0.160250,-10.332973,-4.578297,-33.914886,58.607327,-0.8673337,-0.84065247,2.2589846,-0.6258265,0.15803285,0.3149342
20240215 12:03:04,-3.402051,0.479456,2.416038,-0.516722,0.375379,0.111414,-10.244743,-4.761955,-33.768036,60.708504,-0.802271,-1.7125378,3.09824,-0.41034278,0.10023259,0.22080135
20240215 12:03:04,-3.643258,0.095753,3.056414,-0.279150,0.346614,0.356444,-10.393925,-4.301468,-33.799576,60.54464,-0.4854679,-2.3386827,3.6702092,-0.08952741,0.06452006,0.12541795
20240215 12:03:04,-3.183217,-0.321382,3.088244,-0.031989,0.240080,0.571644,-10.430168,-4.489658,-34.055603,54.540695,0.13103497,-2.165674,3.7502534,0.2932206,0.025254264,0.11330201
20240215 12:03:04,-2.060120,-0.670795,2.389748,0.142728,0.117564,0.683506,-9.997334,-3.985344,-34.084213,43.487476,0.76625836,-1.6140959,2.9622693,0.57774204,-0.032296702,0.13236086
20240215 12:03:04,-0.920426,-0.972558,1.428761,0.219433,0.053644,0.677114,-10.569996,-4.126038,-33.812790,33.319607,0.8400559,-1.244633,1.6995655,0.6741239,-0.023866773,0.10001832
20240215 12:03:04,-0.105415,-1.158073,0.783591,0.240740,0.054709,0.581232,-10.429783,-4.681549,-33.775131,22.356878,0.65344745,-1.1728114,0.65963095,0.6238035,0.04675015,0.04145211
20240215 12:03:04,0.397394,-1.120955,0.333164,0.267374,0.107976,0.446998,-10.499699,-4.499741,-33.653732,16.663769,0.4169758,-1.112228,-0.07666893,0.52373195,0.12366618,-0.066366985
20240215 12:03:04,0.464622,-0.962297,-0.159018,0.285485,0.242210,0.317026,-10.296730,-4.390106,-33.658859,16.354939,-0.007860556,-0.976348,-0.38271323,0.41276202,0.25036144,-0.1720359
20240215 12:03:04,0.299724,-0.737166,-0.516940,0.279093,0.410535,0.219014,-10.386379,-5.340305,-33.597733,20.377071,-0.36796933,-0.72741795,-0.36053473,0.29651558,0.40871975,-0.23961529
20240215 12:03:04,-0.041940,-0.557124,-0.654958,0.262047,0.491502,0.185988,-10.466412,-4.677849,-34.311630,28.859854,-0.53846186,-0.455135,-0.06619266,0.19004759,0.47205198,-0.27157685
20240215 12:03:04,-0.475899,-0.497473,-0.500173,0.185342,0.702441,0.155093,-10.350521,-4.960228,-33.622177,36.740414,-0.49873185,-0.40092838,0.40315384,0.030622035,0.65573853,-0.28226152
20240215 12:03:04,-0.856758,-0.493629,-0.256451,0.148055,0.789799,0.189184,-10.129620,-4.660553,-33.639542,41.182262,-0.41485345,-0.50259596,0.8367945,-0.021799877,0.7048751,-0.28835312
20240215 12:03:04,-1.154000,-0.555655,-0.003930,0.136336,0.846263,0.247778,-9.884399,-4.634018,-34.308701,43.38935,-0.30937937,-0.6998923,1.20493,-0.022093832,0.72167057,-0.29532385
20240215 12:03:04,-1.239100,-0.600877,0.048896,0.120356,0.868635,0.312765,-9.337864,-5.162159,-34.000839,43.82955,-0.2757038,-0.7770635,1.3132315,0.0046461225,0.7090389,-0.26927555
20240215 12:03:04,-1.240718,-0.808094,-0.073563,0.042586,0.868635,0.356444,-8.938702,-4.287842,-33.652023,43.424023,-0.31286517,-0.929788,1.3355263,0.0033415854,0.67776084,-0.18561456
20240215 12:03:04,-1.258840,-1.007895,-0.071969,-0.013878,0.853720,0.367097,-9.204426,-5.062607,-33.604095,43.39471,-0.30987096,-1.1287546,1.4121685,0.0139859915,0.66894156,-0.13581729
20240215 12:03:04,-1.261075,-1.110006,0.206304,-0.138524,0.768492,0.382012,-8.315090,-5.844738,-33.544189,41.352425,-0.13425072,-1.3198714,1.5362707,0.014019042,0.5853671,0.00941959
20240215 12:03:04,-1.174232,-1.514687,0.656868,-0.307914,0.507482,0.423561,-8.473618,-5.287380,-33.850098,38.476357,0.27896345,-1.7918075,1.7692863,0.05496505,0.3344094,0.26913464
20240215 12:03:04,-1.011684,-1.748583,0.818111,-0.371835,0.297608,0.442737,-8.827183,-6.070370,-33.668533,37.42325,0.47711918,-2.002215,1.7824532,0.09393951,0.1449078,0.4047516
20240215 12:03:04,-0.929248,-1.821352,0.824537,-0.385684,0.199596,0.451260,-8.843697,-5.126560,-33.864288,35.019154,0.5096947,-2.0443673,1.7176178,0.12025428,0.06191352,0.4623636
20240215 12:03:04,-0.685153,-1.925267,0.670710,-0.378227,0.029141,0.476828,-8.659424,-4.823193,-34.418137,26.540451,0.44519848,-2.0286164,1.3268063,0.21508604,-0.048984602,0.5349362
20240215 12:03:04,-0.353836,-2.036425,0.219666,-0.336678,-0.059283,0.486416,-9.010422,-5.047997,-33.603119,23.56152,0.15129943,-2.0576832,0.8017136,0.2648862,-0.102491565,0.52210534
20240215 12:03:04,0.251443,-2.268232,-0.416402,-0.193922,0.014226,0.431018,-8.604485,-4.828743,-33.613388,9.430219,-0.4860088,-2.3086002,-0.24215636,0.29660633,0.06767714,0.36346436
20240215 12:03:04,0.632010,-2.302336,-0.527216,-0.022401,0.193204,0.340464,-9.098648,-4.864342,-33.749954,2.9730687,-0.6262736,-2.4115407,-0.7474228,0.32470974,0.25720525,0.1678847
20240215 12:03:04,0.903465,-2.163999,-0.657094,0.180016,0.390294,0.217949,-8.947285,-4.574749,-33.365433,-2.2520895,-0.7580993,-2.354892,-1.1324122,0.36804718,0.40870148,-0.064460225
20240215 12:03:04,0.981403,-2.085876,-0.770094,0.268439,0.476587,0.149766,-8.816803,-4.841503,-33.882614,-3.1990907,-0.8336272,-2.3203225,-1.2583683,0.3699732,0.46281317,-0.17244457
20240215 12:03:04,0.933165,-1.834158,-0.891282,0.389889,0.582056,0.011271,-8.579006,-5.677540,-33.423767,-1.2657887,-0.8955481,-2.082137,-1.2162037,0.30141684,0.52432203,-0.3517965
20240215 12:03:04,0.768538,-1.498220,-0.957684,0.416523,0.541573,-0.157054,-8.376423,-5.376019,-33.709366,3.5887454,-0.91479456,-1.6862925,-1.001349,0.08068213,0.479917,-0.45540595
20240215 12:03:04,0.482176,-0.942008,-1.333040,0.384562,0.489371,-0.198603,-8.508709,-6.051235,-33.264694,10.571888,-1.2332203,-1.0522319,-0.7583246,-0.054557472,0.46447542,-0.44489184
20240215 12:03:04,0.315941,-0.769816,-1.517079,0.265243,0.389228,-0.262523,-8.394352,-5.566059,-33.697144,15.986115,-1.3867539,-0.7434894,-0.60122895,-0.19885893,0.39455056,-0.34262434
20240215 12:03:04,-0.045676,-0.379047,-1.637828,0.122487,0.348745,-0.289157,-8.060520,-5.915066,-33.938980,32.425922,-1.4211739,0.09377146,-0.25504047,-0.3344892,0.42393938,-0.22786099
20240215 12:03:04,-0.468357,-0.022422,-1.404586,0.020213,0.350876,-0.260393,-8.308311,-6.499798,-33.903275,38.50391,-1.3740011,0.4346037,0.15575328,-0.35271105,0.4209517,-0.13421433
20240215 12:03:04,-0.960503,0.307991,-1.048491,-0.034119,0.378575,-0.176230,-7.769321,-5.989094,-33.797287,42.806187,-1.3277953,0.57846385,0.5967767,-0.31870705,0.40861124,-0.09139685
20240215 12:03:04,-1.245192,0.610434,-0.102199,-0.042642,0.392424,-0.045192,-7.929653,-6.373699,-34.175690,38.59159,-0.77155936,0.43334702,0.96718293,-0.18296081,0.37604612,-0.06990101
20240215 12:03:04,-0.944892,0.586087,0.261731,-0.034119,0.245406,0.122067,-7.672127,-6.077740,-33.656555,31.11695,-0.2681043,0.41932622,0.8385376,0.040466174,0.20732644,0.022652104
20240215 12:03:04,-0.425803,0.597795,0.307957,-0.087387,0.097323,0.155093,-7.557003,-5.976345,-33.528061,22.60636,0.050832137,0.5406387,0.41338706,0.09722428,0.07579369,0.121691465
20240215 12:03:04,0.089352,0.654822,0.505490,-0.177941,-0.090178,0.130590,-7.592480,-6.548306,-33.223129,18.463299,0.46984375,0.63337934,0.026079133,0.053018786,-0.099270225,0.22384822
20240215 12:03:04,0.323282,0.676232,0.621083,-0.222686,-0.184994,0.099695,-7.980873,-6.385639,-33.505554,10.632614,0.7454817,0.70811224,-0.096206814,-0.0136454925,-0.17019652,0.25725308
20240215 12:03:04,0.555633,0.881830,0.696462,-0.344136,-0.399129,-0.044127,-8.111736,-5.926998,-33.268860,14.224359,0.88784254,0.8935783,-0.316026,-0.19353029,-0.39587334,0.33615783
20240215 12:03:04,0.180853,1.258806,0.996511,-0.363312,-0.431090,-0.079284,-8.463501,-5.768024,-33.014801,18.057533,0.9636155,1.246813,0.07046586,-0.21921422,-0.4322061,0.35408276
20240215 12:03:04,-0.014806,1.462794,1.207896,-0.317502,-0.453462,-0.096329,-8.394352,-5.566059,-33.697144,22.777578,0.9573762,1.3605733,0.25449234,-0.19003615,-0.45641124,0.32323796
20240215 12:03:04,-0.367382,1.646567,1.498854,-0.270627,-0.428959,-0.085676,-9.169601,-6.008274,-33.140106,26.72833,0.98772806,1.4658835,0.6012672,-0.15683472,-0.4316751,0.29384696
20240215 12:03:04,-0.521273,1.647595,2.025822,-0.050100,-0.278745,-0.056911,-9.531097,-5.560543,-33.440872,29.194275,1.2877766,1.3676811,0.93494236,-0.042142626,-0.27313417,0.08662296
20240215 12:03:04,-0.594245,1.517125,2.394968,0.125683,-0.211628,-0.054781,-9.364372,-5.639103,-33.702026,28.92791,1.5613606,1.1985482,1.210789,0.04165359,-0.195369,-0.07972998
