Timestamp,linacce_x,linacce_y,linacce_z,gyro_x,gyro_y,gyro_z,X-magnetometer,Y-magnetometer,Z-magnetometer,Yaw, worldXAccel,worldYAccel,worldZAccel,worldXgyro,worldYgyro,worldZgyro
20231225 10:23:00,-1.332168,-0.160947,-1.252141,0.836516,0.498565,-0.438546,-32.962955,1.165489,-15.681473,81.268234,-1.7733603,-0.18942203,0.8785865,0.2437529,0.71245575,-0.97789013
20231225 10:23:00,-1.714169,-0.498260,-1.666417,0.852497,0.336632,-0.430023,-33.053753,0.790962,-16.461761,84.62385,-2.2032886,-0.49749005,1.4310614,0.2566418,0.62859255,-0.86076534
20231225 10:23:00,-1.898488,-0.582686,-2.308758,0.708675,0.073491,-0.384213,-32.877293,0.423645,-16.168076,87.30478,-2.677247,-0.35863364,1.7291751,0.18891674,0.3662004,-0.58852357
20231225 10:23:00,-1.645523,-0.241381,-2.936324,0.452991,-0.170474,-0.302181,-32.974102,0.320396,-16.028336,84.98724,-3.1335425,0.27649742,1.338179,0.075849384,0.014852367,-0.28860456
20231225 10:23:00,-0.988924,0.508708,-3.366775,0.162151,-0.299381,-0.230803,-33.109081,0.988403,-17.546951,75.62617,-3.458928,1.0346466,0.23849094,-0.06433214,-0.23184979,-0.032035843
20231225 10:23:00,-0.313148,1.311732,-3.688033,-0.127624,-0.262094,-0.224411,-33.037624,0.039040,-16.546478,69.4277,-3.579518,1.5519503,-0.7358024,-0.23827595,-0.24981454,0.18412648
20231225 10:23:00,0.113864,2.181824,-3.830502,-0.417398,-0.112945,-0.311769,-32.661373,2.320335,-15.753860,65.66189,-3.5542068,2.250575,-1.4266806,-0.44211817,-0.110331096,0.37824285
20231225 10:23:00,0.030420,2.990611,-3.689688,-0.738068,0.087340,-0.457722,-32.878330,-0.902092,-15.679642,73.10034,-3.6749725,3.3637688,-1.5758532,-0.71766084,0.1018174,0.59330326
20231225 10:23:00,-0.548342,3.485413,-2.727755,-1.082175,0.221574,-0.573845,-32.870907,-0.039520,-16.807648,78.471596,-3.2898974,3.883472,-1.500901,-1.0687399,0.20499077,0.77226824
20231225 10:23:00,-1.499628,3.467151,-1.219389,-1.376212,0.262057,-0.573845,-31.725964,0.433762,-17.630966,80.23826,-2.6425216,3.3145833,-1.1156899,-1.3523463,0.12670699,0.8455586
20231225 10:23:00,-2.157398,2.924665,0.693635,-1.513641,0.223705,-0.460918,-32.408115,0.112274,-18.688538,80.52598,-1.7113863,2.2396383,-0.6559638,-1.4699526,-0.014043488,0.77685976
20231225 10:23:00,-2.129791,1.879695,2.378071,-1.441198,0.156588,-0.324553,-32.116375,2.559753,-16.567886,78.25556,-0.71787655,1.1734507,0.04333204,-1.3955331,-0.06654906,0.6118998
20231225 10:23:00,-1.658345,1.115384,3.699129,-1.145031,0.095863,-0.245718,-31.900349,3.452568,-18.901520,74.45936,0.24527788,0.57616967,0.7359875,-1.1254038,-0.047305312,0.420426
20231225 10:23:00,-1.418535,0.711699,4.129540,-0.672017,0.076687,-0.231868,-32.044056,0.222733,-17.754333,80.45838,0.5805743,0.16429195,0.644227,-0.70724416,-0.0068100467,0.21147986
20231225 10:23:00,-1.753509,0.585802,3.792376,-0.111643,0.125693,-0.221215,-32.473782,3.695648,-19.191040,76.205864,0.18008041,-0.16700038,1.1373413,-0.21495768,0.124491155,-0.09957239
20231225 10:23:00,-2.268641,0.695575,2.778718,0.423161,0.204529,-0.156228,-31.821850,3.557663,-19.309509,77.69799,-0.6158643,-0.3319252,1.1329808,0.24689895,0.32498723,-0.42253792
20231225 10:23:00,-2.480493,0.757379,2.024897,0.833320,0.298279,-0.042236,-31.290676,3.397675,-18.355988,80.17793,-1.054642,-0.44396043,1.1352224,0.58749783,0.52974176,-0.7337553
20231225 10:23:00,-2.564425,0.675274,-0.188169,1.066632,0.332370,0.102651,-31.724659,3.469025,-19.168793,81.04199,-2.2396894,-0.11430523,1.1321796,0.7868577,0.60313743,-0.9292629
20231225 10:23:00,-2.107787,0.413116,-1.464610,1.142271,0.302541,0.241147,-32.149441,-0.167427,-17.328003,86.33142,-2.557219,0.20575234,1.1365938,0.88000077,0.525774,-1.0115782
20231225 10:23:00,-1.346514,0.059724,-2.454829,1.098592,0.183222,0.340224,-32.388271,-0.657135,-17.298401,82.8924,-2.6685297,0.37190783,0.7996501,0.90969,0.31165716,-0.93216294
20231225 10:23:00,-0.412115,-0.315811,-3.353524,0.959031,-0.004280,0.370054,-32.228321,-0.080635,-17.200485,73.77488,-2.9425783,0.07408315,-0.010978878,0.8386985,0.030110821,-0.7364177
20231225 10:23:00,0.494907,-0.646586,-4.166873,0.743831,-0.188585,0.329570,-31.884762,-0.718399,-16.887482,60.086903,-3.4495425,-1.0440961,-1.1658434,0.6290684,-0.19483358,-0.49325496
20231225 10:23:00,1.260716,-0.891386,-4.835101,0.480690,-0.322819,0.225166,-31.970028,-0.168442,-16.120407,42.930176,-3.7419639,-2.7674217,-2.4257226,0.28208822,-0.30012286,-0.26155418
20231225 10:23:00,1.873130,-0.782097,-5.176848,0.341129,-0.354779,0.151657,-32.076572,0.017059,-16.535492,29.684193,-3.4769578,-3.8100424,-3.4102879,0.0676235,-0.29160422,-0.18272561
20231225 10:23:00,2.070438,-0.253298,-5.373977,-0.037069,-0.275943,-0.113614,-31.726078,2.335175,-18.960831,25.39949,-3.386447,-3.5011168,-3.7553935,-0.24567623,-0.277924,0.04026743
20231225 10:23:01,2.001374,0.004624,-5.237531,-0.159584,-0.208827,-0.205234,-31.986660,2.676781,-17.645996,45.256046,-3.7159867,-1.6572716,-3.3539066,-0.3009761,-0.23514712,0.14675081
20231225 10:23:01,1.390740,0.456942,-4.488214,-0.482385,-0.119337,-0.382082,-31.593945,-0.600548,-17.026245,65.7723,-3.2824848,0.5156174,-2.301055,-0.56480825,-0.117988735,0.40079522
20231225 10:23:01,-0.014552,1.120540,-3.088169,-0.631533,-0.116141,-0.396997,-31.275700,3.221405,-19.282135,69.36161,-2.7244382,1.5698619,-1.1526605,-0.65390146,-0.11628106,0.51244575
20231225 10:23:01,-0.712030,1.495923,-2.167583,-0.675213,-0.128925,-0.379951,-31.589687,2.801025,-17.650162,75.17212,-2.3855624,1.7604395,-0.65943205,-0.6799599,-0.1521216,0.5511435
20231225 10:23:01,-0.984023,1.482182,-1.474722,-0.695454,-0.232264,-0.319227,-31.829815,-0.723946,-16.082748,80.85899,-1.9993436,1.5554881,-0.3503915,-0.6440939,-0.275321,0.64545304
20231225 10:23:01,-0.999920,1.569818,-1.076290,-0.623011,-0.279140,-0.317096,-31.460896,-0.309105,-16.909988,78.6139,-1.7051264,1.5602322,-0.4292852,-0.60139316,-0.3121083,0.6041439
20231225 10:23:01,-0.985303,1.635351,-0.840959,-0.494103,-0.310035,-0.344795,-31.778599,-0.712021,-16.752884,79.78341,-1.5373303,1.5803387,-0.4878117,-0.53318715,-0.32174855,0.52700615
20231225 10:23:01,-1.244150,1.884146,-0.380661,-0.347085,-0.333472,-0.368233,-31.740932,0.610023,-16.704819,80.007324,-1.4774042,1.6690434,-0.43478155,-0.43508613,-0.31578562,0.4335359
20231225 10:23:01,-1.641786,2.201489,-0.103539,-0.190479,-0.356910,-0.360775,-30.651318,1.280739,-18.613358,78.34535,-1.6744751,1.7894367,-0.2988758,-0.3040814,-0.30156916,0.3283892
20231225 10:23:01,-1.990891,2.732983,-0.164475,-0.040265,-0.348387,-0.312835,-31.171734,2.477715,-19.500504,78.26892,-2.129656,2.165152,-0.3061472,-0.15856428,-0.2573873,0.2141441
20231225 10:23:01,-2.350136,3.146487,-0.233100,0.091838,-0.282336,-0.242522,-31.520687,-0.607948,-15.953278,86.96783,-2.5937188,2.4066582,-0.29660863,-0.02972348,-0.17079821,0.107295744
20231225 10:23:01,-2.542279,3.324001,-0.023308,0.213288,-0.199238,-0.150902,-31.697269,1.660789,-17.576797,82.67051,-2.6257057,2.4733279,-0.32967025,0.09320775,-0.09186566,-0.038432494
20231225 10:23:01,-2.423071,3.173460,0.415843,0.271882,-0.178997,-0.106157,-31.174671,1.213890,-16.336685,81.628426,-2.1114328,2.406684,-0.42843938,0.15767595,-0.088485055,-0.080744945
20231225 10:23:01,-1.893199,2.655540,1.035337,0.458318,-0.248244,-0.014537,-31.169697,-0.383133,-16.768295,80.03383,-1.1120512,2.1096478,-0.49583727,0.36456198,-0.16304353,-0.13474138
20231225 10:23:01,-1.114521,2.047311,1.209425,0.602140,-0.339864,-0.030517,-31.423878,-0.504692,-16.093018,77.91004,-0.23572773,1.7869552,-0.565655,0.46273524,-0.26771805,-0.15670432
20231225 10:23:01,-0.510129,1.597364,1.001966,0.732112,-0.441072,-0.114680,-31.062763,-0.760529,-16.072723,75.6621,0.1955654,1.4933943,-0.61691654,0.4916625,-0.3820809,-0.19823757
20231225 10:23:01,-0.156814,1.439066,0.549141,0.825863,-0.500732,-0.248914,-31.098240,-1.332504,-15.767807,75.259796,0.19775468,1.3960991,-0.7737772,0.43543857,-0.44042712,-0.2868908
20231225 10:23:01,-0.372228,1.890291,0.055153,0.874869,-0.492209,-0.405520,-31.159191,-1.055672,-15.652512,77.87592,-0.4353892,1.8185132,-0.91869,0.3297746,-0.34233445,-0.40324897
20231225 10:23:01,-1.338413,2.763965,-0.310048,0.880196,-0.452791,-0.513120,-31.036526,-1.993103,-15.322159,86.37541,-1.7678366,2.4223104,-0.6490085,0.27481574,-0.11799976,-0.43728688
20231225 10:23:01,-2.754887,3.679678,-0.487546,0.847170,-0.401655,-0.498205,-30.781567,-2.255325,-15.436478,94.71763,-3.443765,2.5800688,0.06906032,0.31414104,0.0993022,-0.42079037
20231225 10:23:01,-3.941304,4.558243,-0.551668,0.769399,-0.329211,-0.338403,-31.053684,-2.566917,-14.748978,99.97261,-4.78179,2.6845636,0.5968414,0.37938726,0.14209534,-0.39624667
20231225 10:23:01,-4.495735,5.079811,-0.319502,0.649015,-0.308969,-0.113614,-30.728046,-3.394737,-14.423782,102.12798,-5.280173,2.6912587,0.70940155,0.45750242,0.030335225,-0.3287865
20231225 10:23:01,-4.572369,5.101708,-0.148229,0.510520,-0.303643,0.115435,-30.635342,-3.082115,-16.318848,97.76213,-5.116151,2.7716072,0.6548813,0.517916,-0.13309139,-0.23867051
20231225 10:23:01,-4.421149,5.038393,0.006891,0.352848,-0.348387,0.316786,-30.322872,-2.791695,-14.994995,94.185165,-4.564101,3.1830847,0.43768677,0.5663965,-0.32449135,-0.08174306
20231225 10:23:01,-2.823637,4.296961,0.516254,0.090773,-0.571045,0.436105,-30.867878,-3.031113,-14.180954,85.559296,-2.2023919,3.587907,-0.28255323,0.51192963,-0.62863374,0.2887135
20231225 10:23:01,-1.049960,4.109879,1.139904,-0.230962,-0.762808,0.427582,-30.503544,-1.211128,-14.296127,75.12334,-0.045135498,3.9841232,-1.5823054,0.21839085,-0.7958718,0.72445035
20231225 10:23:01,0.140727,3.997483,2.420458,-0.452555,-0.974812,0.333832,-30.391644,-3.185547,-14.032166,73.96664,1.9361596,4.0407295,-2.2778919,-0.08630481,-0.9596192,1.0349431
20231225 10:23:01,0.508906,3.377719,2.486698,-0.650710,-1.029145,0.225166,-30.476910,-2.635590,-13.265091,74.8947,2.1833298,3.4184952,-2.2144537,-0.32596123,-1.0097352,1.2054987
20231225 10:23:01,0.127418,2.692890,2.651220,-0.804120,-0.830990,0.179356,-30.512768,-3.015671,-13.240631,79.19914,1.7744898,2.6625607,-1.7242218,-0.48905593,-0.8443762,1.1681044
20231225 10:23:01,-0.565777,1.846934,3.994391,-0.783878,-0.471967,0.203859,-30.281757,-3.196648,-12.422699,84.84848,1.5966356,1.6530051,-0.9432576,-0.53280115,-0.52619696,0.8335797
20231225 10:23:01,-1.301940,0.762987,5.608070,-0.670951,-0.277009,0.233689,-30.352444,-2.631058,-12.862228,86.94352,1.238585,0.3328312,0.15628156,-0.4864949,-0.35759532,0.55449235
20231225 10:23:01,-2.028565,-0.430578,6.425823,0.025786,0.265253,0.349812,-30.583073,-2.641975,-13.399704,89.04591,0.4115765,-1.0943859,1.230665,0.13299775,0.24567701,-0.25132793
20231225 10:23:01,-2.389445,-1.660244,6.175860,0.544611,0.459147,0.490438,-30.282139,-3.004761,-12.703156,90.92813,-0.3508197,-2.2959778,2.2103825,0.6436765,0.5120155,-0.61003566
20231225 10:23:01,-1.699863,-2.761117,5.504516,0.944116,0.408010,0.667286,-29.585773,-2.475754,-13.132675,89.124405,-0.19115007,-2.9552116,3.1852157,1.0762433,0.45575574,-0.6261517
20231225 10:23:01,0.118072,-3.653210,4.024235,1.155056,0.156588,0.802585,-29.734570,-2.207153,-12.883759,85.94574,0.9608119,-3.498703,3.781981,1.3189263,0.027177852,-0.37731314
20231225 10:23:01,1.348225,-3.985035,3.088520,1.180624,-0.004280,0.835611,-29.735340,-1.823380,-13.444702,82.27146,1.766596,-3.9840412,3.9023924,1.340939,-0.26168108,-0.17543545
20231225 10:23:01,3.590335,-4.259970,0.906816,1.084742,-0.265290,0.805781,-29.865437,-1.748520,-12.647049,71.688324,2.9968636,-5.316153,3.1526866,1.1876965,-0.67374396,0.18159665
20231225 10:23:01,5.393305,-4.092745,-0.856430,0.838647,-0.366498,0.684331,-29.479229,-2.661270,-12.717590,39.18967,3.71095,-6.734186,-0.091166735,0.82153916,-0.6567262,0.4194707
20231225 10:23:01,7.053289,-3.352679,-2.305117,0.480690,-0.344126,0.501091,-29.891949,-2.225464,-12.348251,29.287874,4.973295,-8.042139,-3.02851,0.43648335,-0.39882338,0.3767066
20231225 10:23:01,7.161500,-3.120891,-2.284871,-0.087140,-0.210957,0.130350,-29.934200,-2.142365,-11.684235,37.179184,4.6094165,-7.765824,-3.208528,-0.11682496,-0.021783426,0.24561885
20231225 10:23:01,6.522893,-2.270736,-1.654051,-0.234159,-0.164082,0.007835,-29.512135,-2.675041,-11.779221,43.41411,4.2715406,-6.269925,-2.9342446,-0.25977036,0.037739474,0.21926814
20231225 10:23:01,4.897859,-1.491621,-0.715177,-0.423790,-0.072462,-0.195646,-29.151409,-2.738991,-12.039413,60.56514,3.0782213,-3.158869,-2.2647002,-0.4620936,0.02395019,0.23455796
20231225 10:23:01,2.799328,-0.654154,-0.049939,-0.462143,0.056445,-0.319227,-29.336445,-2.658585,-12.046509,66.368835,2.002181,-1.2602314,-1.3422347,-0.5402562,0.09803297,0.15692689
20231225 10:23:01,0.730179,-0.010287,0.512688,-0.358804,0.217313,-0.370363,-29.327862,-2.371674,-12.333099,77.600876,0.8870089,-0.0112659,-0.39093995,-0.5132823,0.21742955,0.017080069
20231225 10:23:01,-1.576484,0.610690,1.177828,-0.157453,0.336632,-0.320292,-29.372692,-2.846771,-12.302521,88.22229,-0.5593219,0.12012182,0.5807771,-0.3733971,0.34762943,-0.16261888
20231225 10:23:01,-3.775511,1.221941,1.542844,0.220745,0.331305,-0.049693,-29.266529,-2.840393,-12.167908,94.82346,-2.2941191,-0.4607912,1.4083521,0.052321903,0.38427028,-0.3914376
20231225 10:23:01,-4.113582,1.164518,1.303782,0.345391,0.312129,0.060037,-28.623569,-3.073395,-12.280273,95.974,-2.7020602,-0.684417,1.6790559,0.21007171,0.37862965,-0.46499556
20231225 10:23:01,-4.174861,0.769419,0.554599,0.577637,0.298279,0.270976,-28.905796,-2.904343,-12.428085,96.07731,-2.9913929,-0.8581774,2.192289,0.5015583,0.37678656,-0.628886
20231225 10:23:01,-3.420509,0.254861,-0.514496,0.759811,0.338762,0.445693,-28.827686,-2.607361,-13.116547,90.0273,-2.739211,-0.42944172,2.3410244,0.7370497,0.38270167,-0.78826606
20231225 10:23:01,-1.741980,-0.934433,-2.045773,0.866346,0.423990,0.560751,-28.503201,-2.859497,-13.632751,82.19525,-2.5195146,-0.8309274,1.7505469,0.9159646,0.440708,-0.8845389
20231225 10:23:01,-1.189225,-1.372033,-2.468462,0.853562,0.436774,0.562882,-27.734348,-1.954109,-13.550217,70.28299,-2.6938417,-1.3968363,1.2159703,0.97926015,0.43474063,-0.8054323
20231225 10:23:01,-0.218893,-2.190372,-3.168276,0.766203,0.439970,0.528791,-27.628956,-1.563957,-13.976547,56.251865,-2.9497778,-2.7372823,0.20764053,0.9731413,0.40094045,-0.63630456
20231225 10:23:01,0.658619,-2.750732,-3.526228,0.640492,0.428252,0.432909,-28.254642,-2.658546,-13.107498,55.159645,-2.814772,-3.6715903,-0.34190172,0.8392608,0.36942875,-0.5541348
20231225 10:23:01,1.102782,-2.947186,-3.659859,0.536088,0.434644,0.308263,-27.779171,-2.429207,-13.519653,48.960617,-2.8166227,-4.1597443,-0.9651473,0.6982801,0.35032508,-0.49331182
20231225 10:23:01,1.084371,-2.890633,-3.826007,0.419965,0.509218,0.178291,-27.621029,-2.794678,-13.494217,51.865643,-3.0824862,-4.029416,-0.92871845,0.5285003,0.43909496,-0.5104558
20231225 10:23:01,0.798195,-2.927144,-3.942086,0.366698,0.520937,0.159115,-27.553417,-1.825157,-15.298477,50.363037,-3.3420048,-3.9213133,-0.8023812,0.4665849,0.4702861,-0.4723917
20231225 10:23:01,0.418262,-2.779772,-3.848549,0.254836,0.513479,0.146331,-27.110203,-0.091965,-15.541168,52.662174,-3.3765335,-3.4761891,-0.4153496,0.35682285,0.4951736,-0.39065272
20231225 10:23:01,0.336156,-2.794826,-3.818078,0.142975,0.491107,0.146331,-27.073956,0.096222,-15.285141,55.74536,-3.318519,-3.330373,-0.18731189,0.2696846,0.49072766,-0.30025908
20231225 10:23:01,0.301458,-2.716425,-3.611697,0.037505,0.495369,0.154853,-27.476940,0.243271,-14.360962,58.326134,-3.0865057,-3.1838508,-0.004796982,0.21138668,0.5057271,-0.22784048
20231225 10:23:01,0.410304,-2.703172,-3.430804,-0.034938,0.496434,0.158049,-27.145176,-2.757233,-13.625916,59.294888,-2.7948675,-3.34583,0.055574894,0.19035837,0.5165449,-0.19653432
20231225 10:23:01,0.775366,-2.659297,-3.068093,-0.092467,0.464473,0.145265,-26.926846,-3.015747,-14.276718,57.329063,-2.2393482,-3.3507218,-0.18888259,0.14106315,0.4936777,-0.13970777
20231225 10:23:01,1.204851,-2.662189,-2.707613,-0.139343,0.384572,0.104782,-26.790836,-2.358009,-13.246536,55.46438,-1.6005311,-3.4837766,-0.38058698,0.06809456,0.4210517,-0.08476718
20231225 10:23:01,1.764705,-2.549794,-2.317454,-0.167042,0.285495,0.034469,-26.706333,-2.524200,-14.574554,50.1418,-0.9126689,-3.5266526,-0.8745998,-0.016253963,0.31992936,-0.027595649
20231225 10:23:01,2.149849,-1.975170,-2.113483,-0.162780,0.216247,-0.041171,-26.502979,-2.606461,-14.299210,45.97631,-0.5417966,-3.146117,-1.5925657,-0.065890074,0.22973171,-0.008701079
20231225 10:23:01,2.336723,-1.249504,-2.122166,-0.164911,0.167241,-0.099765,-26.194233,-2.298553,-14.450226,40.85695,-0.52500194,-2.5846155,-2.3321228,-0.10654576,0.15713865,0.017911311
20231225 10:23:01,2.391905,-0.244924,-2.136495,-0.219244,0.119301,-0.128529,-26.186314,-3.529282,-13.967896,41.458813,-0.24582314,-1.7252475,-2.7839944,-0.17119253,0.11476575,0.07806842
20231225 10:23:01,2.395223,0.694640,-2.143586,-0.336432,0.087340,-0.127464,-26.291050,-2.401810,-14.310471,41.00494,0.043982625,-0.82834,-3.1469145,-0.24939841,0.1163416,0.19160824
20231225 10:23:01,2.437002,1.071658,-1.588148,-0.478123,0.051118,-0.138117,-26.045055,-2.759048,-14.418686,45.96677,0.7050836,-0.16115338,-3.0743802,-0.37620574,0.12287746,0.295805
20231225 10:23:01,2.637795,1.028529,-0.442778,-0.521802,0.015962,-0.195646,-25.814419,-2.748138,-13.881195,55.703438,1.8747411,0.18774785,-2.6135685,-0.5007219,0.10017868,0.26985446
20231225 10:23:01,2.762061,0.770423,0.766761,-0.387569,0.028746,-0.295789,-25.718380,-2.261108,-14.581894,57.289825,2.7115831,0.24522315,-2.0034475,-0.47063607,0.05683239,0.11856645
20231225 10:23:01,2.404994,0.295634,1.665015,-0.116970,0.089471,-0.398062,-25.778950,-2.176170,-14.186127,64.16925,2.9353428,0.064123094,-1.089483,-0.31335855,0.050512347,-0.13142705
20231225 10:23:01,1.902118,-0.066370,2.215555,0.244183,0.154457,-0.488617,-25.305286,-2.888794,-14.670776,68.24176,2.8238335,-0.09893659,-0.4326297,-0.07701473,0.06843492,-0.40617192
20231225 10:23:01,1.205410,0.132794,2.075766,0.629839,0.237554,-0.537623,-25.376621,-3.840843,-14.341415,71.96361,2.2617426,0.17102501,-0.38216877,0.15076065,0.15935196,-0.70594317
20231225 10:23:01,0.521575,0.516405,1.477645,0.978208,0.332370,-0.556799,-24.952747,-3.431549,-14.363907,72.57303,1.4147485,0.51999253,-0.4038637,0.3005892,0.3265771,-1.033409
20231225 10:23:01,-0.169605,1.262381,0.608423,1.241349,0.422925,-0.564257,-24.927280,-4.280342,-14.174271,74.96129,0.29571193,1.2068055,-0.5014422,0.26636446,0.5247435,-1.3258741
20231225 10:23:01,-0.620835,2.487401,-0.657259,1.332969,0.502826,-0.562126,-25.060329,-4.571777,-14.290558,78.09447,-1.3040229,2.4954543,-0.6426233,0.04092741,0.71831864,-1.4628805
20231225 10:23:01,-1.092440,3.964561,-1.702706,1.207258,0.546505,-0.564257,-24.559383,-5.191238,-14.513062,84.5763,-3.1875873,4.129298,-0.47213575,-0.23404685,0.8521611,-1.3417331
20231225 10:23:01,-1.677940,5.675287,-2.280382,0.938790,0.577400,-0.522708,-24.622143,-5.856377,-14.470276,94.424,-5.1591883,5.6863313,-0.23173527,-0.39266157,0.90915745,-1.0630883
20231225 10:23:01,-2.407549,6.695316,-2.184772,0.658603,0.640256,-0.398062,-23.988529,-5.992516,-14.856995,96.839806,-6.0708313,6.166172,-0.16073945,-0.39248833,0.8758365,-0.8310328
20231225 10:23:01,-2.761209,7.005585,-1.486126,0.442338,0.696719,-0.239325,-24.491657,-6.123123,-14.987457,95.91992,-5.7162685,6.049246,-0.123564325,-0.359008,0.79871976,-0.6684551
20231225 10:23:01,-2.798244,7.031431,-0.701152,0.221810,0.672216,-0.081654,-23.830379,-6.357979,-14.831573,92.91451,-4.8286386,5.876967,-0.4858242,-0.26230034,0.6702264,-0.48768282
20231225 10:23:01,-2.492824,6.603132,0.125975,-0.100990,0.455951,0.077083,-23.511524,-6.530724,-14.147278,89.21276,-3.3387232,5.5832515,-0.84869313,-0.14179888,0.3747241,-0.12121439
20231225 10:23:01,-1.723605,5.979260,0.722645,-0.500496,0.126758,0.227297,-23.707714,-7.295410,-14.501221,82.28917,-1.501811,5.4452457,-1.4287057,-0.08625379,0.0153515525,0.38547468
20231225 10:23:01,-0.615929,5.105533,1.358489,-0.815839,-0.112945,0.306133,-23.220325,-6.604759,-14.005554,76.003235,0.38353348,4.9460907,-2.070084,-0.19361341,-0.17860518,0.7794667
20231225 10:23:01,0.249939,3.838449,2.025498,-1.024647,-0.170474,0.318917,-22.922199,-3.722916,-16.602188,66.11325,1.696458,3.8360653,-1.9384532,-0.42362306,-0.17204283,0.9638387
20231225 10:23:01,0.817982,2.305576,3.377569,-1.158881,-0.137448,0.296545,-23.210712,-4.992104,-14.780594,74.89547,2.8168206,2.3786094,-1.5622246,-0.72603714,-0.080582954,0.8865681
20231225 10:23:01,1.632881,0.270590,5.477171,-1.155685,-0.118272,0.219840,-23.095585,-4.890701,-14.652100,81.47296,3.8693216,0.3784883,-0.22771627,-0.9485417,0.0153593505,0.64180386
20231225 10:23:01,2.284237,-1.806171,7.360951,-0.953269,-0.099096,0.050449,-22.991611,-5.634407,-14.870453,91.275536,4.1951537,-1.8068514,0.93002605,-0.90362877,0.011178291,0.36314481
20231225 10:23:01,2.011983,-3.703436,8.653905,-0.597442,-0.060743,-0.143444,-22.559666,-2.844902,-16.789856,89.342,3.3825765,-3.7315109,3.4135318,-0.61363393,-0.02228316,0.15795521
20231225 10:23:01,1.233501,-4.964804,9.363836,-0.190479,-0.121468,-0.256371,-23.086231,-4.987579,-14.377731,98.181046,2.2682533,-4.9675016,3.4195242,-0.21857148,-0.11720869,0.17722787
20231225 10:23:01,0.836947,-5.463699,9.129925,0.215418,-0.307904,-0.312835,-22.550854,-6.360809,-14.416733,102.26674,1.7362418,-5.4624386,3.2988586,0.18281697,-0.31073055,0.344044
20231225 10:23:01,0.594676,-5.354592,7.623360,0.568049,-0.520974,-0.390605,-22.762402,-6.757347,-14.125031,100.586044,1.8919201,-5.358326,3.7047791,0.4935217,-0.5176299,0.4783466
20231225 10:23:01,0.253764,-4.150895,5.037997,0.765138,-0.675449,-0.456656,-22.619617,-6.754662,-13.453918,95.4895,1.9986119,-4.219081,3.3529243,0.57911754,-0.6303404,0.417637
20231225 10:23:01,-0.358613,-2.617852,2.278111,0.748092,-0.735108,-0.459853,-22.125454,-6.719063,-13.317368,89.806656,1.204001,-2.8245306,2.3651285,0.41967285,-0.59687066,0.17929739
20231225 10:23:01,-0.980433,-0.758410,0.079558,0.521173,-0.741501,-0.382082,-22.549320,-7.128365,-13.294861,89.12696,-0.41675866,-0.92075616,1.2389734,0.21327218,-0.5393311,0.07878089
20231225 10:23:01,-1.530052,0.898543,-1.273933,0.177066,-0.697821,-0.249979,-22.391171,-7.493835,-13.269424,93.33107,-2.1114526,0.92468417,0.850889,0.14271125,-0.51214457,0.23155628
20231225 10:23:01,-2.003104,1.859830,-1.688304,-0.201133,-0.608332,-0.094438,-22.363506,-7.592552,-12.726822,95.631485,-3.0370464,1.8302429,0.7901447,0.042448618,-0.56065637,0.4988728
20231225 10:23:01,-2.212892,2.082586,-0.872902,-0.515410,-0.565718,0.041926,-22.873035,-7.260002,-12.217712,94.62937,-2.5975296,1.6971318,0.5496696,-0.114046924,-0.653229,0.7494355
20231225 10:23:01,-2.080514,1.627660,0.331529,-0.683735,-0.563587,0.127154,-22.309719,-7.022438,-12.763504,91.13871,-1.5325453,1.0914464,0.3864406,-0.266568,-0.69912946,0.8821448
20231225 10:23:01,-1.752337,0.811578,1.371781,-0.658167,-0.515647,0.155919,-22.246578,-6.549187,-12.525833,90.48908,-0.5798239,0.30566084,0.5107493,-0.32885963,-0.6348106,0.8184045
20231225 10:23:02,-1.541610,-0.018788,2.051789,-0.468535,-0.408047,0.149527,-22.538815,-7.800903,-12.179077,94.15433,-0.058875084,-0.48180348,0.80204284,-0.2471098,-0.4888578,0.59599394
20231225 10:23:02,-1.514519,-0.770698,2.181826,-0.200067,-0.285532,0.147396,-22.829632,-7.918755,-12.040314,96.1326,-0.0118944645,-1.2470831,1.2756338,-0.057041563,-0.32934755,0.33393267
20231225 10:23:02,-1.641599,-1.436892,1.788989,0.090773,-0.153428,0.166572,-22.669300,-7.534157,-11.661911,96.79031,-0.29598975,-1.9097717,1.9021868,0.18101862,-0.15232436,0.0640721
20231225 10:23:02,-1.548148,-1.932447,1.033024,0.363502,-0.015999,0.202794,-22.080120,-8.337265,-11.737595,97.59818,-0.5297064,-2.2741692,2.3353167,0.41471526,0.024311429,-0.20737846
20231225 10:23:02,-1.221112,-2.342099,0.094707,0.590421,0.091602,0.219840,-22.626659,-7.809128,-12.045456,94.57139,-0.6837482,-2.4976861,2.6035268,0.59598327,0.15638848,-0.43158308
20231225 10:23:02,-0.882022,-2.767314,-1.184598,0.732112,0.166176,0.226232,-22.344044,-8.170067,-11.617172,93.96262,-1.0801846,-2.6984155,2.7420373,0.68227196,0.24278954,-0.61050165
20231225 10:23:02,-0.716673,-3.076915,-2.483175,0.772595,0.206659,0.230493,-22.413960,-7.988258,-11.495758,92.572426,-1.7263112,-2.676106,2.6898518,0.6535577,0.2845955,-0.7142146
20231225 10:23:02,-0.676728,-3.226570,-3.604439,0.737439,0.236489,0.254996,-22.386677,-7.895081,-11.233627,92.960335,-2.4163396,-2.338304,2.5451682,0.5729386,0.29243684,-0.74372053
20231225 10:23:02,-0.570915,-3.572632,-4.401358,0.630904,0.223705,0.298675,-21.797894,-8.506317,-11.589783,90.54861,-2.9915276,-2.2963705,2.223587,0.49009657,0.22453398,-0.66265273
20231225 10:23:02,-0.298348,-3.696710,-4.982594,0.463645,0.169372,0.343420,-22.078320,-7.395302,-11.665100,84.5815,-3.670571,-2.3751917,1.4648846,0.43786216,0.12451795,-0.48112735
20231225 10:23:02,-0.196640,-3.686577,-5.290882,0.267620,0.092667,0.389230,-21.913013,-8.607712,-11.718277,81.408005,-4.1839166,-2.4572296,1.0280976,0.42098632,0.023770288,-0.2656205
20231225 10:23:02,0.028220,-3.694628,-5.498150,0.071596,0.039400,0.431844,-22.061810,-8.339119,-11.469360,66.59673,-5.386029,-3.8669748,0.30963045,0.43569195,0.052393567,-0.030981246
20231225 10:23:02,0.248455,-3.713618,-5.353685,-0.131885,-0.024521,0.460608,-22.016987,-7.864021,-11.499924,58.223053,-5.5230074,-4.6613503,-0.114406824,0.37182865,0.07177457,0.21581566
20231225 10:23:02,0.500262,-3.666336,-4.937922,-0.351347,-0.121468,0.458478,-21.822979,-7.849411,-11.498947,57.467068,-4.8225746,-4.8032513,-0.23017609,0.18771681,0.04375411,0.47565448
20231225 10:23:02,0.695463,-3.485364,-4.151713,-0.539913,-0.245048,0.409472,-21.919796,-7.952660,-11.359192,65.34808,-3.525063,-4.2926226,0.28488588,-0.045318544,-0.08066793,0.6680972
20231225 10:23:02,0.623692,-3.240615,-3.504143,-0.666690,-0.332407,0.339159,-21.831944,-7.944435,-11.492828,73.52234,-2.5943658,-3.6446693,0.8904565,-0.21084213,-0.23109585,0.77690446
20231225 10:23:02,0.251288,-2.857307,-2.617021,-0.728480,-0.364367,0.283760,-21.804279,-8.043152,-10.950226,83.20248,-1.7367246,-2.9258919,1.6143329,-0.3252731,-0.33925775,0.79411584
20231225 10:23:02,-0.118407,-2.445841,-1.576521,-0.685866,-0.375021,0.254996,-22.208416,-7.320442,-10.867447,86.85586,-1.0824159,-2.420005,1.8535265,-0.34300232,-0.39295685,0.7434929
20231225 10:23:02,-0.500660,-1.926944,-0.717585,-0.562286,-0.385674,0.251800,-21.883167,-7.956360,-10.822708,89.80778,-0.7544217,-1.9144841,1.7764693,-0.23801221,-0.42812565,0.6614473
20231225 10:23:02,-0.736451,-1.308419,-0.445696,-0.373719,-0.338799,0.268846,-22.032726,-7.303986,-11.134720,87.797676,-0.7536785,-1.3241483,1.4429171,-0.06463085,-0.3807732,0.5103191
20231225 10:23:02,-0.860800,-0.730774,-0.420997,-0.161715,-0.245048,0.264584,-21.962811,-7.485794,-11.256134,86.49097,-0.84537446,-0.75536805,1.1086457,0.096584775,-0.27339005,0.29691592
20231225 10:23:02,-0.805777,-0.079945,-0.733405,0.005545,-0.192846,0.208121,-21.935535,-7.392624,-10.993988,84.05782,-1.0657449,-0.0719617,0.6359632,0.18093555,-0.20736042,0.12740448
20231225 10:23:02,-0.901263,0.810827,-1.338882,0.043897,-0.194977,0.111174,-21.723217,-7.379860,-10.724777,83.32865,-1.6911061,0.8860856,0.24357377,0.13745368,-0.2023043,0.074008726
20231225 10:23:02,-1.011875,1.627053,-1.557587,-0.036004,-0.230133,0.024881,-21.988941,-8.154625,-10.676849,84.420654,-2.0387373,1.7262084,-0.034721553,0.030512037,-0.23343752,0.14919358
20231225 10:23:02,-0.987561,1.892703,-1.299245,-0.153192,-0.247179,-0.029452,-21.449184,-8.027710,-10.009903,83.54393,-1.7457082,1.9280045,-0.29951945,-0.09356626,-0.25105458,0.26170838
20231225 10:23:02,-0.561512,1.839720,-0.331853,-0.212852,-0.240787,-0.073131,-21.344173,-7.445663,-10.716705,79.69548,-0.6006887,1.8401906,-0.72088695,-0.19057177,-0.24036105,0.30583096
20231225 10:23:02,-0.070074,1.791502,0.871983,-0.172368,-0.205630,-0.139183,-21.731030,-8.050545,-9.877243,83.41931,0.65213466,1.8252854,-1.1066241,-0.22745496,-0.20438069,0.25468257
20231225 10:23:02,0.274484,1.592869,1.900317,-0.038134,-0.175801,-0.227607,-21.317928,-8.678238,-9.966125,84.90822,1.596487,1.6857338,-1.2198995,-0.19411713,-0.18663998,0.13886207
20231225 10:23:02,0.457005,1.381973,2.432020,0.141909,-0.141710,-0.330945,-21.229702,-8.861893,-9.819305,87.322105,2.0185754,1.4801276,-1.2529655,-0.1189698,-0.16767807,9.192098E-4
20231225 10:23:02,0.368348,0.919983,2.346131,0.312365,-0.126795,-0.400193,-21.354176,-8.866432,-10.222153,87.086655,1.8644291,1.0052006,-0.8435857,-0.03498426,-0.16073309,-0.1265494
20231225 10:23:02,0.237113,0.608838,1.755074,0.408246,-0.108684,-0.410847,-21.281689,-8.490051,-9.710114,86.878334,1.3801008,0.66914225,-0.53843004,0.02113092,-0.14378461,-0.21126297
20231225 10:23:02,0.240930,0.587740,1.431278,0.421031,-0.158755,-0.412977,-20.999065,-8.850983,-9.281815,87.1188,1.1996835,0.631358,-0.53531545,0.0024766624,-0.18984625,-0.1987283
20231225 10:23:02,-0.132569,1.181704,0.902560,0.353914,-0.301512,-0.444938,-21.061817,-9.516113,-9.239029,88.376976,0.58524954,1.1560495,-0.6287836,-0.11284527,-0.28316393,-0.09123663
20231225 10:23:02,-0.882813,2.202944,-0.041512,0.237791,-0.401655,-0.483290,-20.700710,-9.771965,-9.218735,91.7273,-0.8376957,2.0899754,-0.4279615,-0.21472044,-0.29977685,0.020951878
20231225 10:23:02,-1.932278,3.663991,-0.567553,0.174935,-0.278074,-0.540819,-20.885746,-9.691544,-9.225830,98.82665,-2.5180151,3.2788763,-0.072337836,-0.27093238,-0.06905103,0.025311254
20231225 10:23:02,-3.128407,4.978363,-0.020036,0.170674,-0.037305,-0.600478,-20.673435,-9.678795,-8.956619,105.042015,-3.5353558,3.747565,0.03169459,-0.3482587,0.2271404,-0.039688267
20231225 10:23:02,-4.417883,6.286764,1.781160,0.216484,0.091602,-0.583433,-20.603519,-9.860603,-9.078018,107.47169,-3.7031205,3.6956596,-0.36287552,-0.31931254,0.3571203,-0.121063605
20231225 10:23:02,-5.386951,7.354661,3.478401,0.240987,0.034073,-0.383147,-20.647953,-10.527588,-8.766968,108.79664,-3.495243,3.8916435,-0.8856294,-0.12760636,0.22985315,-0.13023028
20231225 10:23:02,-4.827175,7.486528,4.730800,0.077988,-0.270617,-0.015602,-20.145206,-10.205086,-8.917007,102.331436,-1.4223657,5.1006575,-1.726275,0.10154546,-0.23906234,0.11431039
20231225 10:23:02,-2.451769,6.564585,5.270814,-0.297014,-0.813944,0.351943,-20.126896,-10.206932,-8.648758,94.131065,1.9106871,6.180773,-2.8564906,0.09934823,-0.8427742,0.74942744
20231225 10:23:02,0.616369,4.658001,4.794681,-0.699716,-1.262456,0.595908,-20.319096,-9.279572,-8.577240,83.608154,4.363085,5.148603,-3.3744316,-0.27693832,-1.0489806,1.4363396
20231225 10:23:02,3.059710,2.214380,3.517013,-1.020385,-1.290155,0.643848,-20.337025,-9.469604,-8.565002,82.61718,4.9104805,1.8932221,-3.2289126,-0.77176154,-0.70353705,1.7019846
20231225 10:23:02,4.602091,-0.437094,3.522801,-1.113071,-0.817140,0.508549,-20.334835,-8.719536,-8.212036,96.5153,5.4003105,-1.6406628,-1.7649682,-0.985099,-0.20221129,1.1288751
20231225 10:23:02,4.830664,-2.830839,5.873758,-0.765767,-0.125729,0.201729,-20.371082,-8.907730,-8.468063,108.29093,5.7419233,-3.7662685,-0.23959863,-0.7136048,0.13078369,0.22324255
20231225 10:23:02,3.324009,-4.153573,8.527441,-0.040265,0.350481,-0.099765,-20.521679,-9.581093,-8.291626,112.39709,4.429607,-4.4544563,0.08447552,-0.04471485,0.34895596,-0.27672148
20231225 10:23:02,1.901371,-4.681313,9.244213,0.763007,0.469800,-0.303246,-20.459316,-8.724060,-8.614883,109.600296,3.2437406,-4.6948714,0.9893882,0.7147991,0.36470208,-0.4580577
20231225 10:23:02,1.145468,-4.049891,7.309570,1.373452,0.341958,-0.393801,-20.466740,-9.586639,-7.486877,108.5555,2.9598503,-3.9169812,1.1418056,1.2248145,0.17263396,-0.5673377
20231225 10:23:02,1.011451,-3.042373,3.805457,1.619547,0.133150,-0.365037,-20.114590,-9.937492,-7.460480,101.358475,2.377132,-2.8339884,1.5084562,1.2789745,-0.15992558,-0.8038442
20231225 10:23:02,1.411479,-1.980751,0.110278,1.458680,-0.111880,-0.268090,-19.991268,-9.357300,-7.899033,72.84007,0.4636929,-2.1624107,0.2521098,0.76709425,-0.55594265,-1.05998
20231225 10:23:02,1.905070,-0.931267,-3.225840,0.959031,-0.272747,-0.158359,-20.255070,-11.091515,-6.448761,33.13347,-1.683798,-3.4412117,-2.6748598,0.14304355,-0.60553885,-0.85415286
20231225 10:23:02,2.281036,-0.186269,-5.277687,0.310234,-0.313231,-0.097634,-20.599407,-10.069969,-7.322693,-4.063162,-0.7813949,-5.559446,-3.958383,-0.20120814,-0.27881488,-0.33243862
20231225 10:23:02,2.023461,0.397286,-5.701740,-0.338563,-0.230133,-0.078458,-19.579975,-10.926956,-8.060440,15.201753,-2.1453404,-4.7584696,-3.6397693,-0.3263481,-0.10667419,0.31767476
20231225 10:23:02,1.241108,0.630277,-3.974051,-0.836080,-0.151298,-0.083785,-20.416286,-9.190933,-8.717957,61.867954,-2.6143832,-0.69343585,-2.2124882,-0.4944314,-0.047046535,0.78691643
20231225 10:23:02,0.397875,0.513906,-1.508826,-1.098156,-0.154494,-0.093373,-19.249699,-8.545090,-8.078659,82.94789,-0.88160145,0.37953782,-0.7463815,-0.77349436,-0.09652423,0.94343585
20231225 10:23:02,-0.082534,0.034379,0.390916,-1.132247,-0.158755,-0.090177,-20.009586,-9.355453,-8.167282,93.56876,0.19858533,0.04235725,0.011021826,-0.90861857,-0.13916896,0.8750022
20231225 10:23:02,-0.497253,-0.494373,1.783602,-0.962857,-0.105488,-0.074197,-20.248028,-10.037048,-7.857224,101.109665,0.625973,-0.533554,0.40159658,-0.82879907,-0.12592971,0.6499474
20231225 10:23:02,-0.883882,-1.062247,2.698945,-0.598508,0.008504,-0.046497,-19.895496,-10.579796,-7.550354,106.16124,0.6227554,-1.1737013,0.6777022,-0.54062355,-0.01776634,0.30565116
20231225 10:23:02,-1.069529,-1.660060,2.930033,-0.128689,0.124627,-0.045432,-20.169147,-10.123833,-7.984756,105.44244,0.51030695,-1.807551,1.231604,-0.13854423,0.11848064,-0.03332878
20231225 10:23:02,-1.021533,-2.050007,2.132397,0.338999,0.237554,-0.079523,-19.497875,-8.937927,-8.323425,101.71721,0.2556786,-2.1683633,1.8745556,0.24523026,0.25789678,-0.3578649
20231225 10:23:02,-0.912851,-2.489239,0.569845,0.717197,0.350481,-0.140248,-19.983341,-10.588020,-7.416702,105.03015,-0.32803443,-2.5660565,2.3802736,0.5002007,0.40225786,-0.6521482
20231225 10:23:02,-0.907005,-2.821902,-1.133983,0.967554,0.451689,-0.206300,-19.383785,-10.162277,-7.706482,101.64341,-1.2013516,-2.7941735,2.8515375,0.5589752,0.55202854,-0.93800384
20231225 10:23:02,-0.955159,-3.132016,-2.858590,1.067697,0.536917,-0.238260,-19.586369,-10.463791,-7.420868,101.50097,-2.2159684,-2.6600645,2.9748755,0.3687699,0.71577674,-1.1382264
20231225 10:23:02,-0.924687,-3.353665,-4.325176,0.999515,0.594446,-0.219084,-19.347157,-10.165977,-7.169998,101.974655,-3.0148702,-1.9417391,2.649695,0.06473926,0.77607125,-1.1331719
20231225 10:23:02,-0.710207,-3.652461,-5.240679,0.774726,0.577400,-0.160490,-19.285824,-10.634689,-7.004807,94.689514,-4.0627284,-2.1771529,1.8373407,-0.08069363,0.6582995,-0.90260744
20231225 10:23:02,-0.159131,-4.043180,-5.743611,0.468971,0.503891,-0.107222,-19.637318,-8.766205,-7.800140,48.29292,-6.7802215,-5.99355,-0.0147070885,0.2083886,0.37375426,-0.5531887
20231225 10:23:02,0.382436,-4.393064,-5.763234,0.158955,0.447428,-0.104026,-19.435001,-10.174202,-7.036346,39.501057,-6.6378927,-6.891139,-0.9432482,0.24409719,0.25098523,-0.27794015
20231225 10:23:02,0.779085,-4.323748,-5.209079,-0.074356,0.444232,-0.138117,-19.075306,-11.563896,-6.808090,61.857807,-5.315817,-6.1467524,0.0251472,0.043613896,0.3491392,-0.17011425
20231225 10:23:02,0.740729,-4.073773,-4.241284,-0.210721,0.472996,-0.184993,-19.665905,-11.894630,-6.524429,86.79537,-3.4887388,-4.79866,1.7875351,-0.1916798,0.45849743,-0.1329856
20231225 10:23:02,0.415365,-3.465519,-3.188605,-0.267184,0.491107,-0.192450,-19.014744,-11.648834,-7.203857,93.8795,-2.3045855,-3.652121,2.1140726,-0.2934959,0.4921273,-0.11437369
20231225 10:23:02,0.151661,-2.798814,-2.406628,-0.266119,0.517741,-0.169012,-19.024090,-11.551971,-7.478226,97.028915,-1.6653705,-2.8013294,1.9763772,-0.30431744,0.51781684,-0.13987008
20231225 10:23:02,0.000972,-2.282502,-1.659066,-0.236289,0.549701,-0.126399,-19.141735,-7.596748,-7.871536,90.166725,-1.1417637,-2.2554483,1.6083515,-0.2648017,0.5478486,-0.21849509
20231225 10:23:02,0.023344,-1.764942,-1.037124,-0.183022,0.539048,-0.073131,-19.085812,-10.891357,-7.923874,96.55727,-0.7010581,-1.7502762,1.2922062,-0.18754669,0.53751767,-0.2377917
20231225 10:23:02,0.100123,-1.242640,-0.804669,-0.138277,0.497499,-0.002818,-19.049946,-10.511276,-7.948334,93.679306,-0.52475005,-1.2388015,0.79147625,-0.09689486,0.49697027,-0.23002371
20231225 10:23:02,0.230373,-0.889010,-0.964561,-0.134016,0.436774,0.083475,-18.751972,-11.240364,-8.165710,90.78335,-0.62575215,-0.92491496,0.39562142,-0.0069362596,0.44256046,-0.17489584
20231225 10:23:02,0.618090,-0.443001,-1.289101,-0.139343,0.394161,0.151657,-19.024471,-11.360077,-7.758682,85.75755,-0.72161895,-0.5931047,-0.30109483,0.07629694,0.41400677,-0.10887724
20231225 10:23:02,0.874081,0.104649,-1.677576,-0.145735,0.399487,0.187879,-18.707531,-10.573380,-8.476746,78.014984,-0.90185595,-0.18209624,-0.9785826,0.12726514,0.43079525,-0.06923316
20231225 10:23:02,1.094655,0.496136,-1.530123,-0.160649,0.398422,0.198533,-19.174038,-10.707703,-8.070709,78.29437,-0.5934551,0.16116464,-1.3517898,0.13441312,0.43657818,-0.056157578
20231225 10:23:02,1.170300,0.918760,-1.360295,-0.176630,0.376050,0.182552,-19.024853,-11.168190,-8.039169,79.07226,-0.35718024,0.59806246,-1.612454,0.109725855,0.4134231,-0.033212326
20231225 10:23:02,1.054412,1.345987,-1.034081,-0.180891,0.339828,0.154853,-18.864529,-10.783577,-7.660767,82.76542,-0.15094501,1.1707426,-1.6854278,0.062159874,0.36391723,-0.022938598
20231225 10:23:02,0.880717,1.693588,-0.623055,-0.193675,0.285495,0.148461,-19.351528,-11.666122,-7.875946,84.98599,0.13443923,1.5753404,-1.7087289,0.03816855,0.30871493,0.0071254666
20231225 10:23:02,1.095701,1.780985,-0.214501,-0.227766,0.226901,0.163376,-19.158298,-11.267731,-8.435913,82.70007,0.7290852,1.6203895,-1.9604304,0.018967949,0.26767102,0.0566638
20231225 10:23:02,1.599704,1.557019,0.556533,-0.236289,0.170437,0.142069,-18.831234,-10.961693,-8.318665,84.00646,1.7095637,1.389838,-2.185681,-0.026053004,0.22124885,0.07444844
20231225 10:23:02,2.058157,1.500848,1.261118,-0.188349,0.127823,0.078148,-18.849934,-10.767952,-8.867371,83.55212,2.5637298,1.3371937,-2.4171393,-0.05523854,0.16782813,0.052893724
20231225 10:23:02,2.268497,1.416755,1.827744,-0.056245,0.170437,-0.042236,-18.426571,-8.265350,-10.500198,75.88136,3.0872977,1.3001746,-2.240369,-0.043109085,0.16874751,-0.08774536
20231225 10:23:02,2.127765,1.605104,2.346733,0.160020,0.238620,-0.198842,-18.787296,-8.201408,-10.240021,77.849625,3.3367498,1.6038723,-2.2604532,0.00595288,0.18993267,-0.30816597
20231225 10:23:02,1.539655,2.115678,2.192263,0.389070,0.321717,-0.344795,-18.804340,-10.676636,-8.337006,88.63412,2.8000183,2.1636114,-2.5200882,0.022761583,0.27319536,-0.5099559
20231225 10:23:02,0.523320,3.008318,1.831795,0.548872,0.367527,-0.444938,-18.858898,-10.862976,-8.861267,91.32123,1.6253624,2.93236,-2.2607434,-0.03988114,0.40903062,-0.6531373
20231225 10:23:02,-0.757794,4.050053,1.121960,0.649015,0.368592,-0.443872,-18.232182,-8.442642,-10.218750,89.918884,-0.35175246,3.5723581,-1.4805337,-0.10444188,0.53933465,-0.7462184
20231225 10:23:02,-2.101139,4.935796,-0.145739,0.691629,0.449559,-0.336272,-18.422848,-8.282837,-9.025345,103.72405,-3.2621462,3.863958,-0.30539653,-0.14280216,0.69642913,-0.77830416
20231225 10:23:02,-3.305273,5.664280,-1.454762,0.663930,0.633864,-0.120006,-18.566936,-11.320778,-8.158615,119.692245,-5.870425,4.074453,1.2062713,-0.18917269,0.72985595,-0.8097625
20231225 10:23:02,-3.845330,5.992987,-2.063418,0.428488,0.755313,0.184683,-18.700375,-11.420326,-8.555359,120.311516,-6.778551,4.4390464,1.7915297,-0.19044137,0.5402355,-0.6983974
20231225 10:23:02,-3.220402,6.066271,-1.540014,-0.080748,0.639190,0.523464,-19.009884,-11.344452,-8.965302,106.22023,-5.250312,5.3106833,0.5763196,0.09996086,0.3146307,-0.2552039
20231225 10:23:02,-1.427712,5.194176,0.228675,-0.691193,0.325978,0.782343,-18.858898,-10.862976,-8.861267,91.001656,-1.0539799,5.063574,-1.7022676,0.23438513,0.21652654,0.38578945
20231225 10:23:02,1.124487,3.055746,2.642623,-1.164207,0.019158,0.860114,-18.789753,-10.661003,-9.543610,89.15393,2.9039006,3.1626887,-3.0162725,-0.3234284,0.2717526,0.75731575
20231225 10:23:02,3.448060,0.655838,5.751050,-1.330402,-0.158755,0.723749,-18.857868,-9.537224,-9.349701,100.19813,5.5299463,0.4486577,-2.955137,-0.93207103,0.23438394,0.58284444
20231225 10:23:02,4.516759,-1.923803,8.920185,-1.167403,-0.268486,0.420125,-18.911655,-10.107346,-9.313019,112.49941,6.296522,-2.4255931,-2.6402752,-1.0557842,0.03582614,0.3559786
20231225 10:23:02,4.335180,-4.097651,11.182831,-0.765767,-0.364367,0.060037,-18.629269,-6.665466,-11.544449,106.74555,5.516921,-4.5779614,0.18331385,-0.76136565,-0.21617413,0.42000628
20231225 10:23:02,3.314960,-5.404632,12.054670,-0.197937,-0.415504,-0.255306,-18.540661,-7.041016,-11.117142,109.51134,4.153327,-5.666513,0.8156233,-0.22041912,-0.389372,0.49045637
20231225 10:23:02,2.206750,-5.798652,11.597307,0.449795,-0.367563,-0.487552,-19.086811,-6.704765,-11.144531,107.149605,3.1318169,-5.8676887,1.9297712,0.4056294,-0.399228,0.4557556
20231225 10:23:02,0.766158,-5.166279,10.166277,1.053847,-0.318557,-0.640962,-19.123440,-6.701065,-11.681015,103.72235,2.4722018,-5.1884003,2.4429054,0.93356586,-0.28947544,0.27928776
20231225 10:23:03,-0.803992,-3.672535,7.714143,1.514078,-0.279140,-0.693164,-18.831852,-6.966980,-11.258835,100.854576,1.8967226,-4.1226945,2.2984738,1.2230127,-0.026308924,-0.10912458
20231225 10:23:03,-2.304421,-1.804917,4.366792,1.766565,-0.190716,-0.644158,-19.122555,-8.986252,-9.790222,105.70161,0.75557315,-3.2087831,1.7572384,1.1567763,0.45446104,-0.69930005
20231225 10:23:03,-3.696335,0.642877,0.964543,1.711167,-0.087377,-0.477963,-18.628117,-7.241135,-10.703033,109.266396,-2.093665,-1.4772358,2.2638066,0.84715164,0.8613385,-1.1676309
20231225 10:23:03,-5.050585,2.839542,-1.823428,1.304204,-0.094834,-0.169012,-18.357136,-7.251396,-8.154221,130.1518,-5.539329,0.4560814,3.7512429,0.68947697,0.67292905,-1.008703
20231225 10:23:03,-5.611395,3.830321,-3.647184,0.644754,-0.221611,0.229428,-19.301678,-8.173233,-7.969467,140.99269,-6.9716063,1.7328496,5.1042614,0.56509733,0.03137353,-0.581684
20231225 10:23:03,-5.125241,3.601041,-4.242324,-0.067964,-0.385674,0.625737,-19.137028,-10.903290,-7.253738,141.08446,-6.771185,2.857648,5.0531063,0.513631,-0.69662434,-0.047788218
20231225 10:23:03,-3.470860,2.337873,-3.714393,-0.604900,-0.460249,0.910185,-19.270466,-11.002838,-7.650482,120.56546,-5.368682,3.0223165,3.101314,0.6376879,-1.0718664,0.52172506
20231225 10:23:03,-1.713966,0.842324,-2.683609,-0.889348,-0.438942,1.057203,-19.013706,-10.323090,-7.692307,99.72945,-3.2925353,1.2299863,1.2978668,0.5436603,-0.8115182,0.89753526
20231225 10:23:03,-0.423410,-0.657869,-1.513901,-0.953269,-0.306839,1.094490,-19.426807,-9.695404,-7.603424,93.01018,-1.4005225,-0.65053356,0.8087647,0.17019475,-0.3195308,0.87269586
20231225 10:23:03,0.576162,-1.912615,-0.306453,-0.827557,-0.131056,1.043354,-20.055180,-9.446770,-8.697662,92.37494,0.12505013,-1.9817909,1.1935714,-0.05249381,0.042780757,0.5665759
20231225 10:23:03,1.236655,-2.788157,0.607203,-0.581462,0.037269,0.929361,-19.673794,-5.151558,-10.715866,81.34392,1.0975177,-2.8867126,1.8683275,-0.05328366,0.22723368,0.3762348
20231225 10:23:03,1.659649,-3.464891,0.979104,-0.289557,0.166176,0.778082,-20.258862,-4.557816,-8.884857,84.91273,1.5603776,-3.623283,2.498043,0.07569912,0.30096304,0.03560939
20231225 10:23:03,1.821782,-3.873927,1.043973,-0.009370,0.250338,0.608692,-20.395405,-8.634598,-7.816269,99.470085,1.6992023,-4.0652275,2.6357849,0.24818318,0.30359414,-0.3152817
20231225 10:23:03,1.773450,-4.039465,0.744016,0.251640,0.287626,0.453151,-20.166309,-7.856133,-8.400681,94.90321,1.4692335,-4.236405,2.8402934,0.44452363,0.26837948,-0.40117934
20231225 10:23:03,1.681038,-4.080249,0.016239,0.470037,0.315325,0.327440,-20.316143,-8.913277,-7.663330,96.119545,0.9604133,-4.334827,2.826731,0.6033165,0.22548193,-0.52565455
20231225 10:23:03,1.680452,-4.215754,-0.928813,0.635166,0.330240,0.224101,-20.140064,-9.088707,-7.650116,92.26946,0.27055618,-4.614866,2.7864466,0.7102608,0.16717067,-0.61660343
20231225 10:23:03,1.670850,-4.140438,-1.936942,0.724655,0.330240,0.135677,-19.704563,-9.030075,-9.793152,77.78556,-0.75525165,-4.7969365,1.8782253,0.7318989,0.10432053,-0.67330974
20231225 10:23:03,1.473391,-3.921253,-2.755430,0.731047,0.290822,0.057907,-20.591061,-5.980240,-10.268982,60.170948,-1.8930513,-4.797097,0.37294567,0.6338499,0.076201916,-0.67803746
20231225 10:23:03,1.103812,-3.849709,-3.522277,0.662865,0.205594,-0.001753,-20.140179,-7.187294,-8.979965,58.92918,-3.2465565,-4.917057,-0.05148989,0.44574475,0.03976673,-0.6439916
20231225 10:23:03,0.738331,-3.585902,-4.164288,0.520108,0.108647,-0.044367,-20.286190,-9.265800,-9.515594,59.810616,-4.221784,-4.6394615,-0.22701597,0.21755573,0.023983829,-0.5188364
20231225 10:23:03,0.200559,-3.179015,-4.486207,0.343260,0.027681,-0.057151,-20.261318,-7.017410,-8.188446,73.28395,-4.2435403,-3.3711863,0.44582242,0.07177217,0.01951456,-0.33563948
20231225 10:23:03,-0.234492,-2.905387,-4.361386,0.179197,-0.004280,-0.040105,-20.476475,-9.297882,-8.041733,87.13382,-3.6983798,-2.3575296,1.2897156,0.035877317,0.010268377,-0.1632872
20231225 10:23:03,-0.439967,-2.730265,-3.885317,0.052420,-0.049024,-0.019864,-20.485439,-9.392899,-8.035614,90.04061,-3.2511897,-2.2354608,1.673492,0.013563309,-0.042406917,-0.023202037
20231225 10:23:03,-0.441419,-2.660899,-3.457213,-0.016828,-0.079919,-0.001753,-20.652164,-9.314346,-7.774445,90.32385,-2.9163544,-2.3088639,1.722809,-0.0016171448,-0.080169655,0.054546624
20231225 10:23:03,-0.409559,-2.743141,-3.171153,-0.078618,-0.090573,0.011031,-20.696606,-9.981323,-7.463409,92.26166,-2.6666708,-2.5745983,1.9872804,-0.03124848,-0.09409794,0.11616592
20231225 10:23:03,-0.234055,-2.878784,-2.591554,-0.124428,-0.150232,0.011031,-20.389896,-6.812576,-10.346634,79.58351,-2.1605697,-2.8758366,1.6655846,-0.06934805,-0.15036866,0.1908661
20231225 10:23:03,-0.077637,-2.717555,-2.255440,-0.161715,-0.258898,-0.000687,-20.414600,-6.347557,-9.975311,78.65881,-1.8417625,-2.7357464,1.4361502,-0.102836035,-0.25782284,0.28407776
20231225 10:23:03,-0.099992,-2.233590,-2.365603,-0.237355,-0.383544,-0.009210,-20.533337,-8.332893,-10.248810,77.782036,-2.0756505,-2.2680151,0.9958608,-0.14218163,-0.38130665,0.40158182
20231225 10:23:03,-0.119241,-1.403757,-2.744523,-0.348151,-0.447464,-0.023060,-20.926701,-6.573196,-10.099640,73.93172,-2.4981616,-1.4097233,0.3756099,-0.18077004,-0.44711584,0.5033693
20231225 10:23:03,-0.235481,-0.520864,-2.882343,-0.471731,-0.429354,-0.059282,-20.819767,-6.950592,-9.404083,77.60102,-2.687391,-0.39763278,0.16719896,-0.23334965,-0.43590465,0.59908324
20231225 10:23:03,-0.518025,0.560802,-2.598150,-0.564416,-0.337734,-0.120006,-20.690327,-8.543083,-9.432831,83.40713,-2.6133635,0.81617975,0.100817874,-0.31252083,-0.3515538,0.64786583
20231225 10:23:03,-0.941541,1.637621,-1.727769,-0.611292,-0.214153,-0.198842,-20.935665,-6.668213,-10.093536,84.54313,-2.1933289,1.7934668,-0.071851976,-0.44044727,-0.23368236,0.6272019
20231225 10:23:03,-1.423136,2.200049,-0.360244,-0.608096,-0.165147,-0.258502,-20.512180,-6.067032,-10.396515,87.0277,-1.4980475,2.0332353,-0.111374296,-0.5269176,-0.19134006,0.5844984
20231225 10:23:03,-1.869957,2.322386,0.866805,-0.524999,-0.156624,-0.235064,-21.102772,-6.397766,-10.112854,90.38696,-0.9496463,1.8486502,-0.061884586,-0.48608813,-0.18765278,0.50402415
20231225 10:23:03,-1.935994,2.129918,1.931137,-0.365196,-0.153428,-0.123203,-20.916462,-8.955246,-7.934494,98.170296,-0.23460627,1.6321146,-0.25889218,-0.32194084,-0.17927521,0.38051924
20231225 10:23:03,-1.370679,1.716497,2.575541,-0.144669,-0.194977,-0.001753,-21.323170,-8.790733,-8.485168,94.20105,0.7082621,1.4877554,-0.4092409,-0.0941198,-0.20259103,0.24038762
20231225 10:23:03,-0.471294,1.287631,2.311925,0.071596,-0.265290,0.034469,-20.960255,-8.104607,-8.392365,88.53508,1.3310199,1.3194277,-0.52601963,0.07174051,-0.26567042,0.13570932
20231225 10:23:03,0.225034,1.286825,1.451924,0.222876,-0.300446,-0.026256,-21.242367,-9.836975,-7.210327,88.89568,1.3267903,1.359021,-0.9861329,0.10612713,-0.31253102,0.024190508
20231225 10:23:03,0.297302,1.934639,0.663837,0.302777,-0.289793,-0.131725,-21.587742,-10.141167,-7.595825,86.749405,0.7809914,1.9486803,-1.3226701,0.054229356,-0.30126807,-0.08844268
20231225 10:23:03,-0.319697,2.903944,-0.019518,0.318757,-0.216284,-0.189254,-21.780979,-10.539551,-7.035843,90.89681,-0.33606166,2.8890357,-1.1655157,0.006466478,-0.19532521,-0.16764925
20231225 10:23:03,-0.967131,3.758585,-0.242438,0.266555,-0.096965,-0.177535,-21.384388,-10.223419,-7.320480,94.292595,-1.1915895,3.6719003,-1.0162259,-0.006621197,-0.051616915,-0.17653848
20231225 10:23:03,-1.416268,4.325542,0.491822,0.225007,-0.050090,-0.143444,-21.578007,-10.429924,-7.040985,97.46629,-1.0053751,4.040424,-1.0847254,0.006167501,-0.0053612404,-0.1554491
20231225 10:23:03,-1.704504,4.627196,1.229658,0.272947,-0.041567,-0.128529,-21.629993,-10.058067,-6.931808,98.83116,-0.7113693,4.136463,-1.1991184,0.052212775,0.011178309,-0.19434696
20231225 10:23:03,-1.969398,4.615151,1.550544,0.424227,0.020223,-0.171143,-21.738338,-10.814529,-7.419388,101.14273,-0.79420185,3.8897114,-1.0725247,0.0960432,0.11253904,-0.34403
20231225 10:23:03,-2.509381,4.914993,1.806927,0.635166,0.122497,-0.229737,-21.603100,-9.773010,-6.950150,103.84373,-1.254479,3.7613003,-0.82992357,0.1425066,0.28697443,-0.56235015
20231225 10:23:03,-3.131760,5.514873,1.826854,0.768334,0.183222,-0.210561,-21.823620,-10.264565,-6.652298,107.475945,-1.9845314,3.9219217,-0.4928717,0.19211264,0.38979566,-0.7072999
20231225 10:23:03,-3.373790,6.316188,1.858674,0.694825,0.159784,-0.035844,-21.577625,-10.621811,-6.760513,106.073654,-2.1399732,4.773135,-0.58724576,0.28945667,0.28630078,-0.6666934
20231225 10:23:03,-2.511006,6.251783,2.365869,0.380547,-0.023456,0.226232,-22.071796,-10.657410,-6.897079,98.50216,-0.3475958,5.608301,-1.6219667,0.40237534,-0.01841663,-0.31969488
20231225 10:23:03,-0.466741,4.720092,3.357007,-0.005109,-0.283401,0.446759,-21.948475,-10.077209,-7.335632,89.58828,2.4876819,4.948036,-2.7847102,0.30967975,-0.2528972,0.19498919
20231225 10:23:03,1.908618,2.263570,4.411548,-0.260792,-0.395262,0.553294,-22.211620,-10.293785,-6.654251,92.11479,4.4489565,2.4857638,-3.085143,0.04660523,-0.23213255,0.45610866
20231225 10:23:03,3.792094,-0.228165,5.483427,-0.348151,-0.398458,0.513876,-22.300236,-9.918243,-7.081573,97.980774,5.597788,-0.5889882,-2.128553,-0.16868155,-0.17610484,0.44234496
20231225 10:23:03,4.859429,-2.566530,6.300038,-0.309798,-0.354779,0.354073,-21.981762,-9.899101,-6.677734,107.27169,6.000328,-3.497953,-0.77487767,-0.24541384,-0.17665844,0.30967027
20231225 10:23:03,5.084085,-4.435022,7.191993,-0.131885,-0.347322,0.164441,-22.212009,-10.101898,-6.934738,112.87656,5.8239613,-5.559581,0.45279312,-0.12663767,-0.26292756,0.27400634
20231225 10:23:03,5.149851,-5.789445,7.450491,0.183458,-0.404851,-0.029452,-22.838192,-9.103195,-7.676025,112.400116,5.590477,-7.0336695,1.978096,0.16375951,-0.44513205,0.3649287
20231225 10:23:03,5.214727,-6.261247,6.261807,0.571245,-0.413373,-0.215888,-22.527142,-9.946632,-6.144180,114.97601,5.499929,-7.5978374,2.4153538,0.52423155,-0.63489825,0.39747253
20231225 10:23:03,5.228251,-5.800547,4.063332,0.896176,-0.328146,-0.424696,-22.731266,-9.480598,-6.980453,108.323105,5.20186,-7.126195,2.9440806,0.75320905,-0.781798,0.23194483
20231225 10:23:03,4.549420,-4.414716,1.635754,1.011233,-0.237591,-0.647354,-22.369770,-9.928322,-6.679688,90.26722,3.4829879,-5.435919,1.6457126,0.5577347,-0.849484,-0.2803342
20231225 10:23:03,2.945160,-2.110899,-0.456110,0.906829,-0.165147,-0.790110,-22.669163,-10.333084,-6.254333,70.61648,0.7294829,-2.8555925,-1.2058139,-0.06313789,-0.676154,-0.7826935
20231225 10:23:03,0.935027,0.416652,-1.970970,0.623447,-0.133187,-0.809287,-22.696438,-10.426262,-6.516464,81.1315,-1.5029354,0.3133874,-1.1253427,-0.5474129,-0.17918271,-0.582259
20231225 10:23:03,-1.311203,2.769691,-2.890782,0.149367,-0.178997,-0.697425,-22.438534,-10.322174,-5.716873,116.05871,-4.1604824,3.6258562,0.89210904,-0.40941945,0.2529769,-0.0044728816
20231225 10:23:03,-3.200932,3.965236,-2.992569,-0.451490,-0.317492,-0.490748,-22.810146,-9.393799,-6.852936,125.7922,-5.789855,3.827157,2.4019985,-0.26372918,-0.008004218,0.624764
20231225 10:23:03,-4.407329,3.925328,-2.201450,-0.999078,-0.494340,-0.243587,-22.422138,-9.364578,-6.850983,123.54077,-5.8850646,2.716879,2.9084635,-0.32437816,-0.535012,1.1388061
20231225 10:23:03,-4.370080,3.005609,-0.990932,-1.181253,-0.531627,-0.117876,-22.799381,-8.356819,-6.786545,113.599556,-4.479933,1.6654551,2.2794466,-0.5144624,-0.75300455,1.2768451
20231225 10:23:03,-3.515323,1.786687,0.423874,-1.248370,-0.377152,0.170834,-22.899525,-8.634483,-7.841187,104.58121,-2.5207992,0.7366745,1.3884925,-0.6166206,-0.69084716,1.143902
20231225 10:23:03,-2.679123,0.298544,1.625819,-0.980968,-0.184324,0.260323,-22.721653,-7.867943,-7.755493,100.860954,-1.094616,-0.42551303,1.2503122,-0.56567925,-0.39206958,0.72822046
20231225 10:23:03,-1.987502,-1.122277,2.202394,-0.608096,-0.045828,0.298675,-22.925770,-7.401909,-8.591766,97.60047,-0.3421061,-1.516327,1.791343,-0.33556587,-0.13985288,0.34461832
20231225 10:23:03,-1.165148,-2.233149,1.880927,-0.224570,0.045792,0.301871,-22.828190,-7.682434,-8.170578,96.890045,0.052231967,-2.3232157,2.3065028,-0.033505365,0.029402722,0.04866239
20231225 10:23:03,-0.274081,-3.016160,0.804229,0.113145,0.125693,0.256061,-23.082760,-7.612106,-7.775787,92.7826,0.09378341,-2.9584186,2.6262527,0.24091488,0.12887363,-0.17756319
20231225 10:23:03,0.287320,-3.397188,-0.733731,0.366698,0.231162,0.172964,-23.384342,-8.766945,-7.703400,89.19589,-0.5830102,-3.4634879,2.4796681,0.41792318,0.19683115,-0.4067561
20231225 10:23:03,0.647926,-3.653022,-2.162994,0.486017,0.325978,0.085606,-23.224781,-7.998558,-7.885941,75.990295,-1.8309706,-4.0895677,1.631004,0.46731517,0.2269436,-0.55498457
20231225 10:23:03,0.761229,-3.658011,-3.326800,0.472167,0.377115,-0.002818,-23.462185,-7.354408,-8.064316,60.745388,-3.2957606,-4.6589227,0.28283852,0.40289724,0.2223775,-0.57627505
20231225 10:23:03,0.816262,-3.629404,-4.235050,0.349652,0.400553,-0.074197,-23.330936,-8.004936,-8.020538,48.970806,-4.564066,-5.2765665,-0.7486487,0.2898245,0.22191972,-0.46978953
20231225 10:23:03,0.633307,-3.524901,-4.759847,0.150432,0.406945,-0.121072,-23.172024,-8.754181,-7.434174,48.799084,-5.2132473,-5.443507,-0.7698841,0.16099188,0.25620526,-0.28650454
20231225 10:23:03,0.472941,-3.467374,-4.727716,-0.076487,0.377115,-0.145575,-23.447102,-9.432083,-7.660614,61.350384,-4.989994,-4.85723,-0.12127459,-0.031356476,0.31526276,-0.090956666
20231225 10:23:03,0.208983,-3.386452,-4.346681,-0.282099,0.313194,-0.141313,-23.658649,-9.828621,-7.368881,76.23811,-4.2144094,-3.9847364,0.8390398,-0.20721379,0.30943462,0.097699925
20231225 10:23:03,0.029249,-3.315031,-3.897244,-0.433379,0.254600,-0.109353,-23.571957,-9.244720,-8.343933,79.442986,-3.5680199,-3.6279492,1.3069718,-0.29814,0.2665399,0.22780909
20231225 10:23:03,0.041929,-3.266122,-3.411142,-0.538848,0.193875,-0.060347,-23.783123,-9.833153,-7.771744,84.89308,-2.9282546,-3.5220942,1.7591438,-0.35982293,0.22073767,0.30731615
20231225 10:23:03,0.259547,-3.409288,-2.909346,-0.616618,0.113974,-0.011341,-23.792850,-9.544395,-8.326569,83.18976,-2.3526962,-3.786932,1.9226696,-0.41989502,0.1934896,0.36456046
20231225 10:23:03,0.877231,-3.542370,-2.246377,-0.673082,0.026615,-0.000687,-24.047810,-9.282166,-8.212250,83.00031,-1.3699043,-4.020504,1.9552397,-0.51632214,0.18748109,0.40543494
20231225 10:23:03,1.573793,-3.404054,-1.609608,-0.685866,-0.054351,-0.030517,-24.012981,-10.227837,-7.748260,85.77765,-0.38549072,-3.9891129,1.6934624,-0.57981527,0.14925474,0.45039606
20231225 10:23:03,2.044463,-3.144063,-1.105383,-0.647514,-0.093769,-0.088046,-24.296368,-9.483116,-8.737488,82.601265,0.36691946,-3.805589,1.2599784,-0.5978438,0.106139764,0.43896636
20231225 10:23:03,2.313305,-2.686923,-0.727400,-0.555894,-0.085246,-0.161555,-24.401760,-9.873283,-8.311157,82.12336,0.79001105,-3.3739762,0.6401154,-0.55280584,0.059327573,0.38594338
20231225 10:23:03,2.284841,-2.036827,-0.512403,-0.431248,-0.014933,-0.228672,-24.145000,-9.193535,-8.352966,79.80299,0.97839206,-2.6518528,0.0076599717,-0.47125614,0.052870434,0.25626376
20231225 10:23:03,2.031469,-1.286548,-0.209931,-0.300210,0.052184,-0.277678,-24.666065,-9.514191,-8.471207,80.10679,1.0832238,-1.7203647,-0.48456177,-0.38919926,0.05890237,0.13221103
20231225 10:23:03,1.649531,-0.393962,-0.025224,-0.151061,0.108647,-0.306442,-24.101597,-9.852287,-8.175568,82.14869,1.0434849,-0.63593936,-0.94266987,-0.30416298,0.07932719,0.008541543
20231225 10:23:03,1.082613,0.558259,0.117121,0.000218,0.135281,-0.318161,-24.101597,-9.852287,-8.175568,83.78973,0.84284425,0.46860415,-1.1785091,-0.22716641,0.09991719,-0.10846476
20231225 10:23:03,0.602326,1.448081,0.073835,0.138713,0.119301,-0.318161,-24.235416,-9.759949,-8.852768,83.099075,0.490568,1.4249147,-1.3209004,-0.17092589,0.09586847,-0.20395471
20231225 10:23:03,0.193305,2.380145,-0.302154,0.212222,0.094798,-0.290462,-23.935253,-9.738960,-8.717194,82.72705,-0.098976254,2.3686414,-1.4061431,-0.13638818,0.084278405,-0.24928641
20231225 10:23:03,0.051522,3.110629,-0.709215,0.196242,0.073491,-0.244652,-24.580410,-10.256035,-8.957809,82.34776,-0.54486287,3.0980313,-1.5820183,-0.11796389,0.0677076,-0.22274654
20231225 10:23:03,0.170597,3.502160,-0.795012,0.115276,0.048988,-0.205234,-24.598339,-10.446075,-8.945572,79.72048,-0.41578436,3.4433603,-1.8474513,-0.123070404,0.03344028,-0.14168824
20231225 10:23:03,0.542171,3.430130,-0.542721,0.013002,0.089471,-0.202038,-24.499722,-9.400864,-9.012833,77.16734,0.16991106,3.3166466,-2.2569134,-0.1557806,0.06738552,-0.07948671
20231225 10:23:03,0.940933,3.204150,0.295230,-0.026416,0.174699,-0.253175,-24.465275,-10.154640,-8.829300,80.60966,1.1408752,3.1320791,-2.5887313,-0.19942018,0.14738502,-0.10399844
20231225 10:23:03,1.035802,2.819566,1.352249,0.038571,0.264188,-0.343730,-24.387165,-9.857651,-9.517761,82.79583,1.9332813,2.8426678,-2.4863923,-0.21387665,0.23078683,-0.22632878
20231225 10:23:03,0.808728,2.415984,1.937521,0.188785,0.350481,-0.461983,-24.484745,-9.577126,-9.938965,85.61466,2.0627656,2.4539828,-2.1089547,-0.2068888,0.32917562,-0.39709014
20231225 10:23:03,0.084738,2.445374,2.095889,0.381613,0.427186,-0.572779,-24.493710,-9.672142,-9.932846,89.88631,1.524616,2.3364437,-1.6437181,-0.21081464,0.47203812,-0.5680844
20231225 10:23:03,-1.066957,2.916719,1.659097,0.571245,0.535852,-0.627112,-24.590519,-9.775383,-9.793106,97.42414,0.03202939,2.3156903,-1.0400319,-0.24344501,0.7344947,-0.72732615
20231225 10:23:03,-2.591304,3.825456,1.191860,0.703348,0.640256,-0.563191,-24.732159,-10.353745,-9.622787,105.69313,-1.936397,2.4102259,-0.16369902,-0.23995718,0.94780195,-0.8423711
20231225 10:23:03,-3.493311,4.818892,0.524212,0.701217,0.698850,-0.396997,-24.186390,-10.498100,-9.875885,110.093056,-3.6409435,2.8562489,0.5577721,-0.24530938,0.9665984,-0.8690291
20231225 10:23:03,-3.765549,5.779554,-0.053411,0.499866,0.721222,-0.139183,-24.664814,-11.093735,-10.377640,109.937004,-4.626626,3.8691459,0.6366694,-0.20006785,0.8041117,-0.74436057
20231225 10:23:03,-3.166227,5.722083,0.211024,0.139779,0.646648,0.158049,-24.037594,-10.766701,-10.124817,102.093,-3.3772407,4.561479,-0.17757362,-0.020215772,0.57028824,-0.46152937
20231225 10:23:04,-1.503018,4.245521,1.371783,-0.222440,0.523068,0.348747,-24.823338,-10.536385,-10.683548,91.858,-0.3091029,3.9494917,-1.5129594,0.077545315,0.46543282,-0.16100046
20231225 10:23:04,0.309907,2.127778,3.233882,-0.397157,0.442101,0.354073,-24.629337,-10.521774,-10.682571,92.151665,2.318344,2.1958876,-1.9459444,-0.07702093,0.46252596,-0.10582548
20231225 10:23:04,1.421068,-0.053288,5.201504,-0.351347,0.398422,0.213447,-24.550838,-10.416664,-11.090561,98.007576,3.624928,0.038097188,-1.2455325,-0.20084828,0.43090183,-0.21758074
20231225 10:23:04,1.607113,-2.107664,6.872706,-0.092467,0.379246,0.002509,-24.859966,-10.532684,-11.220032,104.230095,3.589489,-2.0665576,-0.15571344,-0.07982692,0.3841473,-0.32220072
20231225 10:23:04,1.179311,-3.792253,7.687209,0.297450,0.392030,-0.184993,-24.842426,-10.150757,-11.512726,106.53809,2.8088593,-3.783772,1.1562936,0.25145715,0.38687512,-0.38007444
20231225 10:23:04,0.569694,-4.731879,7.642419,0.670322,0.376050,-0.275547,-24.957546,-10.252144,-11.641220,107.40914,2.0330453,-4.735491,2.0773244,0.60449564,0.3788934,-0.40018475
20231225 10:23:04,0.705703,-5.126832,7.033750,0.954770,0.263123,-0.329880,-24.905178,-10.815895,-11.469940,108.69169,2.0111077,-5.1141768,2.4208078,0.87563306,0.24474834,-0.322308
20231225 10:23:04,1.002592,-4.936186,5.575445,1.126291,0.096928,-0.415108,-24.649837,-11.269997,-11.303787,107.558876,2.4258957,-4.925632,2.6481066,0.97563267,0.07453127,-0.26821387
20231225 10:23:04,0.750092,-4.069323,3.406268,1.148663,-0.028783,-0.496074,-25.056156,-11.297363,-11.573975,101.46828,2.2989566,-4.100416,2.597725,0.7937291,0.018632263,-0.41427094
20231225 10:23:04,0.057529,-2.439300,1.214767,1.000580,-0.076723,-0.519512,-24.316006,-11.619003,-11.545624,98.55523,1.1931487,-2.5481436,1.5781403,0.38501963,0.138298,-0.57813025
20231225 10:23:04,-0.993866,-0.674026,-0.536257,0.688433,-0.091638,-0.438546,-25.092022,-11.677437,-11.549530,104.129585,-0.7149999,-0.6563671,1.2628356,0.09184399,0.24266541,-0.46016753
20231225 10:23:04,-2.020679,1.110039,-1.668895,0.245248,-0.131056,-0.255306,-24.615398,-12.023773,-11.120270,114.95966,-2.7125354,1.1785948,1.6352785,0.018108308,0.118456714,-0.108363226
20231225 10:23:04,-2.848099,2.619701,-2.203984,-0.256531,-0.189650,-0.015602,-24.827328,-12.228424,-11.109009,120.76915,-4.3391914,2.279977,2.0273333,-0.0026704352,-0.20452116,0.30617896
20231225 10:23:04,-3.452104,3.553320,-2.011807,-0.717827,-0.234395,0.243277,-25.243382,-11.967033,-11.934036,118.030655,-5.1095133,2.5880618,1.9748702,-0.048651516,-0.5604162,0.67402613
20231225 10:23:04,-3.795285,3.820498,-1.129651,-1.052346,-0.258898,0.508549,-24.615788,-11.831886,-11.400742,114.74503,-4.8174376,2.2679343,1.604965,-0.09176281,-0.83038306,0.90120137
20231225 10:23:04,-3.525298,3.364686,-0.049376,-1.194037,-0.221611,0.763167,-25.108532,-10.733620,-11.745285,106.22047,-3.4585726,1.9248762,0.91159344,-0.09070933,-0.8415179,0.95827854
20231225 10:23:04,-2.570200,2.186081,1.130196,-1.127985,-0.116141,0.940015,-25.232616,-10.930046,-11.867661,100.49185,-1.4761328,1.2417984,0.28681743,-0.085373044,-0.5782287,0.78922844
20231225 10:23:04,-1.545088,0.851053,2.130412,-0.893609,0.002112,1.022047,-25.178448,-10.551819,-11.623856,97.81216,0.076286435,0.3570262,0.13871028,-0.030138016,-0.24943763,0.47174773
20231225 10:23:04,-1.112777,0.203255,2.517457,-0.735937,0.042596,1.034831,-25.806812,-10.303192,-12.718124,95.18957,0.5219347,-0.0031592548,0.28816187,-0.0112371445,-0.06196495,0.3120097
20231225 10:23:04,0.071396,-1.405207,2.648744,-0.176630,0.141673,0.973041,-25.133617,-10.076721,-11.654434,95.203926,1.4872396,-1.411294,0.93912214,0.37370506,0.1386649,-0.09846334
20231225 10:23:04,0.711118,-2.282733,1.885911,0.174935,0.217313,0.867571,-25.955608,-10.034584,-12.469177,92.32205,1.4919317,-2.2455447,1.5107746,0.6090358,0.2407391,-0.3064844
20231225 10:23:04,1.209774,-2.920094,0.870189,0.434880,0.282299,0.718423,-25.761219,-10.211876,-12.187729,90.275375,1.2551267,-2.9692724,1.8076571,0.77094465,0.28217602,-0.47478703
20231225 10:23:04,1.368512,-3.271441,-0.170517,0.609597,0.323848,0.556490,-25.698856,-9.354843,-12.511002,85.053085,0.69864005,-3.4306972,1.858854,0.8461801,0.28907925,-0.5762275
20231225 10:23:04,1.160794,-3.535491,-1.167891,0.719328,0.361135,0.413733,-26.441578,-9.591393,-13.172806,83.05794,-0.12497538,-3.7322705,1.9126979,0.8498558,0.31402534,-0.68931556
20231225 10:23:04,0.791062,-3.796974,-1.928038,0.776857,0.374984,0.307198,-25.726131,-9.448021,-12.773132,82.8221,-0.9300025,-3.939102,2.059295,0.7998196,0.3438685,-0.7715542
20231225 10:23:04,0.508287,-4.069205,-2.589648,0.763007,0.335566,0.244343,-25.841259,-9.549416,-12.901627,83.2461,-1.5709199,-4.133809,2.2653596,0.71732,0.32445192,-0.7566917
20231225 10:23:04,0.312459,-4.330954,-3.132311,0.683106,0.232228,0.218774,-26.486027,-10.258385,-12.861771,84.24082,-2.108681,-4.265253,2.3387446,0.6034384,0.23894352,-0.65681165
20231225 10:23:04,0.266468,-4.434953,-3.784015,0.541415,0.115039,0.229428,-25.683117,-9.914886,-12.876205,73.93291,-3.3182495,-4.630861,1.4422649,0.4828995,0.109670475,-0.48706037
20231225 10:23:04,0.413918,-4.479813,-4.150573,0.363502,0.074556,0.234754,-26.565670,-9.787811,-13.295197,65.09635,-4.098174,-5.0992527,0.7425196,0.3883138,0.07920753,-0.30442187
20231225 10:23:04,0.676359,-4.750453,-4.390916,0.183458,0.037269,0.223036,-25.585537,-10.195412,-12.455002,63.039185,-4.336226,-5.6935925,0.6132655,0.28770247,0.061276067,-0.119733594
20231225 10:23:04,0.812431,-4.804945,-4.127560,0.025786,-0.019195,0.186814,-26.019901,-9.932167,-13.548279,63.626987,-3.8137774,-5.6716266,0.7883228,0.15640266,0.01909611,0.037751116
20231225 10:23:04,0.771089,-4.592298,-3.785300,-0.083944,-0.074593,0.139938,-26.407520,-10.153282,-13.269760,70.62825,-3.2150621,-5.126677,1.1699382,0.05260489,-0.04571814,0.13633099
20231225 10:23:04,0.449932,-4.101492,-3.576111,-0.159584,-0.138514,0.111174,-25.816936,-9.822540,-13.553421,76.772064,-2.7598355,-4.124394,1.3746161,0.0039515123,-0.13722345,0.22150292
20231225 10:23:04,0.055944,-3.504807,-3.487667,-0.222440,-0.190716,0.109043,-26.829586,-9.620605,-13.174759,81.8559,-2.6445663,-3.13046,1.4068086,0.0046973825,-0.2128041,0.29392073
20231225 10:23:04,-0.261533,-2.659101,-3.498081,-0.320452,-0.250375,0.122893,-26.108135,-9.748512,-13.695114,86.71328,-2.5419283,-1.7808824,1.2919284,0.027761698,-0.30621144,0.39984998
20231225 10:23:04,-0.733639,-1.749357,-3.490253,-0.454686,-0.292989,0.158049,-26.593334,-9.689095,-13.837784,93.64196,-2.6066017,-0.49544716,1.4905674,0.04533045,-0.40002164,0.5311579
20231225 10:23:04,-1.145808,-0.931160,-3.263701,-0.615553,-0.349452,0.215578,-26.751095,-9.515511,-13.582764,96.57207,-2.779758,0.24341023,1.5841693,0.056763217,-0.5120191,0.69401824
20231225 10:23:04,-1.450449,0.048105,-2.947059,-0.775355,-0.389936,0.292283,-26.363468,-9.294403,-13.861267,94.82057,-3.0631137,0.8857019,1.3941382,0.0502529,-0.6032257,0.8565139
20231225 10:23:04,-1.585766,0.800212,-2.386341,-0.893609,-0.438942,0.358335,-26.936512,-9.243217,-13.870300,92.99529,-2.9609227,1.2557396,1.0991325,0.029101789,-0.6759779,0.9865146
20231225 10:23:04,-1.565543,1.280359,-1.800790,-0.955399,-0.486882,0.381772,-26.608692,-9.320946,-13.192123,91.062004,-2.598605,1.4665936,0.76401055,-0.016836911,-0.70475864,1.0681663
20231225 10:23:04,-1.532219,1.997171,-1.209702,-0.944746,-0.506059,0.361531,-27.095432,-8.493965,-14.456696,87.05169,-2.2378926,1.9991841,0.2951116,-0.055131257,-0.6975183,1.0801398
20231225 10:23:04,-1.665132,2.467309,-0.734405,-0.872302,-0.467706,0.339159,-27.059185,-8.305786,-14.200668,87.57629,-2.0279539,2.315379,0.10017102,-0.077420175,-0.64692485,0.995167
20231225 10:23:04,-1.685391,2.503938,-0.265639,-0.774290,-0.366498,0.344485,-26.899235,-7.729279,-14.102737,85.05589,-1.5859058,2.3033683,-0.0335622,-0.098391384,-0.5051367,0.8618696
20231225 10:23:04,-1.249930,2.321788,0.444076,-0.662428,-0.242918,0.351943,-27.217327,-7.940315,-14.226089,82.015015,-0.614611,2.1981845,-0.41825977,-0.12044084,-0.31018242,0.6983497
20231225 10:23:04,-0.724679,2.032961,1.466300,-0.547371,-0.180062,0.334897,-27.041637,-7.923851,-14.493378,80.79465,0.51976734,1.9823842,-0.6915258,-0.12887867,-0.19960925,0.55659527
20231225 10:23:04,-0.282830,1.615511,2.465806,-0.423790,-0.225872,0.309329,-27.218098,-7.556534,-14.787033,79.900505,1.4722565,1.6618164,-0.66854185,-0.11035472,-0.2127028,0.48950696
20231225 10:23:04,0.203179,1.097929,3.017962,-0.293818,-0.341995,0.273107,-27.729809,-7.974060,-14.630905,80.2217,2.1263447,1.2381648,-0.56867987,-0.071463674,-0.30815163,0.48274535
20231225 10:23:04,0.704111,1.010576,3.172341,-0.151061,-0.482621,0.216644,-27.305943,-7.564758,-14.653412,76.80276,2.6577013,1.1965959,-0.6537937,-0.015994444,-0.4459453,0.4935633
20231225 10:23:04,1.039406,1.372531,2.541402,-0.005109,-0.527366,0.143135,-27.781796,-7.602203,-14.521729,71.23219,2.6791866,1.546171,-1.0747764,0.025813304,-0.4984064,0.39016756
20231225 10:23:04,1.317242,2.054138,1.601898,0.105688,-0.420831,0.020619,-27.447956,-7.951218,-14.763565,66.35065,2.377526,2.0888355,-1.8053572,0.015444787,-0.42236108,0.17160428
20231225 10:23:04,0.972827,3.178148,1.231382,0.211157,-0.214153,-0.166882,-27.394169,-7.381104,-14.800232,68.19746,1.8664277,3.2059886,-2.2532372,-0.030412033,-0.24343055,-0.090294786
20231225 10:23:04,-0.212805,4.439024,1.447426,0.356044,0.015962,-0.352252,-27.554127,-7.957596,-14.898178,77.84699,0.80597913,4.330821,-2.0911148,-0.091511786,0.051862568,-0.34495938
20231225 10:23:04,-1.886593,5.360923,1.768463,0.517977,0.239685,-0.451330,-27.430027,-7.761177,-14.775787,86.651306,-0.75717545,4.561552,-1.4116774,-0.1169083,0.39801854,-0.57742476
20231225 10:23:04,-3.386890,6.121749,2.542018,0.670322,0.367527,-0.410847,-27.874783,-8.726814,-15.654968,92.73422,-1.8808557,4.25756,-1.0082519,-0.012946248,0.6048658,-0.7451811
20231225 10:23:04,-4.386279,6.475012,3.164096,0.775792,0.305737,-0.228672,-27.370884,-8.979973,-14.963593,95.744125,-2.389137,3.905433,-0.6310593,0.20947129,0.53879964,-0.786848
20231225 10:23:04,-4.231441,6.288143,3.057230,0.750223,0.097994,0.029142,-27.169834,-7.910904,-16.371078,90.055664,-1.9743493,4.1320868,-0.28671488,0.4360363,0.23934108,-0.6639759
20231225 10:23:04,-3.019990,5.655001,2.340069,0.591486,-0.100161,0.269911,-27.511478,-8.232574,-15.281723,84.250305,-0.7694113,4.774388,-0.5133002,0.5670084,-0.07562357,-0.41939196
20231225 10:23:04,-1.009785,4.608022,1.669633,0.363502,-0.175801,0.424386,-26.914112,-8.556900,-15.924454,70.54611,0.9743316,4.6991997,-1.3466594,0.5485455,-0.16866286,-0.121538155
20231225 10:23:04,1.000008,3.278268,1.724627,0.117406,-0.127860,0.444628,-27.664120,-6.045090,-17.837494,57.92812,2.5151477,3.337639,-1.9758623,0.3796642,-0.06185764,0.13710834
20231225 10:23:04,2.333215,1.687209,2.710728,-0.054115,-0.003214,0.376446,-26.471935,-8.149452,-15.678696,67.6886,3.768677,1.5745767,-1.8876262,0.1837252,0.0840766,0.14722764
20231225 10:23:04,3.056526,-0.123286,4.006252,-0.078618,0.180026,0.257127,-27.354488,-8.022385,-16.097687,77.99842,4.489715,-0.35424066,-0.63296944,0.07559492,0.2314271,-0.06973818
20231225 10:23:04,3.256728,-2.138320,5.233917,0.030048,0.346220,0.122893,-27.638531,-8.795296,-16.318008,91.196014,4.5457144,-2.4240882,0.8242055,0.10031161,0.33576557,-0.33871648
20231225 10:23:04,3.080656,-3.667355,6.491987,0.238856,0.361135,0.023816,-26.898754,-8.925049,-16.570129,98.889725,4.239867,-3.9243045,1.8374288,0.25844046,0.29349002,-0.40590927
20231225 10:23:04,3.071761,-4.748674,6.884470,0.509454,0.191744,-0.013472,-27.886318,-9.380020,-16.282303,103.056946,3.9502048,-5.0676947,2.4896116,0.5085715,0.04636522,-0.26953682
20231225 10:23:04,3.594928,-5.457221,5.759980,0.747027,-0.066070,-0.034779,-26.746738,-7.117828,-16.954514,98.281456,4.1013045,-6.0234847,3.9008458,0.7268167,-0.3375863,-0.056269404
20231225 10:23:04,4.506867,-5.465234,3.393752,0.885522,-0.242918,-0.092307,-27.392536,-9.152534,-16.426208,99.07719,4.3536096,-6.542003,3.682338,0.81265,-0.684465,0.041920513
20231225 10:23:04,5.420714,-4.838778,0.848583,0.861019,-0.311100,-0.246783,-27.285992,-9.338051,-16.011124,68.85956,3.936484,-6.7423587,2.41433,0.6480175,-0.8540916,-0.13900836
20231225 10:23:04,5.494272,-3.535687,-1.333888,0.658603,-0.301512,-0.474767,-26.793629,-10.244415,-15.947067,15.11019,2.307351,-6.31178,-3.5203915,0.22707021,-0.8352845,-0.6939622
20231225 10:23:04,4.576357,-1.855978,-2.787989,0.328345,-0.219480,-0.703817,-27.339008,-10.291939,-15.413513,9.7958145,0.3350072,-5.1612167,-5.1065874,-0.26128417,-0.7453684,-0.6615594
20231225 10:23:04,2.920780,-0.089962,-3.137680,-0.082879,-0.132121,-0.880665,-26.969975,-11.778503,-14.910889,34.426727,-1.146664,-2.3932035,-3.7207885,-0.75940496,-0.542176,-0.20112325
20231225 10:23:04,0.779246,1.539405,-2.345662,-0.516476,-0.105488,-0.958435,-26.433552,-11.825996,-15.438324,70.27787,-1.7988772,1.513685,-1.6359248,-1.0871723,-0.112356916,0.37759846
20231225 10:23:04,-1.209414,2.495535,-0.861732,-0.898936,-0.169409,-0.928606,-26.654064,-12.317558,-15.140503,90.89115,-1.9316156,2.4226062,-0.2848056,-1.1921885,-0.075486094,0.86030614
20231225 10:23:04,-2.822928,2.444635,0.703780,-1.161011,-0.302577,-0.811417,-26.663799,-12.028801,-15.695328,99.02265,-2.0839744,1.3144507,0.48104578,-1.2344668,-0.33587635,1.1565739
20231225 10:23:04,-3.997448,1.796684,2.185649,-1.166338,-0.352649,-0.579172,-27.387829,-12.459084,-15.808411,102.80068,-2.1678448,-0.15593147,0.9530703,-1.1321988,-0.52291095,1.1238782
20231225 10:23:04,-4.240812,0.765130,3.371034,-0.882955,-0.278074,-0.285135,-26.372601,-12.102821,-15.553635,102.83762,-1.8105879,-1.1887108,1.2152098,-0.81953084,-0.45695582,0.7813397
20231225 10:23:04,-3.398629,-0.446758,3.701591,-0.430183,-0.203500,-0.035844,-26.436893,-12.000404,-16.632721,99.4863,-0.88448644,-1.6263511,1.6802363,-0.3548438,-0.2817786,0.40514997
20231225 10:23:04,-1.767169,-1.634993,2.464246,0.019394,-0.128925,0.071756,-26.909405,-11.863441,-15.306656,96.558655,-0.051956892,-1.9332607,2.0883887,0.06275104,-0.13064212,0.09001088
20231225 10:23:04,-0.402762,-2.749528,0.427310,0.341129,-0.024521,0.047253,-26.602848,-12.305626,-15.810623,90.04521,-0.14224973,-2.7231066,2.4609742,0.30314174,-0.034839846,-0.18068157
20231225 10:23:04,0.540626,-3.356327,-1.428198,0.516912,0.078817,-0.052890,-26.911983,-12.421631,-15.940109,76.99766,-1.0375715,-3.577946,1.8383772,0.3631745,-0.02003033,-0.41061044
20231225 10:23:04,1.058861,-3.688605,-2.919610,0.552068,0.162980,-0.180731,-26.075016,-12.640022,-16.051483,56.987904,-2.4829712,-4.5640144,0.18030715,0.28806642,-0.059973605,-0.57154095
20231225 10:23:04,1.265586,-3.793070,-4.019676,0.467906,0.237554,-0.311769,-26.984081,-12.989906,-16.171661,38.69778,-3.9140017,-5.4091806,-1.4788088,0.14240468,-0.08551705,-0.6051326
20231225 10:23:04,1.225910,-3.736490,-4.375148,0.308104,0.291887,-0.410847,-26.834522,-13.642273,-15.859650,37.487427,-4.574348,-5.53079,-1.6268432,-0.040579826,-0.01762265,-0.4976976
20231225 10:23:04,0.766837,-3.381557,-4.646880,0.113145,0.327044,-0.468375,-26.076817,-13.581985,-16.123978,53.720062,-4.617839,-4.499634,-0.7103143,-0.28388634,0.18487021,-0.32312295
20231225 10:23:04,0.250182,-3.167006,-4.190292,-0.062637,0.332370,-0.479029,-26.676754,-13.815857,-16.114685,75.54185,-3.4922473,-3.0753624,0.7471421,-0.45745075,0.34160602,-0.15623286
20231225 10:23:04,-0.217721,-2.794174,-3.572496,-0.173434,0.313194,-0.441742,-25.797153,-14.309227,-16.609619,84.030495,-2.7315643,-2.2710679,1.4350293,-0.5065981,0.35633478,-0.037149508
20231225 10:23:04,-0.507581,-2.418668,-3.190172,-0.225636,0.301475,-0.371429,-26.342915,-14.164864,-16.356537,89.989075,-2.3572664,-1.7418814,1.7456449,-0.48769742,0.33893096,0.024360022
20231225 10:23:04,-0.853202,-2.096162,-2.878820,-0.245877,0.283364,-0.285135,-25.833393,-14.497414,-16.865631,92.24385,-2.234668,-1.4282491,1.9407666,-0.43334424,0.30004233,0.05198073
20231225 10:23:04,-0.900206,-1.780646,-2.674480,-0.260792,0.254600,-0.182862,-25.578831,-14.567749,-17.260422,89.878075,-2.2521417,-1.2643826,1.7383646,-0.34776407,0.24712147,0.073795676
20231225 10:23:04,-0.610322,-1.505238,-2.441156,-0.316190,0.172568,-0.097634,-26.388134,-14.448074,-16.606445,85.694016,-2.1514113,-1.2379318,1.2470019,-0.27933815,0.156005,0.15998808
20231225 10:23:04,-0.046041,-1.264608,-2.141822,-0.402484,0.063903,-0.041171,-25.339611,-14.269928,-17.009552,77.21459,-1.7816106,-1.2612853,0.47184968,-0.2639801,0.063525826,0.289386
20231225 10:23:04,0.576319,-1.067251,-1.851824,-0.466404,0.001047,-0.020929,-25.800106,-14.675529,-17.523544,71.37597,-1.2033073,-1.346212,-0.18818039,-0.30709597,0.04560738,0.35962382
20231225 10:23:04,1.099602,-0.926502,-1.368139,-0.481319,-0.010672,-0.023060,-25.772831,-14.582359,-17.261398,71.692764,-0.4576164,-1.2356955,-0.5549102,-0.32767874,0.043461457,0.37107357
20231225 10:23:04,1.459559,-0.652307,-0.751402,-0.423790,0.019158,-0.047563,-25.536953,-14.458946,-18.204926,70.687126,0.34012747,-0.9647414,-0.82985926,-0.31717107,0.072048895,0.29004562
20231225 10:23:04,1.657846,-0.488402,-0.214491,-0.318321,0.046857,-0.092307,-26.435253,-13.771835,-18.258713,72.14637,0.9336013,-0.74890083,-0.90955555,-0.2798015,0.07809848,0.17724732
20231225 10:23:04,1.609558,-0.334308,0.157288,-0.188349,0.060707,-0.138117,-25.077618,-13.477684,-18.532333,71.52297,1.1914467,-0.5259364,-0.8911537,-0.22018307,0.06606373,0.06334894
20231225 10:23:04,1.574924,0.021155,0.301349,-0.044527,0.064968,-0.177535,-25.588940,-14.087105,-18.095734,73.03703,1.2902346,-0.124859944,-1.1099615,-0.15042238,0.046820626,-0.044704966
20231225 10:23:04,1.471481,0.166364,0.242041,0.026852,0.068164,-0.190319,-25.580746,-13.608307,-18.662781,71.89722,1.1609536,0.06633349,-1.1663837,-0.11858452,0.047209907,-0.10144689
20231225 10:23:04,1.031142,0.434540,-0.173693,0.160020,0.071360,-0.206300,-25.248707,-14.899277,-18.977112,72.53338,0.5340329,0.36312225,-1.0984046,-0.057014957,0.04761821,-0.20614585
20231225 10:23:04,0.763660,0.592849,-0.611977,0.304908,0.062837,-0.209496,-25.909603,-14.856316,-18.852539,72.10863,-0.023283541,0.5336462,-1.0586401,0.010281965,0.04127824,-0.32026774
20231225 10:23:04,0.687693,0.748405,-0.936078,0.345391,0.042596,-0.210561,-25.114506,-15.183517,-18.019440,72.4596,-0.37142903,0.692028,-1.1225382,0.016509384,0.025029156,-0.3455723
20231225 10:23:05,0.579389,1.136032,-1.151982,0.352848,0.007439,-0.210561,-25.547726,-15.495934,-18.271301,71.58904,-0.66666377,1.1014597,-1.2358015,3.8295984E-6,-0.0021682838,-0.34075975
20231225 10:23:05,0.512472,1.355681,-1.245233,0.346456,-0.014933,-0.200973,-25.089413,-15.840408,-18.110291,71.41013,-0.86282754,1.3606389,-1.2426803,-0.014559969,-0.01367213,-0.32928056
20231225 10:23:05,0.368325,1.737938,-1.552242,0.289993,-0.055416,-0.164751,-25.125660,-16.028603,-18.366302,67.63338,-1.1886972,1.6928899,-1.2943872,-0.022337854,-0.06323304,-0.26567042
20231225 10:23:05,0.664911,2.392661,-1.747359,0.112080,-0.115076,-0.122137,-25.865047,-16.090744,-17.833725,65.711845,-1.1394286,2.2491648,-1.8272645,-0.070743844,-0.12637867,-0.07851383
20231225 10:23:05,0.815421,2.855702,-1.568110,-0.028546,-0.118272,-0.134921,-24.755581,-16.189423,-18.352112,63.473274,-0.82455736,2.685614,-2.142811,-0.14308187,-0.12760657,0.045440298
20231225 10:23:05,0.752723,3.182741,-1.040522,-0.134016,-0.051155,-0.173274,-25.240406,-16.321892,-18.214325,70.70748,-0.49646983,3.1550598,-2.2574558,-0.21712086,-0.053016398,0.113538325
20231225 10:23:05,0.301253,3.483718,0.072311,-0.164911,0.041530,-0.208430,-24.826267,-15.623840,-18.791656,76.71477,0.039268203,3.4832168,-2.0655987,-0.26622558,0.04689588,0.09170857
20231225 10:23:05,-0.022580,3.599865,0.616379,-0.104186,0.147000,-0.213757,-25.400730,-16.706505,-18.592728,86.4557,0.0050272346,3.4684634,-2.0631316,-0.25136557,0.16330828,-0.0091838725
20231225 10:23:05,-1.368260,3.861977,1.942309,0.066270,0.294018,-0.166882,-25.391384,-16.803368,-18.318375,93.62696,-0.19848096,3.0627763,-1.3530378,-0.15008713,0.33006433,-0.2255801
20231225 10:23:05,-2.439558,4.160854,2.222848,0.280405,0.448493,-0.053955,-24.678509,-17.218178,-18.552139,98.23628,-1.1041362,2.6411498,-0.8081788,9.088628E-4,0.4964084,-0.48945034
20231225 10:23:05,-3.250980,4.560413,2.033134,0.394397,0.517741,0.144200,-24.899784,-17.325958,-18.815247,99.9,-2.044298,2.5901556,-0.30972233,0.16396524,0.51998764,-0.63658434
20231225 10:23:05,-3.365017,4.685312,1.910363,0.328345,0.437840,0.383903,-24.951771,-16.954109,-18.706070,96.66472,-1.9763578,2.969704,-0.054947317,0.34024128,0.35559148,-0.54447436
20231225 10:23:05,-2.712917,4.517698,1.487729,0.136583,0.307867,0.582058,-24.266178,-17.462097,-19.201965,88.34065,-1.2184443,3.7390833,-0.28680298,0.48399553,0.20404468,-0.27698353
20231225 10:23:05,-0.288002,2.963402,1.166049,-0.065834,0.280168,0.661959,-24.935642,-17.706032,-18.790787,80.929054,0.7623106,2.9764483,-1.4796064,0.48014683,0.28694052,-0.055568397
20231225 10:23:05,1.319097,1.494083,2.009937,-0.229897,0.312129,0.598038,-24.644833,-17.588181,-18.929565,80.85953,2.4715393,1.5436776,-1.7531714,0.3029421,0.36907244,0.023833647
20231225 10:23:05,2.291959,-0.197945,3.751009,-0.339628,0.271645,0.452085,-24.936031,-17.514153,-19.071274,99.98848,3.7948234,-0.22068426,-1.527911,-0.051103354,0.36319235,-0.13314013
20231225 10:23:05,2.687182,-2.056117,5.511838,-0.342824,0.176829,0.267780,-25.094173,-17.148682,-19.096695,110.9095,4.263565,-2.1349142,-0.9639755,-0.22134021,0.2452329,-0.12756522
20231225 10:23:05,2.387002,-3.520860,6.739468,-0.217113,0.118235,0.091998,-24.672115,-17.681351,-19.191696,118.42011,3.795062,-3.583799,-0.6705067,-0.18607053,0.1457618,-0.09243217
20231225 10:23:05,1.879252,-4.632464,7.745937,0.020460,0.054314,-0.045432,-25.235813,-17.727028,-18.926392,120.485245,3.1022234,-4.6603737,-0.2582054,0.013198137,0.05190164,-0.02689208
20231225 10:23:05,1.377338,-5.054605,8.123348,0.334737,-0.085246,-0.167947,-24.654186,-17.491318,-19.203918,120.74571,2.6195412,-5.0468855,-0.03437662,0.30227733,-0.108108684,0.1027983
20231225 10:23:05,0.947901,-4.562999,6.980588,0.612793,-0.234395,-0.291528,-25.087017,-17.995636,-19.175308,115.870705,2.7852004,-4.547691,0.7632537,0.5099135,-0.24446914,0.15939885
20231225 10:23:05,0.204706,-3.292233,4.929277,0.775792,-0.288728,-0.385278,-25.058964,-18.286240,-18.352234,109.27196,2.4397235,-3.4232917,1.2414912,0.5379412,-0.22695212,0.019456327
20231225 10:23:05,-0.788440,-1.697439,2.725434,0.782184,-0.262094,-0.398062,-24.743061,-18.825279,-18.581848,102.94884,1.2907231,-2.149601,1.3071475,0.39719445,-0.07558252,-0.224961
20231225 10:23:05,-1.602637,-0.082097,0.830479,0.582963,-0.209892,-0.316031,-25.306759,-18.870964,-18.316528,100.46324,-0.40947008,-0.646014,1.1834253,0.20165758,0.013295673,-0.27743033
20231225 10:23:05,-2.190534,1.377746,-0.196579,0.187719,-0.249310,-0.176470,-25.033108,-19.326912,-17.882141,102.71891,-1.8812737,0.75467503,1.0937669,0.06688681,-0.109687,0.0013480298
20231225 10:23:05,-2.521704,2.192792,-0.744180,-0.283165,-0.326015,-0.002818,-24.760227,-19.399101,-18.008682,102.68275,-2.778335,1.59457,1.0547415,-0.02683123,-0.35859925,0.41044304
20231225 10:23:05,-2.463261,2.199662,-0.398239,-0.674147,-0.359041,0.169768,-25.093678,-19.241982,-17.486374,101.968994,-2.4480023,1.5753291,0.77336437,-0.15608424,-0.5407795,0.7310097
20231225 10:23:05,-1.964670,1.587015,0.542397,-0.857387,-0.334538,0.313590,-25.122486,-18.567596,-18.870392,97.35528,-1.2320055,1.0672585,0.38135198,-0.2747832,-0.5388089,0.8352313
20231225 10:23:05,-1.319925,0.762195,1.377911,-0.860583,-0.290858,0.402014,-25.782619,-18.908409,-18.184860,98.59738,-0.102662206,0.42050403,0.22282763,-0.31116602,-0.44216272,0.76037556
20231225 10:23:05,-1.048521,0.383988,1.596901,-0.811577,-0.256767,0.423321,-25.324688,-19.061005,-18.304306,99.17926,0.21001726,0.18758088,0.20059057,-0.3249563,-0.349722,0.6691253
20231225 10:23:05,-0.346989,-0.549751,1.859971,-0.498365,-0.038371,0.406275,-25.288448,-18.872810,-18.048294,100.16984,0.89039505,-0.63507205,0.38126138,-0.14152676,-0.07742183,0.28011575
20231225 10:23:05,-0.226527,-0.777285,1.882171,-0.343889,0.055380,0.377511,-25.958302,-18.924866,-17.917587,100.81949,0.98027927,-0.84861016,0.46371433,-0.048284277,0.027660469,0.107851446
20231225 10:23:05,-0.174280,-1.124782,1.839136,-0.014697,0.217313,0.299741,-25.385258,-18.976059,-17.908554,102.075874,1.0257132,-1.2315266,0.67563367,0.15657786,0.19929561,-0.21071751
20231225 10:23:05,-0.448367,-1.327941,1.383486,0.302777,0.337697,0.236885,-25.960491,-19.674942,-18.270554,102.09431,0.5906236,-1.4528701,1.0694629,0.3605255,0.345642,-0.4857391
20231225 10:23:05,-0.729765,-1.629605,-0.091356,0.659669,0.464473,0.218774,-25.279484,-18.777794,-18.054413,98.85562,-0.4045406,-1.6850766,1.6820983,0.5741799,0.5132506,-0.81103903
20231225 10:23:05,-0.719398,-1.776247,-0.609050,0.797098,0.493238,0.229428,-25.766491,-19.660332,-18.269577,98.40049,-0.70959395,-1.761109,1.8083676,0.65865815,0.55521506,-0.9337377
20231225 10:23:05,-0.607108,-2.236011,-1.746404,0.829059,0.488977,0.233689,-26.142574,-19.228233,-17.363724,96.01344,-1.387295,-2.0228567,2.0154417,0.6408305,0.54633504,-0.9630768
20231225 10:23:05,-0.274428,-2.820158,-2.794430,0.816275,0.437840,0.240081,-25.342625,-19.251045,-18.292068,83.78002,-2.2466242,-2.5644026,1.55401,0.59389883,0.4597349,-0.9092783
20231225 10:23:05,0.206320,-3.564647,-4.104665,0.624512,0.255665,0.242212,-26.320065,-20.186661,-17.168961,73.10531,-3.7354722,-3.6776028,0.7426497,0.48861971,0.25428906,-0.64002204
20231225 10:23:05,0.381890,-3.733302,-4.472433,0.521173,0.185352,0.241147,-25.674923,-19.669579,-16.928360,59.530952,-4.615182,-4.5184135,0.0012349486,0.44856983,0.18732966,-0.49734393
20231225 10:23:05,1.119480,-4.041847,-5.152497,0.271882,0.045792,0.221970,-26.108906,-19.598236,-17.741150,24.600882,-5.7584076,-6.392248,-2.0878367,0.28497997,0.1061991,-0.19199196
20231225 10:23:05,1.239369,-4.093956,-5.198261,0.002349,-0.052220,0.164441,-25.895428,-20.161133,-16.630524,25.257038,-5.641193,-6.5270844,-2.2725706,0.086475804,0.056951366,0.0630516
20231225 10:23:05,1.139662,-3.963367,-4.682980,-0.291687,-0.131056,0.057907,-25.598995,-20.122673,-17.969803,69.481735,-3.928874,-4.620391,0.06969112,-0.11604,-0.09933168,0.3239156
20231225 10:23:05,0.626542,-3.591266,-3.854330,-0.343889,-0.147036,0.032338,-26.108135,-19.982018,-17.180222,81.4921,-2.943997,-3.6911612,1.1318527,-0.16727497,-0.1407726,0.36946645
20231225 10:23:05,0.063517,-3.110538,-3.019102,-0.402484,-0.213088,0.018489,-25.789661,-19.962875,-16.776382,94.38206,-1.9597917,-2.7253494,1.9985442,-0.20857637,-0.24894294,0.4471855
20231225 10:23:05,-0.410378,-2.461893,-2.248853,-0.404614,-0.263159,0.040861,-26.171276,-20.455261,-17.417908,95.721695,-1.6604846,-2.1736681,1.9948164,-0.18739669,-0.30759206,0.47686633
20231225 10:23:05,-0.481826,-2.314642,-2.146729,-0.407810,-0.290858,0.055776,-26.117100,-20.077034,-17.174103,96.20729,-1.6372879,-2.0532317,1.9831424,-0.17906472,-0.33778456,0.49476314
20231225 10:23:05,-0.550324,-2.087152,-1.907483,-0.423790,-0.371825,0.099455,-26.144764,-19.978317,-17.716705,94.44304,-1.5602381,-1.8908547,1.8388804,-0.14888611,-0.4202281,0.5578779
20231225 10:23:05,-0.244501,-1.713975,-1.947339,-0.437640,-0.459183,0.131416,-26.680798,-20.122711,-16.908783,88.84605,-1.6315457,-1.6192319,1.1769521,-0.12567626,-0.48127267,0.624971
20231225 10:23:05,-0.142741,-1.470572,-2.071803,-0.452555,-0.513516,0.123958,-26.302135,-19.996628,-17.181198,83.68833,-1.7672807,-1.3572922,0.75453055,-0.09704134,-0.53429,0.6570787
20231225 10:23:05,-0.263388,-0.324309,-2.536488,-0.475993,-0.500732,0.103717,-26.795918,-20.224106,-17.037292,83.64594,-2.317801,-0.14310327,0.25092077,-0.10070581,-0.52634484,0.66222066
20231225 10:23:05,-0.422899,0.062849,-2.525562,-0.535652,-0.462379,0.082410,-27.069187,-19.960045,-17.191208,86.027275,-2.418196,0.39341494,0.26701573,-0.10671544,-0.50778824,0.69007283
20231225 10:23:05,-0.765343,0.951817,-2.187154,-0.620880,-0.435746,0.077083,-26.866611,-19.658524,-17.476822,89.06259,-2.4118338,1.2464373,0.18448749,-0.15985617,-0.50264424,0.7552661
20231225 10:23:05,-1.074153,1.920509,-1.429698,-0.670951,-0.411243,0.080279,-27.395863,-20.457977,-17.028000,92.46923,-2.1132565,2.0248806,-0.017502714,-0.1946677,-0.4918673,0.78488564
20231225 10:23:05,-1.423651,2.423063,-0.575815,-0.653906,-0.354779,0.090932,-27.014629,-19.773697,-16.666962,95.335594,-1.7153254,2.2874618,-0.16620238,-0.23282659,-0.445358,0.7340856
20231225 10:23:05,-1.599891,2.379563,0.515618,-0.550567,-0.292989,0.121828,-27.129757,-19.875099,-16.795441,97.34908,-0.97002625,2.0754883,-0.3152041,-0.21713854,-0.37041292,0.59943426
20231225 10:23:05,-1.329515,1.881255,1.522701,-0.239485,-0.202434,0.166572,-27.587673,-19.722504,-16.675995,98.94337,-0.035381794,1.7073735,-0.6143919,-0.049077205,-0.22573781,0.2908999
20231225 10:23:05,-0.855023,1.198548,2.212371,-0.105251,-0.178997,0.160180,-27.236683,-19.497696,-17.491013,98.107666,0.7824019,1.0742133,-0.5517925,0.034496322,-0.18943025,0.1854841
20231225 10:23:05,-0.514368,0.741361,2.520175,0.186654,-0.169409,0.122893,-27.428120,-18.954124,-16.858536,97.79367,1.2381393,0.6996921,-0.48300964,0.22394797,-0.16810808,-0.0065583186
20231225 10:23:05,-0.169109,0.524194,2.090177,0.460448,-0.208827,0.036600,-27.006824,-19.103020,-17.514481,93.188416,1.3229303,0.5486816,-0.3471149,0.3566927,-0.21364847,-0.16757008
20231225 10:23:05,0.014975,0.713366,0.908176,0.672453,-0.228003,-0.091242,-27.614193,-20.199455,-16.377182,89.54036,0.7211562,0.7256852,-0.4596471,0.3530802,-0.23689638,-0.37546664
20231225 10:23:05,-0.263480,1.279346,-0.476835,0.778988,-0.182193,-0.190319,-27.675144,-19.922630,-16.261887,86.295334,-0.60692585,1.2926797,-0.46860456,0.26023993,-0.14825504,-0.57115155
20231225 10:23:05,-0.703382,1.968325,-1.238260,0.760877,-0.116141,-0.218019,-27.650822,-20.195755,-16.913666,86.17841,-1.6466591,2.0525227,-0.34501138,0.18211113,-0.04113622,-0.6231228
20231225 10:23:05,-1.006196,2.412757,-1.317210,0.637296,-0.098030,-0.177535,-27.595493,-20.393196,-15.828476,89.646996,-1.9687434,2.4928741,-0.25247374,0.15980004,-0.021904731,-0.51654404
20231225 10:23:05,-0.845191,2.430687,-1.014086,0.448730,-0.148102,-0.131725,-27.277401,-20.182167,-15.705093,88.37604,-1.5272073,2.4660125,-0.49830377,0.1252779,-0.10993778,-0.31631488
20231225 10:23:05,-0.663016,2.372747,-0.417503,0.253771,-0.261029,-0.122137,-27.358463,-20.845451,-15.930557,89.13219,-0.8615222,2.3653982,-0.71740305,0.050455496,-0.24179393,-0.07501934
20231225 10:23:05,-0.706176,2.211979,0.085293,0.117406,-0.352649,-0.138117,-27.382786,-20.572327,-15.278763,92.17438,-0.4943108,2.1601102,-0.66442996,-0.0209013,-0.33476296,0.104607
20231225 10:23:05,-0.898312,2.376637,0.494932,0.086511,-0.380348,-0.178601,-27.270237,-21.029114,-15.783722,95.01269,-0.39461362,2.221659,-0.66064745,-0.050226323,-0.348736,0.15746331
20231225 10:23:05,-1.540709,2.775314,0.920129,0.170674,-0.334538,-0.267025,-27.349117,-20.942322,-15.656189,99.7411,-0.7138118,2.3001103,-0.43659037,-0.04580234,-0.24899659,0.080260195
20231225 10:23:05,-2.636704,3.679650,1.211721,0.363502,-0.233330,-0.366102,-27.127071,-21.218315,-14.832138,107.81404,-1.8090419,2.35465,-0.021621928,0.007971853,-0.007697724,-0.11027111
20231225 10:23:05,-4.232640,5.075504,0.991828,0.566983,-0.090573,-0.379951,-27.735973,-21.547211,-14.816727,114.55165,-3.9731953,2.4716394,0.86115336,0.08210173,0.27408004,-0.34857732
20231225 10:23:05,-5.443687,6.535950,0.723857,0.642623,0.033007,-0.278743,-27.401371,-22.279999,-14.497635,119.36694,-5.9311275,2.808796,1.5170989,0.13221826,0.39180923,-0.4935195
20231225 10:23:05,-5.934900,7.565270,0.724975,0.565918,0.132085,-0.029452,-27.471287,-22.098183,-14.376236,118.1163,-6.5835366,3.6527288,1.5586946,0.19616707,0.29792717,-0.5398031
20231225 10:23:05,-5.042254,7.201013,1.190895,0.349652,0.194940,0.319982,-27.529400,-19.553650,-14.676880,107.42139,-4.5255027,4.766762,0.4411082,0.3530846,0.13532203,-0.44588423
20231225 10:23:05,-2.717600,5.276837,2.563232,0.126994,0.205594,0.636391,-27.448505,-21.603760,-16.149902,95.93719,0.06337559,5.370217,-1.8581042,0.55065346,0.21498582,-0.27881894
20231225 10:23:05,0.157108,2.757600,3.962640,0.044963,0.188548,0.812173,-27.981197,-21.573746,-14.147598,99.95167,2.945818,3.0919738,-2.6771007,0.5771088,0.25977898,-0.276209
20231225 10:23:05,2.549789,0.042754,4.577548,0.064139,0.192810,0.817500,-28.193516,-21.586510,-14.416824,108.74961,4.370127,0.058022738,-2.5769649,0.47016203,0.29486075,-0.41857743
20231225 10:23:05,4.401472,-2.293616,4.882226,0.114210,0.166176,0.664090,-27.999889,-21.380005,-14.696304,120.854416,5.316331,-3.1199033,-2.0170784,0.3383771,0.20203507,-0.49302664
20231225 10:23:05,5.414266,-4.042085,5.076076,0.205830,0.107582,0.416929,-28.519146,-20.758698,-14.742020,127.236916,5.8769207,-5.4698257,-1.1348368,0.2988714,0.047840983,-0.3769557
20231225 10:23:05,5.856830,-5.135794,5.060168,0.351783,0.024485,0.160180,-28.578953,-21.057533,-13.785324,131.45793,6.0991683,-6.8536916,-0.57589316,0.37347153,-0.13492669,-0.18637002
20231225 10:23:05,5.841767,-5.538496,4.317487,0.495605,-0.039436,-0.063543,-28.172634,-21.030159,-13.515121,132.23604,5.883996,-7.2665653,0.019579887,0.4710297,-0.29347894,-0.02751448
20231225 10:23:05,5.488835,-5.157629,3.207296,0.593617,-0.066070,-0.248914,-28.244732,-21.598434,-13.746689,128.3824,5.2513027,-6.683024,0.4059136,0.49920967,-0.3972215,0.029009148
20231225 10:23:05,4.677795,-4.192521,1.907873,0.604270,-0.103357,-0.392736,-28.238834,-19.968300,-15.996567,107.84694,3.9104133,-5.3122616,0.93554807,0.36484593,-0.46586964,-0.07670259
20231225 10:23:05,3.554162,-2.805741,0.584268,0.493474,-0.147036,-0.488617,-28.446934,-22.091843,-13.180618,91.433876,2.1758485,-3.5614903,-0.2030079,0.047507286,-0.45374173,-0.20116237
20231225 10:23:05,2.135802,-1.203783,-0.545778,0.287862,-0.209892,-0.523773,-27.741215,-21.659706,-13.335770,76.57546,0.47811112,-1.6689688,-1.1604799,-0.29894626,-0.38725048,-0.18955235
20231225 10:23:05,0.635330,0.450769,-1.434731,0.008741,-0.271682,-0.497140,-27.873882,-22.143036,-13.171570,82.70155,-1.0274267,0.40356877,-0.839597,-0.45562312,-0.2852104,0.0778999
20231225 10:23:05,-0.861082,1.648050,-2.134243,-0.333236,-0.305773,-0.399128,-28.559597,-19.733643,-14.005508,95.64516,-2.6714766,2.0717907,0.2583434,-0.39189735,-0.21726555,0.43817192
20231225 10:23:05,-1.869296,2.244285,-1.888775,-0.678409,-0.319623,-0.248914,-28.007320,-22.242577,-13.568314,105.20978,-3.173314,2.4065855,0.942509,-0.39188114,-0.32357714,0.7736707
20231225 10:23:05,-2.331481,2.120623,-0.878349,-0.940484,-0.348387,-0.090177,-27.996822,-22.915115,-12.452530,108.8878,-2.557197,1.8198509,1.054399,-0.4718001,-0.4732211,0.98697793
20231225 10:23:05,-2.261536,1.490718,0.131342,-1.039562,-0.341995,0.049384,-28.183010,-22.259041,-13.301041,107.380394,-1.6166868,1.0456297,0.8519627,-0.54304737,-0.5090744,1.0063125
20231225 10:23:05,-1.794281,0.417279,1.027457,-0.963922,-0.269551,0.152723,-28.349735,-22.180481,-13.039871,108.36182,-0.6182934,0.0955374,0.7412134,-0.5533429,-0.3919955,0.8228372
20231225 10:23:05,-1.167998,-0.654466,1.648206,-0.758310,-0.182193,0.207055,-28.173664,-22.355911,-13.026672,109.79927,0.14159381,-0.7730789,0.77485245,-0.45577982,-0.22637156,0.55299795
20231225 10:23:05,-0.481346,-1.572022,1.766178,-0.481319,-0.096965,0.214513,-27.910900,-21.947441,-13.988525,108.96966,0.60809433,-1.5416294,1.022901,-0.27011672,-0.08596003,0.29603493
20231225 10:23:05,0.187597,-2.313729,1.204988,-0.197937,-0.022391,0.177226,-28.835323,-21.929169,-13.463028,106.94435,0.6922314,-2.236484,1.4110653,-0.061227083,0.007915701,0.08974328
20231225 10:23:05,0.729516,-2.678718,0.101481,0.024721,0.057510,0.100521,-28.357281,-21.141647,-13.241745,100.90765,0.29535174,-2.7257886,1.5827826,0.088050805,0.06508023,-0.07438748
20231225 10:23:05,0.900891,-2.735590,-1.046396,0.163216,0.115039,0.009966,-28.553478,-21.906334,-13.595688,93.519104,-0.5357648,-2.9878557,1.3600546,0.14270899,0.085045025,-0.19675772
20231225 10:23:05,0.752013,-2.606375,-2.063284,0.212222,0.148065,-0.066739,-28.755672,-22.399734,-13.029602,86.53982,-1.5994221,-3.0261774,0.93577117,0.1074016,0.10049421,-0.26068982
20231225 10:23:05,0.461940,-2.431655,-2.934508,0.185589,0.153392,-0.101896,-28.411068,-21.711761,-13.205063,77.74554,-2.6882741,-2.9747086,0.4929016,0.03738945,0.1100775,-0.24699482
20231225 10:23:05,0.285168,-2.305173,-3.596108,0.108884,0.164045,-0.120006,-29.089512,-22.050720,-12.787781,73.92151,-3.4982848,-2.9531133,0.25769284,-0.029601604,0.12854528,-0.17944343
20231225 10:23:06,0.122493,-2.137407,-4.030969,-0.013631,0.185352,-0.124268,-28.473827,-22.376900,-13.162277,75.65862,-3.8978314,-2.5712185,0.28970018,-0.099068545,0.1709787,-0.06646449
20231225 10:23:06,-0.171882,-2.034020,-3.912399,-0.135081,0.226901,-0.105092,-28.667446,-22.583397,-12.882767,88.11864,-3.5387974,-1.9324135,0.987223,-0.15950242,0.22784103,0.020831082
20231225 10:23:06,-0.391090,-2.183975,-3.262797,-0.234159,0.225835,-0.067804,-28.243580,-22.174095,-12.905273,94.07437,-2.8798707,-2.068034,1.6209247,-0.1911132,0.22256649,0.07971771
20231225 10:23:06,-0.314560,-2.325447,-2.638170,-0.286361,0.207725,-0.026256,-28.307484,-22.263565,-13.703888,96.84067,-2.2604954,-2.3643036,1.9280443,-0.20083793,0.21123266,0.088621
20231225 10:23:06,-0.120302,-2.573940,-2.170918,-0.291687,0.186418,0.000378,-28.367664,-22.370522,-13.027649,98.44585,-1.795927,-2.6495275,1.9977102,-0.18684337,0.19615345,0.09474623
20231225 10:23:06,0.199588,-2.738060,-1.840915,-0.283165,0.157653,0.006770,-28.712650,-22.866608,-13.132690,99.40891,-1.3871005,-2.892339,1.9784211,-0.18170698,0.1812015,0.089920945
20231225 10:23:06,0.532990,-2.780320,-1.630458,-0.272511,0.107582,-0.001753,-28.473827,-22.376900,-13.162277,97.39977,-1.09619,-3.0139902,1.7534412,-0.18247062,0.14170699,0.113900386
20231225 10:23:06,0.832169,-2.598387,-1.608469,-0.269315,0.057510,-0.017733,-28.080196,-22.427071,-14.360825,91.39022,-1.0032024,-2.9414315,1.2256043,-0.18887782,0.09784139,0.154766
20231225 10:23:06,1.126207,-2.175338,-1.780142,-0.291687,0.012766,-0.033713,-28.353077,-22.354889,-14.234268,84.947975,-1.035372,-2.703452,0.47177914,-0.21296398,0.062484104,0.20958059
20231225 10:23:06,1.337200,-1.612800,-1.869737,-0.328974,0.006374,-0.061412,-28.510075,-22.565086,-13.418274,81.66372,-0.97597015,-2.270781,-0.23298167,-0.24730466,0.056324,0.2492737
20231225 10:23:06,1.335153,-1.063977,-1.892031,-0.340693,0.066033,-0.093373,-28.722385,-22.577850,-13.687515,80.11157,-0.9118401,-1.7186941,-0.64119923,-0.25828618,0.101902924,0.22527276
20231225 10:23:06,1.192399,-0.566627,-1.644313,-0.312994,0.177895,-0.135987,-28.412495,-22.845619,-12.997086,86.376076,-0.67130363,-1.0075848,-0.6786954,-0.26159707,0.1909629,0.13924651
20231225 10:23:06,0.754164,-0.156467,-1.021814,-0.249073,0.263123,-0.171143,-28.292507,-22.439827,-14.630035,89.870514,-0.3426593,-0.30284464,-0.4959934,-0.26384294,0.26369047,0.03195748
20231225 10:23:06,0.357219,0.200212,-0.548593,-0.160649,0.284430,-0.180731,-27.938671,-19.947319,-15.860992,86.41059,-0.20874757,0.16316545,-0.4259819,-0.22822921,0.2814006,-0.051915657
20231225 10:23:06,0.126865,0.504993,-0.725163,-0.094598,0.283364,-0.144509,-28.510075,-22.565086,-13.418274,92.85361,-0.498307,0.47894183,-0.3764128,-0.16355373,0.28074706,-0.084253654
20231225 10:23:06,0.216442,0.631157,-0.878055,-0.067964,0.245012,-0.104026,-28.114254,-21.865181,-14.263855,88.24844,-0.566293,0.57571757,-0.5508861,-0.11113029,0.24148707,-0.08449235
20231225 10:23:06,0.331128,0.937318,-1.169941,-0.055180,0.192810,-0.080589,-28.299290,-21.784767,-14.270950,83.672356,-0.74914557,0.82680196,-0.8351513,-0.082266204,0.18836345,-0.057361074
20231225 10:23:06,0.531887,1.314067,-1.615942,-0.078618,0.166176,-0.067804,-28.298908,-21.976654,-13.990479,78.865906,-0.9992188,1.0744042,-1.2285931,-0.07658878,0.16160204,-0.014465516
20231225 10:23:06,0.746638,1.888174,-1.721467,-0.148931,0.142738,-0.066739,-28.282780,-22.728584,-14.075211,76.31153,-0.857912,1.5264003,-1.7014148,-0.10484892,0.14224255,0.060279697
20231225 10:23:06,0.930795,2.396737,-1.380665,-0.244812,0.115039,-0.080589,-28.361660,-22.641792,-13.947693,77.52363,-0.35442883,2.052741,-2.0900643,-0.16925249,0.1218391,0.15161565
20231225 10:23:06,1.025600,2.764108,-0.918286,-0.316190,0.108647,-0.109353,-28.000546,-22.897636,-13.927399,80.71616,0.14869958,2.5025246,-2.3536942,-0.2387343,0.11856797,0.20764631
20231225 10:23:06,1.065712,2.957848,-0.167489,-0.339628,0.144869,-0.164751,-28.345531,-23.393723,-14.032410,85.467804,0.83594024,2.8094842,-2.5386827,-0.3062617,0.15132079,0.19371225
20231225 10:23:06,1.129979,3.060520,0.767751,-0.281034,0.206659,-0.259567,-28.282009,-23.112366,-13.514267,91.36183,1.5772893,3.0308485,-2.760748,-0.35585082,0.20088351,0.102710254
20231225 10:23:06,0.784738,3.172655,1.634387,-0.164911,0.271645,-0.356514,-28.444530,-24.247055,-14.245651,96.70465,1.8932751,3.2098382,-2.73188,-0.3679732,0.2618459,-0.017979214
20231225 10:23:06,0.300570,3.257122,2.324254,0.003414,0.349416,-0.406585,-28.141407,-23.859764,-13.196136,101.88598,1.9236108,3.2404575,-2.6350992,-0.30705914,0.35266924,-0.1721949
20231225 10:23:06,-0.198773,3.275012,2.702662,0.193046,0.396291,-0.406585,-28.029247,-24.124657,-13.981552,103.6143,1.7108247,3.1066163,-2.37345,-0.19887684,0.42715356,-0.33613148
20231225 10:23:06,-0.762170,3.478977,2.477320,0.368829,0.409075,-0.363971,-27.825504,-24.398811,-13.425751,105.59541,1.023846,3.0838413,-1.9346423,-0.09491137,0.48091722,-0.47301605
20231225 10:23:06,-1.198247,3.724904,1.759823,0.433815,0.372854,-0.287266,-28.028477,-24.508438,-13.420624,104.707184,0.1209327,3.2366006,-1.3635993,-0.038558573,0.46055424,-0.5203002
20231225 10:23:06,-1.162712,4.076354,0.689741,0.328345,0.296148,-0.159424,-28.082645,-24.886673,-13.664398,101.08872,-0.6980782,3.765463,-1.1127863,-0.01636462,0.35004908,-0.41508186
20231225 10:23:06,-0.644652,4.130018,-0.189769,0.080119,0.272711,-0.009210,-28.082264,-25.078552,-13.383942,95.319885,-0.80813146,4.0993323,-1.4167172,0.008885273,0.2758518,-0.20107055
20231225 10:23:06,0.232430,3.490204,-0.120470,-0.202198,0.335566,0.071756,-27.897228,-25.158966,-13.376846,94.61697,0.13511111,3.4796119,-2.1385148,-0.04402647,0.34159148,-0.023484198
20231225 10:23:06,0.923804,2.138269,1.260315,-0.436575,0.398422,0.041926,-27.606800,-24.849220,-13.796097,104.76516,1.6278889,2.1474087,-2.3556964,-0.26704714,0.41794866,0.021059154
20231225 10:23:06,0.835884,0.614659,3.683987,-0.536717,0.394161,-0.026256,-27.631504,-24.384201,-13.424774,116.26006,2.6398563,0.64514744,-2.2973433,-0.4666142,0.40535054,-0.012289406
20231225 10:23:06,0.628051,-1.202289,6.083452,-0.438705,0.334501,-0.099765,-27.695408,-24.473671,-14.223404,123.06888,2.69276,-1.191882,-2.3863325,-0.44531792,0.3370721,-0.060001
20231225 10:23:06,0.468717,-3.067183,7.923561,-0.141473,0.193875,-0.177535,-27.501026,-24.650948,-13.941940,127.09582,2.2636259,-3.0810616,-2.3781161,-0.17856304,0.19284566,-0.014178254
20231225 10:23:06,0.222072,-4.193257,8.367127,0.242052,0.052184,-0.236129,-27.792217,-24.576920,-14.083649,127.59523,1.7944472,-4.2229414,-1.7922959,0.19361402,0.058642622,0.055819884
20231225 10:23:06,0.216229,-4.567225,7.531233,0.590421,-0.085246,-0.251044,-27.392406,-22.184975,-14.503754,124.32253,1.7622299,-4.5829053,-0.5087073,0.52685434,-0.07765068,0.08679451
20231225 10:23:06,0.459019,-4.425774,5.534469,0.793902,-0.158755,-0.275547,-27.588718,-21.048256,-16.187561,119.7088,1.9849312,-4.43962,0.9316757,0.68756056,-0.14775667,0.044610694
20231225 10:23:06,0.232886,-3.570830,3.693376,0.858889,-0.201369,-0.303246,-26.710026,-24.768776,-14.864182,121.18757,1.88847,-3.6481829,0.9311799,0.6506736,-0.14574584,-0.071851745
20231225 10:23:06,-0.389795,-2.165269,1.933803,0.807752,-0.210957,-0.306442,-27.324413,-21.407333,-16.027512,109.17469,1.0916828,-2.3991923,1.3547225,0.47911596,-0.05771031,-0.25557294
20231225 10:23:06,-1.348659,-0.568716,0.390686,0.649015,-0.191781,-0.244652,-27.385128,-24.933327,-13.252502,115.72717,-0.44171485,-0.9648539,1.2470254,0.30415124,0.048279732,-0.31120664
20231225 10:23:06,-2.440607,1.217187,-0.901058,0.402920,-0.129991,-0.096569,-26.636387,-24.968056,-13.510727,119.553185,-2.5267816,0.6846753,1.7150377,0.21343331,0.061617076,-0.2509256
20231225 10:23:06,-3.282245,2.601516,-1.652018,0.069466,-0.071397,0.123958,-27.171894,-21.693413,-14.801575,119.14079,-4.2161937,1.7934034,2.0741084,0.15614319,-0.10058917,-0.05872598
20231225 10:23:06,-3.676924,3.310094,-1.539849,-0.294883,-0.052220,0.379642,-27.753788,-23.638649,-13.474655,121.24658,-4.7191763,2.1881032,2.0433953,0.123227164,-0.3390072,0.16949809
20231225 10:23:06,-3.498904,3.163096,-0.646242,-0.570809,-0.070331,0.621476,-27.895039,-24.408897,-13.023880,117.750114,-3.7590306,2.0091314,1.401131,0.13749734,-0.47445318,0.33324832
20231225 10:23:06,-2.538166,2.275288,0.361655,-0.663494,-0.061808,0.775951,-27.882366,-23.433823,-15.632843,108.23981,-1.9112144,1.5619963,0.4921627,0.15553942,-0.3794105,0.391503
20231225 10:23:06,-1.446862,1.328693,1.174592,-0.605965,-0.015999,0.822827,-27.554371,-20.798149,-13.256180,106.10086,-0.34159148,1.0000151,-0.08442548,0.1588881,-0.18520525,0.2848202
20231225 10:23:06,-0.595054,0.572740,1.717823,-0.417398,0.094798,0.786605,-28.361271,-22.833687,-13.667221,107.92632,0.6595758,0.45587033,-0.4114761,0.20142585,0.0338072,0.026937932
20231225 10:23:06,-0.048521,-0.098994,2.211637,-0.128689,0.253535,0.701377,-28.071728,-20.238747,-15.977249,103.11451,1.3142581,-0.12818235,-0.2912221,0.32345372,0.24233066,-0.24274704
20231225 10:23:06,0.196126,-0.712344,2.562331,0.225007,0.397357,0.589515,-28.097591,-19.198074,-16.447357,102.88432,1.6347284,-0.726521,-0.011698276,0.519956,0.39566225,-0.5540363
20231225 10:23:06,0.156046,-1.225536,2.243241,0.581898,0.515610,0.495765,-28.187717,-18.952492,-13.918839,105.25776,1.4414266,-1.2519133,0.39245278,0.7545898,0.5197524,-0.8488349
20231225 10:23:06,0.031866,-1.700185,1.362996,0.878065,0.626406,0.431844,-28.070461,-22.715828,-13.805984,110.46872,0.857418,-1.7202426,0.8816736,0.95365834,0.63819224,-1.1141187
20231225 10:23:06,0.207665,-2.441499,0.374128,1.047455,0.667955,0.366858,-28.183247,-18.456223,-15.960754,100.471596,0.36580372,-2.4403281,1.75719,1.067634,0.65788543,-1.2031934
20231225 10:23:06,0.586745,-3.208053,-0.534425,1.090069,0.598707,0.276303,-28.294163,-19.770866,-17.081787,98.60322,-0.010270506,-3.260826,2.2328625,1.0631908,0.54103065,-1.164023
20231225 10:23:06,0.894340,-3.757330,-1.603992,1.042129,0.486846,0.176160,-28.183895,-19.973854,-15.191833,94.27186,-0.79058385,-3.9884727,2.2902033,0.94585973,0.37361944,-1.0657657
20231225 10:23:06,1.024352,-4.104311,-2.710817,0.961162,0.417598,0.093063,-28.403767,-18.947777,-15.662918,82.37194,-1.9355075,-4.551023,1.6555858,0.7594552,0.302084,-0.9892237
20231225 10:23:06,0.806483,-4.188231,-3.594033,0.850366,0.366461,0.050449,-28.467548,-20.938660,-15.131683,80.65345,-3.0022848,-4.5580883,1.2022749,0.5297688,0.31725892,-0.90818083
20231225 10:23:06,0.432640,-4.051033,-4.237788,0.715067,0.303606,0.052580,-28.365475,-21.620445,-12.674683,83.75314,-3.6627781,-3.8954628,0.86523664,0.29314592,0.3110256,-0.77362543
20231225 10:23:06,0.229460,-3.799855,-4.969721,0.543546,0.257796,0.083475,-28.765675,-23.820503,-12.535049,97.42935,-3.0348716,-1.6325501,0.64028907,0.08569963,0.24770749,-0.5852517
20231225 10:23:06,-0.079210,-3.555047,-5.438920,0.342195,0.227966,0.131416,-28.521610,-23.218292,-14.045624,120.11281,-0.6245034,1.9756262,0.90947664,-0.046007596,0.07903654,-0.37634677
20231225 10:23:06,-0.014599,-3.633081,-5.519133,0.112080,0.206659,0.161245,-28.465748,-19.996696,-15.059189,95.27957,-3.2473109,-0.8099551,0.76434153,0.07078077,0.122588485,-0.15031892
20231225 10:23:06,0.031851,-3.596783,-4.816447,-0.099925,0.148065,0.178291,-28.736111,-23.981133,-14.667801,89.4755,-3.8023658,-2.6837711,1.1849021,0.104360044,0.10768226,0.04382823
20231225 10:23:06,0.113299,-3.515691,-4.045165,-0.255465,0.062837,0.205990,-29.072460,-19.575508,-14.690796,86.67745,-3.2463102,-3.155923,1.3792253,0.062207714,0.034418542,0.20493008
20231225 10:23:06,0.230311,-3.531250,-3.502741,-0.379046,-0.037305,0.232624,-28.616344,-20.670059,-14.882751,87.769,-2.7800283,-3.4576905,1.5983362,-0.0023136884,-0.046627678,0.3462143
20231225 10:23:06,0.334107,-3.238743,-3.016302,-0.460012,-0.142775,0.252865,-28.623501,-19.823105,-14.804138,86.02218,-2.383,-3.2615607,1.3479443,-0.036106482,-0.1388837,0.47366834
20231225 10:23:06,0.380583,-2.849659,-3.016894,-0.491973,-0.184324,0.258192,-28.553593,-20.004921,-14.925537,82.991646,-2.480401,-2.9358313,0.9227355,-0.032793313,-0.16941272,0.5326836
20231225 10:23:06,0.361074,-2.244588,-2.768185,-0.495169,-0.189650,0.229428,-29.028561,-22.327553,-12.903061,90.56081,-2.1959722,-2.2329268,0.8382117,-0.0519868,-0.19167909,0.52191216
20231225 10:23:06,0.040219,-1.301727,-2.421394,-0.460012,-0.212023,0.169768,-29.257275,-23.297913,-12.038177,96.40548,-1.9713529,-1.0644407,0.71402645,-0.052342907,-0.25038782,0.49564704
20231225 10:23:06,-0.460755,-0.145672,-2.227797,-0.421660,-0.240787,0.114370,-29.690487,-23.610336,-12.290039,101.34973,-2.1063454,0.28221524,0.6741973,-0.040985413,-0.30373278,0.4726613
20231225 10:23:06,-1.075648,0.943611,-2.015347,-0.409941,-0.261029,0.100521,-29.407864,-23.971275,-11.861755,106.40781,-2.4597828,1.3184357,0.8081279,-0.024672978,-0.33605564,0.466013
20231225 10:23:06,-1.417543,1.731119,-1.602146,-0.425921,-0.271682,0.145265,-29.619801,-24.175926,-11.850494,107.52662,-2.504332,1.8817843,0.70451444,5.347356E-4,-0.36453333,0.477162
20231225 10:23:06,-1.436231,2.202534,-0.978770,-0.466404,-0.284466,0.246473,-29.647854,-23.885315,-12.673584,103.063385,-1.9882836,2.169893,0.26598147,0.027897552,-0.38071018,0.5143316
20231225 10:23:06,-0.849738,2.264315,-0.166408,-0.504757,-0.343060,0.328505,-30.061337,-23.065735,-12.865158,97.82277,-0.76654613,2.2288394,-0.53089267,0.014381796,-0.3877104,0.5836124
20231225 10:23:06,-0.005732,2.110460,0.646676,-0.493038,-0.421896,0.314656,-30.334217,-22.993561,-12.738617,95.265785,0.57852155,2.129288,-1.297793,-0.059524417,-0.3999696,0.6292275
20231225 10:23:06,0.518595,2.060654,1.154284,-0.406745,-0.460249,0.220905,-30.104359,-22.598869,-12.762085,94.423134,1.3585848,2.102243,-1.7467524,-0.1137951,-0.42210063,0.5938142
20231225 10:23:06,0.706353,1.997876,1.438952,-0.276772,-0.422962,0.102651,-30.359303,-22.336655,-12.647766,94.64228,1.710791,2.0548668,-1.8995538,-0.13484162,-0.39332768,0.47809097
20231225 10:23:06,0.780932,2.187576,1.948208,-0.130820,-0.353714,-0.002818,-30.349194,-22.817299,-11.812454,98.39418,2.1156774,2.2623801,-2.208087,-0.11232571,-0.3448136,0.33021775
20231225 10:23:06,0.556223,2.443171,2.594627,0.066270,-0.306839,-0.098700,-30.331646,-22.435371,-12.105164,99.868706,2.3704233,2.5086973,-2.3313775,-0.03825755,-0.31171304,0.16593973
20231225 10:23:06,0.114456,2.577724,2.666374,0.266555,-0.302577,-0.195646,-30.832706,-19.914505,-13.212494,95.56581,2.095025,2.5842774,-1.9379561,0.026245639,-0.3036683,0.008596298
20231225 10:23:06,-0.225536,2.857399,2.288756,0.438076,-0.291924,-0.292593,-30.692371,-22.371422,-11.844986,100.35657,1.5496972,2.7637753,-1.8199372,0.05281493,-0.26817963,-0.1332477
20231225 10:23:06,-0.764599,3.283983,1.694814,0.569114,-0.272747,-0.371429,-30.075924,-23.081367,-11.658539,102.35832,0.59464765,3.018774,-1.4068168,0.050854534,-0.1886924,-0.27047113
20231225 10:23:06,-1.524575,3.872009,1.030180,0.656473,-0.225872,-0.422565,-29.960033,-23.363739,-10.969101,108.072105,-0.8837204,3.2406995,-0.7754231,0.04929453,-0.018007077,-0.38131097
20231225 10:23:06,-2.613117,4.716810,0.397418,0.699086,-0.161951,-0.414043,-29.792156,-24.017967,-10.388840,115.20368,-2.744387,3.5478048,0.14346296,0.07302156,0.1585514,-0.45601016
20231225 10:23:06,-3.407784,5.312509,-0.019188,0.639427,-0.150232,-0.343730,-30.367390,-24.716858,-10.750854,119.18358,-4.0769353,3.6899061,0.8519367,0.10997391,0.18919426,-0.42591557
20231225 10:23:06,-3.829465,5.941141,-0.113549,0.479625,-0.183258,-0.191385,-29.810085,-24.208008,-10.376617,119.24073,-4.6308436,4.169238,1.0882982,0.15946905,0.0504717,-0.31263122
20231225 10:23:06,-3.412158,6.276116,0.117679,0.211157,-0.261029,0.022750,-30.202969,-23.644089,-12.694839,109.05219,-3.7264152,5.0610385,0.34855622,0.20877546,-0.20780382,-0.08035352
20231225 10:23:06,-2.179359,5.867611,0.856453,-0.122297,-0.393132,0.228362,-29.800968,-20.502060,-12.761963,97.36989,-1.2899704,5.4327536,-1.0696284,0.19598815,-0.4339365,0.28590533
20231225 10:23:06,-0.561304,4.703135,1.888340,-0.407810,-0.483686,0.379642,-30.400028,-23.021111,-10.861862,97.38196,1.344541,4.775807,-2.4538562,0.04797569,-0.46062532,0.58379745
20231225 10:23:06,1.155024,3.024841,3.210678,-0.600638,-0.516712,0.444628,-30.370670,-20.276459,-11.576614,95.424774,3.4306116,3.2433887,-3.2008336,-0.21079102,-0.35128617,0.75599414
20231225 10:23:06,2.733001,1.043514,4.562728,-0.672017,-0.526300,0.396687,-30.288456,-20.188835,-10.509766,104.13281,4.8382006,1.0566325,-3.2737532,-0.44196644,-0.2693517,0.71347207
20231225 10:23:06,3.746706,-0.935083,5.613052,-0.568678,-0.412308,0.272042,-30.261562,-19.903778,-10.528107,111.7869,5.4661913,-1.2491279,-2.6409302,-0.4684378,-0.18551259,0.48979008
20231225 10:23:06,4.070064,-2.791477,6.240047,-0.279969,-0.170474,0.107978,-30.356625,-23.679878,-10.684464,123.91208,5.3299685,-3.3265452,-2.2825465,-0.25486472,-0.06379333,0.15807153
20231225 10:23:06,4.083798,-4.118062,6.795954,0.087577,0.015962,-0.085915,-30.972309,-23.353699,-10.309967,124.94029,5.154142,-4.6692386,-1.4271624,0.06791903,-0.017062165,0.015365768
20231225 10:23:06,3.763240,-4.468600,6.783006,0.451926,0.022354,-0.295789,-30.744633,-23.709099,-10.686417,124.778305,4.9269114,-4.8511252,-1.1090851,0.3707687,-0.12275742,0.03578508
20231225 10:23:06,3.079598,-4.051536,5.354841,0.701217,-0.079919,-0.474767,-30.140865,-24.496582,-11.968719,121.92016,4.2964473,-4.171725,-0.511153,0.4888877,-0.30422482,0.052660435
20231225 10:23:06,2.468581,-2.948512,3.167711,0.791772,-0.174735,-0.606871,-30.554729,-23.485115,-12.440781,109.02566,3.285391,-2.9428005,0.16076714,0.33072305,-0.43940908,-0.11720511
20231225 10:23:06,1.645533,-1.502101,0.961690,0.717197,-0.221611,-0.665465,-30.326290,-24.224281,-12.256287,94.7453,1.5426569,-1.5509479,-0.2729232,-0.03846699,-0.43820602,-0.34788206
20231225 10:23:06,0.818530,-0.080228,-0.805255,0.476429,-0.240787,-0.652681,-30.736050,-23.422180,-10.973007,87.32621,-0.3009497,-0.22070839,-0.6914387,-0.3555775,-0.34143367,-0.3112074
20231225 10:23:06,-0.023834,1.171280,-1.912426,0.121668,-0.262094,-0.585564,-29.932636,-25.171989,-9.377106,96.28423,-1.8558736,1.3113272,-0.34690827,-0.47144398,-0.21303125,0.013180193
20231225 10:23:06,-0.887781,1.837819,-2.185011,-0.265054,-0.273813,-0.475833,-30.110897,-25.746628,-9.743286,105.97455,-2.7353485,2.2117863,0.34868926,-0.4590788,-0.17548986,0.4003824
20231225 10:23:06,-1.618309,1.868110,-1.560665,-0.554828,-0.253571,-0.330945,-29.968876,-25.360176,-9.633133,111.74546,-2.5856237,1.9444864,0.82235456,-0.48463842,-0.23907971,0.6595756
20231225 10:23:07,-1.704269,1.251438,-0.400022,-0.644318,-0.197108,-0.183927,-29.862720,-25.353790,-9.498520,112.939445,-1.5607513,1.0590174,0.76838595,-0.49323538,-0.2462559,0.6676714
20231225 10:23:07,-1.409581,0.282968,0.444044,-0.548436,-0.095900,-0.072066,-29.529652,-25.319031,-10.301300,113.31005,-0.68580264,0.09096719,0.7184634,-0.42024052,-0.14255545,0.47712344
20231225 10:23:07,-0.873383,-0.773953,1.030263,-0.363066,-0.021325,-0.014537,-29.695995,-25.432350,-9.759674,114.81241,0.05249685,-0.8586156,0.7783884,-0.28190562,-0.038313664,0.25821057
20231225 10:23:07,-0.300030,-1.551089,1.070745,-0.144669,0.005308,0.001443,-29.953907,-25.536438,-10.559280,113.478424,0.43556076,-1.543522,0.96175396,-0.111220986,0.006243006,0.08715381
20231225 10:23:07,0.193800,-2.210962,0.403708,0.069466,0.031942,-0.008145,-30.128063,-26.320450,-9.170120,113.51716,0.29835188,-2.1959047,1.3032091,0.049500555,0.027372794,-0.06464831
20231225 10:23:07,0.543833,-2.599884,-0.587803,0.239921,0.080948,-0.040105,-29.803188,-26.764473,-9.405838,109.85981,-0.2505319,-2.6845953,1.544182,0.15428235,0.052682202,-0.21049635
20231225 10:23:07,0.676416,-2.804205,-1.591017,0.358175,0.126758,-0.079523,-29.346806,-26.149506,-10.647186,101.07555,-1.1150539,-3.0509303,1.4913418,0.19236521,0.072661206,-0.34213662
20231225 10:23:07,0.589615,-2.868281,-2.600854,0.392266,0.169372,-0.109353,-29.450893,-23.504410,-11.758667,87.7016,-2.2398143,-3.2927425,1.0602031,0.15807228,0.10645324,-0.42215484
20231225 10:23:07,0.562362,-2.889726,-3.332296,0.342195,0.196006,-0.120006,-29.308872,-23.117950,-11.648514,79.869774,-3.1481285,-3.5323248,0.5901243,0.10012301,0.13058238,-0.40293756
20231225 10:23:07,0.551245,-2.938037,-3.772831,0.232464,0.192810,-0.111484,-29.528881,-25.702805,-9.740356,81.10972,-3.7199075,-3.7655246,0.5106634,0.04790847,0.13535747,-0.29960155
20231225 10:23:07,0.590919,-2.988217,-3.989656,0.087577,0.158719,-0.083785,-29.564747,-26.082886,-9.715912,77.37936,-4.020113,-4.053992,0.34192845,0.010998383,0.11482157,-0.15333359
20231225 10:23:07,0.776672,-3.086730,-3.949347,-0.047723,0.129954,-0.064608,-29.364346,-26.531441,-10.354492,77.93732,-3.8474083,-4.24162,0.3518858,-0.03562892,0.109591335,-0.024373483
20231225 10:23:07,0.942794,-3.181953,-3.694283,-0.148931,0.110778,-0.073131,-29.661938,-25.994247,-9.856628,82.28288,-3.4255805,-4.2510386,0.56490004,-0.10272524,0.108852625,0.065767616
20231225 10:23:07,0.979358,-3.087183,-3.375241,-0.221374,0.105451,-0.092307,-29.485477,-26.361557,-9.562958,89.06277,-2.9134367,-3.9568944,0.86405957,-0.16931775,0.11436223,0.1250557
20231225 10:23:07,0.871185,-2.904819,-2.878097,-0.277838,0.090536,-0.113614,-29.408787,-27.198425,-10.043457,97.14615,-2.2319062,-3.4254794,1.2204332,-0.23931782,0.10367705,0.17879565
20231225 10:23:07,0.662874,-2.588004,-2.302746,-0.332171,0.042596,-0.117876,-29.662975,-27.319984,-9.368179,103.538414,-1.6302125,-2.8434887,1.3793988,-0.29391772,0.056452673,0.25164542
20231225 10:23:07,0.528193,-2.314046,-1.759141,-0.384373,-0.028783,-0.102961,-30.017307,-27.719208,-9.747559,106.25353,-1.1621276,-2.477188,1.374721,-0.33106756,-0.010427701,0.32774702
20231225 10:23:07,0.591019,-2.068833,-1.316120,-0.411006,-0.092704,-0.072066,-29.647999,-27.496246,-10.294342,105.56103,-0.78452045,-2.2369401,1.1287547,-0.33725423,-0.061663095,0.37829912
20231225 10:23:07,0.867689,-1.877805,-1.109987,-0.417398,-0.122533,-0.039040,-29.390469,-27.200279,-9.775208,105.46222,-0.4618586,-2.1011822,0.79312,-0.32794234,-0.074321456,0.39365682
20231225 10:23:07,1.163873,-1.770827,-0.930540,-0.399287,-0.126795,-0.020929,-29.990803,-27.242256,-10.046387,104.376755,-0.13654017,-2.0560737,0.5047804,-0.3112616,-0.06528627,0.37699667
20231225 10:23:07,1.422591,-1.663163,-0.787776,-0.349216,-0.114011,-0.037975,-29.772091,-27.692673,-10.416718,103.55599,0.119707346,-2.0181994,0.22494769,-0.29055622,-0.052398894,0.33459502
20231225 10:23:07,1.645506,-1.401455,-0.774868,-0.276772,-0.087377,-0.100830,-29.672710,-27.031235,-9.923019,100.55067,0.25470346,-1.823216,-0.20203996,-0.27580202,-0.05201424,0.2753219
20231225 10:23:07,1.569239,-0.958405,-1.060068,-0.209655,-0.029848,-0.190319,-29.533268,-27.202965,-10.446304,96.17592,-0.03895849,-1.382072,-0.5851112,-0.27998525,-0.034372184,0.19635168
20231225 10:23:07,1.099616,-0.343627,-1.275088,-0.158519,0.045792,-0.256371,-29.860317,-27.509003,-10.563553,96.7634,-0.4625879,-0.5817501,-0.63081366,-0.29342443,0.027644454,0.12227574
20231225 10:23:07,0.553821,0.202486,-1.328604,-0.145735,0.090536,-0.277678,-29.869663,-27.412140,-10.837906,98.017,-0.81232333,0.11980156,-0.47554272,-0.3076893,0.08131778,0.09566971
20231225 10:23:07,0.208634,0.766055,-1.147191,-0.149996,0.104386,-0.269155,-30.010921,-28.182373,-10.387131,102.941055,-0.873853,0.7935079,-0.43824893,-0.3098299,0.10812327,0.10454385
20231225 10:23:07,-0.222893,1.314124,-0.894796,-0.147865,0.073491,-0.218019,-29.474880,-28.037971,-11.195053,103.11062,-0.9704465,1.3630183,-0.3674128,-0.2676155,0.08225739,0.115000375
20231225 10:23:07,-0.280332,1.631456,-1.111688,-0.169172,0.017027,-0.135987,-29.396381,-27.932877,-11.603043,99.27114,-1.196633,1.680648,-0.44334632,-0.20134005,0.019348143,0.15072802
20231225 10:23:07,0.035181,1.751218,-1.519048,-0.221374,-0.018129,-0.053955,-29.517521,-27.762993,-10.811508,94.615814,-1.2702272,1.6992245,-0.78496194,-0.15114917,-0.016065175,0.20646617
20231225 10:23:07,0.675246,1.719136,-1.544871,-0.291687,-0.022391,-0.014537,-29.457333,-27.656052,-11.487732,87.93448,-0.7447716,1.4030751,-1.4492338,-0.15706812,1.468393E-4,0.26583496
20231225 10:23:07,1.268555,1.655612,-1.293587,-0.350281,-0.019195,-0.030517,-29.510746,-28.418053,-11.170593,88.67966,-0.09006941,1.1949402,-1.9555696,-0.20983614,0.017638031,0.30969238
