Timestamp,linacce_x,linacce_y,linacce_z,gyro_x,gyro_y,gyro_z,X-magnetometer,Y-magnetometer,Z-magnetometer,Yaw, worldXAccel,worldYAccel,worldZAccel,worldXgyro,worldYgyro,worldZgyro
20231225 03:39:10,0.451940,0.760653,-2.280280,0.055177,0.236712,-0.410915,-3.609993,-31.714149,-2.446228,168.7872,-1.4790397,0.65130144,0.9363178,-0.2786731,0.21771933,0.17739075
20231225 03:39:10,0.346010,1.246754,-2.054268,-0.169612,0.214340,-0.484424,-3.610764,-31.330368,-3.007164,168.03065,-1.3958753,1.2280165,0.8051687,-0.48443583,0.21150139,0.39801306
20231225 03:39:10,0.068022,1.632601,-1.770785,-0.406119,0.188771,-0.569652,-3.338261,-31.210655,-3.414185,168.16664,-1.417312,1.7112004,0.81393224,-0.7064178,0.19953264,0.6403626
20231225 03:39:10,-0.358056,2.090600,-1.252746,-0.606404,0.235647,-0.647422,-2.607071,-31.627319,-3.379707,170.44612,-1.3967028,2.1698558,0.84579176,-0.90562046,0.24770918,0.8498462
20231225 03:39:10,-1.078375,2.681631,-0.351751,-0.729985,0.315548,-0.676186,-2.247112,-31.307487,-4.200829,170.54535,-1.4191159,2.509967,0.72459686,-1.0311224,0.30696148,0.95340276
20231225 03:39:10,-1.880459,2.918771,0.718810,-0.759815,0.423148,-0.632507,-2.441116,-31.322098,-4.201805,170.38156,-1.4647717,2.282784,0.3963955,-1.0502856,0.3704098,0.9216523
20231225 03:39:10,-2.547355,3.075038,1.890094,-0.698024,0.473219,-0.532364,-1.753326,-31.080009,-4.344742,172.24124,-1.4203355,1.9841496,-0.16836584,-0.95146394,0.3898049,0.8000512
20231225 03:39:10,-2.925252,2.811352,2.757773,-0.569117,0.425279,-0.401327,-1.578407,-30.679764,-5.172958,172.03366,-1.3673984,1.4123144,-0.8301263,-0.76258266,0.33161598,0.6068288
20231225 03:39:10,-3.162201,2.280984,3.134437,-0.377355,0.323005,-0.236198,-1.568287,-31.160416,-4.337654,173.24773,-1.4450564,0.771487,-1.131078,-0.49426275,0.24564552,0.36955217
20231225 03:39:10,-2.904982,1.560638,3.052871,-0.136586,0.201556,-0.063611,-1.711460,-30.971207,-5.289223,172.51974,-1.1793271,0.33163837,-1.2339087,-0.17842287,0.1693854,0.10282333
20231225 03:39:10,-2.136536,0.988897,2.446940,0.116967,0.090759,0.069557,-1.471859,-30.865280,-4.757874,174.04095,-0.6695987,0.27011436,-1.0237122,0.12441663,0.10242896,-0.12855276
20231225 03:39:10,-1.167488,0.496222,1.502007,0.341755,0.003401,0.137740,-1.595566,-31.253578,-4.599785,174.57524,-0.20830101,0.22250135,-0.6552857,0.36043355,0.03486814,-0.30166483
20231225 03:39:10,-0.308656,0.013919,0.590212,0.516472,-0.081827,0.152654,-1.399376,-30.488899,-4.245834,175.74257,0.08150375,-0.026848514,-0.30848742,0.5143725,-0.05834446,-0.41449952
20231225 03:39:10,0.364427,-0.295568,-0.530513,0.630465,-0.137225,0.124955,-1.946945,-31.286499,-4.065239,175.00981,-0.04431507,-0.29932642,0.20868509,0.57151747,-0.13977562,-0.4793305
20231225 03:39:10,0.902334,-0.386958,-1.511438,0.678405,-0.172382,0.073819,-1.795197,-31.188797,-3.400253,175.92351,-0.37694454,-0.5442199,0.5212213,0.53860456,-0.21403138,-0.5038407
20231225 03:39:10,1.220456,-0.408288,-2.435176,0.670948,-0.144683,0.008832,-1.840019,-31.663895,-3.369690,175.89914,-0.97564673,-0.76477337,0.7809388,0.44884205,-0.20541619,-0.49016136
20231225 03:39:10,1.317711,-0.293434,-2.998586,0.612354,-0.082892,-0.052958,-1.680073,-31.087402,-3.271767,176.38004,-1.483088,-0.8445277,0.89444685,0.33734235,-0.15734093,-0.43612134
20231225 03:39:10,1.425905,-0.323642,-3.370210,0.518603,-0.005122,-0.121140,-1.704014,-31.006157,-2.339508,175.96954,-1.7861078,-1.0373889,0.9468719,0.22319591,-0.089243695,-0.33559725
20231225 03:39:10,1.438765,-0.223458,-3.435487,0.400349,0.049211,-0.212760,-1.572762,-31.656693,-2.295738,176.24698,-1.8864672,-0.9150776,0.8939148,0.07823561,-0.030450512,-0.1971592
20231225 03:39:10,1.341689,-0.058646,-3.342338,0.276769,0.101413,-0.308641,-1.194103,-31.530602,-2.568138,177.2912,-1.845392,-0.5839727,0.9312681,-0.06576985,0.03780723,-0.039337263
20231225 03:39:10,1.096668,0.094393,-3.003036,0.158515,0.137635,-0.406653,-1.484917,-31.648460,-2.429375,175.71492,-1.681103,-0.12027336,0.9740523,-0.21454722,0.10782091,0.118268594
20231225 03:39:10,0.747862,0.347342,-2.496666,0.057307,0.141896,-0.494012,-0.981785,-31.517845,-2.298920,176.65436,-1.4406842,0.45470753,1.0174648,-0.34590858,0.16044068,0.2680039
20231225 03:39:10,0.117388,0.660322,-1.825299,-0.027920,0.092890,-0.561129,-0.654724,-31.211792,-2.181671,177.12828,-1.3347319,0.86620045,1.111556,-0.44103006,0.15103127,0.3929396
20231225 03:39:10,-0.555506,1.067739,-1.256423,-0.100364,0.002335,-0.594155,-0.320507,-31.752693,-2.143036,177.6984,-1.4541698,1.1640692,1.2336988,-0.49105412,0.0876848,0.47857255
20231225 03:39:10,-1.187654,1.463302,-0.823195,-0.176004,-0.123376,-0.593089,0.154961,-31.523354,-2.555191,178.1733,-1.7117333,1.3236414,1.3949778,-0.5024028,-0.023020819,0.539356
20231225 03:39:10,-1.783106,1.820849,-0.530416,-0.256970,-0.242695,-0.549410,0.640163,-31.582771,-2.412514,179.17155,-2.0789185,1.3731016,1.627163,-0.48089886,-0.14711574,0.57028705
20231225 03:39:10,-2.321862,2.065942,-0.274880,-0.313434,-0.313008,-0.458855,0.367279,-31.510597,-2.285973,178.41725,-2.4123876,1.3075857,1.7819328,-0.43054864,-0.24774899,0.55306184
20231225 03:39:10,-2.616323,2.162410,0.087004,-0.309172,-0.322596,-0.328883,0.612499,-31.484055,-2.955116,178.26921,-2.4507332,1.1840876,1.6793603,-0.34222084,-0.29529077,0.45838368
20231225 03:39:10,-2.668863,2.107796,0.427875,-0.237794,-0.272524,-0.196780,0.454353,-31.118584,-2.980545,178.08762,-2.2636595,1.0843343,1.4007887,-0.2299121,-0.26996005,0.31177008
20231225 03:39:10,-2.530964,1.890531,0.689609,-0.123802,-0.210734,-0.092376,0.869255,-30.804314,-2.996933,179.29027,-1.9565493,0.90885895,1.0891514,-0.101279825,-0.20919795,0.15245453
20231225 03:39:10,-2.346591,1.647358,0.817101,-0.000221,-0.164924,-0.022063,0.515308,-31.395424,-3.095840,178.6111,-1.6748768,0.77903175,0.8222253,0.02131867,-0.150988,0.02030886
20231225 03:39:10,-2.058535,1.409156,0.767716,0.116967,-0.154271,0.018421,0.815468,-31.374435,-2.960251,179.68045,-1.3941575,0.7106495,0.7134232,0.13124624,-0.123088434,-0.088043794
20231225 03:39:10,-1.676843,1.325212,0.498086,0.214979,-0.148944,0.036531,0.260735,-31.325081,-2.701050,178.74243,-1.1877804,0.84391,0.7007358,0.21188118,-0.105850935,-0.16599612
20231225 03:39:10,-1.303897,1.231864,0.098391,0.279965,-0.154271,0.046120,0.461903,-32.157425,-2.778694,179.42096,-1.0994065,0.9474125,0.796218,0.26212817,-0.1073522,-0.22148848
20231225 03:39:10,-0.909416,1.058241,-0.192053,0.292749,-0.187297,0.053577,0.321690,-31.601913,-2.816353,179.39374,-0.9331948,0.9355889,0.7508432,0.27488962,-0.14958958,-0.2368455
20231225 03:39:10,-0.406746,0.827621,-0.491424,0.266116,-0.238433,0.039727,0.490982,-31.122284,-2.444061,-179.44539,-0.69774306,0.82706,0.6422049,0.23927338,-0.21744107,-0.21381049
20231225 03:39:10,0.211679,0.655306,-0.660853,0.217110,-0.291701,-0.017801,0.145996,-31.618370,-2.549072,-179.8628,-0.32380784,0.67779905,0.3292269,0.15136613,-0.28516966,-0.13857846
20231225 03:39:10,0.642497,0.561842,-0.813933,0.167038,-0.326857,-0.125401,0.649128,-31.487755,-2.418633,-178.15546,-0.11422169,0.5549368,0.13810375,0.028773412,-0.32823536,-0.036086895
20231225 03:39:10,0.790881,0.587949,-1.129803,0.120163,-0.285309,-0.256439,0.585606,-31.769112,-2.936775,-178.25337,-0.257298,0.57659227,0.23051596,-0.10220936,-0.28752792,0.08605502
20231225 03:39:10,0.558873,0.711835,-1.048209,0.066896,-0.212865,-0.388542,0.684986,-31.107674,-2.443085,-178.44289,-0.3876887,0.7765828,0.34572375,-0.22197992,-0.1937333,0.21945313
20231225 03:39:10,-0.020248,0.954738,-0.682370,0.036000,-0.147879,-0.495077,1.197468,-31.073921,-2.038277,-177.56354,-0.5876994,1.0135578,0.5294874,-0.30176163,-0.090238154,0.32314223
20231225 03:39:10,-0.771740,1.216214,-0.230134,0.049850,-0.070108,-0.536626,1.292473,-31.912643,-2.250519,-178.07181,-0.9119045,1.086495,0.72596186,-0.30951762,0.027090713,0.35493332
20231225 03:39:10,-1.481651,1.589470,0.467673,0.146797,0.040688,-0.516384,1.822117,-31.305084,-2.418884,-177.15263,-1.1046234,1.1267359,0.69650614,-0.22788817,0.166531,0.28871018
20231225 03:39:10,-1.877887,1.909961,1.097243,0.304468,0.109936,-0.465248,2.306931,-31.172607,-2.556671,-176.2105,-1.1105506,1.169568,0.5037161,-0.083664924,0.26752555,0.15537569
20231225 03:39:10,-2.183671,2.269760,1.455982,0.475989,0.107805,-0.408784,2.016506,-31.482353,-2.137428,-176.83063,-1.20089,1.2766167,0.48537064,0.06894004,0.3103956,-0.013588607
20231225 03:39:10,-2.448656,2.833707,1.280911,0.581459,0.033231,-0.325687,2.431789,-31.359962,-1.873344,-175.53743,-1.6141272,1.6724365,0.9955361,0.185391,0.2655298,-0.18262297
20231225 03:39:10,-2.454290,3.272948,0.694602,0.561217,-0.046671,-0.207433,2.459068,-31.266800,-1.611221,-175.01936,-2.0901911,2.1974657,1.5627542,0.2432469,0.15948148,-0.284681
20231225 03:39:10,-2.160081,3.295420,0.281069,0.440833,-0.106330,-0.051892,2.584961,-30.128410,-1.416336,-173.79991,-2.0547936,2.5506575,1.6878505,0.277695,0.010728915,-0.30813897
20231225 03:39:10,-1.502570,3.061567,0.127366,0.266116,-0.129768,0.097256,2.629131,-31.170944,-0.677979,-173.03305,-1.4770606,2.6879158,1.2961863,0.27019262,-0.10001154,-0.27466857
20231225 03:39:10,-0.746956,2.601084,0.366992,0.091399,-0.127637,0.227229,2.832485,-31.253212,-0.402649,-172.57259,-0.5502718,2.445369,0.52121305,0.23997799,-0.14200659,-0.2330849
20231225 03:39:10,-0.086657,1.749618,0.721847,-0.074796,-0.138290,0.291150,2.053898,-31.869835,-1.040001,-175.07014,0.32217255,1.6972775,-0.3615686,0.14824575,-0.15889628,-0.17251903
20231225 03:39:10,0.319439,0.850136,1.027147,-0.231402,-0.150009,0.307130,2.205265,-31.580246,-0.655479,-174.91757,0.86147344,0.8347913,-0.944535,0.009021312,-0.16434312,-0.11021741
20231225 03:39:10,0.563098,0.042794,1.320021,-0.349656,-0.130833,0.308195,1.886406,-31.407494,-1.339790,-175.8077,1.1962333,0.03911361,-1.4064629,-0.12129612,-0.13743825,-0.07217358
20231225 03:39:10,0.691366,-0.866425,1.619852,-0.439145,-0.082892,0.284758,1.700981,-31.135201,-1.627350,-176.36249,1.3653028,-0.8661868,-1.8012338,-0.25615692,-0.08202528,-0.05172944
20231225 03:39:10,0.810832,-1.757596,2.192058,-0.463648,-0.053063,0.214445,1.489048,-31.339851,-1.616104,-176.9655,1.550902,-1.7565775,-2.4202592,-0.35244343,-0.045253538,-0.031022087
20231225 03:39:10,0.877116,-2.562195,2.832533,-0.366701,-0.046671,0.075949,1.513756,-31.804863,-1.987411,-177.03874,1.6841407,-2.5617602,-3.0877001,-0.32667494,-0.04224777,0.036417328
20231225 03:39:10,0.723929,-2.976634,3.214408,-0.132325,-0.021102,-0.103029,1.609798,-31.317841,-2.688103,-176.92816,1.6115756,-2.9793093,-3.436809,-0.1558964,-0.0224827,0.13489607
20231225 03:39:10,0.333849,-2.882712,3.088234,0.193672,0.049211,-0.269223,1.691631,-31.038322,-1.901703,-176.90714,1.3583009,-2.9218094,-3.1776323,0.09728169,0.06774829,0.19593702
20231225 03:39:10,-0.391802,-2.267814,2.521739,0.494100,0.104609,-0.365105,1.752201,-31.123276,-2.297470,-177.11456,0.7648592,-2.445737,-2.260798,0.3039685,0.19288866,0.14335068
20231225 03:39:10,-1.000454,-1.569426,1.655991,0.682667,0.112066,-0.365105,2.123432,-31.859756,-1.441879,-176.30563,0.08390331,-1.9113156,-1.0459484,0.41125327,0.28578076,-0.0072534382
20231225 03:39:10,-1.448663,-0.925071,0.742675,0.749784,0.097151,-0.272419,2.238937,-31.950241,-1.032906,-175.85191,-0.63912976,-1.3542105,0.15495157,0.45427656,0.3172962,-0.19498052
20231225 03:39:10,-1.545536,-0.407990,-0.086568,0.723150,0.071583,-0.104095,2.426548,-31.472466,-0.392372,-174.67816,-1.1634852,-0.73447764,1.0231832,0.47972977,0.25813314,-0.37639013
20231225 03:39:10,-1.164883,-0.269971,-0.792069,0.621942,0.059864,0.092995,2.163013,-31.497147,0.008530,-174.76031,-1.331102,-0.34242427,1.3504119,0.50915176,0.15711404,-0.48450655
20231225 03:39:10,-0.421097,-0.392594,-1.118299,0.454682,0.018316,0.264516,2.569336,-31.469780,0.278725,-173.62144,-1.0284367,-0.33379295,1.0706143,0.51069033,0.037481725,-0.49991918
20231225 03:39:10,0.433850,-0.863927,-1.091825,0.262920,-0.057324,0.356136,2.047890,-31.598557,-0.119972,-175.16147,-0.36753222,-0.86686796,0.50180197,0.4298939,-0.057249315,-0.44464058
20231225 03:39:10,1.170756,-1.404091,-0.963480,0.080745,-0.152140,0.371051,2.084133,-31.410370,0.136040,-175.34918,0.27151865,-1.5536627,-0.027764618,0.2769567,-0.13486303,-0.353896
20231225 03:39:10,1.691601,-1.805527,-0.873676,-0.070534,-0.194754,0.332698,1.730179,-32.001465,0.037140,-176.3893,0.75004923,-2.1218324,-0.30501372,0.10255526,-0.14692368,-0.24768318
20231225 03:39:10,2.147381,-2.008893,-0.592332,-0.162154,-0.208603,0.247470,1.802284,-31.433205,0.268707,-176.41162,1.2957509,-2.427375,-0.72937775,-0.035351276,-0.14511648,-0.13643731
20231225 03:39:10,2.282111,-2.033099,-0.319132,-0.206899,-0.207538,0.148393,1.802670,-31.625092,0.549171,-176.5901,1.5647589,-2.4429562,-1.0110911,-0.12535432,-0.14775716,-0.030344166
20231225 03:39:10,2.160127,-1.912879,-0.196968,-0.220748,-0.180904,0.071688,1.581387,-31.732872,0.286064,-176.85472,1.5350751,-2.2506447,-1.0655574,-0.16853167,-0.13405049,0.047691796
20231225 03:39:10,1.982829,-1.653087,-0.056301,-0.227141,-0.146813,0.025878,1.562305,-31.347252,-0.543121,-176.43382,1.4829292,-1.9174123,-1.1150643,-0.19050352,-0.10984576,0.093881905
20231225 03:39:10,1.756008,-1.419186,0.045418,-0.252709,-0.131898,-0.007148,1.562305,-31.347252,-0.543121,-176.42764,1.3850375,-1.5981455,-1.080562,-0.22434603,-0.103198074,0.1385472
20231225 03:39:10,1.446008,-1.152400,0.166658,-0.284669,-0.142552,-0.022063,1.385845,-30.979927,-0.836792,-176.68207,1.2265581,-1.2429626,-1.0146384,-0.25361213,-0.12280013,0.1733461
20231225 03:39:10,1.134233,-0.867096,0.280772,-0.315564,-0.155336,-0.018867,1.473309,-30.779808,-1.250900,-176.39745,1.060423,-0.90806705,-0.92785513,-0.27355695,-0.14143726,0.18950044
20231225 03:39:10,0.843177,-0.656808,0.402368,-0.336871,-0.171316,-0.006082,1.216167,-31.267662,-1.489555,-177.087,0.91065466,-0.6678812,-0.8436761,-0.2803805,-0.16452573,0.19329914
20231225 03:39:10,0.655921,-0.546037,0.536839,-0.353917,-0.188362,0.016290,1.773087,-30.566925,-1.395790,-175.81201,0.84557396,-0.54586893,-0.84787726,-0.28005594,-0.18858181,0.17903505
20231225 03:39:10,0.446978,-0.436797,0.753700,-0.361374,-0.222453,0.040793,1.463959,-30.682938,-1.525253,-176.63205,0.80110157,-0.43792072,-0.8941933,-0.27156386,-0.2287777,0.16123343
20231225 03:39:10,0.332384,-0.399288,0.921867,-0.350721,-0.255479,0.062100,1.429131,-29.737274,-1.989243,-176.62485,0.79716194,-0.40452957,-0.9677279,-0.25233,-0.26258796,0.13300094
20231225 03:39:10,0.281802,-0.377716,1.016784,-0.300650,-0.254413,0.069557,1.481121,-30.109116,-2.098427,-176.56252,0.8055409,-0.38560382,-1.0185767,-0.20746882,-0.26127225,0.09723921
20231225 03:39:10,0.203335,-0.308027,1.022079,-0.214356,-0.200081,0.068492,1.276348,-31.160721,-2.165787,-177.20282,0.74876785,-0.3223595,-0.97090113,-0.13472895,-0.2076614,0.05591373
20231225 03:39:11,0.082295,-0.267032,1.043054,-0.103560,-0.106330,0.071688,1.552185,-30.866600,-1.378426,-176.56996,0.65824986,-0.29129001,-0.9222555,-0.04293551,-0.11221135,-0.006642334
20231225 03:39:11,-0.057762,-0.301754,1.114483,0.020020,-0.022168,0.075949,1.049442,-31.189110,-1.228401,-177.8094,0.5801185,-0.34559184,-0.90406334,0.059523776,-0.023820242,-0.07495304
20231225 03:39:11,-0.228038,-0.293058,1.054812,0.131882,0.023642,0.089799,1.622490,-31.240295,-1.219360,-176.54045,0.4137648,-0.35528517,-0.7587611,0.15831187,0.02833432,-0.14697185
20231225 03:39:11,-0.262015,-0.314243,0.803720,0.227763,0.050276,0.112171,1.277115,-31.544495,-1.604851,-177.36711,0.26105264,-0.36848685,-0.5179735,0.24826193,0.06006528,-0.2207596
20231225 03:39:11,-0.211801,-0.385214,0.422624,0.291684,0.064126,0.129217,1.022163,-31.282272,-1.490532,-177.86877,0.09781399,-0.41712087,-0.22549543,0.30818075,0.07632967,-0.27520934
20231225 03:39:11,-0.078091,-0.481477,-0.061807,0.306599,0.071583,0.143066,0.864403,-31.108696,-1.235489,-178.10313,-0.081884146,-0.48204723,0.08403438,0.32727012,0.0807315,-0.2988142
20231225 03:39:11,0.083460,-0.577759,-0.470633,0.276769,0.067322,0.145197,0.970173,-30.910431,-1.381355,-177.71071,-0.21928114,-0.565822,0.29513708,0.30507693,0.071279086,-0.28478593
20231225 03:39:11,0.249137,-0.673096,-0.799548,0.213914,0.068387,0.133478,1.031513,-31.379150,-1.216171,-177.51938,-0.3147928,-0.65821826,0.42868853,0.24868774,0.06999703,-0.23747739
20231225 03:39:11,0.288808,-0.674543,-1.005132,0.131882,0.082237,0.121759,0.785904,-31.213791,-0.827499,-178.08955,-0.42722,-0.6606696,0.55826277,0.17851311,0.08255811,-0.17612627
20231225 03:39:11,0.306480,-0.724658,-1.040745,0.047719,0.113132,0.112171,1.156368,-31.566505,-0.532852,-177.22873,-0.43216997,-0.7114279,0.56818813,0.10785643,0.11259581,-0.11215393
20231225 03:39:11,0.324758,-0.692003,-0.866082,-0.020463,0.142961,0.090864,0.697674,-31.030136,-0.974335,-178.32036,-0.29621807,-0.67861074,0.44279295,0.0408011,0.14172003,-0.053564716
20231225 03:39:11,0.251053,-0.597244,-0.650243,-0.067338,0.163203,0.054642,0.671551,-31.698975,-0.395050,-178.44902,-0.20347089,-0.57756674,0.33312118,-0.02104929,0.16034353,0.003568612
20231225 03:39:11,0.076071,-0.463672,-0.365672,-0.086515,0.180249,0.014159,0.925735,-31.577415,-1.070313,-177.95998,-0.15011963,-0.44223535,0.22316776,-0.06627537,0.17446543,0.048469454
20231225 03:39:11,-0.216745,-0.138179,-0.113502,-0.074796,0.191967,-0.014605,0.873749,-31.205566,-0.961136,-178.12059,-0.2290029,-0.1475606,0.22254856,-0.08013478,0.18558118,0.06399082
20231225 03:39:11,-0.556709,0.221202,-0.040155,-0.050293,0.213274,-0.010344,0.829308,-31.872551,-0.650093,-178.25609,-0.46871606,0.15623505,0.40110314,-0.066779986,0.20567174,0.045730747
20231225 03:39:11,-0.887658,0.515615,0.008445,-0.025790,0.246300,0.038662,0.822151,-31.025604,-0.571480,-178.23796,-0.7237793,0.38147908,0.5927344,-0.0245777,0.23361464,-0.0062419306
20231225 03:39:11,-0.972875,0.622930,0.123295,0.004040,0.271869,0.122825,0.749275,-31.210091,-1.363991,-178.77074,-0.7270992,0.46063477,0.56015027,0.049260143,0.2525384,-0.0904802
20231225 03:39:11,-0.844178,0.586273,0.151369,0.032804,0.276130,0.218706,1.058788,-31.285973,-0.954048,-177.75449,-0.5985044,0.46376526,0.45795134,0.13823333,0.25408453,-0.1781441
20231225 03:39:11,-0.463400,0.312793,0.040110,0.057307,0.277195,0.300738,0.494705,-31.139763,-0.969200,-179.00473,-0.34658173,0.27563757,0.27338773,0.22049828,0.26173386,-0.26268017
20231225 03:39:11,0.112719,-0.050413,-0.145990,0.073288,0.273999,0.340156,-0.025585,-31.844200,-0.526482,179.90906,-0.0047899634,-0.045978263,0.04128538,0.2682467,0.26999897,-0.30966663
20231225 03:39:11,0.580227,-0.416200,-0.318854,0.078614,0.265476,0.331633,-0.016621,-31.749184,-0.532593,-179.9956,0.24386634,-0.43858016,-0.11468387,0.2745791,0.27039546,-0.30779222
20231225 03:39:11,0.893940,-0.642635,-0.479098,0.081810,0.259084,0.289019,-0.405014,-31.586510,-0.815018,179.17976,0.3725024,-0.7119291,-0.17560017,0.25518337,0.2666914,-0.2798526
20231225 03:39:11,1.054139,-0.713273,-0.583658,0.095660,0.262280,0.226163,-0.238289,-31.665070,-1.076172,179.64062,0.41143698,-0.8078482,-0.211447,0.23025724,0.26704502,-0.2369388
20231225 03:39:11,1.010248,-0.624451,-0.691698,0.115902,0.268672,0.162243,-0.387085,-31.396469,-0.827240,179.17545,0.29943955,-0.6965174,-0.11928153,0.20359561,0.26918295,-0.20163402
20231225 03:39:11,0.815225,-0.441224,-0.793507,0.125490,0.263346,0.114302,-0.050293,-31.379173,-0.155167,179.88832,0.06813371,-0.47713077,0.047198474,0.17528689,0.26266837,-0.16925864
20231225 03:39:11,0.630002,-0.206149,-0.904193,0.123359,0.258019,0.090864,-0.368389,-31.590210,-0.278534,179.06592,-0.1705125,-0.20475166,0.21931937,0.1517035,0.25805268,-0.15398237
20231225 03:39:11,0.472062,0.100438,-0.979006,0.109509,0.246300,0.092995,-0.289124,-31.868881,-0.125580,179.25298,-0.36413398,0.119755246,0.3530257,0.13983735,0.24646458,-0.14549676
20231225 03:39:11,0.418146,0.259398,-1.026213,0.078614,0.220732,0.105779,-0.368771,-31.398323,-0.558998,178.99168,-0.44871786,0.27574053,0.41070008,0.12813498,0.22036543,-0.1327625
20231225 03:39:11,0.519438,0.362812,-0.965313,0.053046,0.186641,0.110040,-0.711185,-31.336212,-0.030571,178.11644,-0.3370653,0.35391483,0.28250507,0.11734593,0.18699501,-0.11856021
20231225 03:39:11,0.689127,0.486851,-1.080860,0.032804,0.147223,0.104714,-0.570972,-31.891724,0.007080,178.48782,-0.31674978,0.4527715,0.21793395,0.10206794,0.1486391,-0.09774741
20231225 03:39:11,0.791988,0.588210,-1.214273,0.014693,0.136569,0.089799,-0.783291,-31.904480,-0.262146,177.87244,-0.3740437,0.53032494,0.18846148,0.08131982,0.13877651,-0.07348098
20231225 03:39:11,0.849965,0.822104,-1.305370,-0.000221,0.151484,0.067427,-1.046822,-31.929176,0.138756,177.09016,-0.4181763,0.7519075,0.16642624,0.056463864,0.15364802,-0.04830067
20231225 03:39:11,0.826874,1.018296,-1.330075,-0.010875,0.180249,0.041858,-0.562008,-31.796707,0.000969,178.41243,-0.46730304,0.9601867,0.19316894,0.030416764,0.18157454,-0.021496823
20231225 03:39:11,0.822400,1.155296,-1.202237,-0.027920,0.215405,0.013094,-1.029278,-31.547249,-0.153938,177.09245,-0.36708605,1.1179091,0.10651028,-0.0037627872,0.2160498,0.0058975173
20231225 03:39:11,0.750089,1.200214,-0.889235,-0.044966,0.218601,-0.018867,-0.359425,-31.495193,-0.284645,179.027,-0.14247894,1.1750981,0.021074355,-0.040576734,0.2188921,0.043600455
20231225 03:39:11,0.768305,1.054987,-0.640067,-0.046031,0.212209,-0.060415,-0.464809,-31.885345,0.141685,178.78465,0.07267311,1.0416609,-0.13433859,-0.07346754,0.21202624,0.07185002
20231225 03:39:11,0.688495,1.053633,-0.302778,-0.036443,0.193033,-0.108356,-0.613605,-31.616745,0.390625,178.43268,0.25948128,1.0574528,-0.30200163,-0.10379867,0.19331683,0.098007426
20231225 03:39:11,0.547474,1.023222,-0.111797,-0.034313,0.147223,-0.140316,-0.807995,-31.439468,0.109169,177.9412,0.28730726,1.0368716,-0.3331387,-0.12641071,0.14941382,0.11983457
20231225 03:39:11,0.385954,1.014637,-0.021935,-0.036443,0.105674,-0.147774,-0.622955,-31.519882,0.116257,178.43245,0.22499038,1.0274112,-0.27529892,-0.13320215,0.109296985,0.12866788
20231225 03:39:11,0.355859,1.008649,0.036124,-0.039639,0.073714,-0.138186,-0.738083,-31.621269,-0.012238,178.12045,0.24721465,1.0176429,-0.29952526,-0.12756538,0.076666504,0.12432036
20231225 03:39:11,0.344962,1.084253,-0.052152,-0.044966,0.077975,-0.130728,-0.519367,-32.071686,-0.382568,178.62422,0.16781536,1.0971329,-0.22567524,-0.12697169,0.080966,0.12283692
20231225 03:39:11,0.296271,1.064282,-0.059069,-0.043901,0.103544,-0.131794,-0.359425,-31.495193,-0.284645,179.02603,0.12168507,1.0779008,-0.17989843,-0.12844165,0.1071955,0.12313603
20231225 03:39:11,0.214150,0.986749,-0.051146,-0.033247,0.139765,-0.137120,-0.519753,-31.879791,-0.663040,178.53596,0.06388253,0.9982049,-0.13201673,-0.12718049,0.14488353,0.11836013
20231225 03:39:11,0.108922,0.982701,-0.008759,-0.019398,0.165334,-0.148839,-0.456230,-31.598434,-0.144897,178.79922,0.0010746196,0.9861022,-0.085143596,-0.12988596,0.17370565,0.11680535
20231225 03:39:11,-0.058102,1.188269,-0.010888,-0.009810,0.178118,-0.165885,-0.130978,-32.234352,-0.100151,179.63693,-0.15733846,1.174186,0.043803398,-0.1405623,0.19096372,0.122449495
20231225 03:39:11,-0.332819,1.462138,-0.007500,0.004040,0.184510,-0.174407,-0.015469,-32.324844,0.308823,-179.904,-0.41582108,1.4023764,0.24860242,-0.14497876,0.20394044,0.11714068
20231225 03:39:11,-0.615820,1.815357,-0.041248,0.029608,0.193033,-0.158427,-0.182964,-31.862503,0.009033,179.5244,-0.73820186,1.6873394,0.47672787,-0.12722075,0.21864434,0.08238296
20231225 03:39:11,-0.934472,2.287425,-0.190117,0.053046,0.213274,-0.112617,0.152676,-31.269547,-0.160309,-179.69362,-1.1931378,2.0931728,0.8480672,-0.092172705,0.23717591,0.031896174
20231225 03:39:11,-1.161269,2.866798,-0.251472,0.027478,0.207948,-0.038043,0.205044,-31.833282,0.010986,-179.4156,-1.5446477,2.6030216,1.0874348,-0.058137346,0.21271712,0.0031199176
20231225 03:39:11,-1.173817,3.184286,-0.334645,-0.070534,0.164268,0.062100,0.293659,-32.208839,0.438301,-178.85411,-1.647678,2.9463198,1.1716206,-0.030691415,0.13356888,0.019698832
20231225 03:39:11,-0.828338,2.948810,-0.245768,-0.200507,0.111001,0.163308,-0.306282,-32.442703,0.447594,179.40335,-1.1345568,2.8356931,0.77719766,-0.018743783,0.062107842,0.05099009
20231225 03:39:11,-0.093531,2.418588,0.088236,-0.287865,0.116328,0.227229,-0.095119,-31.854271,-0.124603,179.72076,-0.12632728,2.4031324,0.0021414831,-0.03155218,0.090047196,0.060345218
20231225 03:39:11,0.644983,1.997568,0.601027,-0.327283,0.156811,0.218706,-0.068607,-31.377327,-0.423409,179.81421,0.8710178,1.9978101,-0.88531613,-0.08160186,0.15395357,0.07239215
20231225 03:39:11,0.905663,1.640323,1.105822,-0.366701,0.170660,0.149458,-0.467384,-32.443542,-0.491753,178.88904,1.4094907,1.6403165,-1.4524148,-0.17776603,0.17060992,0.12631452
20231225 03:39:11,0.804422,1.333354,1.733366,-0.412511,0.109936,0.062100,0.019619,-31.560989,-0.276581,-179.96495,1.6856232,1.3262299,-1.8615245,-0.2886352,0.104027346,0.20423648
20231225 03:39:11,0.650851,1.045662,2.310613,-0.439145,0.015120,-0.015671,-0.386700,-31.588364,-0.546776,179.08485,1.8558763,1.0176721,-2.2694533,-0.3660333,0.0034986818,0.26882035
20231225 03:39:11,0.471011,1.076210,2.636036,-0.425295,-0.077566,-0.063611,-0.413593,-31.873421,-0.528435,179.02249,1.8644041,1.016369,-2.4438155,-0.38244691,-0.093617655,0.29722837
20231225 03:39:11,0.294564,0.940382,2.841941,-0.368832,-0.143617,-0.070003,-0.177338,-31.941902,-1.191467,179.44452,1.7956772,0.85572875,-2.5296483,-0.34005103,-0.15981871,0.26515776
20231225 03:39:11,0.231898,0.711522,2.816908,-0.279343,-0.127637,-0.041239,-0.441643,-31.582809,-1.351509,178.83928,1.686908,0.6281503,-2.5093708,-0.2532149,-0.1405988,0.18746802
20231225 03:39:11,0.275276,0.253316,2.860433,-0.157893,-0.026429,0.001375,-0.530254,-31.207260,-1.778816,178.66196,1.6336846,0.19701259,-2.6330009,-0.1363506,-0.033069104,0.076691106
20231225 03:39:11,0.420563,-0.553554,3.142507,0.010432,0.111001,0.013094,-0.265953,-31.566353,-1.618774,179.30414,1.7170122,-0.59599113,-3.0200381,0.012846472,0.11106481,-0.017494844
20231225 03:39:11,0.305716,-1.508360,3.400247,0.220306,0.248431,-0.003952,-0.211781,-31.188118,-1.374985,179.405,1.51559,-1.5629246,-3.2749994,0.19925551,0.26103505,-0.07635734
20231225 03:39:11,0.083218,-2.283598,3.559706,0.460009,0.359227,-0.023128,-0.274918,-31.661369,-1.612663,179.19916,1.1665297,-2.3592072,-3.4000397,0.42431265,0.3975252,-0.1160514
20231225 03:39:11,-0.251460,-3.032100,3.710472,0.716758,0.315548,-0.057219,-0.210625,-31.763794,-0.533569,179.49556,0.7582463,-3.1447585,-3.5055196,0.6712366,0.39386204,-0.12543002
20231225 03:39:11,-0.411618,-3.446238,3.176010,0.962853,0.184510,-0.093441,-0.217403,-31.108727,-0.174484,179.54263,0.54006,-3.5824797,-2.9347916,0.8995048,0.31566533,-0.16021043
20231225 03:39:11,-0.450369,-3.455557,2.023387,1.157812,0.054537,-0.113683,-0.243149,-31.969460,0.685272,179.74924,0.37589413,-3.5795434,-1.7622434,1.0599661,0.23013274,-0.25907215
20231225 03:39:11,-0.344515,-3.240293,0.678461,1.244105,-0.057324,-0.117944,0.111191,-31.570236,1.064651,-179.43916,0.17878127,-3.2935646,-0.5072215,1.0917006,0.13968961,-0.4015398
20231225 03:39:11,-0.152749,-2.863162,-0.707772,1.170596,-0.137225,-0.117944,0.006184,-32.152275,1.771454,-179.33554,-0.22511475,-2.7710545,0.65147084,0.9397993,0.054827515,-0.52852035
20231225 03:39:11,-0.031792,-2.303368,-1.961479,0.946873,-0.187297,-0.116879,-0.070126,-31.507309,2.532417,-179.05959,-1.051718,-2.0155067,1.41921,0.63303477,-0.040563557,-0.56798846
20231225 03:39:11,0.206665,-1.644209,-2.802873,0.596373,-0.154271,-0.130728,0.557480,-31.372154,3.065720,-177.3096,-1.8272964,-1.261056,1.544517,0.29181996,-0.07781327,-0.38757634
20231225 03:39:11,0.317999,-1.131783,-3.043984,0.194737,-0.061585,-0.163754,0.521236,-31.560349,2.809708,-177.30258,-2.041575,-0.6625911,1.5510569,-0.0024357587,-0.017802035,-0.058142133
20231225 03:39:11,0.103367,-0.720531,-2.478165,-0.181331,0.019381,-0.186126,0.476025,-31.843559,2.559799,-177.49417,-1.6191397,-0.2975723,1.5557913,-0.25953832,0.02263321,0.259718
20231225 03:39:11,-0.345598,-0.737062,-1.395767,-0.434883,0.105674,-0.175473,0.467445,-32.130463,2.846382,-177.46796,-1.0293761,-0.55468357,1.2553647,-0.45698428,0.050143678,0.42085546
20231225 03:39:11,-0.879198,-0.833360,-0.004484,-0.554202,0.165334,-0.137120,0.607277,-32.494087,2.603569,-177.43143,-0.60039866,-0.98972976,0.4769079,-0.55444044,0.0633792,0.4359273
20231225 03:39:11,-1.220823,-0.954570,1.158155,-0.559529,0.134439,-0.071069,0.571682,-31.164635,1.578636,-177.96696,-0.33511746,-1.358184,-0.38740635,-0.5327465,0.01179229,0.3544603
20231225 03:39:11,-1.435122,-1.144167,1.907854,-0.476432,0.069452,0.019486,0.439018,-31.647964,1.742836,-178.25246,-0.27244997,-1.6656029,-1.0491056,-0.42115024,-0.044759467,0.20670867
20231225 03:39:11,-1.445431,-1.351265,2.298313,-0.304911,-0.015775,0.120694,0.739563,-31.818863,2.158897,-177.58205,-0.12577355,-1.8689597,-1.438617,-0.21655384,-0.093241714,0.030661233
20231225 03:39:11,-1.065996,-1.338187,2.165999,-0.087580,-0.059455,0.208053,0.359749,-31.369286,1.589890,-178.63881,0.21411526,-1.706492,-1.4142315,0.026911229,-0.093629874,-0.14152402
20231225 03:39:11,-0.541371,-1.234344,1.481245,0.118032,-0.026429,0.257059,0.914867,-31.610512,1.611153,-177.6293,0.39446205,-1.407744,-1.02793,0.23480834,-0.031073805,-0.28173772
20231225 03:39:11,-0.260467,-1.248036,1.088346,0.268246,0.037492,0.260255,0.290604,-31.571251,2.272240,-178.86153,0.46819186,-1.3330146,-0.7764231,0.36467424,0.045879938,-0.36515594
20231225 03:39:11,0.309690,-1.209043,0.049399,0.343886,0.074779,0.215510,0.008755,-31.594093,2.404892,-179.51343,0.34345117,-1.184123,-0.23274286,0.39994788,0.08785747,-0.37767005
20231225 03:39:11,0.399656,-1.064078,-0.491255,0.371585,0.088629,0.155850,-0.203178,-31.798744,2.416145,-179.94193,0.055557787,-1.0004712,0.11756551,0.3787808,0.10562127,-0.35847744
20231225 03:39:11,0.353270,-0.922573,-0.964502,0.370520,0.114197,0.100452,0.098789,-30.835793,2.624237,-179.01099,-0.30790013,-0.8025594,0.4616675,0.33118418,0.13879733,-0.32266977
20231225 03:39:11,0.110961,-0.653458,-1.150058,0.341755,0.099282,0.063165,0.018105,-31.690964,2.679260,-178.94057,-0.6471648,-0.5014157,0.72869337,0.2750326,0.12989634,-0.2844254
20231225 03:39:11,0.045366,-0.593534,-1.313978,0.294880,0.071583,0.054642,-0.079090,-31.602325,2.538536,-178.96877,-0.81220806,-0.38730177,0.8701045,0.23266906,0.102905124,-0.24959695
20231225 03:39:11,-0.170102,-0.361278,-1.354341,0.263985,0.041753,0.062100,-0.193829,-31.895615,2.690506,-179.11975,-1.0275719,-0.173925,1.0478287,0.21883598,0.06884347,-0.23440425
20231225 03:39:11,-0.231060,-0.208722,-1.589550,0.141470,-0.064781,0.115367,-0.148624,-31.612404,2.940414,-178.8815,-1.2896734,0.0065430105,1.2203724,0.1881178,-0.06205996,-0.18324074
20231225 03:39:11,-0.007940,-0.236708,-1.760577,0.022151,-0.125506,0.155850,-0.491421,-31.358414,3.188362,179.99359,-1.2946391,-0.03290908,1.1573234,0.14542189,-0.13973004,-0.11866486
20231225 03:39:11,0.363772,-0.325131,-1.739264,-0.121671,-0.171316,0.161177,-0.685040,-31.564911,3.467857,178.96053,-1.0430382,-0.20977703,0.8803685,0.04971213,-0.18575872,-0.01316268
20231225 03:39:11,0.712854,-0.412542,-1.495924,-0.261232,-0.194754,0.122825,-0.633438,-31.744865,3.078201,178.62877,-0.5658585,-0.3874864,0.54327047,-0.09269525,-0.1990429,0.104105346
20231225 03:39:11,0.945800,-0.551935,-0.955997,-0.316630,-0.203277,0.084472,-0.448399,-31.825279,3.085289,178.94792,0.014614761,-0.55685186,0.037605762,-0.16955107,-0.20222707,0.1619324
20231225 03:39:11,0.900935,-0.642980,-0.368351,-0.414642,-0.232041,-0.077461,-0.342243,-31.818909,3.219902,179.38637,0.4696601,-0.62644005,-0.28187594,-0.36697048,-0.23679984,0.32494968
20231225 03:39:11,0.596927,-0.655670,0.148275,-0.416772,-0.236303,-0.181865,-0.546360,-31.352859,2.383629,179.16966,0.5911397,-0.6278867,-0.4730694,-0.43138894,-0.25081837,0.40047556
20231225 03:39:11,0.366284,-0.619827,0.391861,-0.370963,-0.216061,-0.253243,-0.239037,-32.178818,2.440598,-179.85107,0.5722489,-0.6071376,-0.53418285,-0.4313944,-0.23294994,0.42381173
20231225 03:39:11,-0.370341,-0.280332,0.999352,-0.282539,-0.188362,-0.278812,-0.415112,-32.003395,2.427399,-179.99062,0.30688313,-0.4273057,-0.59118104,-0.3711918,-0.19665502,0.39158618
20231225 03:39:11,-0.787473,-0.122337,1.270593,-0.160024,-0.138290,-0.275616,-0.009560,-31.592247,2.136650,-179.04808,0.09665632,-0.41428226,-0.57699084,-0.2695958,-0.12865503,0.31537366
20231225 03:39:11,-1.183725,0.085408,1.464054,-0.003417,-0.094611,-0.248982,0.078671,-31.775902,2.283493,-178.60791,-0.14413196,-0.3797915,-0.49252307,-0.12957558,-0.055116497,0.20197983
20231225 03:39:11,-1.552230,0.235389,1.354210,0.144666,-0.083958,-0.195714,-0.406532,-31.716484,2.140816,-179.50836,-0.49957556,-0.3675065,-0.1450184,0.017267525,-0.013055652,0.06858253
20231225 03:39:11,-1.655892,0.304976,0.952329,0.246939,-0.111657,-0.115813,0.299953,-31.668121,2.546600,-177.68672,-0.7752015,-0.27848047,0.3101356,0.14385566,-0.026532361,-0.06869392
20231225 03:39:11,-1.425250,0.300479,0.312766,0.278900,-0.163859,-0.032716,0.015530,-32.249153,2.045807,-178.68323,-0.9255858,-0.067387834,0.7135465,0.21861126,-0.09295888,-0.1627981
20231225 03:39:12,-1.203535,0.292477,0.043110,0.255462,-0.216061,0.023747,0.151157,-31.399521,2.795525,-178.15436,-0.8948533,0.073839135,0.7996701,0.23635447,-0.17067356,-0.1973124
20231225 03:39:12,-0.412192,0.003011,-0.664081,0.203260,-0.257609,0.042924,0.193794,-31.674500,2.411987,-178.63446,-0.7526132,0.029922575,0.76348746,0.2043064,-0.23551403,-0.1767913
20231225 03:39:12,0.090694,-0.249993,-0.941895,0.136143,-0.277851,0.020551,-0.254780,-31.618782,2.805801,-179.93164,-0.57286435,-0.17579754,0.60965425,0.13120088,-0.26807582,-0.1101328
20231225 03:39:12,0.377720,-0.310748,-1.013184,0.076484,-0.299158,-0.034847,0.300335,-31.860008,2.827065,-178.91167,-0.439244,-0.2529737,0.4411107,0.041507855,-0.29408553,-0.033763018
20231225 03:39:12,0.494323,-0.324943,-1.132709,0.054111,-0.285309,-0.065742,0.273827,-32.336952,3.125877,-178.9505,-0.4480978,-0.2571837,0.43549722,0.0028594323,-0.27988893,0.0037045442
20231225 03:39:12,0.333359,-0.085554,-1.108366,0.024282,-0.199015,-0.168015,0.318649,-31.861855,3.095314,-178.43788,-0.5593001,0.029469885,0.52273047,-0.08798912,-0.18244244,0.094717406
20231225 03:39:12,-0.118797,0.177540,-0.912068,0.020020,-0.179839,-0.196780,0.539551,-31.562195,3.077950,-177.41356,-0.751112,0.2780208,0.72371477,-0.10207328,-0.14887999,0.11645556
20231225 03:39:12,-0.618966,0.347633,-0.673655,0.009367,-0.189427,-0.217021,0.133228,-31.589561,2.807755,-178.09186,-0.959646,0.34832174,0.9215861,-0.111104704,-0.14525312,0.14117765
20231225 03:39:12,-0.802184,0.414740,-0.618277,0.005105,-0.232041,-0.183996,0.581802,-31.645279,2.413940,-177.0554,-1.0678015,0.36461836,1.0195711,-0.07684651,-0.18611464,0.117151834
20231225 03:39:12,-1.086174,0.543898,-0.537335,-0.008744,-0.282112,-0.116879,0.679764,-32.117699,3.115601,-176.54651,-1.2355665,0.42196667,1.1719384,-0.0327292,-0.2514163,0.07640189
20231225 03:39:12,-0.847032,0.338634,-0.608530,-0.025790,-0.317269,-0.058285,0.654671,-31.460800,3.206451,-176.84364,-1.0713893,0.29320782,1.0417187,-0.009136783,-0.30446273,0.04703784
20231225 03:39:12,-0.487165,0.141941,-0.697563,-0.042835,-0.337511,-0.045500,0.670799,-32.212723,3.121719,-177.25044,-0.8479161,0.16547386,0.84168327,-0.021276224,-0.33223945,0.050995447
20231225 03:39:12,-0.144317,0.044943,-0.857079,-0.062012,-0.354556,-0.066807,0.760834,-31.454422,3.341064,-177.23376,-0.7101625,0.10910058,0.70594776,-0.05870252,-0.3511879,0.0789842
20231225 03:39:12,-0.042384,-0.048293,-0.931150,-0.082253,-0.319400,-0.113683,0.485374,-31.940430,2.834160,-178.18121,-0.6802478,0.017859098,0.6879036,-0.11439018,-0.3153217,0.13136098
20231225 03:39:12,0.044025,-0.045058,-0.805197,-0.087580,-0.282112,-0.170146,0.776573,-32.014450,2.975861,-177.50142,-0.52566475,0.017856147,0.542335,-0.16018209,-0.27458972,0.17392221
20231225 03:39:12,-0.043307,0.067976,-0.576695,-0.086515,-0.271459,-0.222348,0.760834,-31.454422,3.341064,-177.2486,-0.43520853,0.11599812,0.44610375,-0.19073117,-0.25694877,0.21032985
20231225 03:39:12,-0.167914,0.172314,-0.472124,-0.086515,-0.274655,-0.243655,0.848675,-31.446190,3.207428,-177.00049,-0.46351272,0.20006202,0.46120438,-0.20340222,-0.25670648,0.2243009
20231225 03:39:12,-0.466601,0.516069,-0.357598,-0.095037,-0.294897,-0.282008,0.988506,-31.809799,2.964615,-176.48558,-0.6439477,0.4938413,0.6046081,-0.22601171,-0.26660153,0.253629
20231225 03:39:12,-0.624071,0.727238,-0.288746,-0.106756,-0.293831,-0.290530,1.112980,-31.805275,3.367470,-175.92354,-0.74322397,0.6659045,0.681533,-0.23572654,-0.26227015,0.26561493
20231225 03:39:12,-0.808836,0.936211,-0.103406,-0.097168,-0.271459,-0.301184,1.112980,-31.805275,3.367470,-175.76521,-0.7893919,0.80334014,0.69311094,-0.23409656,-0.2331578,0.26710144
20231225 03:39:12,-0.920454,1.025791,0.007431,-0.076926,-0.246956,-0.305445,1.254227,-31.035042,2.916679,-175.48784,-0.81489646,0.8479928,0.6980906,-0.22396529,-0.20406522,0.2570866
20231225 03:39:12,-1.271909,1.347345,0.435994,0.055177,-0.177708,-0.320360,1.727898,-31.747665,2.432022,-174.4549,-0.87419474,0.96250427,0.672773,-0.14197405,-0.098560795,0.17696738
20231225 03:39:12,-1.472218,1.462042,0.458097,0.109509,-0.160663,-0.312903,1.825474,-32.028191,2.853218,-173.87575,-1.0425858,0.9856001,0.82831097,-0.09941485,-0.06379065,0.1306479
20231225 03:39:12,-1.875823,1.732773,0.347496,0.252266,-0.120180,-0.227675,2.285583,-31.430710,3.086739,-172.00243,-1.5090989,1.0587574,1.2910063,0.050858736,0.01029342,-0.03959936
20231225 03:39:12,-2.103685,1.911826,-0.049192,0.283161,-0.115918,-0.179734,2.222061,-31.712074,2.568588,-172.43428,-1.981808,1.2608615,1.7475873,0.10135302,0.012244664,-0.09704969
20231225 03:39:12,-1.839214,1.698596,-0.297314,0.321514,-0.104199,-0.072134,2.118862,-31.352158,3.347900,-172.25902,-1.8599865,1.2662895,1.7144469,0.19102328,-0.009036383,-0.19970773
20231225 03:39:12,-1.641005,1.521900,-0.365455,0.338559,-0.078631,0.015224,2.076221,-31.077171,3.731438,-172.37346,-1.7010887,1.2011495,1.5917575,0.25656885,-0.009960163,-0.2670729
20231225 03:39:12,-1.113045,1.129622,-0.325826,0.363062,-0.047736,0.050381,2.013855,-31.934196,4.054703,-173.3217,-1.1820983,0.98055667,1.11959,0.2938212,0.0017516175,-0.30115435
20231225 03:39:12,-0.655373,0.824780,-0.164742,0.401415,-0.045605,0.031205,2.137554,-31.545891,3.896606,-173.48428,-0.67997533,0.75029194,0.64831537,0.30857015,0.0014997623,-0.31217444
20231225 03:39:12,-0.433875,0.702089,-0.168494,0.451486,-0.056259,-0.014605,1.855324,-31.376846,3.748802,-174.04446,-0.509112,0.6597907,0.48095173,0.3056754,0.0016567971,-0.32339004
20231225 03:39:12,-0.566820,1.081327,-0.434558,0.468532,-0.063716,-0.042304,2.483696,-31.625465,4.843048,-171.55373,-0.8711041,1.0483147,0.8124167,0.27948326,0.010988997,-0.33872056
20231225 03:39:12,-0.768218,1.648694,-0.728535,0.407807,-0.102069,-0.034847,1.786175,-31.578804,4.431152,-172.62921,-1.3501973,1.6308235,1.1719751,0.23427498,-0.03280626,-0.316051
20231225 03:39:12,-0.841969,2.170495,-1.080292,0.244809,-0.146813,0.003506,2.105038,-31.751556,5.115448,-171.1997,-1.789895,2.2068336,1.4821973,0.17072289,-0.10826967,-0.21720013
20231225 03:39:12,-0.704124,2.620093,-1.034978,0.004040,-0.209669,0.063165,1.946507,-31.194199,4.809555,-172.16708,-1.6718043,2.6614718,1.3519027,0.08877945,-0.21550807,-0.05384698
20231225 03:39:12,-0.138365,2.548436,-0.372510,-0.376289,-0.253348,0.145197,2.343479,-31.069954,4.805389,-173.01857,-0.5671402,2.5566418,0.5283538,-0.099713415,-0.28504857,0.18802983
20231225 03:39:12,0.168875,2.155215,0.556792,-0.559529,-0.222453,0.177157,2.034355,-31.185966,4.675919,-174.81664,0.43937612,2.1383631,-0.37164104,-0.25422227,-0.24804829,0.265142
20231225 03:39:12,0.291813,1.385072,1.657237,-0.622385,-0.201146,0.185680,2.209660,-30.977623,4.128181,-174.68884,1.293674,1.3464893,-1.320338,-0.32868022,-0.22519931,0.26961714
20231225 03:39:12,0.327864,0.462889,2.788097,-0.678848,-0.160663,0.193138,1.591019,-31.017746,3.588760,-176.5527,1.7446753,0.42658615,-2.511796,-0.47149476,-0.18105507,0.18718235
20231225 03:39:12,0.243328,-0.552839,3.694866,-0.597882,-0.145748,0.186746,1.475510,-30.927269,3.179787,-176.89796,1.856665,-0.5987712,-3.4447014,-0.45195487,-0.16591994,0.08956243
20231225 03:39:12,0.224421,-0.990266,4.021816,-0.522242,-0.141487,0.183549,1.687447,-30.722618,3.168541,-176.50592,1.8412707,-1.0373392,-3.818566,-0.40183693,-0.159944,0.035298407
20231225 03:39:12,0.206850,-1.879350,4.300241,-0.315564,-0.113788,0.179288,1.430302,-31.210472,2.929886,-177.1414,1.6901371,-1.9151058,-4.1923127,-0.23362285,-0.12392286,-0.065014884
20231225 03:39:12,0.273398,-2.552681,4.265197,-0.056685,-0.070108,0.159046,1.650822,-30.718918,2.632050,-176.81955,1.5543022,-2.5605857,-4.277461,-0.0058587044,-0.07089926,-0.13798554
20231225 03:39:12,0.449973,-2.925916,3.886995,0.235221,-0.033886,0.107910,1.572708,-31.015900,3.320511,-177.0716,1.6281183,-2.9232464,-3.9726486,0.25703576,-0.034536954,-0.17694134
20231225 03:39:12,0.685029,-2.912722,2.969285,0.490904,-0.000861,0.028009,1.565544,-30.168953,3.399124,-177.06639,1.6859931,-2.904878,-3.1529603,0.46828702,-0.0086603975,-0.20220491
20231225 03:39:12,0.690333,-2.571747,1.760863,0.634726,0.009793,-0.054023,1.495628,-29.987144,3.520538,-177.05978,1.3965268,-2.5696628,-1.9988164,0.5424702,0.0033251168,-0.23717004
20231225 03:39:12,0.495371,-2.059886,0.546237,0.645379,-0.000861,-0.114748,1.805141,-30.063026,3.930481,-176.04951,0.73599255,-2.0575607,-0.8462885,0.4732151,0.010074914,-0.26297975
20231225 03:39:12,0.288903,-1.417945,-0.248289,0.534583,-0.034952,-0.129663,1.744190,-29.786194,4.045776,-175.28003,0.10119347,-1.3903531,-0.10495444,0.2988108,-0.004062571,-0.27782926
20231225 03:39:12,0.147783,-0.837445,-1.128220,0.358801,-0.027494,-0.085984,1.823071,-29.872986,3.918251,-174.87076,-0.6618006,-0.7677281,0.62273085,0.18918924,-0.0044560926,-0.20015243
20231225 03:39:12,0.114851,-0.464990,-1.497129,0.144666,0.018316,-0.006082,1.931416,-29.116531,4.405830,-174.32463,-1.0036942,-0.37496105,0.8840849,0.09160206,0.025861999,-0.101946786
20231225 03:39:12,0.153859,-0.408174,-1.413142,-0.074796,0.057734,0.085537,2.193916,-30.417587,4.493370,-174.18192,-0.8939952,-0.33855137,0.8329142,0.0073525794,0.050689075,-8.182898E-4
20231225 03:39:12,0.275262,-0.642765,-1.003901,-0.255905,0.074779,0.169700,1.540955,-31.605347,5.100296,-176.3928,-0.45565623,-0.6163994,0.528883,-0.0776574,0.06571854,0.049379572
20231225 03:39:12,0.408705,-0.939355,-0.432144,-0.367766,0.076910,0.224033,1.434029,-31.227951,4.404739,-177.07767,0.06430739,-0.9425294,0.061439514,-0.15933612,0.079239175,0.045025572
20231225 03:39:12,0.562652,-1.159227,0.050733,-0.411446,0.070518,0.252797,1.478466,-30.560959,4.093704,-177.1185,0.47104365,-1.1697224,-0.41469812,-0.18799675,0.08269222,0.03538403
20231225 03:39:12,0.790737,-1.338236,0.451644,-0.401858,0.054537,0.250666,1.636227,-30.734543,3.838661,-177.0036,0.87296593,-1.3560627,-0.8720726,-0.19407904,0.076938726,0.016960546
20231225 03:39:12,0.936684,-1.360116,0.623346,-0.361374,0.048145,0.221902,1.478081,-30.369072,3.813232,-177.51027,1.0701642,-1.3885745,-1.0836686,-0.17906742,0.07875286,0.014362559
20231225 03:39:12,1.126966,-1.225068,0.776293,-0.295323,0.037492,0.179288,0.717426,-30.795662,3.163658,-179.07048,1.3088118,-1.2639676,-1.2870336,-0.14515229,0.066808715,0.014845207
20231225 03:39:12,1.149207,-0.968076,0.734733,-0.242055,0.025773,0.129217,0.887108,-30.507927,3.816414,-178.72887,1.3180557,-1.002833,-1.2861347,-0.11945921,0.04605813,0.037673295
20231225 03:39:12,1.059043,-0.712396,0.624573,-0.212226,0.003401,0.070623,1.017590,-30.774673,3.299248,-178.31856,1.1925496,-0.7441554,-1.148206,-0.12870543,0.018206935,0.06939292
20231225 03:39:12,0.838300,-0.326013,0.582447,-0.213291,-0.001926,0.048250,1.150642,-30.483231,3.415512,-177.74368,1.0120885,-0.336368,-0.98437476,-0.13869637,0.004955792,0.09295022
20231225 03:39:12,0.725587,-0.255672,0.589181,-0.213291,0.004466,0.046120,1.344646,-30.468628,3.416489,-177.23154,0.9308208,-0.26037914,-0.9189091,-0.14067113,0.00884303,0.09395823
20231225 03:39:12,0.549237,-0.277883,0.729469,-0.204768,0.021512,0.056773,1.229523,-30.570023,3.287994,-177.34357,0.87545455,-0.27787966,-0.9228097,-0.13085955,0.021424804,0.07699085
20231225 03:39:12,0.288513,-0.595748,1.026563,-0.170677,0.041753,0.080211,0.683372,-30.233772,3.260612,-178.39618,0.8157993,-0.60285056,-1.0281374,-0.09823541,0.037623327,0.028709128
20231225 03:39:12,0.250999,-0.747717,1.104454,-0.112083,0.052407,0.105779,0.665058,-30.231918,2.992363,-178.45285,0.8167341,-0.7559921,-1.0815942,-0.037783034,0.049073193,-0.027214672
20231225 03:39:12,0.242465,-1.023760,1.169920,-0.039639,0.056668,0.120694,0.638546,-30.708870,3.291176,-178.54214,0.8322159,-1.0322624,-1.1447277,0.029014941,0.05457642,-0.08062131
20231225 03:39:12,0.223888,-1.178064,1.094278,0.043458,0.061995,0.130282,0.690147,-30.888824,2.901527,-178.45651,0.77436143,-1.185755,-1.0772259,0.10432226,0.061335213,-0.13236433
20231225 03:39:12,0.312927,-1.309632,0.888051,0.135078,0.069452,0.123890,0.850483,-30.504227,3.279930,-178.18243,0.74237573,-1.3111504,-0.95332134,0.17999247,0.06981495,-0.17482516
20231225 03:39:12,0.398338,-1.242079,0.499409,0.227763,0.084367,0.097256,0.929359,-30.591011,3.152405,-177.99092,0.61552656,-1.2418778,-0.6729484,0.24226126,0.08496312,-0.2075094
20231225 03:39:12,0.338553,-0.944415,-0.037891,0.290619,0.108870,0.070623,0.701683,-30.235619,3.528854,-178.28673,0.25231004,-0.93850905,-0.20409545,0.2696316,0.11247795,-0.23421717
20231225 03:39:12,0.265299,-0.600861,-0.591949,0.303403,0.120589,0.051446,0.675171,-30.712570,3.827667,-178.11374,-0.18971843,-0.5764449,0.24041389,0.2545742,0.12804084,-0.24060437
20231225 03:39:12,0.107937,-0.281893,-1.027436,0.262920,0.124850,0.042924,0.622803,-30.148834,3.656380,-177.96028,-0.649286,-0.2329298,0.6301073,0.20840377,0.13369946,-0.21555969
20231225 03:39:12,-0.000521,-0.012693,-1.340511,0.196868,0.137635,0.050381,0.411255,-30.545372,3.948097,-178.18257,-0.99388963,0.070605114,0.89484483,0.16028535,0.14499725,-0.17725107
20231225 03:39:12,-0.106264,0.163011,-1.499569,0.110575,0.147223,0.079145,0.784286,-30.339890,4.876190,-176.88235,-1.2042198,0.27158517,1.0729065,0.12063177,0.14781791,-0.12996405
20231225 03:39:12,-0.158376,0.163002,-1.451220,0.014693,0.147223,0.129217,0.446732,-29.973404,3.643173,-177.99872,-1.1870687,0.25582895,1.0965215,0.094515406,0.13823722,-0.0942733
20231225 03:39:12,-0.029958,-0.047801,-1.210819,-0.077992,0.128047,0.172896,0.093544,-30.948280,4.105209,-179.2832,-0.8761663,-0.0036828779,0.87509286,0.062539086,0.11852315,-0.06558955
20231225 03:39:12,0.249005,-0.309080,-0.876619,-0.152566,0.084367,0.198464,0.216866,-30.368095,3.666649,-179.42934,-0.40528113,-0.30248395,0.47728023,0.020626366,0.08226977,-0.04310008
20231225 03:39:12,0.544226,-0.579220,-0.562142,-0.200507,0.025773,0.197399,0.349918,-30.076653,3.782921,-179.6983,0.045237243,-0.6222766,0.0882636,-0.02952528,0.04158903,-0.025768027
20231225 03:39:12,0.823936,-0.741193,-0.331863,-0.199441,0.015120,0.185680,0.217632,-30.751862,4.227592,179.68637,0.40448308,-0.81179446,-0.24464169,-0.041813254,0.03841246,-0.02293232
20231225 03:39:12,1.031440,-0.821285,-0.190698,-0.186657,0.015120,0.145197,-0.171524,-30.205421,3.384224,178.93156,0.64673805,-0.90306306,-0.47572803,-0.056477785,0.036763825,0.0010608807
20231225 03:39:12,1.100547,-0.753843,-0.151635,-0.164285,0.041753,0.104714,0.251305,-31.121864,3.850166,179.77733,0.73133993,-0.83913684,-0.5559712,-0.06285628,0.059444085,0.018542305
20231225 03:39:12,1.081081,-0.645182,0.006213,-0.133390,0.072648,0.055708,0.322639,-30.169815,3.520790,-179.91917,0.821995,-0.7115985,-0.6730792,-0.06701648,0.083688855,0.03861578
20231225 03:39:12,0.758046,-0.403521,0.191766,-0.090776,0.088629,0.005636,0.286400,-30.358009,3.264771,-179.54645,0.70359576,-0.4153321,-0.6281357,-0.06563778,0.09048772,0.05322503
20231225 03:39:12,0.598288,-0.288038,0.199088,-0.041770,0.093955,-0.028455,0.349533,-29.884758,3.502449,-179.23265,0.5880765,-0.2890444,-0.53664696,-0.050157953,0.09399757,0.04947447
20231225 03:39:12,0.256704,-0.060257,0.153974,0.005105,0.086498,-0.035912,-0.241058,-30.215500,3.786102,179.7548,0.29632318,-0.056930088,-0.2839537,-0.021511927,0.08739893,0.023610162
20231225 03:39:12,0.058775,0.132570,0.040091,0.044523,0.076910,-0.022063,0.198936,-30.558136,3.678879,-179.07558,0.0654077,0.13327858,-0.067646965,0.015147901,0.07945695,-0.012796674
20231225 03:39:12,0.000719,0.269573,-0.188267,0.065830,0.070518,0.001375,0.121861,-29.529373,3.878899,-179.13148,-0.14064158,0.27720815,0.13884255,0.04559191,0.07330831,-0.045598786
20231225 03:39:12,0.038726,0.290061,-0.465167,0.075418,0.066256,0.028009,0.015701,-29.535751,3.744286,-179.45692,-0.310954,0.30934113,0.30490103,0.07064462,0.06803278,-0.07255237
20231225 03:39:12,0.108503,0.288414,-0.700238,0.074353,0.070518,0.039727,-0.064598,-30.582817,4.079781,-179.69983,-0.43535167,0.31521496,0.41161054,0.07792017,0.07153775,-0.080736235
20231225 03:39:12,0.103568,0.346719,-0.932578,0.064765,0.074779,0.050381,0.058723,-30.002625,3.641220,-179.4365,-0.62558746,0.38116696,0.55919653,0.0783858,0.07502044,-0.08125673
20231225 03:39:12,0.112775,0.436801,-1.155521,0.046654,0.089694,0.058904,0.165649,-30.380020,4.336777,-178.9179,-0.81073046,0.49570754,0.6854623,0.07067265,0.08866848,-0.072829574
20231225 03:39:12,0.031793,0.463428,-1.307259,0.023216,0.116328,0.081276,0.128254,-29.992538,3.239342,-179.0462,-0.9889148,0.5368449,0.838635,0.06989153,0.11258915,-0.06956782
20231225 03:39:12,0.018290,0.489317,-1.268856,0.000844,0.131243,0.106844,0.183193,-29.998085,4.044075,-178.96732,-0.9572292,0.5432209,0.83307076,0.07484438,0.12651461,-0.06987402
20231225 03:39:12,0.099629,0.480840,-1.205704,-0.023659,0.121654,0.117498,0.174614,-30.284996,4.330658,-179.14061,-0.85498387,0.5194458,0.72428066,0.06904477,0.11738812,-0.058424294
20231225 03:39:12,0.265530,0.404651,-1.227827,-0.046031,0.114197,0.116433,-0.080727,-29.830887,4.164505,179.9692,-0.74171853,0.42250684,0.6218344,0.05455149,0.11225475,-0.043497387
20231225 03:39:12,0.477954,0.481151,-1.125042,-0.080123,0.067322,0.103648,0.210087,-29.713028,4.025742,-179.68573,-0.5100312,0.4567109,0.39780393,0.024624076,0.07005591,-0.009387735
20231225 03:39:12,0.684838,0.497982,-1.101383,-0.115279,0.019381,0.079145,-0.471306,-30.418297,3.529106,178.39326,-0.34991366,0.43609297,0.2097711,-0.016748257,0.025869252,0.033295773
20231225 03:39:12,0.824929,0.658578,-1.175971,-0.157893,-0.020037,0.053577,-0.327099,-29.281761,3.992241,178.40445,-0.3184861,0.55374235,0.12584442,-0.06318161,-0.009643825,0.085481666
20231225 03:39:12,0.884927,0.788840,-1.258265,-0.220748,-0.029625,0.028009,-0.356178,-30.316895,3.657608,178.24359,-0.3404897,0.64896494,0.11165148,-0.12214014,-0.014966987,0.15204905
20231225 03:39:12,0.960501,0.957312,-1.122268,-0.294257,-0.016841,0.008832,-0.372307,-29.564972,3.742332,178.27847,-0.15929449,0.83792853,-0.009915113,-0.18708053,-0.001074329,0.21690488
20231225 03:39:12,0.968650,1.080674,-0.730661,-0.359244,-0.015775,-0.009279,-0.506516,-29.280739,2.784653,178.1369,0.18498951,0.9881639,-0.23632586,-0.25220013,0.002076514,0.26981202
20231225 03:39:12,0.882314,1.088559,-0.264758,-0.390139,-0.010449,-0.033782,-0.347599,-30.029984,3.371017,178.71046,0.47729605,1.0428804,-0.45561936,-0.29962453,0.0032393686,0.30041525
20231225 03:39:13,0.712317,1.107625,0.270599,-0.377355,0.001270,-0.058285,0.005970,-29.246994,3.189461,179.83932,0.72207403,1.0997759,-0.68650466,-0.315358,0.006589896,0.3003544
20231225 03:39:13,0.526034,1.031974,0.645965,-0.327283,0.021512,-0.072134,0.349533,-29.884758,3.502449,-179.23567,0.82488966,1.0321175,-0.8221284,-0.2937161,0.022573773,0.27003208
20231225 03:39:13,0.424122,0.902031,0.974116,-0.238859,0.055603,-0.092376,-0.294579,-29.076088,2.773399,179.35031,0.9456012,0.8996973,-1.0272484,-0.24279603,0.05464467,0.22355916
20231225 03:39:13,0.290901,0.887337,1.116472,-0.120606,0.105674,-0.128598,0.129669,-28.858688,3.031372,-179.41974,0.91764927,0.86811376,-1.0359704,-0.17751928,0.10522384,0.17683798
20231225 03:39:13,-0.062500,1.009279,1.104084,0.025347,0.181314,-0.163754,0.048603,-29.521973,2.805923,-179.28595,0.6106467,0.9359088,-0.78634316,-0.09786691,0.19194543,0.10926444
20231225 03:39:13,-0.588773,1.315884,0.998775,0.184084,0.260150,-0.178669,-0.072910,-29.160210,3.316978,-178.82791,0.08542621,1.1112454,-0.3148759,-0.013712697,0.2994494,0.010370247
20231225 03:39:13,-1.248899,1.820483,0.588394,0.328971,0.337920,-0.141382,0.287815,-29.224159,3.056801,-177.29329,-0.78732646,1.433439,0.5541247,0.0670548,0.4105788,-0.12864986
20231225 03:39:13,-1.789385,2.421016,0.114368,0.429114,0.425279,-0.062546,0.051174,-28.963783,3.439362,-176.84375,-1.6631486,1.8927772,1.3869804,0.12365043,0.5067369,-0.27471608
20231225 03:39:13,-1.932114,3.198002,-0.451106,0.412068,0.425279,0.034401,0.317665,-28.572792,3.952377,-175.08966,-2.3981223,2.7132556,1.9856997,0.14790735,0.47424376,-0.33102027
20231225 03:39:13,-1.872224,3.637430,-0.901551,0.239482,0.335789,0.131347,0.263107,-28.759132,3.428116,-175.54745,-2.795395,3.3104334,2.2131104,0.13754681,0.3227676,-0.25752872
20231225 03:39:13,-1.419260,3.437411,-1.287626,-0.016202,0.267607,0.219771,0.008156,-28.496925,3.542435,-177.0687,-2.5831308,3.3892126,1.9911499,0.10793342,0.20665915,-0.100439236
20231225 03:39:13,-0.578609,2.779994,-1.093524,-0.223944,0.334724,0.271973,-0.213127,-28.604691,3.279320,-179.45045,-1.4875433,2.8236551,1.1350405,0.048763275,0.28913453,0.017860293
20231225 03:39:13,0.106485,2.197829,-0.156132,-0.366701,0.461500,0.263451,-0.141407,-27.844536,3.230415,-179.84894,-0.13668641,2.205126,0.034748137,-0.08337742,0.43343547,0.08426334
20231225 03:39:13,0.147071,1.447398,1.096615,-0.455125,0.535009,0.232556,0.149788,-27.918564,3.372116,-179.04851,0.73381436,1.4015946,-0.9277229,-0.23372945,0.49695876,0.11108491
20231225 03:39:13,-0.069070,0.676051,2.389813,-0.480693,0.530748,0.205922,-0.204163,-28.509674,3.273209,-179.8594,1.2006013,0.5637464,-1.9711895,-0.31665426,0.48697072,0.08793928
20231225 03:39:13,-0.196400,0.189237,3.557708,-0.419969,0.445520,0.198464,-0.592941,-28.155113,2.710312,179.20007,1.5289935,0.029904634,-3.0245068,-0.29069996,0.40495795,0.023103565
20231225 03:39:13,-0.249479,-0.161446,4.182276,-0.272951,0.333659,0.238948,-0.477428,-28.245613,3.119286,179.53311,1.6468635,-0.33435073,-3.627826,-0.14999762,0.30343035,-0.094071336
20231225 03:39:13,-0.086097,-0.641014,4.119265,-0.077992,0.272934,0.319914,-1.254215,-27.920265,2.554428,177.5551,1.6632723,-0.72807384,-3.6738188,0.05788289,0.26264977,-0.26785952
20231225 03:39:13,0.493901,-1.478935,3.752948,0.102052,0.253758,0.384900,-1.287502,-27.742157,3.212326,177.21768,1.8633034,-1.4728099,-3.5931678,0.2397119,0.2540723,-0.40605226
20231225 03:39:13,1.113210,-2.160166,3.192178,0.220306,0.226059,0.380639,-1.078140,-28.095695,2.567635,177.43231,2.0866513,-2.1545672,-3.2864761,0.34057236,0.22122231,-0.44197768
20231225 03:39:13,1.510082,-2.885320,2.693992,0.272508,0.189837,0.312457,-0.766441,-27.421501,3.330551,177.78902,2.1542706,-2.9313033,-2.9086127,0.35610774,0.1745781,-0.38506436
20231225 03:39:13,1.594467,-3.443747,2.546040,0.289553,0.091825,0.198464,-1.542839,-27.288048,3.046181,176.21242,2.1098228,-3.50777,-2.6409044,0.33210802,0.07192065,-0.2706566
20231225 03:39:13,1.557678,-3.907795,2.326756,0.322579,-0.070108,0.052512,-1.215782,-26.982002,3.163422,176.86406,1.9875419,-3.9741492,-2.419865,0.32436347,-0.094963536,-0.12405233
20231225 03:39:13,1.490577,-4.000556,1.756543,0.446160,-0.153205,-0.107291,-1.179153,-26.985703,3.699913,176.89621,1.8279401,-4.062226,-1.8859817,0.39676115,-0.18810466,-0.010801189
20231225 03:39:13,1.245945,-3.557474,0.873835,0.621942,-0.098873,-0.248982,-0.720467,-27.522072,4.141403,178.03845,1.4172311,-3.5937333,-1.1694816,0.478468,-0.13198455,-0.003691867
20231225 03:39:13,0.862824,-2.641133,-0.124762,0.701843,-0.030690,-0.362974,-0.303761,-26.265823,4.197510,179.50783,0.69640654,-2.62276,-0.33267033,0.40285295,-0.0131869,-0.06435859
20231225 03:39:13,0.278568,-1.630895,-1.005394,0.620876,-0.031756,-0.445006,-0.488800,-26.185417,4.190422,-179.8259,-0.3162276,-1.5007148,0.5568568,0.16885257,0.06856495,-0.08500028
20231225 03:39:13,-0.352272,-0.563819,-1.733023,0.429114,-0.013645,-0.468444,-0.295834,-27.496544,4.679840,-177.51288,-1.383861,-0.26347455,1.3845454,-0.05780661,0.15223815,-0.017903268
20231225 03:39:13,-1.026489,0.339151,-1.988979,0.188345,0.048145,-0.434352,0.156734,-25.860229,4.711510,-174.59877,-2.1786664,0.6399766,2.069161,-0.20703447,0.21107733,0.13121964
20231225 03:39:13,-1.680515,0.733833,-1.599664,-0.037509,0.121654,-0.342732,-0.215149,-26.641373,4.624825,-175.37947,-2.4331777,0.6800207,2.3566377,-0.29108566,0.20419157,0.2665658
20231225 03:39:13,-2.167078,0.649597,-0.707983,-0.182396,0.194098,-0.201041,-0.073128,-26.254913,4.734985,-175.24548,-2.2149348,0.13672848,2.021441,-0.3117056,0.17763883,0.28282565
20231225 03:39:13,-2.356109,0.446095,0.361002,-0.213291,0.233516,-0.035912,0.050194,-25.674721,4.296425,-175.90193,-1.760239,-0.35389128,1.1802063,-0.24182051,0.16295141,0.1719169
20231225 03:39:13,-2.226121,0.041576,1.199789,-0.169612,0.199425,0.126021,-0.170322,-26.166275,4.594254,-176.81235,-1.2136099,-0.7845213,0.2601077,-0.11018594,0.11930195,2.5365502E-4
20231225 03:39:13,-1.873672,-0.412909,1.525791,-0.083319,0.123785,0.271973,0.438583,-25.837387,4.578842,-176.03775,-0.73107237,-1.0508678,-0.30117786,0.05221966,0.0601796,-0.1768574
20231225 03:39:13,-1.156168,-0.857145,1.342049,0.001909,0.068387,0.371051,0.314495,-26.033806,4.456467,-177.31001,-0.19013983,-1.1589968,-0.5521436,0.18905546,0.030463874,-0.31191543
20231225 03:39:13,-0.236737,-1.223316,0.898255,0.066896,0.043884,0.406207,-0.203995,-25.796272,4.971680,-179.4211,0.3389938,-1.2799759,-0.64182776,0.2711778,0.029104626,-0.37839165
20231225 03:39:13,0.558557,-1.523477,0.423254,0.098856,0.040688,0.372116,-0.079906,-25.599854,5.094070,179.82106,0.69934946,-1.5232847,-0.65395015,0.28423268,0.040594477,-0.3666376
20231225 03:39:13,1.096534,-1.709374,0.077708,0.099921,0.039623,0.287954,-0.689198,-25.736855,4.829010,177.70602,0.91014194,-1.7579819,-0.600822,0.24077329,0.043752298,-0.29738548
20231225 03:39:13,1.421447,-1.838653,-0.138217,0.087137,0.028969,0.171831,-0.565105,-25.540436,4.951385,177.55345,1.0206836,-1.9494245,-0.59561664,0.16796401,0.030809518,-0.19242322
20231225 03:39:13,1.458468,-1.853183,-0.261380,0.070092,0.012989,0.043989,-0.107571,-25.501137,4.551460,178.86246,0.9835345,-1.9555825,-0.5650282,0.0832128,0.010257373,-0.075787455
20231225 03:39:13,1.279939,-1.762720,-0.323215,0.059438,-0.011514,-0.071069,-0.643990,-25.453644,5.078911,177.93358,0.8202567,-1.8129394,-0.4181478,0.0076361,-0.015258609,0.02437941
20231225 03:39:13,0.942086,-1.517777,-0.419327,0.049850,-0.047736,-0.166950,-0.440636,-25.535912,5.354248,179.06535,0.50836074,-1.5072794,-0.21366426,-0.06056866,-0.046277147,0.10375359
20231225 03:39:13,0.560348,-1.169385,-0.530302,0.043458,-0.075435,-0.225544,-0.706741,-26.118774,5.121704,179.09901,0.15079838,-1.1165851,0.073966146,-0.10469651,-0.06378668,0.14888704
20231225 03:39:13,0.178525,-0.861430,-0.579646,0.033870,-0.102069,-0.256439,-0.310921,-25.418884,4.276131,-179.48315,-0.17255488,-0.7944114,0.31785637,-0.13215908,-0.07846224,0.1718999
20231225 03:39:13,-0.090298,-0.567825,-0.562667,0.026412,-0.129768,-0.263897,-0.273911,-25.614464,5.093094,-178.66557,-0.37664467,-0.5132414,0.471655,-0.1392051,-0.09778525,0.17810617
20231225 03:39:13,-0.295813,-0.422484,-0.544143,0.013628,-0.159597,-0.256439,-0.380836,-25.237068,4.397537,-179.05016,-0.53150165,-0.39244068,0.5970919,-0.1411448,-0.12697475,0.17950831
20231225 03:39:13,-0.343512,-0.247874,-0.488579,0.000844,-0.191558,-0.244720,0.237419,-25.005051,4.656487,-177.21342,-0.54926294,-0.2304971,0.5828538,-0.13990046,-0.15963757,0.1724825
20231225 03:39:13,-0.307988,-0.144674,-0.546534,-0.006613,-0.207538,-0.228740,0.132027,-25.395210,5.082817,-177.38625,-0.57550424,-0.11718997,0.6045111,-0.13421434,-0.17849126,0.1646998
20231225 03:39:13,-0.310230,-0.074859,-0.564226,-0.025790,-0.214996,-0.195714,0.343578,-24.998672,4.791100,-176.92552,-0.59770066,-0.04682146,0.6204767,-0.1256505,-0.19238402,0.15193586
20231225 03:39:13,-0.302342,-0.145475,-0.542095,-0.039639,-0.222453,-0.187192,0.307331,-25.186859,4.535080,-177.2099,-0.5677055,-0.11995122,0.59840167,-0.129063,-0.20339212,0.15675063
20231225 03:39:13,-0.198915,-0.269276,-0.512194,-0.065208,-0.249087,-0.164819,0.592140,-24.797722,5.316338,-176.52132,-0.46053636,-0.23953445,0.50190353,-0.1338737,-0.23802224,0.154944
20231225 03:39:13,-0.067954,-0.453228,-0.424493,-0.092907,-0.279982,-0.158427,0.449738,-24.992294,4.925705,-177.37448,-0.2901113,-0.42437533,0.3518628,-0.15155303,-0.27445263,0.17104748
20231225 03:39:13,0.117496,-0.673073,-0.307854,-0.111018,-0.322596,-0.183996,0.413494,-25.180489,4.669693,-177.87386,-0.062243536,-0.644459,0.14666647,-0.18298104,-0.31864953,0.20353232
20231225 03:39:13,0.236942,-0.816945,-0.197542,-0.111018,-0.360948,-0.235132,0.855289,-24.581146,4.634964,-176.79869,0.10644822,-0.78847826,-0.02740416,-0.21359709,-0.35486093,0.23730212
20231225 03:39:13,0.204059,-0.788276,-0.206969,-0.097168,-0.380125,-0.289465,0.740166,-24.682541,4.506462,-176.9166,0.08014572,-0.75545764,0.0010217577,-0.23193032,-0.36774594,0.27051994
20231225 03:39:13,-0.001324,-0.683799,-0.282546,-0.086515,-0.386517,-0.318229,1.076958,-24.665260,5.178543,-175.51262,-0.12160194,-0.6545853,0.1774737,-0.23461388,-0.36555165,0.27694744
20231225 03:39:13,-0.212161,-0.584825,-0.319054,-0.082253,-0.372667,-0.321426,1.127792,-24.461433,4.227943,-175.38675,-0.31101754,-0.572856,0.34401584,-0.23211575,-0.3482801,0.27598172
20231225 03:39:13,-0.253907,-0.429099,-0.295204,-0.071600,-0.353491,-0.321426,0.819431,-24.961227,4.659416,-176.03589,-0.3397473,-0.42471233,0.36610082,-0.2243054,-0.32601976,0.27283898
20231225 03:39:13,-0.399337,-0.284141,-0.191641,-0.056685,-0.342837,-0.325687,1.842472,-23.934280,4.066673,-172.96866,-0.3933311,-0.31184137,0.37708116,-0.21088608,-0.30717027,0.25100037
20231225 03:39:13,-0.600930,-0.066702,-0.130210,-0.033247,-0.336445,-0.325687,2.036858,-24.111565,4.348129,-172.1325,-0.5266904,-0.1372653,0.48708013,-0.19218475,-0.2923859,0.22953935
20231225 03:39:13,-0.777728,0.272446,-0.165142,0.005105,-0.319400,-0.322491,1.224983,-24.550072,4.368675,-173.99617,-0.72024775,0.16313876,0.6713568,-0.16171516,-0.26106757,0.2066502
20231225 03:39:13,-1.005431,0.686633,-0.254586,0.048785,-0.286374,-0.307576,1.754627,-23.942513,4.200310,-171.84308,-1.0145903,0.52117866,0.9557985,-0.12097256,-0.21001205,0.15311983
20231225 03:39:13,-1.269704,1.034503,-0.379200,0.077549,-0.256544,-0.267093,1.940048,-24.214806,4.487869,-170.72307,-1.3628681,0.80765027,1.2893546,-0.075017996,-0.1721137,0.098516494
20231225 03:39:13,-1.407390,1.250064,-0.460941,0.097791,-0.229910,-0.204237,1.596481,-23.577042,4.174881,-171.42899,-1.5646704,0.9946641,1.4661115,-0.022879034,-0.15169597,0.04326818
20231225 03:39:13,-1.441580,1.322131,-0.519498,0.115902,-0.203277,-0.139251,1.984489,-23.547821,4.176834,-170.33989,-1.6372962,1.078271,1.5550581,0.026825078,-0.13912745,-0.014466174
20231225 03:39:13,-1.332435,1.148458,-0.533633,0.126555,-0.192623,-0.082788,1.588284,-24.055840,4.741943,-171.64946,-1.5246845,0.9509361,1.4446356,0.0691718,-0.14299439,-0.054635413
20231225 03:39:13,-1.077901,0.890562,-0.547080,0.128686,-0.191558,-0.048696,1.809181,-23.756172,4.724579,-171.51358,-1.2869155,0.77675855,1.2424078,0.08910794,-0.15538315,-0.078695595
20231225 03:39:13,-0.809363,0.697556,-0.553272,0.124424,-0.205407,-0.033782,1.923538,-23.270988,4.292130,-171.66528,-1.0568955,0.6467395,1.032219,0.093996674,-0.1776324,-0.08651088
20231225 03:39:13,-0.562463,0.534186,-0.574378,0.106313,-0.222453,-0.027389,2.074905,-22.981407,4.676643,-171.48662,-0.8648572,0.5275402,0.85514134,0.0839573,-0.20207772,-0.07950552
20231225 03:39:13,-0.339349,0.387173,-0.556303,0.070092,-0.243760,-0.023128,1.835693,-23.279221,4.425758,-172.83841,-0.66705984,0.40449193,0.6654085,0.0580142,-0.23194204,-0.05457446
20231225 03:39:13,-0.120745,0.252931,-0.488276,0.026412,-0.261871,-0.030585,1.766163,-23.289299,4.827637,-173.5984,-0.44071668,0.2770179,0.4545359,0.016430683,-0.25643536,-0.017388353
20231225 03:39:13,0.079702,0.122320,-0.308660,-0.009810,-0.295962,-0.052958,2.375454,-23.152313,5.092705,-172.25116,-0.15571463,0.14313242,0.18375228,-0.027044842,-0.29276574,0.0158941
20231225 03:39:13,0.171144,0.028061,-0.182018,-0.034313,-0.322596,-0.084918,2.038280,-22.977707,4.140152,-173.35652,0.004503496,0.0440578,0.022321194,-0.06827605,-0.31990606,0.057908837
20231225 03:39:13,0.231905,0.036190,-0.066628,-0.040705,-0.333249,-0.130728,1.950432,-22.985931,4.273788,-173.71846,0.12683485,0.048406083,-0.10261297,-0.104875654,-0.32949412,0.096765704
20231225 03:39:13,0.228380,0.188044,-0.016109,-0.024724,-0.319400,-0.196780,2.453182,-22.663429,4.123764,-171.8699,0.1475351,0.20127864,-0.12316112,-0.13428687,-0.309601,0.12692572
20231225 03:39:13,-0.091823,0.529717,0.102752,0.012563,-0.270394,-0.258570,2.462914,-22.952187,4.678596,-171.13516,-0.044384897,0.5070267,0.048876084,-0.1430329,-0.24338196,0.14625347
20231225 03:39:13,-0.647671,1.042153,0.315308,0.070092,-0.217126,-0.290530,2.737984,-22.274284,4.905029,-169.08948,-0.38918036,0.88830596,0.37274987,-0.119492054,-0.16336986,0.12547325
20231225 03:39:13,-1.103685,1.431987,0.416747,0.132947,-0.184100,-0.297988,2.120113,-22.698196,4.926552,-170.1851,-0.7484939,1.115802,0.6641598,-0.07763536,-0.101504594,0.090959325
20231225 03:39:13,-1.587462,1.747035,0.419282,0.191541,-0.171316,-0.280942,2.640793,-22.185654,4.764297,-167.63893,-1.1953042,1.2386843,1.1188684,-0.022515014,-0.061471667,0.026929408
20231225 03:39:13,-1.974865,1.973252,0.272640,0.250135,-0.141487,-0.233002,2.983208,-22.247749,4.235878,-166.2265,-1.6643128,1.3147869,1.5783364,0.047917977,-0.014811762,-0.050069094
20231225 03:39:13,-2.211881,1.988673,0.185458,0.308730,-0.106330,-0.157362,2.605316,-22.757622,5.069229,-166.82878,-1.9302555,1.2343142,1.7937474,0.13466887,0.022146996,-0.13554077
20231225 03:39:13,-2.201897,1.762624,0.026212,0.370520,-0.056259,-0.074265,2.755527,-21.892365,4.612328,-166.35336,-1.9567788,1.0913392,1.8685489,0.2188877,0.0588293,-0.22885916
20231225 03:39:13,-1.971115,1.465221,-0.101815,0.433375,0.008728,0.002440,2.880005,-21.887840,5.015190,-166.08997,-1.7849231,0.94618094,1.7405254,0.2977727,0.10830474,-0.31461397
20231225 03:39:13,-1.676156,1.113305,-0.152917,0.503688,0.070518,0.055708,2.837368,-21.612846,5.398727,-166.48775,-1.5151418,0.73727983,1.4883558,0.37307703,0.16200095,-0.3880017
20231225 03:39:13,-1.426553,0.831115,-0.224935,0.572936,0.104609,0.087668,2.431812,-22.024002,5.689468,-168.11841,-1.316338,0.56183267,1.2970917,0.43761462,0.19535035,-0.45634323
20231225 03:39:13,-1.249629,0.726600,-0.368522,0.627269,0.098217,0.111106,2.917015,-22.083420,5.832138,-166.48584,-1.2531254,0.53907895,1.279211,0.48127797,0.18922135,-0.5208222
20231225 03:39:13,-1.123647,0.992217,-0.711838,0.629399,0.053472,0.133478,2.848904,-20.959648,6.026054,-165.50417,-1.4491062,0.91410804,1.4630789,0.48168367,0.1307115,-0.5640218
20231225 03:39:13,-0.890975,1.334955,-1.294587,0.543106,0.007662,0.172896,2.442966,-21.178902,6.036331,-166.5783,-1.8148384,1.4339108,1.6224686,0.44365066,0.049001813,-0.5419545
20231225 03:39:13,-0.564085,1.584139,-1.565173,0.371585,-0.033886,0.212314,2.469860,-20.893845,6.017990,-167.24382,-1.8553746,1.7507954,1.4944139,0.38246542,-0.028492786,-0.42850336
20231225 03:39:13,-0.215838,1.764567,-1.578280,0.139339,-0.109526,0.247470,2.347961,-20.340187,6.248573,-169.02266,-1.6171603,1.8994625,1.1982322,0.29325128,-0.124983646,-0.25957286
20231225 03:39:13,0.217759,1.827068,-1.263695,-0.096103,-0.142552,0.274104,2.400326,-20.903923,6.419868,-171.23085,-0.96998656,1.869317,0.69126177,0.17474684,-0.15293631,-0.087736845
20231225 03:39:13,0.582770,1.599092,-0.652329,-0.285735,-0.130833,0.277300,2.259727,-20.156525,6.101738,-172.9276,-0.11471498,1.5877079,0.08976415,0.029962465,-0.1257274,0.03422308
20231225 03:39:13,0.704475,1.101932,0.287595,-0.411446,-0.106330,0.262385,1.958412,-19.601852,5.124741,-173.92772,0.7165791,1.0965126,-0.6160287,-0.10913545,-0.097921,0.09606302
20231225 03:39:13,0.708826,0.688267,1.303695,-0.478563,-0.106330,0.246405,1.915394,-19.134987,5.227806,-174.25662,1.3835635,0.6931687,-1.3987578,-0.2140255,-0.096950084,0.10673532
20231225 03:39:13,0.675696,0.159670,2.168393,-0.466844,-0.126572,0.230425,1.808468,-18.757584,4.532249,-174.4624,1.78849,0.16866589,-2.1476107,-0.2544369,-0.119684085,0.06621441
20231225 03:39:13,0.617835,-0.505430,2.717163,-0.403988,-0.165990,0.219771,1.376785,-19.837563,5.402275,-176.19115,1.9106832,-0.49658027,-2.6776614,-0.23703557,-0.16120635,0.0070587546
20231225 03:39:13,0.634590,-1.111489,2.953802,-0.307042,-0.191558,0.212314,1.789116,-20.081482,4.752449,-175.2303,1.9233582,-1.0907134,-2.9823484,-0.1751639,-0.18219331,-0.058402807
20231225 03:39:13,0.784738,-1.630056,3.010532,-0.186657,-0.184100,0.180353,1.189175,-20.315338,4.761742,-177.23134,1.9724896,-1.6038271,-3.1232808,-0.09435639,-0.1735395,-0.090377666
20231225 03:39:13,0.935563,-2.031690,2.979967,-0.047097,-0.161728,0.118563,1.198139,-20.220322,4.755630,-177.38316,2.0235047,-2.008497,-3.1840005,0.0017182454,-0.15642715,-0.09560809
20231225 03:39:13,1.018608,-2.272718,2.794496,0.122294,-0.123376,0.023747,1.006706,-19.676750,5.388100,-178.054,2.005559,-2.2569742,-3.0368054,0.11847854,-0.12920818,-0.075004525
20231225 03:39:14,0.893362,-2.293336,2.360688,0.295945,-0.081827,-0.082788,1.013103,-20.139915,4.748543,-177.62839,1.7991937,-2.2832167,-2.5969872,0.2284848,-0.09296282,-0.058307543
20231225 03:39:14,0.558208,-2.014439,1.642720,0.415264,-0.061585,-0.168015,0.846378,-20.061356,5.009697,-177.48616,1.3215029,-2.0160925,-1.7728002,0.27205867,-0.059497997,-0.069231436
20231225 03:39:14,0.165301,-1.532571,0.777847,0.442963,-0.060520,-0.201041,1.455669,-19.924355,5.274765,-174.9089,0.6333639,-1.546381,-0.83439237,0.24246857,-0.037409812,-0.10224119
20231225 03:39:14,-0.043417,-1.104630,0.075840,0.387565,-0.062651,-0.186126,1.455669,-19.924355,5.274765,-174.18619,0.07465456,-1.1076418,-0.11485149,0.1790822,-0.02812207,-0.11415301
20231225 03:39:14,-0.210385,-0.727676,-0.497722,0.271442,-0.047736,-0.125401,1.182781,-19.852173,5.401299,-174.4744,-0.44258672,-0.7037119,0.45236015,0.11253024,-0.018209234,-0.1015935
20231225 03:39:14,-0.217699,-0.567681,-0.722044,0.126555,-0.022168,-0.033782,1.422379,-19.746246,5.932655,-174.01909,-0.6241445,-0.5371036,0.6249264,0.068808235,-0.0126145985,-0.06552498
20231225 03:39:14,0.045487,-0.708857,-0.623337,-0.018332,-0.012579,0.038662,1.413414,-19.841263,5.938774,-175.04237,-0.3679864,-0.6927576,0.3843399,0.012643412,-0.0139424745,-0.017047849
20231225 03:39:14,0.337155,-1.021701,-0.321681,-0.138717,-0.032821,0.084472,1.695263,-19.818420,5.806114,-175.164,0.05106111,-1.0280832,-0.029634878,-0.055077516,-0.030571021,0.019583203
20231225 03:39:14,0.690586,-1.297348,0.014625,-0.219683,-0.066912,0.105779,1.148727,-19.290291,5.498260,-177.38173,0.52217054,-1.3241228,-0.47154984,-0.115265094,-0.05428404,0.04392942
20231225 03:39:14,0.913002,-1.469284,0.235188,-0.260166,-0.092481,0.107910,1.130798,-19.480331,5.510483,-178.12094,0.8047501,-1.5184859,-0.75742143,-0.15558709,-0.06725985,0.059212618
20231225 03:39:14,1.167181,-1.485610,0.367156,-0.259101,-0.087154,0.089799,1.208912,-19.183350,4.822021,-178.0408,1.0642549,-1.5627352,-1.0128274,-0.16661754,-0.05557093,0.073093034
20231225 03:39:14,1.279500,-1.341944,0.384478,-0.248447,-0.070108,0.052512,0.830250,-19.309425,5.094429,-179.45322,1.1620145,-1.4342264,-1.0698383,-0.17641531,-0.040117998,0.10196265
20231225 03:39:14,1.280805,-1.148956,0.383461,-0.245251,-0.048801,0.007767,1.315453,-19.368843,5.237106,-177.82422,1.1755099,-1.2320497,-1.1089592,-0.1950898,-0.02561173,0.13920511
20231225 03:39:14,1.147821,-0.822453,0.468709,-0.252709,-0.043475,-0.035912,0.971500,-18.539192,4.643639,-178.23318,1.1460826,-0.87577355,-1.0946445,-0.22385652,-0.02698768,0.18246365
20231225 03:39:14,0.929726,-0.481453,0.545906,-0.270820,-0.051997,-0.077461,1.058311,-19.856705,4.998444,-177.6059,1.0475326,-0.5016583,-1.0265726,-0.26038527,-0.04290893,0.22976966
20231225 03:39:14,0.604055,-0.103840,0.616817,-0.293192,-0.057324,-0.098768,1.190598,-19.181496,4.553772,-176.3559,0.85827476,-0.10480456,-0.86496735,-0.28848827,-0.05490877,0.2613827
20231225 03:39:14,0.289340,0.138143,0.755569,-0.305976,-0.050932,-0.088114,0.775696,-19.495766,4.570160,-177.08894,0.7059159,0.13043807,-0.7577619,-0.2896151,-0.05598246,0.2627284
20231225 03:39:14,-0.044179,0.181761,0.967615,-0.297453,-0.028560,-0.048696,1.145386,-19.464706,4.303871,-175.49411,0.5633569,0.14255074,-0.7133567,-0.2612824,-0.04073779,0.22234173
20231225 03:39:14,-0.251226,0.006114,1.257110,-0.239925,0.006597,0.009898,0.941650,-19.190559,3.748062,-176.05234,0.5426772,-0.063912675,-0.859041,-0.18739034,-0.008089243,0.13499871
20231225 03:39:14,-0.313152,-0.296099,1.478831,-0.139782,0.039623,0.061034,0.987629,-19.291122,4.558907,-175.93755,0.5851856,-0.37338567,-1.0588801,-0.082696356,0.02881756,0.030872516
20231225 03:39:14,-0.249237,-0.660542,1.551718,-0.016202,0.054537,0.091930,0.907978,-18.820549,4.125488,-176.25842,0.66287744,-0.7281669,-1.1952631,0.034723945,0.050253212,-0.0649108
20231225 03:39:14,-0.212448,-0.868429,1.314872,0.113771,0.070518,0.106844,0.651218,-19.500298,4.167305,-177.14557,0.5878404,-0.9258711,-1.0067959,0.15134913,0.07263043,-0.14913675
20231225 03:39:14,-0.189340,-0.874610,0.869325,0.220306,0.099282,0.112171,0.759182,-18.551956,4.374420,-176.61104,0.38875434,-0.9155559,-0.63350964,0.24032183,0.10633347,-0.21518269
20231225 03:39:14,-0.174113,-0.818725,0.288142,0.295945,0.135504,0.118563,0.502422,-19.231705,4.416237,-177.34445,0.08014562,-0.8396137,-0.14632979,0.29898548,0.14666358,-0.27211514
20231225 03:39:14,-0.206895,-0.739006,-0.260808,0.328971,0.168530,0.123890,0.414967,-19.431816,4.830345,-177.39818,-0.28731412,-0.7351876,0.30708373,0.31954688,0.1814188,-0.30440736
20231225 03:39:14,-0.209227,-0.570357,-0.722980,0.324710,0.187706,0.131347,0.556984,-19.045364,4.940498,-176.74442,-0.6178843,-0.53862745,0.64094454,0.31336188,0.19900793,-0.31237376
20231225 03:39:14,-0.182248,-0.458521,-1.115362,0.290619,0.204752,0.143066,0.635479,-18.940254,4.532501,-176.4341,-0.9036503,-0.39943606,0.8788821,0.2909796,0.21212123,-0.3003251
20231225 03:39:14,-0.070866,-0.382421,-1.415943,0.240547,0.250562,0.154785,0.495647,-18.576645,4.775322,-176.87119,-1.0685748,-0.30159786,0.99048054,0.26129526,0.25355595,-0.2726947
20231225 03:39:14,-0.103354,-0.221410,-1.401179,0.179822,0.263346,0.161177,0.180126,-18.229477,5.285400,-177.75343,-1.1007074,-0.13733166,0.9986314,0.22266811,0.2622481,-0.2345607
20231225 03:39:14,-0.042211,-0.211639,-1.514854,0.113771,0.293175,0.173961,0.205605,-19.078285,5.475037,-177.64131,-1.1389778,-0.11308096,1.0344906,0.18560873,0.28723934,-0.1926233
20231225 03:39:14,-0.202280,-0.163881,-1.242670,0.058373,0.303829,0.193138,0.372326,-19.156837,5.213882,-176.82632,-1.0317087,-0.07962462,0.9845065,0.15666476,0.29108644,-0.16233508
20231225 03:39:14,-0.239313,-0.189257,-0.967429,0.020020,0.282522,0.233621,0.117371,-18.894615,5.328194,-178.02399,-0.84560907,-0.1422151,0.84125197,0.16293168,0.26792687,-0.17038687
20231225 03:39:14,-0.051123,-0.296014,-0.778842,0.000844,0.264411,0.271973,-0.022457,-18.530998,5.571007,-179.05783,-0.57220334,-0.26771206,0.5858428,0.18155915,0.25363094,-0.19072808
20231225 03:39:14,0.209349,-0.391844,-0.675663,-0.013006,0.246300,0.306065,-0.216846,-18.353722,5.289566,179.4592,-0.3159837,-0.3850754,0.34303486,0.20145726,0.24387005,-0.2127174
20231225 03:39:14,0.537628,-0.508162,-0.590357,-0.022594,0.236712,0.329502,-0.631748,-18.667992,5.305946,177.01648,-0.026331216,-0.54769665,0.083937734,0.21603443,0.24858989,-0.23428246
20231225 03:39:14,0.903693,-0.623518,-0.582490,-0.036443,0.228189,0.326306,-0.649677,-18.858032,5.318176,176.07028,0.23136643,-0.73003703,-0.15040275,0.20833121,0.25259724,-0.22696225
20231225 03:39:14,1.192622,-0.668111,-0.508760,-0.053489,0.222862,0.296476,-0.773766,-19.054451,5.195793,175.29889,0.49203786,-0.8221125,-0.37903866,0.1760255,0.25192478,-0.19765878
20231225 03:39:14,1.277168,-0.665715,-0.460374,-0.072665,0.223928,0.252797,-0.844067,-18.680756,5.036728,175.00601,0.5916214,-0.82645583,-0.46374896,0.13210067,0.2513685,-0.15427667
20231225 03:39:14,1.204400,-0.501831,-0.310357,-0.077992,0.219666,0.208053,-0.429165,-18.366486,5.020340,176.55243,0.6489724,-0.6289803,-0.5533228,0.09770854,0.24148753,-0.11195031
20231225 03:39:14,1.089013,-0.392937,-0.203989,-0.070534,0.218601,0.164373,-0.853031,-18.775772,5.042847,175.75816,0.6511537,-0.47234392,-0.55556834,0.069602266,0.23167807,-0.08669989
20231225 03:39:14,0.833461,-0.263517,-0.120958,-0.040705,0.230320,0.128151,-0.719978,-18.484337,5.159119,176.87695,0.5262193,-0.29214492,-0.4626457,0.06279064,0.23494744,-0.076236024
20231225 03:39:14,0.476827,-0.046037,0.005032,0.008301,0.248431,0.107910,-1.435810,-18.435829,4.478966,175.2359,0.35144573,-0.041493576,-0.32728598,0.077672675,0.24751472,-0.09911294
20231225 03:39:14,0.087064,0.176806,-0.011690,0.061569,0.249496,0.113237,-1.250004,-18.900017,5.047005,176.9164,0.046063438,0.18099421,-0.05934536,0.11173524,0.24669373,-0.13347167
20231225 03:39:14,-0.216147,0.316369,-0.117903,0.113771,0.259084,0.144132,-1.389835,-18.536392,5.289818,177.2828,-0.25983068,0.30707645,0.22636741,0.16156638,0.254926,-0.19059727
20231225 03:39:14,-0.370461,0.542924,-0.354757,0.135078,0.236712,0.199530,-1.071362,-18.517258,5.693649,178.58218,-0.55565524,0.54037917,0.5036539,0.21745911,0.22895318,-0.2386111
20231225 03:39:14,-0.285887,0.485631,-0.625885,0.126555,0.216470,0.251732,-1.038071,-18.695366,5.035751,177.92368,-0.6897777,0.5088233,0.6156262,0.25750145,0.20618808,-0.2661407
20231225 03:39:14,0.080272,0.434171,-0.997934,0.088202,0.193033,0.292215,-1.432854,-18.069527,5.392891,175.005,-0.7121886,0.44181943,0.557413,0.2785005,0.1914605,-0.26644248
20231225 03:39:14,0.578102,0.180206,-1.278783,0.039196,0.188771,0.294346,-1.680267,-18.846138,5.709061,172.94731,-0.59018373,0.094924234,0.36627257,0.25837722,0.20092644,-0.23392789
20231225 03:39:14,0.919546,0.128959,-1.328125,-0.017267,0.177053,0.260255,-1.653370,-18.561081,5.690720,171.95694,-0.40134722,-0.053283058,0.13681996,0.2013829,0.19958784,-0.16941802
20231225 03:39:14,1.144890,0.091711,-1.302330,-0.072665,0.173856,0.204856,-2.008091,-18.768417,5.030869,170.38219,-0.2335707,-0.14256999,-0.05187446,0.12558497,0.19963416,-0.094097875
20231225 03:39:14,1.115466,0.290455,-1.270609,-0.123802,0.179183,0.140936,-1.935604,-18.392036,5.542900,170.8104,-0.22813272,0.09325295,-0.08207595,0.04400231,0.19964705,-0.012476794
20231225 03:39:14,0.911351,0.550088,-1.072773,-0.182396,0.182379,0.092995,-1.953918,-18.390182,5.274658,171.78415,-0.2176969,0.4647508,-0.07445717,-0.036481723,0.19331671,0.065091774
20231225 03:39:14,0.626778,0.906556,-0.800455,-0.235663,0.160007,0.066361,-2.008091,-18.768417,5.030869,172.50525,-0.20336151,0.89081115,-0.04958999,-0.097893015,0.16309312,0.12566572
20231225 03:39:14,0.414408,1.198833,-0.539381,-0.269754,0.139765,0.059969,-2.193512,-18.496124,4.743309,172.11153,-0.15520194,1.2047317,-0.080093235,-0.1282591,0.13784204,0.15626031
20231225 03:39:14,0.297164,1.428052,-0.347963,-0.291061,0.125916,0.056773,-1.769642,-18.086823,4.720810,173.77472,-0.09673737,1.4373555,-0.10358441,-0.14658931,0.12102655,0.17701985
20231225 03:39:14,0.273098,1.504885,-0.148470,-0.286800,0.136569,0.049316,-1.936371,-18.008263,4.981964,173.28082,0.04382503,1.5104148,-0.22515875,-0.15258884,0.1320317,0.17424136
20231225 03:39:14,0.253489,1.542546,0.065753,-0.256970,0.174922,0.032270,-2.051880,-17.917763,4.572998,172.92903,0.18594585,1.5454185,-0.35917166,-0.15251379,0.16916244,0.15433967
20231225 03:39:14,0.168716,1.517830,0.380128,-0.196245,0.211144,0.012028,-2.396481,-18.605743,4.748451,172.4615,0.33896828,1.5087057,-0.5207289,-0.13450435,0.20407234,0.114049494
20231225 03:39:14,-0.038887,1.380810,0.595616,-0.103560,0.238843,-0.001821,-2.239105,-18.587440,4.212929,173.17482,0.32548705,1.3456959,-0.5043669,-0.08614683,0.23320958,0.05481956
20231225 03:39:14,-0.202608,1.310938,0.688336,0.023216,0.273999,0.008832,-2.299671,-18.502495,4.608696,173.55692,0.2550033,1.2467226,-0.44467366,0.00463789,0.2737593,-0.0443681
20231225 03:39:14,-0.295047,1.294016,0.529048,0.152123,0.300633,0.029074,-2.202477,-18.591141,4.749428,174.11708,0.07840872,1.2254648,-0.24205913,0.10325526,0.30779076,-0.15123607
20231225 03:39:14,-0.303275,1.342278,0.027058,0.251201,0.323005,0.051446,-1.815239,-18.178139,4.190430,175.13791,-0.30122885,1.3058354,0.13712007,0.17345932,0.3358434,-0.24136907
20231225 03:39:14,-0.308838,1.379220,-0.596653,0.301272,0.356031,0.080211,-2.378170,-18.607590,5.016693,173.7575,-0.79590493,1.4036083,0.516602,0.21254912,0.36891896,-0.31009153
20231225 03:39:14,-0.268640,1.475461,-1.144321,0.299141,0.399710,0.110040,-2.166618,-18.211060,4.724976,173.81128,-1.230141,1.559499,0.78297544,0.22175911,0.40674165,-0.3323886
20231225 03:39:14,-0.157451,1.624944,-1.382471,0.258658,0.468958,0.132413,-1.963646,-18.101433,4.719833,174.58739,-1.3920343,1.7451651,0.8183887,0.20513292,0.46975908,-0.31289056
20231225 03:39:14,-0.141953,1.987879,-1.331379,0.174496,0.466827,0.132413,-2.466011,-18.615822,5.150330,173.40015,-1.413915,2.1143029,0.7204333,0.1502124,0.46005043,-0.24759656
20231225 03:39:14,-0.328767,2.282707,-1.251162,0.036000,0.392253,0.132413,-2.351654,-18.130646,4.717880,174.11566,-1.5563653,2.4021847,0.827566,0.069241695,0.3692475,-0.12410329
20231225 03:39:14,-0.492934,2.305390,-1.212922,-0.151501,0.293175,0.165439,-2.245113,-18.316154,5.132965,174.93068,-1.5991843,2.3971338,0.97165626,0.0073191673,0.24978328,0.018394731
20231225 03:39:14,-0.245187,1.958827,-0.994480,-0.336871,0.237777,0.218706,-2.466782,-18.232040,4.589378,172.27531,-1.0926193,2.0129755,0.62929714,-0.04650736,0.1996825,0.12042813
20231225 03:39:14,0.296919,1.582381,-0.406225,-0.484955,0.222862,0.243209,-2.572174,-18.622200,5.015717,171.28183,-0.13425732,1.592459,-0.116595924,-0.14047772,0.21236458,0.183773
20231225 03:39:14,0.651806,1.073383,0.340912,-0.598947,0.206882,0.230425,-2.423759,-18.698906,4.486313,171.53654,0.7190022,1.0699438,-0.80684674,-0.2782813,0.2150237,0.2202577
20231225 03:39:14,0.802645,0.460977,1.201354,-0.657541,0.177053,0.198464,-3.024086,-18.740891,4.215141,169.83357,1.3759085,0.46301302,-1.4907304,-0.39620215,0.19065349,0.22330377
20231225 03:39:14,0.857495,0.037663,2.040229,-0.643692,0.124850,0.157981,-2.460388,-18.695206,3.949829,171.77968,1.8434296,0.04821781,-2.1609085,-0.44699004,0.14069444,0.21110773
20231225 03:39:14,0.841539,-0.340861,2.618365,-0.569117,0.066256,0.122825,-2.742237,-18.718048,4.082481,171.24075,2.0605955,-0.33255634,-2.6093183,-0.4256195,0.07364884,0.17831932
20231225 03:39:14,0.785599,-0.700346,2.918528,-0.452994,0.026838,0.110040,-2.805756,-18.999420,3.564331,171.20294,2.0728202,-0.69217044,-2.817188,-0.34632856,0.03211805,0.11569894
20231225 03:39:14,0.761614,-1.194555,3.015693,-0.302780,0.035361,0.114302,-2.718681,-18.607407,2.869759,171.24667,1.9902425,-1.1834553,-2.850989,-0.22246611,0.040956605,0.025397114
20231225 03:39:14,0.860787,-1.732401,3.123010,-0.135521,0.061995,0.105779,-2.717915,-18.991180,3.430695,171.49974,1.9830282,-1.72034,-2.945083,-0.08340269,0.06653687,-0.052494355
20231225 03:39:14,0.966698,-2.321895,3.214647,0.031739,0.049211,0.069557,-2.691402,-18.514236,3.131889,171.36127,1.9730278,-2.3138134,-2.9895368,0.054081067,0.04895685,-0.08241376
20231225 03:39:14,0.997238,-2.828475,3.065621,0.184084,0.004466,0.010963,-2.566544,-18.701591,3.815216,171.80827,1.8862593,-2.8246577,-2.8120193,0.17799602,-0.0025803621,-0.06969263
20231225 03:39:14,1.070604,-3.090812,2.682193,0.304468,-0.073304,-0.062546,-2.603172,-18.697891,3.278725,171.56754,1.8263832,-3.0941813,-2.427975,0.26664504,-0.08954156,-0.029760476
20231225 03:39:14,1.162016,-3.042099,1.997967,0.377977,-0.157467,-0.160558,-2.469353,-18.790230,3.955940,171.81148,1.7488203,-3.0572152,-1.8655583,0.28767303,-0.18295415,0.027884312
20231225 03:39:14,1.127419,-2.669561,1.165793,0.381173,-0.217126,-0.269223,-2.514946,-18.881546,3.425560,171.5719,1.4646986,-2.692141,-1.1939307,0.20983115,-0.24349181,0.09027046
20231225 03:39:14,0.924115,-2.049889,0.332124,0.312991,-0.236303,-0.373628,-2.478317,-18.885246,3.962051,171.83751,0.92802584,-2.0638068,-0.53624225,0.05506529,-0.24766244,0.16701297
20231225 03:39:14,0.562699,-1.408410,-0.148542,0.200064,-0.204342,-0.473770,-1.754669,-18.263077,3.794662,174.68576,0.3960656,-1.3796823,-0.12659624,-0.12693219,-0.1814681,0.2638433
20231225 03:39:14,-0.140091,-0.639547,-0.236346,0.063699,-0.153205,-0.543018,-1.481789,-18.335258,3.668121,177.09181,-0.18705387,-0.6221765,0.29509425,-0.28243434,-0.08262344,0.37663615
20231225 03:39:14,-1.051233,-0.005505,-0.014819,-0.073730,-0.109526,-0.557933,-1.093395,-18.497925,3.950546,-179.90909,-0.8046962,-0.2200357,0.69743,-0.38670883,-0.021199666,0.47066346
20231225 03:39:14,-1.918857,0.369113,0.455860,-0.187723,-0.060520,-0.502535,-0.999157,-18.952866,3.177353,-179.42943,-1.3014144,-0.27156752,0.85809505,-0.42944038,0.002655238,0.5080092
20231225 03:39:14,-2.656269,0.596870,1.160635,-0.235663,0.000205,-0.372562,-0.520348,-18.549118,3.959595,-176.60141,-1.6343918,-0.5213331,0.673468,-0.39431116,0.012190141,0.43918854
20231225 03:39:14,-3.047725,0.476006,1.903078,-0.191984,0.067322,-0.187192,-0.874683,-18.948341,3.580215,-178.34822,-1.6669457,-0.88865304,0.10279477,-0.26974922,0.041374147,0.26354253
20231225 03:39:14,-3.018154,0.117444,2.490594,-0.065208,0.099282,0.007767,-0.717308,-18.930031,3.044693,-178.81795,-1.4016695,-1.2138155,-0.5770184,-0.069629095,0.07279745,0.028696556
20231225 03:39:14,-2.655315,-0.299878,2.583893,0.102052,0.086498,0.178223,-0.698994,-18.931877,3.312943,-178.91621,-1.0115402,-1.3788065,-0.90271187,0.16035847,0.08197253,-0.2039262
20231225 03:39:14,-1.920174,-0.710646,2.102033,0.259724,0.068387,0.307130,-0.644436,-18.745537,3.837204,-179.11794,-0.5185021,-1.333248,-0.8324176,0.36762905,0.082011014,-0.39584476
20231225 03:39:14,-0.925223,-1.100899,1.245996,0.372650,0.058799,0.360397,-0.856369,-18.950188,3.848457,179.07745,-0.029740453,-1.2989905,-0.5363659,0.50148076,0.075501785,-0.5051303
20231225 03:39:14,-0.040873,-1.375658,0.355545,0.425918,0.058799,0.341221,-0.874298,-19.140228,3.860680,177.89047,0.21291822,-1.3866138,-0.22648513,0.54239833,0.06719049,-0.52512735
20231225 03:39:14,0.664350,-1.537311,-0.460717,0.423787,0.074779,0.266647,-0.643669,-19.129318,4.398148,177.51817,0.21682385,-1.5602964,0.010934025,0.49966002,0.069697104,-0.4724297
20231225 03:39:14,1.039865,-1.539126,-1.038827,0.380108,0.092890,0.156916,-0.862762,-18.487015,4.488007,176.04037,0.052952945,-1.6375062,0.19842035,0.3952931,0.07953817,-0.37018546
20231225 03:39:14,1.093215,-1.385508,-1.398874,0.304468,0.106740,0.039727,-1.190208,-18.601173,4.090294,175.20448,-0.18715006,-1.4642864,0.3683272,0.25399795,0.09761401,-0.24211723
20231225 03:39:14,0.815267,-1.154005,-1.466619,0.223502,0.108870,-0.056154,-0.925903,-18.960266,4.250336,176.97891,-0.42401087,-1.1349577,0.5297162,0.12072806,0.111221604,-0.11919378
20231225 03:39:14,0.445698,-0.926439,-1.381491,0.162777,0.096086,-0.120075,-1.401756,-18.997719,4.382019,176.41318,-0.59407854,-0.8206826,0.7137542,0.0270385,0.11179407,-0.032698184
20231225 03:39:14,0.039057,-0.690260,-1.190367,0.125490,0.074779,-0.156297,-0.598846,-18.654221,4.367584,-179.8133,-0.7300458,-0.5546012,0.81543535,-0.027688354,0.103396,0.02263014
20231225 03:39:15,-0.368531,-0.421059,-1.037840,0.107379,0.052407,-0.160558,-0.704617,-18.852486,4.513443,-179.07155,-0.9163242,-0.31036597,0.98760134,-0.04367674,0.09138945,0.037407935
20231225 03:39:15,-0.707895,-0.213642,-0.953824,0.096725,0.026838,-0.120075,-1.038071,-18.695366,5.035751,-179.10188,-1.1161585,-0.16059464,1.1711336,-0.019812137,0.0645948,0.015552156
20231225 03:39:15,-0.874291,-0.137788,-0.961695,0.083941,0.023642,-0.046566,-0.792850,-18.668831,4.366608,-178.7876,-1.25123,-0.11360143,1.2952168,0.02211506,0.046238564,-0.027190275
20231225 03:39:15,-0.756255,-0.181296,-0.886766,0.065830,0.023642,0.034401,-0.635471,-18.650520,3.831093,-179.35202,-1.1207533,-0.15926865,1.1607754,0.06697522,0.027851952,-0.07056116
20231225 03:39:15,-0.345248,-0.424476,-0.753841,0.031739,-0.004057,0.089799,-0.846252,-19.430832,4.683754,179.29008,-0.72329193,-0.3860653,0.790881,0.08423098,-0.009061021,-0.08732104
20231225 03:39:15,0.183633,-0.827369,-0.647810,-0.008744,-0.048801,0.098322,-0.598461,-18.846107,4.648056,178.81854,-0.25787872,-0.7970059,0.38100317,0.059508532,-0.052426044,-0.06766763
20231225 03:39:15,0.684398,-1.197581,-0.588159,-0.048162,-0.097807,0.047185,-0.546089,-19.409851,4.819344,178.02034,0.14834508,-1.2123322,0.05724922,-0.008684874,-0.09668397,-0.003641978
20231225 03:39:15,0.936188,-1.470338,-0.464642,-0.083319,-0.129768,-0.032716,-0.634319,-19.226181,4.672508,177.47835,0.43917912,-1.5059918,-0.13834453,-0.089048654,-0.12801085,0.08069545
20231225 03:39:15,0.960949,-1.725167,-0.295996,-0.111018,-0.161728,-0.111552,-0.626125,-18.747383,4.105446,177.71584,0.5982635,-1.7435402,-0.25236008,-0.15671778,-0.16116978,0.16025734
20231225 03:39:15,0.780584,-1.893362,-0.134386,-0.126998,-0.196885,-0.183996,-0.422771,-18.829651,4.380791,179.02783,0.6009992,-1.873584,-0.29701784,-0.20507613,-0.19689077,0.22630145
20231225 03:39:15,0.381738,-1.707963,-0.046566,-0.148305,-0.261871,-0.221283,-0.273975,-19.098244,4.131851,-179.882,0.35911405,-1.6777015,-0.184832,-0.23703729,-0.2606556,0.26586738
20231225 03:39:15,0.049066,-1.528594,-0.132477,-0.160024,-0.265067,-0.223413,-0.362206,-18.914589,3.985023,-179.6197,0.06988483,-1.5034828,0.06873137,-0.24195021,-0.26253775,0.2733461
20231225 03:39:15,-0.306873,-1.083655,-0.154247,-0.168546,-0.258675,-0.199976,0.071396,-18.794052,4.517349,-177.35466,-0.22357571,-1.0922546,0.27392644,-0.22871284,-0.2560911,0.252031
20231225 03:39:15,-0.569964,-0.715871,-0.305552,-0.170677,-0.223518,-0.155231,0.140926,-18.783974,4.115463,-176.6704,-0.53163815,-0.74840194,0.57135856,-0.19865012,-0.22456113,0.2189364
20231225 03:39:15,-0.816038,-0.246687,-0.281562,-0.160024,-0.191558,-0.099833,-0.089317,-18.986763,3.858475,-177.28629,-0.7500492,-0.3336797,0.74919575,-0.15455672,-0.19810733,0.17482978
20231225 03:39:15,-0.927213,0.193744,-0.218451,-0.144043,-0.193689,-0.049762,0.201492,-18.868912,3.719704,-176.2028,-0.84491956,0.06858747,0.8112496,-0.10561539,-0.20438297,0.12672475
20231225 03:39:15,-0.957751,0.686575,-0.335942,-0.124867,-0.205407,-0.025259,0.094952,-18.683403,3.304626,-176.70738,-1.0156854,0.567472,0.95099854,-0.068900585,-0.21570002,0.09947136
20231225 03:39:15,-1.000137,0.949599,-0.480711,-0.109952,-0.229910,-0.025259,0.210842,-18.965775,3.994064,-175.66995,-1.1869097,0.84562683,1.112257,-0.050147407,-0.23630857,0.08702576
20231225 03:39:15,-1.003726,1.225471,-0.672381,-0.117410,-0.250152,-0.011409,0.201492,-18.868912,3.719704,-175.74591,-1.3797584,1.1497483,1.2571385,-0.03834945,-0.25928652,0.08397092
20231225 03:39:15,-0.947399,1.252970,-0.742635,-0.148305,-0.246956,0.023747,0.219421,-18.678871,3.707474,-176.04709,-1.3767854,1.2088969,1.2577283,-0.038523395,-0.2662689,0.08535009
20231225 03:39:15,-0.721116,1.191580,-0.623431,-0.172808,-0.227780,0.064231,0.525982,-19.121048,3.203506,-175.90468,-1.0938637,1.1696818,1.0089469,-0.039058365,-0.2528963,0.07458481
20231225 03:39:15,-0.448690,1.014497,-0.371831,-0.182396,-0.212865,0.092995,0.746880,-18.821381,3.186142,-175.65648,-0.67240614,1.0002654,0.63364744,-0.039594367,-0.23632899,0.05631581
20231225 03:39:15,-0.208632,0.828541,-0.137740,-0.172808,-0.201146,0.103648,0.659420,-19.021507,3.600250,-176.36856,-0.30280975,0.8192835,0.28175932,-0.036199383,-0.21966188,0.03895323
20231225 03:39:15,-0.100277,0.713592,0.113738,-0.131259,-0.193689,0.099387,0.368217,-18.947464,3.458549,-177.72037,-0.033603378,0.69939446,0.007152267,-0.016491793,-0.20603538,0.012695432
20231225 03:39:15,-0.003336,0.672109,0.279192,-0.074796,-0.205407,0.081276,0.589115,-18.647797,3.441185,-177.06131,0.15752289,0.6577104,-0.17591022,0.010325719,-0.21229619,-0.01568481
20231225 03:39:15,0.079061,0.683887,0.259144,-0.015136,-0.232041,0.058904,0.086372,-18.970314,3.591209,-178.94754,0.20798159,0.67554176,-0.23296836,0.03905734,-0.23467621,-0.035253905
20231225 03:39:15,0.091417,0.751405,0.139927,0.030674,-0.260806,0.034401,0.340557,-18.848755,2.915947,-178.1385,0.1339775,0.7483984,-0.14636025,0.05612461,-0.26053786,-0.05203636
20231225 03:39:15,0.100801,0.842119,-0.069604,0.059438,-0.284243,0.017355,0.473610,-18.557320,3.032211,-177.54662,-0.014332805,0.8475708,8.0328435E-4,0.06533626,-0.28215465,-0.06325806
20231225 03:39:15,0.047373,0.902322,-0.324962,0.067961,-0.295962,0.006702,0.816410,-18.811302,2.784264,-176.26126,-0.24115257,0.91600674,0.22751075,0.06347052,-0.29316485,-0.06734886
20231225 03:39:15,0.096990,0.842492,-0.431103,0.061569,-0.301289,-0.012475,0.649685,-18.732750,3.045418,-176.96712,-0.2758242,0.86012506,0.25642768,0.04405622,-0.29839903,-0.047081582
20231225 03:39:15,0.147644,0.697604,-0.386945,0.046654,-0.318334,-0.057219,0.436985,-18.553619,2.495728,-177.91422,-0.19465251,0.7120654,0.1807496,4.2060763E-4,-0.31518742,-0.0017720386
20231225 03:39:15,0.135498,0.645267,-0.339163,0.031739,-0.338576,-0.121140,0.412663,-18.280487,3.147514,-177.93176,-0.1677008,0.6585226,0.15506668,-0.054823425,-0.33384043,0.053034186
20231225 03:39:15,0.033077,0.773502,-0.287530,0.026412,-0.342837,-0.181865,0.834724,-18.813156,3.052505,-176.10715,-0.22031158,0.787075,0.21207307,-0.09572026,-0.33215448,0.090930425
20231225 03:39:15,-0.194501,0.796689,-0.229059,0.025347,-0.340707,-0.231936,0.385384,-18.373657,2.885384,-177.40518,-0.35619357,0.7955771,0.32407075,-0.12345387,-0.3205812,0.13247311
20231225 03:39:15,-0.446946,0.822452,-0.242479,0.029608,-0.327922,-0.260701,0.897091,-17.956123,2.729248,-175.07895,-0.5584471,0.79856795,0.5382694,-0.13546565,-0.29895914,0.1397346
20231225 03:39:15,-0.621711,0.842977,-0.238611,0.041327,-0.298093,-0.282008,1.196487,-17.551369,2.303886,-173.61073,-0.69304776,0.79398954,0.677472,-0.13967931,-0.25951797,0.14152296
20231225 03:39:15,-0.837495,0.958003,-0.247898,0.067961,-0.250152,-0.295857,1.399456,-17.441734,2.298752,-172.36504,-0.8875425,0.86379564,0.86230445,-0.1279051,-0.19587359,0.13114855
20231225 03:39:15,-1.111054,1.027599,-0.233703,0.105248,-0.213930,-0.291596,1.523548,-17.245316,2.421143,-171.42813,-1.0942137,0.87229806,1.0692253,-0.09948422,-0.14683059,0.10082662
20231225 03:39:15,-1.285575,1.031876,-0.281121,0.160646,-0.142552,-0.274550,1.759804,-17.313797,1.758110,-170.53517,-1.2618469,0.8371326,1.2425027,-0.05869989,-0.06314293,0.052555025
20231225 03:39:15,-1.404975,1.125026,-0.259706,0.227763,-0.054128,-0.251113,1.497032,-17.722260,2.719948,-171.26479,-1.3529767,0.8956133,1.3132098,-0.009745225,0.031960193,9.250641E-5
20231225 03:39:15,-1.416753,1.050183,-0.140135,0.307664,0.006597,-0.218087,2.282013,-17.568802,2.717743,-168.15012,-1.2753904,0.7945802,1.2591472,0.06316188,0.09899658,-0.06957114
20231225 03:39:15,-1.398467,0.909972,-0.065561,0.381173,0.015120,-0.180800,1.531860,-18.667931,3.183937,-171.454,-1.1801171,0.6588289,1.1396149,0.13849336,0.110040195,-0.1458969
20231225 03:39:15,-1.179531,0.738677,-0.263770,0.441898,0.003401,-0.145643,2.043957,-18.442291,3.308281,-169.59818,-1.1141261,0.58849275,1.1254227,0.20090689,0.09108858,-0.22107348
20231225 03:39:15,-0.856353,0.549290,-0.589020,0.487708,0.001270,-0.127532,2.298912,-18.704506,3.193954,-168.96663,-1.0795074,0.51383483,1.0931722,0.23567656,0.07912624,-0.27600545
20231225 03:39:15,-0.635180,0.434016,-0.881805,0.519668,0.009793,-0.129663,2.141148,-18.530922,3.448997,-169.57932,-1.1257677,0.4680043,1.099807,0.24306805,0.0792482,-0.30744097
20231225 03:39:15,-0.415810,0.429693,-1.178940,0.533518,0.023642,-0.144578,2.299294,-18.896393,3.474426,-168.90182,-1.2205945,0.5224725,1.0975785,0.21783528,0.08885579,-0.3260756
20231225 03:39:15,-0.302008,0.673753,-1.534310,0.516472,0.068387,-0.164819,2.539272,-18.982361,4.286255,-167.38858,-1.4974483,0.8266978,1.1914274,0.15479395,0.13154165,-0.321931
20231225 03:39:15,-0.364826,1.242250,-1.725129,0.447225,0.135504,-0.175473,2.732510,-18.583977,3.726280,-165.28621,-1.8091737,1.441393,1.3768451,0.0757342,0.20092314,-0.26663387
20231225 03:39:15,-0.505057,1.966290,-1.608023,0.302337,0.129112,-0.149904,2.645046,-18.784081,4.140388,-165.27435,-1.9286207,2.1410844,1.5091643,0.012566596,0.18154126,-0.16388664
20231225 03:39:15,-0.419125,2.379373,-1.334827,0.099921,0.069452,-0.106225,2.865944,-18.484413,4.123024,-165.1341,-1.6331949,2.485712,1.3655146,-0.044405762,0.089437105,-0.020563316
20231225 03:39:15,-0.087604,2.607547,-0.864356,-0.116344,-0.000861,-0.064677,2.751209,-18.777710,4.275002,-167.56688,-0.9253174,2.6504738,0.8628228,-0.11869994,-0.001763273,0.13161871
20231225 03:39:15,0.214005,2.703671,-0.080016,-0.304911,-0.081827,-0.031651,2.909351,-19.143181,4.300430,-168.45457,-0.0094209835,2.7088504,0.20738384,-0.2084128,-0.087482885,0.25080347
20231225 03:39:15,0.413338,2.467682,0.605853,-0.457256,-0.156401,0.008832,3.041637,-18.467957,3.855759,-168.51129,0.71999395,2.4668484,-0.37845245,-0.29380593,-0.15775304,0.3180341
20231225 03:39:15,0.660057,1.811874,1.165350,-0.557398,-0.173447,0.046120,3.014359,-18.561134,3.593628,-169.61186,1.3111659,1.8191265,-1.0486921,-0.3747881,-0.16300054,0.3288093
20231225 03:39:15,0.760273,0.931872,1.897187,-0.590424,-0.137225,0.056773,3.111553,-18.649773,3.734352,-169.96234,1.7693306,0.9436092,-1.816407,-0.4359902,-0.1262571,0.29569814
20231225 03:39:15,0.709709,0.176956,2.894648,-0.525438,-0.103134,0.046120,3.181084,-18.639687,3.332474,-169.8884,2.1410673,0.18968111,-2.7646334,-0.42127135,-0.096744195,0.22553374
20231225 03:39:15,0.590447,-0.510611,3.671413,-0.364570,-0.104199,0.006702,2.720589,-19.045288,2.818481,-171.51476,2.2567086,-0.50301695,-3.5443947,-0.31825918,-0.10217828,0.15321791
20231225 03:39:15,0.491148,-1.067628,3.996966,-0.147239,-0.125506,-0.065742,2.880539,-18.468796,2.916420,-170.738,2.1784456,-1.0843111,-3.9237556,-0.16047776,-0.12685479,0.10400534
20231225 03:39:15,0.184840,-1.362089,3.995009,0.120163,-0.162794,-0.161623,3.393017,-18.435043,3.321228,-168.92781,1.9125682,-1.4232931,-3.852675,0.041535176,-0.15553562,0.063042074
20231225 03:39:15,-0.135589,-1.371600,3.406470,0.405676,-0.155336,-0.245786,3.417725,-18.900063,2.949913,-168.51434,1.5281495,-1.505743,-3.1238697,0.24880475,-0.11668576,-0.0053768307
20231225 03:39:15,-0.541467,-1.132979,2.422359,0.645379,-0.089284,-0.292661,3.568707,-18.418587,3.053955,-166.84595,0.90695,-1.3634343,-1.9230212,0.39738524,0.008252155,-0.12092169
20231225 03:39:15,-1.013279,-0.807624,1.432106,0.789201,-0.023233,-0.267093,3.462936,-18.616852,3.199814,-166.2391,0.10500836,-1.124575,-0.68053675,0.48562735,0.13655373,-0.26055616
20231225 03:39:15,-1.248563,-0.643846,0.636683,0.812639,-0.017906,-0.170146,3.869251,-18.589478,3.470009,-163.94937,-0.47267506,-0.94713426,0.18566641,0.52410173,0.15519866,-0.39503384
20231225 03:39:15,-1.124810,-0.672001,-0.137062,0.755110,-0.022168,-0.045500,4.090153,-18.289810,3.452652,-162.61714,-0.8190429,-0.813268,0.71234286,0.52742434,0.10362283,-0.48567632
20231225 03:39:15,-0.590203,-0.594781,-0.610100,0.635791,-0.076500,0.075949,4.269566,-18.290833,4.660240,-162.95993,-0.7922493,-0.5872805,0.70780444,0.5057034,-0.026982624,-0.5205695
20231225 03:39:15,0.114963,-0.867331,-1.107884,0.464270,-0.139356,0.161177,4.269566,-18.290833,4.660240,-164.76779,-0.7140353,-0.85398036,0.4963305,0.43824756,-0.13628767,-0.46882442
20231225 03:39:15,0.775539,-1.200690,-1.464376,0.249070,-0.191558,0.201660,3.969406,-18.311821,4.524651,-168.25244,-0.62795377,-1.3903531,0.25669616,0.29928225,-0.19321935,-0.34342203
20231225 03:39:15,1.512925,-1.469861,-1.634935,-0.000221,-0.225649,0.183549,4.118198,-18.580421,4.275726,-170.12341,-0.28594303,-1.9731548,-0.09177244,0.08553499,-0.18691139,-0.15640025
20231225 03:39:15,1.983394,-1.751714,-1.473865,-0.253774,-0.234172,0.113237,4.012039,-18.586800,4.141113,-171.2591,0.25001508,-2.3779519,-0.39773738,-0.16422513,-0.14924243,0.054536417
20231225 03:39:15,2.132732,-2.003549,-0.926277,-0.462582,-0.230976,0.020551,4.066597,-18.400459,4.665375,-171.50354,0.88852674,-2.5255008,-0.7557685,-0.39750567,-0.12247035,0.2285935
20231225 03:39:15,2.037884,-2.241087,-0.201831,-0.589359,-0.207538,-0.083853,4.223591,-18.190262,3.849396,-169.36974,1.3714498,-2.56724,-1.2718968,-0.5644982,-0.11074034,0.3525735
20231225 03:39:15,1.703630,-2.233355,0.602286,-0.633038,-0.179839,-0.180800,4.275192,-18.370224,3.459740,-168.14395,1.6167035,-2.3733346,-1.7638164,-0.6495629,-0.11514903,0.43985206
20231225 03:39:15,1.280194,-2.142015,1.207056,-0.608535,-0.156401,-0.261766,4.441921,-18.448792,3.198586,-166.85321,1.6193842,-2.1780553,-2.075048,-0.66480494,-0.12321582,0.4871871
20231225 03:39:15,0.850270,-1.974132,1.624424,-0.536092,-0.128702,-0.329948,4.317829,-18.645203,3.076202,-166.58643,1.5111818,-1.9729031,-2.194966,-0.63001853,-0.12253294,0.5142087
20231225 03:39:15,0.318051,-1.718692,1.874597,-0.426361,-0.070108,-0.369366,4.581364,-18.620514,2.675293,-164.9683,1.2307575,-1.7429218,-2.1214304,-0.5513079,-0.07759987,0.50432956
20231225 03:39:15,-0.256899,-1.445906,2.118281,-0.274016,-0.006187,-0.369366,4.520031,-18.151794,2.510124,-164.11966,0.9012598,-1.575316,-1.9837008,-0.41993508,-0.01201234,0.44299877
20231225 03:39:15,-0.807370,-1.173100,2.190718,-0.105691,0.048145,-0.325687,4.820194,-18.130806,2.645706,-162.59276,0.509378,-1.4464378,-1.6836076,-0.25934774,0.059598625,0.3334304
20231225 03:39:15,-1.185010,-1.039614,1.999247,-0.030051,0.059864,-0.285204,4.969372,-18.591293,2.677246,-162.30559,0.097902775,-1.3872517,-1.2886062,-0.17628238,0.08055125,0.26371577
20231225 03:39:15,-1.220100,-1.024136,1.559213,0.143601,0.066256,-0.144578,5.075150,-18.393036,2.531395,-161.3427,-0.067892134,-1.3642088,-0.8347837,0.034750395,0.10318314,0.052962877
20231225 03:39:15,-0.991389,-1.035043,0.937770,0.207521,0.061995,-0.061481,5.287849,-18.572159,3.081085,-160.71939,-0.16850531,-1.2441771,-0.42087343,0.12751824,0.09493559,-0.056921892
20231225 03:39:15,-0.782534,-1.053012,0.596858,0.233090,0.079040,-0.006082,5.208202,-18.101585,2.647659,-160.47209,-0.17205393,-1.1647191,-0.23760504,0.17388412,0.10119636,-0.11838537
20231225 03:39:15,-0.177663,-1.095241,-0.313281,0.224567,0.114197,0.012028,5.075150,-18.393036,2.531395,-160.98193,-0.2739836,-1.0846865,0.06928828,0.17182805,0.12834057,-0.12627925
20231225 03:39:15,-0.058937,-1.054102,-0.544241,0.185149,0.162138,0.005636,5.666126,-18.254181,2.528214,-158.362,-0.36289412,-1.0271068,0.12564611,0.13024457,0.17124483,-0.08759061
20231225 03:39:15,0.084657,-0.763795,-1.081422,0.151058,0.187706,-0.002886,5.296814,-18.477142,3.074966,-159.83356,-0.65516603,-0.698304,0.47604546,0.09540479,0.19560339,-0.0580129
20231225 03:39:15,0.073217,-0.654253,-1.140413,0.020020,0.243104,-0.018867,5.333443,-18.480843,3.611465,-159.4339,-0.72369623,-0.5703738,0.5281791,-0.015928883,0.24460532,0.057030078
20231225 03:39:15,-0.183773,-0.276460,-0.990719,-0.050293,0.259084,-0.010344,5.730030,-18.164711,3.326836,-156.72694,-0.80820084,-0.18807596,0.6849561,-0.06920696,0.25244042,0.11352484
20231225 03:39:15,-0.415610,-0.020219,-0.804490,-0.097168,0.264411,0.029074,5.587627,-18.359283,2.936203,-156.81673,-0.856472,0.03262259,0.8061801,-0.08072301,0.24436007,0.123686604
20231225 03:39:15,-0.618794,0.115983,-0.575932,-0.116344,0.259084,0.101518,5.278885,-18.667183,3.087196,-158.36739,-0.85271215,0.10970961,0.8465798,-0.04501394,0.22561853,0.08382827
20231225 03:39:15,-0.636131,0.155545,-0.482633,-0.109952,0.243104,0.181419,5.244831,-18.105286,3.184151,-158.38942,-0.80389714,0.13656753,0.808062,0.021902673,0.20649226,0.022472352
20231225 03:39:15,-0.339192,0.215017,-0.365278,-0.096103,0.230320,0.254928,5.226898,-18.295326,3.196381,-159.1217,-0.5147354,0.2164381,0.5346095,0.09461886,0.19910763,-0.04015775
20231225 03:39:15,0.008825,0.207389,-0.400190,-0.085449,0.227124,0.310326,5.393623,-18.373894,2.935226,-159.17314,-0.28903627,0.22768846,0.30761278,0.14926404,0.20645541,-0.08578701
20231225 03:39:15,0.328549,0.117596,-0.365117,-0.081188,0.215405,0.343352,4.996651,-18.498131,2.939384,-161.50693,-0.026062563,0.12770827,0.04039304,0.18129659,0.20916519,-0.12523691
20231225 03:39:15,0.627950,0.032456,-0.351511,-0.081188,0.197294,0.350809,4.856823,-18.134506,3.182198,-162.45102,0.19869062,0.020077862,-0.19736424,0.1918667,0.2027001,-0.13804887
20231225 03:39:15,0.846122,-0.049849,-0.371833,-0.090776,0.175987,0.339090,4.865788,-18.039490,3.176086,-162.87411,0.34544086,-0.09000825,-0.34623852,0.1769826,0.18980888,-0.13170488
20231225 03:39:15,1.001248,-0.152566,-0.345100,-0.103560,0.158942,0.313522,5.032513,-18.118050,2.914932,-162.54384,0.4813738,-0.21542567,-0.48456395,0.14772151,0.17769241,-0.110819906
20231225 03:39:15,1.058842,-0.220583,-0.300148,-0.109952,0.150419,0.274104,4.590328,-18.525497,2.669182,-164.24194,0.56212676,-0.2857381,-0.55266494,0.112365544,0.16796973,-0.0885717
20231225 03:39:15,1.039474,-0.304505,-0.169641,-0.113148,0.132308,0.231490,4.580982,-18.428635,2.394829,-164.19272,0.6511402,-0.36402127,-0.6302277,0.07471047,0.14813106,-0.06445661
20231225 03:39:15,1.093298,-0.492829,-0.063776,-0.119540,0.092890,0.178223,4.723000,-18.042168,2.504990,-163.75732,0.76720715,-0.55362546,-0.7683742,0.028863795,0.107346505,-0.032702796
20231225 03:39:15,1.064126,-0.522097,0.012444,-0.121671,0.059864,0.122825,4.441151,-18.065010,2.637642,-164.7975,0.79436064,-0.57541996,-0.80412674,-0.010341071,0.07145066,7.8163296E-4
20231225 03:39:15,1.051279,-0.495893,0.034852,-0.108887,0.048145,0.079145,4.644119,-17.955383,2.632500,-163.87306,0.80307174,-0.5389885,-0.8136716,-0.029571913,0.05565759,0.023200583
20231225 03:39:16,0.753202,-0.346813,0.150950,-0.101429,0.047080,0.059969,4.659863,-18.515411,2.267303,-163.58714,0.6635091,-0.359563,-0.6749732,-0.037040524,0.05022155,0.032549
20231225 03:39:16,0.552994,-0.194083,0.216716,-0.067338,0.038557,0.038662,4.474823,-18.435005,2.260216,-163.55508,0.55961657,-0.19026992,-0.56317544,-0.02519732,0.037487548,0.025003077
20231225 03:39:16,0.447154,-0.074312,0.233450,-0.050293,0.041753,0.038662,4.174660,-18.456001,2.124634,-163.9423,0.4894314,-0.06540137,-0.4830879,-0.012287917,0.038435765,0.015245292
20231225 03:39:16,0.023522,0.263119,0.170413,0.017890,0.063060,0.062100,4.132023,-18.181015,2.508171,-163.54735,0.11823098,0.25350362,-0.08072506,0.05179569,0.060262136,-0.042573795
20231225 03:39:16,-0.131666,0.324355,0.069640,0.073288,0.080106,0.090864,4.758862,-17.662086,2.480537,-160.38829,-0.06970271,0.30752295,0.122921616,0.109673545,0.07850331,-0.09320029
20231225 03:39:16,-0.205794,0.378470,-0.033040,0.128686,0.090759,0.118563,4.096165,-18.561096,2.532623,-163.26682,-0.19784863,0.3626088,0.24532665,0.1670013,0.0908242,-0.15304713
20231225 03:39:16,-0.200039,0.297820,-0.495096,0.160646,0.087563,0.146262,4.607876,-18.143570,2.376488,-160.73032,-0.5180934,0.31957865,0.5337747,0.20935264,0.087491885,-0.19175579
20231225 03:39:16,0.001818,0.172324,-0.810190,0.151058,0.058799,0.168635,4.465473,-18.338135,1.985855,-161.50278,-0.6020831,0.20659505,0.5550745,0.22367164,0.057422295,-0.20681253
20231225 03:39:16,0.402663,-0.042215,-1.085428,0.096725,0.012989,0.172896,4.732346,-18.139030,2.779343,-161.88516,-0.53087556,-0.058859073,0.3889688,0.19305193,0.013957521,-0.17948581
20231225 03:39:16,0.827744,-0.206378,-1.349962,0.022151,-0.036017,0.151589,4.626190,-18.145416,2.644730,-162.8914,-0.4768964,-0.3371562,0.19003916,0.12579456,-0.02752571,-0.11928482
20231225 03:39:16,1.140415,-0.161130,-1.578710,-0.068404,-0.054128,0.116433,3.911125,-18.480690,2.525536,-166.0331,-0.4722662,-0.41500723,0.09585607,0.038367268,-0.036166437,-0.029351365
20231225 03:39:16,1.289344,-0.085393,-1.657623,-0.160024,-0.036017,0.068492,4.238182,-18.174637,2.642776,-164.82814,-0.44245845,-0.3779678,0.021586537,-0.054388605,-0.013973409,0.0744067
20231225 03:39:16,1.272193,0.011166,-1.613151,-0.202638,-0.017906,0.040793,4.026249,-18.379280,2.654030,-165.33638,-0.39912033,-0.20598334,0.041495204,-0.10161919,-6.545691E-4,0.12604408
20231225 03:39:16,1.000205,0.370729,-1.121709,-0.281473,0.017250,-0.033782,4.502102,-18.341835,2.522354,-162.93518,-0.16547185,0.28681174,0.028484821,-0.2104386,0.026122186,0.23607892
20231225 03:39:16,0.830860,0.447424,-0.947835,-0.288931,0.026838,-0.060415,4.140987,-18.085999,2.502060,-163.30762,-0.15106887,0.46677896,0.07857001,-0.23886251,0.024541946,0.25832188
20231225 03:39:16,0.387227,0.680154,-0.586890,-0.266558,0.026838,-0.062546,4.156727,-18.646034,2.136856,-163.15149,-0.19360441,0.7086917,0.22499059,-0.22657968,0.021221695,0.24256863
20231225 03:39:16,-0.061492,1.022084,-0.290820,-0.228206,0.016185,-0.047631,4.386593,-18.251350,2.113380,-161.39275,-0.32473803,1.03369,0.4506865,-0.18983889,0.0052605635,0.20257992
20231225 03:39:16,-0.145373,1.132028,-0.214227,-0.204768,0.012989,-0.034847,4.519646,-17.959908,2.229645,-160.64445,-0.33308268,1.1328373,0.4954027,-0.164109,0.002627145,0.17669564
20231225 03:39:16,-0.098704,1.248118,-0.174109,-0.146174,-0.006187,0.004571,4.491985,-17.861191,1.687050,-160.40518,-0.2644159,1.2493829,0.4627266,-0.09393778,-0.013711872,0.10448774
20231225 03:39:16,-0.022409,1.263804,-0.224168,-0.133390,-0.009383,0.013094,4.474052,-18.051231,1.699272,-160.82579,-0.22970971,1.2698833,0.43330094,-0.078520566,-0.014324782,0.08940699
20231225 03:39:16,0.434270,1.217356,-0.352521,-0.107822,0.008728,0.009898,4.765636,-18.317146,2.121445,-160.81895,0.021787167,1.2182173,0.1596212,-0.06396094,0.008604259,0.07653003
20231225 03:39:16,0.582003,1.188415,-0.360845,-0.097168,0.028969,-0.006082,4.465473,-18.338135,1.985855,-162.21553,0.13773435,1.1755925,0.03956306,-0.069070496,0.030122455,0.08204889
20231225 03:39:16,0.705793,1.075215,-0.294242,-0.080123,0.049211,-0.034847,4.395176,-17.964447,1.826797,-162.40218,0.28918618,1.0548357,-0.102618024,-0.07911102,0.050026532,0.09138571
20231225 03:39:16,0.658282,0.934594,-0.140235,-0.044966,0.067322,-0.072134,4.950291,-18.205673,1.848068,-160.56845,0.36120954,0.9298328,-0.16690947,-0.08273993,0.06714304,0.09510437
20231225 03:39:16,0.518866,0.903885,-0.036426,0.013628,0.084367,-0.101964,4.729012,-18.313446,1.584953,-161.12163,0.32792276,0.9091061,-0.14238013,-0.06418634,0.085483976,0.07679874
20231225 03:39:16,0.311204,0.911908,0.009172,0.048785,0.090759,-0.117944,4.598911,-18.238594,2.382599,-161.68785,0.19269638,0.92038506,-0.031860664,-0.054085184,0.09601106,0.06217955
20231225 03:39:16,0.039994,1.019733,-0.160173,0.170234,0.125916,-0.150970,4.686371,-18.038467,1.968491,-159.92787,-0.16204655,1.0288996,0.30769542,-0.005104542,0.14673316,-0.0010848343
20231225 03:39:16,-0.258254,1.259929,-0.375930,0.251201,0.168530,-0.146708,4.749512,-17.565216,2.206169,-158.14572,-0.59453046,1.2632651,0.7280912,0.0338867,0.20802592,-0.06148067
20231225 03:39:16,-0.675126,1.517879,-0.633604,0.316187,0.209013,-0.122205,4.686371,-18.038467,1.968491,-157.49217,-1.1556516,1.4981139,1.258034,0.071324684,0.26639113,-0.12481101
20231225 03:39:16,-0.801426,1.588641,-0.738942,0.339625,0.224993,-0.100898,4.925968,-17.932549,2.499847,-155.27397,-1.3713181,1.5655503,1.4428185,0.080731645,0.28906953,-0.1600872
20231225 03:39:16,-0.975467,1.866232,-1.001910,0.356670,0.230320,-0.049762,5.162605,-18.192909,2.117287,-153.54872,-1.7560096,1.8648702,1.7991096,0.118857875,0.28789046,-0.20440447
20231225 03:39:16,-0.978350,2.190688,-1.400415,0.298076,0.196229,-0.001821,5.198467,-17.812828,2.092834,-150.15082,-2.1692371,2.2969685,2.027692,0.10667573,0.2310823,-0.2040722
20231225 03:39:16,-0.757913,2.525761,-2.001547,0.146797,0.132308,0.032270,5.182728,-17.252800,2.458031,-149.19179,-2.6055837,2.786267,2.141455,0.07090148,0.13910346,-0.10812734
20231225 03:39:16,-0.613757,2.454100,-2.109843,-0.083319,0.091825,0.068492,5.225746,-17.719666,2.354965,-150.56474,-2.5242372,2.7094014,2.046071,8.664876E-4,0.06981627,0.0650616
20231225 03:39:16,-0.053803,2.178096,-1.843470,-0.432753,0.128047,0.101518,5.138283,-17.919785,2.769073,-157.52214,-1.5721605,2.211594,1.5177559,-0.17133625,0.120259,0.3260967
20231225 03:39:16,0.528910,1.902637,-1.017198,-0.524373,0.154680,0.088734,5.304626,-17.806450,2.227440,-157.74893,-0.44910565,1.8923391,0.627139,-0.25774908,0.15828474,0.3943359
20231225 03:39:16,0.701911,1.250602,0.793829,-0.683110,0.180249,0.015224,4.773834,-17.838348,1.554390,-161.42812,1.0400424,1.2503601,-0.73218095,-0.50039226,0.17251879,0.48785672
20231225 03:39:16,0.380489,0.956875,2.042649,-0.818409,0.114197,-0.112617,5.391705,-17.414444,1.532867,-159.59381,1.4972864,0.9075547,-1.493448,-0.72608715,0.083365664,0.60690194
20231225 03:39:16,0.184542,0.883018,2.618814,-0.825866,0.074779,-0.144578,5.355076,-17.410751,0.996376,-159.66624,1.6147664,0.78418505,-1.8652065,-0.7620203,0.03223794,0.6064773
20231225 03:39:16,-0.482281,0.664046,3.983187,-0.714005,-0.025364,-0.159493,5.540501,-17.683044,1.283936,-160.07318,1.5457914,0.3844124,-2.7923064,-0.6947478,-0.08590334,0.48276168
20231225 03:39:16,-0.707933,0.182422,4.417425,-0.520111,-0.009383,-0.100898,5.239956,-17.512146,0.867882,-161.25775,1.3911097,-0.13550979,-3.3294253,-0.5069579,-0.05845477,0.32260615
20231225 03:39:16,-0.689813,-0.120980,4.476537,-0.398662,0.025773,-0.064677,5.504257,-17.871239,1.027924,-161.14096,1.2775463,-0.39708886,-3.5738833,-0.38925514,-0.010808683,0.23277327
20231225 03:39:16,-0.557580,-1.118981,4.812866,-0.101429,0.086498,-0.008213,5.767792,-17.846550,0.627022,-160.76822,1.2622201,-1.3541486,-4.374685,-0.100813404,0.07625922,0.07061633
20231225 03:39:16,-0.510627,-1.963264,4.716504,0.211783,0.128047,0.032270,5.476593,-17.772514,0.485313,-161.963,1.0257777,-2.1460562,-4.6851206,0.20741364,0.14636604,-0.056964293
20231225 03:39:16,-0.279899,-2.804802,4.281546,0.499427,0.111001,0.049316,5.434338,-17.689430,1.149323,-162.2529,0.9706166,-2.906596,-4.6628385,0.49122173,0.14591642,-0.15077229
20231225 03:39:16,0.078871,-3.330472,3.490117,0.750849,0.048145,0.034401,5.540501,-17.683044,1.283936,-162.05354,1.0708351,-3.3709552,-4.2039843,0.73119473,0.0847131,-0.2215198
20231225 03:39:16,0.368369,-3.508811,2.294935,0.944742,-0.039213,-0.008213,5.876907,-17.473869,1.675545,-160.54942,1.2387965,-3.521602,-3.2266903,0.87286365,-0.0154535705,-0.3598195
20231225 03:39:16,0.550224,-2.934409,0.072814,1.044885,-0.143617,-0.059350,5.817108,-17.772705,2.632248,-160.37357,0.55788326,-2.9191103,-1.1874458,0.871088,-0.11409949,-0.52593124
20231225 03:39:16,0.541448,-2.636269,-0.618229,1.009729,-0.186231,-0.072134,5.489666,-17.886864,2.234528,-160.37157,0.14363328,-2.5986896,-0.5633052,0.78006,-0.14843006,-0.58820415
20231225 03:39:16,0.427520,-1.932621,-2.069150,0.837142,-0.241629,-0.082788,6.107922,-17.654846,2.493484,-152.19035,-1.287829,-1.7626334,0.19755542,0.4401872,-0.1935908,-0.7015585
20231225 03:39:16,0.390444,-1.174448,-3.188175,0.527126,-0.253348,-0.090245,5.862316,-17.489502,2.882156,-148.8556,-2.482544,-0.8147862,0.66024864,0.19680378,-0.21295153,-0.48978534
20231225 03:39:16,0.325405,-0.539324,-3.832011,0.115902,-0.219257,-0.107291,5.905720,-18.148254,3.059555,-148.84213,-3.0357919,0.12414187,1.1845437,5.232841E-4,-0.18732461,-0.111658245
20231225 03:39:16,0.025851,-0.219745,-3.538797,-0.312368,-0.167055,-0.123271,5.701984,-17.874107,2.503754,-149.92677,-2.8662946,0.44151044,1.5536984,-0.23761575,-0.17665619,0.27642304
20231225 03:39:16,-0.472155,-0.074527,-2.458676,-0.667129,-0.127637,-0.108356,5.895988,-17.859497,2.504730,-152.73839,-2.0957701,0.33037007,1.7590791,-0.48878658,-0.2141948,0.5310195
20231225 03:39:16,-1.032267,-0.104892,-0.943468,-0.879134,-0.078631,-0.047631,6.116501,-17.367935,2.206894,-154.1005,-1.3568959,-0.14141546,1.2848499,-0.67600787,-0.24392438,0.58760375
20231225 03:39:16,-1.432103,-0.187679,0.581376,-0.892983,-0.002991,0.118563,6.009960,-17.182434,1.791817,-156.65442,-0.8682976,-0.56575364,0.27060732,-0.68578154,-0.20879456,0.39441672
20231225 03:39:16,-1.688864,-0.379848,1.820869,-0.755553,-0.008318,0.254928,6.255947,-17.539665,1.683609,-157.10129,-0.55221456,-0.9298508,-0.75471705,-0.534124,-0.19357699,0.16556115
20231225 03:39:16,-1.761290,-0.589609,2.687231,-0.660737,-0.029625,0.318849,5.849625,-17.567032,1.413414,-158.71867,-0.2261535,-1.2077693,-1.5403172,-0.4275658,-0.19253176,0.046738565
20231225 03:39:16,-1.481152,-0.719948,2.954053,-0.447668,-0.069043,0.433906,5.734119,-17.476555,1.004448,-159.22942,0.14437425,-1.1909618,-1.9467313,-0.18420202,-0.1748327,-0.16483319
20231225 03:39:16,-0.887771,-0.809008,2.696237,-0.233533,-0.054128,0.505285,5.336761,-17.408897,0.728127,-160.64555,0.5512142,-1.037524,-2.0404954,0.039109856,-0.10421412,-0.32181233
20231225 03:39:16,0.205062,-1.130100,2.001511,0.045589,0.019381,0.492500,5.585709,-17.399834,1.533844,-160.60745,1.1566164,-1.140919,-2.0791626,0.27834958,0.016631598,-0.4228479
20231225 03:39:16,0.445768,-1.249040,1.780448,0.178757,0.047080,0.421122,5.019054,-17.811813,0.885239,-162.6437,1.2528856,-1.2344574,-2.0199435,0.36480743,0.048587963,-0.42547047
20231225 03:39:16,0.792310,-1.438718,1.178491,0.232024,0.058799,0.374247,4.703918,-17.656540,1.675797,-163.8377,1.2632521,-1.4394828,-1.7195117,0.3960758,0.05879762,-0.41389793
20231225 03:39:16,0.868125,-1.369861,0.606415,0.309795,0.066256,0.282627,4.958488,-17.726875,1.281006,-162.59325,1.0269778,-1.384998,-1.3027588,0.4154716,0.061885856,-0.37891546
20231225 03:39:16,0.733764,-1.145728,-0.228166,0.364128,0.044949,0.160112,4.712498,-17.369629,1.389214,-162.2849,0.42100567,-1.1638175,-0.55418766,0.38638604,0.040079743,-0.33317816
20231225 03:39:16,0.681510,-1.050580,-0.474367,0.364128,0.034296,0.122825,4.791763,-17.648308,1.542160,-162.02614,0.20965499,-1.0682776,-0.3355233,0.3595403,0.02989002,-0.31361282
20231225 03:39:16,0.591350,-0.891105,-0.961316,0.342821,0.005531,0.053577,4.765255,-18.125259,1.840981,-161.93178,-0.2213971,-0.8967844,0.0667969,0.2881391,0.0044033146,-0.2688376
20231225 03:39:16,0.384156,-0.650471,-1.394028,0.283161,-0.017906,-0.007148,4.510681,-18.054924,2.235764,-161.8576,-0.71455497,-0.59840906,0.5045413,0.19234692,-0.009684408,-0.20259574
20231225 03:39:16,0.086309,-0.390685,-1.653296,0.192607,-0.027494,-0.039108,4.994732,-17.538681,1.537025,-157.76857,-1.1329557,-0.2608708,0.8637442,0.10242097,-0.0115955705,-0.12549497
20231225 03:39:16,-0.197581,-0.165100,-1.678987,0.092464,-0.026429,-0.043370,4.740162,-17.468353,1.931816,-158.41335,-1.3580625,-0.008879915,1.1437054,0.031958483,-0.013278377,-0.048847064
20231225 03:39:16,-0.420955,-0.040445,-1.584366,0.002975,-0.018972,-0.033782,4.871025,-17.927002,1.695114,-158.08095,-1.433177,0.11513169,1.2892144,-0.020194922,-0.013981072,0.014095468
20231225 03:39:16,-0.600589,-0.027015,-1.373608,-0.070534,0.004466,-0.011409,4.714035,-18.137184,2.511101,-159.60239,-1.3835086,0.08195613,1.3199209,-0.057671923,-0.003370709,0.059241883
20231225 03:39:16,-0.751354,-0.106842,-0.938155,-0.118475,0.004466,0.022682,5.092308,-17.819214,1.958221,-158.51471,-1.1654038,-0.08698474,1.1221284,-0.071491376,-0.014531401,0.06709954
20231225 03:39:16,-0.722767,-0.281590,-0.542440,-0.138717,-0.024298,0.052512,4.934166,-17.453751,1.932793,-159.74782,-0.86974865,-0.30834532,0.78242934,-0.06928505,-0.04533386,0.046320163
20231225 03:39:16,-0.591106,-0.431237,-0.315989,-0.130194,-0.065847,0.071688,4.722233,-17.658386,1.944038,-160.87091,-0.61414963,-0.46083504,0.5033561,-0.047026638,-0.08529956,0.016602613
20231225 03:39:16,-0.375045,-0.526483,-0.359597,-0.117410,-0.087154,0.078080,4.958874,-17.918762,1.561478,-160.46269,-0.48434097,-0.5290812,0.3671323,-0.033500448,-0.10037126,-0.0020856783
20231225 03:39:16,-0.070105,-0.569657,-0.409706,-0.115279,-0.109526,0.041858,4.749512,-17.565216,2.206169,-161.68607,-0.3008119,-0.55874,0.2053138,-0.057247728,-0.11494982,0.018261839
