Timestamp,linacce_x,linacce_y,linacce_z,gyro_x,gyro_y,gyro_z,X-magnetometer,Y-magnetometer,Z-magnetometer,Yaw, worldXAccel,worldYAccel,worldZAccel,worldXgyro,worldYgyro,worldZgyro
20231225 03:38:19,-0.676810,0.129142,-0.118241,0.373716,0.391188,-0.236198,-1.952190,-31.398994,-2.584274,174.30238,-0.6154996,0.059003785,0.5019085,0.1120093,0.45273018,-0.07779737
20231225 03:38:19,-1.009510,-0.039840,-0.065452,0.457878,0.376273,-0.199976,-1.694279,-31.294914,-1.784676,175.19968,-0.83269143,-0.18389285,0.67249787,0.19769534,0.46188444,-0.14780861
20231225 03:38:19,-1.175719,-0.230692,-0.316095,0.520734,0.331528,-0.133924,-1.278992,-31.172531,-1.520592,176.17767,-1.0823821,-0.38783616,0.9872154,0.28247678,0.43323973,-0.23451747
20231225 03:38:19,-1.162261,-0.562479,-0.703085,0.548433,0.284653,-0.052958,-1.393730,-31.465813,-1.368622,176.04552,-1.2599893,-0.6531588,1.3019059,0.3588943,0.379577,-0.31451774
20231225 03:38:19,-0.905002,-0.892221,-0.961365,0.533518,0.216470,0.012028,-1.276421,-30.614342,-0.887146,176.59872,-1.1922486,-0.90101564,1.3544228,0.4055084,0.2898771,-0.34506086
20231225 03:38:19,-0.623719,-1.053506,-1.218122,0.505819,0.134439,0.020551,-0.995991,-31.725349,-0.811836,177.35887,-1.1442513,-0.99554175,1.3727348,0.38966992,0.19081984,-0.3428139
20231225 03:38:19,-0.269164,-0.995286,-1.400575,0.504754,0.126981,0.008832,-1.620640,-31.494202,-0.431221,175.89609,-1.0550755,-0.89980155,1.2673194,0.3691681,0.1698001,-0.35283592
20231225 03:38:19,-0.012593,-0.593089,-1.701992,0.526061,0.194098,-0.029520,-1.407936,-31.673340,0.118462,176.3013,-1.2233617,-0.48644325,1.1813397,0.3213085,0.22499761,-0.37677005
20231225 03:38:19,0.113859,0.143766,-1.990614,0.433375,0.201556,-0.100898,-1.619869,-31.877983,0.129715,175.30836,-1.517542,0.27743495,1.1058068,0.16992053,0.22875601,-0.29353726
20231225 03:38:19,0.103530,1.045350,-2.222895,0.236286,0.111001,-0.178669,-1.204967,-31.563713,0.113327,176.07683,-1.9122038,1.2778966,1.0690471,-0.03371562,0.14481206,-0.10711895
20231225 03:38:19,-0.220446,1.992483,-2.337579,-0.055619,-0.023233,-0.233002,-1.107777,-31.652344,0.254059,176.25993,-2.4663053,2.3492892,1.2617774,-0.222136,0.0137375,0.16221036
20231225 03:38:19,-0.588405,2.938803,-2.603927,-0.411446,-0.095677,-0.233002,-0.852432,-32.106453,0.420212,177.32315,-3.1894126,3.3728218,1.6496258,-0.36574012,-0.08730455,0.4743783
20231225 03:38:19,-0.830556,3.593564,-2.285471,-0.766207,-0.060520,-0.199976,-0.862167,-31.817696,-0.134621,176.90375,-3.215565,3.8939211,1.7612197,-0.5326921,-0.11863373,0.7653393
20231225 03:38:19,-1.290317,3.872123,-1.132520,-1.016563,0.024708,-0.161623,-1.244167,-32.118195,-1.056602,175.37895,-2.5569503,3.741948,1.5232191,-0.73408026,-0.116414145,0.91219926
20231225 03:38:19,-1.831170,3.627908,0.509916,-1.091138,0.132308,-0.103029,-0.917877,-31.428368,-1.500298,176.37624,-1.7056532,2.9671655,0.8083501,-0.85579,-0.07906537,0.8520122
20231225 03:38:19,-2.407139,3.288600,2.186254,-0.977146,0.255888,0.012028,-0.707748,-32.165688,-1.584053,177.26193,-1.1610996,2.1658185,-0.2814653,-0.79648405,0.015856147,0.60138065
20231225 03:38:19,-2.710205,2.490930,3.522878,-0.699090,0.341116,0.162243,-1.184368,-31.819359,-2.013313,176.20468,-0.7979729,1.1992137,-1.5880934,-0.5519622,0.13636614,0.22959675
20231225 03:38:19,-2.593209,1.362914,4.230348,-0.310238,0.353900,0.301803,-1.272980,-31.443810,-2.440620,176.0165,-0.43965113,0.23610187,-2.5084438,-0.17206658,0.23790695,-0.13361858
20231225 03:38:19,-2.059077,0.409326,4.248110,0.118032,0.294241,0.400880,-1.360443,-31.643929,-2.026512,176.36618,0.023719072,-0.35580984,-2.8605006,0.25696015,0.27269292,-0.42655113
20231225 03:38:19,-1.192825,-0.252105,3.363308,0.507950,0.198359,0.444560,-1.800438,-31.301292,-1.919281,175.65038,0.5492016,-0.59464735,-2.368237,0.6440614,0.22739753,-0.6445493
20231225 03:38:19,-0.113085,-0.634058,1.854527,0.793463,0.121654,0.436037,-1.827332,-31.586357,-1.900948,175.81715,0.8793238,-0.6776203,-1.4823705,0.90169406,0.14034829,-0.79127985
20231225 03:38:19,0.330501,-0.777401,1.171150,0.960723,0.039623,0.376377,-2.232887,-31.997505,-1.610199,175.0616,0.9305589,-0.75923365,-1.0867869,1.0010972,0.015789475,-0.86680603
20231225 03:38:19,1.211751,-0.847497,-0.713426,1.019317,-0.048801,0.294346,-2.203037,-31.346138,-0.714622,174.76598,0.3818809,-1.0026425,-0.20354241,0.95637494,-0.11533016,-0.8878431
20231225 03:38:19,1.542414,-0.779753,-1.714653,0.990552,-0.129768,0.215510,-2.210846,-32.016830,0.132896,174.26205,-0.26977623,-1.2284373,0.109942675,0.81617886,-0.2330827,-0.85702825
20231225 03:38:19,1.800171,-0.614119,-2.565446,0.895736,-0.177708,0.126021,-2.341713,-31.558189,0.369606,173.02754,-0.9636398,-1.458122,0.1998769,0.60902953,-0.2964827,-0.768874
20231225 03:38:19,1.902520,-0.478053,-3.277133,0.757241,-0.176643,0.019486,-2.174221,-32.020531,0.669395,172.60347,-1.668639,-1.7190794,0.22934818,0.3818282,-0.30044585,-0.6308726
20231225 03:38:19,1.908170,-0.340226,-3.627470,0.596373,-0.139356,-0.130728,-2.013504,-31.827812,1.328262,172.02869,-2.059836,-1.7046845,0.21762073,0.15819085,-0.27215514,-0.43680897
20231225 03:38:19,1.596655,-0.163129,-3.796050,0.412068,-0.114853,-0.303315,-2.056526,-31.360939,1.431335,171.72124,-2.5278015,-1.0044963,0.40590858,-0.08433601,-0.2079519,-0.21038936
20231225 03:38:19,0.920910,0.037848,-3.608042,0.217110,-0.105265,-0.443941,-1.484249,-31.028351,0.879433,174.75418,-2.7024581,0.1306934,0.9439344,-0.2794844,-0.092500135,0.030382663
20231225 03:38:19,0.088038,0.322208,-3.165254,0.044523,-0.127637,-0.519580,-1.652008,-32.275536,1.629028,176.13629,-2.6366525,0.90189296,1.5827304,-0.38399675,-0.024853326,0.24070628
20231225 03:38:19,-0.655066,0.548721,-2.672373,-0.096103,-0.174512,-0.520646,-1.509987,-31.889076,1.739189,177.45477,-2.5985532,1.0931263,2.0478635,-0.41563514,-0.048526525,0.38022795
20231225 03:38:19,-1.159706,0.648141,-2.230636,-0.215422,-0.244825,-0.465248,-0.973183,-32.128464,1.492210,178.96774,-2.5448818,0.9896703,2.26547,-0.40656132,-0.14273453,0.45558316
20231225 03:38:19,-1.404656,0.786116,-1.835993,-0.307042,-0.304485,-0.376824,-0.682373,-32.010605,1.353439,179.57217,-2.4350889,0.92934227,2.2420259,-0.38306934,-0.24905449,0.4769384
20231225 03:38:19,-1.362432,0.914854,-1.531802,-0.363505,-0.343903,-0.295857,-0.876759,-31.833321,1.071991,178.67055,-2.211514,0.96913815,2.0111654,-0.36323565,-0.32675457,0.4736936
20231225 03:38:19,-1.172169,1.005763,-1.303397,-0.394400,-0.354556,-0.253243,-0.533958,-32.087318,0.824043,179.22038,-1.9244726,1.0364308,1.7258753,-0.36525005,-0.3568244,0.46822417
20231225 03:38:19,-0.977517,1.064794,-1.091503,-0.409315,-0.325792,-0.254309,-0.498100,-31.707237,0.799591,179.23264,-1.6380575,1.0787523,1.4435332,-0.3930804,-0.3340381,0.47896475
20231225 03:38:19,-0.923662,1.196239,-0.834913,-0.396531,-0.272524,-0.289465,0.022961,-31.386574,0.917809,-179.33362,-1.4403573,1.1609347,1.2542646,-0.4224947,-0.27579424,0.4865131
20231225 03:38:19,-1.164672,1.290433,-0.496055,-0.365636,-0.207538,-0.322491,-0.164650,-31.864357,0.277275,179.78596,-1.4032513,1.1208632,1.1824512,-0.43585527,-0.20467895,0.4877229
20231225 03:38:19,-1.513607,1.260282,-0.150577,-0.325153,-0.156401,-0.327818,0.135132,-31.651474,0.132393,-179.5709,-1.4508024,0.900075,1.176291,-0.41677874,-0.14929426,0.46088
20231225 03:38:19,-1.856595,1.239131,0.201864,-0.272951,-0.138290,-0.282008,-0.147106,-31.482430,-0.015419,179.64284,-1.5047663,0.68869096,1.1068357,-0.3513123,-0.13375634,0.39299524
20231225 03:38:19,-1.946053,1.122786,0.504459,-0.199441,-0.156401,-0.197845,0.328365,-31.253098,-0.427574,-179.55182,-1.3693304,0.5154675,0.91777897,-0.24213007,-0.15443902,0.27940515
20231225 03:38:19,-1.714978,0.969311,0.521861,-0.108887,-0.185166,-0.120075,0.011040,-31.847893,0.010010,-179.96779,-1.1166486,0.49405518,0.75630134,-0.124854386,-0.17853649,0.16201311
20231225 03:38:19,-1.232533,0.899775,0.281988,-0.017267,-0.193689,-0.084918,0.249866,-31.358185,-0.019577,-179.39839,-0.8463523,0.63450456,0.64624894,-0.039777055,-0.17868142,0.072188616
20231225 03:38:19,-0.826957,0.955275,-0.121445,0.061569,-0.185166,-0.105160,0.389698,-31.721809,-0.262398,-179.13663,-0.79622257,0.8423651,0.68444234,-0.004917942,-0.1589679,0.027970482
20231225 03:38:19,-0.587096,1.146684,-0.514559,0.106313,-0.177708,-0.163754,0.592667,-31.612175,-0.267532,-178.53305,-0.9268672,1.1252705,0.80009645,-0.024438366,-0.13881901,0.026905194
20231225 03:38:19,-0.642043,1.411967,-0.839828,0.112705,-0.160663,-0.226610,0.355644,-31.159920,-0.165443,-179.10405,-1.2805644,1.4281385,1.0455492,-0.069653556,-0.10195252,0.057454385
20231225 03:38:19,-0.959517,1.657718,-0.920228,0.098856,-0.142552,-0.259635,0.646839,-31.233948,-0.023735,-178.22577,-1.6340182,1.6214962,1.3592439,-0.09915997,-0.06762995,0.088231094
20231225 03:38:19,-1.211821,1.607939,-0.783974,0.070092,-0.159597,-0.255374,0.416592,-31.436752,-0.280739,-179.10677,-1.7077553,1.4810435,1.4438926,-0.10326298,-0.08549152,0.11472772
20231225 03:38:19,-1.260249,1.342825,-0.642910,0.045589,-0.190493,-0.231936,0.407627,-31.531769,-0.274628,-179.1424,-1.5785315,1.1867986,1.3737917,-0.09436282,-0.12888452,0.12288593
20231225 03:38:19,-1.144596,1.137169,-0.441562,0.041327,-0.206473,-0.217021,0.637489,-31.137077,-0.298103,-178.53284,-1.3026234,0.9863622,1.1505096,-0.08650919,-0.15508182,0.1171882
20231225 03:38:19,-0.961368,1.024786,-0.304976,0.077549,-0.193689,-0.220217,1.077869,-31.671600,-0.124855,-177.33191,-1.0482674,0.8979388,0.93231684,-0.06803122,-0.14200634,0.09272027
20231225 03:38:19,-0.872136,1.062370,-0.242178,0.154254,-0.144683,-0.240459,0.708179,-31.702675,0.141434,-178.12727,-0.9404946,0.94485635,0.81836694,-0.03875968,-0.08141588,0.053551883
20231225 03:38:19,-0.934670,1.232387,-0.216572,0.263985,-0.045605,-0.288400,1.456913,-31.737396,-0.116791,-176.29182,-1.011757,1.0777841,0.88426924,-0.015434876,0.051143464,0.0021699965
20231225 03:38:19,-1.318732,1.800526,-0.101789,0.371585,0.049211,-0.323556,1.211308,-31.572052,0.271889,-176.57187,-1.3562903,1.4707984,1.1322713,1.9718707E-4,0.19686651,-0.06642003
20231225 03:38:19,-1.741462,2.473269,-0.246073,0.391827,0.132308,-0.290530,1.396732,-31.844353,0.559448,-175.75793,-1.9745418,1.9743737,1.6157451,0.0036175847,0.29441404,-0.11153215
20231225 03:38:19,-2.107072,2.960875,-0.076969,0.276769,0.097151,-0.179734,1.917789,-31.523697,0.677673,-174.19858,-2.2316532,2.2868652,1.8644978,0.019695893,0.20556314,-0.09343855
20231225 03:38:19,-1.868126,3.038808,0.335056,0.037066,-0.076500,-0.024193,1.742485,-31.732033,1.225410,-174.50262,-1.6370558,2.4822657,1.3977436,0.023267461,-0.06086775,-0.017444981
20231225 03:38:19,-1.068627,2.949825,0.785222,-0.251644,-0.323661,0.133478,1.590736,-31.829742,0.560425,-175.60382,-0.4966753,2.7011464,0.41775954,-0.032681547,-0.36268947,0.08039026
20231225 03:38:19,-0.022064,2.424404,1.244325,-0.553137,-0.580410,0.237882,1.316315,-30.990005,-0.434914,-176.5327,0.8140031,2.395443,-0.7559796,-0.20813549,-0.5974081,0.20061615
20231225 03:38:19,0.846398,1.840364,1.327846,-0.817343,-0.678422,0.298607,1.421707,-30.599846,-0.861244,-176.24557,1.5784763,1.8510405,-1.4623814,-0.43572187,-0.6348834,0.28800842
20231225 03:38:19,1.437939,0.976993,1.745076,-0.990995,-0.586802,0.329502,1.191074,-30.610756,-1.398720,-176.80623,2.2450497,0.9516499,-2.2093997,-0.6564555,-0.46396068,0.2821535
20231225 03:38:19,1.960749,0.000749,2.614830,-1.068766,-0.438719,0.297542,0.775402,-30.541252,-1.943268,-177.73311,2.95232,-0.065938905,-3.2291834,-0.8306745,-0.28807437,0.22773403
20231225 03:38:19,1.980737,-1.072940,3.643582,-1.044263,-0.276786,0.187811,1.196697,-30.690147,-2.599213,-176.90852,3.121176,-1.1255212,-4.1646013,-0.9155079,-0.15237041,0.19370887
20231225 03:38:19,1.892608,-1.539782,4.177588,-0.914290,-0.169186,0.025878,0.738007,-30.153778,-3.040703,-177.93756,2.990979,-1.5856044,-4.5996203,-0.8708209,-0.08977074,0.23803404
20231225 03:38:19,1.380868,-2.500663,5.264544,-0.690567,-0.114853,-0.163754,0.877453,-30.325516,-3.563988,-177.90063,2.6115975,-2.4994376,-5.527854,-0.71090776,-0.0850048,0.3255874
20231225 03:38:19,0.752748,-2.690099,5.603379,-0.356048,-0.131898,-0.361909,0.849792,-30.226799,-4.106590,-178.38268,2.1302695,-2.698278,-5.6860056,-0.43440896,-0.13511209,0.43530566
20231225 03:38:19,-0.216447,-2.355325,5.427155,0.036000,-0.175578,-0.474836,0.956718,-30.604187,-3.411041,-178.71638,1.4421169,-2.5135407,-5.174293,-0.09937011,-0.1585246,0.4395352
20231225 03:38:19,-1.155553,-1.702278,4.557486,0.400349,-0.209669,-0.443941,1.784718,-30.917603,-3.516319,-177.56897,0.6333302,-2.1339293,-3.9044917,0.22960716,-0.117108375,0.2623535
20231225 03:38:19,-1.615294,-1.271410,3.270701,0.676275,-0.225649,-0.292661,1.584324,-30.469040,-2.877739,-177.87207,-0.02218163,-1.8101319,-2.3371663,0.51329565,-0.07449882,-0.024542868
20231225 03:38:19,-1.386882,-1.210674,1.902000,0.849926,-0.227780,-0.106225,1.240105,-31.348915,-2.421814,-178.29303,-0.24084687,-1.5696032,-1.0562645,0.71980673,-0.08128473,-0.3124134
20231225 03:38:19,-0.705665,-1.386816,0.694548,0.927697,-0.226714,0.036531,1.815338,-30.650024,-2.059799,-176.39404,-0.18951768,-1.4771636,-0.3177233,0.8309127,-0.14601903,-0.5118688
20231225 03:38:19,0.068043,-1.641329,-0.187861,0.935154,-0.260806,0.110040,1.560383,-30.387802,-1.945473,-176.36963,-0.03978642,-1.6402799,0.032890186,0.844605,-0.2561913,-0.61616254
20231225 03:38:19,0.752810,-1.812844,-0.941323,0.874429,-0.282112,0.129217,1.747227,-29.526245,-1.865891,-175.27043,-0.022509634,-1.9163768,0.2133705,0.77404904,-0.3429423,-0.6265969
20231225 03:38:19,1.254655,-1.972970,-1.601429,0.762568,-0.287439,0.114302,1.466145,-29.932869,-1.172287,-175.93654,-0.16954374,-2.3035524,0.4055364,0.6437566,-0.38247135,-0.56722486
20231225 03:38:19,1.608152,-2.101537,-2.087808,0.609158,-0.271459,0.082341,1.959930,-29.705383,-1.316193,-174.36508,-0.355574,-2.7138126,0.45546412,0.47931322,-0.37569028,-0.4655446
20231225 03:38:19,1.865155,-2.124099,-2.386702,0.432310,-0.205407,0.018421,2.155083,-30.266434,-0.473801,-174.57542,-0.4757812,-2.9204016,0.44259298,0.29989132,-0.29137135,-0.3094868
20231225 03:38:19,1.949319,-1.898515,-2.368621,0.232024,-0.152140,-0.056154,1.776039,-30.200630,-0.481865,-175.39421,-0.38690186,-2.7173367,0.38581812,0.10991025,-0.20860083,-0.11934586
20231225 03:38:19,1.943096,-1.787372,-2.236436,0.026412,-0.129768,-0.126467,1.431820,-31.080490,-0.025948,-176.62668,-0.25380743,-2.4632409,0.32477033,-0.081940375,-0.15138519,0.07198433
20231225 03:38:19,1.734527,-1.544276,-1.894064,-0.149370,-0.119114,-0.180800,1.598930,-31.350945,-0.006630,-176.24309,-0.0746156,-1.9719335,0.22913146,-0.24295956,-0.11798414,0.22826129
20231225 03:38:19,1.225550,-1.110433,-1.130068,-0.289996,-0.120180,-0.210629,1.775005,-31.526367,0.006577,-175.85399,0.14606452,-1.2811401,0.019150198,-0.36503327,-0.1101606,0.34038973
20231225 03:38:19,0.837426,-0.796643,-0.536115,-0.347525,-0.122310,-0.210629,2.164818,-30.555191,0.081024,-174.86882,0.3001424,-0.84109384,-0.15834662,-0.40648565,-0.11571813,0.37182647
20231225 03:38:19,0.489574,-0.696756,0.052942,-0.447668,-0.130833,-0.182930,1.995518,-31.034813,-0.291267,-175.40161,0.42250657,-0.699602,-0.37756503,-0.46962914,-0.12883656,0.40366834
20231225 03:38:19,0.394258,-0.671826,0.318279,-0.443406,-0.118049,-0.158427,2.153282,-31.208397,-0.546303,-175.15292,0.5104482,-0.66987896,-0.53200567,-0.45365876,-0.12167201,0.3744008
20231225 03:38:19,0.084054,-0.605238,1.053726,-0.384812,-0.096742,-0.130728,2.355480,-30.714989,-1.112381,-174.76561,0.65916115,-0.62862724,-0.97235066,-0.39136901,-0.10867969,0.31125617
20231225 03:38:19,-0.237870,-0.648246,1.429752,-0.272951,-0.061585,-0.095572,1.789978,-31.702637,-0.919571,-176.28275,0.57584715,-0.7198434,-1.1225568,-0.27966893,-0.07536223,0.22156852
20231225 03:38:20,-0.472335,-0.731460,1.722029,-0.117410,-0.010449,-0.046566,2.143547,-30.919640,-1.101128,-175.54613,0.4942401,-0.8516218,-1.2918535,-0.12422628,-0.017923718,0.09869032
20231225 03:38:20,-0.563971,-0.778686,1.792733,0.077549,0.042819,0.006702,2.407848,-31.278732,-0.941093,-175.0669,0.44452602,-0.928966,-1.3238744,0.068116195,0.04970832,-0.04131845
20231225 03:38:20,-0.703330,-0.867180,1.770892,0.175561,0.064126,0.036531,2.381340,-31.755676,-0.642281,-175.1173,0.3435024,-1.032689,-1.2217481,0.16578189,0.078718066,-0.11622
20231225 03:38:20,-0.590623,-0.948884,1.191968,0.414199,0.103544,0.136674,2.143932,-31.111526,-0.820663,-175.43037,0.18160057,-1.0499887,-0.75288296,0.41772768,0.1287593,-0.32945105
20231225 03:38:20,-0.239269,-0.994221,0.583469,0.501558,0.108870,0.188876,1.791782,-30.760666,-0.847069,-175.98415,0.15324628,-1.0166264,-0.40568697,0.51843584,0.12255387,-0.4307776
20231225 03:38:20,0.275607,-1.162171,-0.088032,0.526061,0.104609,0.204856,1.906906,-30.659271,-0.718567,-175.50136,0.15621343,-1.1680863,-0.16438478,0.5475917,0.097667105,-0.46728972
20231225 03:38:20,0.662431,-1.290332,-0.524328,0.517538,0.119524,0.202726,1.943535,-30.662971,-0.182083,-175.42952,0.147836,-1.3554608,-0.06581372,0.54038393,0.09526822,-0.46617538
20231225 03:38:20,0.884396,-1.334499,-0.724608,0.453617,0.095021,0.167569,1.899860,-31.713737,0.689903,-175.95808,0.13765943,-1.4709957,-0.0583719,0.4661014,0.061835162,-0.4079284
20231225 03:38:20,1.233728,-1.341781,-1.239314,0.355605,0.075844,0.118563,1.908825,-31.618721,0.683784,-175.85846,-0.009299934,-1.6017166,0.05223769,0.35323066,0.044556633,-0.31819177
20231225 03:38:20,1.312655,-1.230986,-1.501985,0.290619,0.067322,0.095126,1.396732,-31.844353,0.559448,-176.98183,-0.1403212,-1.5468714,0.20051646,0.28704244,0.04040484,-0.26142636
20231225 03:38:20,1.285936,-1.176936,-1.579381,0.147862,0.049211,0.034401,1.575375,-31.461586,1.206093,-176.71645,-0.26376736,-1.4774237,0.21302348,0.13604838,0.03554438,-0.12450421
20231225 03:38:20,1.074229,-0.923209,-1.692397,-0.073730,0.070518,-0.055088,2.032917,-31.422295,0.806175,-175.18843,-0.4899454,-1.1212211,0.3861205,-0.08577616,0.071545295,0.09509463
20231225 03:38:20,0.916970,-0.792499,-1.587304,-0.139782,0.091825,-0.072134,1.600468,-32.118500,1.115257,-176.31682,-0.4917853,-0.9001096,0.44975364,-0.14615732,0.09467881,0.153552
20231225 03:38:20,0.295655,-0.352885,-0.951581,-0.255905,0.155746,-0.083853,1.926754,-31.428680,0.671562,-175.20486,-0.42640814,-0.31612167,0.4661531,-0.2482212,0.15019633,0.24575233
20231225 03:38:20,-0.122903,0.009222,-0.422794,-0.267624,0.189837,-0.055088,1.733135,-31.635170,0.951050,-175.64821,-0.37713748,0.025706582,0.39318502,-0.24435127,0.17588687,0.2328257
20231225 03:38:20,-0.394943,0.277281,-0.036303,-0.246317,0.195163,-0.003952,2.032917,-31.422295,0.806175,-174.8924,-0.33935493,0.2429466,0.31019536,-0.20099099,0.17207743,0.18112996
20231225 03:38:20,-0.526904,0.497149,0.147593,-0.229271,0.174922,0.028009,1.847492,-31.149994,0.518608,-175.30447,-0.32786378,0.43556264,0.27929422,-0.16371009,0.15134577,0.1455549
20231225 03:38:20,-0.395618,0.558373,0.041569,-0.180265,0.135504,0.129217,1.651302,-31.914680,0.164658,-175.91068,-0.2934165,0.5278883,0.27048513,-0.05097244,0.11532144,0.037126087
20231225 03:38:20,-0.059284,0.576418,-0.067178,-0.161089,0.124850,0.177157,1.723408,-31.346413,0.396225,-175.68408,-0.102092475,0.5762157,0.12089987,0.0019925684,0.11702506,-0.010682225
20231225 03:38:20,0.394947,0.358774,-0.160270,-0.152566,0.121654,0.187811,1.608280,-31.447815,0.267731,-176.08003,0.18871623,0.34806046,-0.1315769,0.016959824,0.12796167,-0.028533913
20231225 03:38:20,0.761991,0.143636,-0.233551,-0.150435,0.123785,0.176092,1.669231,-31.724640,0.152428,-176.03006,0.41957426,0.08962645,-0.32714215,0.011130817,0.14045286,-0.024190746
20231225 03:38:20,1.001668,0.020095,-0.244564,-0.154697,0.132308,0.103648,0.902180,-31.688065,0.142410,-177.88435,0.59328794,-0.06441487,-0.4766465,-0.040097535,0.14879513,0.02789756
20231225 03:38:20,1.063235,-0.009408,-0.217472,-0.156828,0.132308,0.068492,1.377647,-31.458725,-0.269745,-176.61633,0.6583971,-0.09286243,-0.53562784,-0.06566514,0.14622088,0.057432443
20231225 03:38:20,0.897201,0.016688,-0.135606,-0.157893,0.126981,-0.036978,1.404541,-31.173668,-0.288086,-176.53139,0.5876615,-0.014175279,-0.4868219,-0.13992843,0.13069549,0.13737302
20231225 03:38:20,0.544060,0.157447,-0.020236,-0.144043,0.121654,-0.078526,1.526829,-31.919212,-0.238197,-176.33293,0.39422527,0.16063996,-0.33675826,-0.16061494,0.12122456,0.15983713
20231225 03:38:20,0.210327,0.315758,0.007566,-0.129129,0.120589,-0.088114,1.511471,-31.551056,0.407478,-176.32187,0.15253106,0.3222926,-0.13049458,-0.1585823,0.118763454,0.15734303
20231225 03:38:20,0.004359,0.399472,-0.010373,-0.075861,0.115262,-0.082788,1.050591,-31.764771,-0.386986,-177.47908,-0.023410939,0.39915073,0.017700188,-0.11736203,0.1149357,0.115974545
20231225 03:38:20,-0.159212,0.470730,-0.126442,-0.041770,0.108870,-0.057219,1.799713,-31.991394,-0.364738,-175.63155,-0.22979271,0.46640858,0.2270048,-0.07575883,0.10919072,0.07629055
20231225 03:38:20,-0.165124,0.455081,-0.225426,-0.024724,0.107805,-0.042304,1.705475,-31.536446,0.408455,-175.71786,-0.3006923,0.4563287,0.30165094,-0.0531718,0.10834637,0.05353819
20231225 03:38:20,-0.068239,0.390825,-0.474055,0.005105,0.107805,-0.025259,1.687160,-31.534599,0.140205,-175.69714,-0.39608553,0.4060035,0.4054706,-0.018269505,0.108825184,0.020116549
20231225 03:38:20,0.101820,0.322205,-0.741792,0.028543,0.123785,-0.027389,1.226665,-31.940201,-0.373779,-176.89699,-0.46321306,0.35065374,0.46380067,-0.0034107547,0.12555106,0.0038727252
20231225 03:38:20,0.177849,0.357295,-0.940408,0.049850,0.149353,-0.056154,1.695744,-31.247688,-0.146378,-175.42334,-0.58657557,0.4122354,0.5247143,-0.014873475,0.15416105,0.009443615
20231225 03:38:20,0.063891,0.589461,-1.082166,0.061569,0.166399,-0.092376,1.606094,-32.197884,-0.085243,-175.70793,-0.807231,0.6715443,0.6974686,-0.040341336,0.17654176,0.023317363
20231225 03:38:20,-0.290323,0.935386,-1.313741,0.055177,0.184510,-0.106225,1.686779,-31.342712,-0.140266,-175.13835,-1.3373961,1.0882468,1.0895674,-0.07661274,0.20451131,0.0321744
20231225 03:38:20,-0.868192,1.463171,-1.535120,0.001909,0.193033,-0.059350,1.529018,-31.169136,0.114777,-175.40877,-2.0020773,1.5903431,1.6922698,-0.08341093,0.19894597,0.04395711
20231225 03:38:20,-1.011616,1.537161,-1.578817,-0.027920,0.193033,-0.024193,1.942116,-31.796822,0.025894,-174.34578,-2.1442413,1.6499505,1.8519385,-0.07569755,0.18683012,0.04840148
20231225 03:38:20,-0.982225,1.499133,-1.597313,-0.126998,0.203686,0.105779,1.571651,-31.444115,-0.268768,-175.58522,-2.0628679,1.592316,1.8366874,-0.029711217,0.16835539,0.042508498
20231225 03:38:20,-0.325382,1.236486,-1.116272,-0.183461,0.210078,0.171831,1.687546,-31.726486,0.420677,-175.36983,-1.138172,1.2915986,1.0481753,-0.00942494,0.18431255,0.034780934
20231225 03:38:20,0.207782,0.880939,-0.646307,-0.216487,0.196229,0.193138,1.580616,-31.349098,-0.274879,-175.91255,-0.32386845,0.8959986,0.35532373,-0.020971343,0.18879275,0.025883168
20231225 03:38:20,0.421624,0.681570,-0.412508,-0.221814,0.180249,0.187811,1.298771,-31.371933,-0.142220,-176.81319,0.051854283,0.6676788,0.056230992,-0.038347594,0.18695956,0.014613166
20231225 03:38:20,0.912828,0.197704,0.126343,-0.215422,0.125916,0.162243,1.420670,-31.925591,-0.372803,-176.59004,0.7816591,0.17206761,-0.67951953,-0.055248827,0.13700075,0.022331327
20231225 03:38:20,1.015838,0.102029,0.136590,-0.203703,0.066256,0.120694,1.147785,-31.853416,-0.246269,-177.28673,0.87646824,0.05233229,-0.7459091,-0.07820062,0.082647465,0.038371563
20231225 03:38:20,1.204750,-0.013024,0.076315,-0.185592,0.054537,0.065296,1.201572,-31.283295,-0.282944,-177.08092,0.9750461,-0.091784105,-0.8283274,-0.09820291,0.07087175,0.07043479
20231225 03:38:20,1.324783,0.079118,-0.042488,-0.167481,0.092890,0.003506,1.190037,-31.936501,-0.910278,-176.92787,0.9824184,-0.021288037,-0.8277725,-0.118914485,0.10498189,0.110244684
20231225 03:38:20,1.185383,0.303964,0.010443,-0.144043,0.199425,-0.070003,1.183262,-31.281448,-0.551186,-177.0411,0.90158445,0.2829141,-0.77910465,-0.15124281,0.20083815,0.15536684
20231225 03:38:20,0.508844,0.945821,0.605458,-0.100364,0.259084,-0.129663,1.693935,-32.189659,-0.218887,-175.965,0.74559253,0.94283634,-0.73977566,-0.17110716,0.2593179,0.17691556
20231225 03:38:20,0.161998,1.186927,0.766084,-0.031116,0.286783,-0.162689,1.359337,-31.456879,-0.537987,-176.81555,0.5074159,1.1108173,-0.62398666,-0.161792,0.2968337,0.15231061
20231225 03:38:20,-0.647999,1.666080,0.956871,0.069026,0.299568,-0.154166,1.623253,-31.624069,-0.658409,-176.26831,-0.057510257,1.4074469,-0.17258722,-0.09418747,0.32466036,0.078971386
20231225 03:38:20,-1.344186,2.109897,0.981594,0.174496,0.299568,-0.094506,1.817642,-31.801361,-0.376968,-175.72957,-0.68895066,1.5991665,0.3527004,0.0055802017,0.3393645,-0.03872785
20231225 03:38:20,-1.703541,2.396345,0.771272,0.256528,0.289979,-0.013540,1.299152,-31.563820,0.138252,-176.52756,-1.144656,1.7597611,0.83682173,0.09827091,0.3319075,-0.1684872
20231225 03:38:20,-1.721204,2.686063,0.326668,0.242678,0.271869,0.103648,1.360104,-31.840652,0.022964,-176.38855,-1.5076041,2.1456332,1.1930141,0.17237784,0.28382367,-0.23954591
20231225 03:38:20,-1.524623,2.951168,0.028587,0.196868,0.255888,0.142001,1.299152,-31.563820,0.138252,-176.30019,-1.5992713,2.5445113,1.2804421,0.17359734,0.24958865,-0.23157498
20231225 03:38:20,-1.206448,2.820291,-0.248428,-0.031116,0.229255,0.253862,1.686779,-31.342712,-0.140266,-175.2922,-1.4697421,2.6033473,1.2361233,0.12868164,0.17146888,-0.12471224
20231225 03:38:20,-0.320623,2.145833,-0.120736,-0.193049,0.256954,0.307130,1.209122,-32.322128,-0.081085,-176.78508,-0.54614604,2.1027634,0.39995265,0.07234956,0.19958091,-0.046754062
20231225 03:38:20,-0.052467,1.936196,0.106379,-0.272951,0.273999,0.319914,0.787827,-32.173233,0.574860,-177.93164,-0.06485694,1.9222693,0.011802517,0.0209862,0.24171934,-0.023038104
20231225 03:38:20,0.383073,1.349714,0.733995,-0.435949,0.275065,0.317783,0.909340,-32.535004,0.063805,-177.90462,0.7306386,1.3414369,-0.77006507,-0.13601187,0.25330508,0.045599923
20231225 03:38:20,0.556753,0.485146,1.474216,-0.643692,0.190902,0.289019,0.689865,-31.700821,-0.126808,-178.50229,1.2763953,0.47971708,-1.5246413,-0.37716392,0.18031086,0.12049416
20231225 03:38:20,0.765421,-0.457305,2.270571,-0.690567,0.147223,0.270908,0.617374,-32.077194,-0.638840,-178.73038,1.7285826,-0.45371616,-2.3752017,-0.48569667,0.15424925,0.082978636
20231225 03:38:20,1.012669,-1.225059,2.982498,-0.701221,0.039623,0.202726,0.123596,-32.304688,-0.494942,-179.74416,2.005603,-1.2222073,-3.152351,-0.5815824,0.054738153,0.06242089
20231225 03:38:20,1.008180,-1.800749,3.601079,-0.656476,0.023642,0.180353,0.201706,-32.007706,-1.183403,-179.5802,2.1583285,-1.7969221,-3.7421694,-0.55668545,0.032870103,0.0524763
20231225 03:38:20,0.876020,-2.287620,3.798327,-0.519046,0.067322,0.155850,0.228218,-31.530754,-1.482208,-179.56027,1.9108047,-2.287503,-3.907976,-0.4540609,0.06759722,-0.0027278066
20231225 03:38:20,0.647847,-2.808770,4.119489,-0.303846,0.093955,0.135609,-0.026356,-31.460426,-1.087418,179.91931,1.6508819,-2.8141944,-4.1484923,-0.26153067,0.089057006,-0.056877777
20231225 03:38:20,0.551364,-3.090004,4.167307,-0.048162,0.131243,0.101518,-0.169525,-31.271210,-2.038994,179.58115,1.5135223,-3.0993826,-4.1601534,-0.024223162,0.12949632,-0.08862396
20231225 03:38:20,0.372467,-3.180228,4.044220,0.229894,0.088629,0.039727,-0.302197,-31.754539,-1.874794,179.26744,1.396873,-3.2061477,-3.9708428,0.23156103,0.09825922,-0.09649289
20231225 03:38:20,0.096213,-2.879321,3.232049,0.457878,0.032165,-0.023128,0.122055,-31.537132,-1.616821,179.97987,1.1806937,-2.9454155,-3.0966747,0.42644697,0.06812432,-0.12237926
20231225 03:38:20,-0.417237,-1.747306,1.431331,0.647510,-0.016841,-0.062546,0.151905,-30.885765,-0.721245,-179.88104,0.32031333,-1.8599777,-1.1222944,0.5609237,0.06250604,-0.21816827
20231225 03:38:20,-0.599654,-1.291337,0.788917,0.660294,-0.015775,-0.055088,0.114628,-32.399712,-0.488823,-179.95978,0.051479936,-1.4459047,-0.3373849,0.52664655,0.09639818,-0.31244218
20231225 03:38:20,-0.942832,-0.532284,-0.222556,0.620876,0.004466,-0.012475,0.168419,-31.829590,-0.525505,-179.93648,-0.7774829,-0.6659089,0.7702005,0.471228,0.13032167,-0.38464186
20231225 03:38:20,-1.198179,0.030951,-0.900076,0.494100,0.020446,0.058904,0.053677,-32.122871,-0.373528,179.84459,-1.4659083,-0.046716392,1.477459,0.39292032,0.116272956,-0.38270324
20231225 03:38:20,-1.236089,0.280439,-1.440922,0.318318,0.076910,0.144132,0.126167,-31.746498,0.138504,-179.58499,-1.9069749,0.3155962,1.8930496,0.30493602,0.10931243,-0.32762906
20231225 03:38:20,-1.044553,0.205171,-1.343007,0.148927,0.174922,0.229359,-0.155685,-31.769341,0.271164,179.80493,-1.6873852,0.24279289,1.6923065,0.22879468,0.15552348,-0.26920116
20231225 03:38:20,-0.911012,-0.042651,-0.795386,0.025347,0.268672,0.310326,-0.270042,-32.254517,0.703613,179.75424,-1.1905576,-0.08595812,1.1924845,0.1739178,0.22337562,-0.25723717
20231225 03:38:20,-0.781405,-0.540358,0.029093,-0.041770,0.304894,0.387031,-0.464424,-32.077232,0.422165,179.19466,-0.5784406,-0.65369433,0.41639706,0.14549614,0.2536909,-0.30207464
20231225 03:38:20,-0.578936,-1.143474,0.724029,-0.049227,0.272934,0.455213,-0.870365,-32.296494,0.432442,178.38387,-0.076108485,-1.2514676,-0.31942534,0.15932587,0.23348701,-0.37935153
20231225 03:38:20,0.065063,-1.848369,1.186844,0.022151,0.169595,0.512742,-0.840897,-31.453239,1.047539,178.4268,0.6146748,-1.8681434,-1.0500331,0.24008712,0.15970215,-0.47494486
20231225 03:38:20,0.342421,-1.997159,1.193875,0.059438,0.136569,0.510611,-1.053986,-31.082230,0.217377,177.85335,0.83476347,-1.9986652,-1.1557038,0.27552426,0.13532165,-0.48977816
20231225 03:38:20,0.950585,-2.104548,0.936067,0.130816,0.096086,0.475455,-1.584011,-31.497902,0.105263,176.77115,1.2155855,-2.1254585,-1.1563842,0.332788,0.101439774,-0.48764792
20231225 03:38:20,1.445147,-2.051377,0.563357,0.180888,0.079040,0.403011,-1.502941,-30.834610,0.330719,176.7813,1.4261088,-2.1532364,-1.0788928,0.35335308,0.08216511,-0.44394872
20231225 03:38:20,1.708042,-1.876476,0.177369,0.195803,0.075844,0.299672,-1.751503,-31.035561,-0.194527,176.30284,1.4273294,-2.0458815,-0.92189026,0.32538992,0.07311727,-0.36132407
20231225 03:38:20,1.670833,-1.603539,-0.066261,0.171300,0.075844,0.184615,-1.988148,-30.775200,0.188042,175.55785,1.2584754,-1.758787,-0.7581297,0.24866593,0.070484646,-0.25279164
20231225 03:38:20,1.342241,-1.225549,-0.098317,0.143601,0.088629,0.081276,-1.767246,-30.475533,0.170677,175.9334,0.9964802,-1.2966117,-0.6209229,0.16736847,0.083944336,-0.15406811
20231225 03:38:20,0.859633,-0.946611,0.110003,0.144666,0.125916,0.002440,-1.943321,-30.300102,0.157471,175.54153,0.7726414,-0.93958634,-0.5235379,0.11900689,0.12718166,-0.09313724
20231225 03:38:20,0.336983,-0.678134,0.445127,0.175561,0.124850,-0.050827,-1.588600,-30.092766,0.817322,176.52489,0.55944467,-0.67503107,-0.5237304,0.109035395,0.13695769,-0.06595126
20231225 03:38:20,-0.140648,-0.623129,0.693492,0.238417,0.124850,-0.078526,-1.622654,-29.530884,0.914276,176.57028,0.32308513,-0.68389463,-0.45740443,0.14207506,0.15483925,-0.077909656
20231225 03:38:20,-0.485087,-0.532639,0.739858,0.312991,0.091825,-0.079591,-1.913738,-31.358261,2.102432,176.68169,0.072129756,-0.6535355,-0.29903004,0.20233285,0.13740055,-0.11972666
20231225 03:38:20,-0.630130,-0.663081,0.563785,0.393957,0.081171,-0.072134,-1.677097,-31.618629,1.719872,177.13393,-0.12086305,-0.801773,-0.06407696,0.27061746,0.14420523,-0.17404932
20231225 03:38:20,-0.716651,-0.648205,0.297225,0.446160,0.051341,-0.057219,-1.500641,-31.985947,2.013542,177.67549,-0.3245741,-0.7784249,0.21363565,0.3173126,0.1242613,-0.22372848
20231225 03:38:20,-0.679226,-0.784940,-0.075633,0.472793,0.038557,-0.040174,-1.649822,-31.525459,1.982002,177.29483,-0.49209315,-0.8638516,0.50421524,0.34565938,0.11344234,-0.2586132
20231225 03:38:20,-0.505658,-0.865238,-0.367629,0.457878,-0.009383,-0.030585,-1.657631,-32.196144,2.829529,177.57721,-0.5266962,-0.8803499,0.6318319,0.3384835,0.055878982,-0.26339558
20231225 03:38:20,-0.343766,-0.993569,-0.816107,0.406742,-0.046671,-0.034847,-1.779148,-31.834373,3.340591,177.34125,-0.6837059,-0.9383803,0.8773948,0.29094702,0.0061814534,-0.23694864
20231225 03:38:20,-0.191038,-1.040639,-1.042524,0.334298,-0.059455,-0.051892,-1.675945,-32.194298,2.561287,177.14815,-0.7274423,-0.9527685,0.9469217,0.22268003,-0.018368114,-0.1796279
20231225 03:38:20,-0.098235,-1.022356,-1.206362,0.259724,-0.067978,-0.081722,-1.772373,-32.489433,2.981506,177.00166,-0.7914783,-0.9153812,0.9917867,0.14215167,-0.034963105,-0.11338268
20231225 03:38:20,-0.053891,-1.014976,-1.314899,0.177692,-0.056259,-0.107291,-1.293949,-31.893799,3.483261,178.16347,-0.83796775,-0.8940699,1.0216318,0.062416196,-0.029199518,-0.04145696
20231225 03:38:20,-0.071678,-0.929749,-1.320804,0.098856,-0.046671,-0.134990,-1.585144,-31.819763,3.341568,177.56157,-0.8592531,-0.7964242,1.03537,-0.01558543,-0.02244031,0.031245522
20231225 03:38:20,-0.201743,-0.815028,-1.204963,0.031739,-0.034952,-0.150970,-1.348122,-32.272026,3.239471,178.25508,-0.86731505,-0.6902181,1.0338959,-0.07480591,-0.013315199,0.08900055
20231225 03:38:20,-0.341791,-0.662675,-1.040724,-0.008744,-0.026429,-0.155231,-1.197136,-31.790550,3.343521,178.76501,-0.86272454,-0.5655586,1.0049224,-0.10695956,-0.0074510556,0.11997104
20231225 03:38:20,-0.487903,-0.505822,-0.831275,-0.024724,-0.021102,-0.152035,-1.269241,-32.358818,3.111954,178.65352,-0.8412292,-0.45329177,0.949991,-0.11637379,-0.003370542,0.12868688
20231225 03:38:20,-0.633924,-0.365396,-0.687589,-0.021528,-0.024298,-0.134990,-1.118259,-31.877342,3.215996,179.06432,-0.8699554,-0.35726887,0.93953955,-0.10186345,-0.00791252,0.11410654
20231225 03:38:20,-0.695246,-0.249692,-0.570289,-0.013006,-0.031756,-0.108356,-1.029648,-32.252884,3.643311,179.5291,-0.8511814,-0.26960602,0.892768,-0.07697666,-0.017029298,0.088281825
20231225 03:38:20,-0.698934,-0.118353,-0.567471,-0.005548,-0.040278,-0.074265,-1.172047,-32.447456,3.252678,179.02315,-0.8706143,-0.1404341,0.89431226,-0.048002716,-0.029125359,0.058110252
20231225 03:38:21,-0.564671,0.028722,-0.619452,-0.013006,-0.062651,-0.035912,-1.321228,-31.986969,3.221138,178.4556,-0.83295786,0.035437368,0.8366444,-0.025566438,-0.058363225,0.035797667
20231225 03:38:21,-0.380141,0.188100,-0.717814,-0.049227,-0.093546,0.001375,-0.958309,-31.300842,3.313934,179.0179,-0.7955712,0.22617587,0.76962745,-0.02240735,-0.09797274,0.035589874
20231225 03:38:21,-0.126284,0.328225,-0.744681,-0.099299,-0.114853,0.022682,-1.224415,-31.883720,3.081383,178.02873,-0.65332985,0.38190764,0.595196,-0.041519783,-0.1244431,0.05931654
20231225 03:38:21,0.053001,0.471389,-0.715006,-0.137651,-0.111657,0.017355,-0.827442,-31.759476,3.077225,178.7843,-0.5166678,0.52556664,0.44434714,-0.073476344,-0.12194889,0.08999474
20231225 03:38:21,0.078021,0.662098,-0.539203,-0.147239,-0.076500,-0.012475,-1.163082,-32.352440,3.246567,178.21292,-0.3908402,0.7099432,0.3006626,-0.1039055,-0.086878374,0.116925746
20231225 03:38:21,-0.210069,0.819047,-0.255908,-0.114214,-0.030690,-0.042304,-1.067039,-31.865417,2.545876,178.50592,-0.4230269,0.8135641,0.31421983,-0.10635802,-0.038520478,0.11153982
20231225 03:38:21,-0.631020,0.870053,0.041650,-0.056685,0.007662,-0.052958,-1.268856,-32.550713,3.392426,178.80376,-0.5510164,0.7515589,0.3942366,-0.07787193,0.0066397684,0.077338696
20231225 03:38:21,-0.962586,0.792619,0.308826,-0.010875,0.002335,-0.039108,-0.739601,-31.751244,2.943596,179.92567,-0.6286496,0.55707055,0.42560446,-0.034164302,0.0065961103,0.036103092
20231225 03:38:21,-1.087406,0.723904,0.463479,0.033870,-0.025364,-0.005017,-0.933220,-31.957748,3.223091,179.66116,-0.6182495,0.4424526,0.38193604,0.025837753,-0.01799589,-0.01887262
20231225 03:38:21,-1.013536,0.644520,0.560701,0.085006,-0.067978,0.046120,-0.978428,-32.240952,2.973183,179.3016,-0.48167762,0.3873959,0.2528838,0.10309977,-0.059417874,-0.09045377
20231225 03:38:21,-0.800649,0.523028,0.455028,0.128686,-0.116984,0.094060,-1.381794,-31.902023,3.616905,178.49457,-0.3582988,0.3476698,0.19004649,0.17196324,-0.10899541,-0.15379703
20231225 03:38:21,-0.472642,0.379414,0.177479,0.163842,-0.145748,0.128151,-1.303299,-31.796928,3.208908,178.10878,-0.26123756,0.31057084,0.1842724,0.22024241,-0.13984108,-0.20195654
20231225 03:38:21,-0.120121,0.293456,-0.092649,0.190476,-0.143617,0.132413,-1.232994,-32.170631,3.367973,178.00111,-0.17057502,0.28979114,0.14258377,0.2384966,-0.13838853,-0.22373468
20231225 03:38:21,0.160398,0.141333,-0.324401,0.211783,-0.130833,0.111106,-1.487568,-32.100304,3.762764,177.26176,-0.11808815,0.16430454,0.11494575,0.23520583,-0.12548397,-0.22289023
20231225 03:38:21,0.323540,0.007738,-0.480162,0.217110,-0.123376,0.064231,-1.187405,-32.079315,3.898346,177.72766,-0.10452001,0.032027368,0.11639875,0.2037509,-0.11853868,-0.19422454
20231225 03:38:21,0.477727,-0.087077,-0.522954,0.208587,-0.146813,0.001375,-1.530590,-31.633430,3.865829,176.68762,-0.024712294,-0.07486428,0.041102827,0.15150993,-0.14424202,-0.14113258
20231225 03:38:21,0.607318,-0.132471,-0.645527,0.185149,-0.193689,-0.068938,-1.469254,-32.102150,4.031006,176.74841,-0.032316983,-0.1270058,0.025674462,0.08182818,-0.19258073,-0.07572788
20231225 03:38:21,0.637395,-0.084311,-0.868031,0.136143,-0.242695,-0.143512,-1.389992,-32.380821,4.183960,176.86072,-0.19368237,-0.08327877,0.1345647,-0.010745905,-0.24250337,0.008475795
20231225 03:38:21,0.659526,0.049511,-1.014998,0.060503,-0.281047,-0.218087,-1.284214,-32.182556,4.038101,177.04375,-0.31459495,0.054927886,0.18494678,-0.12087378,-0.28012604,0.11020508
20231225 03:38:21,0.621991,0.227582,-1.035750,-0.034313,-0.304485,-0.299053,-1.099174,-32.262962,4.045189,177.56723,-0.36474398,0.24532858,0.21478185,-0.24308413,-0.30144307,0.23248115
20231225 03:38:21,0.440221,0.472305,-0.833339,-0.122736,-0.314073,-0.380020,-0.841652,-31.966995,4.564308,178.98148,-0.34962326,0.5497136,0.22795701,-0.3427198,-0.29562464,0.34990767
20231225 03:38:21,0.072598,0.777707,-0.486231,-0.177069,-0.297027,-0.443941,-0.772503,-31.765030,3.881958,179.25433,-0.37099072,0.8194345,0.2702081,-0.41865897,-0.2712918,0.4341609
20231225 03:38:21,-0.394263,1.104878,-0.066209,-0.181331,-0.275720,-0.480162,-0.402039,-32.117737,4.176620,-179.25554,-0.4580282,1.0492159,0.34054965,-0.43251348,-0.23315708,0.4604785
20231225 03:38:21,-0.868222,1.328167,0.353477,-0.136586,-0.246956,-0.495077,0.046150,-31.981575,3.502327,-178.00145,-0.58792454,1.0882891,0.40199572,-0.39700884,-0.17976959,0.43881944
20231225 03:38:21,-1.436719,1.532779,0.665839,-0.058816,-0.228845,-0.471640,-0.032349,-32.086670,3.910316,-177.55295,-0.8868307,1.0402088,0.57813287,-0.31241924,-0.13647518,0.37055558
20231225 03:38:21,-1.851887,1.620658,0.825289,0.045589,-0.223518,-0.417307,0.258854,-32.160698,4.052025,-176.54851,-1.1516299,0.9197184,0.7651589,-0.19169323,-0.1074609,0.25809994
20231225 03:38:21,-2.111887,1.588001,0.783287,0.152123,-0.208603,-0.340602,0.727543,-31.276306,3.998955,-175.2883,-1.3895026,0.781929,0.9965038,-0.062570676,-0.07707535,0.12665784
20231225 03:38:21,-2.147539,1.501584,0.720167,0.273573,-0.164924,-0.256439,0.858795,-31.926834,4.042725,-175.08167,-1.4262657,0.7168659,1.0718932,0.06765853,-0.027534358,-0.017098501
20231225 03:38:21,-2.001667,1.458574,0.610590,0.392892,-0.132964,-0.168015,0.682720,-31.751404,4.029526,-175.566,-1.3433855,0.78552127,1.0588869,0.19676462,0.0019130036,-0.16536315
20231225 03:38:21,-1.634882,1.347116,0.298772,0.495165,-0.092481,-0.095572,0.895420,-31.930534,4.579216,-175.06133,-1.2015821,0.9065189,1.0553744,0.2953179,0.028873103,-0.29736316
20231225 03:38:21,-1.329360,1.321788,0.093211,0.584655,-0.030690,-0.041239,0.870712,-31.465515,4.950523,-174.95473,-1.0857509,1.0179837,1.0023657,0.3683765,0.08304097,-0.40822744
20231225 03:38:21,-1.049020,1.529826,-0.204437,0.604896,-0.043475,0.010963,0.649433,-31.573296,4.687416,-175.57666,-1.1136639,1.3543562,1.016541,0.39875782,0.051669594,-0.4779787
20231225 03:38:21,-0.918522,1.931159,-0.558929,0.522864,-0.131898,0.065296,0.632652,-32.338997,5.541061,-175.1392,-1.3580091,1.8532987,1.1663357,0.38222304,-0.06665395,-0.46936485
20231225 03:38:21,-0.641234,2.154902,-1.066278,0.336429,-0.242695,0.117498,0.730881,-31.101898,5.193344,-175.26277,-1.5857056,2.219563,1.2158964,0.3211456,-0.22062762,-0.3566013
20231225 03:38:21,-0.205485,2.179437,-1.304821,0.091399,-0.320465,0.148393,0.431870,-31.698547,5.899170,-177.25146,-1.4002862,2.2717125,0.92564213,0.20203091,-0.32674167,-0.16464326
20231225 03:38:21,0.412503,2.101683,-1.151227,-0.160024,-0.313008,0.144132,0.696175,-32.057640,6.059212,-178.43477,-0.69196606,2.089989,0.35199484,0.024291947,-0.31093287,0.04408782
20231225 03:38:21,0.930668,1.947999,-0.256693,-0.366701,-0.271459,0.112171,0.732037,-31.677559,6.034760,-179.19467,0.50440377,1.8943381,-0.52053356,-0.16698189,-0.2507572,0.20245633
20231225 03:38:21,1.228319,1.502219,0.988904,-0.496674,-0.238433,0.056773,0.586678,-32.238434,4.730209,-179.52689,1.6494538,1.4797468,-1.5500389,-0.339877,-0.20677342,0.29269063
20231225 03:38:21,1.239108,0.857739,2.288847,-0.538222,-0.248021,-0.000756,0.597828,-31.393333,5.077072,-179.36153,2.3803697,0.8762546,-2.5701985,-0.4421793,-0.22363408,0.31726256
20231225 03:38:21,1.032283,0.176345,3.242262,-0.504131,-0.282112,-0.047631,0.464775,-31.684761,4.960800,-179.36844,2.5735965,0.19881415,-3.3029532,-0.4590679,-0.2707278,0.30090004
20231225 03:38:21,0.719046,-0.549710,3.828819,-0.390139,-0.272524,-0.063611,0.756359,-31.950691,5.382973,-178.68521,2.4183173,-0.53904533,-3.732896,-0.3759935,-0.2695891,0.23257464
20231225 03:38:21,0.579318,-1.299981,4.165303,-0.207964,-0.178774,-0.051892,0.764553,-31.471893,4.815918,-178.54916,2.1860862,-1.3035804,-4.082249,-0.21125516,-0.17932075,0.12597692
20231225 03:38:21,0.469374,-2.007676,4.476371,0.036000,-0.101003,-0.044435,1.089039,-31.724030,4.299721,-177.97012,2.0026755,-2.012329,-4.423395,0.018407438,-0.10079715,0.025726005
20231225 03:38:21,0.469343,-2.621763,4.559877,0.301272,-0.075435,-0.045500,0.773518,-31.376869,4.809807,-178.59912,1.8550386,-2.6202722,-4.5412006,0.2724031,-0.07589897,-0.051651873
20231225 03:38:21,0.609204,-3.148221,4.173323,0.561217,-0.114853,-0.079591,0.843437,-31.558685,4.688393,-178.61375,1.7941445,-3.1367555,-4.239466,0.512386,-0.12438049,-0.091730714
20231225 03:38:21,0.788233,-3.406763,3.324013,0.792398,-0.194754,-0.133924,0.889412,-31.659248,5.499245,-178.73727,1.7731178,-3.393847,-3.4717398,0.7056643,-0.2218808,-0.13098088
20231225 03:38:21,0.914983,-3.318648,2.018091,0.949004,-0.255479,-0.181865,0.943584,-31.281029,5.743034,-178.94113,1.5545081,-3.3143182,-2.271458,0.79257673,-0.31547043,-0.2139909
20231225 03:38:21,1.116978,-2.973634,0.839097,0.977768,-0.320465,-0.208499,1.032967,-32.040344,6.731293,-179.20674,1.253982,-3.0114627,-1.3161225,0.7347293,-0.40370837,-0.3039257
20231225 03:38:21,1.238989,-2.571373,-0.571130,0.886148,-0.356687,-0.208499,1.086369,-31.278343,6.414131,-179.79636,0.40330172,-2.7432864,-0.30741715,0.54522806,-0.47832346,-0.374435
20231225 03:38:21,1.450313,-2.065525,-1.557745,0.689059,-0.337511,-0.207433,1.581303,-31.626518,7.111649,-179.9542,-0.3885882,-2.47321,0.052381754,0.28565848,-0.46464273,-0.34741372
20231225 03:38:21,1.608438,-1.456907,-2.195704,0.401415,-0.286374,-0.221283,2.243347,-32.245148,7.828468,-179.45573,-0.92137957,-2.079768,0.12162006,0.03101696,-0.38182575,-0.17463972
20231225 03:38:21,1.599598,-1.075011,-2.455875,0.076484,-0.195819,-0.250047,2.163700,-31.774574,7.395042,-179.18584,-1.108125,-1.7321665,0.22913015,-0.1817747,-0.2478605,0.09088028
20231225 03:38:21,1.372682,-0.977765,-2.029779,-0.221814,-0.105265,-0.297988,2.278439,-31.481293,7.243073,-177.11821,-0.7070789,-1.2829046,0.26817775,-0.3786819,-0.11448769,0.35938394
20231225 03:38:21,0.815297,-0.887630,-1.179439,-0.439145,-0.063716,-0.336340,2.411110,-30.997971,7.078873,-174.83398,-0.25453222,-0.88293624,0.19841301,-0.54824424,-0.06395861,0.54328024
20231225 03:38:21,0.089998,-0.817646,-0.301280,-0.555268,-0.004057,-0.337406,2.498955,-30.989738,6.945236,-173.45378,-0.07265468,-0.7863621,0.09767455,-0.6396288,-0.02458346,0.61575866
20231225 03:38:21,-0.412249,-0.796508,0.449408,-0.557398,0.082237,-0.299053,2.912052,-31.617424,6.856346,-172.38225,0.011215895,-0.8755251,-0.18915126,-0.63003856,0.043037795,0.58198935
20231225 03:38:21,-0.848729,-0.767463,1.363130,-0.458321,0.120589,-0.241524,3.035374,-31.037224,6.417786,-171.86687,0.14284104,-1.0148242,-0.7156588,-0.52424,0.0765871,0.47148806
20231225 03:38:21,-1.107071,-0.732600,1.831329,-0.289996,0.129112,-0.171211,2.804741,-31.048134,5.880325,-172.2199,0.15450156,-1.1052408,-0.97901225,-0.34867072,0.09720094,0.31648928
20231225 03:38:21,-1.259539,-0.593394,1.951995,-0.097168,0.109936,-0.095572,2.935989,-31.698662,5.924095,-171.98438,0.13093686,-1.0181692,-0.931209,-0.14604251,0.10257122,0.14579456
20231225 03:38:21,-1.142854,-0.470354,1.506489,0.054111,0.126981,-0.018867,2.690388,-31.533318,6.312767,-172.3277,0.04155171,-0.8086511,-0.54486823,0.017163936,0.13503003,-0.004437697
20231225 03:38:21,-0.776651,-0.309928,0.918521,0.144666,0.157876,0.048250,2.663109,-31.626488,6.050644,-172.73549,0.016721606,-0.4858399,-0.23084304,0.12623441,0.16817622,-0.1142026
20231225 03:38:21,-0.381699,-0.361312,0.430950,0.186215,0.217536,0.091930,2.823441,-31.241875,6.429039,-172.7226,0.019715935,-0.4223333,-0.106214136,0.18460295,0.22506586,-0.17028013
20231225 03:38:21,-0.010704,-0.536976,0.200408,0.190476,0.250562,0.122825,2.753521,-31.060066,6.550446,-173.33614,0.14805925,-0.5458477,-0.1915421,0.21212013,0.25471175,-0.19447885
20231225 03:38:21,0.268497,-0.805422,0.109177,0.176626,0.258019,0.143066,3.080582,-30.754013,6.667694,-173.2755,0.29241854,-0.8007531,-0.32738745,0.2221116,0.25929072,-0.19880736
20231225 03:38:21,0.521915,-1.074677,0.103360,0.167038,0.233516,0.140936,2.762489,-30.965050,6.544334,-174.37341,0.47105572,-1.0741502,-0.49098462,0.21828936,0.23357843,-0.19647184
20231225 03:38:21,0.775485,-1.289937,-0.173456,0.155319,0.220732,0.128151,2.489990,-31.084755,6.951347,-175.31467,0.4681926,-1.3059008,-0.44215816,0.20457968,0.21979761,-0.18351361
20231225 03:38:21,0.871186,-1.310037,-0.373923,0.136143,0.221797,0.114302,2.482826,-30.237816,7.029968,-175.3098,0.38788533,-1.3380501,-0.36844945,0.18230817,0.22078678,-0.16147682
20231225 03:38:21,0.907961,-1.294836,-0.632892,0.099921,0.231385,0.099387,2.570290,-30.037689,6.615860,-175.00443,0.21550065,-1.3325576,-0.22794238,0.14621547,0.23099557,-0.12557216
20231225 03:38:21,0.879568,-1.064176,-0.750230,0.054111,0.236712,0.081276,2.614079,-30.888344,7.073738,-174.93762,0.09157765,-1.096949,-0.13997704,0.100069255,0.2371161,-0.08080329
20231225 03:38:21,0.831210,-0.914272,-0.856241,-0.000221,0.244169,0.062100,2.526230,-30.896568,7.207367,-174.7135,-0.02578175,-0.9206001,-0.048840463,0.044846147,0.2444011,-0.027551219
20231225 03:38:21,0.615066,-0.643658,-0.839059,-0.058816,0.235647,0.043989,2.383831,-31.091133,6.816734,-174.47685,-0.16739288,-0.61767936,0.09191492,-0.0132677145,0.2337616,0.027805455
20231225 03:38:21,0.461853,-0.448389,-0.804477,-0.117410,0.227124,0.039727,2.428268,-30.424156,6.505699,-173.76535,-0.24557972,-0.39656952,0.18261802,-0.061468624,0.2205403,0.0748894
20231225 03:38:21,0.305837,-0.228130,-0.625808,-0.170677,0.200490,0.047185,2.624081,-29.467575,6.579178,-172.871,-0.2253348,-0.17600971,0.18999794,-0.09552305,0.18807758,0.10789122
20231225 03:38:21,0.159918,-0.098298,-0.419916,-0.195180,0.187706,0.067427,2.507153,-30.510941,6.378174,-173.17517,-0.18141007,-0.060580455,0.16841766,-0.10034265,0.17023468,0.10858068
20231225 03:38:21,0.133465,0.087135,-0.251705,-0.193049,0.161072,0.099387,2.551975,-30.035843,6.347610,-173.0952,-0.09200019,0.10937244,0.085762285,-0.07304505,0.14356789,0.083157316
20231225 03:38:21,0.208593,0.192590,-0.231791,-0.179200,0.157876,0.131347,2.579639,-30.134560,6.890221,-173.13899,-0.03310381,0.21537076,0.024396881,-0.037856013,0.14106265,0.052293397
20231225 03:38:21,0.274160,0.229549,-0.251494,-0.164285,0.153615,0.162243,2.173702,-30.353821,6.900490,-174.26993,-0.0022034943,0.25197914,-0.009405702,-0.0033175498,0.1391074,0.017790817
20231225 03:38:21,0.411165,0.253329,-0.296622,-0.158958,0.145092,0.187811,2.200211,-29.876869,6.601685,-174.434,0.06055039,0.27315626,-0.078216955,0.02251836,0.13509674,-0.0036337078
20231225 03:38:21,0.548239,0.250439,-0.305639,-0.158958,0.150419,0.208053,1.977127,-30.926620,6.266068,-175.32568,0.15429638,0.2637047,-0.17133564,0.03794644,0.14460054,-0.0200613
20231225 03:38:21,0.610239,0.254491,-0.190084,-0.146174,0.164268,0.215510,1.740101,-30.474365,6.368156,-175.95064,0.29119086,0.2629847,-0.28796744,0.04868254,0.16038239,-0.039055325
20231225 03:38:21,0.601022,0.190281,-0.032798,-0.105691,0.173856,0.209118,1.846256,-30.467979,6.502769,-175.60272,0.40200445,0.2022107,-0.38768783,0.06797332,0.16789721,-0.06505559
20231225 03:38:21,0.454424,0.161035,0.105981,-0.028986,0.182379,0.199530,1.185368,-30.425011,6.627365,-176.60686,0.39267147,0.17512384,-0.38630074,0.111120835,0.17293224,-0.11456505
20231225 03:38:21,0.192145,0.131016,0.037211,0.056242,0.186641,0.199530,1.606663,-30.573906,5.971420,-175.15022,0.15379621,0.14140745,-0.1532812,0.16628781,0.17577109,-0.16992733
20231225 03:38:21,-0.071841,0.066593,-0.214652,0.125490,0.196229,0.218706,1.616779,-31.054550,6.806717,-174.51416,-0.20825922,0.08007153,0.20575812,0.22299835,0.18504137,-0.22909589
20231225 03:38:21,-0.302812,0.069643,-0.449728,0.155319,0.193033,0.258124,1.061275,-30.621437,6.504974,-175.38025,-0.53903097,0.087586835,0.5314417,0.27024457,0.17791148,-0.27870512
20231225 03:38:21,-0.266339,0.128288,-0.680399,0.155319,0.186641,0.299672,0.975620,-29.879593,6.991585,-175.5474,-0.69434446,0.17331365,0.6557393,0.30570805,0.16795239,-0.30475354
20231225 03:38:21,-0.003568,0.256153,-0.944309,0.134012,0.182379,0.328437,1.149509,-30.805092,6.651817,-175.77039,-0.7443601,0.32914516,0.61741626,0.32240796,0.16428588,-0.30396307
20231225 03:38:21,0.153677,0.418987,-1.118656,0.090333,0.169595,0.339090,0.691200,-30.460609,6.490799,-177.05157,-0.8053223,0.4991022,0.58732855,0.3096975,0.15140733,-0.2758128
20231225 03:38:21,0.275671,0.489195,-1.272054,0.032804,0.167464,0.335894,0.621670,-30.470695,6.892677,-177.37798,-0.8689582,0.5691976,0.5646307,0.277223,0.15004264,-0.22485101
20231225 03:38:21,0.259476,0.637325,-1.290222,-0.014071,0.190902,0.320979,0.499767,-29.917038,7.123260,-177.53558,-0.90001446,0.7229707,0.5958044,0.23413964,0.17091171,-0.17911582
20231225 03:38:21,0.241059,0.668629,-1.098428,-0.044966,0.200490,0.307130,0.145432,-30.316246,6.743881,-178.41608,-0.74672866,0.7448283,0.50729704,0.19929402,0.17910261,-0.15271649
20231225 03:38:21,0.166623,0.682637,-0.877713,-0.052423,0.201556,0.297542,0.181675,-30.128067,6.999908,-178.26494,-0.61241496,0.74329746,0.4414159,0.18336247,0.17980446,-0.14445287
20231225 03:38:21,0.238975,0.555758,-0.729371,-0.040705,0.207948,0.290084,0.075520,-30.134453,6.865295,-178.92851,-0.42041442,0.59504473,0.30082554,0.18418366,0.19364032,-0.15562819
20231225 03:38:21,0.352620,0.423553,-0.566174,-0.027920,0.198359,0.275169,-0.100555,-29.959015,6.852089,-179.8075,-0.19312926,0.44112754,0.11776292,0.18174925,0.19226225,-0.16293377
20231225 03:38:21,0.614375,0.161995,-0.457734,-0.021528,0.170660,0.252797,-0.170090,-29.969093,7.253975,179.3773,0.08779457,0.1505292,-0.13666654,0.17164475,0.17366484,-0.1583716
20231225 03:38:21,0.880079,0.197320,-0.418706,-0.016202,0.151484,0.215510,-0.197754,-29.870369,6.711365,178.88014,0.29376546,0.1575577,-0.36745232,0.15246786,0.15876774,-0.13585193
20231225 03:38:21,1.015437,0.284919,-0.312409,-0.001287,0.153615,0.175027,-0.655674,-29.717789,6.830826,177.47105,0.4883088,0.22088745,-0.5291428,0.1332247,0.16198932,-0.12427546
20231225 03:38:21,1.193846,0.218273,-0.209951,0.029608,0.131243,0.117498,-0.655293,-29.909668,7.111290,177.11716,0.68402904,0.12968688,-0.7295383,0.11386122,0.1365525,-0.10677456
20231225 03:38:21,1.199760,0.300437,-0.315963,0.062634,0.116328,0.058904,-0.337196,-29.698647,7.234657,177.87077,0.590593,0.21272898,-0.6847762,0.09274052,0.11605717,-0.08883968
20231225 03:38:21,1.117636,0.442798,-0.477070,0.085006,0.106740,0.023747,-0.680382,-29.252769,7.202133,177.04292,0.40139094,0.35166728,-0.5462986,0.080221675,0.103278786,-0.08333888
20231225 03:38:22,1.161549,0.512132,-0.622291,0.083941,0.092890,-0.005017,-0.840332,-29.829262,7.104202,176.64658,0.3113377,0.40570542,-0.50381935,0.056503985,0.0875953,-0.06431073
20231225 03:38:22,1.246916,0.572304,-0.734176,0.063699,0.070518,-0.038043,-0.839561,-30.213043,7.665146,176.32199,0.27866513,0.43122503,-0.51535046,0.017048651,0.06305559,-0.027675591
20231225 03:38:22,1.309074,0.605596,-0.838111,0.027478,0.052407,-0.085984,-0.264709,-29.322266,7.746689,177.43484,0.22244555,0.44450295,-0.5114685,-0.04498678,0.043100957,0.031001287
20231225 03:38:22,1.203779,0.615669,-0.932670,-0.030051,0.047080,-0.139251,-0.222462,-29.405350,7.082680,178.21896,0.064103484,0.5049266,-0.3666309,-0.12438293,0.04034316,0.109678544
20231225 03:38:22,0.975040,0.689988,-0.737165,-0.088645,0.032165,-0.176538,-0.388802,-29.518684,7.624306,178.56317,0.0655123,0.65400827,-0.29667404,-0.19187549,0.02974526,0.18000615
20231225 03:38:22,0.729105,0.820635,-0.565027,-0.122736,0.019381,-0.206368,-0.106949,-29.495850,7.491646,179.96686,0.025051236,0.831718,-0.19857833,-0.23727724,0.020368474,0.22640555
20231225 03:38:22,0.439429,1.024814,-0.349898,-0.130194,0.012989,-0.226610,-0.028458,-29.390739,7.083656,-179.03139,-0.040037602,1.0566773,-0.106830955,-0.2580576,0.018664852,0.24450648
20231225 03:38:22,0.101057,1.336311,-0.321860,-0.122736,0.017250,-0.225544,-0.229237,-28.750305,7.441765,-178.51965,-0.30588228,1.3633171,0.1422392,-0.25337374,0.028472248,0.23655453
20231225 03:38:22,-0.188688,1.713474,-0.312493,-0.117410,0.022577,-0.208499,-0.168285,-29.027130,7.326477,-177.58609,-0.5739568,1.7132196,0.3832028,-0.2377342,0.037155434,0.22029494
20231225 03:38:22,-0.426079,2.065392,-0.331518,-0.123802,0.034296,-0.173342,0.113564,-29.004288,7.193817,-176.24898,-0.83599985,2.0288033,0.6197633,-0.21567813,0.046321563,0.20380315
20231225 03:38:22,-0.626389,2.433709,-0.339189,-0.150435,0.042819,-0.133924,0.386063,-28.884583,6.786797,-175.29564,-1.0567601,2.3581133,0.8225105,-0.20151275,0.046254285,0.20213282
20231225 03:38:22,-0.692378,2.731663,-0.256036,-0.217552,0.033231,-0.089180,0.049274,-28.901871,6.114723,-176.41006,-1.0829765,2.626179,0.81127316,-0.20330648,0.020824835,0.2298961
20231225 03:38:22,-0.661894,2.813934,-0.168885,-0.318760,0.010858,-0.046566,0.449585,-28.603226,7.304955,-175.34196,-0.9620463,2.7119243,0.7682644,-0.22756894,-0.018523902,0.28466725
20231225 03:38:22,-0.425214,2.601718,0.063899,-0.421034,0.009793,-0.014605,0.552406,-28.771255,6.245171,-176.41042,-0.5007725,2.5318573,0.39453006,-0.27440286,-0.025454244,0.33903018
20231225 03:38:22,-0.061362,2.262963,0.464096,-0.504131,0.042819,-0.002886,0.783039,-28.760345,6.782639,-176.71344,0.15725523,2.2198582,-0.17378189,-0.33734325,0.01356516,0.3825892
20231225 03:38:22,0.222721,1.921250,1.061506,-0.604274,0.088629,-0.045500,0.155048,-28.703606,5.968857,-178.89107,0.8090369,1.8874112,-0.9045545,-0.47885388,0.065457866,0.44381034
20231225 03:38:22,0.297446,1.456489,1.768019,-0.621319,0.093955,-0.064677,0.155048,-28.703606,5.968857,-178.90556,1.3160907,1.4023944,-1.5187782,-0.5188393,0.06944591,0.4528158
20231225 03:38:22,0.236608,0.909805,2.537817,-0.615993,0.091825,-0.095572,0.269405,-28.218430,5.536415,-178.66171,1.6424412,0.8283879,-2.1778464,-0.558477,0.06435835,0.43994105
20231225 03:38:22,0.150931,0.432688,3.242797,-0.536092,0.076910,-0.111552,0.411041,-27.640083,5.366104,-178.31984,1.8573513,0.32384488,-2.7998526,-0.5141766,0.050730683,0.38503063
20231225 03:38:22,0.046500,0.129526,3.505447,-0.407184,0.079040,-0.117944,0.409233,-28.582039,5.293602,-178.23651,1.8245909,-0.01373063,-3.0293787,-0.41320294,0.05525265,0.31194836
20231225 03:38:22,-0.173002,-0.208758,3.745205,-0.256970,0.030034,-0.103029,0.593124,-28.086784,4.459274,-177.78688,1.6815953,-0.40303272,-3.1869085,-0.27573457,0.012768507,0.21647117
20231225 03:38:22,-0.228857,-0.602602,3.492185,-0.111018,0.020446,-0.070003,0.259285,-27.737778,4.701111,-178.47913,1.4673796,-0.7768047,-2.9830155,-0.13168973,0.01415916,0.11459562
20231225 03:38:22,0.013825,-1.082689,3.198875,0.029608,0.024708,-0.042304,0.638714,-27.995468,4.989655,-177.87651,1.4588931,-1.184983,-2.9092612,0.0070816297,0.028038954,0.025646087
20231225 03:38:22,0.114479,-1.677491,3.013920,0.186215,0.049211,-0.047631,0.710430,-27.235313,4.940750,-177.74812,1.3619447,-1.7515448,-2.8635368,0.14996846,0.06248372,-0.02957074
20231225 03:38:22,0.145587,-2.440208,2.723059,0.357736,0.074779,-0.061481,0.481339,-28.013779,5.525162,-178.19632,1.1799107,-2.495682,-2.6626208,0.30955654,0.100655705,-0.06953363
20231225 03:38:22,0.133618,-3.029366,2.300946,0.528191,0.071583,-0.083853,1.274513,-27.381523,4.955902,-176.53003,0.9808556,-3.0713139,-2.3796015,0.46705872,0.112860054,-0.095440656
20231225 03:38:22,0.170116,-3.418205,1.709005,0.664556,0.034296,-0.111552,0.599030,-27.354187,6.287109,-177.60666,0.848806,-3.442685,-1.7964681,0.5851501,0.09383988,-0.12175426
20231225 03:38:22,0.076491,-3.463260,0.930737,0.756176,-0.018972,-0.144578,1.004967,-27.134926,6.276833,-176.50829,0.5868711,-3.4756777,-1.0756595,0.63668144,0.061081957,-0.17069532
20231225 03:38:22,0.055112,-3.080025,-0.022792,0.760437,-0.089284,-0.173342,1.305134,-27.113937,6.412422,-175.2975,0.2517564,-3.0421019,-0.2261731,0.57593656,0.014694324,-0.24118285
20231225 03:38:22,-0.122305,-2.528510,-0.894074,0.674144,-0.153205,-0.186126,1.190392,-27.407227,6.564392,-174.43684,-0.33175915,-2.387517,0.5797073,0.43102497,-0.023515932,-0.288395
20231225 03:38:22,-0.295293,-1.781617,-1.911566,0.512211,-0.161728,-0.181865,1.298740,-26.650772,7.051979,-172.39175,-1.2197745,-1.4158278,1.3467696,0.25077623,-0.03293359,-0.26651466
20231225 03:38:22,-0.429764,-1.078615,-2.443773,0.278900,-0.135094,-0.169081,1.677784,-26.716576,7.060043,-169.49883,-1.8266237,-0.46872061,1.6673993,0.07448773,-0.029469624,-0.13817477
20231225 03:38:22,-0.676922,-0.386217,-2.696977,-0.019398,-0.073304,-0.140316,1.732723,-26.722130,7.864784,-167.85602,-2.319478,0.3048901,2.033801,-0.09554612,-0.030234758,0.08643283
20231225 03:38:22,-0.988698,0.065137,-2.281532,-0.337937,-0.032821,-0.089180,1.880753,-26.606941,7.054909,-168.31926,-2.2890983,0.4950499,2.1762896,-0.2661796,-0.083321646,0.3142555
20231225 03:38:22,-1.303764,0.187473,-1.328435,-0.600012,-0.015775,-0.007148,1.271076,-26.552055,6.509377,-171.27162,-1.8482424,0.19047049,1.8699574,-0.41939425,-0.15925403,0.4331821
20231225 03:38:22,-1.436282,0.019764,-0.192774,-0.759815,-0.000861,0.086603,1.537182,-25.969177,6.741920,-171.67845,-1.2260222,-0.27418116,1.0668464,-0.5313971,-0.19183207,0.4196028
20231225 03:38:22,-1.392033,-0.306308,0.962923,-0.799233,0.020446,0.182484,1.640388,-26.329102,5.962616,-172.82306,-0.56526625,-0.7273897,-0.01953733,-0.5578732,-0.17385748,0.31041896
20231225 03:38:22,-1.237661,-0.652471,1.866791,-0.745965,0.033231,0.262385,1.243416,-26.453339,5.966774,-174.55516,-0.07265866,-1.052327,-1.0277791,-0.5162833,-0.126978,0.15574431
20231225 03:38:22,-0.995444,-1.024979,2.654191,-0.602143,-0.002991,0.318849,1.303215,-26.154495,5.010063,-175.18178,0.41980773,-1.3700211,-1.9520004,-0.38600817,-0.1187462,-6.172657E-4
20231225 03:38:22,-0.656377,-1.219420,2.914787,-0.399727,-0.015775,0.344417,0.863602,-26.003754,5.397758,-176.48778,0.7986679,-1.4603713,-2.3615932,-0.20042135,-0.08324681,-0.12590298
20231225 03:38:22,-0.319916,-1.287430,2.769995,-0.186657,-0.018972,0.342286,0.881916,-26.005600,5.666008,-176.81711,1.0385171,-1.4320582,-2.3738,-0.00861077,-0.050162226,-0.21888387
20231225 03:38:22,0.007264,-1.430202,2.288072,0.021086,0.022577,0.310326,0.960415,-25.900513,5.258018,-176.92648,1.1352817,-1.5076524,-2.0848894,0.16392556,0.012792744,-0.2820284
20231225 03:38:22,0.172025,-1.379161,1.754005,0.202195,0.066256,0.263451,0.166470,-26.148987,5.266342,-178.7809,1.0817897,-1.4276668,-1.625404,0.30493638,0.06899856,-0.3282501
20231225 03:38:22,0.186856,-1.289927,1.158444,0.331102,0.088629,0.218706,0.520805,-25.749763,5.645721,-177.74101,0.8348534,-1.3233154,-1.119066,0.3925327,0.101363376,-0.35942405
20231225 03:38:22,0.126721,-1.273720,0.624838,0.423787,0.085433,0.178223,0.160076,-25.685822,5.905891,-178.36865,0.5233789,-1.2912248,-0.6159817,0.44522196,0.107630014,-0.38523188
20231225 03:38:22,0.085327,-1.217876,0.086180,0.489839,0.055603,0.136674,0.029591,-25.419067,6.423065,-178.3853,0.19475678,-1.2101111,-0.14751443,0.4679839,0.08616432,-0.4053234
20231225 03:38:22,0.034713,-1.101544,-0.490310,0.528191,0.018316,0.097256,0.257267,-25.774452,6.046616,-177.62961,-0.20746005,-1.0529205,0.31317338,0.4610995,0.057762057,-0.41864938
20231225 03:38:22,0.029425,-0.994423,-1.149419,0.532453,-0.012579,0.065296,0.338722,-25.303055,6.552544,-176.8735,-0.68737644,-0.8718888,0.75380045,0.42403653,0.032605506,-0.4225029
20231225 03:38:22,0.007509,-0.855559,-1.738025,0.490904,-0.034952,0.039727,0.020241,-25.322197,6.148705,-177.37428,-1.1819994,-0.6415118,1.1177322,0.35845494,0.011436442,-0.3952797
20231225 03:38:22,-0.038400,-0.646012,-2.139806,0.413134,-0.055193,0.024813,0.154064,-25.414536,6.825920,-176.34682,-1.5949606,-0.34778225,1.320865,0.28138596,-0.013552657,-0.3427888
20231225 03:38:22,-0.043791,-0.473605,-2.481830,0.295945,-0.056259,0.013094,0.315163,-25.413712,7.765266,-175.41881,-1.9423511,-0.114677966,1.4557942,0.19107537,-0.026792757,-0.25067762
20231225 03:38:22,-0.036378,-0.361827,-2.606674,0.146797,-0.058389,0.003506,0.269573,-25.505028,7.234886,-175.74773,-2.073538,0.009862065,1.5039922,0.095230676,-0.04344282,-0.12479051
20231225 03:38:22,-0.011893,-0.232129,-2.528883,-0.018332,-0.061585,-0.000756,0.199657,-25.323212,7.356300,-176.15125,-1.9983974,0.10276678,1.4790398,-0.003238507,-0.062413007,0.012874662
20231225 03:38:22,0.010159,-0.215512,-2.158782,-0.173873,-0.064781,-0.000756,-0.082958,-24.962280,6.928017,-177.56165,-1.6393268,0.024679184,1.3332207,-0.102046855,-0.07932648,0.13455331
20231225 03:38:22,0.053477,-0.181283,-1.524707,-0.296388,-0.076500,-0.011409,0.189922,-25.034454,6.801468,-177.22112,-1.0702924,-0.030777872,0.9740365,-0.19959936,-0.10010644,0.22529823
20231225 03:38:22,-0.044681,-0.196319,-0.909598,-0.383747,-0.102069,-0.029520,0.147675,-24.951370,7.465477,-177.29616,-0.6518709,-0.118337974,0.6680124,-0.28324586,-0.13263106,0.28858566
20231225 03:38:22,-0.129094,-0.224608,-0.354069,-0.437014,-0.138290,-0.048696,-0.137520,-25.148613,6.403748,-178.31332,-0.31214306,-0.2048555,0.34425545,-0.34491837,-0.17414075,0.326047
20231225 03:38:22,-0.212201,-0.185038,0.209152,-0.441275,-0.172382,-0.071069,0.102081,-25.042686,6.935104,-177.50363,-0.010690227,-0.22295317,-0.027159989,-0.3663529,-0.20936449,0.3349096
20231225 03:38:22,-0.360389,-0.009641,0.594544,-0.397596,-0.194754,-0.092376,-0.013813,-24.760307,6.245667,-177.79808,0.10419324,-0.10392694,-0.22262543,-0.34505016,-0.22780336,0.32097274
20231225 03:38:22,-0.539421,0.228611,0.793659,-0.318760,-0.185166,-0.096637,0.109890,-24.372002,6.087578,-177.11052,0.068089604,0.06954133,-0.2484205,-0.28480017,-0.21304017,0.27233964
20231225 03:38:22,-0.733545,0.343202,0.883287,-0.228206,-0.144683,-0.075330,0.461273,-24.339081,5.553040,-176.15376,-0.045854628,0.12710994,-0.18673262,-0.20516992,-0.16569397,0.19673789
20231225 03:38:22,-0.904336,0.412615,1.017280,-0.135521,-0.106330,-0.038043,-0.050442,-24.756607,5.709175,-177.30751,-0.11607623,0.14175296,-0.19550008,-0.11516635,-0.120019265,0.11156988
20231225 03:38:22,-0.998515,0.410284,1.135807,-0.034313,-0.095677,0.005636,0.726612,-23.372429,5.224640,-175.3922,-0.12705469,0.1157949,-0.2286933,-0.011675169,-0.09970911,0.011185903
20231225 03:38:22,-0.889540,0.309215,1.112663,0.077549,-0.111657,0.048250,0.523643,-23.482063,5.229774,-176.05966,-0.04080963,0.048045665,-0.2883377,0.10303362,-0.10422781,-0.092138305
20231225 03:38:22,-0.758526,0.147609,0.828917,0.176626,-0.140421,0.075949,0.541958,-23.483910,5.498024,-176.13898,-0.07452637,-0.039361037,-0.14151508,0.19854373,-0.12402671,-0.17859474
20231225 03:38:22,-0.473601,0.020092,0.425178,0.251201,-0.171316,0.080211,0.602524,-23.568855,5.102257,-176.5299,-0.07779387,-0.06413732,-0.003726393,0.25589895,-0.15195948,-0.23405983
20231225 03:38:22,-0.155710,-0.030672,-0.068855,0.298076,-0.197950,0.063165,0.641720,-23.014359,6.272186,-176.51411,-0.1578584,-0.037136503,0.15579559,0.27305278,-0.17944826,-0.25992042
20231225 03:38:22,0.108614,-0.026495,-0.542406,0.311926,-0.219257,0.014159,-0.021358,-23.721474,6.043808,-178.98495,-0.3113612,0.003612902,0.29961807,0.23763677,-0.20540138,-0.23632148
20231225 03:38:22,0.283587,0.013495,-1.004851,0.291684,-0.234172,-0.056154,0.367031,-23.884140,6.326225,-178.08623,-0.5636991,0.061064567,0.4539314,0.16029781,-0.22195567,-0.18631473
20231225 03:38:22,0.328509,0.094209,-1.405826,0.241613,-0.228845,-0.134990,-0.012009,-23.818344,6.318161,-179.09135,-0.87796587,0.16155243,0.6417494,0.058912158,-0.21508446,-0.10285365
20231225 03:38:22,0.233422,0.222243,-1.644444,0.174496,-0.209669,-0.210629,0.570004,-23.774513,6.321091,-176.67336,-1.1578782,0.35141873,0.84045136,-0.04188884,-0.1840403,-0.014491558
20231225 03:38:22,-0.034091,0.348079,-1.623801,0.115902,-0.169186,-0.272419,0.403660,-23.887840,6.862724,-175.9844,-1.3174003,0.5289645,1.0513924,-0.11888706,-0.1251213,0.071344934
20231225 03:38:22,-0.451576,0.463347,-1.398457,0.083941,-0.118049,-0.310772,0.623791,-23.204391,6.284409,-174.30264,-1.4133205,0.61913157,1.2688636,-0.15977623,-0.053239368,0.12655565
20231225 03:38:22,-0.805415,0.477554,-1.101036,0.070092,-0.096742,-0.310772,0.403278,-23.695953,6.582253,-174.32372,-1.4209716,0.5341662,1.3613107,-0.16031685,-0.024199162,0.14675486
20231225 03:38:22,-0.988598,0.385261,-0.898629,0.041327,-0.126572,-0.282008,0.914604,-23.086540,6.145645,-172.91621,-1.3811607,0.3708731,1.3634472,-0.14901794,-0.061808296,0.14812222
20231225 03:38:22,-0.999229,0.357602,-0.804352,-0.004483,-0.176643,-0.238328,1.160213,-23.251892,5.756966,-172.77628,-1.3150287,0.32530612,1.3057306,-0.14160207,-0.1306209,0.14923292
20231225 03:38:22,-0.798891,0.299632,-0.646943,-0.053489,-0.232041,-0.204237,1.057007,-22.891968,6.536278,-173.28603,-1.0538335,0.27674916,1.0459275,-0.14715126,-0.20408583,0.15967584
20231225 03:38:22,-0.549804,0.254581,-0.586659,-0.095037,-0.272524,-0.190388,0.844688,-22.904724,6.267052,-174.69801,-0.8286725,0.25852948,0.8172637,-0.1687387,-0.25677365,0.18223181
20231225 03:38:22,-0.344736,0.226791,-0.534196,-0.132325,-0.269328,-0.201041,0.923569,-22.991524,6.139534,-175.03743,-0.6417823,0.2441495,0.6322267,-0.20820665,-0.2596281,0.21833971
20231225 03:38:22,-0.226843,0.182553,-0.266620,-0.156828,-0.248021,-0.233002,1.214767,-23.065544,6.281227,-174.50397,-0.362989,0.18386957,0.36106643,-0.25147432,-0.2397867,0.25869295
20231225 03:38:22,-0.292028,0.175803,0.128337,-0.161089,-0.241629,-0.279877,1.196453,-23.063698,6.012985,-174.68492,-0.14547569,0.1359232,0.113953196,-0.28527033,-0.23088284,0.29799676
20231225 03:38:22,-0.370608,0.231696,0.495950,-0.146174,-0.256544,-0.332079,1.417351,-22.764030,5.995621,-173.77007,0.026175082,0.14112473,-0.10393435,-0.3026722,-0.23767775,0.3231092
20231225 03:38:22,-0.604540,0.446382,0.708597,-0.097168,-0.258675,-0.364039,1.356403,-22.487206,6.110916,-173.34424,-0.037296534,0.2779383,-0.08272207,-0.2812432,-0.22486195,0.31189406
20231225 03:38:22,-0.902887,0.697170,0.831415,-0.016202,-0.237368,-0.372562,1.744026,-22.266098,5.832397,-171.61336,-0.22155428,0.41745496,0.07498145,-0.22267747,-0.1805578,0.25782013
20231225 03:38:22,-1.294145,1.017660,0.816391,0.091399,-0.200081,-0.361909,1.744026,-22.266098,5.832397,-170.66176,-0.5831117,0.5801357,0.42744654,-0.1372477,-0.108563006,0.1723286
20231225 03:38:22,-1.694324,1.360238,0.715956,0.216044,-0.145748,-0.327818,2.219879,-22.228653,5.700722,-168.42078,-1.0203128,0.75415987,0.8954499,-0.034832925,-0.017182998,0.05356601
20231225 03:38:22,-2.046494,1.735707,0.545696,0.343886,-0.085023,-0.277746,2.398525,-21.845894,6.347366,-166.2986,-1.4916224,0.9620694,1.4093966,0.06962088,0.08012925,-0.079484075
20231225 03:38:22,-2.363507,2.050891,0.267542,0.452552,-0.022168,-0.203172,2.425800,-21.752724,6.609497,-165.16927,-2.0034137,1.1747305,1.9362566,0.17029227,0.15999211,-0.20920993
20231225 03:38:22,-2.458862,2.231143,0.059291,0.513276,0.004466,-0.101964,2.037029,-21.398155,6.046600,-165.95512,-2.2471519,1.3611772,2.1908743,0.2587597,0.17253093,-0.32764134
20231225 03:38:22,-2.344404,2.545852,-0.154510,0.505819,0.003401,0.022682,2.250111,-21.769180,6.876770,-164.73752,-2.3551264,1.8063855,2.3532035,0.3260352,0.12019907,-0.41203582
20231225 03:38:22,-1.987216,2.908724,-0.357839,0.404611,-0.074370,0.171831,2.364853,-21.475891,6.724792,-165.09561,-2.2447753,2.4326155,2.2517817,0.38819456,-0.036491714,-0.43652198
20231225 03:38:22,-1.252789,2.740509,-0.514531,0.230959,-0.180904,0.302868,1.773491,-21.422852,6.447510,-169.48114,-1.6348251,2.6030543,1.6034551,0.40754956,-0.20220299,-0.37907004
20231225 03:38:22,-0.198302,2.307433,-0.566715,0.034935,-0.245891,0.378508,1.915894,-21.228279,6.838135,-172.83136,-0.6674514,2.3215966,0.6598258,0.33639255,-0.25980058,-0.26684943
20231225 03:38:22,0.918086,1.910128,-0.276015,-0.137651,-0.227780,0.375312,2.109898,-21.213669,6.839111,-175.75684,0.5232018,1.8192344,-0.441698,0.18206966,-0.18833405,-0.14332464
20231225 03:38:22,1.645893,1.410748,0.402339,-0.267624,-0.178774,0.279431,2.188778,-21.300461,6.711586,-176.7382,1.5981779,1.2598686,-1.389676,-0.013786733,-0.11771379,-0.01581882
20231225 03:38:22,1.790091,0.747172,1.353365,-0.345394,-0.139356,0.133478,2.039600,-20.839973,6.680046,-176.65437,2.294387,0.67705387,-2.1478512,-0.1930609,-0.094719365,0.11082976
20231225 03:38:22,1.497238,0.234178,2.190468,-0.367766,-0.097807,0.005636,1.597416,-21.247414,6.434303,-176.92932,2.490478,0.2359637,-2.6402247,-0.30176142,-0.0758486,0.20244083
20231225 03:38:22,1.017302,-0.166317,3.077854,-0.320891,-0.080762,-0.077461,1.411995,-20.975113,6.146736,-176.49385,2.4725366,-0.15207508,-3.1599789,-0.31493258,-0.07626254,0.22925663
20231225 03:38:22,0.479651,-0.613119,3.687973,-0.195180,-0.082892,-0.114748,1.869919,-21.127708,6.027290,-174.56108,2.1911736,-0.65061915,-3.5053418,-0.22514993,-0.08614217,0.18670982
20231225 03:38:22,0.023795,-1.042457,3.804277,-0.006613,-0.072239,-0.106225,1.554394,-20.780548,6.537369,-174.76047,1.7587478,-1.14782,-3.4792535,-0.051522914,-0.069429666,0.091559626
20231225 03:38:23,-0.244571,-1.432317,3.599081,0.214979,-0.045605,-0.071069,1.298672,-20.134552,6.090736,-175.06847,1.4246763,-1.5740737,-3.2147946,0.16281687,-0.027391434,-0.035505243
20231225 03:38:23,-0.342627,-1.696306,3.022499,0.430179,0.005531,-0.032716,1.474747,-20.309975,6.103943,-174.45296,1.1361353,-1.8410211,-2.6678278,0.36786476,0.04137009,-0.16653055
20231225 03:38:23,-0.257338,-1.888403,2.193972,0.602766,0.054537,-0.013540,1.474361,-20.118095,5.823471,-174.4847,0.89840066,-1.9908173,-1.9531897,0.52045023,0.10021966,-0.27223435
20231225 03:38:23,-0.110172,-2.043309,1.376377,0.717823,0.086498,-0.026324,1.547237,-19.933601,6.615982,-174.3047,0.68660897,-2.0974612,-1.2941303,0.5998007,0.1334574,-0.33771735
20231225 03:38:23,-0.002873,-2.075288,0.527419,0.766829,0.114197,-0.065742,1.337872,-19.580063,7.260674,-174.44402,0.3962935,-2.093525,-0.597218,0.59002525,0.17186272,-0.3702541
20231225 03:38:23,-0.085118,-1.910550,-0.220895,0.751914,0.129112,-0.093441,1.741623,-20.110886,6.897430,-172.8769,-0.07402418,-1.891427,0.039629504,0.51826495,0.19820206,-0.38729942
20231225 03:38:23,-0.174447,-1.640512,-0.852102,0.660294,0.130177,-0.092376,1.859703,-19.643188,7.939842,-171.30548,-0.5434051,-1.5576797,0.55220807,0.40508378,0.20705877,-0.371987
20231225 03:38:23,-0.226222,-1.387259,-1.352859,0.503688,0.120589,-0.054023,1.426487,-19.955612,7.687988,-172.51393,-0.98954195,-1.2550639,0.95746964,0.29220968,0.17367017,-0.3208447
20231225 03:38:23,-0.087871,-1.168565,-1.691871,0.307664,0.133373,-0.000756,1.532646,-19.949234,7.822601,-172.2296,-1.2275124,-0.9972021,1.0404954,0.18328895,0.15793921,-0.2241454
20231225 03:38:23,0.085945,-0.962955,-1.778913,0.076484,0.166399,0.062100,1.630222,-20.229759,8.243797,-172.95699,-1.2291521,-0.8300692,0.9992357,0.08504179,0.16589253,-0.08500801
20231225 03:38:23,0.288170,-1.117798,-1.496974,-0.145109,0.201556,0.123890,1.205204,-20.063393,7.424881,-175.31589,-0.83820915,-1.0526874,0.7627516,-0.018567055,0.19184561,0.030477516
20231225 03:38:23,0.456845,-1.384874,-0.819355,-0.318760,0.222862,0.170765,1.762508,-19.554543,7.799126,-174.44373,-0.17461684,-1.3655771,0.2132183,-0.13114381,0.2152349,0.097708255
20231225 03:38:23,0.604437,-1.547756,-0.051439,-0.416772,0.230320,0.191007,1.162186,-19.596527,7.527939,-176.7742,0.44591835,-1.5495601,-0.39515403,-0.21489637,0.23190342,0.11159474
20231225 03:38:23,0.705655,-1.609150,0.510716,-0.445537,0.233516,0.189942,1.073189,-19.029091,6.820160,-177.083,0.8600126,-1.6123555,-0.89094293,-0.2521515,0.23909794,0.11247328
20231225 03:38:23,0.776073,-1.621285,0.922222,-0.428491,0.223928,0.170765,1.267956,-19.398254,7.382088,-176.66026,1.1479638,-1.6227032,-1.2754586,-0.25864628,0.22927132,0.10865033
20231225 03:38:23,0.708827,-1.524973,1.152986,-0.373093,0.224993,0.146262,1.161800,-19.404633,7.247475,-176.7243,1.2323087,-1.5248932,-1.4227182,-0.2267292,0.22551002,0.09895521
20231225 03:38:23,0.583847,-1.224907,1.244133,-0.299584,0.237777,0.138805,1.161800,-19.404633,7.247475,-176.22783,1.2121433,-1.2299352,-1.4156908,-0.16665873,0.23069285,0.07354713
20231225 03:38:23,0.402858,-0.897250,1.270998,-0.231402,0.239908,0.150524,0.570053,-19.159706,6.689720,-177.52275,1.1048377,-0.9140373,-1.2891104,-0.10090301,0.22873351,0.026526242
20231225 03:38:23,0.297864,-0.563106,1.115974,-0.169612,0.235647,0.175027,1.028362,-19.504189,6.850731,-175.85027,0.9521627,-0.5885134,-1.0843568,-0.030237235,0.22175507,-0.015782952
20231225 03:38:23,0.162294,-0.229093,0.886335,-0.131259,0.228189,0.204856,0.825394,-19.613815,6.855865,-176.20543,0.7085552,-0.2588169,-0.7887265,0.023402907,0.2121471,-0.05836513
20231225 03:38:23,0.103137,-0.092068,0.659447,-0.113148,0.216470,0.244274,0.648933,-19.246498,6.562195,-176.56636,0.51807195,-0.11793898,-0.5649781,0.0666424,0.19802772,-0.09760884
20231225 03:38:23,0.155465,-0.040438,0.570425,-0.098233,0.203686,0.278365,0.497948,-19.727974,6.458145,-177.32928,0.49762443,-0.05629283,-0.5293168,0.104305215,0.18776642,-0.13427624
20231225 03:38:23,0.247942,-0.057344,0.506763,-0.069469,0.207948,0.296476,0.235451,-18.426918,6.370605,-178.28462,0.5250238,-0.06464782,-0.543435,0.14022957,0.19585468,-0.16883948
20231225 03:38:23,0.332499,-0.110030,0.407199,-0.023659,0.223928,0.301803,-0.215313,-19.121277,6.411446,-179.89626,0.522457,-0.11099091,-0.52516335,0.1790894,0.21522324,-0.2075033
20231225 03:38:23,0.343888,-0.180261,0.325659,0.027478,0.250562,0.299672,-0.266911,-18.941315,6.801102,-179.65088,0.47994977,-0.17800662,-0.47310472,0.21221049,0.24004754,-0.23906715
20231225 03:38:23,0.190090,-0.208734,0.257811,0.090333,0.281457,0.300738,-0.354759,-18.949547,6.934738,-179.54301,0.32394883,-0.21060637,-0.3197903,0.25517315,0.27085364,-0.2813546
20231225 03:38:23,0.112665,-0.280048,0.142231,0.168104,0.313417,0.310326,-0.090836,-19.116745,6.814301,-178.43681,0.195715,-0.28021356,-0.18644819,0.31478155,0.3044717,-0.33544323
20231225 03:38:23,-0.061438,-0.227512,0.015665,0.235221,0.320875,0.327371,-0.425056,-18.575844,6.775673,-178.95059,-0.01624269,-0.23225203,0.028045477,0.37009054,0.31268138,-0.39495838
20231225 03:38:23,-0.124321,-0.267893,-0.245082,0.277834,0.305960,0.352940,-0.830608,-18.986992,7.066414,179.90031,-0.23852026,-0.25676727,0.2619779,0.420017,0.29832467,-0.44667205
20231225 03:38:23,-0.089810,-0.246242,-0.435719,0.293815,0.270803,0.381704,-0.970058,-18.815262,7.589706,179.56497,-0.35531014,-0.21744783,0.3679167,0.45600024,0.26142466,-0.47773975
20231225 03:38:23,0.059584,-0.251584,-0.716378,0.279965,0.244169,0.411534,-0.946117,-18.896507,6.657455,178.45877,-0.4785934,-0.21054313,0.43873706,0.47966254,0.23515925,-0.48757198
20231225 03:38:23,0.419849,-0.227052,-0.892535,0.243743,0.209013,0.430710,-1.297882,-18.737534,6.911514,176.02197,-0.3884179,-0.21694201,0.28597477,0.48240423,0.20728314,-0.47687042
20231225 03:38:23,0.677338,-0.261966,-1.102427,0.194737,0.172791,0.421122,-1.507244,-18.383987,7.556206,174.49911,-0.4116273,-0.29361326,0.20495957,0.4507322,0.17761469,-0.42964402
20231225 03:38:23,0.722981,-0.206783,-1.313197,0.128686,0.186641,0.409403,-1.516209,-18.479012,7.562325,174.44838,-0.56333107,-0.24313362,0.2795524,0.40195405,0.19240406,-0.3688602
20231225 03:38:23,0.734806,-0.173270,-1.320173,0.064765,0.226059,0.396619,-1.852615,-18.688187,7.170715,173.11133,-0.5650644,-0.22264796,0.269381,0.35431328,0.23481001,-0.3156788
20231225 03:38:23,0.764995,-0.312381,-1.216312,0.001909,0.261215,0.369985,-1.764767,-18.679955,7.037079,173.48254,-0.41008922,-0.3621673,0.2530101,0.28479475,0.27076763,-0.26500547
20231225 03:38:23,0.771904,-0.585146,-0.890155,-0.064142,0.221797,0.339090,-2.231659,-18.622383,7.162651,172.03734,-0.10867542,-0.634337,0.12649795,0.20281778,0.23371011,-0.21174997
20231225 03:38:23,0.901256,-0.823773,-0.450304,-0.125932,0.097151,0.303934,-2.247402,-18.062355,7.527847,171.26355,0.3149925,-0.8937487,-0.19330627,0.11825898,0.11920541,-0.14587724
20231225 03:38:23,1.138445,-0.954689,-0.305707,-0.173873,-0.046671,0.249601,-2.547947,-17.891449,7.111786,169.38995,0.5595291,-1.0653751,-0.4207455,0.036563963,-0.013212243,-0.05639124
20231225 03:38:23,1.322468,-0.967269,-0.463857,-0.200507,-0.120180,0.184615,-2.477650,-18.265152,7.270859,169.10889,0.55023265,-1.1342982,-0.4483715,-0.030795977,-0.08144793,0.02317436
20231225 03:38:23,1.463857,-0.724508,-0.652024,-0.216487,-0.128702,0.111106,-2.920212,-18.480705,6.744637,167.09145,0.4785337,-0.95594096,-0.4901942,-0.08770985,-0.089668535,0.09930825
20231225 03:38:23,1.390572,-0.387498,-0.831314,-0.244186,-0.085023,0.031205,-2.550518,-18.449638,6.478348,168.79549,0.28833377,-0.5811509,-0.43026417,-0.1492768,-0.06056221,0.17126252
20231225 03:38:23,1.017946,0.097086,-0.706037,-0.284669,-0.015775,-0.018867,-2.778194,-18.094254,6.854797,169.60901,0.14407402,0.03784242,-0.31948215,-0.2023627,-0.007225153,0.2282089
20231225 03:38:23,0.758435,0.338891,-0.578685,-0.304911,0.046015,-0.030585,-2.744522,-18.464249,6.477371,171.91223,0.053494453,0.38272333,-0.22384277,-0.2256602,0.03754499,0.24492988
20231225 03:38:23,-0.161274,0.889797,0.033061,-0.283604,0.107805,0.002440,-2.692154,-19.027992,6.648666,174.18127,-0.16730994,0.86612177,0.032990187,-0.20245996,0.08254476,0.19728282
20231225 03:38:23,-0.742484,1.001759,0.471529,-0.210095,0.120589,0.074884,-2.886925,-18.658821,6.086739,174.2465,-0.3120718,0.83729964,0.13239461,-0.10923214,0.08383138,0.08961481
20231225 03:38:23,-0.963535,0.882634,0.797684,-0.102495,0.109936,0.167569,-2.665260,-18.742928,6.630325,175.38457,-0.25306833,0.6540291,0.046419084,0.027757868,0.075454816,-0.05529379
20231225 03:38:23,-0.718210,0.633550,0.719444,0.017890,0.075844,0.238948,-2.894085,-17.811867,6.165359,172.9657,-0.071967155,0.5071356,-0.069122285,0.17154281,0.056913108,-0.18949015
20231225 03:38:23,-0.169436,0.369585,0.367082,0.115902,0.042819,0.266647,-2.744907,-18.272362,6.196899,172.06071,0.12410782,0.3502921,-0.17597955,0.26809216,0.03754662,-0.27356234
20231225 03:38:23,0.317210,0.090153,-0.016357,0.195803,0.014054,0.251732,-2.895889,-18.753838,6.092857,170.24484,0.20964557,0.08661156,-0.22752802,0.3172191,0.014736487,-0.31485528
20231225 03:38:23,0.728776,0.050479,-0.549357,0.238417,0.024708,0.208053,-3.378906,-17.944344,6.303146,167.17853,0.08294368,-0.005048346,-0.19022265,0.31500307,0.024346478,-0.3165877
20231225 03:38:23,0.798997,0.073272,-0.954258,0.248005,0.032165,0.155850,-3.599419,-18.435905,6.600990,166.60867,-0.2237969,0.0031112619,-0.03688121,0.2792116,0.030004667,-0.29254395
20231225 03:38:23,0.682050,0.220637,-1.372454,0.218175,0.075844,0.129217,-3.149044,-17.549652,6.279671,167.46117,-0.6672889,0.14733891,0.24168932,0.23789848,0.07431496,-0.25994822
20231225 03:38:23,0.598651,0.348696,-1.483423,0.172365,0.100347,0.110040,-3.403610,-17.479324,6.674461,166.96005,-0.83012044,0.2972342,0.3276422,0.19340995,0.09984534,-0.21578532
20231225 03:38:23,0.539696,0.463172,-1.528031,0.118032,0.118458,0.089799,-3.051079,-18.022064,6.981339,168.4839,-0.9227785,0.414506,0.37140697,0.14446573,0.11855881,-0.16084443
20231225 03:38:23,0.497924,0.686360,-1.504519,0.063699,0.134439,0.065296,-3.500805,-17.390686,6.533745,166.82056,-0.9416993,0.66832733,0.34086284,0.09130652,0.13463128,-0.1061748
20231225 03:38:23,0.389746,0.769530,-1.451348,-0.000221,0.153615,0.047185,-3.624893,-17.587097,6.411354,166.82686,-0.9551984,0.7716615,0.40253705,0.03807257,0.15355635,-0.046884578
20231225 03:38:23,0.370067,0.799673,-1.161364,-0.064142,0.150419,0.034401,-3.430889,-17.572487,6.412331,167.89986,-0.70828545,0.80969787,0.28902084,-0.012326786,0.14983447,0.0118206255
20231225 03:38:23,0.362353,0.785987,-0.778250,-0.106756,0.125916,0.040793,-3.430889,-17.572487,6.412331,168.02986,-0.37735945,0.7890179,0.096401066,-0.036069006,0.12555383,0.041165076
20231225 03:38:23,0.407242,0.581292,-0.516026,-0.134455,0.098217,0.048250,-3.359173,-16.812332,6.363426,167.768,-0.12086028,0.5750604,-0.05966589,-0.05052384,0.09938716,0.057482854
20231225 03:38:23,0.521500,0.512650,-0.361422,-0.144043,0.074779,0.050381,-3.324734,-17.566116,6.546944,168.04358,0.08125073,0.49769163,-0.22916466,-0.05570392,0.07795335,0.06563589
20231225 03:38:23,0.622297,0.413462,-0.348658,-0.140847,0.086498,0.054642,-3.484680,-18.142609,6.449013,167.59145,0.16848615,0.38978574,-0.29372227,-0.05151318,0.09112324,0.056442056
20231225 03:38:23,0.697493,0.369081,-0.242143,-0.122736,0.108870,0.052512,-3.352776,-17.275505,5.723869,166.88593,0.30757993,0.33229658,-0.41199282,-0.039678313,0.115480214,0.039369274
20231225 03:38:23,0.789462,0.420593,-0.198026,-0.096103,0.130177,0.041858,-3.414379,-18.516312,6.608078,167.74843,0.38885924,0.3896336,-0.52254117,-0.02786645,0.13436326,0.026636176
20231225 03:38:23,0.645657,0.913666,-0.113145,-0.057750,0.175987,0.014159,-3.705193,-18.634171,6.746841,167.56511,0.34095532,0.9073534,-0.54756445,-0.024993446,0.17657015,0.010450796
20231225 03:38:23,0.281068,1.414063,0.023529,0.000844,0.224993,0.001375,-3.802387,-18.545525,6.606125,168.82675,0.122080855,1.4214687,-0.40538383,-0.010016302,0.22446086,-0.02893288
20231225 03:38:23,-0.260362,2.014157,-0.089126,0.064765,0.279326,0.015224,-3.730286,-17.977257,6.837685,170.41212,-0.4359017,1.9859618,0.05799402,0.022267405,0.28046554,-0.088783465
20231225 03:38:23,-0.653063,2.586919,0.058823,0.109509,0.283587,0.068492,-3.899197,-18.648781,6.745865,171.25745,-0.7209984,2.4636536,0.26812938,0.075988546,0.28021622,-0.15354644
20231225 03:38:23,-0.851025,3.081430,-0.209579,0.097791,0.249496,0.149458,-3.687645,-18.252235,6.454147,171.33594,-1.1153996,2.97377,0.5628773,0.13845995,0.23249412,-0.18455888
20231225 03:38:23,-0.642371,3.172623,-0.269600,-0.006613,0.125916,0.241078,-3.529503,-18.617706,6.479576,170.70197,-0.93753946,3.1258094,0.40335214,0.18201537,0.0966661,-0.13554716
20231225 03:38:23,-0.059164,2.743383,-0.479478,-0.161089,0.051341,0.323110,-3.923904,-18.183754,7.117180,166.64978,-0.45651984,2.7475479,-0.045310736,0.17540239,0.047033586,-0.051006913
20231225 03:38:23,0.812911,2.186491,-0.271517,-0.280408,0.079040,0.346548,-3.636044,-18.432205,6.064491,164.86215,0.46569878,2.0991354,-0.8322573,0.10808164,0.12565282,0.0049747974
20231225 03:38:23,1.439782,1.717591,0.270389,-0.364570,0.163203,0.284758,-4.191162,-18.190971,6.043228,162.61226,1.3607533,1.579718,-1.5842023,-0.018519595,0.23107523,0.054168478
20231225 03:38:23,1.636814,1.191149,1.195718,-0.418903,0.215405,0.151589,-4.244301,-17.243462,5.310989,163.12247,2.1076663,1.1311834,-2.2020779,-0.19398972,0.26402858,0.12505458
20231225 03:38:23,1.255120,0.593460,2.086996,-0.432753,0.211144,0.000310,-3.980766,-17.218765,4.910088,165.5702,2.2773702,0.607309,-2.487537,-0.3379196,0.23098825,0.21828791
20231225 03:38:23,0.658545,0.145963,3.007401,-0.365636,0.173856,-0.107291,-3.813656,-17.489212,4.929405,167.8716,2.191639,0.12857032,-2.8488936,-0.36644316,0.16988212,0.2568348
20231225 03:38:23,-0.037959,-0.155459,3.630330,-0.214356,0.147223,-0.142447,-4.061832,-17.882050,4.684639,168.32571,1.8344123,-0.29787534,-3.002995,-0.262578,0.13848184,0.204298
20231225 03:38:23,-0.601669,-0.508490,3.832821,-0.013006,0.126981,-0.112617,-4.122398,-17.797112,5.080406,169.2029,1.4013847,-0.80155325,-2.884103,-0.07460707,0.13149805,0.08179859
20231225 03:38:23,-1.060779,-0.691137,3.570560,0.183018,0.120589,-0.018867,-3.901501,-17.497444,5.063042,170.44504,0.8804553,-1.1188433,-2.4327564,0.14002888,0.146314,-0.091934495
20231225 03:38:23,-1.160057,-1.054420,3.027807,0.337494,0.130177,0.105779,-3.406952,-17.653740,5.480072,172.18442,0.5240277,-1.4284383,-1.929184,0.33577856,0.16640317,-0.27140516
20231225 03:38:23,-0.841570,-1.632835,2.388414,0.426983,0.133373,0.203791,-3.945175,-18.548203,5.935020,170.54169,0.4784915,-1.841574,-1.4363948,0.46442145,0.16514114,-0.39914495
20231225 03:38:23,-0.319350,-2.275005,1.889781,0.451486,0.103544,0.251732,-3.954140,-18.643227,5.941132,169.61061,0.6244179,-2.3430758,-1.1521974,0.5131991,0.122040905,-0.44025636
20231225 03:38:23,0.236699,-2.775509,1.445725,0.450421,0.068387,0.250666,-4.129829,-18.659691,6.208405,168.61913,0.8877975,-2.787451,-0.8848914,0.5137972,0.0775519,-0.43124902
20231225 03:38:23,0.651508,-2.997885,0.981640,0.388631,-0.060520,0.159046,-3.829666,-18.638695,6.343987,168.12689,0.97561276,-3.0005188,-0.60536027,0.41704223,-0.07120413,-0.30615568
20231225 03:38:23,0.927011,-2.976457,0.383304,0.326840,-0.088219,0.061034,-3.793808,-18.258614,6.319534,167.4138,0.8962269,-3.0118186,-0.21460187,0.3118476,-0.10539229,-0.1952239
20231225 03:38:23,0.946973,-2.979446,0.161987,0.261854,-0.064781,-0.055088,-3.722736,-19.016090,7.039536,167.69415,0.7503396,-3.0261643,-0.119673416,0.1861939,-0.08450259,-0.08680837
20231225 03:38:23,0.934857,-2.225057,-0.282905,0.145731,-0.064781,-0.169081,-3.696228,-18.539146,6.740730,167.81375,0.4972537,-2.2681062,0.017070979,0.009734079,-0.07569854,0.052154526
20231225 03:38:23,0.568539,-1.654639,-0.506866,-0.015136,-0.072239,-0.269223,-3.538082,-18.904617,6.766159,169.92903,0.11991149,-1.628526,0.2051191,-0.18976475,-0.06660722,0.21644092
20231225 03:38:23,-0.060569,-0.932818,-0.512220,-0.182396,-0.044540,-0.326752,-3.184132,-18.313507,6.865067,173.03539,-0.30841553,-0.8816286,0.4885124,-0.35204923,-0.031024951,0.3637305
20231225 03:38:23,-0.799934,-0.246751,-0.141534,-0.323022,0.003401,-0.333144,-3.335499,-18.603096,6.480553,174.44444,-0.63162315,-0.34836277,0.6748145,-0.45829743,0.0032396577,0.4626739
20231225 03:38:23,-1.424711,0.174212,0.582783,-0.418903,0.031100,-0.289465,-3.177738,-18.776672,6.225517,175.83305,-0.7210026,-0.22939774,0.50603974,-0.50356686,-0.0028185956,0.49267703
20231225 03:38:23,-1.896745,0.403413,1.307455,-0.431687,0.056668,-0.212760,-2.850681,-18.470627,6.342758,177.34694,-0.7665822,-0.28742898,0.15876794,-0.4741847,-0.0051869266,0.4343236
20231225 03:38:23,-2.083590,0.389883,1.649884,-0.345394,0.081171,-0.096637,-3.002048,-18.760208,5.958237,176.56348,-0.76503736,-0.40174356,-0.06065166,-0.34487236,0.01478808,0.28261018
20231225 03:38:23,-2.243706,0.183858,2.268401,-0.268689,0.097151,-0.031651,-3.150459,-18.683502,6.487640,176.47467,-0.6593474,-0.70443946,-0.61881065,-0.2545962,0.035745904,0.172345
20231225 03:38:23,-2.113479,-0.202296,2.548112,0.010432,0.112066,0.194203,-2.693302,-18.452316,5.807251,176.59158,-0.39330816,-1.0012848,-0.9632685,0.09584157,0.0835379,-0.17357236
20231225 03:38:23,-1.594842,-0.682975,2.225972,0.189411,0.107805,0.323110,-3.019978,-18.950249,5.970467,174.73427,-0.08658469,-1.1691536,-0.94743717,0.3193356,0.102632955,-0.38137814
20231225 03:38:23,-0.804042,-1.136637,1.727234,0.323644,0.080106,0.397684,-2.975155,-18.475151,5.939903,173.0413,0.33081883,-1.3072754,-0.8828658,0.48208064,0.08558454,-0.5155326
20231225 03:38:23,0.014126,-1.641089,0.948781,0.413134,0.036427,0.401946,-3.477520,-18.989555,6.370392,170.24281,0.5602962,-1.6524954,-0.55378395,0.56637836,0.039163947,-0.5641264
20231225 03:38:23,0.680016,-1.958292,0.151349,0.457878,0.023642,0.348678,-3.520153,-18.714577,6.753929,168.54153,0.5827155,-1.9793016,-0.20096835,0.5757322,0.015063563,-0.5484235
20231225 03:38:23,1.027341,-2.125934,-0.340415,0.466401,-0.001926,0.260255,-3.459591,-18.799515,6.358170,167.60666,0.4814182,-2.217936,0.0034388304,0.5277208,-0.023282832,-0.484747
20231225 03:38:24,1.131752,-2.168857,-0.692142,0.458944,-0.004057,0.156916,-3.380322,-19.078194,6.511124,167.47005,0.29485938,-2.314822,0.19618735,0.45617577,-0.036417354,-0.40427598
20231225 03:38:24,1.179540,-2.051620,-1.305745,0.437637,-0.014710,0.056773,-3.396065,-18.518158,6.876320,167.11803,-0.17951119,-2.2243998,0.45062938,0.35620412,-0.043981567,-0.33798462
20231225 03:38:24,0.953009,-1.755661,-1.647848,0.385435,-0.028560,-0.019932,-3.344078,-18.890007,6.767136,167.7762,-0.6414016,-1.8854861,0.65899456,0.24739368,-0.048638836,-0.2639274
20231225 03:38:24,0.759469,-1.517948,-1.964816,0.346017,-0.043475,-0.051892,-3.317184,-18.604950,6.748795,168.27565,-1.0698161,-1.5771052,0.83099526,0.17867346,-0.051228516,-0.22940424
20231225 03:38:24,0.494706,-1.132827,-2.244711,0.178757,-0.064781,-0.117944,-3.009861,-19.430901,6.805771,170.8041,-1.4816351,-1.0569562,1.0212979,0.012795322,-0.0575558,-0.06891591
20231225 03:38:24,0.182257,-0.744779,-2.231560,0.037066,-0.060520,-0.128598,-3.342545,-19.657562,7.889023,171.75046,-1.6418631,-0.5711762,1.2072194,-0.07779877,-0.049061596,0.04950711
20231225 03:38:24,-0.090689,-0.500974,-1.944024,-0.101429,-0.061585,-0.112617,-2.998325,-18.777695,7.433098,173.65353,-1.5221883,-0.29628927,1.2923167,-0.14377552,-0.05742299,0.15297072
20231225 03:38:24,-0.352724,-0.456726,-1.430075,-0.217552,-0.074370,-0.078526,-2.698547,-18.564827,7.288216,175.14868,-1.2440273,-0.31769753,1.225218,-0.19228198,-0.08650465,0.21975458
20231225 03:38:24,-0.416623,-0.429438,-1.122783,-0.262297,-0.088219,-0.058285,-3.061848,-19.059059,6.914955,173.6446,-1.0489507,-0.35007867,1.102766,-0.21323393,-0.10694395,0.23692709
20231225 03:38:24,-0.349957,-0.414624,-0.299667,-0.333675,-0.141487,-0.011409,-2.620049,-18.459717,6.880226,174.15811,-0.4273129,-0.41669494,0.4879611,-0.23629527,-0.16561987,0.25125027
20231225 03:38:24,-0.162547,-0.459960,0.052205,-0.336871,-0.156401,-0.008213,-2.876808,-19.139465,6.922043,172.98001,-0.059911277,-0.47064978,0.1134009,-0.24497616,-0.17482746,0.24836017
20231225 03:38:24,-0.002730,-0.460048,0.307986,-0.308107,-0.160663,-0.033782,-2.586761,-18.637833,6.222328,172.99551,0.22016592,-0.47108653,-0.18437064,-0.24621856,-0.17219812,0.24481449
20231225 03:38:24,0.041992,-0.371354,0.560734,-0.261232,-0.142552,-0.066807,-2.595726,-18.732849,6.228447,173.0225,0.41402033,-0.38988516,-0.412641,-0.23522845,-0.15097341,0.23492809
20231225 03:38:24,-0.062983,-0.207093,0.761388,-0.207964,-0.130833,-0.096637,-2.534775,-19.009682,6.113144,173.61958,0.46268344,-0.24816951,-0.5108342,-0.21344,-0.13751546,0.2201362
20231225 03:38:24,-0.241587,-0.042140,0.862662,-0.145109,-0.128702,-0.117944,-2.392757,-18.623222,6.223305,174.46298,0.39139882,-0.11653273,-0.47924662,-0.17798203,-0.13107625,0.19339685
20231225 03:38:24,-0.334958,0.080420,0.916079,-0.067338,-0.118049,-0.136055,-2.544125,-18.912804,5.838791,174.44357,0.35964805,-0.03351055,-0.45154816,-0.13035172,-0.11150439,0.15375188
20231225 03:38:24,-0.714137,0.415149,0.732985,0.024282,-0.082892,-0.134990,-2.392757,-18.623222,6.223305,176.00757,-0.06419605,0.22744137,-0.051283687,-0.064567745,-0.06189028,0.0842167
20231225 03:38:24,-0.912396,0.531303,0.644213,0.109509,-0.046671,-0.095572,-2.005135,-18.402107,5.944786,178.04926,-0.28967047,0.26575077,0.17468616,0.019475184,-0.012308647,-0.008453295
20231225 03:38:24,-1.320013,0.602244,0.342048,0.145731,-0.040278,-0.065742,-2.076469,-19.354156,6.274170,178.42447,-0.79611385,0.3021018,0.6856348,0.06411059,-0.0031242063,-0.056521017
20231225 03:38:24,-1.206514,0.432154,0.064917,0.226698,-0.060520,0.033335,-2.031647,-18.879059,6.243599,177.80522,-0.8517585,0.2386178,0.81735396,0.18914457,-0.031511035,-0.18550844
20231225 03:38:24,-0.764097,0.187500,-0.363935,0.249070,-0.086088,0.064231,-2.234615,-18.988693,6.248734,176.04413,-0.8016368,0.14646603,0.80109084,0.22446504,-0.06601746,-0.2234934
20231225 03:38:24,-0.352370,-0.045543,-0.869696,0.235221,-0.105265,0.062100,-2.489185,-18.918358,6.643524,174.18976,-0.8850422,0.00105194,0.82948005,0.20714536,-0.093713224,-0.21294239
20231225 03:38:24,-0.168747,-0.087215,-1.118982,0.219240,-0.104199,0.050381,-2.180439,-18.610458,6.492523,174.26953,-0.9654267,-0.03130643,0.8414099,0.18367909,-0.09658957,-0.19480224
20231225 03:38:24,0.349208,-0.107153,-1.548736,0.172365,-0.092481,0.000310,-2.013332,-18.880905,6.511841,173.29646,-1.0252161,-0.092935726,0.6550367,0.104772575,-0.091458805,-0.1312894
20231225 03:38:24,0.376002,-0.056994,-1.608768,0.123359,-0.066912,-0.074265,-1.986820,-18.403961,6.213036,173.36188,-1.0711453,-0.025145188,0.6487808,0.014499154,-0.064109735,-0.050995875
20231225 03:38:24,0.054978,0.244285,-1.590170,0.050915,-0.048801,-0.169081,-2.180439,-18.610458,6.492523,174.61641,-1.2694478,0.37181595,0.86978096,-0.102663055,-0.032311648,0.060074262
20231225 03:38:24,-0.084352,0.374173,-1.509955,0.025347,-0.057324,-0.186126,-1.846222,-19.151352,6.531158,176.57143,-1.300677,0.5205766,0.9397887,-0.1286792,-0.035761464,0.090534404
20231225 03:38:24,-0.434424,0.818040,-1.239227,-0.032182,-0.105265,-0.187192,-1.898209,-18.779518,6.640343,177.18329,-1.351088,0.9268851,1.0545293,-0.15492903,-0.082768835,0.13881518
20231225 03:38:24,-0.435303,0.915083,-1.093504,-0.044966,-0.121245,-0.180800,-1.670532,-19.134895,6.263893,177.61417,-1.2427117,1.0004201,0.9738125,-0.15569681,-0.10144204,0.14590727
20231225 03:38:24,-0.363989,0.889890,-1.039353,-0.063077,-0.158532,-0.173342,-1.440670,-18.740211,6.240417,177.70795,-1.1325157,0.95938873,0.89211774,-0.15972915,-0.144735,0.15803689
20231225 03:38:24,-0.125445,0.816597,-0.941808,-0.076926,-0.184100,-0.183996,-1.414158,-18.263260,5.941597,176.62886,-0.8738669,0.86761296,0.6413767,-0.18076995,-0.17557773,0.17922153
20231225 03:38:24,0.099882,0.729969,-0.819156,-0.087580,-0.213930,-0.206368,-0.833565,-19.353294,6.152504,178.19475,-0.6058042,0.76340085,0.41742712,-0.20764722,-0.20845938,0.20117661
20231225 03:38:24,0.201920,0.505934,-0.748102,-0.109952,-0.244825,-0.218087,-0.983128,-18.700912,5.840492,177.1736,-0.45464414,0.5259221,0.3090821,-0.23232047,-0.24195093,0.23192583
20231225 03:38:24,0.309095,0.358329,-0.473494,-0.137651,-0.301289,-0.213825,-0.507278,-18.663467,5.708809,178.45686,-0.15093634,0.36399448,0.07733899,-0.2489475,-0.30057976,0.25032055
20231225 03:38:24,0.722189,-0.084596,-0.270371,-0.179200,-0.424869,-0.222348,-0.877735,-18.310760,5.414154,175.85486,0.31008148,-0.12713237,-0.32174516,-0.30240044,-0.42608914,0.3047828
20231225 03:38:24,1.024035,-0.252534,-0.219843,-0.191984,-0.495182,-0.278812,-0.595505,-18.479805,5.561966,176.07573,0.55842257,-0.3425318,-0.54941344,-0.36721218,-0.49859118,0.35709268
20231225 03:38:24,1.113492,-0.309611,-0.165097,-0.194115,-0.517555,-0.324622,-0.622017,-18.956749,5.860786,175.91374,0.6601666,-0.40737706,-0.64256513,-0.40350592,-0.5239792,0.39388427
20231225 03:38:24,1.144512,-0.344372,-0.132290,-0.155762,-0.531404,-0.506796,-0.146545,-18.727417,5.448631,178.39056,0.7003094,-0.39894742,-0.70965147,-0.49103442,-0.5456215,0.4787111
20231225 03:38:24,0.817434,-0.009808,-0.021255,-0.133390,-0.529273,-0.568586,-0.155510,-18.822441,5.454742,179.08891,0.5519962,-0.022059679,-0.5735337,-0.50978905,-0.53581524,0.49650484
20231225 03:38:24,0.191631,0.433561,0.028229,-0.075861,-0.501574,-0.667664,0.304214,-18.033066,5.407791,-177.2612,0.12290731,0.44141772,-0.14590448,-0.5081924,-0.46146402,0.49176693
20231225 03:38:24,-0.653932,0.984524,0.033920,0.009367,-0.448307,-0.723062,0.753559,-18.472557,5.574913,-172.00914,-0.60206246,0.82605606,0.5646706,-0.43138316,-0.28106287,0.4169311
20231225 03:38:24,-1.525834,1.587741,0.041248,0.030674,-0.435523,-0.711343,1.017479,-18.639763,5.454491,-170.30498,-1.3402066,1.1838332,1.3104659,-0.38970536,-0.23511314,0.3826139
20231225 03:38:24,-2.268629,2.023794,0.123431,0.081810,-0.413150,-0.643161,1.168461,-18.158287,5.558525,-167.97661,-1.982961,1.2513767,1.9272605,-0.27558264,-0.1668907,0.287875
20231225 03:38:24,-2.771898,2.213187,0.137545,0.152123,-0.371602,-0.531299,1.855862,-17.724297,5.135132,-164.9103,-2.4380426,1.1687406,2.392128,-0.14234167,-0.117649406,0.15566407
20231225 03:38:24,-2.946187,2.116635,0.152445,0.308730,-0.267198,-0.333144,2.014774,-18.473549,5.721504,-164.4207,-2.5243626,1.0208709,2.4956775,0.06396736,-0.044685975,-0.06847477
20231225 03:38:24,-2.844530,1.912043,0.096054,0.366258,-0.240564,-0.270289,2.077526,-17.808411,5.678711,-164.02388,-2.408286,0.9193692,2.4302385,0.13180144,-0.03150858,-0.14907159
20231225 03:38:24,-2.480248,1.630435,-0.042926,0.512211,-0.208603,-0.124336,1.696682,-18.684578,5.598137,-166.82494,-2.0674965,0.95664346,2.1753983,0.29540673,-0.040889714,-0.34805056
20231225 03:38:24,-1.995487,1.337709,-0.399211,0.546302,-0.205407,-0.094506,2.201233,-17.420097,5.520615,-164.47308,-1.8937624,0.93700296,2.0255387,0.32502183,-0.050512135,-0.40591812
20231225 03:38:24,-1.570649,1.301636,-0.873956,0.578263,-0.200081,-0.049762,2.407158,-16.944168,6.429405,-162.83545,-1.9187793,1.1755705,1.9855981,0.34419855,-0.07074443,-0.48119852
20231225 03:38:24,-1.247488,1.639928,-1.410722,0.527126,-0.190493,0.001375,2.572460,-18.156586,6.376213,-162.66156,-2.2169337,1.7320064,2.0186071,0.3232211,-0.100463,-0.4807809
20231225 03:38:24,-1.060809,2.051910,-1.468580,0.367324,-0.251217,0.078080,2.174725,-17.897041,5.819435,-164.4354,-2.2295933,2.1827166,1.8808725,0.30238062,-0.21297067,-0.39040238
20231225 03:38:24,-0.566379,2.159285,-1.668373,0.123359,-0.289570,0.165439,1.839470,-18.681892,6.269241,-169.77104,-1.9521606,2.287631,1.4880297,0.23467907,-0.29765558,-0.21266985
20231225 03:38:24,0.241076,2.003599,-1.228949,-0.272951,-0.338576,0.193138,2.026310,-17.820335,6.348831,-174.59189,-0.7225117,1.8978351,0.6143986,-0.023214534,-0.31025523,0.094524324
20231225 03:38:24,0.942467,1.806293,-0.415245,-0.379485,-0.334315,0.172896,2.518673,-18.726700,6.412895,-173.907,0.40938124,1.6934468,-0.37691075,-0.12545371,-0.2908507,0.1737821
20231225 03:38:24,1.176921,1.600142,0.606126,-0.605339,-0.314073,0.074884,2.621876,-19.086632,5.633591,-173.0786,1.3493083,1.5610305,-1.1439071,-0.37546426,-0.269759,0.37046555
20231225 03:38:24,0.950314,1.395473,1.581014,-0.663933,-0.311942,0.057838,2.075340,-18.558479,5.325737,-174.10294,1.8270804,1.414986,-1.6918178,-0.45515776,-0.2827397,0.3903529
20231225 03:38:24,0.658251,0.651831,3.013714,-0.739573,-0.311942,0.070623,2.233101,-18.732063,5.070694,-173.49318,2.281857,0.68632525,-2.7677238,-0.5696581,-0.2930185,0.33900312
20231225 03:38:24,0.582017,0.288840,3.507328,-0.718266,-0.310877,0.091930,2.286888,-18.161949,5.034012,-173.26694,2.3633094,0.3297089,-3.2298636,-0.5640954,-0.29113638,0.27416363
20231225 03:38:24,0.595118,-0.689633,4.302465,-0.605339,-0.300223,0.132413,2.648003,-18.417793,5.054306,-172.57195,2.438662,-0.6349944,-4.163524,-0.48795077,-0.27655196,0.11782264
20231225 03:38:24,0.816646,-1.684210,4.758739,-0.287865,-0.285309,0.128151,2.417374,-18.428696,4.516838,-173.56216,2.4979396,-1.6153687,-4.864904,-0.22570038,-0.2646817,-0.039741218
20231225 03:38:24,1.153224,-2.490101,4.793771,-0.156828,-0.279982,0.092995,2.504833,-18.228577,4.102730,-173.78362,2.5020616,-2.429482,-5.1429195,-0.12968595,-0.2584951,-0.06741027
20231225 03:38:24,1.444152,-3.063259,4.466703,0.116967,-0.271459,-0.020997,2.414803,-18.986885,3.883392,-174.29198,2.6391501,-3.0389826,-4.9627943,0.094536155,-0.28359735,-0.04222859
20231225 03:38:24,1.470856,-3.209671,3.647964,0.388631,-0.245891,-0.156297,2.496250,-18.515488,4.389320,-174.13963,2.507401,-3.1987836,-4.2211666,0.29961744,-0.29467034,-0.013540521
20231225 03:38:24,1.181470,-2.933893,2.531352,0.587851,-0.212865,-0.274550,2.435688,-18.430550,4.785088,-174.04028,2.017011,-2.9202616,-3.0571234,0.40839988,-0.27429044,-0.021268189
20231225 03:38:24,0.751714,-2.464917,1.353078,0.670948,-0.199015,-0.346994,2.911922,-18.584991,4.933876,-171.4436,1.3347322,-2.4582796,-1.8314028,0.35389137,-0.22543758,-0.1201742
20231225 03:38:24,0.409460,-1.885897,0.514218,0.652837,-0.219257,-0.382150,3.044975,-18.293549,5.050148,-170.3092,0.62969166,-1.8859607,-0.90439725,0.2890715,-0.2239561,-0.123077154
20231225 03:38:24,-0.030075,-1.298164,-0.372906,0.562282,-0.236303,-0.362974,3.300316,-18.747650,5.216301,-167.96373,-0.22267976,-1.280681,0.08865926,0.16536012,-0.1944183,-0.16857436
20231225 03:38:24,-0.399598,-0.845438,-0.844366,0.415264,-0.233106,-0.285204,3.335793,-18.175690,4.911377,-165.84985,-0.81232595,-0.79530007,0.70722777,0.09060508,-0.17122109,-0.1599867
20231225 03:38:24,-0.584210,-0.593595,-1.212963,0.243743,-0.180904,-0.180800,3.644917,-18.059685,5.040848,-164.32394,-1.232222,-0.5180925,1.1012567,0.042167842,-0.14031878,-0.10222698
20231225 03:38:24,-0.518386,-0.670300,-1.167075,0.081810,-0.112722,-0.079591,3.573582,-19.011726,5.370224,-166.02417,-1.1530144,-0.61355656,1.0391269,0.005960945,-0.10016223,-0.026231278
20231225 03:38:24,-0.373831,-0.869972,-0.792972,-0.057750,-0.069043,-0.005017,3.645687,-18.443459,5.601791,-166.63696,-0.77816755,-0.84825563,0.669403,-0.041529574,-0.0714817,0.032384753
20231225 03:38:24,-0.112341,-1.093983,-0.402581,-0.147239,-0.045605,0.036531,3.566425,-18.164787,5.448845,-167.87827,-0.33565912,-1.0897839,0.19712794,-0.08517029,-0.048485387,0.06392461
20231225 03:38:24,0.133522,-1.329119,-0.059092,-0.178135,-0.010449,0.038662,3.670395,-18.908478,5.230484,-168.58452,0.05862038,-1.330266,-0.24329062,-0.1132825,-0.009070728,0.082053766
20231225 03:38:24,0.293770,-1.457225,0.208314,-0.157893,0.049211,0.006702,3.890907,-18.416924,4.932648,-167.92238,0.3367448,-1.4593594,-0.5814471,-0.11926815,0.052462056,0.10046102
20231225 03:38:24,0.407763,-1.364670,0.424651,-0.107822,0.108870,-0.036978,3.742115,-18.148323,5.181580,-168.50166,0.55617154,-1.3659523,-0.7937485,-0.10579351,0.11077283,0.11182704
20231225 03:38:24,0.346557,-1.184910,0.584436,-0.058816,0.147223,-0.070003,3.530178,-18.352974,5.192825,-168.95494,0.6226383,-1.1830223,-0.8414531,-0.08802299,0.147237,0.11240336
20231225 03:38:24,0.282362,-0.941528,0.503021,-0.038574,0.157876,-0.081722,3.935734,-17.941826,4.902077,-166.8096,0.5422466,-0.9415466,-0.71823347,-0.082562864,0.15788023,0.11277436
20231225 03:38:24,0.200602,-0.764331,0.413470,-0.036443,0.174922,-0.080657,4.030739,-18.780540,4.689835,-166.60405,0.4298797,-0.76572347,-0.56712455,-0.08204207,0.17521532,0.113337986
20231225 03:38:24,0.086218,-0.570746,0.331178,-0.051358,0.186641,-0.061481,3.784752,-18.423302,4.798042,-166.88371,0.29636443,-0.5751832,-0.39441615,-0.0829804,0.18663797,0.11043626
20231225 03:38:24,-0.033500,-0.565376,0.341205,-0.063077,0.204752,-0.012475,3.881557,-18.320053,4.658287,-166.28435,0.21708134,-0.5752112,-0.32539323,-0.060968585,0.20299184,0.0872544
20231225 03:38:24,-0.015683,-0.609735,0.374651,-0.055619,0.214340,0.004571,4.139469,-18.215973,5.457886,-165.85919,0.2480059,-0.61914295,-0.37758693,-0.04450465,0.2124492,0.07262539
20231225 03:38:24,-0.018126,-0.772262,0.423460,-0.019398,0.236712,0.036531,4.429897,-17.906227,5.038643,-164.57965,0.2794896,-0.7837923,-0.4581251,0.002115963,0.23485632,0.033705436
20231225 03:38:24,-0.076437,-0.858401,0.432065,0.031739,0.246300,0.071688,3.951859,-18.693748,4.817352,-166.41577,0.24638505,-0.87297344,-0.4245331,0.06323321,0.24502581,-0.029556606
20231225 03:38:24,0.035751,-0.960153,0.272422,0.093529,0.264411,0.101518,4.297230,-18.389549,5.202850,-165.52983,0.22352758,-0.9644191,-0.406716,0.13153714,0.2644494,-0.08516748
20231225 03:38:24,0.065722,-0.920264,0.112947,0.163842,0.270803,0.115367,4.233707,-18.670906,4.684692,-165.66125,0.1372051,-0.9206239,-0.29441977,0.19515285,0.27166083,-0.1429839
20231225 03:38:24,0.229182,-0.921171,-0.261074,0.225632,0.284653,0.114302,4.209000,-18.205887,5.056007,-165.4992,-0.008202121,-0.91620886,-0.14369135,0.2387509,0.2857836,-0.1853583
20231225 03:38:24,0.264343,-0.796893,-0.708952,0.265050,0.298502,0.104714,4.015381,-18.412384,5.335503,-166.06807,-0.32385188,-0.786604,0.14976576,0.25520858,0.30003023,-0.21276855
20231225 03:38:24,0.327229,-0.744067,-1.053237,0.257593,0.293175,0.092995,4.095028,-18.882957,5.768921,-166.38074,-0.57406074,-0.74685735,0.3166325,0.24087322,0.29289415,-0.20715472
20231225 03:38:24,0.442504,-0.701921,-1.321444,0.203260,0.266542,0.081276,4.235893,-17.920830,5.037666,-165.2148,-0.75200385,-0.74384934,0.3604117,0.19893607,0.26421535,-0.16322845
20231225 03:38:24,0.596969,-0.610052,-1.521796,0.113771,0.239908,0.063165,4.245628,-18.209587,5.592491,-166.08492,-0.83407295,-0.69020474,0.36933511,0.13018368,0.2384348,-0.090887845
20231225 03:38:24,0.661924,-0.464083,-1.484643,0.008301,0.200490,0.046120,3.794865,-18.903946,5.633331,-167.86615,-0.76076317,-0.5399343,0.33021146,0.04873813,0.20174971,-0.008320695
20231225 03:38:24,0.648625,-0.366289,-1.395391,-0.089711,0.169595,0.043989,3.803444,-18.617035,5.346748,-167.39412,-0.69311273,-0.43089828,0.29700255,-0.016167007,0.17336813,0.066238016
20231225 03:38:24,0.616557,-0.181029,-1.210411,-0.177069,0.150419,0.055708,4.112576,-18.501038,5.476227,-166.28125,-0.5544279,-0.22840469,0.23653787,-0.06436305,0.15586337,0.12573177
20231225 03:38:24,0.585056,-0.098274,-1.015009,-0.242055,0.148288,0.077015,4.193642,-17.837746,5.701675,-165.94632,-0.3902475,-0.13349846,0.1826345,-0.09596932,0.15484281,0.15832914
20231225 03:38:24,0.599650,-0.155211,-0.613887,-0.283604,0.130177,0.095126,3.830341,-18.331978,5.328407,-167.73152,-0.0447897,-0.19288518,-0.052145123,-0.1196487,0.14164384,0.16294591
20231225 03:38:24,0.769409,-0.231222,-0.323793,-0.295323,0.103544,0.092995,4.094646,-18.691071,5.488457,-167.612,0.2966666,-0.27576914,-0.36414236,-0.13559632,0.11930919,0.16333744
20231225 03:38:24,0.789559,-0.218111,-0.120856,-0.279343,0.084367,0.067427,3.775402,-18.326431,4.523674,-167.87778,0.46640462,-0.2548136,-0.50500584,-0.14736728,0.098338746,0.16262832
20231225 03:38:24,0.741191,-0.211181,0.018574,-0.244186,0.068387,0.033335,3.757473,-18.516472,4.535904,-167.81177,0.5374466,-0.23211649,-0.56252676,-0.14956547,0.07640933,0.15754291
20231225 03:38:24,0.598460,-0.156377,0.117120,-0.205834,0.042819,-0.000756,4.605206,-17.697876,4.490898,-164.2699,0.5065509,-0.16628702,-0.529356,-0.14681755,0.047028415,0.15274116
20231225 03:38:24,0.485012,-0.094663,0.081726,-0.167481,0.005531,-0.030585,4.067635,-17.074722,4.176933,-164.8555,0.40201053,-0.094118424,-0.41514075,-0.14044836,0.005346601,0.13993692
20231225 03:38:25,0.292650,0.017086,0.013138,-0.136586,-0.016841,-0.049762,4.126781,-18.293510,3.989143,-164.84782,0.21319377,0.021235969,-0.2155192,-0.13063587,-0.018108265,0.12833308
20231225 03:38:25,0.198443,0.258150,-0.034313,-0.113148,-0.041344,-0.063611,4.658611,-16.935875,4.173752,-161.64717,0.10365829,0.26382858,-0.06714221,-0.122620605,-0.04243966,0.114982456
20231225 03:38:25,0.053175,0.456367,-0.101658,-0.089711,-0.076500,-0.071069,4.595470,-17.409119,3.936073,-161.27199,-0.063136876,0.46287867,0.122528255,-0.108803675,-0.07679876,0.095324025
20231225 03:38:25,-0.167471,0.650217,-0.361046,-0.072665,-0.083958,-0.070003,4.315426,-16.489990,4.141235,-160.81685,-0.4304244,0.66333634,0.48693812,-0.093924955,-0.0829516,0.08031291
20231225 03:38:25,-0.347551,0.863894,-0.499012,-0.053489,-0.074370,-0.048696,4.737106,-16.830772,3.765762,-158.38979,-0.6861758,0.87817657,0.7620151,-0.064103626,-0.07328548,0.05283726
20231225 03:38:25,-0.451489,1.027918,-0.726257,-0.041770,-0.049867,-0.015671,4.596508,-16.083382,3.447632,-157.56459,-0.9501283,1.0574108,1.0099297,-0.03286282,-0.051167578,0.030150216
20231225 03:38:25,-0.381021,0.999435,-0.784740,-0.036443,-0.017906,0.016290,4.659645,-15.610130,3.685310,-157.1464,-0.9438071,1.038569,0.9829339,-0.007902565,-0.022014327,0.015287005
20231225 03:38:25,-0.279438,0.848855,-0.861910,-0.046031,0.011924,0.038662,4.501503,-15.244659,3.659882,-158.1224,-0.90831697,0.893424,0.91735697,2.1431036E-4,0.0060852673,0.016161347
20231225 03:38:25,-0.096520,0.610986,-0.774698,-0.064142,0.014054,0.045054,4.571415,-15.426476,3.538467,-158.8939,-0.68415844,0.6425008,0.6783129,-0.0072527565,0.009387268,0.025540521
20231225 03:38:25,0.095094,0.386934,-0.693756,-0.079057,-0.005122,0.037597,4.199150,-16.015724,3.171326,-161.53604,-0.46846512,0.40214503,0.44058985,-0.023431795,-0.0072221826,0.035174794
20231225 03:38:25,0.318915,0.226518,-0.680924,-0.082253,-0.024298,0.015224,4.699059,-17.960930,3.437241,-162.01308,-0.30133575,0.22388913,0.2330555,-0.042823363,-0.024059257,0.047375984
20231225 03:38:25,0.485662,0.255531,-0.708884,-0.076926,-0.025364,-0.025259,4.620945,-18.257912,4.125702,-163.2641,-0.21899304,0.23740517,0.1198042,-0.06959062,-0.024706801,0.06944317
20231225 03:38:25,0.478406,0.439534,-0.850980,-0.067338,0.007662,-0.072134,4.753616,-17.774590,3.961502,-161.67873,-0.35782975,0.43440038,0.2242437,-0.09840818,0.007589524,0.096950226
20231225 03:38:25,0.285703,0.703880,-0.855671,-0.058816,0.054537,-0.100898,4.506207,-18.551208,4.277679,-162.44107,-0.5144452,0.73381484,0.41216588,-0.1171318,0.056035485,0.1159306
20231225 03:38:25,0.016792,1.019595,-0.759115,-0.047097,0.085433,-0.100898,4.693050,-17.689644,4.357269,-160.25699,-0.65077466,1.0651476,0.63805205,-0.11367058,0.089215085,0.11329545
20231225 03:38:25,-0.166459,1.168671,-0.695353,-0.034313,0.098217,-0.072134,4.559998,-17.981094,4.240997,-160.34804,-0.74779946,1.2102401,0.77520454,-0.08607498,0.10152754,0.089108385
20231225 03:38:25,-0.245595,1.182510,-0.685780,-0.025790,0.101413,-0.033782,4.762581,-17.679565,3.955391,-159.33308,-0.7824355,1.2156373,0.84607464,-0.050403517,0.10197568,0.0618485
20231225 03:38:25,-0.104778,1.124071,-0.678269,-0.026855,0.090759,-0.010344,4.666538,-18.166588,4.656082,-161.32416,-0.6528586,1.1515464,0.70229924,-0.029251125,0.090037316,0.0451367
20231225 03:38:25,0.143675,1.034805,-0.737914,-0.032182,0.082237,-0.015671,4.587276,-17.887917,4.503128,-161.72252,-0.5249184,1.0590343,0.51495856,-0.03451528,0.08190663,0.05035782
20231225 03:38:25,0.275046,1.070662,-0.828950,-0.041770,0.104609,-0.038043,4.787674,-18.336472,3.864548,-160.9874,-0.5091379,1.088289,0.4702443,-0.05739215,0.104688406,0.07575219
20231225 03:38:25,0.230150,1.171657,-0.800712,-0.050293,0.136569,-0.059350,4.636688,-18.817955,3.760498,-161.23189,-0.5450411,1.2112095,0.506302,-0.08338983,0.13725938,0.10075811
20231225 03:38:25,-0.002461,1.349477,-0.624690,-0.051358,0.162138,-0.061481,4.736073,-18.156517,4.254204,-159.94894,-0.5994457,1.3915545,0.6423063,-0.092475444,0.16306067,0.10984735
20231225 03:38:25,-0.316953,1.612802,-0.453646,-0.041770,0.180249,-0.028455,4.957355,-18.048737,4.517303,-158.52788,-0.7212464,1.6204804,0.8689457,-0.067016326,0.17821802,0.08951085
20231225 03:38:25,-0.433598,1.723717,-0.353724,-0.016202,0.200490,0.016290,5.133045,-18.032280,4.250038,-157.60663,-0.7354047,1.708333,0.9451866,-0.019628078,0.19523796,0.050357394
20231225 03:38:25,-0.403299,1.769982,-0.273450,0.018955,0.221797,0.053577,5.248165,-17.930885,4.378540,-157.35345,-0.6433488,1.7511132,0.8892855,0.030787565,0.21589242,0.0069162417
20231225 03:38:25,-0.280671,1.808750,-0.336636,0.049850,0.243104,0.077015,4.884869,-18.425117,4.005272,-159.0803,-0.59702754,1.8084625,0.80380565,0.06948088,0.2380964,-0.030743796
20231225 03:38:25,-0.129828,1.933994,-0.340331,0.058373,0.251627,0.089799,4.762966,-17.871460,4.235863,-159.40826,-0.49435365,1.943855,0.6990092,0.08774641,0.24704698,-0.0442552
20231225 03:38:25,-0.001409,2.120980,-0.341618,0.020020,0.221797,0.087668,4.674736,-17.687790,4.089020,-159.76529,-0.39334688,2.1347883,0.61791193,0.070503965,0.21728237,-0.01948015
20231225 03:38:25,0.164679,2.163100,-0.397129,-0.084384,0.152550,0.077015,4.860928,-18.343872,4.937531,-160.90224,-0.29618877,2.178486,0.50362056,0.0075379014,0.14780962,0.054808997
20231225 03:38:25,0.417169,1.904814,-0.307823,-0.213291,0.111001,0.073819,4.902798,-18.235077,3.993050,-161.28651,0.022537753,1.9024042,0.22907798,-0.07318382,0.11190657,0.14661837
20231225 03:38:25,0.765728,1.459592,0.035735,-0.291061,0.153615,0.064231,4.638874,-18.067871,4.113472,-163.74454,0.5857182,1.4365548,-0.32106876,-0.14116164,0.16425304,0.2044598
20231225 03:38:25,0.917911,1.120223,0.687785,-0.309172,0.224993,0.008832,4.920727,-18.045036,3.980820,-163.01712,1.1583606,1.1150013,-0.8798318,-0.20955543,0.23124255,0.25783354
20231225 03:38:25,0.521589,0.893034,1.313801,-0.323022,0.252692,-0.068938,5.247402,-17.547104,3.817596,-160.66562,1.2347794,0.8687376,-1.0515168,-0.2948279,0.2430721,0.3261054
20231225 03:38:25,-0.193043,0.711039,1.841753,-0.335806,0.231385,-0.094506,5.078484,-18.218620,3.725777,-161.16896,0.94984746,0.5493936,-1.052959,-0.3372037,0.20573191,0.3391557
20231225 03:38:25,-0.649254,0.532394,2.425277,-0.310238,0.180249,-0.048696,5.380451,-17.255661,3.933868,-159.60822,0.86005044,0.26223013,-1.2956476,-0.29284135,0.14871956,0.27134085
20231225 03:38:25,-0.659666,0.224306,2.849763,-0.220748,0.147223,0.016290,4.902027,-17.851295,3.432098,-162.11386,1.0203228,-0.0375275,-1.8218582,-0.1839398,0.122789,0.14811757
20231225 03:38:25,-0.508638,-0.109590,3.026636,-0.091841,0.144027,0.059969,5.272488,-18.204010,3.726753,-161.61049,1.196686,-0.33978847,-2.1759496,-0.054028384,0.13081017,0.039765242
20231225 03:38:25,-0.484998,-0.473832,2.970628,0.038131,0.153615,0.103648,5.352406,-16.965057,3.110794,-160.28714,1.1362377,-0.68891287,-2.2813647,0.076963246,0.15031673,-0.05887562
20231225 03:38:25,-0.365730,-1.047350,2.782530,0.159581,0.177053,0.157981,5.131508,-17.264725,3.128159,-161.75684,1.0663035,-1.1984725,-2.4236586,0.20772617,0.18219909,-0.15996432
20231225 03:38:25,-0.136124,-1.707138,2.686890,0.273573,0.189837,0.192072,5.388649,-16.776863,3.366806,-161.0552,1.124992,-1.7954823,-2.7111185,0.32433584,0.20056103,-0.22929916
20231225 03:38:25,0.110207,-2.234605,2.510597,0.370520,0.161072,0.197399,5.194645,-16.791473,3.365829,-162.02457,1.2098166,-2.2811298,-2.83497,0.4156326,0.17381392,-0.2819221
20231225 03:38:25,0.286438,-2.705044,2.106589,0.446160,0.100347,0.179288,5.196449,-15.849518,3.438339,-161.48706,1.1534894,-2.7212431,-2.7243414,0.4792595,0.109970726,-0.3083303
20231225 03:38:25,0.487673,-3.054399,1.552401,0.487708,0.022577,0.137740,4.939693,-16.529259,3.480156,-163.21463,1.1003773,-3.055781,-2.3556254,0.5006032,0.025320267,-0.31753942
20231225 03:38:25,0.695952,-3.024635,0.805503,0.493035,-0.028560,0.075949,5.011795,-15.960983,3.711716,-162.59239,0.9764686,-3.027581,-1.8016557,0.46833757,-0.03441353,-0.3087286
20231225 03:38:25,0.757175,-2.618424,-0.028638,0.429114,-0.042409,0.007767,5.532471,-15.448441,3.549469,-159.46683,0.5886217,-2.6237814,-1.1651559,0.35460111,-0.0453796,-0.2658929
20231225 03:38:25,0.589914,-1.941265,-0.737628,0.275704,-0.056259,-0.038043,5.074551,-15.295845,3.668922,-159.37505,-0.015216827,-1.9142548,-0.3883103,0.1812452,-0.049731698,-0.17199114
20231225 03:38:25,0.348473,-1.232027,-1.057597,0.056242,-0.063716,-0.057219,5.302990,-16.035019,3.853416,-157.6679,-0.4555228,-1.153857,0.100495756,0.0010273196,-0.057574295,-0.020822302
20231225 03:38:25,0.017413,-0.496868,-1.002956,-0.184527,-0.053063,-0.059350,5.629665,-15.537086,3.690193,-154.4938,-0.6778497,-0.39995688,0.45322075,-0.16306277,-0.06262578,0.15698314
20231225 03:38:25,-0.343008,0.011555,-0.472510,-0.409315,-0.033886,-0.045500,5.275326,-15.936295,3.310814,-155.87349,-0.57416934,0.027745862,0.5501081,-0.31442392,-0.07600747,0.31175214
20231225 03:38:25,-0.774367,0.327912,0.357491,-0.575509,-0.016841,-0.007148,4.947235,-17.568092,3.682007,-159.24576,-0.38199952,0.15660708,0.35961413,-0.4282091,-0.101642706,0.3877157
20231225 03:38:25,-1.096067,0.371166,1.367217,-0.628777,0.037492,0.054642,5.027920,-16.712914,3.626984,-159.01364,-0.07401824,0.029065311,-0.21782017,-0.46470955,-0.06663729,0.36030984
20231225 03:38:25,-1.220928,0.231366,2.438385,-0.542484,0.122720,0.124955,4.981293,-18.129982,3.585052,-161.27103,0.3165866,-0.22381069,-1.1577625,-0.39200023,0.022370726,0.2406099
20231225 03:38:25,-1.329632,-0.057441,3.290779,-0.349656,0.203686,0.199530,5.247402,-17.547104,3.817596,-160.43011,0.5408616,-0.5725603,-1.9827071,-0.21694222,0.12715796,0.07830723
20231225 03:38:25,-1.294997,-0.408741,3.823724,-0.095037,0.213274,0.277300,4.602634,-18.256065,3.857460,-163.49283,0.7341678,-0.88952875,-2.6761413,0.03306336,0.17501442,-0.13320926
20231225 03:38:25,-0.977033,-0.716162,3.691621,0.180888,0.166399,0.340156,4.675121,-17.879684,4.369499,-163.325,1.0067905,-1.0596647,-2.7693079,0.31322378,0.16353698,-0.33117044
20231225 03:38:25,-0.441826,-0.882183,2.851234,0.414199,0.150419,0.374247,4.780510,-17.489532,3.943169,-163.17186,1.1532423,-1.022655,-2.307178,0.54245096,0.1618697,-0.48537087
20231225 03:38:25,0.199057,-1.108647,1.743151,0.569740,0.132308,0.368920,4.666153,-17.974709,4.375610,-164.7652,1.1493713,-1.1173779,-1.7451235,0.6777886,0.13516317,-0.58551073
20231225 03:38:25,0.785516,-1.334107,0.706838,0.646445,0.120589,0.317783,4.305042,-17.718864,4.355316,-166.55438,1.005987,-1.3436394,-1.2694361,0.71170866,0.101687476,-0.61254776
20231225 03:38:25,1.182455,-1.562684,-0.135996,0.666686,0.108870,0.227229,4.199654,-18.109024,4.781654,-168.03336,0.7347088,-1.6587863,-0.8900501,0.6681887,0.06912091,-0.57353795
20231225 03:38:25,1.235360,-1.687890,-0.841774,0.661360,0.112066,0.108975,4.050854,-17.840424,5.030579,-168.22607,0.22916704,-1.8321716,-0.4792564,0.5691731,0.068480246,-0.5080072
20231225 03:38:25,1.050675,-1.652944,-1.383850,0.623007,0.129112,0.001375,4.244858,-17.825813,5.031555,-166.35718,-0.3145979,-1.7496096,-0.078184426,0.4435483,0.10372508,-0.42334056
20231225 03:38:25,0.683160,-1.556971,-1.747884,0.572936,0.129112,-0.082788,4.405575,-17.633095,5.690430,-163.91888,-0.8103221,-1.5011994,0.32301784,0.31729612,0.14293022,-0.35014176
20231225 03:38:25,0.166256,-1.373092,-1.923424,0.506884,0.111001,-0.132859,4.493034,-17.432976,5.276321,-160.7742,-1.2236469,-1.1572104,0.7446853,0.21195081,0.1650651,-0.28600252
20231225 03:38:25,-0.163993,-1.139171,-2.057810,0.434441,0.070518,-0.148839,4.580883,-17.424744,5.142693,-158.33534,-1.509966,-0.8055194,1.0437622,0.13971338,0.14700963,-0.2426165
20231225 03:38:25,-0.452577,-0.917233,-2.261907,0.346017,0.027904,-0.137120,4.945332,-17.506180,6.357368,-155.39496,-1.834433,-0.46316016,1.3451269,0.08868577,0.11072031,-0.20135537
20231225 03:38:25,-0.663284,-0.725383,-2.338403,0.234155,-0.012579,-0.096637,4.609695,-18.099129,6.526703,-156.4847,-2.0504103,-0.25933522,1.6045846,0.060757153,0.048350774,-0.14432478
20231225 03:38:25,-0.597490,-0.671980,-2.418764,0.092464,-0.057324,-0.047631,4.502769,-17.721733,5.831154,-156.68483,-2.1135232,-0.20708364,1.5984727,0.026991688,-0.030905668,-0.064354986
20231225 03:38:25,-0.411229,-0.704701,-2.399714,-0.066273,-0.088219,-0.008213,4.847755,-17.225639,5.936172,-156.73584,-2.0435328,-0.3395561,1.442104,-0.0299709,-0.09273246,0.03861251
20231225 03:38:25,-0.088736,-0.812988,-2.150828,-0.219683,-0.103134,0.008832,4.759914,-17.233879,6.069809,-159.76035,-1.6617658,-0.60272944,1.1339054,-0.11752202,-0.119881324,0.14672524
20231225 03:38:25,0.169267,-0.994879,-1.628664,-0.341133,-0.108461,-0.002886,4.987587,-17.589264,5.693359,-161.05136,-1.0427808,-0.89566386,0.68634593,-0.22391754,-0.12459778,0.23237288
20231225 03:38:25,0.274739,-1.159225,-0.993606,-0.409315,-0.106330,-0.042304,4.530048,-17.628571,6.093285,-163.72658,-0.44694248,-1.1056926,0.25992882,-0.31881475,-0.12147823,0.2928598
20231225 03:38:25,0.268316,-1.180510,-0.323195,-0.422099,-0.108461,-0.094506,4.951347,-17.777458,5.437340,-162.50594,0.039604634,-1.1519701,-0.21131113,-0.37583154,-0.124435626,0.3204941
