Timestamp,linacce_x,linacce_y,linacce_z,gyro_x,gyro_y,gyro_z,X-magnetometer,Y-magnetometer,Z-magnetometer,Yaw, worldXAccel,worldYAccel,worldZAccel,worldXgyro,worldYgyro,worldZgyro
20231225 03:39:22,-1.723678,-0.030809,3.771576,-0.054554,0.124850,0.145197,-4.938942,32.972446,-27.849327,13.5851,-0.073856115,-0.5893181,4.0565853,-0.001234591,0.10323091,0.124319956
20231225 03:39:22,-0.756225,-0.403015,2.799037,0.286357,0.033231,0.168635,-5.115402,33.339764,-28.143013,10.946565,0.5376633,-0.60359156,2.8743804,0.32913616,0.052952796,0.020059302
20231225 03:39:22,0.146520,-0.546294,1.513064,0.527126,-0.044540,0.120694,-4.691151,33.557175,-27.885033,7.592152,0.86540806,-0.5676311,1.307615,0.5209177,-0.029888287,-0.14355639
20231225 03:39:22,0.817090,-0.567259,0.332455,0.673079,-0.114853,0.034401,-4.974800,32.592369,-27.824883,5.324151,0.8557823,-0.58522105,-0.11965433,0.5823233,-0.13456471,-0.3265457
20231225 03:39:22,1.256033,-0.393898,-0.769421,0.733803,-0.158532,-0.060415,-5.211826,33.044628,-27.722786,3.637696,0.49325535,-0.52099085,-1.3599441,0.5314048,-0.21193717,-0.49265397
20231225 03:39:22,1.519399,-0.072641,-1.591237,0.716758,-0.181970,-0.158427,-5.381123,32.564999,-28.095085,2.2813315,0.0072522163,-0.3546027,-2.197124,0.39503533,-0.26128352,-0.6033751
20231225 03:39:23,1.501976,0.168009,-2.290729,0.628334,-0.164924,-0.254309,-4.959446,32.224216,-28.470558,2.0982785,-0.6689981,-0.151611,-2.652556,0.21879318,-0.23549454,-0.63279045
20231225 03:39:23,1.267288,0.336052,-2.680698,0.479185,-0.119114,-0.331014,-5.434914,31.994881,-28.058403,5.1101985,-1.2145262,0.16746432,-2.709013,0.05079305,-0.15184444,-0.57204443
20231225 03:39:23,0.890514,0.380203,-2.633168,0.321514,-0.080762,-0.389608,-5.789253,31.595665,-28.437782,8.875542,-1.4075196,0.45076537,-2.41897,-0.08076979,-0.066840515,-0.48709717
20231225 03:39:23,0.450919,0.345922,-2.300127,0.187280,-0.074370,-0.434352,-5.840851,31.775623,-28.048134,11.74369,-1.375608,0.5455365,-1.9252301,-0.17917798,-0.028798591,-0.41809958
20231225 03:39:23,0.041154,0.355204,-1.845902,0.102052,-0.099938,-0.474836,-5.955593,31.482334,-27.896141,14.296649,-1.2889789,0.56812274,-1.366101,-0.24432382,-0.0318454,-0.38191187
20231225 03:39:23,-0.353343,0.461403,-1.469012,0.061569,-0.137225,-0.504665,-5.780289,31.690681,-28.443901,15.749214,-1.3125346,0.610354,-0.8719733,-0.27538118,-0.05147881,-0.36744595
20231225 03:39:23,-0.779190,0.591452,-1.202539,0.061569,-0.162794,-0.507861,-5.859165,31.777473,-28.316368,17.936604,-1.465441,0.63465875,-0.44691718,-0.25701854,-0.05288627,-0.36011487
20231225 03:39:23,-1.163630,0.795014,-0.991903,0.069026,-0.209669,-0.479097,-5.983257,31.581055,-28.438759,19.729422,-1.6615686,0.702407,-0.08628762,-0.2161918,-0.08334594,-0.32522547
20231225 03:39:23,-1.349329,0.887248,-1.078157,0.080745,-0.234172,-0.441810,-6.476650,31.161678,-28.014381,21.271349,-1.8803725,0.76215875,-0.027398348,-0.1767278,-0.10181784,-0.292068
20231225 03:39:23,-1.458729,1.205188,-1.046414,0.091399,-0.240564,-0.400261,-6.952892,31.316116,-28.163170,22.44958,-2.0184188,1.0339886,0.027451932,-0.14371568,-0.10674163,-0.26090848
20231225 03:39:23,-1.523605,1.464020,-1.083888,0.079680,-0.264002,-0.351255,-6.388809,31.169903,-28.148003,21.718359,-2.1492686,1.2859007,0.033046484,-0.11907473,-0.14323795,-0.21548524
20231225 03:39:23,-1.436977,1.457927,-1.143929,0.039196,-0.271459,-0.312903,-7.146896,31.301506,-28.164146,22.291954,-2.1215372,1.3167942,-0.08964676,-0.1202947,-0.17284596,-0.1579745
20231225 03:39:23,-1.401520,1.562631,-1.120646,-0.017267,-0.302354,-0.278812,-6.928951,31.234875,-29.095421,21.855526,-2.1008806,1.425498,-0.11244923,-0.13147017,-0.22467612,-0.08882081
20231225 03:39:23,-1.303543,1.515994,-1.010304,-0.079057,-0.322596,-0.240459,-7.147278,31.493397,-28.444618,21.298658,-1.9311235,1.3846385,-0.11283004,-0.14819065,-0.27137187,-0.018302083
20231225 03:39:23,-1.228020,1.413576,-0.972719,-0.115279,-0.315138,-0.210629,-7.226158,31.580189,-28.317085,21.20456,-1.8267493,1.2934132,-0.13085961,-0.15595406,-0.27978396,0.023528099
20231225 03:39:23,-1.246896,1.335244,-0.896456,-0.144043,-0.295962,-0.175473,-7.165974,31.687134,-28.993324,20.65154,-1.7629828,1.1963995,-0.07962924,-0.16035454,-0.27790686,0.05674111
20231225 03:39:23,-1.175483,1.151171,-0.730741,-0.153632,-0.285309,-0.147774,-7.799206,31.631378,-28.326134,20.685013,-1.5531737,1.007512,-0.0040485263,-0.15668651,-0.27799442,0.07665398
20231225 03:39:23,-1.035819,1.025102,-0.577569,-0.147239,-0.294897,-0.142447,-7.728905,31.257679,-28.167076,19.846767,-1.3152913,0.8964217,0.027250975,-0.15264705,-0.28922784,0.07301678
20231225 03:39:23,-0.914226,0.958324,-0.515138,-0.128063,-0.310877,-0.154166,-7.746838,31.067638,-28.154839,19.20592,-1.1625084,0.85516125,0.013406396,-0.14776897,-0.30079973,0.05324045
20231225 03:39:23,-0.771707,0.957149,-0.556909,-0.107822,-0.318334,-0.175473,-8.214874,31.700878,-28.870674,18.996845,-1.074704,0.89329463,-0.09942967,-0.14929967,-0.30272698,0.026611492
20231225 03:39:23,-0.657106,1.005054,-0.695551,-0.099299,-0.290635,-0.195714,-8.329613,31.407593,-28.718712,18.86806,-1.0840926,0.9820726,-0.27450547,-0.16279544,-0.27225897,5.954653E-4
20231225 03:39:23,-0.694560,1.033442,-0.591788,-0.101429,-0.255479,-0.214891,-8.805084,31.178253,-28.306557,19.51033,-1.0435011,0.98672587,-0.21173733,-0.18127885,-0.23652987,-0.019997954
20231225 03:39:23,-0.781407,1.016439,-0.248996,-0.089711,-0.250152,-0.225544,-8.460484,31.866230,-28.482018,19.03476,-0.890073,0.9038612,0.07505132,-0.1775453,-0.22843283,-0.042046025
20231225 03:39:23,-0.870235,0.947906,-0.018386,-0.055619,-0.274655,-0.221283,-8.566254,31.667961,-28.336143,19.364105,-0.81134844,0.7864335,0.2959676,-0.14331283,-0.24778561,-0.05566211
20231225 03:39:23,-0.894425,0.790737,0.036497,-0.021528,-0.315138,-0.215956,-9.015598,32.107460,-28.503288,19.553276,-0.7778601,0.6255423,0.37857577,-0.10832347,-0.28414804,-0.06313451
20231225 03:39:23,-0.771395,0.693628,-0.017238,0.002975,-0.351360,-0.218087,-9.272739,31.619602,-28.741936,19.31555,-0.69205195,0.57177365,0.29317975,-0.09116996,-0.31929746,-0.071592845
20231225 03:39:23,-0.571789,0.657168,-0.146253,0.023216,-0.359883,-0.239394,-9.491066,31.878120,-28.091133,18.862772,-0.60331315,0.5892512,0.09226675,-0.09357962,-0.32620767,-0.09984471
20231225 03:39:23,-0.500117,0.774796,-0.221113,0.047719,-0.325792,-0.280942,-9.509766,32.071861,-28.639854,18.872675,-0.6072258,0.7234769,-0.022993043,-0.10807365,-0.28375113,-0.15281463
20231225 03:39:23,-0.590276,1.036163,-0.102606,0.074353,-0.275720,-0.326752,-9.994583,31.939392,-28.502052,20.107733,-0.63924253,0.94722325,0.038996324,-0.11868368,-0.22107619,-0.20955426
20231225 03:39:23,-0.891851,1.316652,0.050850,0.106313,-0.244825,-0.371497,-9.984848,31.650635,-27.947212,22.032343,-0.83695525,1.1167074,0.26205322,-0.12351331,-0.16151747,-0.2590515
20231225 03:39:23,-1.347846,1.763948,0.131949,0.137209,-0.194754,-0.368301,-9.994583,31.939392,-28.502052,23.655254,-1.2430938,1.3893309,0.47607213,-0.100385845,-0.08889322,-0.28390518
20231225 03:39:23,-1.641678,2.037811,0.124041,0.172365,-0.115918,-0.332079,-10.418831,31.721989,-28.760017,25.111338,-1.5368403,1.5554644,0.576335,-0.06727199,-0.0038168728,-0.301298
20231225 03:39:23,-1.890878,2.238583,0.408636,0.222436,0.005531,-0.291596,-10.294746,31.918404,-28.637642,25.565054,-1.6187632,1.5830442,0.8369497,-0.023740083,0.12125626,-0.3459751
20231225 03:39:23,-2.260787,2.671223,0.937592,0.263985,0.031100,-0.238328,-10.621803,31.612358,-28.754890,26.767899,-1.6969018,1.7283783,1.2413943,0.039017394,0.15009016,-0.34519556
20231225 03:39:23,-2.563899,2.944365,1.371522,0.275704,-0.048801,-0.164819,-10.973564,31.771324,-28.500832,27.434221,-1.7337959,1.7765691,1.609348,0.1132698,0.0640436,-0.2763158
20231225 03:39:23,-2.594127,3.108369,1.447543,0.250135,-0.189427,-0.065742,-10.745506,31.224052,-28.596809,27.208422,-1.7197108,1.9289452,1.6474857,0.1870761,-0.09941389,-0.14759062
20231225 03:39:23,-2.274795,2.920218,1.293160,0.185149,-0.302354,0.035466,-10.994064,31.023098,-29.122032,26.179502,-1.4248081,2.0080955,1.4622144,0.22108245,-0.254317,-0.0060476176
20231225 03:39:23,-1.661378,2.849562,1.088943,0.093529,-0.370536,0.126021,-11.221741,31.378487,-28.745583,23.870285,-0.92753696,2.3031192,1.044805,0.21385464,-0.36481234,0.12503694
20231225 03:39:23,-1.049094,2.692874,0.869514,-0.037509,-0.358818,0.212314,-11.134285,31.578606,-29.159691,21.201796,-0.49186593,2.4155214,0.6054716,0.16009673,-0.38353676,0.26313952
20231225 03:39:23,-0.525135,2.209908,0.948575,-0.204768,-0.301289,0.285823,-11.452370,31.367580,-29.283043,19.604881,0.048423827,2.0707512,0.45996627,0.05629827,-0.34038246,0.4136442
20231225 03:39:23,-0.158531,1.460988,1.157120,-0.352852,-0.163859,0.360397,-11.319321,31.659019,-29.166786,17.21609,0.504075,1.4072424,0.6355061,-0.06420921,-0.19464213,0.525537
20231225 03:39:23,0.319600,0.506082,1.913261,-0.419969,0.008728,0.421122,-11.628067,31.351120,-29.015785,16.413172,1.22637,0.49180785,1.3069371,-0.15387668,-0.0032679797,0.5575193
20231225 03:39:23,0.477379,-0.579106,2.601518,-0.414642,0.170660,0.420057,-11.784027,32.466667,-28.688240,16.42181,1.467682,-0.58581936,2.2550082,-0.21604364,0.16436937,0.48950297
20231225 03:39:23,0.461382,-1.591280,3.276164,-0.331545,0.279326,0.357201,-11.767899,31.714737,-28.772972,17.862152,1.4603902,-1.6061713,3.2892044,-0.20787045,0.2676597,0.3440142
20231225 03:39:23,0.205926,-2.374550,3.697712,-0.144043,0.327267,0.252797,-11.177307,32.045475,-29.056633,18.355383,1.1756546,-2.4105737,4.063015,-0.07907939,0.3160777,0.16916916
20231225 03:39:23,-0.166544,-2.765658,3.972988,0.149993,0.323005,0.143066,-11.274879,32.326004,-29.477821,19.904142,0.85318947,-2.853989,4.5789943,0.17306764,0.33155835,-0.012396514
20231225 03:39:23,-0.611722,-2.651275,3.567378,0.490904,0.302764,0.062100,-11.512939,31.452518,-28.887276,22.109898,0.52770877,-2.8471568,4.2983446,0.47609708,0.36223507,-0.19433463
20231225 03:39:23,-1.034580,-2.092074,2.665654,0.798790,0.289979,0.046120,-11.204582,31.952305,-29.318748,22.526907,0.15156668,-2.4153552,3.4148955,0.73903066,0.4186796,-0.35932627
20231225 03:39:23,-1.234490,-1.437545,1.489670,1.034232,0.326201,0.128151,-10.791481,31.324615,-29.407646,22.926392,-0.26651525,-1.7915195,2.2848973,0.93981147,0.504083,-0.49105957
20231225 03:39:23,-1.115147,-0.886806,0.477552,1.129048,0.319809,0.271973,-11.736412,30.594666,-29.503365,23.917332,-0.5586078,-1.121088,1.2831461,1.046758,0.48017207,-0.53187317
20231225 03:39:23,-0.686239,-0.619640,-0.362630,1.078976,0.265476,0.443494,-10.890480,30.471291,-29.620872,20.77312,-0.69966805,-0.6627792,0.32823923,1.0934998,0.35515076,-0.41129345
20231225 03:39:23,-0.014039,-0.514643,-1.057196,0.910651,0.163203,0.597970,-11.165939,29.985283,-30.127785,16.67935,-0.6918682,-0.48112434,-0.6401021,1.0730612,0.17683208,-0.20673934
20231225 03:39:23,0.884939,-0.680330,-1.388818,0.652837,0.032165,0.707701,-10.750267,29.915783,-29.583214,9.97614,-0.31260288,-0.8469225,-1.5213187,0.95812625,0.03056901,0.07847923
20231225 03:39:23,1.710798,-0.863151,-1.533745,0.340690,-0.099938,0.738596,-11.368523,29.683765,-29.842171,5.5792665,0.1881029,-1.3673621,-2.2101882,0.712909,-0.04553975,0.34055704
20231225 03:39:23,2.284344,-1.064215,-1.567339,0.010432,-0.213930,0.725812,-11.174133,29.506485,-29.560707,1.8324594,0.6625521,-1.8753878,-2.6188116,0.3941825,-0.06497301,0.56802076
20231225 03:39:23,2.697396,-1.442878,-1.370573,-0.293192,-0.273590,0.662956,-11.367485,31.009506,-30.330605,0.54797745,1.2337619,-2.3744893,-2.6370974,0.055523247,-0.049110144,0.71536046
20231225 03:39:23,2.845353,-1.772288,-0.823712,-0.499870,-0.283178,0.559617,-11.093834,30.553551,-29.896202,0.94513285,1.7661414,-2.6140687,-2.1255329,-0.21027085,-0.033837266,0.73962975
20231225 03:39:23,2.791986,-1.900483,-0.166622,-0.568052,-0.224584,0.456279,-11.631020,30.984821,-29.929710,3.4237807,2.1558633,-2.5558527,-1.3289255,-0.33365616,-0.009576049,0.67735827
20231225 03:39:23,2.595255,-2.014999,0.510931,-0.527569,-0.136160,0.350809,-11.340591,31.294563,-30.348946,4.685403,2.3470926,-2.4817212,-0.49220854,-0.34767365,0.0238202,0.55067
20231225 03:39:23,2.333099,-2.011293,1.019043,-0.411446,-0.062651,0.248536,-11.604897,31.653660,-30.508980,6.7558937,2.3637788,-2.32269,0.17635137,-0.28012136,0.038207106,0.40113005
20231225 03:39:23,2.008826,-1.922913,1.265816,-0.300650,-0.029625,0.140936,-11.198189,31.489136,-29.958321,8.162821,2.210947,-2.113767,0.54607725,-0.21708956,0.026774356,0.25627494
20231225 03:39:23,1.635574,-1.658015,1.410646,-0.226075,-0.062651,0.045054,-11.728210,31.073460,-30.070427,10.692238,1.9935281,-1.7509152,0.7993718,-0.18667951,-0.034267884,0.1498268
20231225 03:39:23,1.186926,-1.372094,1.303197,-0.188788,-0.091415,-0.023128,-11.877777,31.725834,-30.382439,12.770755,1.6106718,-1.4002283,0.83681047,-0.18075225,-0.07993452,0.08617647
20231225 03:39:23,0.684085,-1.096340,1.238558,-0.169612,-0.077566,-0.049762,-11.613091,31.174862,-29.941933,14.333292,1.188275,-1.095515,0.94574195,-0.17328347,-0.07394552,0.058032535
20231225 03:39:23,0.334012,-0.927802,1.371442,-0.147239,-0.005122,-0.043370,-11.992134,31.240658,-29.949989,16.353756,0.9521588,-0.9307424,1.2260795,-0.1500512,-0.0060144886,0.035038415
20231225 03:39:23,0.074183,-0.931923,1.668649,-0.069469,0.111001,-0.020997,-11.710281,31.263496,-30.082649,17.215076,0.83896005,-0.95655394,1.6320103,-0.073260576,0.10901618,-0.015581775
20231225 03:39:23,-0.230201,-1.110987,2.217370,0.087137,0.203686,0.008832,-11.515900,31.086220,-29.801216,18.379442,0.7591772,-1.1834768,2.3210816,0.07704351,0.2081576,-0.087488964
20231225 03:39:23,-0.496230,-1.314673,2.531174,0.285292,0.226059,0.049316,-11.445984,30.904411,-29.922615,19.185526,0.5958381,-1.4309437,2.785914,0.273742,0.24521056,-0.13935235
20231225 03:39:23,-0.575250,-1.514483,2.523994,0.497296,0.162138,0.084472,-11.312927,31.195847,-29.806343,18.916231,0.5388427,-1.6379036,2.8661757,0.48356226,0.19665617,-0.17552617
20231225 03:39:23,-0.453920,-1.550445,1.957728,0.677340,0.066256,0.104714,-11.658684,31.083542,-30.472298,18.490072,0.5072895,-1.6338278,2.305789,0.65130717,0.10431464,-0.2305429
20231225 03:39:23,-0.130173,-1.419444,0.864985,0.794528,0.022577,0.115367,-11.598114,30.998600,-30.868065,16.702368,0.35790858,-1.4380561,1.1277165,0.7405132,0.044374872,-0.31888548
20231225 03:39:23,0.206585,-1.200548,-0.130150,0.840338,0.022577,0.117498,-11.721436,30.418404,-30.429512,15.488895,0.092276625,-1.20017,0.037175015,0.74987245,0.023523334,-0.40537724
20231225 03:39:23,0.377982,-0.983825,-0.965220,0.810508,0.054537,0.113237,-11.863457,30.031944,-30.539680,14.525057,-0.3611563,-1.0060847,-0.7673482,0.68796206,0.04126769,-0.45763937
20231225 03:39:23,0.504039,-0.765906,-1.513736,0.705039,0.093955,0.113237,-11.723625,29.668327,-30.782478,13.578695,-0.7152388,-0.82562304,-1.2775663,0.5872699,0.07566891,-0.42821807
20231225 03:39:23,0.606112,-0.641971,-1.919677,0.546302,0.134439,0.114302,-11.829399,29.470055,-30.636620,12.815548,-0.99945486,-0.75957805,-1.631746,0.4657985,0.114793316,-0.3392424
20231225 03:39:23,0.701303,-0.536671,-1.930781,0.360932,0.168530,0.111106,-11.344200,29.410633,-30.493950,11.469918,-0.93998045,-0.69401395,-1.7402613,0.33964533,0.15362129,-0.20899126
20231225 03:39:23,0.762915,-0.578113,-1.778693,0.190476,0.183445,0.094060,-11.513496,28.931004,-30.866249,11.893114,-0.74687964,-0.7189662,-1.6858997,0.21128103,0.17745447,-0.09634901
20231225 03:39:23,0.692386,-0.671996,-1.474596,0.057307,0.189837,0.077015,-11.398750,29.224297,-31.018211,12.751466,-0.51686597,-0.7524405,-1.4169167,0.10125191,0.19011422,-0.014559723
20231225 03:39:23,0.523010,-0.737352,-1.114544,-0.036443,0.191967,0.069557,-11.186432,29.237057,-30.748985,14.146987,-0.3444479,-0.7558714,-1.0227509,0.020210192,0.1931507,0.039402984
20231225 03:39:23,0.361739,-0.736742,-0.729549,-0.066273,0.191967,0.067427,-11.583405,29.112816,-30.744820,15.7198305,-0.18475771,-0.73104924,-0.61777246,-0.008777212,0.1912453,0.05228993
20231225 03:39:23,0.177576,-0.664014,-0.443465,-0.098233,0.211144,0.069557,-11.186432,29.237057,-30.748985,16.478523,-0.12622124,-0.64737886,-0.2958171,-0.037358254,0.20634797,0.06735703
20231225 03:39:23,-0.055450,-0.536077,-0.220582,-0.070534,0.248431,0.097256,-11.292595,29.230675,-30.883614,17.997389,-0.15688583,-0.5277212,4.898608E-4,-0.00527123,0.23934421,0.056562398
20231225 03:39:23,-0.174811,-0.417006,-0.073487,-0.054554,0.261215,0.112171,-11.134834,29.057095,-31.138634,18.145073,-0.1612829,-0.42294797,0.15608062,0.014102608,0.2512922,0.05379202
20231225 03:39:23,-0.258071,-0.317476,0.056314,-0.015136,0.279326,0.150524,-11.168503,29.427094,-30.761208,18.269794,-0.1484428,-0.33624396,0.28129426,0.06778724,0.26935512,0.052560013
20231225 03:39:23,-0.208577,-0.230782,0.063998,0.020020,0.288914,0.193138,-10.931480,28.974834,-30.863319,17.297981,-0.1123648,-0.24342114,0.23212603,0.12512791,0.28142324,0.0638992
20231225 03:39:23,-0.025122,-0.271296,-0.000239,0.051981,0.285718,0.227229,-10.843254,28.791180,-30.716469,16.095541,-0.013064702,-0.2718203,0.07375154,0.17821616,0.28162515,0.07388104
20231225 03:39:23,0.270469,-0.323482,-0.174872,0.064765,0.278261,0.240013,-10.782684,28.706234,-31.112236,14.19426,0.09338515,-0.32503957,-0.24314663,0.20494096,0.2787701,0.08415422
20231225 03:39:23,0.602264,-0.352281,-0.319885,0.060503,0.260150,0.233621,-10.552437,28.909035,-30.855247,12.040955,0.2363952,-0.38431156,-0.57449925,0.20645589,0.26504564,0.09246228
20231225 03:39:23,0.829971,-0.313475,-0.474605,0.047719,0.249496,0.204856,-10.756180,29.183182,-31.411049,11.072664,0.2899087,-0.380657,-0.85483104,0.18357286,0.25614947,0.08262556
20231225 03:39:23,0.910290,-0.192442,-0.565235,0.036000,0.250562,0.165439,-10.616730,29.011452,-31.934334,10.723627,0.2713815,-0.26943946,-1.0008678,0.15147829,0.25626084,0.060206752
20231225 03:39:23,0.842720,0.039275,-0.696963,0.022151,0.271869,0.128151,-10.076973,29.138374,-31.267403,11.347391,0.116558105,-0.010883624,-1.0833337,0.11411715,0.27497506,0.03607341
20231225 03:39:23,0.585735,0.328888,-0.647350,0.016824,0.299568,0.097256,-10.473557,28.822247,-30.982765,14.197762,-0.051772594,0.33493218,-0.9142998,0.07961225,0.29916155,0.0026177466
20231225 03:39:23,0.182492,0.668173,-0.542852,0.028543,0.327267,0.089799,-10.270973,29.123764,-31.268379,16.026495,-0.29054365,0.6980299,-0.62283635,0.07007824,0.32399523,-0.023297507
20231225 03:39:23,0.033514,0.740250,-0.456823,0.036000,0.333659,0.096191,-10.016022,28.861542,-31.382698,17.359104,-0.35509768,0.77129656,-0.48181337,0.07010122,0.3276914,-0.03121271
20231225 03:39:23,-0.286495,0.831996,-0.364883,0.062634,0.333659,0.145197,-10.113213,28.950184,-31.523415,17.64438,-0.5213268,0.8337187,-0.21554501,0.122243136,0.32565397,-0.018643849
20231225 03:39:23,-0.163923,0.795787,-0.343956,0.073288,0.316613,0.179288,-10.103867,28.853317,-31.249062,16.623024,-0.40350908,0.8035016,-0.27403864,0.16124779,0.30971202,0.0047380254
20231225 03:39:23,0.088661,0.730013,-0.322462,0.079680,0.279326,0.198464,-9.919594,29.156677,-31.802910,14.284697,-0.18430954,0.7388784,-0.40839672,0.19107102,0.276477,0.029606469
20231225 03:39:23,0.458520,0.630554,-0.458761,0.074353,0.230320,0.198464,-9.540936,29.282768,-32.075310,11.527426,-0.0010901093,0.61713254,-0.72977173,0.1976359,0.23213224,0.049883075
20231225 03:39:23,0.644202,0.561969,-0.562879,0.067961,0.212209,0.191007,-9.531200,28.994011,-31.520485,9.753233,0.057082355,0.50461054,-0.91445976,0.19582254,0.2178832,0.054428935
20231225 03:39:23,1.043457,0.492842,-0.979261,0.016824,0.202621,0.146262,-9.788342,28.506153,-31.759148,8.696465,0.01974392,0.35019314,-1.4735205,0.1335393,0.21114226,0.064409
20231225 03:39:24,1.133173,0.404627,-1.068772,-0.042835,0.217536,0.102583,-9.663872,28.510685,-31.356285,8.543113,0.027797997,0.24590915,-1.590637,0.061245807,0.22692508,0.078513116
20231225 03:39:24,1.123684,0.292745,-0.910963,-0.106756,0.214340,0.047185,-9.425426,29.192280,-31.666328,8.75253,0.1558044,0.16969383,-1.4639258,-0.02813343,0.22276945,0.08606744
20231225 03:39:24,0.954720,0.271866,-0.647440,-0.132325,0.207948,0.020551,-9.452324,28.907223,-31.648003,10.652587,0.23821467,0.22336982,-1.1583889,-0.07405202,0.21239099,0.07949227
20231225 03:39:24,0.723190,0.254427,-0.370729,-0.182396,0.167464,-0.034847,-9.485996,29.277222,-31.270592,12.060633,0.27312508,0.2460427,-0.79877865,-0.15529871,0.16862054,0.075018816
20231225 03:39:24,0.505856,0.291490,-0.184797,-0.190919,0.148288,-0.043370,-9.470638,28.909073,-31.916252,13.248016,0.24236098,0.30078155,-0.5245011,-0.17153022,0.14617927,0.07362652
20231225 03:39:24,0.374830,0.307836,-0.069573,-0.202638,0.090759,-0.028455,-9.628395,29.082649,-31.661201,13.554164,0.22525893,0.31456104,-0.35613292,-0.17000504,0.08800309,0.100666486
20231225 03:39:24,0.491692,0.254858,-0.091137,-0.187723,0.077975,-0.015671,-9.028839,29.508408,-31.950966,11.705765,0.30173382,0.25422287,-0.4357418,-0.14906615,0.07816652,0.10363283
20231225 03:39:24,0.585325,0.268631,-0.115868,-0.160024,0.096086,-0.035912,-9.091595,28.843269,-31.908180,11.275412,0.35309234,0.26019606,-0.52005655,-0.1406123,0.09760812,0.069319665
20231225 03:39:24,0.714441,0.460077,-0.175129,-0.128063,0.129112,-0.084918,-9.231037,29.014999,-31.384895,11.819639,0.39605334,0.45420098,-0.6869439,-0.15032038,0.12941334,0.009919655
20231225 03:39:24,0.561429,0.772038,-0.243701,-0.103560,0.151484,-0.144578,-9.398533,29.477341,-31.684669,13.466727,0.2002672,0.7880962,-0.69314355,-0.17897217,0.15233524,-0.04821169
20231225 03:39:24,0.405782,0.997777,-0.272506,-0.093972,0.183445,-0.189322,-8.914097,29.801693,-32.102943,15.37899,0.0049045086,1.0375013,-0.6552438,-0.2151333,0.18974249,-0.08648215
20231225 03:39:24,-0.274798,1.723016,-0.283372,-0.090776,0.200490,-0.210629,-9.010910,29.698444,-31.963203,18.793152,-0.6127124,1.703625,-0.33191383,-0.24206585,0.21453127,-0.10440739
20231225 03:39:24,-0.846051,2.181070,-0.306207,-0.097168,0.222862,-0.180800,-8.949959,29.421616,-32.078484,21.99444,-1.1833804,2.0368216,-0.06424402,-0.23851173,0.2345672,-0.08785382
20231225 03:39:24,-1.313969,2.539887,-0.190276,-0.080123,0.258019,-0.096637,-9.038189,29.605274,-32.225334,23.698893,-1.5422515,2.2327597,0.23147541,-0.1787754,0.25354928,-0.06294
20231225 03:39:24,-1.463381,2.697030,-0.053638,-0.036443,0.308090,0.017355,-8.816906,29.713055,-31.962227,23.30947,-1.5705384,2.3284442,0.3918362,-0.077584796,0.28494862,-0.040870328
20231225 03:39:24,-1.273743,2.713036,0.016868,0.023216,0.382665,0.134543,-9.056499,29.607121,-32.493568,21.7474,-1.3181607,2.4285462,0.30316567,0.04438565,0.35087422,-0.028538793
20231225 03:39:24,-0.964634,2.601682,0.433587,0.089268,0.401841,0.219771,-8.702164,30.006344,-32.114189,19.114159,-0.69531685,2.3703752,0.42307317,0.16334604,0.37472174,-0.015691191
20231225 03:39:24,-0.486697,2.516632,0.477743,0.116967,0.354966,0.265581,-8.704350,29.256264,-32.467171,17.083054,-0.23088756,2.3991048,0.17297706,0.2375183,0.33518577,0.013031378
20231225 03:39:24,-0.275719,2.407661,0.429632,0.090333,0.278261,0.282627,-8.598194,29.262646,-32.332558,15.167129,-0.033584386,2.348975,0.06365088,0.25075155,0.2626243,0.06498428
20231225 03:39:24,0.319541,1.962595,0.126861,0.029608,0.230320,0.296476,-8.325310,29.190460,-32.459099,11.806292,0.27540353,1.964957,-0.42296207,0.23418963,0.22555684,0.14274776
20231225 03:39:24,0.935683,1.536002,0.076622,-0.035378,0.229255,0.294346,-8.210186,29.291862,-32.330605,9.896996,0.7165797,1.5252572,-0.81104004,0.19327208,0.23350315,0.1973409
20231225 03:39:24,1.374659,1.175296,0.215955,-0.114214,0.243104,0.242144,-8.131687,29.396961,-32.738594,6.853855,1.2103289,1.0994519,-0.897757,0.098803364,0.26346228,0.23164476
20231225 03:39:24,1.427307,0.860213,0.514760,-0.204768,0.220732,0.160112,-8.070736,29.120136,-32.853889,7.8518896,1.4461303,0.81380314,-0.64716446,-0.03946001,0.23618832,0.23164907
20231225 03:39:24,1.145521,0.732698,0.919003,-0.251644,0.188771,0.116433,-8.386261,29.467293,-32.343803,10.169555,1.4769254,0.727131,-0.134148,-0.11724141,0.1936765,0.22315662
20231225 03:39:24,0.805844,0.801398,1.347195,-0.335806,0.093955,0.046120,-7.883511,29.789799,-32.493828,10.923511,1.464153,0.7978929,0.40762383,-0.23374361,0.08936375,0.23182866
20231225 03:39:24,0.664293,0.852386,1.501310,-0.441275,-0.094611,0.003506,-8.077900,29.967079,-32.775276,12.041313,1.424959,0.83706445,0.61249703,-0.34436536,-0.10761829,0.2887689
20231225 03:39:24,0.456897,0.838567,1.733330,-0.488151,-0.190493,0.017355,-8.156399,29.861980,-32.367287,12.625793,1.3593545,0.8087776,0.95811564,-0.3812836,-0.20866548,0.33241877
20231225 03:39:24,0.426221,0.105396,1.863474,-0.494543,-0.195819,0.035466,-7.944080,29.874741,-32.098061,12.095255,1.3512836,0.083457604,1.2958926,-0.3959482,-0.21082735,0.32763886
20231225 03:39:24,0.428372,-0.523154,2.276647,-0.458321,-0.139356,0.032270,-8.135895,30.610207,-31.746056,12.590445,1.4333794,-0.5471695,1.878938,-0.3900783,-0.15474857,0.26527798
20231225 03:39:24,0.241663,-1.383080,2.850196,-0.364570,-0.071174,0.021617,-8.569496,30.489674,-32.278404,14.611995,1.3134835,-1.4299272,2.7938194,-0.32879335,-0.09144757,0.1717568
20231225 03:39:24,0.111230,-1.826948,3.138982,-0.289996,-0.036017,0.019486,-8.323891,30.324318,-32.667076,15.314256,1.1888425,-1.8917181,3.2742548,-0.26622558,-0.056801945,0.12293149
20231225 03:39:24,-0.293438,-2.933039,3.594091,0.013628,0.017250,0.033335,-8.120537,30.242058,-32.391747,16.617357,0.6518992,-3.0266519,4.2253585,0.020916296,0.017644115,0.02287959
20231225 03:39:24,-0.303000,-3.221848,3.781444,0.233090,-0.080762,0.023747,-8.402771,30.411110,-32.539543,17.21602,0.57348394,-3.308568,4.524459,0.234305,-0.060339004,-0.004450444
20231225 03:39:24,-0.178609,-3.827460,3.524110,0.448290,-0.210734,-0.018867,-7.820377,30.263050,-32.256157,15.688087,0.5747303,-3.8797555,4.3754787,0.43864995,-0.17875198,-0.050711818
20231225 03:39:24,0.385822,-3.772241,2.034247,0.604896,-0.303419,-0.082788,-8.614704,30.206459,-32.528297,13.43667,0.9433598,-3.7744668,2.6397283,0.5601286,-0.29503167,-0.17558071
20231225 03:39:24,0.579744,-3.603508,1.367458,0.646445,-0.326857,-0.124336,-8.641216,29.729515,-32.229500,12.513536,0.9861287,-3.6037922,1.8162279,0.5716476,-0.32865205,-0.25610003
20231225 03:39:24,0.803759,-3.066308,0.108564,0.632595,-0.340707,-0.217021,-8.253208,29.758732,-32.227547,10.682279,0.74929607,-3.0775516,0.26280907,0.47480923,-0.35211077,-0.40805465
20231225 03:39:24,0.686666,-2.117826,-1.227153,0.416330,-0.241629,-0.364039,-8.749561,28.973057,-32.717079,12.713489,-0.1501069,-2.0827363,-0.99656916,0.11963618,-0.22680467,-0.49105105
20231225 03:39:24,0.511160,-1.734778,-1.400007,0.310860,-0.183035,-0.408784,-8.916668,29.243504,-32.736397,16.55927,-0.3802321,-1.5711458,-0.9767207,-0.012476951,-0.12307733,-0.46014053
20231225 03:39:24,-0.031761,-1.031621,-1.319407,0.080745,-0.069043,-0.481228,-8.722664,29.258114,-32.735420,18.899704,-0.7464246,-0.8665189,-0.675327,-0.23753864,-0.0012100376,-0.38193756
20231225 03:39:24,-0.912971,-0.508747,-0.693234,-0.130194,0.002335,-0.498273,-9.252689,28.842438,-32.847527,25.936941,-1.0226135,-0.57939667,0.2377766,-0.3905973,0.067289,-0.2770259
20231225 03:39:24,-1.845090,-0.118231,0.115407,-0.278277,0.030034,-0.437548,-9.137951,29.135723,-32.999504,26.69278,-1.4016435,-0.65343785,1.2146934,-0.47283715,0.039806947,-0.16235162
20231225 03:39:24,-2.802704,0.091418,1.304219,-0.353917,0.035361,-0.220217,-8.916668,29.243504,-32.736397,28.077599,-1.7331724,-1.0956299,2.44211,-0.4149956,-0.03658669,0.012716055
20231225 03:39:24,-2.984813,0.105414,1.619477,-0.335806,0.031100,-0.126467,-9.065464,29.512104,-32.487465,28.119205,-1.772749,-1.2066395,2.7430406,-0.35327518,-0.055519883,0.06940442
20231225 03:39:24,-3.058798,0.046017,2.054881,-0.255905,0.033231,0.075949,-8.844566,29.811771,-32.504829,26.923151,-1.6727457,-1.2904913,3.112755,-0.1907245,-0.06293399,0.17521997
20231225 03:39:24,-2.728555,-0.174925,2.191533,-0.122736,0.048145,0.264516,-8.704735,29.448154,-32.747643,25.303686,-1.3040342,-1.2717661,3.141849,0.010719985,-0.030573402,0.2506518
20231225 03:39:24,-2.071637,-0.414370,2.006669,0.025347,0.077975,0.408338,-9.207485,29.125645,-32.597633,23.436459,-0.7694013,-1.1176548,2.7735028,0.20950297,0.028606556,0.28480327
20231225 03:39:24,-0.797069,-0.937209,1.294118,0.149993,0.114197,0.483978,-9.083778,29.513954,-32.755714,19.828247,0.035862148,-1.1601703,1.727838,0.35911056,0.092159495,0.28447163
20231225 03:39:24,-0.395060,-1.110573,1.033650,0.242678,0.141896,0.486108,-9.013863,29.332146,-32.877113,16.38838,0.23885739,-1.1900734,1.3244002,0.44804043,0.13744116,0.24346173
20231225 03:39:24,0.257077,-1.355758,0.572636,0.308730,0.170660,0.431776,-9.004131,29.043388,-32.322289,13.869526,0.5413849,-1.3576065,0.6225723,0.48359448,0.17212331,0.16515166
20231225 03:39:24,0.636256,-1.513407,0.202815,0.376912,0.183445,0.279431,-8.661713,28.981289,-32.850700,11.604212,0.64685756,-1.5141668,0.09538928,0.4675974,0.18313858,0.0043650568
20231225 03:39:24,0.834763,-1.618152,-0.117791,0.393957,0.179183,0.221902,-8.697575,28.601212,-32.826256,11.5961,0.6242301,-1.6195911,-0.29312408,0.4508673,0.17879787,-0.070121944
20231225 03:39:24,0.757126,-1.590462,-0.514195,0.421656,0.169595,0.117498,-7.991089,28.649567,-32.420464,12.165403,0.327454,-1.5580533,-0.5899557,0.40372676,0.1786397,-0.19099009
20231225 03:39:24,0.524819,-1.379784,-0.905639,0.431245,0.162138,0.046120,-8.220951,28.254875,-32.396996,13.298402,-0.11219579,-1.3258923,-0.76840824,0.35941398,0.17823565,-0.2644847
20231225 03:39:24,0.334790,-1.142989,-1.312553,0.417395,0.155746,0.001375,-8.267315,28.547337,-33.488319,14.933982,-0.5444762,-1.0295334,-0.95017666,0.3029239,0.18499646,-0.30628726
20231225 03:39:24,0.070465,-0.794798,-1.547654,0.375847,0.130177,-0.023128,-8.257965,28.450466,-33.213951,17.287899,-0.9556776,-0.6100487,-0.92023,0.23291934,0.17123862,-0.3107287
20231225 03:39:24,-0.150793,-0.424415,-1.847594,0.251201,0.119524,-0.001821,-8.109173,28.181870,-33.462883,19.448822,-1.3926547,-0.15047169,-0.94295037,0.14594726,0.15131739,-0.21615183
20231225 03:39:24,-0.346542,-0.096706,-1.881850,0.196868,0.104609,0.013094,-8.405991,28.335285,-32.404076,20.316193,-1.6041163,0.16543233,-0.8645114,0.12075949,0.12769917,-0.16504961
20231225 03:39:24,-0.402229,0.068124,-1.920693,0.067961,0.070518,0.051446,-8.390633,27.967140,-33.049751,20.364883,-1.701118,0.32675397,-0.8740804,0.070654705,0.06988047,-0.03647571
20231225 03:39:24,-0.333657,0.060290,-1.815239,-0.073730,0.037492,0.088734,-8.348385,27.884048,-33.713768,18.691343,-1.566154,0.26386932,-0.9029833,0.011420984,0.01614917,0.10295734
20231225 03:39:24,-0.107232,-0.045287,-1.417997,-0.244186,-0.021102,0.094060,-8.011589,27.901340,-33.041695,15.109873,-1.0513299,0.04964565,-0.90409946,-0.10968205,-0.046213355,0.23865622
20231225 03:39:24,0.115515,-0.211626,-0.895507,-0.282539,-0.042409,0.080211,-8.179470,28.555565,-33.621941,13.967403,-0.48953927,-0.15921275,-0.692135,-0.15810269,-0.06263339,0.25216576
20231225 03:39:24,0.245522,-0.292967,-0.367372,-0.323022,-0.078631,0.040793,-7.842678,28.572857,-32.949883,13.394021,-0.03284228,-0.26226056,-0.37959173,-0.21847194,-0.09782605,0.2513337
20231225 03:39:24,0.255734,-0.364258,0.150032,-0.324087,-0.110591,-0.003952,-8.081509,28.083149,-32.920280,13.634637,0.3082347,-0.3564003,0.026049457,-0.25396416,-0.12673111,0.21638632
20231225 03:39:24,0.268872,-0.351874,0.527849,-0.294257,-0.141487,-0.042304,-7.878922,28.384666,-33.205879,13.437058,0.5432631,-0.35761273,0.31880543,-0.2560955,-0.15532416,0.16825435
20231225 03:39:24,0.207895,-0.277304,0.756240,-0.238859,-0.158532,-0.067873,-8.706539,28.506191,-32.820137,14.643044,0.6226157,-0.29575402,0.52684605,-0.22664052,-0.16878562,0.11956639
20231225 03:39:24,0.145288,-0.321921,0.916165,-0.119540,-0.144683,-0.077461,-8.167934,29.208771,-32.994621,14.01591,0.6562522,-0.35116497,0.7091694,-0.13607809,-0.14826201,0.03561619
20231225 03:39:24,0.119755,-0.398538,1.119066,-0.071600,-0.142552,-0.078526,-7.710007,29.056183,-33.114067,13.550502,0.73857254,-0.43680817,0.91361207,-0.09713689,-0.14332214,0.0043028668
20231225 03:39:24,0.121058,-0.536969,1.198374,0.034935,-0.148944,-0.084918,-8.221722,28.638657,-32.957939,14.119124,0.7822733,-0.57472956,1.0107837,-0.0119791925,-0.14329217,-0.057660557
20231225 03:39:24,0.121894,-0.577743,1.078501,0.135078,-0.183035,-0.097702,-8.336845,28.537258,-33.086433,14.263341,0.72830164,-0.6117124,0.91369873,0.06413653,-0.17091869,-0.11694652
20231225 03:39:24,0.139916,-0.567977,0.756645,0.210718,-0.238433,-0.120075,-8.697956,28.793098,-33.106728,14.590219,0.58278394,-0.5903172,0.6234094,0.109219514,-0.22069128,-0.1698201
20231225 03:39:24,0.183862,-0.402705,0.207448,0.242678,-0.288505,-0.144578,-8.567093,28.334457,-33.343437,14.080956,0.28999096,-0.40119755,0.11441725,0.107714914,-0.26987317,-0.20819114
20231225 03:39:24,0.295351,-0.215382,-0.375084,0.230959,-0.316204,-0.179734,-8.715889,28.603062,-33.094505,13.490031,-0.027066007,-0.19180247,-0.431391,0.06020976,-0.3013726,-0.23027472
20231225 03:39:24,0.398005,-0.069544,-0.857301,0.179822,-0.324726,-0.243655,-8.788376,28.226677,-33.606529,13.704643,-0.3265988,-0.02175077,-0.85692275,-0.034310922,-0.30819097,-0.24021998
20231225 03:39:24,0.184344,0.224206,-1.169879,0.097791,-0.300223,-0.318229,-9.016052,28.582069,-33.230080,16.358397,-0.75600153,0.33140242,-0.932842,-0.14432338,-0.26538303,-0.22073293
20231225 03:39:24,-0.232143,0.626746,-1.204685,0.012563,-0.245891,-0.370432,-8.925636,29.148483,-32.730278,19.58564,-1.1258732,0.75679976,-0.72242635,-0.22809085,-0.18727478,-0.18687096
20231225 03:39:24,-0.834487,0.945859,-0.911742,-0.047097,-0.163859,-0.366170,-9.130791,28.288780,-33.078117,24.780073,-1.409915,0.9258129,-0.24734426,-0.24892113,-0.086888604,-0.1489281
20231225 03:39:24,-1.460106,1.140434,-0.490271,-0.044966,-0.140421,-0.343798,-9.361423,28.277866,-33.615578,26.551937,-1.6284335,0.84571314,0.36459243,-0.22787887,-0.0614139,-0.14095336
20231225 03:39:24,-2.083669,1.152300,-0.152989,0.011497,-0.110591,-0.206368,-9.546463,28.358280,-33.622673,28.542553,-1.9171035,0.5327044,0.91873074,-0.093504086,-0.046340946,-0.10183403
20231225 03:39:24,-2.344154,0.902481,0.102363,0.039196,-0.119114,-0.140316,-9.007088,28.677086,-33.236198,27.208574,-1.9206433,0.17398062,1.2967578,-0.027859747,-0.06675162,-0.07877871
20231225 03:39:24,-2.199987,0.684250,0.161886,0.097791,-0.162794,0.001375,-9.464622,28.637791,-32.836266,25.41024,-1.6816678,0.112030365,1.351651,0.10723625,-0.13268721,-0.011845585
20231225 03:39:24,-1.623936,0.423182,-0.100649,0.137209,-0.218192,0.128151,-9.131172,28.480671,-33.358589,23.536343,-1.3502185,0.09714249,0.8899994,0.22407562,-0.20548941,0.060678788
20231225 03:39:24,-0.876509,0.049897,-0.516327,0.137209,-0.267198,0.205922,-9.722534,28.533710,-33.635872,19.809,-0.99415445,2.3624301E-4,0.22884578,0.26939517,-0.27007732,0.11472412
20231225 03:39:24,-0.023625,-0.238461,-0.986758,0.103117,-0.299158,0.221902,-9.861595,28.513554,-32.832115,15.004725,-0.70303833,-0.20355776,-0.61543095,0.24012709,-0.3030155,0.13420394
20231225 03:39:24,0.667519,-0.358114,-1.446675,0.043458,-0.284243,0.183549,-9.828312,28.335442,-33.490013,10.39863,-0.6065626,-0.4350118,-1.4174968,0.15258966,-0.27855703,0.12743342
20231225 03:39:24,1.075346,-0.218904,-1.627200,-0.036443,-0.235237,0.100452,-9.783104,28.618649,-33.240105,7.6760345,-0.48513037,-0.43336284,-1.8622191,0.029598668,-0.22269629,0.1153001
20231225 03:39:24,1.232960,-0.023255,-1.551628,-0.131259,-0.224584,-0.028455,-9.949444,28.505322,-32.698479,7.992134,-0.31649822,-0.24694587,-1.943239,-0.12792233,-0.21555187,0.09931441
20231225 03:39:24,1.090954,0.165458,-1.401059,-0.223944,-0.211800,-0.172277,-9.995033,28.414001,-33.228859,10.53925,-0.28211272,0.070145845,-1.7563413,-0.28665167,-0.2101391,0.07603666
20231225 03:39:24,0.581292,0.509098,-1.002914,-0.289996,-0.207538,-0.289465,-10.065338,28.787701,-33.387932,14.390513,-0.34667897,0.54843605,-1.1750245,-0.40406913,-0.20695949,0.055073112
20231225 03:39:24,-0.006347,0.906946,-0.504191,-0.331545,-0.230976,-0.367235,-10.144211,28.874489,-33.260399,18.223785,-0.44571787,0.94408447,-0.5229383,-0.47218436,-0.22487293,0.04806252
20231225 03:39:24,-0.590456,1.153978,-0.188471,-0.352852,-0.254413,-0.396000,-10.338600,29.051769,-33.541847,21.247017,-0.70244825,1.0796291,7.7950954E-4,-0.4903306,-0.2436456,0.055406123
20231225 03:39:24,-1.056717,1.349013,0.134995,-0.342198,-0.262936,-0.376824,-10.267921,28.486187,-33.102318,22.692072,-0.8750477,1.1282485,0.4485703,-0.46138516,-0.2531541,0.060306013
20231225 03:39:24,-1.322920,1.463163,0.537956,-0.292127,-0.251217,-0.327818,-10.362541,29.133011,-32.609596,23.294752,-0.8480428,1.107006,0.8386904,-0.39052486,-0.24196574,0.051090553
20231225 03:39:24,-1.414081,1.507843,0.761937,-0.207964,-0.220322,-0.261766,-10.329254,28.954903,-33.267494,23.355583,-0.8028815,1.094669,1.0150955,-0.2897185,-0.20971024,0.023722991
20231225 03:39:24,-1.467965,1.322937,1.039260,-0.091841,-0.168120,-0.199976,-10.231293,28.482487,-32.565834,23.159115,-0.66282976,0.8777112,1.2803969,-0.17099625,-0.15014438,-0.030569457
20231225 03:39:24,-1.395303,1.167356,1.132416,0.040262,-0.135094,-0.144578,-10.874641,28.907372,-32.733925,23.27212,-0.5340822,0.7513159,1.3342489,-0.04013189,-0.10530795,-0.086909294
20231225 03:39:24,-1.209097,0.923238,0.996961,0.159581,-0.119114,-0.111552,-10.919846,28.624161,-32.983849,22.827438,-0.4235434,0.5872196,1.2047033,0.06810225,-0.07741492,-0.14563267
20231225 03:39:24,-1.019199,0.764401,0.711210,0.251201,-0.106330,-0.096637,-10.435028,28.756634,-33.121635,21.463572,-0.41836256,0.52129954,0.9500828,0.14318895,-0.057275455,-0.20121045
20231225 03:39:24,-0.841620,0.575488,0.484296,0.330037,-0.104199,-0.097702,-10.550537,28.847122,-33.530602,21.051992,-0.39426777,0.40016884,0.7337762,0.19989038,-0.047778934,-0.2555291
20231225 03:39:24,-0.728479,0.464973,0.217544,0.412068,-0.093546,-0.108356,-10.771049,28.355564,-33.232765,21.167873,-0.45187837,0.3433575,0.5116706,0.24637508,-0.028778655,-0.32482758
20231225 03:39:25,-0.618634,0.523294,-0.081402,0.516472,-0.078631,-0.136055,-10.673859,28.266926,-33.092049,21.296741,-0.55634344,0.4498278,0.25360826,0.27710572,0.0025007762,-0.4366168
20231225 03:39:25,-0.621879,0.729558,-0.477745,0.533518,-0.076500,-0.145643,-10.516098,28.093346,-33.347084,21.327803,-0.86294615,0.70558196,-0.021769702,0.2650627,0.008461978,-0.46610624
20231225 03:39:25,-0.654642,1.157796,-0.985475,0.529257,-0.072239,-0.158427,-10.834190,27.882317,-33.470451,23.192476,-1.35316,1.2093363,-0.32971466,0.21822639,0.024591995,-0.48805916
20231225 03:39:25,-0.772699,1.878631,-1.419161,0.438702,-0.090350,-0.146708,-10.701134,28.173756,-33.354179,24.415018,-1.9478924,2.0029554,-0.5113212,0.1441514,-1.0557659E-4,-0.41789764
20231225 03:39:25,-0.884037,2.532101,-1.780432,0.235221,-0.145748,-0.106225,-10.419289,28.196594,-33.486839,25.432465,-2.4980915,2.7190034,-0.6744282,0.0705206,-0.083118275,-0.21729107
20231225 03:39:25,-0.864443,2.839591,-1.706766,-0.073730,-0.258675,-0.051892,-10.834190,27.882317,-33.470451,23.849638,-2.3994257,2.9900978,-0.6777208,-0.033653967,-0.2512139,0.092713386
20231225 03:39:25,-0.471670,2.875656,-1.413530,-0.434883,-0.351360,-0.001821,-10.806908,27.975487,-33.208305,19.726658,-1.7296376,2.9678378,-0.90809166,-0.20932396,-0.3798376,0.42505714
20231225 03:39:25,0.028885,2.482787,-0.546447,-0.725724,-0.373732,0.009898,-11.114616,28.993332,-33.545753,15.909021,-0.47474208,2.498933,-0.80891865,-0.45405474,-0.3938266,0.62297213
20231225 03:39:25,0.346093,1.846829,0.825836,-0.867415,-0.319400,-0.017801,-11.368805,28.871777,-32.870491,15.631616,0.7787788,1.8400108,-0.005907774,-0.65735835,-0.33347577,0.6257415
20231225 03:39:25,0.135985,1.102992,2.253927,-0.827997,-0.227780,-0.035912,-11.360611,29.350574,-33.437553,17.162374,1.3411391,1.0380584,1.43703,-0.69852364,-0.26397684,0.491746
20231225 03:39:25,-0.255466,0.384805,3.404352,-0.669260,-0.167055,-0.015671,-11.288895,30.110729,-33.486458,18.424675,1.4045197,0.22915816,2.843001,-0.58640355,-0.21412069,0.35735917
20231225 03:39:25,-0.563205,-0.339676,4.063930,-0.455125,-0.155336,0.045054,-11.209625,29.832050,-33.333504,19.265955,1.2394413,-0.54602814,3.8086123,-0.38579807,-0.19441259,0.27984703
20231225 03:39:25,-0.558213,-0.880638,4.250628,-0.219683,-0.170251,0.106844,-11.518372,29.524151,-33.182518,19.141125,1.2131023,-1.0377822,4.1672964,-0.1536481,-0.18737838,0.23166496
20231225 03:39:25,-0.118282,-1.179936,3.954183,0.011497,-0.172382,0.147328,-11.269806,29.725101,-32.657280,16.740692,1.4814063,-1.2218044,3.8306072,0.07106101,-0.17353627,0.1702886
20231225 03:39:25,0.445949,-1.392873,3.309213,0.206456,-0.140421,0.146262,-11.448456,29.342342,-33.303917,14.629772,1.7559174,-1.3679149,3.0534978,0.24690177,-0.14364117,0.076086655
20231225 03:39:25,0.925799,-1.477671,2.555164,0.331102,-0.109526,0.106844,-11.085152,29.836582,-32.930641,11.975037,1.8884878,-1.455893,2.1348035,0.34148845,-0.12675925,-0.027594343
20231225 03:39:25,1.158792,-1.577245,2.001205,0.390761,-0.082892,0.043989,-11.439110,29.245472,-33.029564,11.850573,1.8679333,-1.5838633,1.5266771,0.36627284,-0.10998919,-0.12039672
20231225 03:39:25,1.200444,-1.550628,1.564003,0.401415,-0.090350,-0.013540,-11.131783,28.419518,-32.972588,11.286953,1.7275804,-1.5731938,1.0572977,0.34421226,-0.12181224,-0.18480794
20231225 03:39:25,1.148432,-1.473616,1.204451,0.368389,-0.131898,-0.049762,-11.359840,28.966793,-32.876610,11.420398,1.5290592,-1.5027021,0.7081498,0.2895117,-0.16130923,-0.20252846
20231225 03:39:25,1.087820,-1.391023,0.807135,0.301272,-0.184100,-0.055088,-11.538483,28.584034,-33.523262,11.4671335,1.2837744,-1.4311353,0.35766643,0.2220901,-0.20850654,-0.1695916
20231225 03:39:25,1.104915,-1.475249,0.537591,0.208587,-0.223518,-0.041239,-11.166222,29.173294,-33.156105,10.546421,1.1495402,-1.5328889,0.11522499,0.14655334,-0.24173072,-0.107136905
20231225 03:39:25,1.151709,-1.623710,0.432287,0.105248,-0.258675,-0.026324,-11.669350,29.042671,-33.286552,10.527464,1.1213877,-1.7010276,0.049580127,0.06361615,-0.2687307,-0.034074295
20231225 03:39:25,1.281477,-1.953159,0.335085,0.011497,-0.264002,-0.029520,-11.616600,28.287048,-32.834785,10.004008,1.1692308,-2.064314,-0.005603045,-0.019600635,-0.26486298,0.009490382
20231225 03:39:25,1.426392,-2.323094,0.498147,-0.038574,-0.229910,-0.064677,-11.899216,28.647987,-33.263069,9.703892,1.3548045,-2.453437,0.18065211,-0.07673165,-0.22651039,-0.0059051327
20231225 03:39:25,1.483145,-2.483941,0.740116,-0.024724,-0.186231,-0.126467,-11.907417,28.169189,-32.696022,10.09147,1.5067513,-2.6108596,0.463444,-0.084225096,-0.1884125,-0.073991075
20231225 03:39:25,1.439778,-2.615005,0.935417,0.033870,-0.142552,-0.209564,-12.190033,28.530128,-33.124306,11.011394,1.5540501,-2.7163787,0.72672164,-0.05912163,-0.15628716,-0.17719609
20231225 03:39:25,1.280449,-2.528013,0.981387,0.108444,-0.122310,-0.295857,-11.493279,28.867245,-33.273354,11.078203,1.4603955,-2.5930223,0.7809401,-0.029838316,-0.14493063,-0.28774148
20231225 03:39:25,1.053984,-2.291182,0.807279,0.177692,-0.112722,-0.375758,-11.925728,28.171040,-32.964272,13.020788,1.2262348,-2.327225,0.6681438,-0.019542381,-0.13756204,-0.38425368
20231225 03:39:25,0.709510,-1.820538,0.453731,0.233090,-0.091415,-0.439679,-11.811371,28.656216,-33.396721,14.819357,0.8230013,-1.8272928,0.38911676,-0.03705135,-0.09991124,-0.46413097
20231225 03:39:25,0.232479,-1.203785,0.022841,0.244809,-0.066912,-0.458855,-11.882706,27.704170,-33.067329,17.877531,0.23382139,-1.1942953,0.17358463,-0.07720266,-0.044567805,-0.47981822
20231225 03:39:25,-0.217370,-0.645543,-0.328195,0.195803,-0.051997,-0.422634,-11.731728,28.185646,-32.963295,19.949898,-0.33176357,-0.637249,0.07136428,-0.11503616,-0.0067481026,-0.41691452
20231225 03:39:25,-0.575051,-0.306379,-0.419281,0.103117,-0.061585,-0.355517,-11.916763,28.266060,-32.970390,22.066757,-0.6746134,-0.3267461,0.17310211,-0.14763659,-0.013028916,-0.29839855
20231225 03:39:25,-0.803349,-0.121411,-0.478001,0.012563,-0.062651,-0.269223,-11.822136,27.619228,-33.463097,23.18451,-0.8985807,-0.17004475,0.2406317,-0.15907338,-0.028043296,-0.17494549
20231225 03:39:25,-0.868496,-0.131771,-0.441458,-0.044966,-0.007253,-0.177603,-11.759003,28.092476,-33.225410,23.247528,-0.9268218,-0.19862723,0.29379702,-0.1465367,0.0077781063,-0.0929175
20231225 03:39:25,-0.965496,-0.236890,-0.065953,-0.067338,0.057734,-0.094506,-12.031883,28.164661,-33.098885,23.409142,-0.77294993,-0.36086798,0.6232953,-0.11677205,0.057790685,-0.0445666
20231225 03:39:25,-0.922095,-0.462946,0.286438,-0.057750,0.091825,-0.030585,-11.953384,28.269760,-33.506874,22.920088,-0.5327528,-0.60929406,0.9022899,-0.0734812,0.085741594,-0.017603088
20231225 03:39:25,-0.820577,-0.627794,0.445521,-0.014071,0.126981,0.020551,-11.750420,28.379387,-33.512001,21.986027,-0.36599988,-0.75995165,1.0014281,-0.010810496,0.12204338,-0.015276831
20231225 03:39:25,-0.714703,-0.660207,0.722665,0.072222,0.154680,0.059969,-11.255867,28.223099,-33.094978,20.502611,-0.13383651,-0.78132236,1.1533477,0.08210863,0.15665135,-0.039366566
20231225 03:39:25,-0.488189,-0.725818,0.605668,0.169169,0.168530,0.088734,-11.528755,28.295277,-32.968437,19.826645,-0.0033649802,-0.8002861,0.94775164,0.17871088,0.17662643,-0.07684443
20231225 03:39:25,-0.279080,-0.614222,0.296803,0.244809,0.185575,0.107910,-11.680504,28.197575,-33.633415,18.985973,-0.0047897995,-0.64661497,0.55035776,0.24917269,0.19575211,-0.11814067
20231225 03:39:25,-0.073643,-0.433580,-0.160287,0.268246,0.180249,0.129217,-11.221809,27.661209,-33.191917,17.496422,-0.1424979,-0.42967132,0.03101661,0.2800254,0.18733558,-0.1228062
20231225 03:39:25,0.137101,-0.316434,-0.617705,0.248005,0.188771,0.149458,-11.328354,27.846718,-33.607002,16.226791,-0.3144907,-0.2976355,-0.46194273,0.27848798,0.19145319,-0.10341586
20231225 03:39:25,0.314723,-0.123132,-0.884925,0.178757,0.167464,0.175027,-11.327972,27.654831,-33.326546,14.895306,-0.4028183,-0.119740896,-0.80488175,0.24968882,0.16747363,-0.03722986
20231225 03:39:25,0.558510,-0.115970,-1.077437,0.083941,0.169595,0.188876,-11.355247,27.561657,-33.588661,13.029217,-0.37633976,-0.1596689,-1.1167237,0.19780757,0.1723202,0.042764567
20231225 03:39:25,0.767958,-0.068311,-1.050957,-0.013006,0.181314,0.188876,-11.027809,27.675816,-33.190941,11.850835,-0.20372504,-0.14153156,-1.2601261,0.13169101,0.1891676,0.11342274
20231225 03:39:25,0.824854,-0.064153,-0.824908,-0.089711,0.204752,0.184615,-10.870049,27.502239,-33.445992,11.8981285,0.032793522,-0.124389075,-1.1435342,0.068463,0.21440569,0.16226746
20231225 03:39:25,0.759529,-0.188878,-0.386096,-0.124867,0.227124,0.175027,-10.649147,27.801907,-33.463356,12.592683,0.32268402,-0.21404994,-0.7487129,0.02330362,0.23338237,0.1733413
20231225 03:39:25,0.586593,-0.345010,0.114773,-0.112083,0.236712,0.157981,-10.552338,27.905155,-33.603096,13.662919,0.5321547,-0.3470194,-0.20830669,0.009441726,0.23766173,0.14587685
20231225 03:39:25,0.422742,-0.469002,0.529884,-0.051358,0.227124,0.139870,-10.339638,27.726028,-33.053413,14.661924,0.6602024,-0.46847633,0.25561944,0.03949672,0.22479312,0.09310772
20231225 03:39:25,0.269271,-0.487955,0.707099,0.046654,0.210078,0.121759,-10.215935,28.114330,-33.211494,15.154354,0.64933056,-0.49519733,0.4877286,0.10562337,0.20864402,0.02222459
20231225 03:39:25,0.156568,-0.411355,0.486209,0.142535,0.203686,0.117498,-9.969948,27.757095,-33.319710,15.638749,0.43877834,-0.42061737,0.35577345,0.17762631,0.20548731,-0.043141373
20231225 03:39:25,0.029855,-0.236350,0.154669,0.207521,0.209013,0.129217,-10.076103,27.750713,-33.454308,16.23582,0.13448171,-0.2412117,0.14222498,0.23175505,0.21343157,-0.086784296
20231225 03:39:25,0.036347,0.010756,-0.275521,0.225632,0.200490,0.154785,-10.112732,27.754414,-33.990791,16.290842,-0.16412657,0.026498655,-0.21847722,0.2596919,0.20404713,-0.08914973
20231225 03:39:25,0.069092,0.168191,-0.694646,0.201129,0.194098,0.179288,-10.103386,27.657543,-33.716454,15.962006,-0.46010423,0.20369297,-0.54440033,0.25920206,0.19433405,-0.06267684
20231225 03:39:25,0.121465,0.232136,-1.059947,0.134012,0.214340,0.201660,-9.555428,28.263260,-33.616554,14.8321295,-0.7090081,0.28215608,-0.8210984,0.22977881,0.21056724,-0.004396841
20231225 03:39:25,0.202938,0.212634,-1.146749,0.053046,0.252692,0.215510,-9.494476,27.986431,-33.731865,14.228861,-0.7076541,0.25664145,-0.94123375,0.18540104,0.246931,0.061128877
20231225 03:39:25,0.214550,0.158206,-0.922698,-0.010875,0.286783,0.218706,-9.433525,27.709599,-33.847145,14.456268,-0.5139229,0.19900979,-0.8061172,0.13805154,0.27811277,0.10586469
20231225 03:39:25,0.089890,0.086453,-0.599748,-0.041770,0.317679,0.218706,-9.442875,27.806469,-34.121513,15.799495,-0.35211226,0.12508085,-0.4968556,0.10231565,0.30190828,0.118550725
20231225 03:39:25,-0.114406,0.052379,-0.269541,-0.041770,0.312352,0.231490,-9.389088,28.376587,-34.158195,16.369844,-0.2683686,0.061583556,-0.12571478,0.10315576,0.2925237,0.12739033
20231225 03:39:25,-0.130685,-0.087474,-0.181125,-0.010875,0.323005,0.253862,-9.097504,28.110672,-33.736015,16.427273,-0.2112287,-0.08464306,-0.024710484,0.13699338,0.302746,0.12102833
20231225 03:39:25,-0.238150,-0.095876,-0.078483,0.036000,0.335789,0.281561,-8.930779,28.032112,-33.997169,15.917171,-0.22328015,-0.107695825,0.122152224,0.19169398,0.31837294,0.109148234
20231225 03:39:25,-0.052314,-0.220215,-0.216763,0.076484,0.360292,0.309261,-8.718464,28.044872,-33.727959,14.791046,-0.17047344,-0.2115524,-0.080948666,0.24225697,0.34790272,0.1054181
20231225 03:39:25,0.171280,-0.308901,-0.258927,0.110575,0.361358,0.322045,-8.833969,28.135361,-34.136925,13.045158,-0.036513433,-0.29773858,-0.2502121,0.28775197,0.3563179,0.099971205
20231225 03:39:25,0.477307,-0.385317,-0.399294,0.128686,0.345378,0.307130,-8.251572,27.987297,-33.853523,10.504377,0.084641874,-0.3887355,-0.5592664,0.30275247,0.34598157,0.09090799
20231225 03:39:25,0.693705,-0.380991,-0.634271,0.122294,0.311286,0.273039,-8.102776,27.718700,-34.102455,9.219694,0.051759273,-0.40820307,-0.88824093,0.28374916,0.31410939,0.07326348
20231225 03:39:25,0.816066,-0.184232,-0.929492,0.087137,0.277195,0.236817,-7.936436,27.832024,-34.644066,8.12138,-0.1122551,-0.24029584,-1.2078228,0.24024314,0.28195053,0.07213107
20231225 03:39:25,0.854643,0.026998,-1.130910,0.041327,0.262280,0.206987,-7.988422,28.203876,-34.534889,8.301972,-0.272223,-0.032275923,-1.3855283,0.18994637,0.26736778,0.08042474
20231225 03:39:25,0.841234,0.289044,-1.349417,-0.008744,0.251627,0.181419,-7.802998,27.931576,-34.247322,8.193224,-0.48624265,0.22433941,-1.52834,0.14140297,0.25734398,0.09884946
20231225 03:39:25,0.714806,0.547134,-1.376960,-0.057750,0.271869,0.160112,-7.936050,27.640137,-34.363594,10.155885,-0.61818457,0.545579,-1.4699733,0.0881351,0.27203277,0.1139512
20231225 03:39:25,0.512093,0.784246,-1.288112,-0.107822,0.288914,0.151589,-7.299484,27.870304,-33.836403,10.71317,-0.68925166,0.82158303,-1.2903138,0.04258144,0.2835067,0.14376016
20231225 03:39:25,0.290397,0.952293,-0.960643,-0.132325,0.311286,0.154785,-6.790340,27.729645,-34.625984,11.667963,-0.592261,1.0113323,-0.9539011,0.016616605,0.29707915,0.15826295
20231225 03:39:25,0.038555,1.095050,-0.654513,-0.153632,0.294241,0.170765,-6.751530,28.476021,-33.736534,13.350403,-0.5466388,1.1435974,-0.6215952,8.2582235E-4,0.26806152,0.17999457
20231225 03:39:25,-0.158487,1.205430,-0.307736,-0.169612,0.226059,0.200595,-6.769840,28.477871,-34.004768,13.707963,-0.4356026,1.2114384,-0.274876,0.014646694,0.1944169,0.22057818
20231225 03:39:25,-0.103639,1.235089,-0.300194,-0.177069,0.180249,0.226163,-6.911476,27.899521,-33.834450,12.981865,-0.3759156,1.244051,-0.30266783,0.03760475,0.15335071,0.251905
20231225 03:39:25,0.054965,1.247975,-0.357469,-0.165350,0.200490,0.234686,-6.551128,28.027462,-34.375099,11.282045,-0.2915239,1.2650796,-0.4350379,0.056226544,0.18156111,0.2503363
20231225 03:39:25,0.208284,1.357771,-0.298634,-0.144043,0.259084,0.217641,-6.575836,28.492481,-34.003792,11.241332,-0.14862747,1.3781375,-0.5266157,0.053799525,0.24200809,0.21596979
20231225 03:39:25,0.103833,1.585043,-0.056206,-0.097168,0.312352,0.194203,-6.451748,28.688900,-33.881401,12.078468,-0.07524848,1.5886983,-0.33560514,0.05870436,0.29287133,0.15551232
20231225 03:39:25,-0.174632,1.791295,0.124816,-0.025790,0.362423,0.188876,-5.781509,28.549068,-33.731651,13.11572,-0.1975995,1.7489272,-0.06011823,0.087204024,0.3388569,0.08708813
20231225 03:39:25,-0.408092,1.886230,0.148161,0.063699,0.419952,0.208053,-5.835678,28.170841,-33.975426,14.324624,-0.3806767,1.8044405,0.08724827,0.14720364,0.39760864,0.01798068
20231225 03:39:25,-0.561884,1.974145,0.216129,0.160646,0.463631,0.243209,-5.827099,28.457748,-34.262016,14.590621,-0.45139134,1.8613297,0.23220634,0.22972904,0.4449958,-0.04251711
20231225 03:39:25,-0.499661,1.944631,0.075457,0.246939,0.509441,0.291150,-5.236507,28.788483,-34.545677,13.346396,-0.4963699,1.862912,0.12883286,0.32060316,0.49483332,-0.07675873
20231225 03:39:25,-0.361507,1.877862,0.010178,0.314056,0.521160,0.328437,-5.368793,28.113266,-34.101006,12.795322,-0.41648176,1.8290793,0.014329245,0.39832228,0.5100876,-0.10780732
20231225 03:39:25,-0.106222,1.866951,-0.225755,0.320448,0.504114,0.348678,-4.759502,28.250267,-33.835945,10.934346,-0.39852503,1.8676517,-0.28079557,0.42859653,0.49369848,-0.09300701
20231225 03:39:25,0.075540,1.969201,-0.385460,0.240547,0.421017,0.360397,-5.059284,28.037388,-33.691063,10.337141,-0.38808042,1.9918736,-0.5109042,0.40278336,0.40793043,-0.01752691
20231225 03:39:25,0.363536,1.925468,-0.506811,0.073288,0.278261,0.371051,-4.098228,28.015419,-33.680061,5.9036703,-0.19682217,1.933181,-0.71760964,0.33531016,0.27510518,0.15075883
20231225 03:39:25,0.998485,1.667659,-0.648058,-0.133390,0.155746,0.361463,-4.240627,27.820847,-34.070686,1.5937719,0.23600519,1.5618254,-1.2132016,0.20794736,0.18726265,0.32750452
20231225 03:39:25,1.546989,1.291625,-0.559558,-0.332610,0.119524,0.304999,-4.301579,28.097675,-33.955391,-1.0524621,0.7529857,1.061864,-1.5145195,0.01950325,0.18514231,0.45261487
20231225 03:39:25,1.829461,0.961946,-0.106504,-0.505196,0.130177,0.209118,-4.071712,28.492367,-33.978859,-1.3837029,1.3320231,0.74420905,-1.341806,-0.20167272,0.20471975,0.50547373
20231225 03:39:25,1.748414,0.657581,0.714989,-0.633038,0.135504,0.088734,-3.859398,28.505127,-33.709648,0.40596965,1.8426017,0.5612178,-0.5731079,-0.4208787,0.19162998,0.4725638
20231225 03:39:25,1.379199,0.408682,1.706469,-0.700155,0.109936,-0.024193,-3.505444,29.096226,-33.610741,2.4608302,2.1279974,0.4024542,0.559274,-0.5784028,0.1367706,0.38682222
20231225 03:39:25,0.854712,0.265658,2.558153,-0.712939,0.037492,-0.098768,-3.663589,29.461697,-33.636162,5.5390697,2.0972202,0.255836,1.6615074,-0.65391403,0.02937104,0.2987023
20231225 03:39:25,0.251070,-0.077206,3.218830,-0.659672,-0.036017,-0.109421,-3.884872,29.353920,-33.899284,8.181815,1.7803819,-0.1624091,2.6737952,-0.6287041,-0.069256075,0.22981504
20231225 03:39:25,-0.119394,-0.586805,3.762951,-0.524373,-0.071174,-0.068938,-3.751823,29.645359,-33.783012,8.95524,1.5333561,-0.7257378,3.4862018,-0.5000915,-0.10694888,0.17513624
20231225 03:39:25,-0.252548,-1.161512,4.064454,-0.325153,-0.067978,-0.008213,-3.548470,29.563095,-33.507668,9.098853,1.3752134,-1.3127283,3.966878,-0.3006477,-0.09323584,0.12844372
20231225 03:39:25,-0.285484,-1.719411,4.139506,-0.109952,-0.048801,0.043989,-3.592255,30.413742,-33.965553,9.102825,1.2099708,-1.856172,4.188717,-0.086563386,-0.05857117,0.08605291
20231225 03:39:25,-0.215900,-2.272788,4.038761,0.078614,-0.091415,0.078080,-3.416183,30.238312,-33.952339,8.188741,1.0841678,-2.3630164,4.1770477,0.100667976,-0.08789783,0.0616394
20231225 03:39:25,0.164033,-2.900620,3.528763,0.243743,-0.130833,0.072753,-3.807144,29.842796,-34.868202,6.9975624,1.1998243,-2.9227233,3.6435854,0.25537464,-0.12509711,0.013880279
20231225 03:39:25,0.572372,-3.225297,2.886285,0.367324,-0.188362,0.008832,-3.424763,29.951405,-33.665749,4.7476916,1.3799797,-3.2232206,2.8413413,0.35366157,-0.19075547,-0.0834067
20231225 03:39:25,0.891319,-3.391899,2.010540,0.440833,-0.249087,-0.103029,-3.761551,29.934120,-34.337837,3.8717396,1.4472502,-3.3968525,1.8378487,0.38303158,-0.26339978,-0.22111307
20231225 03:39:25,0.940926,-3.184003,1.090474,0.458944,-0.266132,-0.238328,-3.919312,30.107697,-34.082787,3.7579393,1.2487018,-3.1975691,0.8230959,0.32480323,-0.28435966,-0.3829065
20231225 03:39:26,0.799888,-2.641122,0.273288,0.412068,-0.251217,-0.361909,-3.840050,29.829018,-33.929848,5.2049565,0.83388203,-2.640657,0.064708486,0.18771523,-0.25078174,-0.49404413
20231225 03:39:26,0.388819,-2.065454,-0.189301,0.309795,-0.220322,-0.466313,-4.396969,29.128281,-34.023613,9.423104,0.31013173,-2.0243192,-0.091178596,0.007781595,-0.17801423,-0.5246688
20231225 03:39:26,-0.222361,-1.350815,-0.506958,0.179822,-0.148944,-0.533430,-4.018311,29.254372,-34.296028,12.894961,-0.33745557,-1.306414,-0.015440345,-0.16487977,-0.064791694,-0.4945191
20231225 03:39:26,-0.935467,-0.689878,-0.427830,0.046654,-0.067978,-0.540887,-3.963371,29.248821,-33.491280,17.27191,-0.8635274,-0.78962165,0.43226182,-0.27960193,0.040022977,-0.41446513
20231225 03:39:26,-1.751323,-0.214796,-0.019494,-0.057750,0.000205,-0.483358,-3.770134,29.647209,-34.051247,20.069954,-1.3474468,-0.6793708,1.1191463,-0.32378536,0.087843575,-0.32292122
20231225 03:39:26,-2.443645,-0.014229,0.568725,-0.103560,0.044949,-0.355517,-3.936478,29.533878,-33.509621,21.985811,-1.659932,-0.90817535,1.872313,-0.2873029,0.090382546,-0.21857607
20231225 03:39:26,-2.764716,-0.004427,1.037042,-0.073730,0.088629,-0.174407,-4.097572,29.533047,-34.448967,22.396814,-1.7507064,-1.1104672,2.3462622,-0.17049162,0.09597324,-0.12006496
20231225 03:39:26,-2.687877,-0.185922,1.395085,0.016824,0.098217,0.019486,-3.760788,29.550339,-33.776894,20.687134,-1.5096492,-1.2495811,2.6128254,0.004941388,0.09299966,-0.022970922
20231225 03:39:26,-2.293186,-0.457137,1.261377,0.131882,0.089694,0.185680,-3.594059,29.471779,-34.038048,18.710913,-1.1785443,-1.2563326,2.3810134,0.19148612,0.08767837,0.05039259
20231225 03:39:26,-1.613897,-0.758654,0.707147,0.220306,0.080106,0.314587,-3.594444,29.663666,-34.318520,15.908906,-0.8286973,-1.1728306,1.6484107,0.34271455,0.07804918,0.10543816
20231225 03:39:26,-0.776971,-1.027683,0.001421,0.257593,0.072648,0.387031,-3.497250,29.575024,-34.177803,11.858824,-0.52315795,-1.1174192,0.63224435,0.4266745,0.06791772,0.13993329
20231225 03:39:26,0.031972,-1.300408,-0.569596,0.238417,0.058799,0.397684,-3.974907,28.595612,-34.118629,8.0251665,-0.27297753,-1.2743969,-0.32192022,0.42930222,0.055228613,0.15877096
20231225 03:39:26,0.718429,-1.474566,-1.021595,0.185149,0.044949,0.354005,-3.921497,29.357620,-34.435768,3.4578152,-0.11499816,-1.5164227,-1.1755347,0.36725682,0.047708366,0.15662676
20231225 03:39:26,1.159104,-1.562206,-1.074663,0.115902,0.009793,0.273039,-3.902802,29.163879,-33.887047,1.029322,0.12479997,-1.6996866,-1.5444803,0.26280206,0.017412016,0.1370756
20231225 03:39:26,1.353294,-1.485821,-1.471936,0.031739,0.005531,0.182484,-3.144718,29.032280,-33.870918,-1.5371276,-0.045096934,-1.7260789,-2.0281394,0.14232728,0.017512118,0.11798944
20231225 03:39:26,1.488104,-1.416979,-1.450855,-0.054554,0.001270,0.085537,-3.065834,28.945492,-33.998436,-1.6898289,0.07428944,-1.6703844,-2.1013541,0.013953622,0.013667099,0.10044019
20231225 03:39:26,1.370305,-1.293645,-1.291907,-0.132325,-0.018972,-0.017801,-3.312210,29.494617,-34.170708,0.59235156,0.13297933,-1.4454268,-1.8624275,-0.11305159,-0.011521665,0.07272936
20231225 03:39:26,1.025673,-1.047328,-0.992509,-0.196245,-0.047736,-0.100898,-2.960442,29.335644,-34.424767,2.9956481,0.11842996,-1.0728095,-1.3787436,-0.21513425,-0.04623357,0.053437553
20231225 03:39:26,0.617537,-0.729812,-0.638102,-0.242055,-0.087154,-0.152035,-3.548851,29.754986,-33.788155,6.3746767,0.07487327,-0.6919841,-0.8217341,-0.28030068,-0.090657316,0.049856648
20231225 03:39:26,0.217394,-0.414515,-0.313867,-0.270820,-0.129768,-0.174407,-3.460621,29.571323,-33.641304,8.419788,-0.01260224,-0.37909773,-0.3311221,-0.31111085,-0.13772562,0.05870062
20231225 03:39:26,-0.123943,-0.196065,-0.040016,-0.281473,-0.157467,-0.170146,-3.424763,29.951405,-33.665749,9.723208,-0.10497108,-0.20314044,0.074688375,-0.31171703,-0.16945261,0.07242201
20231225 03:39:26,-0.309000,-0.070920,0.223026,-0.280408,-0.174512,-0.155231,-3.681904,29.463547,-33.904411,10.638415,-0.09518552,-0.1215055,0.37494582,-0.29995853,-0.1891253,0.08283458
20231225 03:39:26,-0.361794,-0.027752,0.490437,-0.262297,-0.178774,-0.145643,-3.337299,30.151524,-34.079857,10.059132,0.016759992,-0.10585922,0.6070825,-0.28083238,-0.1927719,0.073240004
20231225 03:39:26,-0.395663,-0.022309,0.768372,-0.221814,-0.160663,-0.148839,-3.655396,29.940495,-34.203224,10.489045,0.1447568,-0.12520894,0.8446503,-0.25310785,-0.17081864,0.040149584
20231225 03:39:26,-0.449247,-0.036900,1.019974,-0.158958,-0.140421,-0.163754,-3.249458,30.159752,-34.213509,10.388422,0.23456293,-0.1733827,1.0807785,-0.21218514,-0.1435479,-0.016105235
20231225 03:39:26,-0.605260,-0.049095,1.153411,-0.080123,-0.118049,-0.181865,-3.582523,30.124985,-33.410728,11.617605,0.17213014,-0.2353645,1.2793996,-0.15838829,-0.11003691,-0.07923807
20231225 03:39:26,-0.803694,-0.036224,1.191521,0.012563,-0.094611,-0.186126,-3.786259,30.399136,-33.966530,13.078824,0.031440794,-0.2908793,1.4182106,-0.08572007,-0.07042684,-0.13732494
20231225 03:39:26,-1.054771,-0.047197,1.087480,0.110575,-0.067978,-0.166950,-3.168003,30.631149,-33.707573,13.338171,-0.22444522,-0.36803645,1.4846556,0.002413176,-0.025919467,-0.18372633
20231225 03:39:26,-1.173610,-0.079796,0.839302,0.197933,-0.049867,-0.117944,-3.804573,30.400986,-34.234779,14.751812,-0.44507048,-0.40710068,1.3673398,0.09736671,0.0037964396,-0.19931832
20231225 03:39:26,-1.103235,-0.197567,0.472639,0.254397,-0.055193,-0.057219,-3.098858,30.833122,-34.389931,13.2958975,-0.56910276,-0.4460485,1.0721201,0.17529437,-0.0023326254,-0.18883489
20231225 03:39:26,-0.805715,-0.414406,0.014102,0.265050,-0.082892,-0.010344,-3.733891,29.835400,-33.795235,12.716979,-0.5727687,-0.52394134,0.585717,0.20995998,-0.042516463,-0.15936172
20231225 03:39:26,-0.394425,-0.592681,-0.433929,0.233090,-0.125506,0.010963,-3.698414,30.407368,-34.100151,10.287019,-0.52897346,-0.5908579,0.0061615407,0.19641197,-0.102017984,-0.12385086
20231225 03:39:26,0.047586,-0.777131,-0.833488,0.170234,-0.170251,0.000310,-3.522339,30.231934,-34.086952,7.509506,-0.47232813,-0.7340306,-0.57901824,0.13677016,-0.16073388,-0.09439707
20231225 03:39:26,0.446158,-0.872397,-1.145631,0.097791,-0.188362,-0.041239,-3.849781,30.117775,-34.484673,5.5304227,-0.42506197,-0.85485655,-1.0836573,0.04713157,-0.18674587,-0.08241838
20231225 03:39:26,0.717096,-0.863611,-1.313536,0.027478,-0.181970,-0.120075,-3.734272,30.027287,-34.075706,3.8899708,-0.37242454,-0.89086175,-1.4069138,-0.06341959,-0.1838994,-0.09769373
20231225 03:39:26,0.809582,-0.806356,-1.344107,-0.025790,-0.159597,-0.234067,-3.742855,29.740379,-33.789131,4.183555,-0.33617604,-0.82695407,-1.4887469,-0.1803863,-0.16151688,-0.1441683
20231225 03:39:26,0.610086,-0.565721,-1.269816,-0.050293,-0.123376,-0.356582,-4.043404,29.911278,-34.205177,7.384987,-0.43054843,-0.4948333,-1.2745681,-0.28053272,-0.111898065,-0.2060975
20231225 03:39:26,0.048383,-0.075067,-1.072192,-0.044966,-0.083958,-0.440745,-3.910347,30.202717,-34.088905,11.562303,-0.71175337,0.049628153,-0.7615853,-0.33225715,-0.039127413,-0.25941956
20231225 03:39:26,-0.715236,0.519261,-0.859768,-0.011940,-0.050932,-0.455659,-3.961948,30.382675,-33.699257,16.476725,-1.1942979,0.5349201,-0.15211871,-0.3159936,0.037875384,-0.28270414
20231225 03:39:26,-1.465390,1.001521,-0.702461,0.045589,-0.027494,-0.390673,-4.228443,29.991684,-34.212273,20.777397,-1.7466452,0.7532138,0.35712603,-0.22457251,0.08668307,-0.27897587
20231225 03:39:26,-2.062078,1.191029,-0.575221,0.097791,-0.038148,-0.272419,-4.358921,30.258434,-33.695091,22.840492,-2.1612632,0.6724312,0.7853793,-0.09912963,0.07197746,-0.2348628
20231225 03:39:26,-2.243948,1.342219,-0.560176,0.132947,-0.095677,-0.116879,-3.785492,30.015358,-33.405586,21.908207,-2.3012452,0.78047717,0.93640256,0.04076232,-0.017416399,-0.14669493
20231225 03:39:26,-1.854398,1.353343,-0.732672,0.140405,-0.161728,0.039727,-3.628502,30.225552,-34.221565,18.703072,-2.0862496,1.0486197,0.6215289,0.16138454,-0.13151735,-0.044320665
20231225 03:39:26,-1.020995,1.136161,-0.941082,0.120163,-0.237368,0.136674,-4.043404,29.911278,-34.205177,14.261995,-1.5462575,1.1205057,-0.001969397,0.21793336,-0.23733507,0.03323133
20231225 03:39:26,-0.142907,0.863833,-1.244641,0.054111,-0.292766,0.170765,-4.334213,29.793419,-34.066399,8.801324,-1.0939864,0.9278686,-0.76549804,0.18257995,-0.2993178,0.09570958
20231225 03:39:26,0.647074,0.564073,-1.377977,-0.041770,-0.309812,0.151589,-3.901001,30.105846,-33.814552,2.5464327,-0.5854049,0.48203382,-1.4101567,0.07343215,-0.30147988,0.14024933
20231225 03:39:26,1.369591,0.227105,-1.199245,-0.139782,-0.295962,0.072753,-4.298355,30.173496,-34.090858,-1.3739655,0.14545155,-0.060103253,-1.8130575,-0.080113605,-0.26881316,0.14556238
20231225 03:39:26,1.837064,-0.125400,-0.754210,-0.212226,-0.279982,-0.066807,-4.561890,30.148808,-33.689949,-2.0116224,0.87665594,-0.46175963,-1.781501,-0.23613419,-0.25459757,0.08239981
20231225 03:39:26,1.842804,-0.399807,-0.163450,-0.233533,-0.274655,-0.231936,-4.518871,29.681938,-33.793037,-0.043834,1.317784,-0.60338664,-1.2654157,-0.34821028,-0.2667489,-0.03871347
20231225 03:39:26,1.397901,-0.502117,0.344099,-0.205834,-0.276786,-0.384281,-4.359306,30.450321,-33.975563,2.9525948,1.3092151,-0.55628395,-0.5364992,-0.4038115,-0.28011477,-0.17402054
20231225 03:39:26,0.757058,-0.357330,0.733256,-0.144043,-0.294897,-0.494012,-4.746929,30.229218,-33.697044,7.478822,1.0508441,-0.35164663,0.17403609,-0.40324676,-0.2891807,-0.27811596
20231225 03:39:26,-0.023784,-0.133586,0.903197,-0.064142,-0.334315,-0.548345,-4.817230,30.602917,-33.856117,11.409836,0.534856,-0.20239055,0.7392399,-0.3561448,-0.29707363,-0.3358009
20231225 03:39:26,-0.731249,0.274919,0.848324,0.030674,-0.364144,-0.548345,-5.047474,30.400116,-34.113106,15.529089,-0.07075369,0.032461032,1.0393456,-0.26886442,-0.27580512,-0.3510662
20231225 03:39:26,-1.420412,0.838034,0.553124,0.118032,-0.362014,-0.495077,-5.124172,31.236984,-33.632607,18.581022,-0.85589564,0.38713607,1.1485307,-0.16129074,-0.22344643,-0.34080762
20231225 03:39:26,-1.910395,1.252307,0.161048,0.177692,-0.337511,-0.401327,-5.053871,30.863285,-33.473549,21.192144,-1.5622094,0.65194273,1.1301526,-0.05414921,-0.1712724,-0.30418792
20231225 03:39:26,-2.195507,1.498392,-0.238445,0.207521,-0.308746,-0.286269,-5.072186,30.865131,-33.741783,22.656265,-2.089563,0.86634195,1.0452242,0.037532315,-0.14956245,-0.25053912
20231225 03:39:26,-2.186191,1.571901,-0.594773,0.203260,-0.273590,-0.169081,-5.302433,30.662338,-33.998787,23.191437,-2.3291657,1.0465384,0.83173394,0.10037479,-0.15015295,-0.18239489
20231225 03:39:26,-1.995130,1.434905,-0.759377,0.177692,-0.246956,-0.065742,-5.299862,31.220528,-33.365334,21.40071,-2.245835,1.0635217,0.63806415,0.13910122,-0.17147875,-0.11138682
20231225 03:39:26,-1.567802,1.060584,-0.815209,0.141470,-0.243760,0.010963,-5.250446,30.290489,-34.107964,18.827944,-1.8623863,0.88092077,0.3894527,0.15524785,-0.20817217,-0.042950034
20231225 03:39:26,-1.012046,0.742249,-0.804033,0.094595,-0.261871,0.047185,-5.567120,31.213318,-34.439308,15.363582,-1.3762515,0.70485973,0.06920117,0.1369664,-0.25031123,0.010023169
20231225 03:39:26,-0.394083,0.538123,-0.855921,0.038131,-0.286374,0.042924,-5.425755,30.082142,-33.560234,12.087261,-0.9371655,0.5775418,-0.36274987,0.08278837,-0.2848443,0.04198126
20231225 03:39:26,0.044741,0.403515,-0.923489,-0.028986,-0.295962,0.003506,-6.017494,30.327068,-34.117989,9.767986,-0.65657735,0.44006944,-0.7030643,-0.0059332857,-0.2967324,0.057883926
20231225 03:39:26,0.349083,0.370243,-0.873409,-0.101429,-0.279982,-0.071069,-5.690056,30.441227,-33.720268,8.233062,-0.3944339,0.39248705,-0.8874277,-0.11632915,-0.2803784,0.052169517
20231225 03:39:26,0.298287,0.512357,-0.619757,-0.154697,-0.241629,-0.160558,-6.050785,30.505184,-33.460091,10.069744,-0.2527483,0.54928064,-0.703546,-0.21275589,-0.24088159,0.028948613
20231225 03:39:26,-0.102009,0.827349,-0.137157,-0.155762,-0.178774,-0.231936,-6.174488,30.116875,-33.301994,13.343836,-0.2439645,0.8234637,-0.15849738,-0.25615966,-0.1703971,-0.021252155
20231225 03:39:26,-0.767608,1.358459,0.381261,-0.103560,-0.120180,-0.263897,-5.820534,30.707981,-33.203102,16.195934,-0.48436433,1.1555167,0.5321859,-0.23735192,-0.09360842,-0.08291267
20231225 03:39:26,-1.555744,2.058523,0.754265,-0.035378,-0.102069,-0.234067,-6.113922,30.031933,-33.697762,20.172873,-0.99564934,1.4933149,1.1174055,-0.16405335,-0.055539686,-0.10277884
20231225 03:39:26,-2.165215,2.737681,0.829095,-0.003417,-0.132964,-0.138186,-6.235439,30.393703,-33.186714,21.89034,-1.5643853,1.8908631,1.4187591,-0.06554335,-0.09245037,-0.050898455
20231225 03:39:26,-2.292738,3.097637,0.742072,-0.026855,-0.194754,-0.014605,-6.156559,30.306911,-33.314232,21.786095,-1.7646172,2.2361875,1.4089159,0.020045377,-0.18607378,0.059064563
20231225 03:39:26,-2.038006,3.162137,0.645529,-0.090776,-0.227780,0.114302,-6.032471,30.503334,-33.191841,19.141928,-1.5302528,2.5404031,1.2472156,0.069282904,-0.2589727,0.18885425
20231225 03:39:26,-1.324773,2.929457,0.745732,-0.155762,-0.205407,0.216575,-6.166294,30.595673,-33.869072,15.067541,-0.7370615,2.6324456,0.9427827,0.07657107,-0.24837902,0.29275987
20231225 03:39:26,-0.535344,2.369144,1.171888,-0.201572,-0.163859,0.259189,-6.720642,30.453121,-33.329384,11.947582,0.27634436,2.2634633,0.84470963,0.03907393,-0.18988736,0.34756243
20231225 03:39:26,0.054458,1.531002,1.702252,-0.218618,-0.139356,0.253862,-6.066528,31.065220,-33.094902,8.540904,1.0887784,1.509892,1.1010348,-0.009721771,-0.14601937,0.34876677
20231225 03:39:26,0.520893,0.789263,2.163794,-0.218618,-0.131898,0.222967,-6.153988,30.865101,-32.680794,7.041648,1.6792445,0.8066767,1.3789269,-0.05244124,-0.12525606,0.31996304
20231225 03:39:26,0.819175,0.142540,2.385498,-0.203703,-0.121245,0.180353,-6.348373,31.042381,-32.962227,6.317141,1.9590361,0.16784406,1.5656536,-0.0804654,-0.109071516,0.27119485
20231225 03:39:26,0.941008,-0.470005,2.514519,-0.186657,-0.109526,0.130282,-6.233635,31.335667,-33.114220,5.9364843,2.027629,-0.44923246,1.7752092,-0.10303056,-0.09780513,0.2136701
20231225 03:39:26,0.892401,-1.151462,2.563317,-0.156828,-0.072239,0.080211,-6.427639,31.321056,-33.115196,6.571947,1.8967729,-1.1360693,2.0213108,-0.10763211,-0.064201385,0.14752285
20231225 03:39:26,0.778915,-1.687929,2.686241,-0.090776,-0.005122,0.019486,-6.357338,30.947361,-32.956123,7.43277,1.7541759,-1.6774745,2.3425908,-0.07583343,-0.0025152322,0.054110076
20231225 03:39:26,0.572001,-2.121178,2.943248,0.033870,0.049211,-0.056154,-6.690792,31.104481,-32.433815,9.397986,1.5849538,-2.1217034,2.8323178,0.011595016,0.0492635,-0.07134412
20231225 03:39:26,0.197231,-2.401066,3.034208,0.223502,0.074779,-0.130728,-6.190613,30.868801,-33.217278,10.45752,1.2701862,-2.432537,3.1380973,0.16320369,0.08447229,-0.21092412
20231225 03:39:26,-0.146880,-2.377272,2.772110,0.461074,0.079040,-0.177603,-6.260532,31.050610,-33.095879,11.8837185,0.9644869,-2.4556997,3.023772,0.35890967,0.11439111,-0.34905988
20231225 03:39:26,-0.327391,-2.153718,2.035881,0.690124,0.071583,-0.196780,-6.445568,31.131020,-33.102959,12.663022,0.6831195,-2.2542717,2.352655,0.53115153,0.1365574,-0.48956242
20231225 03:39:26,-0.390232,-1.827100,0.935447,0.858449,0.053472,-0.186126,-6.050785,30.505184,-33.460091,12.785856,0.26120335,-1.9078043,1.3261416,0.6315873,0.14614558,-0.6139997
20231225 03:39:26,-0.419902,-1.451807,-0.188579,0.915978,0.010858,-0.144578,-6.262718,30.300533,-33.448845,13.746254,-0.32420745,-1.4672483,0.38711387,0.629478,0.11974193,-0.67962927
20231225 03:39:26,-0.355711,-1.067273,-1.302826,0.854188,-0.033886,-0.060415,-5.955776,29.666462,-33.672340,12.93119,-1.0801221,-0.97261584,-0.46140808,0.55404854,0.046213888,-0.64945257
20231225 03:39:26,-0.006677,-0.672359,-2.240470,0.690124,-0.056259,0.053577,-5.769970,29.202278,-33.104301,10.174346,-1.7286566,-0.56005126,-1.2841698,0.47132066,-0.03187508,-0.50383466
20231225 03:39:26,0.353853,-0.606987,-2.355650,0.449356,-0.112722,0.163308,-6.246208,29.356716,-33.253090,6.9928994,-1.6691339,-0.6572558,-1.6548829,0.40022045,-0.11613971,-0.2505681
20231225 03:39:26,0.934169,-0.576395,-2.678675,0.168104,-0.151075,0.246405,-6.564301,29.145691,-33.376457,0.30067694,-1.5976102,-1.0674366,-2.3743234,0.272093,-0.1312371,0.017961174
20231225 03:39:26,1.663465,-0.798043,-2.515769,-0.124867,-0.164924,0.279431,-6.237244,29.451736,-33.259209,-5.7152886,-0.8479326,-1.6900253,-2.964457,0.07539113,-0.065678865,0.2678609
20231225 03:39:26,2.246008,-1.117786,-2.016369,-0.398662,-0.183035,0.224033,-6.230465,28.796680,-33.618294,-7.4015164,0.13002586,-2.087787,-3.0969138,-0.19587229,-0.018557321,0.41509414
20231225 03:39:26,2.485754,-1.403091,-1.275070,-0.623450,-0.221388,0.123890,-6.131851,29.841892,-33.685539,-6.1475086,0.9655039,-2.1961741,-2.63864,-0.4652441,-0.030911786,0.45861897
20231225 03:39:26,2.353771,-1.495094,-0.554060,-0.778991,-0.245891,0.013094,-6.298962,30.112343,-33.704857,-3.4832206,1.4142548,-2.0298438,-1.8654406,-0.6706615,-0.068526655,0.44034493
20231225 03:39:26,2.082228,-1.392152,0.194855,-0.858892,-0.238433,-0.085984,-6.738571,30.263081,-33.317162,-0.058691747,1.7117249,-1.694159,-0.95212114,-0.7958761,-0.09811673,0.38729885
20231225 03:39:26,1.638818,-1.269932,0.950459,-0.869546,-0.226714,-0.171211,-6.808483,30.444893,-33.195747,3.332088,1.8068523,-1.3755885,0.029150069,-0.84716386,-0.14148144,0.31408614
20231225 03:39:26,1.059041,-1.078168,1.430014,-0.832258,-0.184100,-0.222348,-6.790939,30.826820,-33.488457,6.6441875,1.6086392,-1.0863751,0.7966076,-0.83488977,-0.15326387,0.24913016
20231225 03:39:26,0.410940,-0.854105,1.883650,-0.743834,-0.079696,-0.230871,-6.709873,31.490108,-33.262993,9.659422,1.3059299,-0.8670479,1.5278889,-0.7588274,-0.09159125,0.18579055
20231225 03:39:26,-0.205735,-0.654465,2.429351,-0.608535,0.046015,-0.196780,-7.140518,31.735867,-32.881416,12.435687,0.9815628,-0.7495573,2.3142402,-0.6308597,0.0134247495,0.10818699
20231225 03:39:26,-0.731579,-0.595398,3.129374,-0.417838,0.107805,-0.138186,-6.691940,31.680145,-33.275230,13.839308,0.78871685,-0.83483887,3.1668959,-0.44038892,0.07062344,0.046875782
20231225 03:39:26,-1.215854,-0.604090,3.541467,-0.203703,0.101413,-0.070003,-6.956249,32.039238,-33.435265,15.473836,0.4882965,-0.9925457,3.744702,-0.22003801,0.0775881,0.00472844
20231225 03:39:26,-1.458440,-0.696323,3.483096,0.021086,0.061995,0.005636,-7.070984,31.745949,-33.283287,16.308392,0.26086044,-1.153428,3.818706,0.016882941,0.0638478,-0.02008299
20231225 03:39:27,-1.392335,-0.779518,2.965381,0.249070,0.049211,0.083407,-7.026546,32.412937,-33.594337,15.579955,0.16545844,-1.1724006,3.3627174,0.25557595,0.07691609,-0.054865837
20231225 03:39:27,-1.058601,-0.853500,2.123344,0.453617,0.071583,0.140936,-7.105042,32.307835,-33.186348,14.429751,0.18110335,-1.0996251,2.4952023,0.45858702,0.11253354,-0.122246966
20231225 03:39:27,-0.636035,-0.853608,1.166495,0.607027,0.108870,0.170765,-6.728569,31.683842,-33.811714,12.656761,0.1418573,-0.96356165,1.4581258,0.59620553,0.1490657,-0.20986575
20231225 03:39:27,-0.246631,-0.892913,0.242679,0.703974,0.148288,0.175027,-6.948700,31.000404,-33.233406,11.521305,-0.020176187,-0.91289794,0.4811817,0.664006,0.17733712,-0.30508885
20231225 03:39:27,-0.015321,-0.777757,-0.568084,0.735934,0.189837,0.161177,-6.728188,31.491959,-33.531242,10.0139065,-0.36123344,-0.763064,-0.31202754,0.6586272,0.20753922,-0.38364598
20231225 03:39:27,0.161482,-0.690077,-1.308311,0.708235,0.217536,0.145197,-6.809254,30.828667,-33.756691,9.343706,-0.7959709,-0.66883135,-0.951159,0.6021825,0.22566141,-0.42175922
20231225 03:39:27,0.254470,-0.558311,-1.824234,0.621942,0.231385,0.131347,-6.660076,30.368179,-33.725151,9.01933,-1.1988976,-0.5340008,-1.3199848,0.50554556,0.23624279,-0.40665063
20231225 03:39:27,0.365865,-0.369132,-2.335226,0.488773,0.260150,0.128151,-6.316891,29.922302,-33.692635,7.983354,-1.608941,-0.369637,-1.6859672,0.40302545,0.26010028,-0.32796153
20231225 03:39:27,0.397829,-0.279760,-2.466523,0.328971,0.286783,0.130282,-6.265289,29.742348,-34.082283,7.2436357,-1.7135214,-0.3130083,-1.7875873,0.3074783,0.28526998,-0.20368412
20231225 03:39:27,0.473928,-0.322142,-2.406975,0.165973,0.294241,0.134543,-6.149399,29.459969,-33.392845,7.2392883,-1.5888915,-0.35407645,-1.834775,0.21206218,0.29423255,-0.06957099
20231225 03:39:27,0.525923,-0.331078,-2.159658,0.012563,0.297437,0.143066,-6.123272,30.128803,-33.972130,6.49908,-1.2936075,-0.38535088,-1.7783985,0.12247494,0.30007315,0.061566144
20231225 03:39:27,0.488997,-0.370203,-1.635394,-0.095037,0.294241,0.150524,-5.850388,30.056622,-34.098671,7.0165396,-0.85001516,-0.38161787,-1.4417677,0.04517355,0.2955429,0.14705223
20231225 03:39:27,0.448553,-0.363977,-1.130847,-0.167481,0.269738,0.163308,-6.035423,30.137032,-34.105766,7.6987176,-0.4631822,-0.36083117,-1.0822673,-0.007354431,0.26907334,0.2067934
20231225 03:39:27,0.417488,-0.434411,-0.777622,-0.205834,0.245235,0.176092,-5.462761,30.277733,-34.377190,6.524936,-0.21531367,-0.44051707,-0.8161769,-0.032953613,0.24722013,0.24723023
20231225 03:39:27,0.510824,-0.454641,-0.472755,-0.217552,0.234581,0.187811,-5.681091,30.536247,-33.726372,6.374619,0.07264957,-0.46752676,-0.65117496,-0.039275058,0.23989749,0.2637
20231225 03:39:27,0.595565,-0.493537,-0.161901,-0.209030,0.231385,0.188876,-5.496437,30.647728,-33.999763,5.835426,0.34903198,-0.5076076,-0.46410844,-0.037671283,0.23842719,0.25975227
20231225 03:39:27,0.639618,-0.571488,0.041498,-0.183461,0.235647,0.176092,-5.432911,30.929089,-33.481621,5.5105705,0.51721823,-0.5865717,-0.3194971,-0.030849323,0.2436778,0.23337367
20231225 03:39:27,0.668314,-0.560521,0.217737,-0.140847,0.245235,0.154785,-5.356606,30.284111,-34.242592,5.6455235,0.65250945,-0.57078654,-0.19446023,-0.012588486,0.25060987,0.18895806
20231225 03:39:27,0.624974,-0.512040,0.370099,-0.093972,0.253758,0.133478,-5.241100,30.193619,-33.833611,6.102879,0.7167653,-0.51577234,-0.045186907,0.008825399,0.25591016,0.14109686
20231225 03:39:27,0.409042,-0.284132,0.521899,0.002975,0.251627,0.122825,-5.241100,30.193619,-33.833611,7.4461484,0.6486764,-0.28421724,0.17663124,0.07636143,0.25027406,0.067718744
20231225 03:39:27,0.330095,-0.174137,0.464518,0.033870,0.243104,0.129217,-5.241100,30.193619,-33.833611,7.654278,0.5529722,-0.1750535,0.16192296,0.10492833,0.24175082,0.05209609
20231225 03:39:27,0.304925,0.020499,0.163991,0.089268,0.242039,0.144132,-5.038132,30.303249,-33.838753,7.378604,0.3360767,0.023264416,-0.08474123,0.15887645,0.24126424,0.023556896
20231225 03:39:27,0.279025,0.280226,-0.163572,0.122294,0.253758,0.162243,-4.959633,30.408344,-34.246742,7.3490744,0.078881726,0.28857118,-0.33689165,0.1961301,0.25294802,0.0057691783
20231225 03:39:27,0.284502,0.517968,-0.442848,0.143601,0.292110,0.177157,-4.960014,30.600235,-34.527214,7.7512674,-0.13826056,0.5370394,-0.5568503,0.21927375,0.29080495,-0.010061242
20231225 03:39:27,0.181296,0.841946,-0.605262,0.159581,0.301698,0.194203,-4.554077,30.819496,-34.537483,8.08758,-0.3696527,0.873714,-0.61077607,0.23787928,0.2988783,-0.02053535
20231225 03:39:27,0.089931,0.996850,-0.859471,0.163842,0.321940,0.210183,-4.484161,30.637680,-34.658897,9.142451,-0.66180915,1.0534722,-0.71679777,0.24503875,0.3161411,-0.024796665
20231225 03:39:27,-0.007734,1.031529,-1.165354,0.161712,0.358162,0.219771,-4.238171,30.280445,-34.767097,9.154505,-0.9775163,1.1085043,-0.82351106,0.24675073,0.3505177,-0.02450338
20231225 03:39:27,-0.059943,1.111893,-1.138200,0.149993,0.380534,0.226163,-3.901382,30.297737,-34.095024,9.045966,-1.0060301,1.1891062,-0.7647477,0.24069473,0.37071976,-0.014940098
20231225 03:39:27,-0.022855,1.032594,-1.185829,0.137209,0.394384,0.231490,-4.025852,30.293205,-34.497871,9.1231985,-1.003867,1.1140738,-0.8280557,0.23607868,0.383787,-9.2306733E-4
20231225 03:39:27,-0.009791,0.971319,-1.086120,0.113771,0.368815,0.241078,-3.393009,30.540848,-35.445534,7.1909924,-0.8957273,1.0273176,-0.75400573,0.23803958,0.35991663,0.03469889
20231225 03:39:27,0.237253,0.735112,-1.098228,0.081810,0.343247,0.243209,-3.868477,30.311516,-35.033379,6.574371,-0.7050341,0.7756524,-0.94241065,0.2271947,0.33745298,0.068842284
20231225 03:39:27,0.478923,0.688353,-1.079293,0.044523,0.289979,0.238948,-3.595978,30.431221,-35.440392,3.9992375,-0.507837,0.6778298,-1.0930189,0.21300158,0.29138744,0.10725398
20231225 03:39:27,0.824220,0.525041,-1.158768,0.004040,0.250562,0.219771,-3.559353,30.427521,-34.903908,1.3448529,-0.3141151,0.42389345,-1.387462,0.18259932,0.2615234,0.13596965
20231225 03:39:27,1.134524,0.377191,-1.252870,-0.042835,0.237777,0.172896,-3.392242,30.157070,-34.884590,-0.45453185,-0.17864579,0.19390559,-1.6745329,0.122179,0.25347742,0.14614418
20231225 03:39:27,1.281779,0.353159,-1.242487,-0.104626,0.233516,0.106844,-3.567932,30.140610,-34.617332,-0.6810454,-0.047288537,0.14042032,-1.7802781,0.031163085,0.24952433,0.15096305
20231225 03:39:27,1.286960,0.367708,-1.014089,-0.169612,0.219666,0.034401,-3.110008,29.988026,-34.736794,-0.4161794,0.15300268,0.20627925,-1.6320708,-0.07344392,0.23241277,0.14932525
20231225 03:39:27,1.123594,0.418101,-0.687577,-0.216487,0.198359,-0.029520,-3.410557,30.158920,-35.152840,1.638319,0.30030343,0.3420235,-1.2949106,-0.16266087,0.20561527,0.13187984
20231225 03:39:27,0.908004,0.469420,-0.362315,-0.238859,0.181314,-0.075330,-3.259186,30.448513,-34.768333,3.055206,0.39576745,0.44873762,-0.9146436,-0.21951936,0.18392316,0.10829595
20231225 03:39:27,0.634669,0.560038,-0.029175,-0.223944,0.167464,-0.098768,-3.011395,31.033237,-34.804039,4.4094915,0.4290271,0.56779027,-0.49351573,-0.231455,0.1659277,0.075900175
20231225 03:39:27,0.386150,0.646557,0.216137,-0.182396,0.152550,-0.101964,-2.835705,31.049694,-35.071297,5.307464,0.40982658,0.65156054,-0.15304095,-0.20690161,0.14976768,0.04164999
20231225 03:39:27,0.309248,0.691132,0.308511,-0.118475,0.137635,-0.095572,-3.074917,30.751881,-35.322182,6.123337,0.41044432,0.69062614,-0.046034664,-0.15673018,0.13638449,0.0028949827
20231225 03:39:27,0.214565,0.826485,0.220782,-0.049227,0.139765,-0.089180,-2.641701,31.064304,-35.070320,6.1146793,0.26846397,0.8244415,-0.05739659,-0.104164585,0.14130968,-0.0390124
20231225 03:39:27,0.184543,0.951725,0.123410,0.014693,0.147223,-0.085984,-3.224098,31.212368,-35.353722,6.898481,0.17027071,0.95233613,-0.12553507,-0.05797404,0.15183066,-0.082863286
20231225 03:39:27,0.186365,1.017135,-0.072372,0.079680,0.162138,-0.105160,-2.854790,31.435322,-35.900475,6.5083857,0.020075,1.0273858,-0.26392317,-0.031435866,0.17112002,-0.1419141
20231225 03:39:27,0.115180,1.178324,-0.342021,0.136143,0.223928,-0.133924,-2.862984,30.956528,-35.333427,8.386163,-0.28175822,1.208622,-0.4218786,-0.030176587,0.24413231,-0.21112227
20231225 03:39:27,-0.129237,1.531561,-0.557131,0.164908,0.270803,-0.140316,-2.899612,30.960224,-35.869911,9.905769,-0.6807283,1.5659188,-0.41894713,-0.032360554,0.29931784,-0.24490525
20231225 03:39:27,-0.385984,1.588201,-0.633126,0.184084,0.343247,-0.116879,-2.899994,31.152111,-36.150398,11.975396,-0.9650301,1.605447,-0.30299902,-0.023853943,0.3771095,-0.2599978
20231225 03:39:27,-0.598555,1.777242,-0.528030,0.190476,0.387991,-0.064677,-2.590866,31.268124,-36.020927,12.24127,-1.0673507,1.7420892,-0.1117619,0.010576364,0.4154397,-0.23945627
20231225 03:39:27,-0.683060,1.969912,-0.303034,0.180888,0.366684,0.002440,-2.548229,30.993145,-36.404457,12.624656,-0.99505454,1.8790153,0.07024747,0.05397651,0.3824063,-0.18932234
20231225 03:39:27,-0.693388,2.280299,-0.321709,0.109509,0.283587,0.080211,-2.602020,30.423027,-36.367790,12.431231,-1.0534514,2.1925163,0.050695226,0.082110845,0.27810654,-0.07564886
20231225 03:39:27,-0.424453,2.528796,-0.383026,-0.041770,0.135504,0.152654,-2.114632,31.113678,-35.872124,9.921604,-0.8999543,2.5014977,-0.14387636,0.077468656,0.10857339,0.10925976
20231225 03:39:27,0.043754,2.457956,-0.571063,-0.227141,0.020446,0.206987,-2.054066,31.028744,-36.267891,5.844176,-0.5836922,2.4880667,-0.522879,0.0290671,-0.0029298225,0.30387244
20231225 03:39:27,0.726424,2.096351,-0.534539,-0.380551,0.033231,0.216575,-2.247684,30.822247,-35.988396,1.5529945,0.0845339,2.0722892,-0.93656176,-0.07010165,0.044112563,0.43149576
20231225 03:39:27,1.293411,1.743666,-0.028946,-0.495608,0.117393,0.157981,-2.521336,31.278202,-36.422798,0.320815,0.94641054,1.6841694,-0.96583635,-0.22098204,0.14527619,0.46805328
20231225 03:39:27,1.286319,1.474487,0.959197,-0.575509,0.158942,0.039727,-2.406212,31.379604,-36.294289,1.9533131,1.6188676,1.4673765,-0.1852529,-0.39892876,0.1686838,0.41046658
20231225 03:39:27,0.763525,1.238442,1.950448,-0.595751,0.161072,-0.082788,-2.274311,32.246708,-37.019447,4.6375275,1.7675736,1.2108545,0.98321766,-0.5247899,0.14247511,0.2914181
20231225 03:39:27,0.108665,1.027904,2.813043,-0.513719,0.171726,-0.152035,-1.973766,32.075802,-36.603386,7.088034,1.6235988,0.8613431,2.1259787,-0.51849794,0.13523751,0.15193813
20231225 03:39:27,-0.533456,0.839259,3.417722,-0.332610,0.182379,-0.150970,-2.140491,32.154369,-36.342216,9.568905,1.2989924,0.4706981,3.0089202,-0.375906,0.14904681,0.028292134
20231225 03:39:27,-0.987229,0.603047,3.658540,-0.101429,0.213274,-0.088114,-1.955837,32.265842,-36.615608,10.519884,0.9566474,0.09809467,3.495744,-0.15154828,0.20226945,-0.055139974
20231225 03:39:27,-1.211263,0.304021,3.765787,0.130816,0.180249,0.006702,-1.886303,32.275925,-37.017494,11.130357,0.7787142,-0.27287853,3.7526195,0.0988192,0.19813776,-0.090117425
20231225 03:39:27,-1.119095,-0.071497,3.310509,0.320448,0.129112,0.111106,-1.920361,32.837811,-36.920540,10.359595,0.6668827,-0.5395522,3.3907232,0.3206097,0.16669132,-0.08577927
20231225 03:39:27,-0.597066,-0.646670,2.597310,0.463205,0.120589,0.194203,-2.001812,32.366413,-37.426460,8.385489,0.77044153,-0.8712762,2.6182742,0.49086237,0.1596048,-0.072571635
20231225 03:39:27,0.041151,-1.446041,1.997512,0.570805,0.139765,0.219771,-1.895653,32.372795,-37.291847,5.629631,0.9910699,-1.5037519,1.876877,0.6035219,0.16802105,-0.077706516
20231225 03:39:27,0.554076,-2.169288,1.496842,0.650706,0.154680,0.182484,-1.861210,31.619015,-37.108330,3.8406422,1.1733898,-2.172703,1.2397602,0.6637369,0.17004806,-0.12561333
20231225 03:39:27,0.734924,-2.680021,1.007160,0.686928,0.158942,0.113237,-1.712799,31.542309,-37.637733,3.4293787,1.1182549,-2.6730192,0.7491423,0.6692542,0.17341162,-0.19459397
20231225 03:39:27,0.783363,-2.905898,0.644925,0.685863,0.119524,0.038662,-1.906422,31.335808,-37.358238,3.7905986,1.0191741,-2.892929,0.41689873,0.6342475,0.13611843,-0.2676291
20231225 03:39:27,0.734968,-2.916711,0.199128,0.642183,0.051341,-0.030585,-1.503052,30.996880,-38.001961,3.6450913,0.79166114,-2.8946795,-0.0120951235,0.54928714,0.07241394,-0.33545727
20231225 03:39:27,0.692933,-2.745479,-0.390913,0.535649,-0.030690,-0.085984,-1.617794,30.703590,-37.849983,4.2155285,0.44894212,-2.7051337,-0.52673596,0.4094537,-0.0071899146,-0.35471788
20231225 03:39:27,0.610514,-2.452772,-0.974003,0.367324,-0.092481,-0.133924,-1.778511,30.510872,-38.508858,5.059338,-0.0063880086,-2.3802037,-0.9695744,0.21580651,-0.06875129,-0.321505
20231225 03:39:27,0.595260,-2.092275,-1.419878,0.148927,-0.079696,-0.177603,-1.972515,30.496262,-38.509834,6.143009,-0.3554926,-1.9705921,-1.2892939,0.0022307038,-0.06040345,-0.22451732
20231225 03:39:27,0.389094,-1.675629,-1.389273,-0.081188,-0.021102,-0.233002,-2.123112,29.822891,-38.333397,8.998748,-0.45766905,-1.4896573,-1.0918338,-0.21101396,-0.007952515,-0.117338225
20231225 03:39:27,-0.128994,-1.243474,-0.775687,-0.282539,0.030034,-0.275616,-2.087254,30.202969,-38.357857,12.240677,-0.41295943,-1.1325902,-0.30134022,-0.3932431,0.019936046,-0.034831405
20231225 03:39:27,-0.788781,-0.887096,0.096708,-0.427426,0.043884,-0.288400,-2.193798,30.388481,-38.772926,15.1503,-0.4336664,-1.0400405,0.7323875,-0.51574075,-0.0034930073,0.023358285
20231225 03:39:27,-1.381767,-0.582080,0.915571,-0.496674,0.026838,-0.260701,-1.839844,30.979588,-38.674034,16.394367,-0.54320663,-1.0601983,1.6422608,-0.5545312,-0.054216214,0.069321945
20231225 03:39:27,-1.883857,-0.401319,1.557158,-0.477497,0.024708,-0.186126,-2.043198,31.061848,-38.949364,17.787268,-0.6867394,-1.1762835,2.378314,-0.4997152,-0.07359016,0.10938667
20231225 03:39:27,-2.127153,-0.164705,1.991935,-0.388008,0.044949,-0.067873,-2.085835,31.336826,-38.565834,17.7877,-0.72380304,-1.1016548,2.793093,-0.368048,-0.052451804,0.14644852
20231225 03:39:27,-2.130346,-0.021050,2.207978,-0.253774,0.065191,0.077015,-2.156132,31.710522,-38.724892,17.126446,-0.64492965,-0.9613544,2.934424,-0.18440783,-0.018409686,0.18363936
20231225 03:39:27,-1.845437,-0.111646,2.145899,-0.112083,0.073714,0.222967,-1.997990,31.345055,-38.699455,15.264167,-0.40290356,-0.8591515,2.7666683,0.011984207,0.011177424,0.22514588
20231225 03:39:27,-1.266340,-0.340343,1.863708,0.010432,0.054537,0.333764,-1.953548,32.012043,-39.010506,12.064852,0.0059161186,-0.7756903,2.2780704,0.18424131,0.01566216,0.25555572
20231225 03:39:27,-0.378748,-0.744963,1.096711,0.090333,0.059864,0.387031,-1.891830,31.351437,-38.564857,8.231619,0.35090435,-0.8583422,1.1991408,0.28588778,0.041025873,0.2591947
20231225 03:39:27,0.359631,-1.130248,0.621152,0.122294,0.075844,0.388096,-1.688091,31.077290,-38.009056,6.1333017,0.70194477,-1.1304835,0.40751213,0.31501824,0.065154366,0.24325758
20231225 03:39:27,0.863260,-1.331684,0.291595,0.191541,0.097151,0.307130,-1.752766,31.371593,-39.368614,2.0132174,0.8743353,-1.3324785,-0.21437259,0.33255446,0.09717736,0.14014257
20231225 03:39:27,1.179498,-1.479598,-0.029676,0.227763,0.106740,0.217641,-1.849579,31.268345,-39.228859,1.2732291,0.92435926,-1.4986159,-0.68450224,0.31311625,0.10556451,0.042244524
20231225 03:39:27,1.162788,-1.489505,-0.157967,0.248005,0.105674,0.171831,-1.601398,31.661182,-38.984093,1.2851478,0.8170319,-1.5026202,-0.8041944,0.30222327,0.10445869,-0.01569961
20231225 03:39:27,1.039226,-1.406918,-0.653069,0.285292,0.074779,0.054642,-1.198032,31.322250,-39.627800,1.8131045,0.39466354,-1.3956529,-1.1303818,0.25444588,0.076482244,-0.14116919
20231225 03:39:27,0.883234,-1.252181,-1.016876,0.275704,0.023642,-0.003952,-1.921295,30.508190,-39.179955,3.674318,-0.0034692883,-1.209991,-1.2856218,0.20092401,0.03005843,-0.18942209
20231225 03:39:27,0.751231,-1.119834,-1.402974,0.227763,-0.032821,-0.045500,-1.516129,31.111225,-39.751183,4.186254,-0.42090142,-1.0358293,-1.4616369,0.12962393,-0.022353735,-0.19182391
20231225 03:39:27,0.687523,-0.944980,-1.723098,0.144666,-0.077566,-0.079591,-1.913101,30.986988,-39.747017,5.242553,-0.74735427,-0.8258995,-1.6116776,0.043878965,-0.06680679,-0.15517926
20231225 03:39:27,0.621074,-0.823609,-1.826375,0.044523,-0.104199,-0.114748,-1.392036,31.307640,-39.628777,5.037568,-0.8869143,-0.6853483,-1.6325762,-0.049048632,-0.09507508,-0.10356233
20231225 03:39:27,0.603646,-0.756609,-1.825533,-0.056685,-0.128702,-0.155231,-1.473492,30.836243,-40.134712,5.800554,-0.8864908,-0.59453213,-1.6180098,-0.14383148,-0.121243216,-0.05336822
20231225 03:39:27,0.450015,-0.679296,-1.673645,-0.152566,-0.154271,-0.187192,-1.612934,31.007977,-39.611412,7.281111,-0.8417903,-0.49109638,-1.4067097,-0.22640541,-0.14935136,-0.0028165206
20231225 03:39:27,0.151843,-0.619720,-1.165975,-0.222879,-0.173447,-0.209564,-1.843567,30.997066,-40.148903,9.220087,-0.6198447,-0.4700709,-0.8649729,-0.28555202,-0.17386588,0.024624273
20231225 03:39:27,-0.057669,-0.560967,-0.699905,-0.247382,-0.186231,-0.217021,-2.108253,31.548042,-40.589409,9.876386,-0.4480676,-0.4827282,-0.39726186,-0.30635118,-0.18942809,0.03388095
20231225 03:39:27,-0.194415,-0.497291,-0.373870,-0.283604,-0.243760,-0.225544,-1.983784,31.552574,-40.186546,10.514157,-0.32911673,-0.4715522,-0.08197047,-0.3308903,-0.25178462,0.051686645
20231225 03:39:27,-0.311939,-0.418220,-0.157605,-0.292127,-0.275720,-0.224479,-1.983398,31.360683,-39.906075,10.857577,-0.28729647,-0.43618304,0.14417684,-0.33201534,-0.28527647,0.06086108
20231225 03:39:27,-0.347629,-0.362980,-0.079849,-0.293192,-0.299158,-0.217021,-2.407650,31.143272,-40.164055,11.110487,-0.2773744,-0.39634654,0.21371289,-0.32800478,-0.31035644,0.06556307
20231225 03:39:27,-0.323874,-0.453321,0.164535,-0.285735,-0.313008,-0.220217,-2.530319,32.080711,-40.494392,10.862847,-0.10469124,-0.5082681,0.39465344,-0.32493097,-0.32344866,0.053879753
20231225 03:39:27,-0.302420,-0.515720,0.360405,-0.256970,-0.304485,-0.240459,-2.793854,32.056023,-40.093498,10.666195,0.024091005,-0.58328533,0.5410227,-0.3182881,-0.31013626,0.011670366
20231225 03:39:27,-0.326652,-0.527644,0.565424,-0.200507,-0.289570,-0.276681,-2.830097,31.867836,-40.349510,11.281596,0.12226978,-0.62322533,0.7231381,-0.29343045,-0.28467602,-0.053587645
20231225 03:39:27,-0.522039,-0.402537,0.733442,-0.130194,-0.285309,-0.303315,-2.729683,33.855015,-40.344261,11.764365,0.058775783,-0.5613501,0.9534509,-0.2491591,-0.26489905,-0.11347099
20231225 03:39:28,-0.591423,-0.369470,0.655169,-0.091841,-0.274655,-0.307576,-2.821903,32.346630,-40.916573,12.7085085,-0.044087827,-0.5395859,0.93111825,-0.22002068,-0.24604173,-0.13687657
20231225 03:39:28,-0.814987,-0.130956,0.589014,0.036000,-0.222453,-0.293726,-2.907944,33.280365,-40.710442,13.80219,-0.26403907,-0.36214596,0.9789668,-0.11686395,-0.16705245,-0.2043249
20231225 03:39:28,-0.929597,0.075935,0.412256,0.080745,-0.203277,-0.280942,-3.332962,33.446735,-41.529366,14.611522,-0.47929808,-0.16323334,0.881741,-0.07866388,-0.13927144,-0.22198245
20231225 03:39:28,-1.099795,0.380333,0.077500,0.221371,-0.138290,-0.235132,-3.341160,32.967937,-40.962288,17.136295,-0.8333138,0.10602612,0.7201483,0.037813276,-0.035594586,-0.28541148
20231225 03:39:28,-1.347758,0.691484,-0.365050,0.295945,-0.098873,-0.183996,-3.156120,32.887531,-40.955208,18.921759,-1.3608149,0.4126052,0.5567695,0.10963005,0.023629546,-0.3101864
20231225 03:39:28,-1.493076,0.788433,-0.816002,0.342821,-0.073304,-0.123271,-2.988625,32.425190,-40.655418,20.311924,-1.7868297,0.57404727,0.39018047,0.16929072,0.053842183,-0.31284934
20231225 03:39:28,-1.470792,0.795938,-1.253714,0.340690,-0.075435,-0.060415,-3.139992,32.135601,-41.039940,20.815222,-2.0682354,0.7308743,0.1619429,0.20223688,0.032656718,-0.2771983
20231225 03:39:28,-1.233560,0.753841,-1.543194,0.284227,-0.112722,0.000310,-3.565014,32.301971,-41.858833,19.638214,-2.1029587,0.84727454,-0.13525766,0.2112021,-0.043343313,-0.1948881
20231225 03:39:28,-1.027988,0.651732,-1.652172,0.184084,-0.169186,0.046120,-3.466667,31.637665,-40.876701,16.656906,-2.0255668,0.811646,-0.28815913,0.18615347,-0.14042103,-0.087198526
20231225 03:39:28,-0.272543,0.366110,-1.929188,0.060503,-0.213930,0.068492,-3.733925,31.630455,-41.950676,12.85061,-1.7153386,0.6188879,-0.9929725,0.122572556,-0.21316715,0.022700049
20231225 03:39:28,-0.035757,0.291372,-1.942603,-0.006613,-0.228845,0.070623,-3.626999,31.253059,-41.255104,10.521293,-1.5635856,0.5026369,-1.1888037,0.07636384,-0.23499413,0.07413136
20231225 03:39:28,0.594485,-0.063741,-1.627823,-0.187723,-0.243760,0.034401,-3.564243,31.918198,-41.297905,5.6817822,-0.8004315,-0.001479499,-1.5259914,-0.094000824,-0.24946658,0.17808634
20231225 03:39:28,0.796186,-0.278167,-1.185532,-0.260166,-0.248021,-0.014605,-4.189278,32.341236,-41.197762,5.1869993,-0.26435596,-0.2603284,-1.3815677,-0.19310929,-0.25022635,0.18846378
20231225 03:39:28,0.880860,-0.336640,-0.647869,-0.286800,-0.262936,-0.080657,-3.424416,31.554573,-41.540718,4.2188168,0.21749619,-0.32725397,-1.0523901,-0.26488703,-0.26428697,0.14782272
20231225 03:39:28,0.810787,-0.252122,-0.239302,-0.271885,-0.289570,-0.162689,-4.164955,32.068104,-41.849541,5.9250116,0.45690894,-0.23014356,-0.6937735,-0.30622402,-0.29222494,0.07995101
20231225 03:39:28,0.692123,-0.186200,-0.074502,-0.237794,-0.319400,-0.247916,-4.332066,32.338554,-41.868858,7.4725213,0.47448397,-0.15250717,-0.49759606,-0.32966244,-0.31958434,0.0057352483
20231225 03:39:28,0.207916,0.381208,0.144563,-0.188788,-0.337511,-0.322491,-4.251381,33.193729,-41.923882,9.923494,0.21879567,0.38463753,-0.08720601,-0.32989442,-0.32518902,-0.05870779
20231225 03:39:28,-0.297606,0.945960,0.172848,-0.144043,-0.326857,-0.362974,-4.569088,32.790813,-41.766777,13.358884,-0.2139897,0.8676253,0.17575502,-0.311451,-0.29209495,-0.09330979
20231225 03:39:28,-0.777377,1.415538,0.184916,-0.123802,-0.315138,-0.366170,-4.604565,32.218845,-41.461861,15.825138,-0.6550244,1.2145244,0.41120908,-0.28745,-0.2643529,-0.09734237
20231225 03:39:28,-1.166757,1.783436,0.383389,-0.077992,-0.295962,-0.326752,-4.984375,32.668427,-42.030861,17.705559,-0.89152837,1.4213452,0.7192184,-0.22281317,-0.23538196,-0.09691996
20231225 03:39:28,-1.379970,1.906331,0.373051,-0.040705,-0.255479,-0.274550,-5.002304,32.478386,-42.018639,18.472303,-1.0982023,1.4729501,0.8151546,-0.16433468,-0.19632241,-0.095894024
20231225 03:39:28,-1.501801,1.951282,0.554688,-0.014071,-0.226714,-0.245786,-4.702911,32.883148,-42.443993,18.246473,-1.0908308,1.4448878,0.99799514,-0.12934574,-0.1696582,-0.1054053
20231225 03:39:28,-1.510903,1.788142,0.787854,0.087137,-0.167055,-0.166950,-4.878986,33.058582,-42.457191,17.90202,-0.9152256,1.2611781,1.1873636,-0.015453547,-0.11077069,-0.13794516
20231225 03:39:28,-1.488247,1.728440,0.884606,0.186215,-0.151075,-0.129663,-4.844543,32.304806,-42.273674,17.872702,-0.82776445,1.1974903,1.2457747,0.07882141,-0.08358019,-0.18362868
20231225 03:39:28,-1.403062,1.480972,0.737093,0.294880,-0.120180,-0.103029,-5.099884,32.758915,-42.439827,18.112741,-0.80826926,1.0015444,1.1428676,0.16779256,-0.036796793,-0.24749006
20231225 03:39:28,-1.350821,1.315949,0.406095,0.399284,-0.066912,-0.089180,-5.196693,32.655666,-42.300072,18.406195,-0.9502791,0.9119201,0.9245566,0.23822272,0.033452675,-0.32497242
20231225 03:39:28,-1.238116,1.153591,0.111701,0.486643,-0.022168,-0.088114,-5.126778,32.473854,-42.421501,18.270697,-1.0224323,0.8427503,0.70192635,0.28592935,0.09164633,-0.4003234
20231225 03:39:28,-1.191443,1.089414,-0.040114,0.548433,0.010858,-0.093441,-5.119999,31.818798,-42.780586,19.052021,-1.0733886,0.8120921,0.6046928,0.3056457,0.14001295,-0.46422908
20231225 03:39:28,-1.177427,1.106246,-0.399430,0.569740,0.028969,-0.093441,-4.970436,31.166416,-42.468559,20.261293,-1.3232944,0.89901584,0.3987316,0.29729083,0.16915523,-0.49569914
20231225 03:39:28,-1.339611,1.626638,-0.806216,0.555890,0.025773,-0.055088,-5.146896,31.533737,-42.762245,21.690334,-1.8658841,1.4607664,0.23133898,0.29269677,0.15798055,-0.4765225
20231225 03:39:28,-1.387856,2.079719,-1.129669,0.441898,-0.032821,0.024813,-4.971588,31.742085,-43.309975,22.191189,-2.2749746,1.98752,0.09348655,0.2810783,0.0533669,-0.3425686
20231225 03:39:28,-1.321141,2.283738,-1.283467,0.353474,-0.066912,0.073819,-4.883358,31.558426,-43.163139,21.521395,-2.3957691,2.2600744,-0.01760459,0.27201867,-0.01630892,-0.24354532
20231225 03:39:28,-0.883233,2.542729,-1.523924,0.122294,-0.131898,0.162243,-5.237309,30.967319,-43.262047,17.35227,-2.2608867,2.6714668,-0.4026224,0.22592124,-0.14631274,-0.002858512
20231225 03:39:28,0.164752,2.560493,-1.208294,-0.277212,-0.169186,0.212314,-4.946499,31.085175,-43.400810,8.485089,-1.0485998,2.6292381,-1.0214864,0.028622702,-0.1914956,0.36137617
20231225 03:39:28,0.585441,2.281804,-0.375706,-0.488151,-0.152140,0.188876,-5.120380,32.010685,-43.061043,6.755318,0.036030322,2.2995822,-0.8602905,-0.16358487,-0.16496384,0.50672275
20231225 03:39:28,0.651893,2.032374,0.141150,-0.566987,-0.132964,0.166504,-4.971588,31.742085,-43.309975,6.50668,0.5089607,2.040364,-0.5391118,-0.26118132,-0.14583592,0.5383874
20231225 03:39:28,0.611959,1.477990,1.350265,-0.657541,-0.093546,0.118563,-4.911022,31.657143,-43.705742,7.2707233,1.2727721,1.4639721,0.5409996,-0.44706714,-0.11623481,0.5032414
20231225 03:39:28,0.446563,0.882536,2.552620,-0.602143,-0.073304,0.073819,-5.429897,32.086563,-43.470985,8.893535,1.6901904,0.8286222,1.7980218,-0.47218236,-0.10350358,0.38721922
20231225 03:39:28,0.212757,0.102464,3.589643,-0.456190,-0.098873,0.078080,-5.147659,31.917515,-43.323174,9.198567,1.915844,0.003953159,2.9841537,-0.35855284,-0.12639092,0.30194747
20231225 03:39:28,-0.040890,-0.804099,4.092280,-0.359244,-0.101003,0.092995,-5.191067,32.576271,-43.500572,10.218225,1.7019279,-0.9390166,3.8019676,-0.28382012,-0.1292739,0.25013414
20231225 03:39:28,-0.016621,-1.969788,4.230648,-0.010875,-0.071174,0.156916,-5.095024,33.063301,-44.201271,9.554662,1.466618,-2.0541682,4.2342896,0.044716362,-0.07488761,0.1602588
20231225 03:39:28,0.076138,-2.333521,4.129048,0.114836,-0.062651,0.164373,-5.385456,32.753551,-43.782036,9.539755,1.4430164,-2.3937993,4.1946383,0.16275692,-0.059793126,0.12609546
20231225 03:39:28,0.393189,-2.948952,3.711244,0.347082,-0.070108,0.138805,-5.094643,32.871410,-43.920799,7.270862,1.4803195,-2.9578972,3.758747,0.37283367,-0.06638115,0.037783355
20231225 03:39:28,0.775507,-3.402326,2.969802,0.662425,-0.113788,-0.013540,-4.654648,32.528778,-44.028038,4.5186872,1.6423311,-3.3962276,2.8211737,0.6236832,-0.12980355,-0.21253611
20231225 03:39:28,0.963002,-3.498544,1.995339,0.750849,-0.126572,-0.075330,-5.174938,31.824348,-43.585320,4.903129,1.622777,-3.5003936,1.7357746,0.66176647,-0.14645116,-0.34995922
20231225 03:39:28,0.943662,-3.259269,0.759841,0.862711,-0.129768,-0.179734,-5.123722,31.836277,-44.255424,4.4537854,1.1372895,-3.2735734,0.4912398,0.69343156,-0.1561558,-0.5320562
20231225 03:39:28,0.892643,-2.805597,-0.217824,0.801986,-0.163859,-0.275616,-5.601379,30.856861,-44.196251,6.2404113,0.5654645,-2.8047302,-0.48578092,0.4568271,-0.16303022,-0.69929945
20231225 03:39:28,0.705841,-1.756274,-1.753983,0.599570,-0.176643,-0.285204,-5.813698,30.844101,-44.465477,7.186224,-0.7699338,-1.7192113,-1.5548586,0.20471704,-0.16373898,-0.6158303
20231225 03:39:28,0.629391,-1.434665,-2.090967,0.466401,-0.171316,-0.278812,-5.425304,30.681431,-44.183052,7.3626895,-1.1636575,-1.3665638,-1.6944969,0.08949204,-0.15403175,-0.52115357
20231225 03:39:28,0.493531,-0.816323,-2.452218,0.169169,-0.129768,-0.236198,-5.973644,30.267601,-44.563408,9.576425,-1.6167003,-0.6598677,-1.7638851,-0.07995911,-0.109584615,-0.2621132
20231225 03:39:28,0.346124,-0.532413,-2.254065,-0.125932,-0.073304,-0.169081,-5.840591,30.559040,-44.447136,10.919032,-1.4759631,-0.33364648,-1.6051521,-0.2042889,-0.067828506,0.0011833906
20231225 03:39:28,0.171838,-0.507222,-1.515737,-0.425295,-0.008318,-0.050827,-5.682446,30.193573,-44.421715,10.998007,-0.8764883,-0.38823932,-1.1289002,-0.34320766,-0.035647042,0.25708792
20231225 03:39:28,0.105532,-0.621506,-0.629876,-0.471105,0.010858,-0.018867,-5.865685,31.215946,-44.356300,10.625664,-0.29649723,-0.57501525,-0.44950944,-0.36797526,-0.019732106,0.29423815
20231225 03:39:28,0.142939,-0.738636,0.226222,-0.493478,0.036427,0.026943,-5.538242,31.330109,-43.958580,9.765539,0.28088108,-0.7379818,0.19637908,-0.38373443,0.0057724654,0.30814123
20231225 03:39:28,0.159596,-0.774234,0.889110,-0.438079,0.022577,0.048250,-5.416340,30.776451,-44.189156,9.4441185,0.6791152,-0.7989873,0.72101843,-0.3280431,-0.003533011,0.291863
20231225 03:39:28,0.237848,-0.628141,1.186709,-0.350721,-0.024298,0.067427,-5.689610,31.040516,-44.343102,8.888677,0.90736556,-0.65330905,0.8880334,-0.24363992,-0.040950157,0.26287895
20231225 03:39:28,0.503105,-0.298868,0.947093,-0.263362,-0.104199,0.092995,-5.432468,31.528378,-44.104439,6.7603745,0.98800385,-0.30221066,0.44660968,-0.14622828,-0.10865116,0.24634948
20231225 03:39:28,0.593713,-0.205600,0.757412,-0.256970,-0.110591,0.102583,-5.397373,32.292233,-44.689827,5.9594836,0.9404471,-0.20568982,0.219848,-0.13270131,-0.11159413,0.25107467
20231225 03:39:28,0.818656,-0.055694,0.536893,-0.271885,-0.098873,0.117498,-5.387642,32.003475,-44.135002,4.634004,0.9711999,-0.06265061,-0.113196105,-0.13424926,-0.09181677,0.27064523
20231225 03:39:28,0.941038,-0.067180,0.597845,-0.310238,-0.037082,0.106844,-5.777836,31.224178,-44.489937,4.962883,1.1095783,-0.078190826,-0.09149209,-0.18279445,-0.028171659,0.27516785
20231225 03:39:28,0.844150,-0.395540,1.272626,-0.282539,0.002335,0.080211,-5.821625,32.074821,-44.947807,6.0088377,1.410765,-0.39540446,0.608737,-0.18893227,0.004631597,0.22429472
20231225 03:39:28,0.747269,-0.516558,1.558434,-0.245251,0.015120,0.065296,-5.484837,32.092113,-44.275719,7.483659,1.4655839,-0.5213748,0.9728174,-0.17377758,0.008753182,0.18303305
20231225 03:39:28,0.241806,-0.816722,2.016602,-0.133390,0.017250,0.042924,-5.952110,32.341572,-44.430641,9.803142,1.2630982,-0.8660985,1.7033643,-0.09325419,0.008770863,0.102048084
20231225 03:39:28,0.089904,-0.933120,1.990534,0.011497,0.003401,0.041858,-5.236279,32.293064,-43.750496,9.686612,1.1212325,-1.0004022,1.7797151,0.030977514,0.0025408417,0.029208092
20231225 03:39:28,-0.066179,-1.092637,1.771312,0.173430,-0.007253,0.053577,-5.635822,31.610634,-44.379784,10.475954,0.89959395,-1.1671034,1.6963565,0.17641729,0.0024878343,-0.043224845
20231225 03:39:28,-0.000898,-1.165631,1.192535,0.326840,-0.006187,0.057838,-5.636585,31.994411,-44.940712,9.885798,0.70122325,-1.210688,1.1482011,0.30483595,0.01149349,-0.1315307
20231225 03:39:28,0.081325,-1.122446,0.409737,0.439767,0.009793,0.049316,-5.629425,31.147469,-45.019325,9.79127,0.36094165,-1.1327884,0.42533582,0.38004312,0.033323526,-0.22774252
20231225 03:39:28,0.167533,-1.002647,-0.448147,0.490904,0.020446,0.030139,-5.566288,31.620716,-44.781654,9.057,-0.12570839,-0.9733621,-0.3246101,0.38843244,0.04298028,-0.30321708
20231225 03:39:28,0.270000,-0.839792,-1.210680,0.470663,0.034296,0.001375,-5.435040,30.970188,-44.737892,8.873963,-0.64408374,-0.76903194,-0.93405175,0.32567537,0.055398215,-0.34192282
20231225 03:39:28,0.282328,-0.545286,-1.829964,0.386500,0.063060,-0.031651,-5.234257,30.329739,-45.095985,9.671733,-1.1848302,-0.40529677,-1.3118775,0.21865244,0.086404726,-0.32390708
20231225 03:39:28,0.150511,-0.280141,-2.186064,0.258658,0.097151,-0.045500,-5.558739,30.581879,-44.579796,11.822563,-1.6101173,-0.047005698,-1.3768282,0.11037786,0.120604165,-0.24512371
20231225 03:39:28,-0.078360,-0.051205,-2.298967,0.107379,0.140831,-0.028455,-5.180466,30.899857,-45.132668,13.434612,-1.8462896,0.25224566,-1.2806965,0.023458377,0.15363322,-0.12206071
20231225 03:39:28,-0.247897,-0.005792,-1.955201,-0.036443,0.156811,0.008832,-5.437225,30.220112,-45.090843,14.188514,-1.6418344,0.23337057,-1.0134288,-0.03788229,0.14902908,0.009121712
20231225 03:39:28,-0.306814,-0.072992,-1.516103,-0.171742,0.142961,0.074884,-5.437611,30.412003,-45.371330,14.011495,-1.2866334,0.08098946,-0.77605796,-0.08229229,0.11122527,0.15089226
20231225 03:39:28,-0.345248,-0.200837,-1.132025,-0.191984,0.144027,0.099387,-4.634315,30.563606,-45.105278,12.744651,-1.0145979,-0.10657628,-0.49816483,-0.08160368,0.1087191,0.18246883
20231225 03:39:28,-0.272016,-0.328044,-0.756412,-0.201572,0.148288,0.149458,-4.977112,30.817596,-44.857338,11.663055,-0.6826557,-0.28301072,-0.30428228,-0.058448724,0.11423384,0.22295433
20231225 03:39:28,-0.058501,-0.445679,-0.477311,-0.181331,0.153615,0.187811,-4.720741,31.689232,-45.179619,9.790825,-0.33295396,-0.41567543,-0.25243932,-0.018659666,0.1268188,0.23960651
20231225 03:39:28,0.121649,-0.500413,-0.436341,-0.147239,0.174922,0.214445,-4.783108,30.832207,-44.856361,8.588394,-0.17764941,-0.47202545,-0.34627655,0.025776029,0.15654846,0.23666428
20231225 03:39:28,0.316079,-0.519473,-0.412013,-0.108887,0.203686,0.224033,-4.465405,31.235126,-45.013466,7.012,-0.022323549,-0.49544507,-0.4682455,0.06154105,0.19286706,0.21984649
20231225 03:39:28,0.437567,-0.433599,-0.344447,-0.073730,0.220732,0.212314,-4.492298,30.950069,-44.995125,6.3579826,0.10200554,-0.41584736,-0.5119692,0.08327545,0.21439515,0.18772286
20231225 03:39:28,0.469433,-0.309687,-0.324903,-0.047097,0.206882,0.197399,-3.847530,31.659031,-45.034996,5.6681337,0.12865482,-0.29081386,-0.53429174,0.09549763,0.20116946,0.16080794
20231225 03:39:28,0.479138,-0.178075,-0.469059,-0.040705,0.173856,0.195268,-4.192516,31.162941,-45.140007,5.637561,0.018363178,-0.16146515,-0.65620136,0.10423755,0.16971642,0.15526402
20231225 03:39:28,0.598843,-0.027506,-0.649020,-0.065208,0.137635,0.198464,-4.343117,30.489578,-44.963585,4.4760065,-0.044553846,-0.030602794,-0.8790766,0.09646962,0.13829133,0.17753156
20231225 03:39:28,0.861379,0.100896,-0.780517,-0.102495,0.103544,0.187811,-3.743942,31.107220,-45.533821,1.7926636,0.024953365,0.049084403,-1.1641107,0.0699029,0.112681106,0.20102406
20231225 03:39:28,1.078985,0.239002,-0.909640,-0.173873,0.080106,0.143066,-4.043724,30.894344,-45.388939,0.7491729,0.06682223,0.13603862,-1.4123477,-0.0069418326,0.09618965,0.22418514
20231225 03:39:28,1.143961,0.361317,-0.929294,-0.198376,0.082237,0.126021,-4.105057,31.363060,-45.554115,0.86086434,0.10601896,0.25577775,-1.4749806,-0.036581263,0.098302916,0.2306262
20231225 03:39:28,1.074811,0.477604,-0.760945,-0.244186,0.084367,0.089799,-3.926411,31.745819,-44.907478,1.6774038,0.19753015,0.41024512,-1.3140533,-0.09817482,0.09627479,0.23794113
20231225 03:39:28,0.900703,0.522897,-0.524086,-0.279343,0.084367,0.062100,-3.283836,31.704704,-45.300316,2.59345,0.2605323,0.5048578,-1.0268533,-0.14953147,0.08863672,0.24061483
20231225 03:39:28,0.685434,0.510685,-0.189374,-0.293192,0.073714,0.048250,-3.486805,31.595074,-45.295174,4.273068,0.35602197,0.51838255,-0.6399566,-0.17760102,0.070681535,0.23465185
20231225 03:39:28,0.513773,0.465555,0.132183,-0.272951,0.067322,0.041858,-3.671844,31.675488,-45.302269,5.377342,0.4574679,0.47425926,-0.283643,-0.17369896,0.060191415,0.21104343
20231225 03:39:28,0.364157,0.409137,0.349503,-0.221814,0.067322,0.034401,-3.969818,32.404579,-45.084877,6.5827537,0.49040118,0.41058868,-0.0182648,-0.14493051,0.057751853,0.16738234
20231225 03:39:28,0.196448,0.403580,0.445877,-0.144043,0.076910,0.030139,-3.520859,32.156967,-45.198204,7.1080236,0.42327136,0.39200544,0.16299084,-0.09134097,0.0676783,0.11090577
20231225 03:39:28,0.089854,0.444852,0.401449,-0.057750,0.082237,0.026943,-3.823208,31.385902,-45.686775,8.374993,0.30923465,0.424763,0.18469402,-0.029483845,0.076465294,0.049798336
20231225 03:39:28,-0.049386,0.592083,0.140429,0.018955,0.096086,0.031205,-3.186638,31.616066,-45.159584,8.233888,0.020131066,0.5753394,0.07326807,0.028392395,0.094736025,-0.0010298714
20231225 03:39:28,-0.053567,0.812540,-0.213174,0.073288,0.117393,0.036531,-3.741756,31.857300,-45.180840,8.987783,-0.2547616,0.82058144,-0.19220252,0.06746654,0.11925067,-0.041229106
20231225 03:39:28,-0.049073,1.005185,-0.591412,0.096725,0.146157,0.030139,-3.336586,32.460335,-45.752068,8.953257,-0.5661549,1.047178,-0.44718826,0.07284354,0.14990944,-0.068585075
20231225 03:39:28,-0.070431,1.270388,-0.922058,0.082876,0.181314,0.015224,-3.196373,31.904827,-45.714424,9.257611,-0.88243186,1.3456521,-0.6434642,0.045785867,0.1849313,-0.0734475
20231225 03:39:28,-0.167170,1.508183,-1.081105,0.028543,0.215405,0.001375,-3.171280,31.247917,-45.805260,10.589419,-1.129272,1.6058676,-0.6906749,-0.007608874,0.2153649,-0.046003982
20231225 03:39:28,-0.308285,1.675619,-0.963548,-0.033247,0.244169,-0.001821,-2.729485,31.847252,-45.839973,11.247627,-1.168774,1.7492561,-0.5497283,-0.056286708,0.23678564,-0.004701563
20231225 03:39:28,-0.463798,1.765538,-0.694482,-0.067338,0.278261,0.012028,-2.860348,32.305893,-45.603279,12.055278,-1.0835984,1.7777888,-0.31510463,-0.07558288,0.26278615,0.022016982
20231225 03:39:29,-0.665222,1.868673,-0.269395,-0.058816,0.312352,0.045054,-2.464413,31.104389,-45.118996,12.240638,-0.922081,1.782126,0.06766282,-0.053228647,0.29109344,0.029724788
20231225 03:39:29,-0.720541,1.759715,-0.021013,-0.026855,0.337920,0.091930,-2.438671,31.965115,-45.978752,12.327951,-0.7699865,1.6243675,0.26372433,-0.0033043772,0.3128693,0.03173277
20231225 03:39:29,-0.705236,1.621732,0.090742,0.021086,0.364554,0.137740,-1.928379,31.248783,-45.926918,11.433707,-0.64903206,1.4825557,0.35701546,0.060760085,0.3404858,0.027382538
20231225 03:39:29,-0.611851,1.570977,0.138850,0.077549,0.401841,0.175027,-2.252480,31.309036,-45.130241,11.171216,-0.5302702,1.4478513,0.33238128,0.124318525,0.3810383,0.0073901266
20231225 03:39:29,-0.491956,1.647275,0.126473,0.134012,0.430605,0.196334,-1.583004,31.552982,-45.541420,10.266654,-0.4588629,1.5432221,0.2520991,0.1751584,0.41330376,-0.021552458
20231225 03:39:29,-0.453173,1.874891,-0.066367,0.155319,0.443390,0.212314,-1.418850,30.916233,-46.436028,10.669653,-0.61626655,1.794028,0.080640554,0.19455741,0.42328915,-0.03716363
20231225 03:39:29,-0.515377,2.194625,-0.169617,0.100987,0.418887,0.229359,-1.303730,31.017635,-46.307518,10.637727,-0.7844492,2.1157818,0.042161554,0.17528574,0.38859594,0.014367074
20231225 03:39:29,-0.385853,2.210381,-0.285136,-0.027920,0.337920,0.252797,-1.100761,31.127262,-46.312660,9.160258,-0.7499528,2.1756976,-0.09650396,0.1324529,0.2971282,0.14449547
20231225 03:39:29,-0.106376,2.011348,-0.300289,-0.187723,0.280391,0.290084,-1.064518,31.315449,-46.056648,6.408241,-0.46859232,2.0168347,-0.2546735,0.0762105,0.24045065,0.30899304
20231225 03:39:29,0.410616,1.663837,0.006036,-0.341133,0.260150,0.302868,-0.419750,32.024418,-46.096519,1.9517609,0.24635406,1.6718129,-0.33427995,-0.018369168,0.24551082,0.44984016
20231225 03:39:29,0.851347,1.299116,0.584039,-0.452994,0.268672,0.250666,-0.897408,31.045002,-46.037331,0.68889606,1.026462,1.2978624,-0.15971273,-0.16190754,0.27137345,0.48904538
20231225 03:39:29,0.964329,0.890489,1.321851,-0.500935,0.296372,0.149458,-0.454842,31.260563,-45.511101,0.760006,1.5738907,0.8901227,0.42729992,-0.3006587,0.29375258,0.42524844
20231225 03:39:29,0.751396,0.596174,2.209227,-0.476432,0.319809,0.038662,-0.173759,31.667175,-46.204720,2.0653083,1.8565092,0.5724139,1.3771421,-0.37760955,0.30424282,0.29200524
20231225 03:39:29,0.384782,0.290882,3.131127,-0.368832,0.310221,-0.049762,-0.434723,32.200680,-45.170357,4.457641,1.9459113,0.18762808,2.4423144,-0.35316667,0.2866562,0.12967601
20231225 03:39:29,-0.163376,0.083113,3.707465,-0.196245,0.284653,-0.081722,0.216434,32.446472,-45.849785,6.404746,1.646427,-0.16814002,3.287494,-0.22867468,0.26542714,-0.0028360188
20231225 03:39:29,-0.675551,-0.273932,3.892466,0.030674,0.278261,-0.030585,0.401474,32.366062,-45.842690,7.38122,1.207191,-0.62973523,3.7638934,-0.0061414707,0.28131786,-0.07276816
20231225 03:39:29,-0.707249,-0.861020,4.011403,0.286357,0.269738,0.069557,0.313244,32.549725,-45.989525,7.7688527,1.0722771,-1.201599,4.0112925,0.27179515,0.30150536,-0.090409674
20231225 03:39:29,-0.554033,-1.514391,3.651100,0.515407,0.198359,0.167569,0.504677,32.006142,-46.622002,6.6261907,0.99352795,-1.7537061,3.7124949,0.5290831,0.24948265,-0.07098997
20231225 03:39:29,-0.114536,-2.194617,2.996262,0.680536,0.098217,0.236817,0.372395,31.330929,-46.177330,4.413277,1.0538591,-2.288838,2.9793293,0.7166314,0.14429095,-0.036273256
20231225 03:39:29,0.513519,-2.922879,2.199226,0.797724,-0.005122,0.248536,0.742851,30.978218,-45.882668,0.4655024,1.2608966,-2.9285965,1.9117666,0.83459127,0.0108997235,-0.04022692
20231225 03:39:29,1.046413,-3.479550,1.314584,0.860580,-0.107395,0.202726,0.316799,29.818844,-46.213142,-2.2480502,1.398731,-3.4940464,0.7441663,0.87655115,-0.1298152,-0.110491395
20231225 03:39:29,1.409475,-3.667215,0.401770,0.897867,-0.181970,0.126021,0.625542,30.126740,-46.364159,-5.5557456,1.3363706,-3.7488906,-0.50752366,0.87006235,-0.24551028,-0.2503137
20231225 03:39:29,1.650764,-3.506079,-0.638413,0.881887,-0.208603,0.023747,0.077587,29.521027,-46.464027,-6.5061383,0.89568174,-3.6878328,-1.7239809,0.76065814,-0.2955933,-0.44536746
20231225 03:39:29,1.703583,-2.893661,-1.616366,0.746588,-0.234172,-0.085984,-0.233345,28.463055,-46.666008,-6.7065454,0.07819569,-3.1811543,-2.5820312,0.5081812,-0.31716788,-0.5562399
20231225 03:39:29,1.498120,-2.281691,-2.435666,0.502623,-0.277851,-0.197845,-0.136536,28.566299,-46.805763,-4.7024565,-1.0158541,-2.546276,-2.845539,0.16046564,-0.32329336,-0.5237037
20231225 03:39:29,1.155375,-1.514851,-2.957835,0.173430,-0.269328,-0.295857,-0.860180,27.944130,-46.638374,1.0989606,-1.7366464,-1.5029821,-2.6382508,-0.13981324,-0.26801118,-0.30974445
20231225 03:39:29,0.619978,-0.818482,-2.880095,-0.180265,-0.239499,-0.368301,-0.539902,28.905231,-46.162025,8.117732,-1.831509,-0.3920517,-2.1127295,-0.37027204,-0.2070037,-0.04923898
20231225 03:39:29,-0.175178,-0.345062,-2.029863,-0.497739,-0.211800,-0.397065,-0.822132,29.074280,-46.309853,14.003681,-1.5187532,0.043043494,-1.1102663,-0.5734278,-0.2118817,0.1545862
20231225 03:39:29,-0.997157,-0.083393,-0.888672,-0.727854,-0.193689,-0.360843,-0.637478,29.185757,-46.583229,16.937628,-1.2849402,-0.11972545,0.07278341,-0.723495,-0.2761836,0.28334293
20231225 03:39:29,-1.726099,-0.078701,0.375458,-0.819474,-0.152140,-0.258570,-0.855804,29.444279,-45.932426,18.595146,-1.145672,-0.6249504,1.3467844,-0.7679651,-0.3136562,0.33871812
20231225 03:39:29,-2.139664,-0.149583,1.432842,-0.773664,-0.071174,-0.098768,-1.165699,29.712048,-46.622841,18.845402,-1.0421581,-0.9957564,2.338324,-0.6884031,-0.26544145,0.35905975
20231225 03:39:29,-2.330909,-0.441998,2.553395,-0.617058,-0.041344,0.073819,-0.987438,30.286697,-46.256660,17.601742,-0.78716874,-1.4276065,3.3774178,-0.4986398,-0.2159083,0.37275347
20231225 03:39:29,-2.218664,-0.719129,3.200432,-0.388008,-0.073304,0.226163,-0.881664,30.484962,-46.402534,16.188108,-0.44798863,-1.6538436,3.929513,-0.23361889,-0.19567509,0.39043716
20231225 03:39:29,-1.829612,-0.882640,3.084227,-0.140847,-0.102069,0.346548,-0.963116,30.013565,-46.908455,13.948806,-0.094429374,-1.5762608,3.6901698,0.04672853,-0.16659492,0.38460526
20231225 03:39:29,-1.129661,-0.975672,2.412512,0.070092,-0.094611,0.411534,-1.075283,30.278465,-46.123039,10.496584,0.29755956,-1.3399137,2.7727387,0.27194834,-0.118407354,0.32999033
20231225 03:39:29,-0.335321,-1.130963,1.506898,0.216044,-0.051997,0.405142,-1.032265,29.811600,-46.226097,6.693781,0.5804175,-1.2380612,1.5555918,0.40084094,-0.055243015,0.22975619
20231225 03:39:29,0.239433,-1.184900,0.727123,0.292749,-0.012579,0.330568,-0.802784,30.398174,-46.530052,3.8002937,0.6492505,-1.1953287,0.5232375,0.42921382,-0.009664029,0.10421702
20231225 03:39:29,0.515136,-1.194613,0.061384,0.320448,0.030034,0.218706,-1.217304,29.892006,-46.233192,3.3284636,0.47494295,-1.1792665,-0.20843206,0.3866276,0.034753524,-0.022040322
20231225 03:39:29,0.494722,-1.101789,-0.421700,0.319383,0.064126,0.098322,-0.919327,29.162922,-46.450569,4.4009943,0.15752926,-1.0561439,-0.5747779,0.30542305,0.07610766,-0.13295674
20231225 03:39:29,0.204360,-0.947875,-0.800968,0.293815,0.075844,0.002440,-0.689465,29.557610,-46.474052,7.010329,-0.30625883,-0.85376173,-0.6387688,0.21176116,0.10215745,-0.20362158
20231225 03:39:29,-0.122181,-0.729257,-1.040113,0.252266,0.070518,-0.046566,-1.025101,28.964649,-46.304726,10.039838,-0.7086575,-0.6042595,-0.5601235,0.14080858,0.10752549,-0.21712273
20231225 03:39:29,-0.331363,-0.596112,-1.260130,0.201129,0.040688,-0.065742,-1.058773,29.334652,-45.927299,11.6846895,-1.0242974,-0.43754303,-0.5343521,0.08713879,0.07972692,-0.19518074
20231225 03:39:29,-0.517140,-0.418559,-1.535937,0.136143,0.026838,-0.064677,-0.867340,28.791073,-46.559746,13.306548,-1.3747718,-0.20648244,-0.54909325,0.03933536,0.060658734,-0.14748801
20231225 03:39:29,-0.612813,-0.155370,-1.688900,0.060503,0.028969,-0.039108,-1.106556,28.493252,-46.810646,14.353301,-1.6049978,0.084733844,-0.5719813,0.0048017744,0.046214,-0.075276
20231225 03:39:29,-0.616461,0.050351,-1.741460,-0.017267,0.039623,-0.011409,-1.052765,29.063370,-46.847313,14.042849,-1.6973577,0.2967619,-0.6116018,-0.027489739,0.037651464,9.031175E-5
20231225 03:39:29,-0.592396,0.191540,-1.700938,-0.097168,0.057734,0.019486,-0.777309,29.549377,-46.340431,13.122449,-1.6841016,0.42074153,-0.6246374,-0.05848382,0.036534775,0.07869699
20231225 03:39:29,-0.535646,0.333006,-1.548482,-0.170677,0.074779,0.047185,-0.690231,29.941387,-47.034996,12.05396,-1.5553428,0.51785636,-0.61287403,-0.08830041,0.03889247,0.15008564
20231225 03:39:29,-0.422270,0.361811,-1.317264,-0.233533,0.084367,0.070623,-0.883854,29.734890,-46.755501,11.083463,-1.3029928,0.50114363,-0.5822044,-0.11541083,0.039617635,0.21045092
