Timestamp,linacce_x,linacce_y,linacce_z,gyro_x,gyro_y,gyro_z,X-magnetometer,Y-magnetometer,Z-magnetometer,Yaw, worldXAccel,worldYAccel,worldZAccel,worldXgyro,worldYgyro,worldZgyro
20231225 03:37:02,-0.255713,1.110123,-0.320076,-0.147239,-0.105265,0.128151,-3.647102,-30.514671,-0.515327,170.25638,-0.41614705,1.1105694,0.27090678,-0.012907147,-0.10751354,0.027155563
20231225 03:37:02,-0.270461,-0.525687,-0.314377,0.438702,0.271869,-0.271354,-3.797707,-31.188042,-0.338905,171.32684,-0.37742817,-0.526248,0.47436953,0.17634317,0.3144498,-0.08001305
20231225 03:37:02,-0.453497,-0.688700,-0.465275,0.517538,0.242039,-0.293726,-3.391384,-31.160667,-0.068703,172.3517,-0.59049296,-0.6937734,0.7143293,0.22178298,0.3109476,-0.10329908
20231225 03:37:02,-0.611823,-0.747112,-0.711531,0.564413,0.177053,-0.312903,-3.549141,-30.987091,0.186340,171.99962,-0.8469469,-0.7446472,1.0137672,0.23510806,0.27024078,-0.12565705
20231225 03:37:02,-0.698457,-0.738055,-0.915548,0.585720,0.107805,-0.326752,-3.000805,-30.573265,0.566696,173.25314,-1.0373936,-0.7211532,1.2127182,0.23554802,0.2135075,-0.13214868
20231225 03:37:02,-0.639302,-0.566840,-1.037168,0.614484,0.024708,-0.332079,-3.114391,-31.442215,1.560081,173.435,-1.1040986,-0.5274823,1.2416859,0.23458153,0.12655595,-0.16800937
20231225 03:37:02,-0.407217,-0.248331,-1.371072,0.607027,-0.050932,-0.339536,-2.956245,-31.807686,1.585510,173.27924,-1.2445952,-0.16648126,1.2566308,0.18097101,0.024854073,-0.20047519
20231225 03:37:02,0.010815,0.088476,-1.736014,0.528191,-0.116984,-0.374693,-2.653126,-31.420395,2.635017,173.47203,-1.32696,0.14190632,1.0910788,0.054920137,-0.09187317,-0.15813887
20231225 03:37:02,0.493263,0.519113,-2.003815,0.387565,-0.190493,-0.462051,-2.717033,-31.509872,1.836395,172.0234,-1.3079393,0.43366617,0.7285008,-0.15136778,-0.21706566,-0.027874976
20231225 03:37:02,0.881104,1.201803,-2.228554,0.198999,-0.227780,-0.606939,-2.310711,-31.482498,2.106590,172.15645,-1.3094002,0.95424294,0.33502018,-0.42650038,-0.29006565,0.1661112
20231225 03:37:02,1.001560,1.987390,-2.473032,-0.019398,-0.188362,-0.784852,-1.535080,-31.232178,1.830032,174.13516,-1.5718644,1.7838006,0.18078232,-0.71177155,-0.23882015,0.39425758
20231225 03:37:02,0.552820,3.032341,-2.498844,-0.254840,-0.026429,-0.949981,-1.165001,-31.392998,1.844208,176.47151,-2.2612183,3.2726223,0.53041536,-0.9572611,0.04988055,0.65045106
20231225 03:37:02,-0.564662,4.047994,-2.259078,-0.492412,0.236712,-1.032013,-0.389370,-31.142670,1.567642,-179.4105,-3.3529627,4.3944883,1.5790498,-1.1592708,0.45314723,0.9205525
20231225 03:37:02,-2.031561,4.804636,-1.339616,-0.707613,0.478546,-0.971288,-0.265663,-30.754356,1.409561,-178.70782,-3.954884,4.2565527,2.493613,-1.293205,0.61430323,1.1348625
20231225 03:37:02,-3.170154,4.625698,-0.134276,-0.859957,0.585081,-0.778460,0.358601,-30.793625,0.748482,-178.10966,-3.8795524,3.0617216,2.5789459,-1.2927113,0.5209246,1.1721523
20231225 03:37:02,-3.783833,3.466194,1.066628,-0.896179,0.560578,-0.504665,0.401619,-31.260498,0.645409,-178.41708,-3.312319,1.3768075,1.750426,-1.1418574,0.33118862,0.9804052
20231225 03:37:02,-3.925756,2.083071,1.935356,-0.781122,0.434867,-0.215956,0.927921,-30.827332,-0.717339,-178.814,-2.7568936,-0.06567833,0.6996926,-0.86205995,0.1588555,0.6319915
20231225 03:37:02,-3.707267,1.148324,2.459772,-0.503066,0.295306,0.043989,0.752617,-31.035683,-0.169601,-178.64322,-2.20478,-0.76675844,-0.10095465,-0.4693515,0.08589396,0.23490308
20231225 03:37:02,-3.120462,0.563425,2.417024,-0.140847,0.155746,0.271973,0.409050,-30.397919,-0.482590,-179.53403,-1.5980116,-0.88127625,-0.4387033,-0.017401963,0.051483367,-0.15803257
20231225 03:37:02,-2.209284,0.151386,1.711011,0.200064,0.027904,0.444560,0.046513,-31.275932,-0.294922,179.90302,-0.96880025,-0.6896199,-0.21043122,0.39610028,0.0032612085,-0.4812529
20231225 03:37:02,-1.144240,-0.153422,0.634967,0.451486,-0.074370,0.535114,-0.383362,-31.413948,0.647614,179.4557,-0.53495556,-0.41284475,0.16762972,0.6831151,-0.0633922,-0.6979886
20231225 03:37:02,-0.060008,-0.398863,-0.281820,0.625138,-0.165990,0.538310,-0.285782,-31.694473,1.068810,179.55362,-0.20443778,-0.38620034,0.25732532,0.832554,-0.1540184,-0.81271017
20231225 03:37:02,0.841090,-0.537418,-1.139714,0.719954,-0.249087,0.455213,-0.788528,-32.016983,1.218826,178.0025,-0.17738158,-0.6027701,0.27434653,0.8287464,-0.25907865,-0.81718063
20231225 03:37:02,1.443328,-0.529340,-1.773401,0.736999,-0.326857,0.316718,-0.424461,-31.906525,2.153038,178.12036,-0.35114813,-0.88971937,0.17192113,0.6938271,-0.36659396,-0.7467429
20231225 03:37:02,1.846549,-0.421756,-2.407792,0.691189,-0.386517,0.149458,-0.576210,-32.004227,1.488052,177.4905,-0.76548076,-1.1358311,0.057234168,0.47032484,-0.44995528,-0.6240508
20231225 03:37:02,2.006474,-0.133677,-2.986989,0.572936,-0.428065,-0.007148,-0.910431,-31.463326,1.449425,176.00404,-1.2863259,-1.1693239,0.001537323,0.21102,-0.5039362,-0.4549475
20231225 03:37:02,1.936864,0.088346,-3.472432,0.403546,-0.414216,-0.150970,-0.855877,-31.276985,1.973679,175.31552,-1.8757455,-1.0910264,0.056542993,-0.028319769,-0.49415538,-0.2566846
20231225 03:37:02,1.730479,0.319372,-3.730897,0.201129,-0.356687,-0.294792,-0.980732,-31.089630,1.290352,175.41623,-2.345293,-0.59018755,0.19863856,-0.22929403,-0.42584997,-0.026939616
20231225 03:37:02,1.242095,0.570761,-3.566247,-0.005548,-0.290635,-0.430091,-0.388985,-31.334564,1.848114,178.42477,-2.4815807,0.4168228,0.6502851,-0.38812044,-0.30576196,0.21879517
20231225 03:37:03,0.441983,0.879909,-2.921900,-0.170677,-0.255479,-0.507861,0.131691,-30.822006,1.685867,-178.7139,-2.3112345,1.306852,1.2120359,-0.47915465,-0.19750816,0.41423854
20231225 03:37:03,-0.421659,1.216341,-2.152183,-0.269754,-0.226714,-0.508927,0.307381,-30.805550,1.418602,-178.01208,-2.1750736,1.5654993,1.6490066,-0.5059137,-0.15261832,0.5155933
20231225 03:37:03,-1.081907,1.332911,-1.382095,-0.296388,-0.224584,-0.453529,0.070354,-30.353294,1.520683,-178.48108,-2.021739,1.3735247,1.743483,-0.4647662,-0.16442752,0.5161717
20231225 03:37:03,-1.508254,1.279930,-0.734256,-0.267624,-0.260806,-0.387477,0.395611,-30.989212,1.565430,-177.69699,-1.8560882,1.0291548,1.6312749,-0.38454884,-0.21359867,0.4540095
20231225 03:37:03,-1.773803,1.106756,-0.325003,-0.200507,-0.327922,-0.321426,1.154079,-31.312706,1.862045,-175.7747,-1.74909,0.67943317,1.5291717,-0.27525753,-0.2798915,0.3521626
20231225 03:37:03,-1.787158,1.112328,-0.201905,-0.114214,-0.391843,-0.270289,0.713318,-30.586296,1.408325,-177.06366,-1.6662922,0.66440505,1.4454911,-0.1662759,-0.3310612,0.2575366
20231225 03:37:03,-1.661493,1.328714,-0.332191,-0.035378,-0.416346,-0.243655,1.001945,-31.218513,0.916580,-176.72928,-1.6861186,0.9597867,1.4876585,-0.0922347,-0.3430889,0.17644306
20231225 03:37:03,-1.632216,1.639504,-0.519898,0.017890,-0.417412,-0.227675,0.940228,-30.557899,0.470932,-177.06537,-1.8648348,1.3070598,1.6213441,-0.04249253,-0.33091038,0.1233094
20231225 03:37:03,-1.701755,1.864779,-0.701842,0.040262,-0.389713,-0.203172,0.949577,-30.654770,0.745293,-176.74045,-2.0948846,1.5537304,1.8185205,-0.016678184,-0.30340484,0.08654246
20231225 03:37:03,-1.617356,2.087988,-0.685922,0.045589,-0.342837,-0.162689,1.268051,-30.635628,1.149117,-175.54662,-2.055919,1.8080878,1.7830474,-0.0032851472,-0.27421266,0.05212353
20231225 03:37:03,-1.489317,2.099487,-0.549725,0.056242,-0.295962,-0.125401,1.073662,-30.458359,0.867676,-176.3886,-1.8406125,1.8407782,1.5718241,0.012309611,-0.24386612,0.027144048
20231225 03:37:03,-1.298209,1.916027,-0.374361,0.085006,-0.264002,-0.109421,1.514809,-31.376656,1.601860,-175.03444,-1.517933,1.68803,1.3271226,0.030963369,-0.217118,-0.005997084
20231225 03:37:03,-1.168396,1.701972,-0.276139,0.120163,-0.249087,-0.115813,0.984016,-31.408554,0.928810,-176.86209,-1.3049933,1.4972883,1.1112869,0.045172818,-0.1985208,-0.019872665
20231225 03:37:03,-1.077903,1.617438,-0.271455,0.153189,-0.234172,-0.132859,1.435162,-30.906082,1.168434,-175.53467,-1.2096677,1.4426043,1.0629768,0.049921133,-0.17870232,-0.035926007
20231225 03:37:03,-1.006373,1.547542,-0.338547,0.191541,-0.186231,-0.158427,1.277401,-30.732506,1.423485,-175.7871,-1.1904294,1.4033912,1.049083,0.04699558,-0.12278856,-0.045227416
20231225 03:37:03,-1.031971,1.587604,-0.259229,0.225632,-0.112722,-0.182930,1.365246,-30.724281,1.289848,-175.63873,-1.1688766,1.4156315,1.0160377,0.04255365,-0.039201055,-0.048246346
20231225 03:37:03,-1.179671,1.589382,-0.062598,0.268246,-0.039213,-0.198910,1.251656,-31.593224,2.283241,-175.54219,-1.1590672,1.3326027,0.98196626,0.053661227,0.048319593,-0.05933726
20231225 03:37:03,-1.344948,1.563959,0.194492,0.333233,0.017250,-0.203172,1.630699,-31.659027,2.291306,-174.6344,-1.1095339,1.2112567,0.9303882,0.0891041,0.11957462,-0.09644653
20231225 03:37:03,-1.465477,1.643728,0.305128,0.407807,0.047080,-0.189322,1.719315,-32.034576,2.718613,-174.14746,-1.15584,1.2091658,0.9577029,0.14393684,0.16786322,-0.15841325
20231225 03:37:03,-1.654722,1.763235,0.293894,0.479185,0.050276,-0.143512,1.745827,-31.557625,2.419800,-173.93108,-1.3388197,1.2408876,1.1357467,0.21645015,0.18575928,-0.24868554
20231225 03:37:03,-1.718073,1.858646,0.093163,0.502623,0.028969,-0.060415,1.817543,-30.797470,2.370888,-173.42236,-1.5385076,1.3498946,1.3630396,0.28454852,0.15345922,-0.33321553
20231225 03:37:03,-1.614230,1.967137,-0.187793,0.455748,-0.009383,0.033335,1.702805,-31.090759,2.522865,-173.58112,-1.640755,1.5930514,1.499813,0.3185844,0.07388831,-0.37179846
20231225 03:37:03,-1.242486,2.067582,-0.441545,0.334298,-0.060520,0.105779,1.730083,-30.997589,2.784996,-173.42282,-1.5327709,1.8826767,1.3946323,0.29908633,-0.02578254,-0.332234
20231225 03:37:03,-0.838211,2.059827,-0.553054,0.158515,-0.073304,0.138805,1.845203,-30.896194,2.913498,-173.48615,-1.2729053,2.0001533,1.1428419,0.21648374,-0.07410011,-0.21496525
20231225 03:37:03,-0.448903,1.990835,-0.207789,-0.031116,-0.072239,0.137740,1.774906,-30.522491,2.754433,-174.32214,-0.66881984,1.9500011,0.6035578,0.09138811,-0.089699596,-0.07003699
20231225 03:37:03,-0.234865,1.889658,0.487727,-0.187723,-0.093546,0.099387,1.711384,-30.803848,2.236282,-175.02406,0.037860274,1.8186324,-0.047024816,-0.047606938,-0.11573557,0.06464823
20231225 03:37:03,-0.143756,1.981039,1.078668,-0.292127,-0.083958,0.029074,1.835857,-30.799324,2.639145,-174.87468,0.5159771,1.8808229,-0.52912426,-0.17879122,-0.10686778,0.1819699
20231225 03:37:03,-0.237740,2.189394,1.695589,-0.356048,-0.044540,-0.058285,1.870682,-31.744980,3.103127,-174.8994,0.8173041,2.0168734,-0.9132249,-0.29331702,-0.06956474,0.28560582
20231225 03:37:03,-0.515952,2.088558,2.164391,-0.381616,0.056668,-0.121140,1.703957,-31.666428,3.364281,-175.16176,0.82305783,1.7962618,-1.1452713,-0.37111264,0.02548134,0.34639353
20231225 03:37:03,-0.927530,1.889326,2.761053,-0.380551,0.194098,-0.140316,1.834053,-31.741287,2.566635,-175.034,0.7188019,1.3927801,-1.4658952,-0.40732533,0.15004401,0.35783973
20231225 03:37:03,-1.440813,1.379444,3.450907,-0.345394,0.294241,-0.113683,1.930096,-31.254265,1.865952,-175.11354,0.5072485,0.67182815,-1.9610952,-0.38426507,0.23870979,0.3068849
20231225 03:37:03,-1.806897,0.570732,4.198259,-0.242055,0.346443,-0.095572,1.869144,-30.977432,1.981239,-175.3397,0.3145423,-0.270296,-2.7619736,-0.29514393,0.29904315,0.2244814
20231225 03:37:03,-2.068001,-0.185359,4.746697,-0.028986,0.321940,-0.076395,1.929710,-31.062370,1.585472,-175.45255,0.1756841,-1.1408646,-3.3620949,-0.092897594,0.3140035,0.10410784
20231225 03:37:03,-2.212722,-0.704089,4.616145,0.288488,0.304894,-0.010344,1.656445,-30.798302,1.431549,-176.03795,-0.047075868,-1.6728036,-3.2863288,0.22510679,0.36183387,-0.09321712
20231225 03:37:03,-1.918929,-1.106980,3.909194,0.594243,0.231385,0.068492,1.860565,-31.264336,2.267830,-175.34634,0.044950485,-1.9014032,-2.7495627,0.5393819,0.34621325,-0.30379087
20231225 03:37:03,-1.470590,-1.331571,2.839390,0.798790,0.087563,0.167569,1.993233,-30.781013,2.103622,-175.05582,0.14767957,-1.8881638,-1.9031497,0.77223843,0.22550057,-0.51703763
20231225 03:37:03,-0.946018,-1.451583,1.565020,0.878691,-0.080762,0.294346,2.112846,-31.080864,4.267921,-174.25043,0.15217227,-1.7255516,-0.9439429,0.90651953,0.02854136,-0.72037965
20231225 03:37:03,-0.225754,-1.558831,0.446860,0.835011,-0.236303,0.439233,1.810501,-31.851944,3.779366,-175.55135,0.16566919,-1.5951581,-0.32880527,0.9469414,-0.19322534,-0.8573203
20231225 03:37:03,0.586286,-1.685311,-0.439870,0.684797,-0.402497,0.578794,1.186234,-31.812675,4.440445,-177.88638,0.14438197,-1.7113765,-0.07126951,0.88670623,-0.40866777,-0.8909717
20231225 03:37:03,1.545415,-2.003048,-1.178878,0.460009,-0.538861,0.686394,0.852783,-31.655548,4.962753,179.27141,0.17935503,-2.4079244,-0.037600935,0.6963856,-0.5055579,-0.8175199
20231225 03:37:03,2.611957,-2.384807,-1.726476,0.214979,-0.595325,0.713027,0.797844,-31.650002,4.158020,177.74872,0.5444782,-3.5086153,-0.1026988,0.40088004,-0.4252619,-0.6809724
20231225 03:37:03,3.503522,-2.750107,-2.018877,-0.021528,-0.568691,0.645911,0.278584,-31.028694,4.112305,175.76758,1.1853849,-4.537802,-0.05277145,0.10054535,-0.2644043,-0.49302068
20231225 03:37:03,4.105408,-3.114100,-2.055277,-0.235663,-0.488790,0.495696,0.314827,-30.840508,4.368317,175.18666,1.870084,-5.267111,0.020600796,-0.1601777,-0.11402677,-0.2810933
20231225 03:37:03,4.419815,-3.367930,-1.897057,-0.437014,-0.375863,0.292215,-0.030926,-30.952820,3.702354,175.47156,2.3783665,-5.607885,-0.028332353,-0.39177707,0.023684144,-0.040524125
20231225 03:37:03,4.447474,-3.441291,-1.514942,-0.610666,-0.255479,0.061034,-0.021961,-30.857803,3.696243,175.86829,2.6659255,-5.4803286,-0.29913497,-0.59281844,0.11701709,0.22122777
20231225 03:37:03,4.116725,-3.229381,-0.912134,-0.739573,-0.129768,-0.173342,-0.482456,-31.263390,3.182251,176.2068,2.6561387,-4.7849007,-0.8166952,-0.7578959,0.16372347,0.49045807
20231225 03:37:03,3.485445,-2.793555,-0.148009,-0.824801,-0.027494,-0.359778,0.372055,-31.099854,2.778160,178.75735,2.6181471,-3.7362633,-1.3689656,-0.8927039,0.1776464,0.690534
20231225 03:37:03,2.721994,-2.400403,0.841982,-0.857827,-0.029625,-0.500404,0.468868,-30.996613,2.638420,179.75687,2.5629153,-2.7927063,-1.9678862,-0.9886729,0.08997992,0.83305204
20231225 03:37:03,1.806997,-1.974715,1.522598,-0.839716,-0.072239,-0.593089,0.326462,-31.191170,2.247787,-179.85812,2.1949496,-2.0663488,-2.1783848,-1.0189359,-0.01755968,0.90795636
20231225 03:37:03,1.039675,-1.568127,2.137089,-0.760880,-0.112722,-0.654880,0.792969,-31.056862,1.841751,-178.4984,1.8937569,-1.5656457,-2.4112096,-0.9793161,-0.102834485,0.9305937
20231225 03:37:03,0.253229,-1.068096,2.478998,-0.636234,-0.121245,-0.679383,1.338348,-31.009338,1.308189,-177.06183,1.4513514,-1.1315885,-2.3379889,-0.8805531,-0.13643457,0.89597404
20231225 03:37:03,-0.709749,-0.576244,2.692767,-0.466844,-0.073304,-0.646357,1.259472,-30.922546,1.435707,-176.9153,0.756594,-0.8881724,-2.003563,-0.7166947,-0.0857579,0.78882986
20231225 03:37:03,-1.662664,-0.153632,2.886652,-0.263362,-0.020037,-0.550475,1.707279,-30.594482,0.480949,-176.17024,-0.011354804,-0.8418691,-1.6640363,-0.49376354,-0.0077424645,0.6060563
20231225 03:37:03,-2.353757,0.072768,3.026571,-0.026855,0.011924,-0.398131,1.582806,-30.599014,0.078094,-176.64964,-0.5932138,-0.94898945,-1.4303992,-0.21618725,0.061979607,0.35795262
20231225 03:37:03,-2.713957,0.128820,2.973841,0.256528,0.050276,-0.202107,2.343464,-30.172432,0.727676,-174.591,-0.904796,-1.0599751,-1.1455934,0.11416698,0.14723027,0.045770943
20231225 03:37:03,-2.573782,0.095089,2.526119,0.550564,0.085433,0.006702,1.725594,-30.596336,0.749199,-175.89389,-0.91213465,-0.9371701,-0.7620053,0.45664096,0.216828,-0.29291132
20231225 03:37:03,-1.968763,-0.106526,1.712828,0.797724,0.096086,0.176092,2.280708,-30.837570,0.770470,-174.61517,-0.6591847,-0.74127,-0.29005146,0.73963463,0.22984399,-0.5907121
20231225 03:37:03,-1.166500,-0.342061,0.711053,0.976703,0.101413,0.280496,2.151379,-31.146484,2.129051,-174.43454,-0.45253766,-0.5784856,0.13266224,0.9289372,0.20637104,-0.81281793
20231225 03:37:03,-0.434089,-0.533690,-0.234307,1.077911,0.097151,0.327371,1.827274,-31.086227,2.925728,-175.09601,-0.439308,-0.5484451,0.43044612,1.0107387,0.15960862,-0.958685
20231225 03:37:03,0.183316,-0.594028,-1.154527,1.103479,0.084367,0.341221,1.546192,-31.492844,3.619324,-176.1988,-0.7141554,-0.57956165,0.6233407,1.0003314,0.09180015,-1.0361673
20231225 03:37:03,0.740179,-0.591671,-1.944494,1.047016,0.072648,0.330568,1.822422,-31.390617,4.687164,-176.62044,-1.1036973,-0.77573895,0.60106516,0.9127087,0.035661235,-1.0234416
20231225 03:37:03,1.221420,-0.518291,-2.595906,0.907455,0.069452,0.299672,1.398933,-31.991798,4.990135,-179.16046,-1.4834604,-1.0964053,0.46616673,0.76885915,0.0118436925,-0.9163427
20231225 03:37:03,1.581700,-0.461820,-2.930390,0.710366,0.076910,0.249601,1.337601,-31.523087,4.824966,179.65648,-1.6047668,-1.4099628,0.26812983,0.60555077,0.021953639,-0.7321046
20231225 03:37:03,1.811294,-0.416474,-3.048165,0.474924,0.090759,0.183549,1.382809,-31.239883,5.074867,178.9171,-1.5387006,-1.5838888,0.14476728,0.4292091,0.05026043,-0.49919778
20231225 03:37:03,1.938425,-0.454555,-2.885087,0.239482,0.109936,0.101518,1.452343,-31.229797,4.672989,179.53903,-1.2371812,-1.5793759,0.073629975,0.2458036,0.085679844,-0.2548342
20231225 03:37:03,1.928953,-0.547843,-2.422353,0.036000,0.119524,0.002440,1.085220,-30.702675,5.572723,178.87888,-0.75152385,-1.3633131,-0.006680727,0.049473096,0.10958337,-0.031217264
20231225 03:37:03,1.660964,-0.565274,-1.799219,-0.108887,0.091825,-0.091310,1.321091,-30.579269,4.629219,-178.75603,-0.33227324,-0.974414,-0.09250045,-0.12736602,0.090799905,0.1433799
20231225 03:37:03,1.146344,-0.451144,-1.270522,-0.209030,0.049211,-0.155231,1.128239,-31.169540,5.469658,-178.15446,-0.19018722,-0.55052793,-0.007025242,-0.25304228,0.050604533,0.26014742
20231225 03:37:03,0.614673,-0.294946,-0.868979,-0.266558,0.016185,-0.171211,1.461308,-31.134773,4.666870,-176.43233,-0.20339409,-0.27575338,0.13833973,-0.30786002,0.015105696,0.311683
20231225 03:37:03,0.182928,-0.171910,-0.416567,-0.269754,-0.007253,-0.152035,1.327866,-31.234329,4.270126,-176.26846,-0.15489438,-0.14068556,0.15737993,-0.2977363,-0.013316698,0.2975454
20231225 03:37:03,-0.059554,-0.123946,-0.132111,-0.229271,-0.011514,-0.111552,1.964050,-30.812271,4.516846,-174.5915,-0.12583654,-0.118739,0.1276886,-0.24152046,-0.01988145,0.23812048
20231225 03:37:03,-0.201569,-0.029397,0.095198,-0.197311,-0.009383,-0.089180,1.567463,-31.128395,4.801483,-175.41954,-0.07886515,-0.051460404,0.06827098,-0.20347498,-0.017906327,0.19978012
20231225 03:37:03,-0.264533,0.036097,0.175881,-0.091841,0.004466,-0.020997,1.567463,-31.128395,4.801483,-175.2887,-0.07400804,-7.455079E-4,0.057649598,-0.08124795,-0.0016498545,0.0787577
20231225 03:37:03,-0.291213,0.060455,0.060459,-0.031116,0.019381,0.014159,1.717415,-31.972664,5.393967,-174.92805,-0.17165768,0.030003283,0.16400361,-0.014085808,0.015390801,0.012851036
20231225 03:37:03,-0.268763,0.176263,-0.084269,0.015759,0.044949,0.047185,1.717796,-32.164558,5.674446,-174.86658,-0.26351804,0.15962496,0.2610697,0.040570345,0.041963503,-0.04144477
20231225 03:37:03,-0.272906,0.245489,-0.227905,0.049850,0.079040,0.083407,1.135017,-31.824600,5.110565,-176.0787,-0.37385237,0.2406744,0.36597383,0.0872639,0.07528602,-0.08981848
20231225 03:37:03,-0.231623,0.240502,-0.371340,0.067961,0.117393,0.120694,1.346180,-31.236183,4.538376,-175.70882,-0.4468705,0.2514141,0.43512923,0.12421936,0.112036645,-0.12605083
20231225 03:37:03,-0.132904,0.212794,-0.415186,0.077549,0.155746,0.154785,1.267303,-31.149384,4.665894,-176.05826,-0.40651155,0.23163107,0.39080063,0.15472293,0.14948803,-0.15499313
20231225 03:37:03,0.013674,0.229702,-0.367196,0.088202,0.177053,0.175027,1.416481,-31.609871,4.697441,-175.9674,-0.27003196,0.24959631,0.25177735,0.17806447,0.17158465,-0.17528036
20231225 03:37:03,0.138386,0.272052,-0.421318,0.097791,0.181314,0.187811,1.170490,-31.252632,4.805649,-176.62354,-0.23018299,0.29494426,0.19083798,0.19683793,0.17678164,-0.19121988
20231225 03:37:03,0.252259,0.426029,-0.556038,0.099921,0.161072,0.197399,0.791447,-31.186829,4.797577,-177.58244,-0.273154,0.45216262,0.18072294,0.20928936,0.1570486,-0.19966453
20231225 03:37:03,0.301309,0.675350,-0.841333,0.085006,0.139765,0.211249,1.206352,-30.872551,4.781197,-176.46008,-0.4984484,0.71068174,0.30634412,0.21390933,0.13481423,-0.19161834
20231225 03:37:03,0.288276,0.946810,-1.175133,0.044523,0.148288,0.234686,0.552235,-31.484657,4.546692,-178.06805,-0.8237398,0.9920757,0.46129945,0.21219832,0.14137761,-0.16890979
20231225 03:37:03,0.289370,1.194609,-1.334339,-0.026855,0.197294,0.262385,0.536877,-31.116501,5.192368,-178.13147,-0.9643064,1.2378757,0.5454769,0.19438069,0.18912108,-0.123898774
20231225 03:37:03,0.413872,1.214864,-1.165643,-0.102495,0.232451,0.280496,0.764553,-31.471893,4.815918,-178.03342,-0.6847435,1.2193573,0.39658475,0.1614274,0.23135896,-0.082267016
20231225 03:37:03,0.572435,0.972219,-0.715268,-0.152566,0.221797,0.266647,0.376160,-31.309227,4.533493,-179.33257,-0.16154784,0.95165586,0.03034553,0.10933485,0.22844939,-0.053450704
20231225 03:37:03,0.745032,0.711655,-0.355030,-0.167481,0.185575,0.225098,0.280121,-31.796249,5.234184,-179.88628,0.25820744,0.67748505,-0.31511977,0.061094463,0.19766502,-0.025925316
20231225 03:37:03,0.834480,0.581508,-0.173124,-0.150435,0.163203,0.168635,0.025932,-31.917809,5.909447,179.47586,0.46155885,0.5497853,-0.49596307,0.025987573,0.17315263,-0.0059672445
20231225 03:37:03,0.797233,0.531857,-0.093164,-0.120606,0.141896,0.096191,0.015816,-31.437164,5.074142,179.65497,0.48998463,0.5113241,-0.5202349,-0.008893713,0.14685912,0.021652192
20231225 03:37:03,0.672860,0.667065,-0.092642,-0.088645,0.121654,0.015224,-0.011463,-31.530334,4.812012,179.87154,0.3829929,0.6623522,-0.44171506,-0.046784505,0.122287154,0.05587197
20231225 03:37:03,0.459639,0.934173,-0.329320,-0.073730,0.112066,-0.050827,-0.081760,-31.156631,4.652946,-179.87358,0.01941669,0.9494823,-0.14224052,-0.08865014,0.11179212,0.08935656
20231225 03:37:03,0.176464,1.315020,-0.433297,-0.079057,0.120589,-0.083853,-0.099689,-31.346672,4.665176,-179.29631,-0.31276852,1.3474973,0.1416646,-0.12237977,0.12153033,0.11498842
20231225 03:37:03,-0.160800,1.506869,-0.480206,-0.098233,0.155746,-0.082788,0.200470,-31.325684,4.800766,-177.9905,-0.6242009,1.5298594,0.4568889,-0.14097345,0.15496282,0.13176766
20231225 03:37:03,-0.392137,1.641994,-0.310312,-0.101429,0.206882,-0.056154,-0.160255,-31.261734,5.060944,-178.42735,-0.6880864,1.6200124,0.52836037,-0.13256192,0.20099698,0.11770157
20231225 03:37:03,-0.563789,1.688012,-0.068638,-0.076926,0.270803,-0.015671,0.032978,-30.863350,4.500969,-177.97078,-0.64256334,1.606773,0.5135605,-0.09786487,0.2599341,0.075063474
20231225 03:37:03,-0.723601,1.709836,0.199029,-0.020463,0.336855,0.021617,0.032978,-30.863350,4.500969,-177.8594,-0.5712285,1.5610561,0.45700198,-0.04538331,0.32518452,0.009508054
20231225 03:37:03,-0.826044,1.801106,0.406219,0.058373,0.384795,0.048250,-0.063450,-31.158478,4.921188,-177.80205,-0.51643956,1.5936995,0.40032414,0.015786663,0.37736636,-0.06596953
20231225 03:37:03,-0.943837,2.077906,0.434354,0.115902,0.399710,0.070623,-0.177803,-31.643661,5.353638,-177.52046,-0.64339894,1.8086052,0.5059564,0.05668309,0.39364496,-0.12318025
20231225 03:37:03,-1.055899,2.465674,0.312346,0.098856,0.337920,0.114302,-0.247719,-31.461845,5.475044,-177.57658,-0.85468835,2.1968772,0.7008348,0.08828318,0.32257414,-0.13948183
20231225 03:37:03,-0.907099,2.577486,0.084580,-0.010875,0.213274,0.200595,-0.433144,-31.189552,5.187485,-178.61221,-0.8738592,2.4132824,0.7067086,0.117625564,0.17792964,-0.11015586
20231225 03:37:03,-0.194666,2.125573,0.073018,-0.144043,0.126981,0.301803,-0.161026,-30.877960,4.499992,-179.89386,-0.14259577,2.1152015,0.10529056,0.1349256,0.11216825,-0.08245942
20231225 03:37:04,0.925814,1.467528,0.387423,-0.227141,0.103544,0.325241,-0.556961,-29.676453,4.015717,177.60562,1.0265977,1.422819,-0.98108345,0.087199345,0.14377466,-0.060797542
20231225 03:37:04,1.873513,0.883551,0.638376,-0.300650,0.146157,0.244274,-0.627533,-31.012268,4.906036,176.66762,1.9102318,0.69746614,-1.7785828,-0.039155155,0.21413639,0.019264564
20231225 03:37:04,2.228790,0.457762,1.173075,-0.390139,0.163203,0.089799,-0.673122,-31.103600,4.375664,176.92412,2.5070999,0.27726942,-2.3374999,-0.22753662,0.22401077,0.17107338
20231225 03:37:04,2.015530,0.196233,1.788555,-0.494543,0.105674,-0.077461,-0.415977,-30.615738,4.614311,177.94286,2.690885,0.12712084,-2.6425605,-0.43501672,0.14794895,0.35411435
20231225 03:37:04,1.541143,0.034447,2.335698,-0.565921,0.024708,-0.201041,-0.673122,-31.103600,4.375664,178.08081,2.5873065,0.03693213,-2.7978897,-0.579824,0.046631675,0.48397046
20231225 03:37:04,1.093587,-0.265786,2.825099,-0.549941,-0.018972,-0.254309,-0.727680,-31.289932,3.851395,178.38754,2.386485,-0.25457865,-2.9781742,-0.60264254,-0.011562695,0.5011155
20231225 03:37:04,0.719477,-0.804323,3.325646,-0.431687,0.000205,-0.264962,-0.455177,-31.170219,3.444374,179.25415,2.160558,-0.82267284,-3.2794888,-0.5049353,-0.005408071,0.43226826
20231225 03:37:04,0.243482,-1.408714,3.772447,-0.233533,0.046015,-0.250047,-0.454792,-31.362114,3.724854,179.57089,1.7761874,-1.4854661,-3.540462,-0.31549096,0.039030578,0.32267448
20231225 03:37:04,-0.153489,-1.955044,4.053074,0.005105,0.064126,-0.213825,-0.347481,-31.931396,4.700874,-179.86642,1.3741949,-2.0903387,-3.7297873,-0.07403425,0.07116985,0.19776316
20231225 03:37:04,-0.405327,-2.379150,3.980990,0.265050,0.050276,-0.180800,0.082394,-31.793388,3.758354,-179.05359,1.073494,-2.5646827,-3.6351817,0.1851317,0.08573679,0.07937931
20231225 03:37:04,-0.549765,-2.603510,3.490922,0.514342,0.021512,-0.162689,-0.110191,-30.674133,3.549400,-179.30537,0.8593278,-2.815762,-3.0871468,0.42058703,0.09284918,-0.033455163
20231225 03:37:04,-0.656216,-2.495520,2.623281,0.710366,-0.000861,-0.156297,0.138371,-30.473183,4.074646,-178.46559,0.6567327,-2.7338552,-2.166299,0.58028924,0.11237943,-0.15599366
20231225 03:37:04,-0.769050,-2.077302,1.532669,0.808378,-0.024298,-0.160558,0.448650,-30.932846,5.045532,-177.19508,0.300654,-2.3187006,-1.0207088,0.6206369,0.12873816,-0.27081728
20231225 03:37:04,-0.897180,-1.535429,0.550008,0.791332,-0.053063,-0.165885,0.273346,-31.141197,5.593269,-176.63942,-0.16656822,-1.7469084,0.030029416,0.5429071,0.12967497,-0.34678125
20231225 03:37:04,-1.103001,-0.898255,-0.425707,0.665621,-0.066912,-0.161623,0.167183,-31.147568,5.458656,-176.02148,-0.89248645,-1.0106702,1.0208987,0.39207456,0.117292374,-0.34330836
20231225 03:37:04,-1.230816,-0.327899,-1.041207,0.423787,-0.073304,-0.133924,0.758545,-31.200615,5.735947,-173.87296,-1.4695694,-0.32546514,1.5839784,0.2083026,0.060404066,-0.23106065
20231225 03:37:04,-1.233948,0.158785,-1.302221,0.115902,-0.059455,-0.091310,0.688629,-31.018806,5.857353,-173.7563,-1.7734954,0.21410003,1.7900527,0.025253356,-0.0066717677,-0.033504274
20231225 03:37:04,-1.228899,0.357124,-1.052805,-0.182396,-0.008318,-0.030585,0.555576,-31.310242,5.741081,-174.63911,-1.6498061,0.32175618,1.6367493,-0.14261083,-0.039812043,0.15456986
20231225 03:37:04,-1.296132,0.318180,-0.306396,-0.394400,0.089694,0.062100,0.670696,-31.208839,5.869583,-174.93956,-1.2090403,0.09116252,1.1298429,-0.26477683,-0.009899152,0.23049653
20231225 03:37:04,-1.361999,0.107138,0.768728,-0.481759,0.223928,0.173961,0.422523,-31.601685,5.624817,-176.25542,-0.6387538,-0.29273987,0.23287398,-0.31307113,0.09163862,0.16925785
20231225 03:37:04,-1.297656,-0.308198,1.934008,-0.455125,0.289979,0.289019,0.095463,-31.907722,5.507568,-177.53398,-0.048119187,-0.7618027,-0.9472671,-0.26665583,0.16656958,0.010610893
20231225 03:37:04,-1.152085,-0.870368,2.696300,-0.332610,0.265476,0.397684,-0.019272,-32.201019,5.659546,-178.11615,0.3483327,-1.2782507,-1.8283329,-0.12585689,0.17263083,-0.17975628
20231225 03:37:04,-0.762679,-1.310441,2.990329,-0.144043,0.212209,0.486108,0.220322,-32.095085,6.190887,-178.15794,0.75370854,-1.5605251,-2.3471494,0.07989532,0.16580889,-0.3602255
20231225 03:37:04,-0.115783,-1.596622,2.760858,0.072222,0.157876,0.538310,-0.426365,-31.844604,4.828400,179.72137,1.2168032,-1.6733905,-2.3861747,0.3087705,0.14696088,-0.51119363
20231225 03:37:04,0.607275,-1.784993,2.074845,0.265050,0.139765,0.534049,-0.423794,-31.286415,5.461845,178.97043,1.5245647,-1.7744411,-2.0789142,0.4934582,0.1403541,-0.59759194
20231225 03:37:04,1.242829,-1.875470,1.218604,0.411003,0.144027,0.469063,-1.472691,-31.272682,5.584480,176.15022,1.6022403,-1.9068464,-1.5781915,0.6012588,0.1335427,-0.6219285
20231225 03:37:04,1.634017,-1.840528,0.414376,0.509015,0.175987,0.352940,-0.863403,-31.135681,5.849541,176.74171,1.4316576,-1.9705979,-1.1926986,0.6310809,0.14594795,-0.58920455
20231225 03:37:04,1.616452,-1.580931,-0.204893,0.551629,0.199425,0.209118,-1.293663,-31.081802,6.511597,175.99277,1.021706,-1.7175055,-0.7745907,0.5725119,0.16720298,-0.5205013
20231225 03:37:04,1.215567,-1.315763,-0.703060,0.556956,0.207948,0.066361,-1.408787,-31.183212,6.383102,176.52843,0.37568703,-1.3656193,-0.25840652,0.45761287,0.1943821,-0.437721
20231225 03:37:04,0.624414,-0.928140,-0.986903,0.546302,0.204752,-0.040174,-1.584091,-31.391556,6.930840,177.73674,-0.23170573,-0.83905905,0.25273207,0.33638677,0.23478344,-0.37365258
20231225 03:37:04,0.038252,-0.618371,-1.227890,0.520734,0.177053,-0.107291,-1.478317,-31.193283,6.784981,179.39523,-0.80430526,-0.44310418,0.7830336,0.23964374,0.24819973,-0.32291874
20231225 03:37:04,-0.461332,-0.354524,-1.391521,0.468532,0.120589,-0.133924,-1.062649,-31.262779,7.329536,-178.01103,-1.2582784,-0.13865641,1.2331215,0.17420843,0.22123858,-0.2735281
20231225 03:37:04,-0.785861,-0.177862,-1.530357,0.397153,0.040688,-0.121140,-1.362812,-31.283775,7.193947,-177.94914,-1.5855678,0.04523611,1.5664198,0.14907435,0.14375897,-0.23292276
20231225 03:37:04,-0.865356,-0.144599,-1.717778,0.309795,-0.018972,-0.077461,-1.035751,-30.977722,7.311195,-176.91043,-1.7856717,0.12980929,1.7206802,0.13318706,0.060425512,-0.20089494
20231225 03:37:04,-0.800565,-0.081803,-1.868147,0.219240,-0.017906,-0.022063,-0.743786,-31.435532,8.013840,-175.98105,-1.8858578,0.2383233,1.7465911,0.11758618,0.028378688,-0.1641848
20231225 03:37:04,-0.714991,-0.073346,-1.833020,0.126555,0.031100,0.042924,-1.113094,-31.658493,8.560608,-176.99365,-1.8172234,0.22228435,1.6710725,0.10205676,0.041721772,-0.12585464
20231225 03:37:04,-0.573151,-0.214485,-1.576935,0.033870,0.092890,0.108975,-0.803970,-31.542488,8.690079,-177.37888,-1.5073828,-0.013283491,1.4424839,0.086620316,0.076018155,-0.09299001
20231225 03:37:04,-0.327251,-0.588674,-1.045376,-0.050293,0.117393,0.159046,-1.184547,-30.709129,7.560127,-179.94873,-0.90034866,-0.49940544,0.96451676,0.06386295,0.0924125,-0.07517581
20231225 03:37:04,0.035315,-1.035896,-0.429775,-0.109952,0.083302,0.170765,-1.438736,-30.830688,8.235382,178.77701,-0.18690455,-1.0000219,0.3171254,0.023466647,0.06349031,-0.057646506
20231225 03:37:04,0.314622,-1.454551,0.110851,-0.144043,-0.015775,0.146262,-1.492908,-31.208916,7.991592,177.82642,0.35752442,-1.4446963,-0.23567903,-0.024859019,-0.025061894,-0.02775842
20231225 03:37:04,0.602436,-1.752658,0.427147,-0.166416,-0.143617,0.097256,-1.235764,-30.721062,8.230247,177.70686,0.7433214,-1.7514511,-0.6381177,-0.079896845,-0.14453678,0.020818107
20231225 03:37:04,0.872696,-1.981330,0.498942,-0.178135,-0.256544,0.034401,-1.405060,-31.200684,7.857956,176.88074,0.96790266,-1.993906,-0.8137214,-0.13234751,-0.25131828,0.0833602
20231225 03:37:04,1.082482,-2.033488,0.399219,-0.190919,-0.334315,-0.045500,-1.466015,-30.923851,7.973251,176.19167,1.0387582,-2.0723288,-0.8362379,-0.19505225,-0.32502946,0.16483535
20231225 03:37:04,1.300343,-1.936011,0.193498,-0.190919,-0.342837,-0.139251,-1.627113,-30.924683,7.033913,175.55414,1.0601552,-2.012555,-0.8022181,-0.25424385,-0.3349457,0.24621621
20231225 03:37:04,1.297844,-1.697241,0.136967,-0.176004,-0.291701,-0.245786,-1.166233,-30.710976,7.828369,176.60533,1.0397596,-1.7608922,-0.81735855,-0.30147028,-0.29163378,0.3155294
20231225 03:37:04,0.993506,-1.402289,0.218703,-0.134455,-0.227780,-0.351255,-1.387131,-31.010643,7.845734,177.22414,0.9100332,-1.4043262,-0.7375659,-0.32469907,-0.22814314,0.3666798
20231225 03:37:04,0.456795,-1.046069,0.323008,-0.077992,-0.191558,-0.424764,-1.264465,-31.948082,8.176094,178.7972,0.6092631,-1.0319165,-0.52451134,-0.32292137,-0.17432307,0.37807637
20231225 03:37:04,-0.129642,-0.648610,0.282938,-0.023659,-0.191558,-0.459921,-0.902317,-30.878174,7.707939,-179.28514,0.16085485,-0.6861736,-0.1291599,-0.30103126,-0.14225683,0.3554657
20231225 03:37:04,-0.646627,-0.229147,0.112578,0.018955,-0.227780,-0.458855,-0.744942,-30.859863,7.172424,-177.9716,-0.3453738,-0.34902912,0.3686391,-0.26254055,-0.14276831,0.30716535
20231225 03:37:04,-1.024618,0.289384,-0.246268,0.045589,-0.271459,-0.425830,-0.144615,-30.817886,7.443604,-175.58875,-0.92401606,0.13180427,0.9395379,-0.213883,-0.16021365,0.2369816
20231225 03:37:04,-1.280568,0.719050,-0.701297,0.045589,-0.291701,-0.364039,0.083061,-31.173279,7.067154,-174.31772,-1.506087,0.5904957,1.479739,-0.16185085,-0.16950616,0.17356448
20231225 03:37:04,-1.369101,1.106731,-1.136398,0.030674,-0.273590,-0.280942,0.164902,-30.893768,7.853546,-172.79575,-1.9889035,1.070982,1.8520546,-0.111977786,-0.1643936,0.11900894
20231225 03:37:04,-1.377753,1.436541,-1.432663,0.013628,-0.223518,-0.196780,0.304344,-31.065498,7.330261,-172.21503,-2.328611,1.4831623,2.0465932,-0.0702164,-0.13944471,0.081259504
20231225 03:37:04,-1.436692,1.564237,-1.541330,-0.000221,-0.156401,-0.120075,0.137619,-30.986938,7.591415,-172.13362,-2.4956107,1.6219689,2.165186,-0.03892626,-0.10307416,0.054803565
20231225 03:37:04,-1.477778,1.378198,-1.637787,-0.017267,-0.096742,-0.066807,0.252743,-30.885544,7.719917,-172.15442,-2.52388,1.4566448,2.2527754,-0.029313445,-0.071657054,0.04472871
20231225 03:37:04,-1.330273,0.922628,-1.485408,-0.048162,-0.076500,-0.040174,0.217651,-31.649399,8.305305,-173.09906,-2.1679106,0.9972868,2.017756,-0.03820131,-0.07083166,0.056922615
20231225 03:37:04,-0.966490,0.652173,-1.235398,-0.098233,-0.111657,-0.033782,0.404491,-30.787834,8.384903,-174.09961,-1.6694541,0.72479975,1.5643704,-0.06349686,-0.11695453,0.09051445
20231225 03:37:04,-0.564351,0.453027,-0.932873,-0.169612,-0.207538,-0.027389,-0.030140,-32.234123,8.341011,-176.86923,-1.1273936,0.50837827,1.0487905,-0.1015151,-0.22019306,0.139741
20231225 03:37:04,-0.099506,0.120823,-0.785380,-0.254840,-0.341772,-0.028455,0.147350,-31.275696,8.146248,-177.9806,-0.6570517,0.17125775,0.60106575,-0.16620977,-0.35478368,0.20063388
20231225 03:37:04,0.384233,-0.149412,-0.826855,-0.347525,-0.454699,-0.046566,-0.013748,-31.276527,7.206894,-179.5275,-0.35345304,-0.1214609,0.26694423,-0.2563347,-0.46079722,0.28689712
20231225 03:37:04,0.722810,-0.283229,-1.037789,-0.444472,-0.501574,-0.084918,0.136852,-30.603165,7.030472,-179.97441,-0.29043493,-0.305555,0.15795988,-0.3673179,-0.49731287,0.38683224
20231225 03:37:04,0.896262,-0.359454,-1.037138,-0.538222,-0.496247,-0.154166,0.400772,-30.770363,6.910042,-179.69545,-0.15480167,-0.4111096,0.05240655,-0.4938692,-0.48622587,0.4966191
20231225 03:37:04,0.865026,-0.309007,-0.800644,-0.577640,-0.481333,-0.204237,0.654957,-30.648804,6.234779,-178.61842,0.020931661,-0.31546882,-0.0742079,-0.5494282,-0.47993487,0.5499177
20231225 03:37:04,0.505815,0.052593,-0.480038,-0.643692,-0.422738,-0.354451,0.618713,-30.836990,5.978767,-177.77858,0.0078499615,0.09705129,-0.025725305,-0.68332154,-0.43439093,0.6966556
20231225 03:37:04,-0.060985,0.504155,-0.103743,-0.633038,-0.363079,-0.418372,0.758160,-31.008728,5.455475,-176.55101,-0.16786903,0.503487,0.13713291,-0.70109415,-0.3797545,0.7295346
20231225 03:37:04,-0.678543,0.968045,0.256997,-0.585098,-0.302354,-0.440745,1.022465,-31.367813,5.615517,-175.16118,-0.44951248,0.8044973,0.35500592,-0.6729734,-0.31754294,0.7059394
20231225 03:37:04,-1.242383,1.209616,0.654554,-0.505196,-0.268263,-0.429026,1.269875,-30.591194,5.299339,-174.18254,-0.6745008,0.82222676,0.47775382,-0.60396415,-0.27673423,0.63805664
20231225 03:37:04,-1.618000,1.473244,0.978269,-0.398662,-0.268263,-0.388542,1.639183,-30.368240,4.752579,-173.32768,-0.82144284,0.8902026,0.52514726,-0.49375832,-0.2641816,0.5315271
20231225 03:37:04,-1.812380,1.596502,1.129243,-0.270820,-0.288505,-0.331014,1.558113,-31.031532,4.527122,-173.71294,-0.9051995,0.9247091,0.53896224,-0.3575736,-0.26854247,0.40223318
20231225 03:37:04,-1.814523,1.593449,1.137159,-0.128063,-0.297027,-0.279877,1.752502,-31.208809,4.808578,-173.23366,-0.89257145,0.93245643,0.54727376,-0.21929164,-0.25739068,0.26506844
20231225 03:37:04,-1.743051,1.534045,1.042621,0.024282,-0.269328,-0.243655,1.568233,-31.512177,5.362427,-173.56056,-0.8581956,0.9453779,0.57126296,-0.094033346,-0.2097152,0.13716403
20231225 03:37:04,-1.471870,1.480428,0.784954,0.178757,-0.225649,-0.215956,2.132702,-31.850281,5.658058,-172.38771,-0.7898367,1.0211166,0.60945714,0.02278392,-0.14681211,0.007314563
20231225 03:37:04,-1.307500,1.316895,0.534834,0.314056,-0.178774,-0.192518,1.665424,-31.600807,5.503151,-173.54143,-0.7902216,0.9633298,0.643983,0.122962356,-0.08707586,-0.09829472
20231225 03:37:04,-1.110377,1.086758,0.301517,0.440833,-0.131898,-0.182930,2.389072,-30.978638,5.335762,-172.05396,-0.74889714,0.8366933,0.68002284,0.20652016,-0.030196544,-0.19640091
20231225 03:37:04,-0.976178,0.984083,0.171584,0.556956,-0.078631,-0.192518,2.091480,-30.441444,5.833626,-172.41515,-0.71855426,0.7813968,0.6699452,0.26754045,0.040007956,-0.27211785
20231225 03:37:04,-0.943367,0.901481,-0.109620,0.645379,-0.060520,-0.205303,2.073170,-30.439598,5.565384,-172.21214,-0.8787298,0.7415802,0.84641457,0.30594122,0.081558034,-0.33776313
20231225 03:37:04,-0.991606,1.107548,-0.252677,0.676275,-0.089284,-0.197845,2.567719,-30.595879,5.982414,-170.48071,-1.0459635,0.95515287,1.0331854,0.31416065,0.06399974,-0.39414176
20231225 03:37:04,-0.995933,1.558691,-0.480707,0.621942,-0.172382,-0.158427,2.604343,-30.599579,6.518906,-169.84315,-1.2887793,1.4499096,1.2453983,0.29498392,-0.039033707,-0.4139779
20231225 03:37:04,-0.923656,1.748364,-0.634450,0.562282,-0.225649,-0.130728,2.595764,-30.886490,6.805489,-169.9178,-1.354624,1.7020483,1.2909403,0.2601543,-0.124549896,-0.40859818
20231225 03:37:04,-0.388951,2.060875,-1.026364,0.270377,-0.340707,-0.041239,2.850334,-30.956818,6.410698,-170.62874,-1.285945,2.1264038,1.0740297,0.15372714,-0.3135496,-0.23278427
20231225 03:37:04,-0.068821,2.092088,-1.043426,0.010432,-0.355622,-0.017801,2.950096,-30.487267,7.184868,-172.37228,-0.93469584,2.1093216,0.80217135,-0.0023866296,-0.35509333,-0.02538263
20231225 03:37:04,0.792903,1.977939,-0.587839,-0.242055,-0.307681,-0.033782,2.834591,-30.396782,6.775894,-173.97488,0.090551525,1.936274,-0.13732573,-0.1857607,-0.30227503,0.19157407
20231225 03:37:04,0.996444,1.577902,0.168666,-0.348590,-0.259740,-0.055088,2.941132,-30.582283,7.190979,-174.17833,0.84665906,1.556309,-0.7324059,-0.28549284,-0.25227866,0.2738267
20231225 03:37:04,0.840892,1.154799,1.163953,-0.610666,-0.162794,-0.138186,3.105289,-31.219040,6.296387,-173.69456,1.40519,1.1558058,-1.3289491,-0.5514206,-0.15991402,0.492013
20231225 03:37:04,0.550880,0.614324,2.159373,-0.686306,-0.139356,-0.178669,2.656330,-30.971428,6.409721,-174.35736,1.7067211,0.59011763,-2.011887,-0.6573179,-0.15229334,0.5370673
20231225 03:37:04,0.189415,0.053125,2.907950,-0.670325,-0.077566,-0.183996,3.344501,-30.921219,6.547264,-172.76994,1.6810846,-0.03506764,-2.5500674,-0.66443336,-0.10804378,0.4985995
20231225 03:37:04,-0.224161,-0.461082,3.607636,-0.578705,-0.011514,-0.147774,3.185322,-31.881500,7.010277,-173.02179,1.5068789,-0.6366243,-3.1069741,-0.57960165,-0.052974306,0.39972985
20231225 03:37:04,-0.535406,-1.000930,4.057563,-0.422099,0.027904,-0.077461,3.368824,-31.194351,5.895477,-172.58,1.241178,-1.2322223,-3.5510502,-0.41701376,-0.010512685,0.2491429
20231225 03:37:04,-0.565867,-1.542423,4.278970,-0.211160,0.039623,-0.017801,2.952770,-30.932961,5.070450,-173.5035,1.1728389,-1.757405,-3.869436,-0.20334016,0.02002057,0.10155164
20231225 03:37:04,-0.520082,-1.714571,4.278803,0.040262,0.012989,-0.003952,3.482410,-30.325394,4.902084,-172.56935,1.2011652,-1.8870625,-3.928483,0.03529524,0.016215784,-0.010185824
20231225 03:37:04,-0.133503,-1.914963,3.365444,0.265050,-0.001926,-0.046566,3.079048,-29.986465,5.545815,-173.26146,1.34987,-2.0226471,-3.1798213,0.2209852,0.01717616,-0.06974319
20231225 03:37:04,-0.045465,-1.604642,2.497532,0.353474,-0.001926,-0.081722,3.422230,-30.432350,5.578331,-172.38991,1.2341043,-1.7078358,-2.329175,0.26980633,0.028585069,-0.10069123
20231225 03:37:04,-0.290145,-1.192668,1.605458,0.480251,-0.008318,-0.158427,3.239380,-29.601852,5.924217,-171.66243,0.73565084,-1.3413918,-1.3034148,0.31285352,0.060917474,-0.13746737
20231225 03:37:04,-0.732821,-0.664912,0.754490,0.564413,0.030034,-0.211695,3.776566,-30.033119,5.957710,-169.40169,-0.015855014,-0.87168056,-0.20946872,0.304089,0.1508522,-0.18957183
20231225 03:37:04,-1.103604,-0.078655,0.025681,0.568674,0.104609,-0.168015,3.628151,-29.956413,6.487106,-168.12206,-0.7649081,-0.30503017,0.7332408,0.27897698,0.2488079,-0.25887913
20231225 03:37:04,-1.409802,0.365247,-0.533536,0.532453,0.178118,-0.059350,3.549274,-29.869629,6.614632,-167.02518,-1.420356,0.15179919,1.440002,0.28006986,0.3041527,-0.3213877
20231225 03:37:04,-1.536899,0.394928,-0.967212,0.446160,0.238843,0.103648,3.991837,-29.654068,7.140839,-165.28456,-1.805269,0.25951073,1.834759,0.3087278,0.30179077,-0.35755825
20231225 03:37:04,-1.295918,0.112145,-1.204713,0.330037,0.279326,0.287954,3.779522,-29.666832,6.871620,-166.7312,-1.7474754,0.11206935,1.7649815,0.363772,0.2694444,-0.3895107
20231225 03:37:04,-0.721407,-0.308554,-1.231919,0.197933,0.276130,0.437102,3.594864,-29.778305,7.145004,-168.92448,-1.3321881,-0.22571081,1.3130616,0.40972036,0.2360645,-0.40168154
20231225 03:37:04,0.006536,-0.817618,-1.263529,0.053046,0.247366,0.522330,3.076759,-29.732658,7.940697,-172.30693,-0.84959894,-0.7584492,0.8037416,0.39475477,0.22561726,-0.38024405
20231225 03:37:05,0.747268,-1.274778,-1.178727,-0.106756,0.202621,0.541506,3.182152,-29.342506,7.514366,-174.38136,-0.27710938,-1.3628656,0.2897805,0.2872072,0.23194575,-0.3179649
20231225 03:37:05,1.508621,-1.733849,-0.844893,-0.260166,0.131243,0.492500,2.864441,-29.745422,7.671478,-177.07521,0.5233995,-2.0095959,-0.30144,0.09681365,0.21825399,-0.23187199
20231225 03:37:05,2.092906,-2.020556,-0.462638,-0.383747,0.056668,0.388096,2.397171,-29.495964,7.516571,-178.8697,1.2207527,-2.4316096,-0.8180078,-0.10025549,0.18044479,-0.106684685
20231225 03:37:05,2.444274,-2.125549,-0.180279,-0.464713,0.025773,0.277300,2.316486,-30.351135,7.571587,-179.38422,1.6949232,-2.6057467,-1.1617979,-0.24848185,0.16206774,0.011353463
20231225 03:37:05,2.511731,-2.138481,0.022063,-0.514785,0.022577,0.185680,2.281013,-30.923103,7.876511,-179.33351,1.9251181,-2.5870912,-1.3075236,-0.35078543,0.14888383,0.099585235
20231225 03:37:05,2.464532,-2.148930,0.433022,-0.527569,0.012989,0.120694,2.316105,-30.159241,7.291122,-178.67838,2.1523237,-2.5209405,-1.5921187,-0.40750572,0.124761395,0.14384477
20231225 03:37:05,2.336750,-2.260090,1.064643,-0.519046,-0.033886,0.065296,2.321728,-30.238640,6.090614,-177.91815,2.354422,-2.5286088,-2.0845006,-0.43595183,0.06301264,0.17719583
20231225 03:37:05,2.192163,-2.206149,1.307677,-0.480693,-0.091415,0.039727,2.499222,-29.280220,5.895859,-177.16518,2.364328,-2.4111612,-2.2493904,-0.41899237,-0.012114048,0.17653957
20231225 03:37:05,2.121574,-2.114667,1.433374,-0.414642,-0.152140,0.030139,2.399841,-29.941658,5.402153,-177.21687,2.364449,-2.2989943,-2.3268905,-0.36851797,-0.083175406,0.15373705
20231225 03:37:05,2.136428,-2.071231,1.331279,-0.345394,-0.193689,-0.001821,1.924755,-30.362877,6.094780,-178.47197,2.329493,-2.2715833,-2.2025764,-0.32457843,-0.1353657,0.15326586
20231225 03:37:05,2.145908,-1.919725,1.270003,-0.294257,-0.238433,-0.061481,2.348236,-29.761696,5.791809,-177.53915,2.313622,-2.1207972,-2.2136118,-0.30816823,-0.19252624,0.18579954
20231225 03:37:05,2.136476,-1.634200,1.078425,-0.277212,-0.255479,-0.100898,2.336700,-30.414909,5.164482,-177.3404,2.226055,-1.8440385,-2.0785718,-0.31303212,-0.21662796,0.21743101
20231225 03:37:05,1.870405,-1.118449,0.801385,-0.219683,-0.242695,-0.240459,2.568371,-29.078247,5.213501,-176.23332,1.9069066,-1.2661469,-1.7647069,-0.33416486,-0.23313262,0.30827278
20231225 03:37:05,1.682694,-0.972021,0.730507,-0.204768,-0.221388,-0.287334,2.833443,-29.821114,5.934486,-175.09232,1.7557602,-1.0385622,-1.6302068,-0.3413743,-0.22062097,0.33645475
20231225 03:37:05,1.104173,-0.657163,0.808301,-0.167481,-0.181970,-0.356582,2.867878,-30.574883,6.118004,-174.06305,1.3737667,-0.65087104,-1.3508593,-0.34177142,-0.18093048,0.37070477
20231225 03:37:05,0.402137,-0.429518,0.986778,-0.107822,-0.141487,-0.382150,2.974041,-30.568512,6.252617,-173.46312,0.910218,-0.44035873,-1.0719869,-0.30516717,-0.1351443,0.35883218
20231225 03:37:05,-0.129424,-0.333985,1.260168,-0.017267,-0.115918,-0.370432,3.113102,-30.548347,5.448853,-172.31978,0.6259407,-0.43507054,-0.9922197,-0.21422435,-0.09024581,0.29945105
20231225 03:37:05,-0.561447,-0.305628,1.364594,0.095660,-0.115918,-0.332079,3.044605,-29.232689,5.362289,-171.98334,0.32817626,-0.47929284,-0.8297432,-0.09817664,-0.07652631,0.20329407
20231225 03:37:05,-0.809177,-0.305211,1.220270,0.214979,-0.132964,-0.268158,3.492798,-29.096519,4.688011,-170.78287,0.06947559,-0.5286386,-0.5505184,0.034327447,-0.07603474,0.07331425
20231225 03:37:05,-0.813286,-0.289671,0.770354,0.306599,-0.147879,-0.193584,3.554516,-29.757126,5.133659,-170.6097,-0.15047276,-0.46856275,-0.14215347,0.14085454,-0.08666121,-0.055240974
20231225 03:37:05,-0.629233,-0.280478,0.185724,0.353474,-0.147879,-0.122205,3.398941,-28.833473,5.741669,-170.58214,-0.33598098,-0.3661703,0.23039898,0.20643309,-0.09468588,-0.15415868
20231225 03:37:05,-0.332609,-0.322007,-0.431015,0.350278,-0.137225,-0.067873,3.839321,-29.367989,5.914917,-169.9529,-0.5097531,-0.31468844,0.4961945,0.22327784,-0.101715885,-0.20499077
20231225 03:37:05,-0.089304,-0.376695,-0.874970,0.290619,-0.132964,-0.035912,3.619839,-28.533806,5.724312,-170.39912,-0.6487032,-0.32841998,0.63615113,0.19156976,-0.112395346,-0.19292681
20231225 03:37:05,0.125595,-0.385614,-1.186028,0.198999,-0.127637,-0.019932,3.699104,-28.812477,5.877258,-170.54092,-0.7411221,-0.33065662,0.68538165,0.13047269,-0.11849467,-0.14295462
20231225 03:37:05,0.319705,-0.435784,-1.414351,0.038131,-0.078631,-0.028455,3.512260,-29.674042,5.797668,-171.40509,-0.7755136,-0.38548473,0.70242065,0.008558154,-0.07666705,-0.015847156
20231225 03:37:05,0.307806,-0.460468,-1.373286,-0.014071,-0.058389,-0.038043,3.708836,-29.101234,6.432091,-170.93263,-0.751539,-0.41177487,0.6783223,-0.03531616,-0.057641897,0.029901344
20231225 03:37:05,0.258502,-0.420087,-1.047594,-0.117410,-0.041344,-0.063611,3.608688,-29.378899,5.377449,-171.02185,-0.51952136,-0.36618593,0.52133864,-0.12705593,-0.043656103,0.12191816
20231225 03:37:05,0.172902,-0.377668,-0.900887,-0.196245,-0.041344,-0.074265,3.911037,-28.607826,5.866013,-170.12564,-0.46958697,-0.3261501,0.48321706,-0.1920572,-0.047579806,0.1822494
20231225 03:37:05,0.090668,-0.229585,-0.618386,-0.243121,-0.034952,-0.065742,4.077763,-28.686401,5.604851,-169.65729,-0.33876714,-0.19099118,0.35577816,-0.22139739,-0.04532693,0.20764424
20231225 03:37:05,-0.029959,-0.138713,-0.336766,-0.264428,-0.031756,-0.045500,3.857635,-29.369843,6.183159,-170.34338,-0.23817724,-0.120518714,0.2498677,-0.22529379,-0.04616056,0.20594877
20231225 03:37:05,-0.036955,0.012928,-0.110418,-0.262297,-0.029625,-0.025259,4.015011,-29.351540,5.647644,-170.08022,-0.10145458,0.016535215,0.10749021,-0.21113516,-0.04380901,0.18912092
20231225 03:37:05,-0.032717,0.072570,-0.065951,-0.246317,-0.034952,-0.012475,3.714081,-28.988747,4.951118,-170.56602,-0.07215755,0.073914975,0.07908602,-0.18954596,-0.0487359,0.169665
20231225 03:37:05,-0.020266,0.209765,-0.136507,-0.232467,-0.033886,-0.003952,4.042290,-29.258362,5.909782,-169.82944,-0.11944841,0.2155392,0.13920915,-0.17083214,-0.047671124,0.15695646
20231225 03:37:05,-0.086839,0.407784,-0.213112,-0.220748,-0.021102,0.000310,3.546970,-28.718300,4.931801,-170.51152,-0.23595995,0.41393405,0.26013553,-0.15751863,-0.0358173,0.1503075
20231225 03:37:05,-0.159836,0.618808,-0.248082,-0.206899,0.004466,0.018421,3.926785,-29.167877,5.500809,-169.55159,-0.33275658,0.6217417,0.36578095,-0.13470986,-0.012396258,0.13302842
20231225 03:37:05,-0.253013,0.768312,-0.226758,-0.186657,0.048145,0.045054,3.486019,-28.441467,5.047096,-170.23177,-0.4011562,0.7604883,0.42978948,-0.105912216,0.028560808,0.104787424
20231225 03:37:05,-0.356712,0.750738,-0.093836,-0.154697,0.080106,0.079145,3.828815,-28.695450,4.799141,-169.53429,-0.3846252,0.72205204,0.41182673,-0.06410118,0.059472874,0.061251327
20231225 03:37:05,-0.321748,0.687344,0.026784,-0.112083,0.095021,0.120694,3.352966,-28.732910,4.930824,-171.0471,-0.26726225,0.65779155,0.2758023,-0.008821964,0.0778796,-0.0020476356
20231225 03:37:05,-0.221800,0.536720,0.114285,-0.053489,0.086498,0.156916,3.337608,-28.364754,5.576492,-171.16887,-0.121103235,0.51291937,0.12549788,0.059457105,0.07318208,-0.06973363
20231225 03:37:05,-0.055971,0.396312,0.054602,0.005105,0.059864,0.184615,3.335423,-29.114830,5.223518,-171.64825,-0.022918675,0.39026,0.039951947,0.12395804,0.051824838,-0.13307284
20231225 03:37:05,0.151482,0.192158,-0.147283,0.075418,0.026838,0.186746,3.019897,-28.767670,5.733604,-172.6979,0.008743495,0.19923556,0.024346814,0.18070708,0.024448141,-0.18528992
20231225 03:37:05,0.385389,0.123693,-0.489305,0.089268,0.028969,0.176092,3.256924,-29.219933,5.631508,-172.50624,-0.06022021,0.12708557,0.09580621,0.18611908,0.028653808,-0.18513545
20231225 03:37:05,0.517126,0.122735,-0.790324,0.103117,0.040688,0.143066,3.644547,-28.998817,5.352997,-171.25656,-0.21899727,0.1257391,0.17401001,0.17469764,0.0405809,-0.16783571
20231225 03:37:05,0.486624,0.305339,-1.092331,0.097791,0.058799,0.114302,3.379860,-28.447853,4.912483,-171.40977,-0.4795505,0.32047874,0.40170413,0.14975135,0.058550127,-0.14252013
20231225 03:37:05,0.294222,0.495707,-1.236417,0.040262,0.073714,0.117498,3.573864,-28.433243,4.913460,-170.30893,-0.7522236,0.55024266,0.63800955,0.11203633,0.07059469,-0.098481454
20231225 03:37:05,0.126665,0.592803,-1.339565,0.012563,0.075844,0.129217,3.266926,-27.799164,5.136955,-170.68614,-0.955683,0.6634099,0.8339019,0.10183631,0.06981346,-0.0850371
20231225 03:37:05,0.111555,0.619501,-1.312015,-0.039639,0.075844,0.146262,3.382431,-27.889656,5.545929,-170.53653,-0.9400304,0.68671405,0.83762455,0.07979791,0.066886924,-0.05721618
20231225 03:37:05,0.109932,0.632864,-1.235049,-0.079057,0.081171,0.144132,3.397789,-28.257813,4.900253,-170.6266,-0.87586486,0.6901006,0.79622924,0.05141494,0.07164789,-0.026655197
20231225 03:37:05,0.111864,0.598711,-1.129438,-0.101429,0.089694,0.111106,3.081886,-27.718750,5.129868,-171.31201,-0.7889986,0.65507126,0.7265568,0.01001507,0.080029644,0.010649264
20231225 03:37:05,0.049627,0.640332,-1.077852,-0.118475,0.084367,0.062100,3.151798,-27.900566,5.008461,-170.88286,-0.80704737,0.70640844,0.7395403,-0.03789234,0.07388012,0.056417875
20231225 03:37:05,-0.131729,0.810198,-1.094627,-0.144043,0.077975,0.017355,2.642277,-27.568024,5.517563,-171.5378,-0.9773328,0.8919406,0.8902639,-0.08879551,0.06463014,0.10469846
20231225 03:37:05,-0.377309,0.974839,-1.046223,-0.185592,0.088629,0.005636,2.888268,-27.925255,5.409370,-170.55302,-1.137531,1.0453739,1.0703394,-0.12850171,0.06823289,0.1453363
20231225 03:37:05,-0.587475,1.084751,-0.837911,-0.216487,0.119524,0.030139,2.895424,-28.772202,5.330750,-170.77393,-1.1380422,1.1056271,1.1109331,-0.13977066,0.08970481,0.15175582
20231225 03:37:05,-0.672209,1.031099,-0.468934,-0.217552,0.170660,0.080211,3.091236,-27.815628,5.404228,-170.27356,-0.9232292,0.99340343,0.9254029,-0.11727159,0.13340102,0.11897586
20231225 03:37:05,-0.664733,0.926382,-0.085465,-0.169612,0.237777,0.115367,2.587719,-27.754356,4.993309,-171.88977,-0.6367824,0.85163146,0.61385804,-0.06925756,0.20438662,0.058297686
20231225 03:37:05,-0.601353,0.912979,0.227085,-0.075861,0.314482,0.126021,2.704262,-26.519104,4.913834,-171.40678,-0.38164723,0.8145092,0.34284216,-0.0029018447,0.29007056,-0.005641088
20231225 03:37:05,-0.685896,1.109523,0.438167,0.046654,0.375207,0.113237,2.826160,-27.072762,4.683243,-170.87677,-0.33190653,0.9529564,0.28808677,0.06547804,0.3616706,-0.07005279
20231225 03:37:05,-0.951759,1.509141,0.322246,0.163842,0.413560,0.106844,2.093552,-27.789955,4.856743,-172.09157,-0.66668737,1.2800568,0.6111475,0.12372914,0.4115049,-0.15226714
20231225 03:37:05,-1.202638,2.296766,0.060612,0.222436,0.410364,0.124955,2.492710,-26.915634,5.205551,-169.60995,-1.1814796,2.0062234,1.1531049,0.15233356,0.40801254,-0.20264883
20231225 03:37:05,-1.415665,3.254339,-0.341768,0.160646,0.337920,0.184615,2.641891,-27.376129,5.237099,-168.17343,-1.8573284,2.9565172,1.7340876,0.15714976,0.30674535,-0.19549975
20231225 03:37:05,-1.373512,3.886147,-0.732854,-0.021528,0.236712,0.291150,2.281548,-27.504059,5.777748,-168.92259,-2.233923,3.69704,1.9544678,0.16749793,0.15786159,-0.11467081
20231225 03:37:05,-0.970429,3.877480,-0.787016,-0.235663,0.188771,0.422187,2.366055,-27.670242,4.449722,-170.50911,-1.7754359,3.8306787,1.5982773,0.1820472,0.09691265,-0.021624118
20231225 03:37:05,-0.185904,3.434103,-0.433661,-0.426361,0.249496,0.519134,2.439690,-27.869530,5.803177,-172.78865,-0.5984436,3.4412472,0.67874557,0.13331494,0.213515,0.035919815
20231225 03:37:05,0.623487,2.629525,0.507782,-0.576575,0.329397,0.530853,1.699150,-27.356003,5.494347,-176.34879,0.87024534,2.6243892,-0.6798606,-0.027403682,0.35886988,0.04439655
20231225 03:37:05,1.190789,1.610888,1.784958,-0.699090,0.343247,0.439233,1.557133,-27.742462,5.384193,-177.4698,2.0303185,1.6043817,-2.0843103,-0.3355844,0.4024414,0.023876548
20231225 03:37:05,1.378518,0.627620,3.095474,-0.733181,0.287849,0.294346,1.415115,-28.128922,5.274033,-177.77998,2.736345,0.64769036,-3.3505845,-0.4854851,0.34058276,0.11275032
20231225 03:37:05,1.355289,-0.335193,4.342873,-0.620254,0.219666,0.166504,1.228153,-27.089066,3.864586,-177.72423,2.9612594,-0.31276643,-4.5329304,-0.49911624,0.24855079,0.10175675
20231225 03:37:05,0.962044,-1.224676,5.068138,-0.368832,0.175987,0.084472,1.361206,-26.797623,3.980850,-177.1199,2.5948853,-1.2200758,-5.1507864,-0.31919712,0.17818147,0.051815554
20231225 03:37:05,0.391503,-1.943426,5.318259,-0.046031,0.145092,0.075949,1.105869,-26.343521,3.814705,-177.27563,1.9027189,-1.9858541,-5.294029,-0.02423368,0.14243592,-0.05309624
20231225 03:37:05,-0.077440,-2.599324,4.992502,0.282096,0.108870,0.128151,1.203060,-26.432152,3.955421,-176.85542,1.1724615,-2.6780791,-4.9562397,0.30293196,0.12458132,-0.18666118
20231225 03:37:05,-0.169745,-3.151670,4.337890,0.561217,0.031100,0.189942,0.799694,-26.093224,4.599136,-177.66006,0.89163923,-3.217977,-4.2997823,0.589533,0.061767086,-0.31441373
20231225 03:37:05,0.002392,-3.586724,3.437678,0.776417,-0.103134,0.229359,0.902901,-26.453140,3.819839,-177.71071,0.831116,-3.6170406,-3.4819064,0.8093657,-0.07330617,-0.40640336
20231225 03:37:05,0.321170,-3.808765,2.415399,0.941546,-0.265067,0.245340,1.100246,-26.264130,5.015198,-177.53435,0.93099743,-3.811489,-2.5744495,0.9736305,-0.25684956,-0.4863428
20231225 03:37:05,0.674733,-3.771240,0.943563,1.059800,-0.357752,0.234686,0.748863,-26.297050,5.549736,-178.98674,0.8917806,-3.7821004,-1.179855,1.0700022,-0.4030333,-0.5885828
20231225 03:37:05,1.145775,-3.217134,-0.589231,1.098153,-0.339641,0.206987,0.812000,-25.823799,5.787415,179.97263,0.47568333,-3.366448,-0.059623003,1.0300714,-0.45587415,-0.7271085
20231225 03:37:05,1.495212,-2.429354,-1.913846,0.979899,-0.336445,0.137740,0.548851,-26.040367,6.468788,177.6178,-0.51442266,-2.9225767,0.49610782,0.765126,-0.47628823,-0.74742216
20231225 03:37:05,1.655179,-1.523056,-3.031871,0.699712,-0.349229,0.028009,0.718143,-25.560745,6.841080,176.095,-1.7176329,-2.495337,0.5224513,0.3505481,-0.4523488,-0.5658803
20231225 03:37:05,1.549928,-0.674026,-3.779756,0.294880,-0.307681,-0.115813,1.221664,-25.622017,7.251999,177.06476,-2.5832412,-1.8366401,0.48923016,-0.033111647,-0.36584544,-0.1943197
20231225 03:37:05,1.174453,0.034875,-3.850457,-0.179200,-0.210734,-0.263897,1.026623,-26.962364,7.739464,-179.4295,-2.7640285,-0.38303563,0.8559562,-0.33602923,-0.22470139,0.28423536
20231225 03:37:05,0.242180,0.437091,-2.736972,-0.597882,-0.130833,-0.354451,1.352528,-26.080658,7.015297,-173.94382,-2.0684752,0.73182976,1.4701602,-0.6269554,-0.13949174,0.6813868
20231225 03:37:05,-0.775425,0.429028,-1.309034,-0.858892,-0.006187,-0.346994,1.208973,-25.699554,5.783257,-173.58875,-1.5109957,0.49778295,1.5089774,-0.8516506,-0.09199205,0.8440753
20231225 03:37:05,-1.569634,0.279168,0.437127,-0.923878,0.154680,-0.252178,1.332680,-25.311256,5.625175,-173.35797,-1.0688257,-0.12455531,0.5913242,-0.91536045,-0.005840417,0.7577558
20231225 03:37:05,-2.200476,-0.088970,2.181433,-0.802429,0.255888,-0.093441,1.508369,-25.294800,5.357895,-173.18121,-0.8766242,-0.9013338,-0.81770825,-0.77765715,0.06772882,0.5008567
20231225 03:37:05,-2.590786,-0.532531,3.387167,-0.559529,0.261215,0.097256,1.093468,-25.609070,5.374283,-174.37097,-0.8931613,-1.5243602,-1.9935553,-0.49602738,0.10548802,0.17393175
20231225 03:37:05,-2.587166,-0.916458,4.088073,-0.245251,0.173856,0.283692,1.181694,-25.792732,5.521126,-174.46709,-0.71138763,-1.8605452,-2.7882671,-0.13259348,0.086565055,-0.14638552
20231225 03:37:05,-2.166843,-1.137774,4.029982,0.080745,0.060930,0.427514,0.715191,-25.927048,5.927162,-175.82228,-0.29361308,-1.8446567,-2.8762386,0.2381073,0.039654408,-0.41857153
20231225 03:37:05,-1.414055,-1.244377,3.114117,0.358801,0.022577,0.505285,0.557430,-25.753464,6.182205,-176.8175,0.17421925,-1.608748,-2.2246454,0.5416359,0.03633932,-0.610067
20231225 03:37:05,-0.582506,-1.291608,2.032873,0.563348,0.046015,0.521265,0.566395,-25.658447,6.176094,-177.71959,0.501809,-1.3960283,-1.5512909,0.74167764,0.06377128,-0.7251009
20231225 03:37:05,0.059805,-1.476467,1.040278,0.682667,0.086498,0.477586,0.435913,-25.391701,6.693268,-178.75244,0.60300124,-1.4844607,-0.94798446,0.8305531,0.092140436,-0.76050776
20231225 03:37:05,0.470536,-1.478654,0.231409,0.725281,0.130177,0.394488,0.038940,-25.515938,6.697426,179.72052,0.49965605,-1.4844728,-0.44898874,0.823559,0.121024035,-0.73314476
20231225 03:37:05,0.620801,-1.422733,-0.384080,0.729542,0.164268,0.295411,0.066219,-25.422768,6.959557,179.53642,0.22286722,-1.4491777,-0.06735879,0.76135105,0.14917386,-0.6812993
20231225 03:37:05,0.624100,-1.279826,-1.040773,0.697582,0.207948,0.202726,0.499054,-24.918449,6.930946,-179.2303,-0.2448639,-1.3104753,0.35291266,0.6604197,0.19743776,-0.6119896
20231225 03:37:05,0.475935,-1.112093,-1.501932,0.636857,0.244169,0.124955,0.316586,-24.279846,7.557297,-179.20087,-0.71749055,-1.1123909,0.7224944,0.5408202,0.24409145,-0.53413254
20231225 03:37:05,0.277744,-0.951435,-1.793651,0.558021,0.264411,0.066361,-0.221256,-25.366219,8.292709,-179.52863,-1.0949099,-0.8752571,1.0052888,0.4170647,0.28045866,-0.45398295
20231225 03:37:05,0.039242,-0.710515,-1.965541,0.458944,0.260150,0.016290,-0.053493,-24.119026,7.543114,-178.0837,-1.4138224,-0.5518004,1.2217784,0.28822774,0.2875928,-0.35560182
20231225 03:37:05,-0.237043,-0.361894,-2.124610,0.344951,0.250562,-0.009279,0.299038,-24.661774,7.849991,-175.80829,-1.7536814,-0.111405045,1.4735051,0.1731238,0.28255832,-0.25509283
20231225 03:37:05,-0.497702,-0.032005,-2.176127,0.217110,0.245235,-0.005017,-0.025829,-24.217743,8.085724,-175.4948,-1.9982457,0.26666915,1.6959615,0.08554566,0.26759693,-0.15937182
20231225 03:37:05,-0.694326,0.213203,-2.009138,0.079680,0.228189,0.016290,0.063168,-24.785187,8.793503,-174.57774,-2.01482,0.4764262,1.7776442,0.019470796,0.2302365,-0.060097005
20231225 03:37:05,-0.771740,0.386090,-1.729740,-0.046031,0.197294,0.050381,-0.185013,-25.178024,8.548737,-175.55045,-1.8667324,0.57106733,1.6973767,-0.024802726,0.17707416,0.014208093
20231225 03:37:05,-0.789140,0.447396,-1.406680,-0.150435,0.157876,0.088734,-0.096783,-25.361679,8.695572,-175.55089,-1.6320724,0.5585848,1.530534,-0.056955993,0.11862109,0.065659806
20231225 03:37:06,-0.821489,0.386195,-1.055226,-0.223944,0.126981,0.139870,-0.476212,-25.103996,8.407036,-176.98775,-1.3743963,0.42332926,1.3309898,-0.068674676,0.07354771,0.075569354
20231225 03:37:06,-0.759005,0.214829,-0.704439,-0.268689,0.100347,0.197399,-0.326382,-24.046852,7.669662,-177.37729,-1.053642,0.20545396,1.0413594,-0.063767925,0.04105269,0.055088416
20231225 03:37:06,-0.568704,-0.011066,-0.318896,-0.289996,0.060930,0.254928,-0.405258,-23.960060,7.797180,-178.48564,-0.6307081,-0.036611337,0.6206751,-0.045250416,0.010642249,0.012363225
20231225 03:37:06,-0.258906,-0.221034,-0.102914,-0.292127,0.005531,0.298607,-0.696838,-23.694138,7.375008,179.62733,-0.2519399,-0.229904,0.24865234,-0.025239527,-0.025368214,-0.033595204
20231225 03:37:06,0.117830,-0.504672,0.105200,-0.286800,-0.061585,0.310326,-0.730511,-23.324142,7.752434,178.51025,0.16325948,-0.5041732,-0.14581169,-0.025342956,-0.06874342,-0.05776094
20231225 03:37:06,0.521594,-0.704245,0.159884,-0.282539,-0.150009,0.290084,-0.757404,-23.609207,7.770775,177.33694,0.4896682,-0.7166687,-0.42334813,-0.04551825,-0.13295412,-0.046324328
20231225 03:37:06,0.936464,-0.812382,0.109108,-0.281473,-0.239499,0.238948,-1.004814,-24.385811,8.086952,175.75078,0.7554533,-0.8740395,-0.61539984,-0.089555174,-0.20226923,-2.2396445E-4
20231225 03:37:06,1.233507,-0.862570,-0.034893,-0.279343,-0.291701,0.152654,-0.882263,-23.421844,7.087448,175.24371,0.8747747,-0.9960244,-0.67554003,-0.15287134,-0.24368736,0.07112623
20231225 03:37:06,1.461208,-0.881445,-0.125614,-0.267624,-0.301289,0.041858,-1.004162,-22.868179,7.318031,174.47592,0.98689514,-1.0665715,-0.7357998,-0.21493997,-0.25955835,0.15505871
20231225 03:37:06,1.449644,-0.776544,-0.069185,-0.247382,-0.285309,-0.094506,-0.660599,-23.505951,7.631035,175.60768,1.0201166,-0.9401496,-0.8032199,-0.27770436,-0.2625882,0.24497578
20231225 03:37:06,1.170954,-0.500845,0.034043,-0.218618,-0.259740,-0.223413,-0.546242,-23.020775,7.198586,177.09053,0.9005917,-0.5715549,-0.7495445,-0.32375485,-0.25663486,0.3213607
20231225 03:37:06,0.615816,-0.184743,0.148746,-0.179200,-0.234172,-0.316099,-0.742817,-23.593575,6.564163,177.96487,0.56457347,-0.18739456,-0.50725573,-0.3423891,-0.23465294,0.36306
20231225 03:37:06,0.083394,0.094155,0.309083,-0.123802,-0.222453,-0.368301,-0.152992,-22.879066,5.719566,-179.4484,0.26109916,0.0853265,-0.2875927,-0.32511562,-0.21286778,0.35787767
20231225 03:37:06,-0.427585,0.337109,0.350964,-0.053489,-0.219257,-0.387477,-0.637039,-23.395309,6.418304,-179.51979,-0.11658764,0.2642548,0.024014682,-0.27689862,-0.18988618,0.32370335
20231225 03:37:06,-0.907664,0.540710,0.297045,0.023216,-0.216061,-0.369366,-0.265160,-22.614159,6.504990,-177.52502,-0.53967744,0.37508613,0.40922827,-0.20135468,-0.1646584,0.25023597
20231225 03:37:06,-1.201913,0.663986,0.212328,0.100987,-0.233106,-0.331014,-0.301407,-22.802338,6.248962,-177.22415,-0.82761383,0.43626165,0.6931007,-0.11506683,-0.1652286,0.16321883
20231225 03:37:06,-1.291365,0.745606,-0.094583,0.158515,-0.256544,-0.289465,-0.098053,-22.884613,6.524300,-176.19788,-1.0947105,0.536703,1.0173093,-0.047348335,-0.17860898,0.07918268
20231225 03:37:06,-1.255616,0.873562,-0.483710,0.180888,-0.281047,-0.261766,0.043198,-22.114372,6.073517,-175.8656,-1.3389864,0.74238956,1.2945663,-0.02001302,-0.20381024,0.029103383
20231225 03:37:06,-1.158671,0.993078,-0.895006,0.158515,-0.297027,-0.253243,-0.343658,-22.719261,6.912979,-176.53323,-1.5837486,0.9529989,1.5003285,-0.035117358,-0.22367083,0.031166181
20231225 03:37:06,-1.125282,1.109899,-1.195027,0.100987,-0.299158,-0.255374,0.062279,-22.500000,6.902710,-175.10654,-1.8112446,1.130994,1.6832633,-0.0758297,-0.23041233,0.065467596
20231225 03:37:06,-1.136981,1.180714,-1.299863,0.032804,-0.275720,-0.252178,0.442478,-23.141464,7.752182,-173.5538,-1.9166718,1.2196751,1.7771956,-0.11922413,-0.21558066,0.11142706
20231225 03:37:06,-1.182487,1.246729,-1.148137,-0.031116,-0.234172,-0.241524,0.387917,-23.327805,7.227921,-174.13597,-1.8394804,1.2423699,1.7204418,-0.15824443,-0.18853143,0.16194358
20231225 03:37:06,-1.211656,1.254737,-0.814142,-0.076926,-0.201146,-0.210629,0.741104,-22.352921,6.765884,-173.4051,-1.6113777,1.1772723,1.5388404,-0.17009124,-0.17141476,0.18097124
20231225 03:37:06,-1.228950,1.148402,-0.471529,-0.096103,-0.180904,-0.164819,0.282795,-22.008438,6.604866,-175.19482,-1.3548923,1.0172496,1.2814608,-0.1555126,-0.16563326,0.17230028
20231225 03:37:06,-1.104849,0.995399,-0.063730,-0.102495,-0.196885,-0.115813,0.494728,-21.803787,6.593613,-175.22034,-0.95536107,0.8460238,0.8811842,-0.12808943,-0.19213042,0.14246696
20231225 03:37:06,-0.916855,0.847804,0.194384,-0.103560,-0.251217,-0.077461,0.643524,-22.072395,6.344688,-175.65184,-0.61470425,0.72555524,0.538241,-0.10322166,-0.25173607,0.11354716
20231225 03:37:06,-0.611323,0.655006,0.215044,-0.099299,-0.306616,-0.073199,0.925758,-22.241440,6.492508,-175.64995,-0.34265292,0.5931714,0.2993019,-0.10141815,-0.30729538,0.10429035
20231225 03:37:06,-0.314288,0.596076,0.095023,-0.076926,-0.318334,-0.112617,0.563873,-21.601830,5.911270,-177.24208,-0.18746176,0.57588845,0.17022523,-0.119057775,-0.31619743,0.12335584
20231225 03:37:06,-0.155798,0.688384,-0.020448,-0.035378,-0.274655,-0.181865,0.997475,-21.481285,6.443604,-175.90363,-0.15547183,0.6808869,0.15958555,-0.14127308,-0.26743442,0.1390773
20231225 03:37:06,-0.290285,0.927926,-0.063162,0.021086,-0.190493,-0.251113,1.049843,-22.045029,6.614883,-175.2523,-0.30942827,0.90924823,0.3056039,-0.151923,-0.17149347,0.14823604
20231225 03:37:06,-0.588224,1.141019,0.027542,0.095660,-0.090350,-0.297988,1.049461,-21.853142,6.334419,-174.39876,-0.5031601,1.0703022,0.48152137,-0.13682286,-0.050387595,0.13102177
20231225 03:37:06,-1.004546,1.338233,0.154658,0.201129,0.016185,-0.313968,0.953423,-22.340164,7.035103,-173.41772,-0.7778127,1.1501942,0.72609603,-0.08579424,0.08899166,0.07135396
20231225 03:37:06,-1.452053,1.643792,0.250948,0.343886,0.125916,-0.286269,1.034489,-21.676872,7.260551,-171.94905,-1.113305,1.3015697,1.0458229,0.010588914,0.231848,-0.04449518
20231225 03:37:06,-1.747188,1.854071,0.297393,0.504754,0.216470,-0.225544,0.938446,-22.163902,7.961250,-171.29974,-1.3600587,1.3851975,1.2719542,0.13993749,0.35044813,-0.19625744
20231225 03:37:06,-1.925237,2.071554,0.289978,0.637922,0.250562,-0.147774,1.555550,-21.356216,7.378784,-168.98508,-1.5371412,1.5239909,1.5156589,0.2604749,0.3999368,-0.3499784
20231225 03:37:06,-1.942598,2.466625,0.168693,0.680536,0.167464,-0.055088,1.485252,-20.982513,7.219711,-168.75366,-1.6773541,1.9391978,1.7112526,0.3460986,0.3023873,-0.47581872
20231225 03:37:06,-1.652134,2.747586,-0.298575,0.577197,-0.027494,0.057838,1.361160,-21.178940,7.097336,-169.99207,-1.7663183,2.4737246,1.7913786,0.38856265,0.047196038,-0.50432944
20231225 03:37:06,-0.803250,2.552091,-0.783884,0.359866,-0.218192,0.140936,1.063572,-20.641747,7.595192,-174.1353,-1.3088274,2.5591218,1.2485733,0.3360781,-0.20851912,-0.38908103
20231225 03:37:06,0.433292,2.184659,-1.001968,0.107379,-0.325792,0.139870,1.460159,-20.325607,7.310562,-177.49689,-0.40302706,2.075874,0.27314782,0.15086229,-0.31945056,-0.17622517
20231225 03:37:06,1.394559,1.888535,-0.870798,-0.132325,-0.333249,0.062100,1.423916,-20.513802,7.054543,179.66174,0.48950273,1.5185381,-0.5860292,-0.088387385,-0.29808983,0.068622634
20231225 03:37:06,1.863514,1.548254,-0.523993,-0.374159,-0.250152,-0.044435,1.265770,-20.148338,7.029114,179.16049,1.1097543,1.1609224,-1.0539885,-0.321975,-0.19776839,0.3108359
20231225 03:37:06,1.773113,0.851110,0.422664,-0.603208,-0.184100,-0.145643,1.195858,-19.966522,7.150513,-179.67848,1.7024498,0.68072116,-1.4693205,-0.5701046,-0.12750402,0.50171864
20231225 03:37:06,1.296268,-0.094158,1.616125,-0.740638,-0.145748,-0.206368,1.010433,-19.694229,6.862953,-178.60434,1.9652541,-0.10836666,-2.0642436,-0.7376839,-0.10751127,0.5768211
20231225 03:37:06,0.740469,-0.775376,2.658842,-0.758749,-0.078631,-0.195714,1.722927,-19.917145,6.348717,-175.55347,1.8920418,-0.7639064,-2.7421253,-0.7627644,-0.0675173,0.52229667
20231225 03:37:06,0.346920,-1.488857,3.549586,-0.668195,-0.029625,-0.144578,1.174202,-20.139091,5.687881,-176.58575,1.6920487,-1.5007305,-3.4859629,-0.672263,-0.036050834,0.38861018
20231225 03:37:06,0.061346,-2.287150,4.125518,-0.511589,-0.027494,-0.096637,1.386520,-20.126328,5.957108,-175.77473,1.373781,-2.3201632,-4.0851545,-0.51579344,-0.039938882,0.25032684
20231225 03:37:06,-0.007866,-2.961980,4.431640,-0.295323,-0.111657,-0.081722,1.458622,-19.558060,6.188675,-175.60437,1.177304,-2.9836702,-4.4786158,-0.3058603,-0.11660219,0.14832655
20231225 03:37:06,0.238563,-3.348534,4.302418,-0.006613,-0.212865,-0.133924,1.431728,-19.843117,6.207016,-176.16917,1.3730236,-3.3425276,-4.416212,-0.04250309,-0.21305028,0.11683327
20231225 03:37:06,0.528471,-3.110945,3.310882,0.321514,-0.187297,-0.233002,1.510609,-19.929901,6.079491,-176.34576,1.5964909,-3.0907543,-3.4720693,0.22062482,-0.1985282,0.09738554
20231225 03:37:06,0.594148,-2.438159,2.070136,0.571870,-0.083958,-0.332079,1.598839,-20.113571,6.226334,-175.89798,1.4373305,-2.4309921,-2.2688158,0.36267406,-0.0953637,0.03551346
20231225 03:37:06,0.266274,-1.650909,0.994898,0.676275,-0.031756,-0.407719,1.749435,-19.440193,6.049904,-174.1623,0.8208826,-1.6631036,-1.1035664,0.3251288,-0.0012222426,-0.05378011
20231225 03:37:06,-0.163246,-0.666862,-0.020121,0.644314,0.011924,-0.397065,1.882492,-19.148766,6.166176,-172.00116,-0.08448857,-0.6745204,0.056739777,0.2067473,0.09304848,-0.14494854
20231225 03:37:06,-0.552377,0.149215,-0.686834,0.530322,0.040688,-0.299053,2.243603,-19.404602,6.186470,-169.45999,-0.8905784,0.16870204,0.8822835,0.13751632,0.1354553,-0.18572406
20231225 03:37:06,-0.719169,0.470231,-1.058634,0.373716,0.048145,-0.144578,2.121700,-18.850937,6.417053,-169.26765,-1.3197396,0.5193114,1.2833078,0.132148,0.10874664,-0.18229121
20231225 03:37:06,-0.499359,0.297240,-1.160376,0.209652,0.030034,0.020551,1.725113,-19.167076,6.701691,-171.94118,-1.2180376,0.35695058,1.1653847,0.15225069,0.044219125,-0.16714822
20231225 03:37:06,0.042618,-0.144027,-1.129211,0.059438,0.019381,0.155850,1.937046,-18.962425,6.690437,-173.77635,-0.7723873,-0.13966468,0.7480578,0.15253517,0.019019391,-0.14972714
20231225 03:37:06,0.691782,-0.712859,-0.904617,-0.065208,0.011924,0.220837,1.629723,-18.136467,6.633469,-176.72762,-0.11701393,-0.8092886,0.1911419,0.09692715,0.029185075,-0.122050494
20231225 03:37:06,1.223258,-1.195554,-0.559275,-0.154697,-0.001926,0.214445,1.884678,-18.398674,6.519150,-177.23438,0.5277512,-1.3757688,-0.34599924,0.005960107,0.035416353,-0.07608099
20231225 03:37:06,1.555206,-1.537209,-0.141345,-0.209030,-0.014710,0.168635,1.602825,-18.421524,6.651810,-178.97981,1.0555812,-1.7648907,-0.7713227,-0.082879,0.03520444,-0.023875825
20231225 03:37:06,1.795736,-1.726474,0.308549,-0.210095,-0.024298,0.094060,1.717182,-17.936340,6.219360,-178.49243,1.5127243,-1.9566559,-1.244633,-0.13270438,0.019982373,0.029847302
20231225 03:37:06,1.887482,-1.679168,0.650589,-0.168546,-0.016841,0.010963,1.813343,-19.350723,6.848526,-178.43306,1.7868111,-1.8803725,-1.5783892,-0.13976891,0.010319468,0.07815089
20231225 03:37:06,1.764968,-1.491354,0.894237,-0.126998,-0.026429,-0.062546,1.400242,-18.723045,6.937416,-179.18053,1.839818,-1.635341,-1.7098718,-0.14266782,-0.014220416,0.11988264
20231225 03:37:06,1.562421,-1.246776,1.034563,-0.099299,-0.064781,-0.122205,1.406250,-18.994316,6.017380,-178.21553,1.7787337,-1.3334674,-1.7538043,-0.15413997,-0.06209603,0.15490457
20231225 03:37:06,1.375490,-0.947020,1.027792,-0.085449,-0.103134,-0.169081,1.469776,-18.712959,6.535538,-177.76376,1.653801,-1.0011905,-1.6566978,-0.17212717,-0.10531114,0.18428648
20231225 03:37:06,1.127032,-0.689424,1.014596,-0.071600,-0.125506,-0.194649,1.556850,-18.320953,5.840958,-176.60634,1.4735833,-0.7127997,-1.5136373,-0.1773307,-0.1295337,0.1934853
20231225 03:37:06,0.836372,-0.584342,0.947649,-0.037509,-0.110591,-0.197845,1.451077,-18.519218,5.986816,-176.31174,1.2173846,-0.58913606,-1.2866011,-0.1485933,-0.114089794,0.17641252
20231225 03:37:06,0.519598,-0.633081,0.969738,0.027478,-0.061585,-0.189322,1.625999,-18.118980,5.158607,-174.81625,0.98257077,-0.6327492,-1.1354637,-0.08672907,-0.061909135,0.13371246
20231225 03:37:06,0.213668,-0.784945,1.015745,0.111640,-0.017906,-0.173342,1.760586,-18.595100,6.396759,-173.96565,0.7698699,-0.7993476,-1.0200846,-0.006382011,-0.010818863,0.07668208
20231225 03:37:06,-0.132836,-0.871030,0.909577,0.195803,0.011924,-0.141382,1.832306,-17.834946,6.347855,-172.71126,0.44408566,-0.9176388,-0.75854826,0.08072564,0.03092555,0.0056230724
20231225 03:37:06,-0.352086,-0.970095,0.742239,0.272508,0.030034,-0.097702,1.593098,-18.132767,6.096977,-173.2554,0.19220044,-1.0326643,-0.49089125,0.16450775,0.05590338,-0.07548206
20231225 03:37:06,-0.364570,-1.055277,0.451163,0.333233,0.043884,-0.055088,1.595016,-19.092209,7.499329,-173.41762,0.02865985,-1.1022794,-0.24365705,0.23400742,0.07135359,-0.14873949
20231225 03:37:06,-0.283203,-1.053494,0.131167,0.374781,0.050276,-0.024193,1.772507,-18.133781,7.304565,-172.76892,-0.09050415,-1.0751449,-0.03460867,0.27918178,0.075983,-0.20525911
20231225 03:37:06,-0.158039,-1.066187,-0.283685,0.388631,0.051341,-0.010344,1.566967,-18.801605,6.676262,-173.67087,-0.25102141,-1.058601,0.22748843,0.2894094,0.07421388,-0.23662329
20231225 03:37:06,-0.033565,-1.014811,-0.687255,0.377977,0.067322,-0.009279,1.896214,-17.745476,7.146477,-172.41747,-0.4408166,-0.9829677,0.426997,0.2699567,0.08640623,-0.24136682
20231225 03:37:06,-0.044420,-0.823443,-1.062179,0.335363,0.085433,-0.010344,1.772507,-18.133781,7.304565,-172.37602,-0.7337115,-0.7590947,0.6954076,0.22347479,0.10576374,-0.22313254
20231225 03:37:06,-0.132950,-0.526139,-1.358086,0.262920,0.096086,-0.007148,2.178829,-18.106415,7.574760,-170.67213,-1.0588138,-0.43695372,0.93640083,0.1634156,0.11267415,-0.18071583
20231225 03:37:06,-0.147141,-0.321887,-1.565317,0.159581,0.089694,0.012028,2.187794,-18.011398,7.568649,-170.1921,-1.2612176,-0.20451291,1.0690136,0.1045576,0.098974906,-0.120035395
20231225 03:37:06,-0.146736,-0.091298,-1.688550,0.037066,0.070518,0.037597,1.542263,-18.336578,7.047569,-172.35834,-1.3965014,0.03457675,1.1518328,0.046728782,0.06951228,-0.046364263
20231225 03:37:06,-0.049093,0.085214,-1.683636,-0.086515,0.054537,0.070623,1.895828,-17.553589,6.866005,-171.56078,-1.3520879,0.1800029,1.0796777,-0.0016038045,0.046354502,0.029462144
20231225 03:37:06,0.102446,0.166844,-1.586465,-0.195180,0.054537,0.104714,1.693245,-17.855103,7.151611,-173.1742,-1.173285,0.22307965,0.9237347,-0.0432975,0.04561317,0.090399325
20231225 03:37:06,0.244593,0.164621,-1.369745,-0.280408,0.074779,0.132413,1.763542,-18.228806,7.310677,-173.84383,-0.87807345,0.18369973,0.7171867,-0.08413988,0.0702419,0.13126692
20231225 03:37:06,0.407851,0.132105,-0.931610,-0.331545,0.100347,0.154785,1.408821,-18.436134,6.650833,-175.65515,-0.3911992,0.12128985,0.35324442,-0.11612689,0.10419649,0.13852313
20231225 03:37:06,0.551923,0.052264,-0.451696,-0.342198,0.112066,0.166504,1.507168,-19.100433,7.632965,-176.15773,0.08277732,0.03111209,-0.05838406,-0.12737176,0.12276568,0.12445822
20231225 03:37:06,0.676400,-0.000752,-0.061577,-0.330479,0.103544,0.169700,1.436100,-18.342964,6.912964,-176.56262,0.46012053,-0.027167706,-0.40844068,-0.12784527,0.12088797,0.10083234
20231225 03:37:06,0.835365,-0.071446,0.264042,-0.300650,0.066256,0.152654,0.817844,-18.574982,6.654015,-178.802,0.8019113,-0.101099126,-0.7462917,-0.12560676,0.08729967,0.081597015
20231225 03:37:06,0.959121,-0.101155,0.442782,-0.253774,0.025773,0.120694,1.347107,-17.775528,6.205185,-177.28836,1.0129956,-0.13750866,-0.95913994,-0.1156419,0.04787154,0.07179543
20231225 03:37:06,1.041668,-0.072142,0.495272,-0.193049,0.002335,0.072753,0.746780,-17.817505,5.933998,-179.12883,1.1102014,-0.110231325,-1.0519037,-0.100344256,0.018011056,0.069262564
20231225 03:37:06,0.946667,-0.009207,0.479996,-0.126998,0.001270,0.022682,1.198311,-17.506920,6.454109,-177.39261,1.0303466,-0.03425391,-0.98019266,-0.08170632,0.008116797,0.06541536
20231225 03:37:06,0.745397,0.130243,0.392649,-0.057750,0.011924,-0.023128,1.091766,-17.321419,6.039024,-176.95253,0.8198538,0.1210139,-0.7841419,-0.058198556,0.012779796,0.05619798
20231225 03:37:06,0.416962,0.295648,0.228825,0.005105,0.038557,-0.049762,1.056290,-17.893379,6.343948,-176.10336,0.45706272,0.29865003,-0.4363447,-0.030661931,0.039319105,0.034814592
20231225 03:37:06,-0.028250,0.417850,0.011661,0.060503,0.057734,-0.050827,1.037979,-17.891533,6.075706,-175.35396,-0.028952029,0.41552085,0.03560358,0.006077718,0.062174432,-0.0021101236
20231225 03:37:06,-0.124970,0.428763,-0.088363,0.102052,0.072648,-0.029520,0.949749,-17.707870,5.928864,-175.07382,-0.17577636,0.4250782,0.17665058,0.047583207,0.080133796,-0.0464686
20231225 03:37:06,-0.234952,0.371999,-0.274290,0.130816,0.085433,0.007767,1.374386,-17.682350,6.467308,-173.55525,-0.3816005,0.3728448,0.38869095,0.09331207,0.09260898,-0.090659276
20231225 03:37:06,-0.152736,0.169863,-0.398107,0.154254,0.086498,0.037597,0.862671,-18.099884,6.623451,-175.76192,-0.39644453,0.18077482,0.39790595,0.13175413,0.091707684,-0.13092473
20231225 03:37:06,0.044765,0.019247,-0.644507,0.164908,0.089694,0.050381,1.047325,-17.988396,6.350060,-175.4899,-0.4296383,0.04253625,0.4182699,0.14823894,0.09334867,-0.14808747
20231225 03:37:06,0.195965,-0.059685,-0.863614,0.151058,0.076910,0.046120,1.268608,-17.880630,6.613174,-175.06874,-0.49187496,-0.036221247,0.4445845,0.13549344,0.079029515,-0.13685188
20231225 03:37:06,0.231197,-0.079486,-1.131455,0.112705,0.056668,0.037597,0.837967,-17.634865,6.994751,-176.59401,-0.6830814,-0.054767117,0.58219653,0.102385506,0.0578332,-0.106544845
20231225 03:37:06,0.267718,-0.031610,-1.339320,0.056242,0.036427,0.033335,1.481693,-18.251648,7.443336,-174.83586,-0.8343398,-0.014538928,0.6715956,0.06166567,0.036592044,-0.06207169
20231225 03:37:06,0.360375,0.025232,-1.502868,-0.007679,0.012989,0.020551,1.039898,-18.850975,7.478058,-176.45113,-0.9339398,0.03630882,0.6732002,0.010945298,0.012823137,-0.0065551302
20231225 03:37:06,0.296844,0.323424,-1.677685,-0.083319,-0.002991,0.003506,1.127361,-18.650856,7.063950,-175.51825,-1.1653813,0.3650812,0.7876926,-0.047411453,-0.0044516865,0.06419368
20231225 03:37:07,0.178436,0.755430,-1.818962,-0.158958,-0.005122,0.002440,0.995342,-17.616554,6.459244,-175.07298,-1.4203361,0.8350613,0.92601323,-0.08860517,-0.0098063145,0.1288197
20231225 03:37:07,0.067643,1.124804,-1.924174,-0.234598,0.032165,0.023747,1.083183,-17.608322,6.325607,-174.0208,-1.6252512,1.2482909,1.079221,-0.11358734,0.02034956,0.1831872
20231225 03:37:07,-0.060659,1.421943,-1.689550,-0.296388,0.084367,0.071688,1.031586,-17.428368,6.715263,-174.17923,-1.5047265,1.5268521,1.1030523,-0.11836682,0.065361336,0.20578982
20231225 03:37:07,-0.011338,1.518862,-1.188718,-0.317695,0.124850,0.122825,0.886993,-18.373009,5.971657,-175.54225,-1.0130725,1.5721744,0.8128324,-0.10542341,0.10694681,0.18048957
20231225 03:37:07,0.091942,1.481991,-0.610570,-0.285735,0.132308,0.159046,0.773674,-17.532440,5.915665,-176.43333,-0.44565532,1.5000576,0.38518515,-0.06807389,0.12109078,0.11980187
20231225 03:37:07,0.257682,1.391900,-0.210252,-0.214356,0.116328,0.177157,0.746395,-17.625618,5.653534,-177.2557,0.01437746,1.3932565,-0.0035619587,-0.01420629,0.11518135,0.04260076
20231225 03:37:07,0.544832,1.289256,0.050613,-0.125932,0.068387,0.168635,1.029015,-17.986549,6.081818,-177.2084,0.44337267,1.2768838,-0.38737726,0.037594184,0.075534426,-0.021981806
20231225 03:37:07,0.749437,1.187839,0.034190,-0.053489,0.005531,0.134543,0.755745,-17.722481,5.927887,-178.64825,0.58981884,1.155539,-0.5522107,0.061957393,0.0138513185,-0.05254957
20231225 03:37:07,1.031790,1.176904,-0.299120,-0.010875,-0.073304,0.053577,0.589020,-17.643929,6.189049,179.77191,0.5571473,1.0746615,-0.5740578,0.026770614,-0.06793066,-0.027350428
20231225 03:37:07,1.102633,1.199647,-0.382965,-0.010875,-0.082892,0.020551,0.589020,-17.643929,6.189049,179.64316,0.53885955,1.0797403,-0.58356154,0.0013023373,-0.079868756,-0.004986521
20231225 03:37:07,1.148806,1.259788,-0.550486,-0.023659,-0.065847,-0.056154,0.800953,-17.439278,6.177803,-179.54443,0.43436822,1.1263256,-0.5087763,-0.06321716,-0.0684141,0.054136142
20231225 03:37:07,0.986775,1.356738,-0.503115,-0.025790,-0.011514,-0.130728,0.835392,-18.193047,6.361313,-178.46777,0.33064073,1.2920262,-0.39072296,-0.11591081,-0.016442858,0.10501587
20231225 03:37:07,0.568744,1.350560,-0.247393,0.008301,0.066256,-0.189322,0.879833,-17.526062,6.050278,-176.6113,0.18507385,1.3581027,-0.20195982,-0.13535848,0.06822867,0.123396
20231225 03:37:07,-0.010453,1.322131,0.073288,0.092464,0.178118,-0.222348,0.913506,-17.896065,5.672852,-175.00407,-0.042588994,1.3109485,0.036667526,-0.10801101,0.19806895,0.09694789
20231225 03:37:07,-0.520972,1.289375,0.414266,0.218175,0.280391,-0.228740,1.012501,-17.042732,5.886070,-173.05544,-0.22594258,1.1653217,0.18889484,-0.038102746,0.32785738,0.029603526
20231225 03:37:07,-1.099843,1.295111,0.543548,0.357736,0.359227,-0.206368,1.082035,-17.032654,5.484192,-171.59718,-0.6143377,0.99387,0.53065974,0.05293174,0.4411815,-0.07120417
20231225 03:37:07,-1.537861,1.546815,0.552979,0.473859,0.386926,-0.162689,1.116856,-17.978317,5.948181,-170.35953,-0.9898673,1.0686404,0.9218764,0.13188213,0.49705356,-0.18999672
20231225 03:37:07,-1.829070,2.123155,0.260741,0.494100,0.343247,-0.099833,1.223019,-17.971947,6.082794,-168.81792,-1.4984766,1.5781173,1.5052602,0.15973419,0.45022836,-0.27439022
20231225 03:37:07,-1.755782,2.560027,-0.244365,0.381173,0.229255,-0.015671,1.568386,-17.667740,6.468285,-166.96094,-1.8769983,2.1656134,1.893905,0.15979326,0.29298538,-0.264669
20231225 03:37:07,-1.326672,2.551538,-0.698573,0.164908,0.107805,0.080211,1.383350,-17.587334,6.461197,-169.27737,-1.8074567,2.4344635,1.7541982,0.13873318,0.11190681,-0.16840455
20231225 03:37:07,-0.530088,2.180820,-0.839753,-0.074796,0.075844,0.147328,1.453648,-17.961037,6.620262,-172.44115,-1.158936,2.2066236,1.0834116,0.069556385,0.05974545,-0.018600754
20231225 03:37:07,0.371253,1.897346,-0.721877,-0.323022,0.171726,0.161177,1.135941,-18.363953,6.777367,-176.47249,-0.3088039,1.8852954,0.23416522,-0.07436599,0.17658687,0.15796736
20231225 03:37:07,0.873882,1.146544,-0.024831,-0.541418,0.302764,0.126021,1.471962,-17.962883,6.888504,-176.02197,0.64259136,1.1238087,-0.5270912,-0.29814354,0.3188557,0.297532
20231225 03:37:07,0.723245,0.164028,1.286485,-0.693763,0.402906,0.049316,1.542263,-18.336578,7.047569,-175.00314,1.3286104,0.16145754,-1.4529499,-0.54404145,0.39240992,0.38645113
20231225 03:37:07,0.177698,-0.454672,2.754100,-0.738508,0.427409,-0.012475,1.496670,-18.427895,6.517197,-174.1845,1.5136676,-0.53812015,-2.5173204,-0.6651817,0.38101083,0.40960553
20231225 03:37:07,-0.319320,-0.867134,3.978771,-0.643692,0.387991,-0.022063,1.246956,-18.053185,5.150543,-174.5157,1.4211957,-1.0665601,-3.529544,-0.60962373,0.32646906,0.32557502
20231225 03:37:07,-0.747150,-1.294845,4.606536,-0.423165,0.301698,0.005636,1.265270,-18.055038,5.418785,-173.9507,1.140851,-1.6129665,-4.0627255,-0.40373683,0.24656262,0.18759438
20231225 03:37:07,-0.996453,-1.590824,4.557034,-0.144043,0.206882,0.080211,1.625999,-18.118980,5.158607,-172.74063,0.85235333,-1.9628435,-4.0045958,-0.11532002,0.18037598,0.0044152588
20231225 03:37:07,-0.883830,-1.845170,3.903916,0.126555,0.152550,0.171831,1.600906,-17.462074,5.249443,-172.72418,0.7661891,-2.1440754,-3.4517105,0.17422783,0.15806387,-0.18814428
20231225 03:37:07,-0.562815,-2.077773,2.926987,0.334298,0.140831,0.251732,1.513443,-17.662193,5.663551,-173.47049,0.7320804,-2.2440648,-2.6590416,0.40045193,0.16183671,-0.3479734
20231225 03:37:07,-0.097619,-2.412807,1.919429,0.469597,0.139765,0.310326,1.319443,-17.676804,5.662575,-174.81807,0.7556569,-2.4625432,-1.9034379,0.5516309,0.15827797,-0.46253413
20231225 03:37:07,0.381944,-2.722163,1.079787,0.526061,0.123785,0.325241,0.976643,-17.422813,5.910522,-176.70836,0.8233677,-2.7234387,-1.2786913,0.61408764,0.12797499,-0.51278305
20231225 03:37:07,0.822984,-2.708197,0.228077,0.517538,0.104609,0.283692,0.932587,-18.281693,6.502037,-178.07188,0.77124345,-2.732363,-0.67999274,0.5922904,0.09067017,-0.4968986
20231225 03:37:07,1.123679,-2.416987,-0.484485,0.441898,0.065191,0.185680,1.365036,-17.585487,6.192955,-177.0226,0.55010873,-2.493559,-0.34908858,0.47096634,0.047456168,-0.40214032
20231225 03:37:07,1.100204,-1.827204,-1.127449,0.299141,0.023642,0.065296,1.048862,-18.755959,7.471947,-178.01753,-2.4986267E-4,-1.9069511,0.053722143,0.26671743,0.014269002,-0.2481083
20231225 03:37:07,0.804401,-0.999549,-1.674301,0.099921,0.000205,-0.039108,1.190113,-17.985718,7.021156,-175.61826,-0.7158765,-0.96837854,0.4449054,0.0364417,0.0018562516,-0.049441382
20231225 03:37:07,0.330693,-0.182125,-1.970824,-0.141913,0.018316,-0.108356,1.197273,-18.832672,6.942551,-173.1579,-1.3258791,0.031177655,0.9247606,-0.17371777,0.018018007,0.1794095
20231225 03:37:07,-0.332238,0.448320,-1.709215,-0.396531,0.054537,-0.122205,1.769169,-18.308197,6.110176,-168.8583,-1.5701679,0.6924968,1.3838757,-0.3548338,0.01579122,0.38818413
20231225 03:37:07,-1.057884,0.724379,-0.957453,-0.593620,0.104609,-0.066807,1.442760,-17.096611,5.224014,-169.23811,-1.5446439,0.67892575,1.5084583,-0.48122507,-0.005455273,0.48507887
20231225 03:37:07,-1.574163,0.624538,0.070908,-0.682044,0.196229,0.039727,1.035023,-18.257835,5.161797,-171.4695,-1.2762622,0.22284752,1.0373544,-0.53296137,0.023855004,0.4342758
20231225 03:37:07,-1.888385,0.378014,1.247024,-0.652215,0.305960,0.176092,1.750088,-17.922562,5.280991,-169.55167,-0.921973,-0.28532958,0.136554,-0.48735684,0.11136556,0.27818954
20231225 03:37:07,-2.026628,-0.016233,2.310193,-0.517981,0.364554,0.326306,1.458122,-17.464752,4.578346,-171.24326,-0.61056626,-0.79777706,-0.9371573,-0.3357334,0.18731655,0.033579588
20231225 03:37:07,-1.975408,-0.524647,3.132531,-0.310238,0.326201,0.474390,0.964722,-17.884132,5.002724,-173.41212,-0.32930827,-1.2387062,-1.9364469,-0.10176185,0.20501354,-0.24673223
20231225 03:37:07,-1.562494,-1.118200,3.397602,-0.068404,0.206882,0.585186,0.824127,-17.136742,4.684601,-174.55914,0.10215366,-1.6175013,-2.4857354,0.16819075,0.14709917,-0.47967905
20231225 03:37:07,-0.778661,-1.463414,2.782517,0.157450,0.100347,0.643780,0.337120,-18.019279,4.469414,-177.4175,0.6014137,-1.6631389,-2.203444,0.42060685,0.08415507,-0.6420718
20231225 03:37:07,0.139603,-1.713666,1.756503,0.320448,0.057734,0.636322,0.470558,-17.919739,4.866158,-178.31342,0.9590039,-1.7225413,-1.6598897,0.5815345,0.0575208,-0.7105285
20231225 03:37:07,0.922881,-1.940014,0.821018,0.409938,0.033231,0.555356,0.100479,-17.758911,4.851982,179.17685,1.1370658,-1.9635661,-1.1470804,0.6323599,0.027317481,-0.6860586
20231225 03:37:07,1.412544,-2.057871,-0.088304,0.435506,0.042819,0.427514,0.391674,-17.832947,4.993683,179.05542,0.9920461,-2.2072728,-0.65785503,0.5981985,0.02380523,-0.59532
20231225 03:37:07,1.626012,-2.046264,-0.690727,0.416330,0.058799,0.279431,0.630501,-17.343239,4.964096,179.27135,0.75024164,-2.309118,-0.3385558,0.5047227,0.027088972,-0.46755898
20231225 03:37:07,1.584680,-2.005333,-1.142515,0.371585,0.089694,0.118563,0.129944,-16.915672,5.467087,177.65654,0.39728296,-2.2737558,0.015183389,0.37485725,0.055330846,-0.322088
20231225 03:37:07,1.338766,-1.806834,-1.294928,0.312991,0.108870,-0.039108,0.323296,-18.418694,6.236977,179.20628,0.10061085,-1.9699484,0.16064364,0.222373,0.083966136,-0.17095587
20231225 03:37:07,0.874629,-1.414702,-1.309666,0.253331,0.096086,-0.163754,0.147991,-18.627037,6.784714,-179.58565,-0.22783834,-1.4180783,0.38100326,0.078946985,0.09542623,-0.047187686
20231225 03:37:07,0.322040,-1.035301,-1.249434,0.198999,0.051341,-0.246851,0.624226,-18.781479,6.933510,-176.03366,-0.56603724,-0.92854345,0.6209959,-0.031023964,0.08037671,0.04134266
20231225 03:37:07,-0.218187,-0.609407,-1.307967,0.142535,0.014054,-0.279877,1.029015,-17.986549,6.081818,-172.86586,-0.99956524,-0.46052605,1.0066029,-0.10065923,0.06688647,0.09187159
20231225 03:37:07,-0.643415,-0.228134,-1.303338,0.086072,-0.013645,-0.268158,0.701954,-18.292603,5.964569,-172.60832,-1.3219075,-0.09408979,1.3315537,-0.12915516,0.049561787,0.11696749
20231225 03:37:07,-0.970095,0.034407,-1.252498,0.025347,-0.023233,-0.218087,1.018246,-19.023537,6.015427,-170.99612,-1.5465721,0.10499591,1.557147,-0.130532,0.02812754,0.12610576
20231225 03:37:07,-1.204688,0.106467,-1.093288,-0.019398,-0.023233,-0.144578,1.310860,-17.963707,5.949158,-169.67078,-1.6122668,0.08510491,1.6267483,-0.1078075,0.0038463213,0.110261224
20231225 03:37:07,-1.192744,0.025090,-0.774358,-0.033247,-0.023233,-0.058285,1.098164,-17.784592,5.399467,-171.21533,-1.3801675,-0.060185462,1.3827536,-0.058662444,-0.017912924,0.06193688
20231225 03:37:07,-1.045676,-0.158955,-0.554707,-0.021528,-0.040278,0.015224,1.346722,-17.583633,5.924706,-170.79893,-1.1105233,-0.24766769,1.0909159,4.6305917E-4,-0.045286715,-0.0013209172
20231225 03:37:07,-0.761769,-0.415682,-0.385139,-0.006613,-0.088219,0.068492,1.091000,-16.937637,5.478081,-172.6947,-0.77277094,-0.46706793,0.74925435,0.049950875,-0.09587362,-0.05522833
20231225 03:37:07,-0.387517,-0.632418,-0.423381,0.001909,-0.150009,0.097256,1.064106,-17.222694,5.496422,-173.98233,-0.5169166,-0.6290214,0.5222764,0.07735818,-0.15660764,-0.0857308
20231225 03:37:07,0.066194,-0.681821,-0.633658,0.000844,-0.201146,0.089799,0.763172,-16.859917,4.799889,-176.29431,-0.35498798,-0.6559787,0.38869113,0.06835133,-0.20400894,-0.07617642
20231225 03:37:07,0.463882,-0.634923,-0.894239,-0.025790,-0.228845,0.048250,1.363884,-17.009819,5.351540,-174.98672,-0.28623873,-0.6288512,0.27718136,0.016059656,-0.22917092,-0.030940022
20231225 03:37:07,0.682765,-0.463434,-0.993974,-0.077992,-0.249087,-0.019932,1.461075,-17.098465,5.492256,-174.95915,-0.23251772,-0.47565323,0.17968428,-0.07075503,-0.24865556,0.054144807
20231225 03:37:07,0.591495,-0.197020,-1.020724,-0.146174,-0.251217,-0.098768,1.389359,-17.858620,5.541168,-174.74527,-0.33251223,-0.1746746,0.25600547,-0.16862856,-0.25172648,0.15798365
20231225 03:37:07,0.314719,0.176820,-0.886843,-0.203703,-0.222453,-0.165885,1.116856,-17.978317,5.948181,-174.60887,-0.44039744,0.24135529,0.3848259,-0.2477155,-0.2231815,0.24729896
20231225 03:37:07,-0.194076,0.546492,-0.567482,-0.227141,-0.175578,-0.206368,1.284737,-18.632545,6.528442,-172.64462,-0.5991972,0.58170843,0.5769623,-0.28544977,-0.17469214,0.29012847
20231225 03:37:07,-0.765374,0.906856,-0.180171,-0.207964,-0.123376,-0.207433,1.477970,-18.234161,5.968475,-170.57051,-0.8042846,0.79418725,0.77583975,-0.2703662,-0.119543314,0.2776457
20231225 03:37:07,-1.341818,1.199685,0.150954,-0.156828,-0.085023,-0.168015,1.801304,-17.910629,4.610863,-169.02644,-1.085179,0.85992813,1.0005639,-0.20852432,-0.07987474,0.21604729
20231225 03:37:07,-1.745418,1.193424,0.406217,-0.087580,-0.075435,-0.103029,1.767632,-17.540642,4.988297,-168.5157,-1.2494602,0.67417216,1.0807723,-0.11563118,-0.069873124,0.12261589
20231225 03:37:07,-1.870457,1.062057,0.557970,-0.007679,-0.096742,-0.022063,1.652508,-17.642036,4.859795,-169.16228,-1.2366409,0.48816153,1.0035878,-3.734436E-4,-0.089570045,0.0077460175
20231225 03:37:07,-1.722662,0.898258,0.497005,0.074353,-0.121245,0.061034,2.007229,-17.434708,5.519638,-167.98778,-1.105633,0.4343992,0.9477136,0.1165974,-0.11321413,-0.11284193
20231225 03:37:07,-1.302311,0.695156,0.247663,0.145731,-0.135094,0.127086,1.970600,-17.431007,4.983154,-169.0957,-0.8871246,0.43008667,0.81269956,0.21160538,-0.12757237,-0.20936608
20231225 03:37:07,-0.842329,0.411011,-0.106796,0.186215,-0.143617,0.164373,1.837547,-17.722450,4.866882,-170.58151,-0.72660595,0.3157916,0.7098142,0.263299,-0.13828701,-0.2629129
20231225 03:37:07,-0.383648,0.115523,-0.518014,0.193672,-0.144683,0.169700,1.310478,-17.771828,5.668686,-173.35858,-0.64419854,0.12508363,0.64462095,0.26731133,-0.14198273,-0.26796618
20231225 03:37:07,0.026449,-0.069062,-0.775113,0.170234,-0.139356,0.145197,1.653660,-18.217705,5.701210,-173.44386,-0.5265344,-0.040685855,0.5199597,0.22782582,-0.13830431,-0.23362646
20231225 03:37:07,0.342098,-0.243711,-0.791963,0.136143,-0.153205,0.087668,1.255920,-17.958160,5.144432,-175.45955,-0.31389952,-0.236971,0.30538616,0.15927999,-0.15290728,-0.1665505
20231225 03:37:07,0.511465,-0.212113,-0.815738,0.109509,-0.188362,0.010963,1.690289,-18.221405,6.237701,-174.56522,-0.22137505,-0.21937919,0.19336766,0.0837722,-0.18889199,-0.098074436
20231225 03:37:07,0.546929,-0.154388,-0.924995,0.083941,-0.214996,-0.073199,1.485519,-19.273003,6.170334,-175.42184,-0.29450932,-0.16507986,0.2305696,0.0032120384,-0.21611734,-0.022371847
20231225 03:37:07,0.464173,0.015486,-1.062125,0.053046,-0.237368,-0.160558,1.891457,-19.053741,6.160057,-173.58632,-0.47932455,0.02519726,0.3619088,-0.08233454,-0.23599157,0.0495308
20231225 03:37:07,0.280627,0.316860,-1.146274,0.007236,-0.258675,-0.238328,1.580021,-18.018417,4.347763,-173.14537,-0.70375013,0.36833552,0.54629266,-0.16721025,-0.2492038,0.12752333
20231225 03:37:07,0.000685,0.678621,-1.156887,-0.048162,-0.271459,-0.300119,2.093269,-18.368439,5.313507,-170.33618,-0.9455997,0.7702859,0.79413325,-0.23899218,-0.24839252,0.19582562
20231225 03:37:07,-0.337917,1.005776,-1.025638,-0.112083,-0.286374,-0.337406,2.129131,-17.988365,5.289055,-168.8689,-1.1270477,1.0883522,1.0199414,-0.29199633,-0.25076577,0.26101792
20231225 03:37:07,-0.595764,1.274655,-0.863173,-0.172808,-0.291701,-0.352321,2.225941,-17.885117,5.149315,-168.222,-1.2119625,1.3057926,1.1620381,-0.33673888,-0.25757512,0.31470308
20231225 03:37:07,-0.849965,1.456327,-0.578264,-0.223944,-0.270394,-0.343798,2.586670,-17.949074,4.889130,-166.74942,-1.2082839,1.4015602,1.2295791,-0.35950193,-0.24175216,0.3478164
20231225 03:37:07,-1.055012,1.490009,-0.053009,-0.236729,-0.246956,-0.320360,3.247562,-17.992035,4.764542,-164.77132,-0.9864002,1.3163891,1.0699884,-0.353446,-0.2273367,0.33983895
20231225 03:37:07,-1.130518,1.372978,0.461462,-0.195180,-0.223518,-0.296923,3.204926,-17.717049,5.148079,-165.14386,-0.6929236,1.1132054,0.71849686,-0.3107282,-0.20534213,0.30079007
20231225 03:37:07,-1.193423,1.161277,0.854178,-0.098233,-0.184100,-0.284138,3.123856,-18.380341,4.922623,-166.10567,-0.479172,0.84042346,0.3958364,-0.23464818,-0.15613924,0.23744367
20231225 03:37:07,-1.224792,0.970700,1.083748,0.053046,-0.123376,-0.282008,2.850590,-18.116280,4.768700,-167.00372,-0.36269855,0.6112593,0.16913491,-0.123891175,-0.0741868,0.15194082
20231225 03:37:07,-1.318535,0.819233,1.182508,0.230959,-0.065847,-0.284138,3.000534,-18.960533,5.361183,-166.6916,-0.37601304,0.40553433,0.12057966,0.006077379,0.01575362,0.0496061
20231225 03:37:07,-1.480062,0.753368,1.115996,0.405676,-0.042409,-0.282008,3.899872,-18.321907,4.926529,-162.96474,-0.5298757,0.2708209,0.33285946,0.13368839,0.08082923,-0.07219356
20231225 03:37:07,-1.580431,0.813977,0.881881,0.556956,-0.040278,-0.260701,3.353722,-17.985649,4.899147,-164.02402,-0.731392,0.31944594,0.61271137,0.2462687,0.11623226,-0.20142677
20231225 03:37:07,-1.627483,1.076992,0.514502,0.670948,-0.050932,-0.218087,3.741344,-17.764542,4.620628,-161.68784,-0.9999473,0.60628873,1.0621277,0.3281985,0.12819168,-0.3478164
20231225 03:37:07,-1.596881,1.588192,-0.003023,0.709300,-0.060520,-0.145643,3.653881,-17.964661,5.034737,-160.84875,-1.383606,1.2159925,1.5634533,0.35964322,0.10939192,-0.47068793
20231225 03:37:07,-1.393485,2.190156,-0.460608,0.643249,-0.099938,-0.039108,4.414158,-17.346191,5.403847,-156.99858,-1.6452694,1.9954312,1.878403,0.36616594,0.011551294,-0.52421635
20231225 03:37:07,-0.854640,2.483803,-0.889918,0.464270,-0.161728,0.067427,4.150623,-17.370872,5.804749,-159.5047,-1.5690958,2.4934647,1.6480427,0.33382085,-0.124100104,-0.4540298
20231225 03:37:07,-0.079570,2.592274,-0.997473,0.207521,-0.216061,0.129217,4.105412,-17.654083,5.554840,-162.91261,-0.97158897,2.6234112,0.9984453,0.22875509,-0.2156913,-0.2758124
20231225 03:37:07,0.685083,2.627695,-0.747336,-0.054554,-0.216061,0.128151,4.123341,-17.464043,5.542610,-165.78787,-0.07319605,2.5534961,0.22208756,0.061606262,-0.20631962,-0.05672531
20231225 03:37:07,1.133606,2.564228,-0.008830,-0.307042,-0.200081,0.085537,4.326694,-17.546303,5.817947,-166.77196,0.90356934,2.4815621,-0.5015273,-0.14334422,-0.17376891,0.15620854
20231225 03:37:07,1.255336,1.856397,0.930783,-0.523307,-0.190493,0.021617,4.007450,-17.181671,4.853172,-167.59299,1.6653368,1.822514,-1.2271295,-0.38116983,-0.15352798,0.30993307
20231225 03:37:08,1.252949,0.702619,2.285950,-0.619189,-0.183035,-0.025259,3.998100,-17.084801,4.578819,-167.71294,2.3575845,0.7203617,-2.4265676,-0.5306375,-0.14717638,0.34112102
20231225 03:37:08,1.121736,-0.323298,3.559087,-0.594686,-0.191558,-0.046566,4.447826,-17.716187,5.026421,-166.95987,2.654682,-0.28878134,-3.6517043,-0.55112594,-0.16626503,0.28168467
20231225 03:37:08,0.895600,-1.154704,4.484364,-0.430622,-0.164924,-0.027389,4.423122,-17.251167,5.397728,-166.63908,2.5611732,-1.1306386,-4.6125703,-0.40886128,-0.15497752,0.15735601
20231225 03:37:08,0.615668,-2.119650,5.004642,-0.169612,-0.137225,0.013094,4.446411,-18.850037,5.234390,-167.3683,2.1540189,-2.1074436,-5.268417,-0.15735653,-0.13521306,0.012875726
20231225 03:37:08,0.585515,-2.972852,5.104554,0.126555,-0.185166,0.042924,4.182755,-16.973320,4.305435,-166.89558,1.9215777,-2.9530685,-5.5943284,0.13227347,-0.18768911,-0.11481795
20231225 03:37:08,0.893565,-3.453346,4.549573,0.412068,-0.286374,0.032270,4.543484,-17.037270,4.045250,-166.36879,2.021503,-3.4211113,-5.282396,0.40033135,-0.31172374,-0.20624334
20231225 03:37:08,1.403012,-3.538797,3.428408,0.648575,-0.375863,-0.034847,4.598042,-16.850929,4.569519,-167.23885,2.243331,-3.546203,-4.356918,0.5920993,-0.4517783,-0.24588008
20231225 03:37:08,1.817914,-3.369242,1.982952,0.803051,-0.412085,-0.154166,4.331551,-17.241913,4.056503,-168.89026,2.185471,-3.4777555,-3.10001,0.64877725,-0.556042,-0.24875933
20231225 03:37:08,2.021894,-2.828464,0.511969,0.846730,-0.373732,-0.300119,4.977470,-17.108620,4.858055,-168.00925,1.6506941,-3.084892,-1.9838167,0.5254492,-0.56294626,-0.25783682
20231225 03:37:08,1.832561,-2.004439,-0.719709,0.754045,-0.305550,-0.429026,4.907940,-17.118698,5.259933,-167.73383,0.6027608,-2.3530736,-1.020859,0.23567185,-0.48016512,-0.24166167
20231225 03:37:08,1.337083,-1.160844,-1.640737,0.535649,-0.211800,-0.502535,5.146767,-16.628990,5.230347,-163.97252,-0.5018029,-1.4421514,-0.21122956,-0.057162017,-0.31058168,-0.13546652
20231225 03:37:08,0.681245,-0.498109,-1.975477,0.249070,-0.137225,-0.507861,5.535160,-16.791664,5.512764,-158.90135,-1.1570007,-0.4768463,0.46357536,-0.2526562,-0.13128003,0.058298796
20231225 03:37:08,-0.040507,-0.268240,-1.777169,-0.040705,-0.092481,-0.450333,5.710464,-16.583313,4.965034,-155.4068,-1.3546141,-0.089169726,0.9915738,-0.36020732,-0.04945009,0.26818123
20231225 03:37:08,-0.578218,-0.366505,-1.182366,-0.255905,-0.040278,-0.349125,6.072731,-17.414825,5.826736,-155.62804,-1.1897894,-0.281532,1.0602667,-0.41945744,-0.02689435,0.39362785
20231225 03:37:08,-0.799855,-0.592930,-0.388892,-0.349656,0.031100,-0.243655,5.806240,-17.805801,5.313721,-157.55956,-0.7834788,-0.64637244,0.6255736,-0.42475224,0.011690196,0.4083945
20231225 03:37:08,-0.918034,-0.869416,0.240539,-0.342198,0.091825,-0.156297,6.482491,-18.216919,4.543457,-156.50792,-0.49614042,-1.0110892,0.1018222,-0.37550616,0.058737673,0.3500027
20231225 03:37:08,-0.899090,-1.214419,0.777555,-0.248447,0.123785,-0.090245,6.389286,-16.436241,4.828209,-155.596,-0.19768962,-1.394897,-0.49439594,-0.26710984,0.09616142,0.25000006
20231225 03:37:08,-0.849232,-1.425383,1.014913,-0.105691,0.123785,-0.045500,5.947105,-16.843681,4.582466,-157.67838,-0.03556204,-1.6054043,-0.7689601,-0.12359242,0.11242594,0.13255247
20231225 03:37:08,-0.709582,-1.342696,0.922163,0.039196,0.103544,-0.010344,6.239071,-17.301491,5.285110,-157.49396,0.05742562,-1.4805702,-0.7006568,0.017869556,0.10771316,0.017317092
20231225 03:37:08,-0.403970,-1.083622,0.477990,0.145731,0.104609,0.020551,6.157238,-17.581001,4.498711,-157.73505,0.05443257,-1.1412593,-0.4100633,0.119467296,0.11442253,-0.07547563
20231225 03:37:08,-0.088627,-0.827005,-0.078228,0.189411,0.124850,0.040793,6.308987,-17.483299,5.163704,-157.60109,-0.08051746,-0.8259949,-0.12014369,0.16190082,0.13218407,-0.120053105
20231225 03:37:08,0.175846,-0.599295,-0.492446,0.168104,0.145092,0.055708,6.557167,-17.090462,5.408470,-156.59447,-0.20187089,-0.5764735,0.02792123,0.15371215,0.14869355,-0.11379619
20231225 03:37:08,0.291700,-0.444037,-0.730838,0.108444,0.147223,0.065296,6.257385,-17.303345,5.553352,-157.93625,-0.31178924,-0.42017567,0.14533365,0.118873395,0.14806935,-0.08156191
20231225 03:37:08,0.373224,-0.394553,-0.815342,0.031739,0.150419,0.071688,6.239456,-17.493385,5.565582,-158.23834,-0.32398185,-0.37223536,0.15223792,0.07089239,0.14958443,-0.030416636
20231225 03:37:08,0.353971,-0.430785,-0.811537,-0.035378,0.164268,0.086603,6.334461,-18.332100,5.353333,-158.46133,-0.32521978,-0.40437368,0.16203368,0.033693824,0.16144358,0.011258945
20231225 03:37:08,0.281846,-0.414863,-0.680428,-0.080123,0.173856,0.115367,6.485828,-18.042503,5.737846,-157.91704,-0.26914144,-0.3842766,0.13563365,0.019546848,0.16755643,0.027380459
20231225 03:37:08,0.182052,-0.470551,-0.542706,-0.104626,0.181314,0.156916,6.230106,-17.396515,5.291222,-157.86218,-0.2267502,-0.4430609,0.10864416,0.026400208,0.17131832,0.016894557
20231225 03:37:08,0.235452,-0.567958,-0.337326,-0.105691,0.178118,0.194203,6.354198,-17.200096,5.413612,-157.99994,-0.041377023,-0.5537762,-0.08561021,0.049286664,0.17079975,-0.011984512
20231225 03:37:08,0.398536,-0.660853,-0.182349,-0.087580,0.171726,0.217641,6.151230,-17.309723,5.418747,-159.56802,0.17610316,-0.66063523,-0.3100313,0.07954222,0.17161627,-0.049100563
20231225 03:37:08,0.676491,-0.673809,-0.093295,-0.059881,0.151484,0.213379,5.823784,-17.423882,5.021027,-161.17674,0.42565274,-0.6953787,-0.54639304,0.101043135,0.15863591,-0.074475795
20231225 03:37:08,0.961845,-0.555286,-0.225986,-0.038574,0.101413,0.160112,5.754257,-17.433968,5.422905,-162.14536,0.5220459,-0.6118308,-0.6249628,0.08576536,0.11047231,-0.062140502
20231225 03:37:08,0.973095,-0.493849,-0.288951,-0.039639,0.089694,0.140936,5.999859,-17.599312,5.034233,-161.07278,0.48045588,-0.55366653,-0.5912312,0.072798625,0.09800248,-0.047868248
20231225 03:37:08,0.941286,-0.279981,-0.429343,-0.052423,0.066256,0.105779,5.745293,-17.528984,5.429024,-161.76694,0.3427431,-0.33816883,-0.44624507,0.041343693,0.07294822,-0.018572267
20231225 03:37:08,0.845691,-0.036630,-0.558646,-0.082253,0.049211,0.080211,5.867191,-18.082634,5.198433,-160.95508,0.16626263,-0.08036716,-0.26760006,0.0042401142,0.0542615,0.019512404
20231225 03:37:08,0.743485,0.220524,-0.642160,-0.118475,0.042819,0.073819,6.052998,-18.546822,5.766464,-160.6175,0.022417068,0.1958683,-0.10040173,-0.02332972,0.046187125,0.051221244
20231225 03:37:08,0.586623,0.381571,-0.615579,-0.154697,0.042819,0.073819,6.239071,-17.301491,5.285110,-158.18776,-0.06640908,0.37575108,0.03760484,-0.04777227,0.043898743,0.080326155
20231225 03:37:08,0.461292,0.506448,-0.495764,-0.181331,0.056668,0.082341,6.026752,-17.314255,5.015892,-158.0605,-0.06898293,0.5192769,0.08906558,-0.060371347,0.053179268,0.09831737
20231225 03:37:08,0.341615,0.555979,-0.310619,-0.187723,0.072648,0.100452,6.168388,-16.735909,4.845573,-157.19487,-2.489984E-5,0.56573635,0.09604071,-0.056957006,0.068296276,0.09228019
20231225 03:37:08,0.351093,0.416517,-0.137905,-0.169612,0.084367,0.111106,5.999092,-17.215538,4.473282,-158.19196,0.14396712,0.42396843,-0.048779376,-0.042486005,0.08001125,0.06933312
20231225 03:37:08,0.384422,0.208828,0.112488,-0.134455,0.073714,0.105779,6.247650,-17.014587,4.998528,-158.04324,0.35396788,0.2124194,-0.28326508,-0.025892586,0.07064357,0.04116197
20231225 03:37:08,0.355027,0.082779,0.242795,-0.095037,0.048145,0.095126,6.113831,-16.922249,4.321312,-157.9463,0.42445266,0.084495515,-0.38345253,-0.005777009,0.04571092,0.013079748
20231225 03:37:08,0.403456,0.016465,0.255740,-0.054554,0.021512,0.085537,5.689964,-17.331543,4.343819,-159.96132,0.4698534,0.017091213,-0.44607025,0.017869566,0.021011291,-0.016617302
20231225 03:37:08,0.467327,-0.038137,0.103935,-0.017267,0.010858,0.073819,6.114986,-17.497910,5.162727,-159.43973,0.4121204,-0.03818215,-0.4002731,0.037863106,0.010868784,-0.035856754
20231225 03:37:08,0.452626,-0.025782,-0.061840,0.013628,0.015120,0.056773,5.742722,-18.087166,4.795578,-160.67395,0.28256905,-0.026480127,-0.27861333,0.049263753,0.0151757365,-0.04440325
20231225 03:37:08,0.418123,-0.022600,-0.225182,0.036000,0.036427,0.040793,5.937489,-18.456337,5.357491,-160.2603,0.13763426,-0.015152203,-0.15029238,0.053869773,0.03636808,-0.04389222
20231225 03:37:08,0.250399,0.072361,-0.355489,0.059438,0.065191,0.022682,5.778961,-17.898979,5.051590,-159.12434,-0.082056776,0.096494906,0.07078205,0.055084437,0.066514835,-0.0411165
20231225 03:37:08,-0.040370,0.196585,-0.445518,0.082876,0.102478,0.016290,5.875385,-17.603836,4.631371,-157.24922,-0.36339778,0.22501671,0.36460543,0.061429873,0.10647855,-0.04313597
20231225 03:37:08,-0.334638,0.273318,-0.554970,0.110575,0.141896,0.018421,5.778194,-17.515198,4.490646,-156.26068,-0.66018534,0.29714125,0.6646997,0.0728772,0.14938037,-0.05412549
20231225 03:37:08,-0.580301,0.383720,-0.654855,0.135078,0.184510,0.036531,5.787544,-17.612068,4.765015,-155.67673,-0.91864264,0.39479893,0.93674576,0.09235053,0.19300494,-0.071481034
20231225 03:37:08,-0.723453,0.398881,-0.767036,0.155319,0.220732,0.068492,5.796509,-17.517052,4.758896,-155.16103,-1.1015832,0.40843123,1.1151872,0.121099286,0.22679715,-0.09523356
20231225 03:37:08,-0.753735,0.273937,-0.815357,0.167038,0.254823,0.107910,5.990894,-17.694336,5.040344,-154.96071,-1.1381049,0.28837267,1.1320069,0.15406632,0.256138,-0.11739807
20231225 03:37:08,-0.588266,0.078943,-0.833856,0.183018,0.294241,0.149458,6.079891,-18.261765,5.748123,-156.5782,-1.0124452,0.1102462,0.9736636,0.19941442,0.29311582,-0.14749376
20231225 03:37:08,-0.325137,-0.172056,-0.740765,0.210718,0.320875,0.171831,6.116135,-18.073570,6.004135,-157.3506,-0.739262,-0.13320425,0.66296804,0.2408055,0.32127848,-0.17577884
20231225 03:37:08,-0.095878,-0.317003,-0.683947,0.243743,0.325136,0.175027,6.053379,-18.738708,6.046928,-158.65227,-0.5354956,-0.2745589,0.43045688,0.27197647,0.32772255,-0.20673876
20231225 03:37:08,-0.022979,-0.329937,-0.902346,0.267181,0.309156,0.175027,5.543472,-18.214279,6.275574,-159.5504,-0.66246116,-0.26614448,0.5031065,0.28601792,0.31223285,-0.23667902
20231225 03:37:08,0.026870,-0.152650,-1.252993,0.255462,0.285718,0.179288,6.018944,-17.984940,5.863419,-156.89198,-0.93891263,-0.053376116,0.66807824,0.27746725,0.28648242,-0.23154631
20231225 03:37:08,0.038402,0.030611,-1.594897,0.195803,0.252692,0.188876,5.506844,-18.210579,5.739082,-157.84393,-1.2581699,0.16676842,0.85041517,0.24608786,0.24753393,-0.20494378
20231225 03:37:08,0.096953,0.337673,-1.881053,0.105248,0.222862,0.206987,5.693687,-17.349014,5.818672,-156.42189,-1.5229266,0.47154045,0.95960134,0.21438217,0.2126472,-0.14349431
20231225 03:37:08,0.216521,0.535829,-2.046651,-0.011940,0.197294,0.220837,5.596493,-17.260384,5.677948,-157.02621,-1.6221018,0.631822,0.95533913,0.1699462,0.18690893,-0.058587078
20231225 03:37:08,0.436331,0.560109,-2.043410,-0.075861,0.194098,0.227229,5.341156,-16.806274,5.511787,-159.11221,-1.4569333,0.5502634,0.80520463,0.14794417,0.19526634,-0.016131148
20231225 03:37:08,0.746102,0.557202,-1.781154,-0.251644,0.202621,0.219771,5.523624,-17.444878,4.885437,-160.05621,-0.98476803,0.4430003,0.4778184,0.041935384,0.22180283,0.12469293
20231225 03:37:08,1.025802,0.446645,-1.371101,-0.321957,0.216470,0.186746,5.532974,-17.541740,5.159798,-161.99896,-0.38427752,0.2806119,0.10762954,-0.041459203,0.24877778,0.18097147
20231225 03:37:08,1.181711,0.283371,-0.901481,-0.348590,0.228189,0.142001,5.313877,-16.899437,5.249664,-162.76434,0.12539029,0.14452313,-0.2645257,-0.10757422,0.25896192,0.21707612
20231225 03:37:08,1.109091,0.370769,-0.441305,-0.348590,0.219666,0.101518,5.146381,-16.437103,4.949875,-162.39543,0.45285296,0.29392338,-0.44849926,-0.15216225,0.24107035,0.23442201
20231225 03:37:08,1.002371,0.479376,-0.065682,-0.328349,0.182379,0.073819,5.243195,-16.333862,4.810127,-161.5783,0.66376483,0.43983862,-0.57644147,-0.16681574,0.19684678,0.22866991
20231225 03:37:08,0.940034,0.641280,0.104825,-0.296388,0.122720,0.050381,5.438232,-14.993500,4.322662,-158.94247,0.7410127,0.61431855,-0.5951105,-0.16184276,0.13369395,0.21422864
20231225 03:37:08,0.885251,0.982383,0.073737,-0.261232,0.088629,0.023747,5.586761,-16.971626,5.123123,-160.49268,0.6687078,0.962494,-0.49130085,-0.15303002,0.09548283,0.2003435
20231225 03:37:08,0.756287,1.346633,-0.072198,-0.229271,0.089694,0.001375,5.646294,-18.382309,5.215797,-160.37523,0.4321072,1.3459804,-0.24486122,-0.14624803,0.08987266,0.1941551
20231225 03:37:08,0.446064,1.705406,-0.093451,-0.185592,0.128047,-0.020997,5.269436,-17.566429,5.560699,-159.97919,0.14542449,1.7199402,0.07393214,-0.1373843,0.12326116,0.18441197
20231225 03:37:08,0.276114,1.920391,-0.082476,-0.130194,0.190902,-0.044435,5.215649,-18.136543,5.597374,-159.13905,-0.049156778,1.9342672,0.24860393,-0.13004464,0.18538457,0.16999176
20231225 03:37:08,-0.321537,2.581987,-0.014753,-0.073730,0.255888,-0.062546,5.849915,-16.755043,4.441742,-153.0563,-0.54819274,2.515776,0.96868825,-0.12762755,0.2532525,0.1622047
20231225 03:37:08,-0.840023,3.049060,0.013738,-0.042835,0.300633,-0.058285,5.611851,-17.628525,5.032280,-153.26115,-1.0829979,2.8346026,1.4799844,-0.12994164,0.29692522,0.14501624
20231225 03:37:08,-1.332023,3.542207,0.082014,-0.073730,0.277195,-0.010344,5.753101,-16.858292,4.581490,-150.46921,-1.5324682,3.155172,2.0574138,-0.11525408,0.25585613,0.14466444
20231225 03:37:08,-1.446978,3.727008,0.104289,-0.188788,0.190902,0.091930,5.777809,-17.323311,4.210175,-150.8352,-1.601192,3.323529,2.1796134,-0.08083222,0.13216607,0.1611408
20231225 03:37:08,-1.122157,3.524151,0.167898,-0.263362,0.148288,0.155850,5.709045,-17.717171,5.173004,-154.70937,-1.0669036,3.3125722,1.7118272,-0.058805726,0.09319037,0.16314587
20231225 03:37:08,-0.195426,2.807753,0.485826,-0.432753,0.134439,0.308195,5.232807,-17.562729,5.024208,-160.03027,0.14324914,2.7816458,0.47457653,-0.05119975,0.11034715,0.17120966
20231225 03:37:08,0.758357,2.082436,0.988623,-0.496674,0.199425,0.283692,5.257900,-18.219643,4.933365,-163.21494,1.305244,2.087537,-0.7784328,-0.1474274,0.22631766,0.19670741
20231225 03:37:08,1.258654,1.342052,1.618198,-0.535026,0.251627,0.170765,5.231274,-16.795174,3.902328,-162.41142,2.062745,1.3441951,-1.6802408,-0.28859663,0.28746563,0.27784777
20231225 03:37:08,1.310905,0.558952,2.316531,-0.532896,0.300633,0.036531,5.177097,-17.173401,3.658531,-163.04536,2.4006886,0.5687795,-2.4346538,-0.4119385,0.32222894,0.34345135
20231225 03:37:08,0.982693,-0.098356,3.148808,-0.442341,0.310221,-0.082788,4.974133,-17.283035,3.663666,-163.49626,2.4305937,-0.0982743,-3.128583,-0.42410836,0.31025907,0.36692342
20231225 03:37:08,0.419325,-0.591354,3.697343,-0.276147,0.311286,-0.152035,5.750145,-17.224594,3.667572,-160.54068,2.0721123,-0.66624963,-3.469068,-0.32318217,0.30056968,0.34580103
20231225 03:37:08,-0.222921,-0.997744,3.948125,-0.064142,0.296372,-0.152035,5.776657,-16.747643,3.368759,-159.38394,1.533023,-1.2078793,-3.5582018,-0.13735831,0.29527962,0.25028285
20231225 03:37:08,-0.720730,-1.213518,3.975811,0.157450,0.243104,-0.080657,5.628246,-16.670929,3.898163,-159.48438,1.0674269,-1.5408765,-3.4655635,0.09460807,0.26641586,0.080010444
20231225 03:37:08,-0.847022,-1.483586,3.656260,0.359866,0.167464,0.023747,5.937370,-16.554924,4.027634,-158.4483,0.82013696,-1.800759,-3.2383075,0.327051,0.21189585,-0.11346898
20231225 03:37:08,-0.554665,-1.782436,2.938727,0.532453,0.132308,0.118563,5.663067,-17.616600,4.362152,-160.67674,0.8264207,-1.9764591,-2.8091125,0.5254246,0.18231274,-0.28777623
20231225 03:37:08,-0.074579,-2.176594,2.154716,0.658164,0.131243,0.173961,5.982315,-17.981239,5.326927,-160.8945,0.90825796,-2.2426903,-2.459426,0.66573685,0.16938019,-0.38819563
20231225 03:37:08,0.346450,-2.573243,1.416275,0.729542,0.134439,0.178223,4.845184,-17.783836,5.302727,-164.53238,0.9686316,-2.583018,-1.9989088,0.7324265,0.15693334,-0.43849218
20231225 03:37:08,0.608812,-2.743110,0.848700,0.742326,0.123785,0.162243,5.823402,-17.231995,4.740555,-161.19435,0.9625418,-2.7397017,-1.7757939,0.7302828,0.1356062,-0.44920802
20231225 03:37:08,0.712510,-2.487788,0.154968,0.709300,0.067322,0.110040,5.498913,-16.979851,5.256752,-161.8598,0.7024385,-2.4794,-1.1615475,0.653,0.075736836,-0.4586832
20231225 03:37:08,0.718667,-2.059966,-0.510938,0.485577,-0.053063,0.030139,5.278015,-17.279518,5.274117,-162.13931,0.26859036,-2.0412083,-0.5626986,0.3985995,-0.04555772,-0.33855498
20231225 03:37:08,0.655718,-1.540412,-1.078480,0.254397,-0.106330,-0.015671,5.895504,-16.663719,4.972122,-158.4217,-0.23571926,-1.4976467,-0.13860798,0.17536746,-0.099591315,-0.19372456
20231225 03:37:08,0.595559,-1.043073,-1.259558,-0.000221,-0.097807,-0.050827,5.332191,-16.901291,5.517906,-160.24701,-0.44196734,-0.9764246,0.15973985,-0.032873936,-0.09589426,0.010525322
20231225 03:37:08,0.391127,-0.681878,-0.938531,-0.122736,-0.078631,-0.068938,5.393143,-17.178123,5.402611,-159.61516,-0.32973343,-0.5970719,0.1876322,-0.13104105,-0.08183458,0.11226923
20231225 03:37:08,0.231284,-0.531088,-0.608498,-0.346460,-0.037082,-0.097702,5.798695,-16.766975,5.111870,-157.29865,-0.16683236,-0.44328082,0.11986211,-0.32241854,-0.065377705,0.28315407
20231225 03:37:08,-0.480305,-0.429932,0.752282,-0.547810,0.021512,-0.103029,5.975155,-17.134293,5.405540,-157.1853,0.10093948,-0.57331026,-0.40499648,-0.50275165,-0.04717145,0.40920454
20231225 03:37:08,-0.935995,-0.486705,1.659987,-0.543549,0.089694,-0.078526,6.317184,-17.004501,4.596649,-155.93939,0.15428859,-0.8294736,-0.92809975,-0.50793535,0.0012238044,0.38678718
20231225 03:37:08,-1.354100,-0.626931,2.523001,-0.425295,0.154680,-0.020997,5.814053,-17.135117,4.466194,-157.7227,0.12125385,-1.1769755,-1.5556037,-0.39690205,0.06679764,0.27959433
20231225 03:37:08,-1.575786,-0.720810,2.886613,-0.330479,0.168530,0.021617,6.097054,-17.687950,5.174957,-157.46817,0.0042641163,-1.365062,-1.8592517,-0.30118233,0.090280704,0.19444601
20231225 03:37:08,-1.765987,-0.909944,3.276015,-0.092907,0.154680,0.124955,5.983349,-16.655495,4.838486,-156.79556,0.020972967,-1.6243134,-2.1585846,-0.04297109,0.116481476,-0.004404001
20231225 03:37:08,-1.518958,-1.137576,2.733623,0.287423,0.099282,0.284758,5.956455,-16.940559,4.856827,-157.36493,0.12582743,-1.6804868,-1.8176694,0.3771063,0.12005628,-0.33759528
20231225 03:37:09,-0.899926,-1.152297,1.712700,0.474924,0.087563,0.352940,5.401337,-16.699326,4.835556,-159.13219,0.2728557,-1.4198159,-1.1939918,0.5798002,0.120849624,-0.5093779
20231225 03:37:09,-0.265095,-1.248680,0.593254,0.582524,0.098217,0.369985,5.719814,-16.680176,5.239388,-158.71097,0.22296076,-1.3048577,-0.6497462,0.680198,0.1256004,-0.5954271
20231225 03:37:09,0.184330,-1.374635,-0.354756,0.605962,0.115262,0.343352,5.279823,-16.337563,5.346619,-160.19371,-0.02456455,-1.3448771,-0.21981096,0.6785951,0.13211241,-0.60804296
20231225 03:37:09,0.353588,-1.388725,-0.744753,0.589981,0.128047,0.319914,5.410686,-16.796196,5.109917,-160.46107,-0.21950936,-1.3651986,-0.06681073,0.64724314,0.1343994,-0.59111524
20231225 03:37:09,0.692849,-1.456213,-1.557341,0.488773,0.142961,0.219771,5.235378,-17.004547,5.657654,-161.56459,-0.61289597,-1.437006,0.21839339,0.49807483,0.14517385,-0.4631012
20231225 03:37:09,0.722975,-1.460509,-1.727057,0.441898,0.148288,0.181419,4.910511,-16.560509,5.893379,-161.75218,-0.7492175,-1.4061148,0.2679237,0.42917573,0.15326403,-0.41055787
20231225 03:37:09,0.562937,-1.333158,-1.969716,0.298076,0.141896,0.083407,5.007320,-16.457260,5.753632,-160.43112,-1.0402148,-1.2240593,0.51380235,0.2539099,0.14948767,-0.24364413
20231225 03:37:09,0.401200,-1.239637,-2.030759,0.208587,0.121654,0.037597,5.369198,-17.096878,6.334869,-158.98357,-1.1762713,-1.0558746,0.6433307,0.1554081,0.13168976,-0.15244205
20231225 03:37:09,0.303159,-1.190470,-2.032486,0.161712,0.105674,0.021617,4.980812,-16.934212,6.052444,-159.45284,-1.2331582,-0.97587967,0.7319318,0.111648984,0.11538048,-0.11222032
20231225 03:37:09,0.133617,-1.122949,-2.057837,0.059438,0.074779,-0.002886,4.980812,-16.934212,6.052444,-158.88705,-1.349643,-0.8790206,0.8758378,0.028158076,0.079733945,-0.02627976
20231225 03:37:09,0.059576,-1.026720,-1.997284,-0.042835,0.052407,-0.022063,5.166615,-17.398399,6.620483,-158.75568,-1.3466587,-0.7822644,0.92168736,-0.050361082,0.050169032,0.058258966
20231225 03:37:09,0.005090,-0.935607,-1.766963,-0.134455,0.044949,-0.046566,4.742748,-17.807701,6.642982,-160.45651,-1.1847805,-0.7115822,0.89754295,-0.12926356,0.03555526,0.13950205
20231225 03:37:09,-0.100539,-0.862372,-1.395123,-0.206899,0.043884,-0.071069,5.342304,-17.381935,6.353203,-158.2767,-0.9365506,-0.68626195,0.7599555,-0.2009722,0.026305906,0.20473506
20231225 03:37:09,-0.261793,-0.724834,-0.911576,-0.245251,0.040688,-0.085984,5.367664,-16.329323,5.212982,-156.87839,-0.7208462,-0.63081247,0.5792302,-0.23980302,0.018926248,0.23926453
20231225 03:37:09,-0.441265,-0.552249,-0.335679,-0.227141,0.039623,-0.074265,5.342957,-15.864311,5.584297,-156.53165,-0.47210652,-0.56029433,0.36419752,-0.22155176,0.015502975,0.21581802
20231225 03:37:09,-0.532471,-0.512237,-0.256764,-0.206899,0.046015,-0.058285,5.563091,-15.180862,5.005989,-154.83191,-0.4925148,-0.5452175,0.37197924,-0.1969651,0.022656823,0.19351062
20231225 03:37:09,-0.512300,-0.430048,-0.221232,-0.157893,0.066256,-0.019932,4.952377,-16.451714,4.948898,-158.43489,-0.46624786,-0.46400288,0.3860703,-0.13689095,0.045993518,0.13950664
20231225 03:37:09,-0.428673,-0.399663,-0.327984,-0.112083,0.089694,0.010963,5.237186,-16.062576,5.730156,-157.25323,-0.4808445,-0.40837008,0.4027627,-0.08535209,0.07144094,0.09509002
20231225 03:37:09,-0.388927,-0.467967,-0.450656,-0.085449,0.089694,0.029074,5.272659,-15.490608,5.425224,-156.4131,-0.5258918,-0.45404896,0.43169045,-0.05387502,0.07260681,0.06562026
20231225 03:37:09,-0.345912,-0.642913,-0.612316,-0.091841,0.055603,0.031205,4.919476,-16.465485,5.887260,-158.7819,-0.58211696,-0.59953976,0.48338443,-0.052654162,0.038123492,0.056746982
20231225 03:37:09,-0.279790,-0.777680,-0.801638,-0.158958,-0.016841,0.031205,4.980427,-16.742317,5.771973,-159.15877,-0.65680665,-0.7070747,0.5350529,-0.091861896,-0.039725333,0.08424179
20231225 03:37:09,-0.059253,-0.894604,-0.845921,-0.263362,-0.114853,0.026943,4.989006,-16.455414,5.485382,-159.75774,-0.541925,-0.820476,0.39304852,-0.16353261,-0.1402247,0.13325153
20231225 03:37:09,0.177988,-0.852998,-0.781045,-0.366701,-0.211800,0.009898,5.059689,-17.020996,5.924919,-161.05196,-0.35274687,-0.7931775,0.21501017,-0.2483379,-0.23443963,0.19388424
20231225 03:37:09,0.371445,-0.756503,-0.728425,-0.448733,-0.269328,-0.022063,5.016670,-16.554138,6.027992,-161.59602,-0.19875598,-0.7147101,0.0762195,-0.33282244,-0.28549755,0.25997
20231225 03:37:09,0.470392,-0.578212,-0.568660,-0.492412,-0.292766,-0.084918,5.050724,-17.116013,5.931030,-161.68222,-0.022857666,-0.5329639,-0.061841726,-0.40444425,-0.31034988,0.3293286
20231225 03:37:09,0.321505,-0.165507,-0.353877,-0.479628,-0.284243,-0.165885,5.532204,-17.157959,4.598854,-158.55602,-0.0060937405,-0.12070975,-0.032808527,-0.4398976,-0.3039647,0.37162215
20231225 03:37:09,-0.088548,0.515041,-0.175715,-0.408250,-0.244825,-0.226610,4.942646,-16.162956,4.394066,-157.7698,-0.2479812,0.5188894,0.31077394,-0.4142673,-0.26087075,0.37632167
20231225 03:37:09,-0.722873,1.253210,-0.109312,-0.308107,-0.185166,-0.241524,5.276867,-16.703850,4.432701,-154.93927,-0.79934335,1.1093303,0.9586937,-0.34427255,-0.18556184,0.3231658
