Timestamp,linacce_x,linacce_y,linacce_z,gyro_x,gyro_y,gyro_z,X-magnetometer,Y-magnetometer,Z-magnetometer,Yaw, worldXAccel,worldYAccel,worldZAccel,worldXgyro,worldYgyro,worldZgyro
20231225 03:39:35,-0.378739,-0.962390,-0.781673,-0.044966,0.273999,0.156916,-4.111992,-31.522896,-5.812981,169.08641,-0.6950823,-0.95120883,1.0049602,0.033816207,0.26318488,-0.14989832
20231225 03:39:35,-0.501013,-1.195569,-0.913294,0.388631,0.134439,-0.336340,-4.737022,-31.099854,-5.712837,167.62827,-0.8375962,-1.186268,1.2425765,0.15496738,0.1825291,0.05766937
20231225 03:39:35,-0.478058,-1.381150,-1.256125,0.414199,0.103544,-0.369366,-4.242474,-31.256149,-5.295807,168.8174,-0.9976942,-1.3498269,1.5255603,0.15122634,0.15554304,0.070831954
20231225 03:39:35,-0.519154,-1.293125,-1.173617,0.449356,0.095021,-0.389608,-3.827187,-31.133759,-5.031723,169.59877,-1.0077896,-1.266179,1.444026,0.15598218,0.15192878,0.05761841
20231225 03:39:35,-0.356611,-1.075209,-1.356095,0.475989,0.063060,-0.415176,-3.694134,-30.842323,-4.915443,169.49896,-1.0499182,-1.0325028,1.4362589,0.12839594,0.10999725,0.030635834
20231225 03:39:35,-0.092533,-0.737946,-1.670012,0.435506,0.046015,-0.463117,-3.357727,-30.633133,-4.523842,170.21587,-1.1387105,-0.7009081,1.4053171,0.02859658,0.06872487,0.057355553
20231225 03:39:35,0.224737,-0.191023,-1.835760,0.333233,-0.002991,-0.541953,-2.899807,-30.785728,-4.643295,171.30574,-1.1436079,-0.21736978,1.1424471,-0.14850155,-0.014185358,0.1425707
20231225 03:39:35,0.561893,0.495628,-1.991096,0.173430,-0.021102,-0.662337,-2.908386,-31.072639,-4.356712,171.0698,-1.1098344,0.39657235,0.8184935,-0.3854198,-0.05332958,0.3014053
20231225 03:39:35,0.641620,0.848149,-2.045847,-0.007679,0.049211,-0.820008,-2.486320,-31.605309,-4.451714,172.03603,-1.1588043,0.7535923,0.696764,-0.64114183,0.019419124,0.51086164
20231225 03:39:35,0.446431,1.868398,-1.718158,-0.194115,0.203686,-0.990464,-1.665482,-31.071777,-4.478371,173.00104,-1.1608218,1.9678745,0.56678104,-0.905769,0.24499145,0.7468155
20231225 03:39:35,-0.485278,2.618651,-1.018865,-0.381616,0.395449,-1.091672,-1.446770,-31.522186,-4.848709,171.86449,-1.5034662,2.6538374,0.7846957,-1.1200975,0.5120258,0.95985353
20231225 03:39:35,-1.733106,3.274946,0.133284,-0.539288,0.546728,-1.076757,-0.874107,-31.381485,-5.120140,172.51656,-1.8857405,2.6712606,0.83302927,-1.2276413,0.6409632,1.0853646
20231225 03:39:35,-2.913545,3.595598,1.493047,-0.652215,0.571231,-0.946785,-0.441658,-30.685280,-5.429222,172.99834,-2.2266245,2.0945623,0.41504395,-1.204155,0.5709291,1.0855293
20231225 03:39:35,-3.807005,3.344149,2.739820,-0.662868,0.448716,-0.723062,0.059284,-31.304733,-5.651749,174.30325,-2.4259348,1.1553726,-0.26922047,-1.0297246,0.362421,0.93471146
20231225 03:39:35,-4.073051,2.643835,3.192850,-0.547810,0.272934,-0.459921,0.261871,-31.003220,-5.937355,174.69704,-2.4257545,0.35105503,-0.68599284,-0.7476051,0.16426069,0.6598575
20231225 03:39:35,-3.677319,1.836230,2.980344,-0.300650,0.175987,-0.213825,0.967201,-30.379196,-6.372978,176.24431,-2.0393925,-0.04872656,-0.70465446,-0.39449129,0.10960877,0.32957113
20231225 03:39:35,-2.926421,1.387333,2.326130,-0.148305,0.154680,-0.109421,0.507862,-31.360466,-6.045555,176.25197,-1.5227976,0.07914379,-0.44647205,-0.20825243,0.124284655,0.16353434
20231225 03:39:35,-2.040627,1.098205,1.441211,0.267181,0.126981,0.096191,0.712631,-30.308868,-5.978188,177.32835,-1.0621581,0.34890932,-0.058122993,0.25155956,0.16818881,-0.23633856
20231225 03:39:35,-1.257783,0.763132,0.521543,0.441898,0.100347,0.160112,0.262253,-31.195107,-5.656883,177.15695,-0.8138107,0.43052942,0.30262482,0.433291,0.15853092,-0.39609298
20231225 03:39:35,-0.656396,0.494964,-0.282019,0.550564,0.066256,0.168635,0.307465,-30.911903,-5.406982,178.16568,-0.74051964,0.42750177,0.6193053,0.5251961,0.122728206,-0.4786266
20231225 03:39:35,-0.153090,0.337297,-1.014066,0.600635,0.023642,0.150524,0.386341,-30.998695,-5.534492,178.79306,-0.81081927,0.4136781,0.8561747,0.5466882,0.07378102,-0.510611
20231225 03:39:35,0.129679,0.127346,-1.448121,0.599570,-0.023233,0.118563,0.431934,-30.907379,-5.004120,179.59848,-0.8961818,0.24844338,0.9700551,0.52065283,0.01719977,-0.4954676
20231225 03:39:35,0.390147,0.050943,-1.819908,0.553760,-0.098873,0.072753,0.098484,-30.750252,-4.481812,179.26611,-0.98990434,0.16844314,1.0303752,0.45242918,-0.07233652,-0.4377025
20231225 03:39:35,0.627409,-0.116016,-2.151414,0.480251,-0.179839,0.009898,0.087330,-31.595345,-4.828667,179.55684,-1.0903591,-0.021092825,1.0596534,0.34959006,-0.16382672,-0.34873152
20231225 03:39:35,0.749309,-0.115373,-2.317468,0.384369,-0.269328,-0.063611,0.538860,-31.284767,-4.308571,-178.6955,-1.1755774,-0.05225519,1.0356553,0.22204998,-0.2603662,-0.2411795
20231225 03:39:35,0.779989,-0.130040,-2.582805,0.270377,-0.337511,-0.138186,0.054043,-31.417244,-4.170776,179.78868,-1.4205027,-0.059954464,1.1205866,0.08210055,-0.32931724,-0.11091587
20231225 03:39:35,0.731607,-0.058238,-2.728175,0.138274,-0.375863,-0.207433,0.469330,-31.294846,-3.906693,-178.97708,-1.6070373,0.047506675,1.2021503,-0.05708982,-0.36529785,0.024016887
20231225 03:39:35,0.596479,0.033821,-2.775943,-0.002352,-0.377994,-0.267093,0.602386,-31.003403,-3.790421,-178.9385,-1.7396334,0.22303875,1.3267802,-0.18374078,-0.3615973,0.16889778
20231225 03:39:35,0.360207,0.187476,-2.590483,-0.150435,-0.372667,-0.319295,0.750793,-31.080124,-4.319824,-179.14221,-1.7097591,0.43265396,1.443085,-0.30594876,-0.3544517,0.3201902
20231225 03:39:35,0.074754,0.227950,-2.208318,-0.278277,-0.385451,-0.365105,0.468945,-31.102959,-4.187157,179.32133,-1.5487548,0.49292284,1.4714073,-0.40733367,-0.36871868,0.45664525
20231225 03:39:35,-0.273076,0.292422,-1.736204,-0.375224,-0.396105,-0.397065,0.944412,-30.873627,-4.599312,-179.9763,-1.4135123,0.48655775,1.4436153,-0.48547903,-0.38749546,0.5461812
20231225 03:39:35,-0.566685,0.358810,-1.224781,-0.424230,-0.402497,-0.420503,0.741444,-30.983253,-4.594177,179.15273,-1.2689602,0.4360478,1.2884378,-0.5301411,-0.40102714,0.60049105
20231225 03:39:35,-0.815850,0.432947,-0.795546,-0.426361,-0.404628,-0.447137,1.226265,-30.850784,-4.731972,-179.83961,-1.1884937,0.39384037,1.1350579,-0.54332054,-0.40185377,0.6158186
20231225 03:39:35,-0.930191,0.491548,-0.636246,-0.384812,-0.386517,-0.469509,1.533203,-31.484856,-4.955467,-179.54776,-1.1908071,0.39151436,1.0861151,-0.5198021,-0.37197834,0.60468936
20231225 03:39:36,-1.347485,0.807952,-0.315459,-0.318760,-0.353491,-0.478032,1.602352,-31.282883,-5.637817,179.55875,-1.3831937,0.5213917,1.0989265,-0.4691537,-0.31929913,0.57347447
20231225 03:39:36,-1.728873,1.091787,-0.215096,-0.248447,-0.315138,-0.467378,2.283360,-30.385727,-5.421669,-179.05217,-1.6908563,0.62829494,1.2902913,-0.4049317,-0.25953183,0.513652
20231225 03:39:36,-2.112630,1.390890,-0.098804,-0.186657,-0.294897,-0.421568,2.369404,-31.319466,-5.627800,-179.6166,-2.0002453,0.72498655,1.4511305,-0.3258867,-0.22605167,0.44054353
20231225 03:39:36,-2.322718,1.707922,-0.019849,-0.125932,-0.286374,-0.342732,2.290134,-31.040787,-5.780754,179.79736,-2.1826696,0.92606187,1.5450869,-0.23253332,-0.2151463,0.34122664
20231225 03:39:36,-2.366918,1.870088,-0.007837,-0.073730,-0.290635,-0.241524,2.520000,-30.646095,-5.804230,-179.29626,-2.220662,1.10097,1.6064771,-0.13427469,-0.23161069,0.22616816
20231225 03:39:36,-2.049249,1.853428,-0.149372,-0.055619,-0.297027,-0.198910,2.601837,-30.366592,-5.017838,-177.56122,-2.024134,1.2809734,1.5454236,-0.10139947,-0.24982649,0.17522286
20231225 03:39:36,-1.579327,1.638006,-0.342645,-0.033247,-0.316204,-0.126467,2.528584,-30.359192,-6.090813,-177.62564,-1.6938474,1.3155591,1.3672596,-0.047589302,-0.28713408,0.10609018
20231225 03:39:36,-1.103311,1.362797,-0.437191,-0.041770,-0.320465,-0.131794,2.299484,-31.137657,-5.506386,-177.01788,-1.3102906,1.2090743,1.1158216,-0.06864056,-0.29931447,0.11332899
20231225 03:39:36,-0.905176,1.262814,-0.475007,-0.059881,-0.308746,-0.161623,2.626160,-30.639717,-5.669617,-175.45444,-1.1444507,1.171275,1.0277157,-0.11146481,-0.2917563,0.14227153
20231225 03:39:36,-0.620228,1.007046,-0.476995,-0.079057,-0.295962,-0.197845,2.483761,-30.834290,-6.060249,-175.85118,-0.8843224,0.96322775,0.8173735,-0.15343712,-0.28110138,0.18620218
20231225 03:39:36,-0.466762,0.551353,-0.208073,-0.085449,-0.285309,-0.237263,2.853836,-30.995110,-6.046066,-174.74208,-0.5462922,0.5081245,0.48814812,-0.1841464,-0.2705533,0.21884678
20231225 03:39:36,-0.371312,0.374504,-0.008876,-0.075861,-0.285309,-0.290530,2.907242,-30.233101,-6.363213,-174.3951,-0.3347195,0.33007765,0.25732958,-0.20848891,-0.26698628,0.25516605
20231225 03:39:36,-0.325832,0.343336,0.059019,-0.055619,-0.286374,-0.351255,2.933102,-31.273788,-5.893112,-174.5761,-0.2576023,0.29613438,0.17192928,-0.22591124,-0.25939265,0.29281008
20231225 03:39:36,-0.477635,0.428188,0.068275,-0.030051,-0.277851,-0.416241,3.356968,-30.864487,-5.915611,-173.8123,-0.3877436,0.34730408,0.2678493,-0.2397881,-0.23422056,0.32582822
20231225 03:39:36,-0.667815,0.533306,0.145221,0.001909,-0.262936,-0.458855,3.144650,-30.877251,-6.184837,-175.27438,-0.51598465,0.38200012,0.3266583,-0.23512606,-0.1936645,0.3444125
20231225 03:39:36,-1.289197,1.002054,0.318654,0.044523,-0.240564,-0.460986,3.462742,-30.666229,-6.061478,-174.86221,-0.9863485,0.6605034,0.60963786,-0.2004193,-0.15195349,0.3186465
20231225 03:39:36,-1.477114,1.127604,0.434077,0.108444,-0.193689,-0.451398,3.753170,-30.356468,-6.480721,-174.60577,-1.098359,0.69372356,0.64973307,-0.14862421,-0.087281436,0.2737009
20231225 03:39:36,-1.763905,1.376260,0.632445,0.197933,-0.143617,-0.442875,3.814121,-30.633308,-6.596008,-175.11597,-1.2684557,0.781232,0.6866207,-0.0789388,-0.008573651,0.215024
20231225 03:39:36,-1.929107,1.523440,0.601683,0.316187,-0.053063,-0.420503,4.187157,-30.427826,-5.667915,-173.83987,-1.4632684,0.82835937,0.86137545,0.010436043,0.115348466,0.12570256
20231225 03:39:36,-2.252008,1.774938,0.844495,0.463205,0.052407,-0.369366,4.451073,-30.595024,-5.788353,-173.69666,-1.6453465,0.86443263,0.91297114,0.13157499,0.2563008,-7.843673E-4
20231225 03:39:36,-2.549055,2.262598,1.000145,0.586785,0.060930,-0.286269,4.090729,-30.722961,-5.247696,-174.47087,-1.8653742,1.1345246,1.0926077,0.25197393,0.2921862,-0.16732731
20231225 03:39:36,-2.620169,2.778631,0.704669,0.610223,-0.031756,-0.175473,4.751621,-30.765923,-5.372292,-172.4999,-2.1810436,1.6325349,1.5887396,0.33278665,0.18934312,-0.304438
20231225 03:39:36,-2.430903,3.166446,0.172246,0.510080,-0.160663,-0.051892,4.566963,-30.877403,-5.098915,-171.94193,-2.4148097,2.2518458,1.978937,0.35395527,-0.0024813218,-0.35709125
20231225 03:39:36,-2.060755,3.375819,-0.367060,0.311926,-0.264002,0.078080,4.551991,-30.701141,-4.172768,-169.8523,-2.5037675,2.7871149,2.1927989,0.32814413,-0.19700332,-0.31818032
20231225 03:39:36,-1.639627,3.387466,-0.303718,0.056242,-0.351360,0.219771,4.763542,-30.304596,-4.464485,-168.17075,-2.0253797,3.0043309,1.8867979,0.270831,-0.3733409,-0.23149776
20231225 03:39:36,-1.001802,2.861312,-0.182377,-0.212226,-0.363079,0.342286,4.012619,-31.019951,-4.559235,-169.9323,-1.1927862,2.714504,1.1942445,0.144678,-0.42795318,-0.12251216
20231225 03:39:36,-0.630023,2.632538,0.171320,-0.458321,-0.333249,0.441364,4.251446,-30.530243,-4.588829,-169.08101,-0.49553263,2.582673,0.6579939,-0.052879006,-0.3783586,-0.08600433
20231225 03:39:36,0.484907,1.160255,1.771039,-0.623450,-0.317269,0.464801,4.142719,-31.094818,-5.356880,-169.95712,1.3479757,1.165092,-1.566688,-0.28832644,-0.30992597,-0.10946581
20231225 03:39:36,0.814770,0.521347,2.393020,-0.659672,-0.313008,0.452017,3.490788,-30.956833,-5.238403,-171.79643,1.7526019,0.53376245,-2.4243731,-0.4161098,-0.27357754,-0.17014256
20231225 03:39:36,1.294194,-1.095967,3.587854,-0.611731,-0.245891,0.371051,3.235065,-30.310829,-5.685028,-172.36502,2.3791518,-1.0961882,-3.921379,-0.46064153,-0.20032367,-0.17632295
20231225 03:39:36,1.384644,-1.547507,3.907189,-0.495608,-0.220322,0.294346,3.338654,-30.862640,-6.183861,-172.44087,2.3077536,-1.5672882,-4.2953153,-0.4079645,-0.18148516,-0.18341339
20231225 03:39:36,1.390197,-2.820996,3.996720,-0.331545,-0.194754,0.210183,2.967804,-30.318047,-6.758987,-173.14468,2.123003,-2.8522398,-4.49609,-0.2854277,-0.16976586,-0.16081429
20231225 03:39:36,1.358373,-3.399748,4.091832,-0.102495,-0.194754,0.103648,2.943100,-29.853020,-6.387672,-173.21376,1.9770331,-3.4375927,-4.6283216,-0.08618571,-0.18602732,-0.107198045
20231225 03:39:36,1.344870,-3.642649,3.878111,0.206456,-0.189427,-0.031651,3.021980,-29.939812,-6.515190,-173.06798,1.9541193,-3.678073,-4.4577947,0.19562802,-0.20299406,-0.027432999
20231225 03:39:36,1.283824,-3.538682,3.591513,0.374781,-0.174512,-0.093441,3.199474,-28.981392,-6.709953,-172.39607,1.9220783,-3.5665073,-4.2024407,0.346764,-0.19879624,-0.005898744
20231225 03:39:36,1.022438,-2.809850,2.061768,0.691189,-0.124441,-0.194649,3.164383,-29.745255,-6.124565,-172.52946,1.570008,-2.8226643,-2.608221,0.5942831,-0.1596872,-0.04736449
20231225 03:39:36,0.961351,-2.565598,1.481535,0.903194,-0.092481,-0.262831,3.299236,-28.511841,-5.935791,-171.83916,1.3908716,-2.577873,-2.0531213,0.7490475,-0.12823735,-0.09103386
20231225 03:39:36,0.702316,-2.082130,0.387891,0.985226,-0.095677,-0.311837,3.643192,-29.341499,-5.342323,-171.07037,0.8187692,-2.0753057,-0.9637991,0.69539195,-0.07960294,-0.24222896
20231225 03:39:36,0.256431,-1.358932,-0.998382,0.928762,-0.095677,-0.270289,3.678783,-30.670944,-4.317398,-171.3162,-0.32159862,-1.3110262,0.48949766,0.6048816,-0.042504728,-0.33089447
20231225 03:39:36,0.135902,-1.218346,-1.254776,0.877625,-0.096742,-0.234067,3.706448,-30.769653,-3.774796,-171.1311,-0.6030729,-1.144588,0.7454808,0.55286574,-0.029996738,-0.36959827
20231225 03:39:36,-0.007988,-0.833704,-2.007645,0.647510,-0.036017,-0.074265,3.679554,-31.054710,-3.756454,-170.57256,-1.3084918,-0.7180234,1.3665667,0.4300856,0.008267399,-0.38708892
20231225 03:39:36,0.050261,-0.804908,-2.064779,0.559086,-0.013645,-0.016736,3.733723,-30.676491,-3.512665,-170.14655,-1.3142672,-0.71538806,1.3707314,0.40337133,0.012643496,-0.36522615
20231225 03:39:36,0.178602,-0.952652,-2.100347,0.389696,0.035361,0.072753,4.157974,-30.459084,-3.254692,-168.95572,-1.2274361,-0.88680565,1.2908461,0.33931795,0.045740604,-0.30627552
20231225 03:39:36,0.398695,-1.082889,-1.836918,0.245874,0.073714,0.128151,3.971134,-31.320633,-3.334282,-169.8455,-0.8569121,-1.0670831,0.99144846,0.27060866,0.07485606,-0.24395274
20231225 03:39:36,0.531663,-1.185996,-1.541404,0.139339,0.079040,0.149458,3.488121,-30.511147,-3.123985,-170.92058,-0.5440483,-1.204704,0.7213588,0.20256178,0.078796126,-0.19232544
20231225 03:39:36,0.694205,-1.290823,-1.367472,0.005105,0.026838,0.139870,3.812988,-30.955170,-3.359711,-170.16516,-0.30257946,-1.342973,0.47842175,0.08914674,0.029915744,-0.10924187
20231225 03:39:36,0.748824,-1.295164,-1.323956,-0.038574,0.008728,0.132413,3.470573,-30.893066,-2.831291,-171.03516,-0.25270313,-1.3611352,0.4184721,0.05048095,0.0140810665,-0.07893875
20231225 03:39:36,0.865845,-1.154015,-1.333915,-0.188788,-0.014710,0.118563,3.691471,-30.593399,-2.848656,-169.98927,-0.22423178,-1.2749531,0.3196,-0.07304886,0.0036130385,0.026158653
20231225 03:39:36,1.010628,-0.902762,-1.295003,-0.248447,-0.015775,0.111106,3.513210,-31.168045,-3.214828,-170.41495,-0.08158755,-1.0285565,0.23157412,-0.12289616,0.005371597,0.07057332
20231225 03:39:36,0.993447,-0.683472,-1.136765,-0.383747,0.001270,0.099387,2.921848,-31.115005,-3.492119,-171.89049,0.03131455,-0.7849257,0.17700368,-0.23634364,0.026301296,0.164531
20231225 03:39:36,0.733930,-0.448397,-0.477541,-0.511589,0.025773,0.098322,3.370422,-31.170731,-3.885933,-171.3679,0.29728824,-0.46519187,-0.114676654,-0.3508333,0.03482299,0.23126346
20231225 03:39:36,0.607148,-0.364208,-0.209009,-0.602143,0.054537,0.108975,3.202927,-30.708397,-4.185715,-171.85435,0.37147492,-0.3685994,-0.22606982,-0.426763,0.058492772,0.26806414
20231225 03:39:36,0.421803,-0.282817,0.462836,-0.638365,0.073714,0.124955,3.211514,-30.421478,-4.472298,-172.20497,0.6080009,-0.28147772,-0.6465744,-0.46733764,0.0658486,0.25291407
20231225 03:39:36,0.163005,-0.388654,1.383495,-0.611731,0.102478,0.142001,3.324833,-31.262047,-4.416298,-172.62323,0.8520943,-0.40651157,-1.3060788,-0.45535138,0.08332356,0.20234233
20231225 03:39:36,0.052952,-0.464309,1.683552,-0.508392,0.128047,0.156916,3.147606,-30.510956,-5.270920,-173.23737,0.8540562,-0.50103503,-1.5456092,-0.37651253,0.10195428,0.11686663
20231225 03:39:36,-0.148492,-0.564270,2.226416,-0.229271,0.136569,0.169700,2.741669,-30.730209,-5.260651,-174.5557,0.89940137,-0.6426942,-1.9519635,-0.13107303,0.116681576,-0.034151524
20231225 03:39:36,-0.243507,-0.571677,2.214945,-0.118475,0.135504,0.172896,2.645241,-31.025352,-4.840431,-174.85152,0.83933663,-0.66796887,-1.8807862,-0.028983757,0.12055029,-0.0859702
20231225 03:39:36,-0.309338,-0.546863,1.917016,0.091399,0.139765,0.194203,2.848209,-30.915718,-4.845566,-174.33296,0.6706703,-0.641782,-1.5700347,0.16788736,0.1382171,-0.20128717
20231225 03:39:36,-0.244539,-0.444703,1.337307,0.249070,0.139765,0.221902,2.584675,-30.940399,-4.444664,-174.59062,0.50169265,-0.5056615,-1.0451579,0.32292414,0.14609073,-0.30703694
20231225 03:39:36,-0.054802,-0.327734,0.568812,0.341755,0.141896,0.242144,2.732704,-30.825226,-5.254532,-173.69685,0.28496802,-0.34525666,-0.46510118,0.414711,0.14881258,-0.37886435
20231225 03:39:36,0.150494,-0.209824,-0.095208,0.366258,0.149353,0.250666,2.391052,-31.146904,-4.165169,-173.95435,0.06144038,-0.20633523,-0.036511473,0.44091684,0.15188715,-0.41045007
20231225 03:39:36,0.389530,-0.121747,-0.879252,0.320448,0.166399,0.240013,2.796989,-30.927643,-4.175438,-172.29001,-0.27321658,-0.1277292,0.39912236,0.4003461,0.16578227,-0.3717547
20231225 03:39:36,0.496142,-0.125073,-1.038219,0.286357,0.172791,0.228294,2.451622,-31.231850,-4.560936,-173.02513,-0.31206146,-0.1382866,0.43666658,0.36723873,0.17196584,-0.3433713
20231225 03:39:36,0.498840,-0.031131,-1.316641,0.214979,0.189837,0.199530,1.994080,-31.271149,-4.161011,-174.31302,-0.5171602,-0.040677782,0.63115466,0.2942588,0.18964292,-0.27761802
20231225 03:39:36,0.411744,0.026263,-1.338084,0.136143,0.195163,0.167569,2.029560,-30.699173,-4.465927,-174.27835,-0.61430466,0.051487707,0.69225484,0.2111192,0.19480634,-0.20055905
20231225 03:39:36,0.184372,0.114438,-1.295847,0.065830,0.190902,0.147328,2.075535,-30.799751,-3.655090,-174.83998,-0.75223285,0.18925369,0.82570696,0.13874388,0.18652265,-0.13965279
20231225 03:39:36,-0.020552,0.176366,-1.219327,0.016824,0.181314,0.143066,1.924934,-31.473106,-3.478661,-175.48483,-0.8587537,0.24791372,0.9086843,0.09906242,0.17305878,-0.104932964
20231225 03:39:36,-0.177502,0.286977,-1.207790,-0.024724,0.217536,0.173961,1.828125,-31.576363,-3.338905,-176.07088,-0.9674096,0.3651694,1.0196309,0.0819937,0.20022985,-0.099693015
20231225 03:39:36,-0.309512,0.315702,-1.032854,-0.028986,0.238843,0.186746,1.828125,-31.576363,-3.338905,-176.08913,-0.9439209,0.36700004,0.9862801,0.08505306,0.22043559,-0.10621522
20231225 03:39:36,-0.267585,0.282846,-0.856349,-0.031116,0.271869,0.214445,1.739895,-31.392700,-3.485748,-176.3619,-0.78376037,0.32135656,0.83182764,0.09763625,0.25201082,-0.12715597
20231225 03:39:36,-0.239369,0.183020,-0.689717,-0.024724,0.287849,0.238948,1.872952,-31.101265,-3.369476,-175.92714,-0.6390705,0.20885304,0.68891406,0.11641577,0.26881453,-0.14988852
20231225 03:39:36,-0.102605,0.008252,-0.572024,-0.013006,0.294241,0.259189,1.297718,-31.800148,-3.731491,-177.4648,-0.44247752,0.032311313,0.50626576,0.13858195,0.27839726,-0.18134749
20231225 03:39:36,-0.039199,-0.013789,-0.568305,0.000844,0.293175,0.275169,1.581367,-30.835342,-3.791649,-176.42755,-0.39117143,0.008105399,0.4612944,0.16340609,0.28103307,-0.19803979
20231225 03:39:36,0.112694,0.001450,-0.548533,-0.000221,0.278261,0.289019,1.069656,-31.252869,-3.635521,-177.64923,-0.26250216,0.022618832,0.3504618,0.17526048,0.26898876,-0.21355128
20231225 03:39:36,0.264233,0.057382,-0.564943,-0.003417,0.251627,0.303934,0.936985,-31.736198,-3.471313,-177.7718,-0.16485082,0.07094508,0.26115817,0.1900927,0.24678239,-0.2218932
20231225 03:39:36,0.443816,0.201741,-0.615071,-0.004483,0.219666,0.303934,1.369816,-31.231880,-3.499931,-176.2699,-0.07306945,0.20010883,0.17721215,0.19780585,0.2201164,-0.21394017
20231225 03:39:36,0.575804,0.391190,-0.777568,-0.016202,0.220732,0.297542,0.530666,-31.763557,-3.741508,-178.24188,-0.110111,0.36605448,0.17632169,0.19692731,0.22633673,-0.19970922
20231225 03:39:36,0.690664,0.516305,-0.918675,-0.026855,0.227124,0.289019,0.354206,-31.396248,-4.035187,-178.63126,-0.12459928,0.48185316,0.19544613,0.18496417,0.23363236,-0.18636191
20231225 03:39:36,0.730809,0.604349,-0.936090,-0.040705,0.271869,0.242144,0.603149,-31.387184,-3.229477,-178.08308,-0.092592776,0.57081276,0.19997829,0.14067906,0.2772934,-0.14248265
20231225 03:39:36,0.708988,0.509079,-0.601771,-0.030051,0.282522,0.204856,0.321304,-31.410034,-3.096817,-178.94203,0.14064357,0.48627332,-0.012073785,0.11774631,0.28629398,-0.12959155
20231225 03:39:36,0.698567,0.456443,-0.491139,-0.016202,0.280391,0.186746,0.275326,-31.309456,-3.907669,-179.04759,0.21086797,0.440051,-0.08189711,0.11378633,0.28292638,-0.12678212
20231225 03:39:36,0.647842,0.366554,-0.374215,0.013628,0.262280,0.151589,0.036880,-31.991058,-3.597610,-179.7988,0.25282013,0.3582674,-0.13463926,0.11063525,0.26325214,-0.12348637
20231225 03:39:36,0.590243,0.289152,-0.358757,0.037066,0.227124,0.134543,0.294025,-31.503197,-3.358948,-179.22185,0.2181352,0.28859583,-0.10532409,0.11542635,0.22717173,-0.12421199
20231225 03:39:36,0.611820,0.323035,-0.375957,0.038131,0.173856,0.131347,-0.076054,-31.342369,-3.373131,179.93802,0.22044837,0.31190658,-0.115828276,0.1164988,0.17472748,-0.12445626
20231225 03:39:36,0.741634,0.361610,-0.472262,0.033870,0.128047,0.124955,0.170319,-31.891502,-3.200867,-179.16914,0.25475332,0.32161736,-0.13280368,0.11186004,0.1305266,-0.114694275
20231225 03:39:36,0.990646,0.367038,-0.635796,0.030674,0.104609,0.091930,-0.430008,-31.933487,-3.472038,179.50508,0.33605415,0.2848107,-0.18539259,0.08871432,0.10702116,-0.08975845
20231225 03:39:36,1.065456,0.382469,-0.708401,0.028543,0.112066,0.035466,-0.227039,-31.823853,-3.477173,179.95087,0.32222208,0.30597225,-0.19888633,0.049512856,0.112041876,-0.045499913
20231225 03:39:36,0.979792,0.510799,-0.651706,0.026412,0.130177,-0.024193,-0.446133,-31.181549,-3.387306,179.17068,0.2982667,0.46022144,-0.18602887,0.0069581047,0.128513,-0.0013701636
20231225 03:39:36,0.784597,0.655859,-0.719558,0.026412,0.179183,-0.079591,0.251385,-31.228218,-2.975410,-179.21397,0.07044032,0.6454782,-0.01953882,-0.034975097,0.17845283,0.040772088
20231225 03:39:36,0.523119,0.820168,-0.562193,0.017890,0.231385,-0.107291,0.285061,-31.598213,-3.352837,-179.52377,-0.021244794,0.84537876,0.057519406,-0.06556554,0.23415086,0.06746044
20231225 03:39:36,0.169006,0.812786,-0.252409,0.008301,0.237777,-0.125401,-0.154552,-31.447479,-2.965134,178.9448,-0.087443754,0.8339,0.062648445,-0.09056849,0.24428374,0.08415661
20231225 03:39:36,-0.097544,0.813242,-0.154230,0.015759,0.250562,-0.111552,0.391602,-31.783722,-2.937752,-179.90009,-0.23858002,0.8108623,0.18127048,-0.08115922,0.25898305,0.07361192
20231225 03:39:36,-0.430258,1.027568,0.167184,0.055177,0.250562,-0.065742,0.057766,-31.434715,-2.695915,179.09967,-0.3127905,0.95229924,0.14864334,-0.026517926,0.26036164,0.009566609
20231225 03:39:36,-0.557608,1.130209,0.162868,0.105248,0.247366,-0.009279,0.030102,-31.335991,-3.238525,178.67714,-0.4256965,1.0326165,0.23501194,0.045275293,0.2576097,-0.06811646
20231225 03:39:36,-0.568390,1.295362,0.006219,0.153189,0.253758,0.043989,0.337429,-32.161949,-3.181549,179.53352,-0.54569346,1.2140774,0.38454393,0.11208067,0.26306042,-0.13986984
20231225 03:39:36,-0.443285,1.521027,-0.372155,0.169169,0.266542,0.083407,0.348965,-31.508743,-2.554214,179.88612,-0.738628,1.499214,0.5759456,0.14637333,0.27168584,-0.18096831
20231225 03:39:36,-0.275279,1.723731,-0.715189,0.155319,0.344312,0.101518,0.197598,-31.798332,-2.938728,179.2052,-0.9128713,1.7578794,0.6635271,0.13781904,0.3442552,-0.18679832
20231225 03:39:36,-0.370657,2.173573,-0.675484,0.111640,0.385861,0.117498,0.040222,-31.816643,-2.403221,178.87753,-1.0285921,2.1892114,0.69126666,0.11067705,0.37729985,-0.16594869
20231225 03:39:36,-0.463026,2.588355,-0.510093,-0.001287,0.336855,0.143066,0.040222,-31.816643,-2.403221,178.8206,-1.0298071,2.5662014,0.6477418,0.0627057,0.312355,-0.094312586
20231225 03:39:36,-0.421122,2.846988,-0.377560,-0.188788,0.217536,0.172896,0.100788,-31.901588,-2.798988,178.85382,-0.91970265,2.8102708,0.52864945,-0.018406153,0.17216924,0.030868724
20231225 03:39:37,-0.378765,2.823074,-0.152947,-0.377355,0.111001,0.220837,-0.375450,-31.747147,-2.947769,177.68784,-0.64050305,2.7814913,0.3107439,-0.09448689,0.0560028,0.13584925
20231225 03:39:37,0.022575,2.589575,0.194147,-0.482824,0.129112,0.265581,-0.305534,-31.928955,-3.069183,178.52562,0.031328492,2.5755372,-0.19577476,-0.14616111,0.093970224,0.16537927
20231225 03:39:37,0.369256,2.449201,0.707741,-0.527569,0.223928,0.263451,-0.418854,-31.088387,-3.125175,178.47887,0.68927634,2.4386988,-0.8139057,-0.20619081,0.20175077,0.16916002
20231225 03:39:37,0.398002,2.317059,1.548610,-0.547810,0.281457,0.227229,-0.782536,-31.390732,-3.778915,177.36285,1.2173384,2.2742698,-1.5202951,-0.2824815,0.2491933,0.17002065
20231225 03:39:37,0.087614,2.182324,2.413068,-0.554202,0.245235,0.195268,-0.836327,-31.960854,-3.742233,177.2226,1.4248837,2.067141,-2.054158,-0.3343547,0.20092018,0.17136785
20231225 03:39:37,-0.110147,2.115240,3.136375,-0.532896,0.141896,0.203791,-0.730553,-31.762581,-3.888100,177.4825,1.6162024,1.9542115,-2.5704124,-0.324422,0.09663074,0.136408
20231225 03:39:37,-0.065483,1.771049,3.522012,-0.473236,0.050276,0.247470,-0.536549,-31.747971,-3.887123,178.17249,1.7706001,1.6404847,-2.9817545,-0.26828724,0.015515726,0.04420671
20231225 03:39:37,0.257117,1.106287,3.719154,-0.360309,0.022577,0.298607,-1.094238,-32.064926,-4.541832,177.30803,2.0264897,1.0645328,-3.412563,-0.16886058,0.010609377,-0.085182235
20231225 03:39:37,0.688355,0.253854,3.882642,-0.202638,0.084367,0.332698,-1.604530,-31.348602,-4.593666,176.53787,2.276543,0.25542173,-3.8135407,-0.04159452,0.084861666,-0.21877643
20231225 03:39:37,0.811522,-0.764563,3.914523,-0.048162,0.163203,0.352940,-1.657936,-32.110611,-4.276520,176.68877,2.1317558,-0.76388365,-3.9031591,0.07865916,0.16339007,-0.3219476
20231225 03:39:37,0.699973,-1.983659,4.108648,0.099921,0.203686,0.364659,-1.622459,-31.538643,-4.581444,176.77478,1.7285911,-1.9860675,-4.037041,0.18932459,0.2037053,-0.38860577
20231225 03:39:37,0.654669,-3.115786,4.382732,0.249070,0.139765,0.336960,-1.965260,-31.284653,-4.333496,176.18628,1.4180056,-3.1167436,-4.2160344,0.30410147,0.14136858,-0.38384277
20231225 03:39:37,0.670649,-4.086733,4.355515,0.393957,-0.063716,0.267712,-2.202938,-32.350029,-3.462486,176.02539,1.1542267,-4.086535,-4.1113005,0.42144313,-0.06332152,-0.30507815
20231225 03:39:37,0.795421,-4.774649,3.780787,0.561217,-0.319400,0.147328,-2.034023,-31.678505,-3.370667,176.39786,1.0837182,-4.7830133,-3.5251977,0.57060903,-0.32950932,-0.17077976
20231225 03:39:37,0.982316,-5.062225,2.656789,0.752980,-0.494117,0.002440,-2.236221,-32.171913,-2.804588,176.19684,1.1848763,-5.0897636,-2.3898919,0.74871385,-0.52562195,-0.03339643
20231225 03:39:37,1.159622,-4.983171,1.279047,0.955396,-0.514358,-0.146708,-1.988430,-31.587189,-2.840294,176.6963,1.271805,-5.039591,-1.1340866,0.9229879,-0.58073187,0.048522055
20231225 03:39:37,1.226906,-4.531291,0.036752,1.117329,-0.421673,-0.302249,-1.827332,-31.586357,-1.900948,176.79932,1.0972368,-4.609536,-0.11852382,0.9877598,-0.5114659,0.015757084
20231225 03:39:37,0.996747,-3.593790,-1.219643,1.096022,-0.308746,-0.441810,-1.775345,-31.958199,-2.010132,176.4651,0.28691262,-3.640769,0.8368788,0.77559465,-0.34872943,-0.082077384
20231225 03:39:37,0.543701,-2.503110,-2.186962,0.868037,-0.264002,-0.567521,-1.181030,-31.644943,-0.818924,176.98972,-0.9046114,-2.3727667,1.3963085,0.298197,-0.19384202,-0.12830982
20231225 03:39:37,-0.022862,-1.292480,-2.868896,0.472793,-0.177708,-0.663402,-0.626678,-31.502403,-1.358597,177.39458,-1.9118866,-0.8009263,1.9458901,-0.14644685,0.001013577,0.08694202
20231225 03:39:37,-1.386342,-0.098673,-2.197525,-0.161089,-0.064781,-0.682579,-0.316402,-31.962059,-0.387711,178.87828,-2.3726752,0.12585711,2.5419316,-0.53463775,0.08459002,0.60174125
20231225 03:39:37,-1.880157,0.079663,-1.647425,-0.313434,-0.031756,-0.642095,-0.316402,-31.962059,-0.387711,178.90958,-2.4192767,-0.05551952,2.4800932,-0.6127391,0.05343613,0.68785214
20231225 03:39:37,-2.703526,0.271789,-0.523459,-0.492412,0.075844,-0.499339,-0.046856,-32.208649,-1.708641,178.14369,-2.5041597,-0.56512564,2.0533783,-0.6836355,0.029541321,0.6937319
20231225 03:39:37,-3.208226,0.372707,0.604453,-0.526503,0.196229,-0.280942,-0.071949,-31.551743,-1.617798,178.32019,-2.4581432,-0.9315177,1.259964,-0.6253214,0.058215052,0.52017915
20231225 03:39:37,-3.417077,0.252327,1.706349,-0.444472,0.228189,-0.028455,0.316444,-31.714409,-1.335381,179.48128,-2.2196069,-1.2882433,0.23850596,-0.44315052,0.0617371,0.24602593
20231225 03:39:37,-3.274035,-0.118999,2.329298,-0.282539,0.186641,0.216575,0.070072,-31.165276,-1.507637,179.00008,-1.8670518,-1.525401,-0.5383394,-0.18686678,0.04986428,-0.063278005
20231225 03:39:37,-2.681450,-0.519117,2.463669,-0.074796,0.096086,0.417926,-0.469307,-31.484093,-1.894112,177.8736,-1.2239909,-1.5361174,-0.9316883,0.10453436,0.015131012,-0.3393081
20231225 03:39:37,-1.718439,-0.813708,1.858926,0.112705,0.044949,0.552160,-0.196033,-31.748161,-1.740189,178.813,-0.5502427,-1.3038151,-0.7884505,0.35372454,0.008615099,-0.539041
20231225 03:39:37,-0.643495,-1.095634,0.988796,0.254397,0.041753,0.608623,-0.935806,-31.618408,-1.488068,177.66289,-0.009137154,-1.2024912,-0.49711755,0.5198581,0.032590564,-0.6554769
20231225 03:39:37,0.295259,-1.468132,0.245905,0.346017,0.063060,0.586251,-1.199726,-31.451202,-1.367645,177.37338,0.38568783,-1.4669492,-0.3035433,0.59539664,0.063063,-0.6827071
20231225 03:39:37,0.953790,-1.682692,-0.320209,0.393957,0.092890,0.504219,-1.438171,-32.132805,-1.057579,177.09099,0.5830747,-1.7475423,-0.15446278,0.6024762,0.087626845,-0.63933384
20231225 03:39:37,1.414846,-1.781768,-0.667080,0.412068,0.097151,0.379574,-1.647533,-31.779259,-0.412880,176.5765,0.72149074,-1.9584157,-0.10757518,0.55625254,0.07878125,-0.54574263
20231225 03:39:37,1.578787,-1.739368,-0.986077,0.405676,0.082237,0.234686,-1.850502,-31.888893,-0.407745,176.07748,0.5946095,-1.9949323,0.0059192777,0.47254574,0.051864967,-0.42825943
20231225 03:39:37,1.606829,-1.615988,-1.259580,0.375847,0.066256,0.086603,-1.346989,-31.950157,0.003174,176.9916,0.39714283,-1.8817035,0.10392082,0.35718006,0.031493153,-0.2981955
20231225 03:39:37,1.427104,-1.331224,-1.496518,0.319383,0.034296,-0.048696,-1.691975,-32.446243,-0.101845,176.13895,0.052263916,-1.547512,0.30355132,0.21690662,0.003893608,-0.16875052
20231225 03:39:37,1.136299,-1.032164,-1.600404,0.246939,-0.002991,-0.160558,-1.655346,-32.449944,0.434647,176.03894,-0.27453953,-1.1305972,0.4657144,0.07416972,-0.018112727,-0.048037983
20231225 03:39:37,0.845154,-0.779965,-1.639719,0.159581,-0.048801,-0.246851,-1.671856,-31.506134,0.238899,175.83224,-0.5230882,-0.79243267,0.64199454,-0.054990508,-0.050847765,0.07072431
20231225 03:39:37,0.613523,-0.659656,-1.608457,0.057307,-0.096742,-0.310772,-1.452759,-32.148438,0.149033,176.45244,-0.65400946,-0.60237193,0.7625403,-0.1713078,-0.0873075,0.18836918
20231225 03:39:37,0.296536,-0.507286,-1.464761,-0.062012,-0.131898,-0.341667,-1.159760,-31.280495,0.363235,177.23355,-0.7455532,-0.3920151,0.8857128,-0.26898766,-0.113874584,0.29654118
20231225 03:39:37,-0.013530,-0.441946,-1.097132,-0.168546,-0.151075,-0.326752,-0.562393,-31.604820,-0.279510,178.57552,-0.68221027,-0.3491708,0.8497613,-0.32646447,-0.13911586,0.36053598
20231225 03:39:37,-0.225111,-0.587056,-0.598049,-0.233533,-0.157467,-0.289465,-0.359039,-31.687073,-0.004166,179.1915,-0.48890868,-0.55622053,0.6187538,-0.34633505,-0.1574093,0.37352133
20231225 03:39:37,-0.295274,-0.857210,-0.103420,-0.246317,-0.155336,-0.263897,-0.738083,-31.621269,-0.012238,178.40146,-0.23696688,-0.87465495,0.27066612,-0.33861792,-0.16158308,0.36003265
20231225 03:39:37,-0.361829,-1.116986,0.325269,-0.226075,-0.163859,-0.258570,-0.677128,-31.898102,-0.127533,178.54977,-0.063335374,-1.1701398,-0.0640405,-0.31546086,-0.1700061,0.34206232
20231225 03:39:37,-0.321706,-1.284853,0.548875,-0.184527,-0.192623,-0.279877,-0.668163,-31.803085,-0.133644,178.57735,0.079578355,-1.343032,-0.28143987,-0.28820717,-0.19320916,0.3388661
20231225 03:39:37,-0.265903,-1.268618,0.676227,-0.151501,-0.260806,-0.335275,-0.034550,-31.939224,-0.520370,179.78935,0.20428024,-1.3310109,-0.43530056,-0.2854491,-0.2531402,0.36597404
20231225 03:39:37,-0.255595,-1.024481,0.381047,-0.152566,-0.343903,-0.405588,-0.316017,-32.153938,-0.107239,179.29843,0.07408586,-1.0735618,-0.16616577,-0.3224083,-0.32704252,0.4259005
20231225 03:39:37,-0.487643,-0.686549,0.100210,-0.169612,-0.360948,-0.463117,0.212475,-30.970718,-1.117012,-179.9917,-0.25961778,-0.7579714,0.20819196,-0.3670737,-0.329459,0.47350478
20231225 03:39:37,-0.864558,-0.218792,-0.102049,-0.183461,-0.302354,-0.472705,0.434521,-31.246712,-0.292969,-179.16505,-0.713193,-0.3545111,0.60831773,-0.38487858,-0.26130614,0.48236132
20231225 03:39:37,-1.175741,0.088343,0.069115,-0.168546,-0.213930,-0.436483,0.926506,-31.961197,-0.509369,-178.23854,-0.9066746,-0.16211262,0.66186273,-0.35745132,-0.173581,0.4436705
20231225 03:39:37,-1.448457,0.112796,0.359261,-0.112083,-0.124441,-0.381085,0.750046,-31.593864,-0.803047,-178.85434,-0.98284817,-0.2743166,0.5681766,-0.28643692,-0.08219623,0.37157652
20231225 03:39:37,-1.682203,0.172665,0.641094,-0.035378,-0.087154,-0.312903,1.154179,-32.316582,-0.885818,-178.08655,-1.0399275,-0.3281668,0.46112788,-0.1888414,-0.04017224,0.2726668
20231225 03:39:37,-1.698138,0.204492,0.721444,0.040262,-0.112722,-0.247916,0.979908,-31.199188,-0.826523,-178.36142,-0.99742043,-0.31823564,0.42476845,-0.08865481,-0.056832083,0.17368989
20231225 03:39:37,-1.552902,0.261199,0.444797,0.104183,-0.152140,-0.190388,1.341022,-31.455025,-0.806229,-177.45457,-0.9994656,-0.16120824,0.621493,-0.0054985583,-0.0911701,0.07956832
20231225 03:39:37,-1.311411,0.413321,-0.045507,0.140405,-0.183035,-0.144578,0.996803,-32.334892,-0.350304,-177.94023,-1.0957655,0.14483507,0.8981581,0.04728374,-0.123910904,0.013558537
20231225 03:39:37,-1.034846,0.600960,-0.514137,0.142535,-0.211800,-0.109421,1.332443,-31.741936,-0.519646,-177.00385,-1.19171,0.49053225,1.1090446,0.06430922,-0.16329916,-0.0275627
20231225 03:39:37,-0.690168,0.575439,-1.031963,0.124424,-0.174512,-0.095572,1.207966,-31.746460,-0.922501,-177.35802,-1.2865438,0.6135708,1.2347353,0.046520583,-0.13911729,-0.026719376
20231225 03:39:37,-0.472513,0.591893,-1.152391,0.107379,-0.125506,-0.103029,1.475227,-31.739250,0.151451,-176.18027,-1.2170789,0.6719715,1.1700695,0.019284599,-0.09614076,-0.010536432
20231225 03:39:37,-0.366011,0.550220,-1.118025,0.076484,-0.096742,-0.123271,1.756310,-31.332642,-0.542145,-175.68556,-1.101368,0.6327298,1.0795001,-0.019253917,-0.070943736,0.028447319
20231225 03:39:37,-0.316713,0.405982,-0.860719,0.048785,-0.107395,-0.140316,1.306313,-32.410767,0.059639,-176.86089,-0.8531411,0.45642793,0.86228365,-0.046770293,-0.08536783,0.06540637
20231225 03:39:37,-0.294633,0.261794,-0.586722,0.029608,-0.153205,-0.147774,1.323479,-31.836960,-0.513535,-176.9877,-0.62991047,0.2833767,0.64487684,-0.059428632,-0.13393533,0.08521441
20231225 03:39:37,-0.178045,0.066523,-0.372102,0.027478,-0.214996,-0.146708,1.739147,-31.906448,0.031029,-175.95845,-0.37758276,0.0779791,0.40319213,-0.05515379,-0.19971946,0.08366454
20231225 03:39:37,0.040861,-0.176118,-0.321098,0.034935,-0.286374,-0.154166,1.838142,-31.053123,0.244247,-175.64368,-0.15875845,-0.15621236,0.2141198,-0.05379584,-0.2751263,0.08126524
20231225 03:39:37,0.295438,-0.411423,-0.432833,0.034935,-0.335380,-0.176538,1.862850,-31.518143,-0.127060,-175.6849,-0.02658984,-0.39192596,0.13116032,-0.073989436,-0.32988054,0.096655935
20231225 03:39:37,0.629190,-0.557187,-0.563892,0.020020,-0.367340,-0.231936,1.466648,-32.026154,0.438042,-176.68704,0.14247343,-0.55587924,0.024239987,-0.12823154,-0.367092,0.1522335
20231225 03:39:37,0.765175,-0.581139,-0.660132,-0.013006,-0.389713,-0.312903,1.835571,-31.611320,-0.389191,-175.68504,0.17899933,-0.5841269,-0.003104508,-0.2075442,-0.39026344,0.22802469
20231225 03:39:37,0.701497,-0.489298,-0.713029,-0.054554,-0.392909,-0.413045,1.995136,-30.842934,-0.571732,-175.12317,0.08589339,-0.47099754,0.062441587,-0.30234402,-0.3887557,0.32494944
20231225 03:39:37,0.371714,-0.171534,-0.694151,-0.095037,-0.372667,-0.511057,2.257637,-32.143982,-0.484200,-174.67914,-0.16784894,-0.100646555,0.2602355,-0.38450235,-0.34562138,0.41847062
20231225 03:39:37,-0.250916,0.282909,-0.512500,-0.129129,-0.344968,-0.579240,3.017525,-31.333618,-0.395561,-172.71684,-0.558527,0.30692407,0.57221377,-0.43470067,-0.28540078,0.48070943
20231225 03:39:37,-0.993465,0.734421,-0.216070,-0.158958,-0.331118,-0.600547,3.000366,-31.907433,0.177605,-172.84851,-1.0118877,0.5462293,0.8889279,-0.44401237,-0.24339263,0.52000433
20231225 03:39:37,-1.721028,1.017172,0.080483,-0.176004,-0.324726,-0.572848,3.696350,-31.186546,-0.532379,-171.66081,-1.47909,0.5023944,1.1720642,-0.41401213,-0.22559421,0.5090444
20231225 03:39:37,-2.267090,1.209056,0.461730,-0.161089,-0.316204,-0.496143,3.448555,-31.771271,-0.496674,-172.63911,-1.7586858,0.37510407,1.2076607,-0.34404394,-0.2240304,0.4509338
20231225 03:39:37,-2.613141,1.318963,0.810142,-0.098233,-0.305550,-0.389608,3.775227,-31.273331,-0.659897,-172.01717,-1.8834491,0.2636891,1.1464648,-0.2302756,-0.22054508,0.32965708
20231225 03:39:37,-2.686626,1.364760,0.920779,0.006171,-0.275720,-0.276681,3.739368,-31.653412,-0.635445,-172.20572,-1.8938415,0.24866374,1.1038458,-0.08951354,-0.18800625,0.18139851
20231225 03:39:37,-2.632408,1.343928,0.877839,0.122294,-0.232041,-0.172277,4.100479,-31.909248,-0.615150,-171.30046,-1.838907,0.2943431,1.1459341,0.047654778,-0.14084044,0.027690098
20231225 03:39:37,-2.425641,1.339866,0.619968,0.228828,-0.183035,-0.089180,3.672024,-30.913414,0.119400,-171.3156,-1.7808344,0.44338155,1.2637057,0.16260622,-0.087520815,-0.102649115
20231225 03:39:37,-2.184088,1.322567,0.242738,0.317252,-0.115918,-0.030585,3.890732,-31.363815,-0.250931,-170.88605,-1.7766681,0.61565024,1.4439565,0.2431149,-0.019147305,-0.20421919
20231225 03:39:37,-1.971976,1.379910,-0.132724,0.387565,-0.031756,0.012028,3.812626,-31.660812,0.437538,-170.44551,-1.8380461,0.83329946,1.6285654,0.29433018,0.064159304,-0.2815051
20231225 03:39:37,-1.895018,1.427176,-0.378142,0.424853,0.048145,0.055708,3.636551,-31.485382,0.424332,-170.66718,-1.9412162,0.9656331,1.7677011,0.32545614,0.13582413,-0.333829
20231225 03:39:37,-1.772492,1.373883,-0.548828,0.433375,0.109936,0.110040,4.191669,-31.726608,0.445602,-169.27148,-1.9435638,1.0043273,1.8187563,0.35224637,0.17996894,-0.36958206
20231225 03:39:37,-1.683096,1.446709,-0.359516,0.432310,0.123785,0.170765,3.972572,-31.084305,0.535461,-169.48875,-1.7475864,1.0823919,1.6341188,0.39048734,0.17443927,-0.4104441
20231225 03:39:37,-1.495503,1.660419,-0.273713,0.405676,0.065191,0.240013,3.471626,-30.464851,0.757988,-170.24382,-1.5622504,1.3533485,1.4688282,0.43121558,0.09173341,-0.4503389
20231225 03:39:37,-1.184545,1.878650,-0.408667,0.315122,-0.048801,0.304999,3.816998,-30.160652,1.143478,-168.68768,-1.4243861,1.7059896,1.3987831,0.438891,-0.05313918,-0.4402981
20231225 03:39:37,-0.727236,2.018007,-0.660890,0.154254,-0.179839,0.351875,3.401711,-30.283043,0.879395,-169.70345,-1.2405597,1.9958998,1.2017055,0.3908285,-0.20814762,-0.3581782
20231225 03:39:37,-0.173001,2.074175,-0.869350,-0.050293,-0.268263,0.367855,3.313869,-30.291275,1.013031,-170.01007,-0.93491465,2.1177144,0.8866124,0.2762181,-0.2960203,-0.21274392
20231225 03:39:37,0.364980,2.028584,-0.755929,-0.253774,-0.254413,0.359332,3.083618,-30.494072,0.756035,-171.28023,-0.36710417,2.0408473,0.3999486,0.1144588,-0.2611215,-0.05939555
20231225 03:39:37,0.713711,1.768537,-0.150428,-0.429557,-0.179839,0.331633,2.492256,-30.441025,0.478745,-173.52837,0.4202867,1.7575121,-0.25807148,-0.071485594,-0.17034103,0.056435496
20231225 03:39:37,0.751131,1.263819,0.881145,-0.555268,-0.123376,0.293280,2.339470,-31.864471,0.302200,-174.64998,1.1428602,1.2636279,-1.0629176,-0.24742302,-0.119799905,0.11355896
20231225 03:39:37,0.536619,0.589671,1.863287,-0.603208,-0.076500,0.262385,2.190292,-31.403984,0.270660,-175.27565,1.4537455,0.5812575,-1.8114965,-0.36505634,-0.08624485,0.10075687
20231225 03:39:37,0.320394,-0.259513,2.882312,-0.571248,-0.051997,0.244274,2.163013,-31.497147,0.008530,-175.59962,1.5866232,-0.28889787,-2.7281044,-0.39946282,-0.070053905,0.036153227
20231225 03:39:37,0.143407,-1.043387,3.613353,-0.447668,-0.024298,0.231490,2.481106,-31.286133,0.131882,-175.09323,1.5241688,-1.087064,-3.4651055,-0.3252435,-0.0421542,-0.044361413
20231225 03:39:37,0.130199,-1.716536,4.076836,-0.245251,-0.005122,0.204856,2.083366,-31.026588,-0.424896,-175.94403,1.4602715,-1.7506994,-4.004125,-0.16558808,-0.01380894,-0.11415798
20231225 03:39:37,0.177495,-2.258543,4.198818,0.014693,-0.012579,0.146262,2.127151,-31.877228,0.032982,-176.00548,1.4191784,-2.2833087,-4.2061844,0.05710689,-0.013266767,-0.14461924
20231225 03:39:37,0.282719,-2.592440,3.880289,0.300207,-0.036017,0.065296,2.074402,-31.121613,-0.418785,-176.00172,1.4394116,-2.6071765,-3.9517214,0.30620393,-0.03145917,-0.15405178
20231225 03:39:37,0.340564,-2.564127,2.931676,0.548433,-0.050932,-0.009279,2.022411,-30.749756,-0.309608,-175.97896,1.341471,-2.569456,-3.030157,0.5114317,-0.046906628,-0.18456452
20231225 03:39:37,0.478284,-2.330752,1.746243,0.712496,-0.045605,-0.055088,1.863621,-31.901924,0.433884,-176.35669,1.1522417,-2.329118,-1.9193528,0.6258286,-0.04934765,-0.24723482
20231225 03:39:37,0.597109,-2.043446,0.634718,0.767895,-0.036017,-0.072134,2.235500,-31.120773,0.520561,-175.37961,0.8096274,-2.0473506,-0.98645526,0.6373547,-0.050086126,-0.31023213
20231225 03:39:37,0.705000,-1.830379,-0.204015,0.724215,-0.045605,-0.067873,2.023952,-31.517311,0.812286,-175.76723,0.44121537,-1.8561176,-0.32719013,0.56908315,-0.070429154,-0.3410551
20231225 03:39:37,0.803406,-1.574542,-0.800556,0.608092,-0.091415,-0.042304,2.299404,-31.031303,1.319183,-175.05058,0.10734466,-1.6352264,0.045000374,0.4571409,-0.12001337,-0.338586
20231225 03:39:37,0.953248,-1.268767,-1.334546,0.429114,-0.144683,0.004571,2.715076,-31.100807,1.863739,-174.1907,-0.24660492,-1.4212918,0.26913786,0.31536955,-0.17566097,-0.29818532
20231225 03:39:37,1.196303,-1.020906,-1.678800,0.191541,-0.183035,0.057838,2.627228,-31.109039,1.997368,-174.6234,-0.36767733,-1.3185866,0.33249485,0.15970126,-0.19624321,-0.1854735
20231225 03:39:38,1.492712,-0.942046,-1.772596,-0.068404,-0.214996,0.090864,2.636963,-31.397797,2.552208,-175.2771,-0.22322214,-1.3872676,0.21615005,-0.018907066,-0.1879464,-0.03246347
20231225 03:39:38,1.660321,-0.918267,-1.636508,-0.320891,-0.212865,0.098322,2.466900,-31.493637,1.618965,-175.28862,0.057763934,-1.3965812,0.06858623,-0.20739165,-0.14226931,0.12562793
20231225 03:39:38,1.742308,-0.924059,-1.092983,-0.535026,-0.177708,0.084472,2.229492,-30.849503,1.440590,-175.7137,0.6234725,-1.293026,-0.2501824,-0.39442933,-0.08492859,0.24820127
20231225 03:39:38,1.598515,-1.012980,-0.132627,-0.664999,-0.148944,0.045054,2.201828,-30.750778,0.897987,-175.53308,1.1924347,-1.1925881,-0.82940453,-0.543261,-0.06984092,0.31629592
20231225 03:39:38,1.222878,-1.069411,0.807121,-0.700155,-0.130833,0.001375,2.359970,-31.116249,0.923416,-175.24515,1.4212617,-1.1154327,-1.3864722,-0.6096432,-0.084854744,0.34118387
20231225 03:39:38,0.789970,-1.069458,1.684519,-0.638365,-0.119114,-0.033782,2.244080,-30.833870,0.233978,-175.32536,1.4758527,-1.0672278,-1.9303839,-0.5810515,-0.10717304,0.32015258
20231225 03:39:38,0.358588,-1.018063,2.287956,-0.495608,-0.104199,-0.056154,2.569336,-31.469780,0.278725,-174.77826,1.3636166,-1.0330383,-2.2771459,-0.46646163,-0.1130461,0.26544535
20231225 03:39:38,-0.076729,-0.839877,2.612924,-0.302780,-0.094611,-0.066807,2.201061,-30.367004,0.337044,-175.3131,1.1562443,-0.9174112,-2.3375704,-0.2967799,-0.109258056,0.19160572
20231225 03:39:38,-0.541126,-0.617478,2.507071,-0.097168,-0.069043,-0.040174,2.349857,-30.635605,0.088112,-174.99693,0.7536098,-0.79326785,-1.9783943,-0.100873135,-0.07569508,0.07647134
20231225 03:39:38,-0.889037,-0.471126,2.206016,0.094595,-0.004057,0.022682,2.429119,-30.914276,0.241066,-174.78313,0.35649407,-0.7239679,-1.4939332,0.093416005,0.00566748,-0.06722315
20231225 03:39:38,-1.036385,-0.409000,1.785784,0.257593,0.068387,0.100452,2.340508,-30.538727,-0.186241,-174.93042,0.06868756,-0.67462367,-1.0078388,0.26627836,0.09253011,-0.2145809
20231225 03:39:38,-1.060849,-0.366436,1.321371,0.392892,0.134439,0.181419,2.041496,-31.135384,0.519585,-175.44452,-0.15739638,-0.60521406,-0.56006604,0.4165315,0.168085,-0.35541704
20231225 03:39:38,-0.951686,-0.498785,0.842160,0.493035,0.180249,0.260255,2.229107,-30.657608,1.160118,-174.75717,-0.28387937,-0.6799995,-0.20283866,0.53785676,0.21738611,-0.47648573
20231225 03:39:38,-0.799000,-0.728938,0.288912,0.565478,0.207948,0.325241,1.744286,-30.790077,1.297913,-175.79907,-0.43684605,-0.83032954,0.17687233,0.6326558,0.2426067,-0.577018
20231225 03:39:38,-0.538613,-0.968250,-0.304012,0.610223,0.247366,0.376377,1.532738,-31.186615,1.589630,-176.26108,-0.5515854,-0.98949987,0.51365584,0.6974876,0.2742175,-0.6520795
20231225 03:39:38,-0.271109,-1.104460,-0.801754,0.619811,0.308090,0.409403,1.692688,-30.610107,1.687569,-175.85144,-0.6586634,-1.0807059,0.7326819,0.72546005,0.32422122,-0.6873045
20231225 03:39:38,0.061813,-1.144560,-1.173717,0.587851,0.323005,0.428580,1.860180,-31.072449,1.987350,-175.6848,-0.6912702,-1.1302687,0.7930541,0.7222522,0.32607862,-0.6860595
20231225 03:39:38,0.335820,-1.216918,-1.444377,0.513276,0.304894,0.429645,1.165615,-30.659492,2.489372,-177.45326,-0.72867465,-1.2504438,0.81696755,0.67467475,0.30198014,-0.6514944
20231225 03:39:38,0.607214,-1.230146,-1.781638,0.408872,0.285718,0.431776,1.059845,-30.857758,2.635239,-177.9911,-0.8235948,-1.3510034,0.8629049,0.60709506,0.28439456,-0.5870621
20231225 03:39:38,0.876308,-1.134575,-2.048580,0.281031,0.279326,0.430710,0.856491,-30.775497,2.359894,-178.76,-0.9469849,-1.4234134,0.79505825,0.52971435,0.2922946,-0.4981169
20231225 03:39:38,1.233474,-1.141493,-2.244468,0.135078,0.330463,0.429645,0.407913,-30.719772,2.753708,179.61777,-0.8224178,-1.6153371,0.7422513,0.4381571,0.36511943,-0.40273264
20231225 03:39:38,1.481782,-1.099485,-1.882303,0.005105,0.368815,0.400880,0.311489,-31.014923,3.173927,179.09026,-0.30741054,-1.5945747,0.40359306,0.3223504,0.4185965,-0.3037675
20231225 03:39:38,1.633262,-1.060409,-1.426100,-0.091841,0.367750,0.350809,0.239002,-31.391296,2.661896,179.22707,0.18561494,-1.5060816,0.03194952,0.20487943,0.42368388,-0.21051002
20231225 03:39:38,1.639165,-1.057875,-0.962255,-0.149370,0.346443,0.284758,0.275242,-31.203102,2.917915,179.3803,0.5583182,-1.3949821,-0.26979947,0.10020761,0.39605385,-0.13099954
20231225 03:39:38,1.482515,-0.879487,-0.548191,-0.169612,0.307025,0.219771,0.141808,-31.302658,2.521172,179.47704,0.7347926,-1.094045,-0.49389184,0.032443516,0.3439594,-0.06746146
20231225 03:39:38,1.219486,-0.592960,-0.303393,-0.161089,0.259084,0.173961,0.116718,-30.645752,2.612015,179.62306,0.71135014,-0.7124394,-0.5352907,0.0028036088,0.28299385,-0.033762157
20231225 03:39:38,0.941868,-0.293633,-0.156473,-0.134455,0.209013,0.152654,0.098404,-30.643898,2.343765,179.86575,0.5970316,-0.34721166,-0.49773633,0.0071708933,0.22197087,-0.02775871
20231225 03:39:38,0.688807,0.065077,-0.304654,-0.105691,0.184510,0.154785,-0.455948,-30.786438,2.883438,178.65251,0.2967824,0.035624057,-0.24938883,0.03371402,0.19191475,-0.043935932
20231225 03:39:38,0.499389,0.451934,-0.362200,-0.086515,0.178118,0.172896,-0.289604,-30.673119,2.341812,179.16681,0.10285789,0.4389747,-0.10263792,0.06400682,0.18195266,-0.06260629
20231225 03:39:38,0.473175,0.748341,-0.476286,-0.099299,0.158942,0.203791,-0.298569,-30.768135,2.347923,179.07011,0.0036869943,0.72627693,-0.017951995,0.08121646,0.16581869,-0.07192373
20231225 03:39:38,0.551734,0.770375,-0.495555,-0.129129,0.154680,0.221902,-0.404346,-30.966408,2.493790,178.73808,0.054666698,0.7367059,-0.061594695,0.0737035,0.16560417,-0.06459664
20231225 03:39:38,0.723931,0.895078,-0.335299,-0.163220,0.112066,0.226163,-0.747528,-30.520531,2.461266,177.71956,0.3169051,0.83904034,-0.30428964,0.05138635,0.13158491,-0.045949467
20231225 03:39:38,0.901760,0.842912,-0.268700,-0.202638,0.060930,0.218706,-0.871616,-30.716942,2.338882,177.37076,0.50532806,0.7660359,-0.47091222,0.01296705,0.08708826,-0.014772683
20231225 03:39:38,0.973163,0.755581,-0.223997,-0.246317,0.017250,0.202726,-0.307919,-30.671272,2.073570,178.73154,0.6022086,0.6626512,-0.5242095,-0.036909133,0.050127633,0.024003074
20231225 03:39:38,1.085774,0.569160,-0.153627,-0.291061,-0.000861,0.170765,-1.117607,-30.359711,2.447090,176.67584,0.7449571,0.4600055,-0.6416199,-0.10122985,0.037502393,0.06979941
20231225 03:39:38,1.123206,0.403176,-0.038177,-0.312368,0.012989,0.117498,-1.057041,-30.444649,2.051323,176.97427,0.8498219,0.30413735,-0.72688997,-0.15726139,0.04756575,0.11685117
20231225 03:39:38,1.015262,0.365499,0.171888,-0.302780,0.048145,0.045054,-0.890316,-30.523209,1.790169,177.58002,0.90254176,0.31220347,-0.8010144,-0.1988403,0.06847853,0.160597
20231225 03:39:38,0.659243,0.391414,0.313326,-0.265493,0.097151,-0.018867,-1.127724,-29.879059,1.611786,177.23096,0.71123004,0.38570485,-0.6776715,-0.21451338,0.100684255,0.18129057
20231225 03:39:38,0.177830,0.443356,0.495167,-0.206899,0.136569,-0.057219,-0.793888,-30.228073,1.369949,178.2403,0.44235837,0.4362588,-0.5047586,-0.19895342,0.13184969,0.17301035
20231225 03:39:38,-0.242343,0.600759,0.525022,-0.129129,0.161072,-0.070003,-1.288055,-30.263672,1.233383,177.19455,0.11942309,0.55111325,-0.26456445,-0.15290901,0.1556578,0.13094471
20231225 03:39:38,-0.578366,0.751382,0.390507,-0.046031,0.171726,-0.063611,-0.881733,-30.236298,1.503578,178.32613,-0.23357397,0.6599466,0.07973108,-0.090641685,0.17142582,0.07433163
20231225 03:39:38,-0.734384,0.916643,0.025017,0.026412,0.184510,-0.043370,-0.890697,-30.331314,1.509689,178.36145,-0.60541236,0.825134,0.47412497,-0.03000429,0.18977551,0.0089757275
20231225 03:39:38,-0.773647,1.038268,-0.400011,0.065830,0.195163,-0.015671,-0.811050,-30.801888,1.943115,178.73053,-0.9351932,0.98833346,0.8182589,0.013312711,0.20155388,-0.03945854
20231225 03:39:38,-0.649120,1.047288,-0.838760,0.072222,0.209013,0.013094,-0.899666,-30.426338,1.515800,178.19048,-1.156493,1.0623674,1.0222216,0.037274286,0.21237025,-0.06663445
20231225 03:39:38,-0.444349,0.931972,-1.156890,0.057307,0.232451,0.038662,-1.057423,-30.252762,1.770851,177.6813,-1.2254789,0.9848975,1.0758806,0.049194932,0.23218904,-0.07474123
20231225 03:39:38,-0.158352,0.767980,-1.369979,0.033870,0.256954,0.043989,-0.651485,-30.033501,1.760574,178.59665,-1.1704059,0.8334628,1.0136316,0.041186724,0.25549152,-0.05867584
20231225 03:39:38,-0.017228,0.656236,-1.426042,0.015759,0.271869,0.039727,-0.784157,-30.516830,1.924774,178.25153,-1.103704,0.7194269,0.94826657,0.027667107,0.2701867,-0.04371266
20231225 03:39:38,0.046080,0.526862,-1.492404,-0.001287,0.281457,0.042924,-0.793121,-30.611855,1.930885,178.1552,-1.1016214,0.5795228,0.9455942,0.021413311,0.27962303,-0.033571083
20231225 03:39:38,0.224524,0.408770,-1.528515,-0.020463,0.284653,0.053577,-0.854839,-29.951241,1.485237,177.7895,-0.9840385,0.43665966,0.85309523,0.021176219,0.28341815,-0.028373808
20231225 03:39:38,0.401519,0.442973,-1.458289,-0.046031,0.245235,0.061034,-0.978928,-30.147667,1.362862,177.3288,-0.80829704,0.43088228,0.66647744,0.015957406,0.24590574,-0.014485594
20231225 03:39:38,0.605958,0.404978,-1.521460,-0.072665,0.211144,0.059969,-0.818211,-29.954941,2.021729,177.58902,-0.7132818,0.33824065,0.55321044,0.0028231628,0.21496935,0.008111678
20231225 03:39:38,0.807845,0.426621,-1.569623,-0.102495,0.191967,0.046120,-0.924751,-29.769432,1.606651,177.18187,-0.611062,0.31033427,0.4250691,-0.024109744,0.19845088,0.039650742
20231225 03:39:38,0.985229,0.441157,-1.536067,-0.141913,0.187706,0.018421,-0.739334,-30.041733,1.894203,177.56902,-0.43652058,0.26858017,0.29205054,-0.068817385,0.19721062,0.08718713
20231225 03:39:38,1.164174,0.442066,-1.363934,-0.177069,0.193033,-0.032716,-0.897476,-29.676270,1.868774,177.07689,-0.14492601,0.23196852,0.076998174,-0.12921697,0.20308374,0.14419621
20231225 03:39:38,1.277060,0.493518,-1.117762,-0.199441,0.195163,-0.103029,-0.906822,-29.579391,1.594421,177.1832,0.14789349,0.30494136,-0.138632,-0.19791304,0.2013509,0.2073603
20231225 03:39:38,1.131171,0.553611,-0.729655,-0.205834,0.178118,-0.177603,-0.721783,-29.659805,1.601509,177.87474,0.33217674,0.4614034,-0.27842128,-0.2625808,0.17936116,0.26595506
20231225 03:39:38,0.882617,0.659417,-0.443130,-0.199441,0.145092,-0.229806,-0.873154,-29.949394,1.216995,177.69424,0.34819192,0.63208,-0.30575284,-0.2999363,0.14464429,0.2996109
20231225 03:39:38,0.616059,0.812121,-0.228284,-0.169612,0.124850,-0.268158,-0.519199,-29.358284,1.315903,178.71336,0.27267498,0.8233896,-0.27808344,-0.31005412,0.12606017,0.30852744
20231225 03:39:38,0.219506,1.189129,-0.145718,-0.121671,0.135504,-0.275616,-0.404461,-29.064995,1.163925,179.15053,-0.010961011,1.2050657,-0.06521155,-0.2877874,0.14329088,0.2792374
20231225 03:39:38,-0.155590,1.528018,-0.155782,-0.063077,0.173856,-0.258570,-0.394730,-29.353752,1.718765,179.55229,-0.36212194,1.5157493,0.2118552,-0.24498603,0.1909214,0.2235349
20231225 03:39:38,-0.513336,1.868833,-0.126053,-0.004483,0.227124,-0.222348,0.071777,-29.219437,1.312721,-179.15685,-0.6857505,1.7925241,0.4808946,-0.19337904,0.25214836,0.15666893
20231225 03:39:38,-0.887736,2.257133,-0.130946,0.031739,0.269738,-0.174407,-0.580536,-28.889565,1.150726,179.12453,-1.0648443,2.0886588,0.73134905,-0.15277652,0.29714942,0.08830713
20231225 03:39:38,-1.127020,2.720898,-0.136076,0.032804,0.314482,-0.108356,-0.077404,-28.758949,1.281181,-179.27074,-1.3551042,2.4736855,0.9690237,-0.11921768,0.330512,0.047812305
20231225 03:39:38,-1.314919,3.227185,0.001595,-0.046031,0.271869,-0.035912,-0.025036,-29.322685,1.452461,-178.94868,-1.4999884,2.8865633,1.0495806,-0.11183742,0.2615803,0.061535664
20231225 03:39:38,-1.308380,3.142032,-0.023374,-0.218618,0.174922,0.042924,0.177547,-29.021172,1.166855,-178.6577,-1.4686173,2.8316965,1.052763,-0.14478801,0.1253629,0.13990209
20231225 03:39:38,-1.005160,2.563529,0.104867,-0.396531,0.140831,0.124955,-0.043350,-29.320839,1.184219,-179.51399,-0.96638346,2.374273,0.669689,-0.20406196,0.07022407,0.20137814
20231225 03:39:38,-0.399911,2.032179,0.604985,-0.524373,0.180249,0.166504,-0.041542,-28.378868,1.256729,-179.7443,-0.043716848,1.9420596,-0.1733827,-0.29105362,0.12381341,0.22908127
20231225 03:39:38,0.021639,1.424795,1.331501,-0.598947,0.214340,0.136674,0.204063,-28.544220,0.868050,-179.32501,0.7519066,1.3563231,-1.0586889,-0.4042865,0.16846107,0.25637376
20231225 03:39:38,-0.079146,0.704599,2.007552,-0.634104,0.219666,0.086603,-0.041927,-28.186981,0.976250,-179.86227,0.961729,0.58385235,-1.653034,-0.50195277,0.15873082,0.26615292
20231225 03:39:38,-0.349850,0.187124,2.682969,-0.639430,0.153615,0.063165,-0.351822,-27.919205,0.285835,179.26022,0.98804706,-9.18597E-4,-2.1707635,-0.5356742,0.08462238,0.2559974
20231225 03:39:38,-0.421788,-0.044624,3.160635,-0.614927,0.044949,0.078080,-0.063198,-28.551430,-0.205910,179.80975,1.0549114,-0.2317504,-2.6236498,-0.51459295,-0.015602675,0.20974633
20231225 03:39:38,-0.233127,-0.347743,3.325470,-0.555268,-0.062651,0.102583,-0.291256,-28.004158,-0.109932,179.32376,1.2125003,-0.46761096,-2.905563,-0.45683664,-0.10302553,0.14435375
20231225 03:39:38,0.201832,-0.968710,3.323668,-0.451929,-0.119114,0.106844,-0.222107,-27.802193,-0.792282,179.42986,1.4718331,-1.0100135,-3.1388307,-0.37490135,-0.13677427,0.07534215
20231225 03:39:38,0.485528,-1.431742,3.173212,-0.311303,-0.070108,0.082341,-0.352978,-27.343544,-0.555580,179.17047,1.5879402,-1.4489357,-3.1205022,-0.26151574,-0.07859077,0.0338633
20231225 03:39:38,0.427944,-1.744414,3.338013,-0.158958,-0.021102,0.056773,-0.416496,-27.624901,-1.073730,178.99358,1.496186,-1.766562,-3.2691097,-0.1320784,-0.02696258,-0.002353564
20231225 03:39:38,0.319601,-2.247530,3.344239,0.015759,-0.013645,0.042924,-0.301376,-27.523506,-0.945229,179.24937,1.2851293,-2.273485,-3.268391,0.027481087,-0.013506089,-0.0454586
20231225 03:39:38,0.336812,-2.625224,3.176992,0.222436,-0.031756,0.025878,-0.344013,-27.248528,-0.561699,179.2021,1.2082433,-2.6421926,-3.1140766,0.22143094,-0.024567164,-0.0846912
20231225 03:39:38,0.460682,-2.760030,2.668199,0.423787,-0.077566,-0.007148,-0.431473,-27.448647,-0.147591,179.05173,1.2216802,-2.7666543,-2.6444743,0.4045873,-0.0681983,-0.113003016
20231225 03:39:38,0.560984,-2.680434,1.822949,0.600635,-0.120180,-0.040174,0.071659,-27.318031,-0.017136,-179.84145,1.1515205,-2.681406,-1.9128174,0.55412185,-0.10851479,-0.16160893
20231225 03:39:38,0.614334,-2.477320,0.836254,0.712496,-0.159597,-0.079591,0.177433,-27.119759,-0.163002,-179.59247,0.91323775,-2.4747543,-1.0302281,0.6186958,-0.15207233,-0.21915755
20231225 03:39:38,0.683840,-1.984889,-0.269269,0.730607,-0.179839,-0.115813,-0.261406,-27.352791,0.785645,179.38864,0.45726195,-1.978747,-0.10168105,0.5683947,-0.1740838,-0.2739111
20231225 03:39:38,0.680451,-1.571269,-1.190526,0.642183,-0.172382,-0.155231,-0.083530,-26.586258,0.871346,179.81766,-0.14411479,-1.5512496,0.55833447,0.4263444,-0.16273545,-0.25576618
20231225 03:39:38,0.541414,-1.199442,-1.743085,0.463205,-0.165990,-0.205303,0.365429,-26.833870,0.758011,-178.8946,-0.7076266,-1.1297404,0.93465775,0.21747288,-0.14454657,-0.15388225
20231225 03:39:38,0.388351,-0.767220,-2.057115,0.225632,-0.108461,-0.246851,0.304863,-26.748932,1.153778,-178.87033,-1.0915673,-0.62746453,1.2091682,-5.325377E-4,-0.08118364,0.021288216
20231225 03:39:38,0.060559,-0.374569,-1.691202,-0.015136,-0.059455,-0.256439,0.137753,-26.478477,1.134460,-179.17822,-1.0441625,-0.20898327,1.2096175,-0.17611998,-0.036799796,0.19969939
20231225 03:39:38,-0.366017,-0.168087,-0.888251,-0.215422,-0.043475,-0.227675,0.613602,-26.441032,1.002777,-177.90402,-0.81108445,-0.11949728,0.9186387,-0.3032865,-0.047689892,0.3108202
20231225 03:39:38,-0.762253,-0.151573,0.092968,-0.337937,-0.059455,-0.164819,0.649849,-26.252846,1.258789,-177.71959,-0.5582868,-0.2825443,0.35197422,-0.3632185,-0.09459656,0.3256625
20231225 03:39:38,-0.998043,-0.192373,0.917466,-0.375224,-0.072239,-0.074265,0.516411,-26.352386,0.862053,-178.28966,-0.35123953,-0.45685372,-0.25531232,-0.34922308,-0.12700483,0.2596227
20231225 03:39:38,-1.115539,-0.284753,1.516398,-0.345394,-0.070108,0.035466,0.259270,-26.840248,0.623398,-179.09334,-0.19352645,-0.60493463,-0.7581913,-0.2749678,-0.1285943,0.14121236
20231225 03:39:38,-0.992387,-0.361663,1.951492,-0.276147,-0.058389,0.128151,0.470818,-26.443710,0.331680,-178.72467,0.0890733,-0.6496005,-1.236382,-0.17620227,-0.106697075,0.020004116
20231225 03:39:38,-0.761244,-0.416240,2.208532,-0.182396,-0.037082,0.183549,0.622189,-26.154121,0.716194,-178.25436,0.384345,-0.6411593,-1.6008537,-0.07301827,-0.06980133,-0.07705772
20231225 03:39:38,-0.522115,-0.519124,2.353653,-0.071600,-0.014710,0.199530,0.234180,-26.183342,0.714241,-179.24403,0.6356411,-0.6853336,-1.857609,0.028121449,-0.03164158,-0.14459087
20231225 03:39:38,-0.329841,-0.659377,2.338057,0.050915,0.017250,0.177157,0.154915,-25.904663,0.561287,-179.49388,0.78857297,-0.7817613,-1.939857,0.12460017,0.013948543,-0.1808542
20231225 03:39:38,-0.241094,-0.789948,2.270545,0.192607,0.058799,0.128151,0.385162,-25.701859,0.818283,-178.86618,0.8313937,-0.9042139,-1.9351909,0.2268336,0.069496796,-0.19982646
20231225 03:39:38,-0.258613,-0.928742,2.128382,0.344951,0.088629,0.063165,0.033783,-25.734779,1.352821,-179.57587,0.76248103,-1.047419,-1.7919575,0.33229962,0.117338724,-0.21068668
20231225 03:39:38,-0.351614,-0.987926,1.783210,0.506884,0.096086,-0.009279,0.209473,-25.718323,1.085556,-179.17567,0.5674711,-1.1142118,-1.4265523,0.43902507,0.14818676,-0.22668344
20231225 03:39:38,-0.406018,-1.049576,1.279171,0.674144,0.105674,-0.083853,0.254681,-25.435112,1.335457,-178.92819,0.3382775,-1.168451,-0.93033504,0.53905904,0.186395,-0.25724858
20231225 03:39:38,-0.426417,-1.017736,0.676509,0.812639,0.105674,-0.155231,0.246098,-25.722023,1.622040,-178.77902,0.0684101,-1.1130112,-0.36954954,0.60227996,0.21910249,-0.29336014
20231225 03:39:38,-0.557587,-1.035476,-0.021766,0.910651,0.104609,-0.211695,0.564575,-25.702881,2.025871,-177.59625,-0.36040887,-1.1002754,0.30018583,0.6183181,0.26432574,-0.3420084
20231225 03:39:38,-0.565650,-0.963284,-0.791272,0.962853,0.109936,-0.241524,0.540253,-25.429749,2.677658,-177.12245,-0.8018646,-0.9323352,0.9327329,0.5914543,0.29294765,-0.40729386
20231225 03:39:39,-0.535918,-0.914846,-1.469771,0.954330,0.099282,-0.266027,0.531288,-25.524765,2.683769,-176.88605,-1.2209623,-0.75910634,1.410562,0.5181489,0.29559317,-0.43996912
20231225 03:39:39,-0.498776,-0.870827,-2.001831,0.876560,0.061995,-0.276681,0.640400,-25.152092,3.732300,-175.63593,-1.5657883,-0.5809655,1.7224033,0.42362732,0.2636655,-0.41720748
20231225 03:39:39,-0.479053,-0.845775,-2.456900,0.746588,0.000205,-0.258570,1.125984,-25.403404,4.155441,-173.65234,-1.9425988,-0.41756326,1.8990259,0.29968536,0.17714539,-0.39632457
20231225 03:39:39,-0.307811,-0.761940,-2.910550,0.554825,-0.049867,-0.197845,1.716961,-25.264557,4.152260,-171.94664,-2.2813835,-0.26480234,1.9580326,0.2006237,0.06489298,-0.319193
20231225 03:39:39,0.051683,-0.876457,-3.031796,0.328971,-0.101003,-0.148839,1.056072,-25.221588,4.276855,-174.82039,-2.2486444,-0.5036509,1.7423664,0.09446256,-0.052616045,-0.177165
20231225 03:39:39,0.497397,-0.990910,-3.215556,0.092464,-0.124441,-0.131794,1.152882,-25.118347,4.137100,-175.86305,-2.1964452,-0.8557612,1.5286087,-0.04273229,-0.11672801,0.0019894242
20231225 03:39:39,0.904357,-1.145240,-2.957684,-0.128063,-0.140421,-0.158427,1.373779,-24.818680,4.119743,-176.45238,-1.6780705,-1.2609185,1.2019969,-0.20787528,-0.14178501,0.19462901
20231225 03:39:39,1.117669,-1.233217,-2.523000,-0.305976,-0.171316,-0.230871,1.355850,-25.008713,4.131966,-176.78578,-1.060708,-1.3586873,0.9165488,-0.38486576,-0.1686884,0.37314665
20231225 03:39:39,1.058059,-1.188552,-1.952136,-0.434883,-0.214996,-0.322491,1.689304,-25.165833,3.609657,-175.52943,-0.56894636,-1.2209256,0.63490736,-0.5402563,-0.2134506,0.5194222
20231225 03:39:39,0.862320,-1.034002,-1.412079,-0.522242,-0.265067,-0.408784,1.646664,-24.890862,3.993202,-175.19489,-0.25985867,-0.97642565,0.42206198,-0.65563893,-0.26929516,0.63410234
20231225 03:39:39,0.455082,-0.672350,-0.967157,-0.580836,-0.336445,-0.464182,1.812237,-24.393753,2.890633,-174.15752,-0.24340737,-0.5791888,0.37984025,-0.7214028,-0.3476664,0.70304537
20231225 03:39:39,0.065690,-0.421923,-0.617720,-0.608535,-0.376928,-0.482293,1.997658,-24.666046,3.178192,-173.32532,-0.30398917,-0.3543353,0.39049459,-0.7387758,-0.39532417,0.72441906
20231225 03:39:39,-0.250809,-0.225337,-0.325422,-0.610666,-0.377994,-0.465248,2.394249,-24.349922,2.893562,-172.0713,-0.37293655,-0.22036247,0.38417977,-0.72296834,-0.40308815,0.70214665
20231225 03:39:39,-0.450396,-0.055955,0.060168,-0.575509,-0.340707,-0.427960,2.154266,-24.263969,2.081734,-172.96564,-0.31310365,-0.12476904,0.2239281,-0.67570436,-0.3693201,0.6556381
20231225 03:39:39,-0.541409,0.032970,0.575036,-0.502000,-0.298093,-0.386412,2.024174,-24.189102,2.879379,-173.26007,-0.11108491,-0.10127017,-0.14330065,-0.5997277,-0.32485926,0.5765197
20231225 03:39:39,-0.603776,-0.023474,0.941169,-0.384812,-0.275720,-0.354451,2.454048,-24.051086,1.936852,-172.38629,0.03248018,-0.20477128,-0.42663056,-0.48734325,-0.29166105,0.4777611
20231225 03:39:39,-0.694803,-0.010407,1.044159,-0.247382,-0.244825,-0.326752,2.330727,-24.631279,2.375404,-172.70448,0.0035237074,-0.23271543,-0.4662175,-0.35858878,-0.24424075,0.38143104
20231225 03:39:39,-0.929182,0.056662,1.129008,-0.120606,-0.273590,-0.307576,2.938866,-23.918617,1.799057,-170.8564,-0.1412307,-0.25432727,-0.37729836,-0.23595485,-0.2500434,0.28247637
20231225 03:39:39,-1.123202,0.020856,0.690192,-0.008744,-0.268263,-0.293726,2.702225,-23.658249,2.181625,-170.98787,-0.51931345,-0.3139577,0.11150855,-0.13398503,-0.21735196,0.20582399
20231225 03:39:39,-1.390509,0.230247,0.247201,0.082876,-0.230976,-0.272419,3.178078,-23.620804,2.049942,-169.13464,-0.97519165,-0.14891545,0.7203393,-0.055907175,-0.15010943,0.121888265
20231225 03:39:39,-1.569232,0.477882,-0.301595,0.141470,-0.152140,-0.236198,3.274887,-23.517548,1.910187,-168.4639,-1.4767361,0.12118747,1.3227326,-0.0056396127,-0.056342214,0.059377894
20231225 03:39:39,-1.762385,0.734767,-0.534169,0.183018,-0.071174,-0.194649,3.089466,-23.245255,1.622627,-168.70218,-1.8142018,0.34516427,1.6853158,0.029231101,0.030515227,0.006100416
20231225 03:39:39,-1.868559,0.956919,-0.715625,0.194737,-0.030690,-0.144578,2.914162,-23.453598,2.170372,-168.63228,-2.0562365,0.56438696,1.9381279,0.055290878,0.06273744,-0.037590213
20231225 03:39:39,-1.850945,1.027208,-0.915277,0.177692,-0.025364,-0.093441,3.153370,-23.155777,2.421249,-167.408,-2.1874785,0.69080853,2.09569,0.0725539,0.050178327,-0.0639708
20231225 03:39:39,-1.723622,0.955130,-1.046276,0.145731,-0.025364,-0.054023,3.144024,-23.058914,2.146896,-167.56062,-2.1514964,0.7205595,2.0888824,0.07313521,0.027493592,-0.07046078
20231225 03:39:39,-1.479389,0.995373,-1.155091,0.108444,-0.026429,-0.027389,3.347374,-23.141167,2.422226,-166.84232,-2.046813,0.87711984,2.0029643,0.06282587,0.006048063,-0.06375608
20231225 03:39:39,-1.139431,0.959346,-1.069980,0.069026,-0.043475,-0.017801,3.250565,-23.244423,2.561974,-167.50435,-1.7220882,0.9150582,1.6896691,0.044394135,-0.024929505,-0.04402667
20231225 03:39:39,-0.797423,0.775795,-0.971010,0.023216,-0.074370,-0.020997,3.610523,-22.924591,1.740852,-166.87997,-1.3595438,0.78315854,1.3569698,0.0142303845,-0.06503152,-0.013901615
20231225 03:39:39,-0.479977,0.591673,-0.875544,-0.031116,-0.111657,-0.027389,3.022118,-22.505249,2.377480,-169.01404,-1.0154245,0.6282968,1.033574,-0.027509514,-0.11052378,0.025606684
20231225 03:39:39,-0.070280,0.428831,-0.650079,-0.085449,-0.159597,-0.034847,3.549576,-22.647758,1.856148,-168.10023,-0.51938,0.46794242,0.58185935,-0.074841276,-0.162917,0.05857734
20231225 03:39:39,0.459510,0.182261,-0.534261,-0.144043,-0.207538,-0.058285,3.551762,-21.897690,2.209122,-168.58406,-0.0062305033,0.2038429,0.12203041,-0.14277855,-0.20963456,0.106474236
20231225 03:39:39,0.921862,-0.049458,-0.343713,-0.195180,-0.253348,-0.120075,3.075142,-21.551353,1.779854,-170.40363,0.50243783,-0.069933295,-0.31995204,-0.23081514,-0.25160062,0.18165526
20231225 03:39:39,1.067853,-0.089285,-0.118360,-0.228206,-0.316204,-0.228740,3.215359,-22.106865,1.817513,-170.56017,0.7690697,-0.14007841,-0.572878,-0.33100733,-0.31346846,0.2771074
20231225 03:39:39,1.283616,-0.098449,0.223221,-0.211160,-0.318334,-0.381085,3.567120,-22.265839,1.563446,-169.35876,1.154512,-0.12519555,-0.9667915,-0.40462607,-0.32009232,0.379131
20231225 03:39:39,0.887806,0.312477,0.590622,-0.131259,-0.274655,-0.537691,3.927464,-22.137901,1.022797,-167.49472,1.0545232,0.32533082,-0.95057535,-0.42999887,-0.2651957,0.44618666
20231225 03:39:39,0.092470,0.867227,0.836486,-0.004483,-0.193689,-0.658076,4.051937,-22.133369,1.425652,-166.46806,0.5172907,0.78833735,-0.52837425,-0.40108177,-0.1292624,0.45991743
20231225 03:39:39,-0.953490,1.463984,1.059495,0.144666,-0.118049,-0.708147,4.272835,-21.833702,1.408287,-164.97885,-0.31836653,1.0306253,0.12888223,-0.31201077,0.039296158,0.40321773
20231225 03:39:39,-2.011550,1.928738,1.157709,0.290619,-0.077566,-0.665533,4.478378,-21.165886,2.036606,-163.07028,-1.2874278,0.94157374,0.9041538,-0.1657436,0.17205563,0.27398396
20231225 03:39:39,-2.891131,2.180220,1.030354,0.428049,-0.049867,-0.534495,5.060005,-20.930161,1.759056,-161.00545,-2.2016234,0.72333586,1.6861684,0.024138361,0.24691226,0.09131256
20231225 03:39:39,-3.355128,2.156617,1.031433,0.569740,-0.066912,-0.359778,4.936684,-21.510368,2.197617,-161.38138,-2.5920599,0.4153619,1.9826272,0.24160726,0.25074443,-0.13247359
20231225 03:39:39,-3.289434,2.115591,0.656694,0.722085,-0.054128,-0.178669,4.787506,-21.049881,2.166069,-161.04776,-2.6891193,0.5473798,2.2775521,0.44073856,0.25424033,-0.37796128
20231225 03:39:39,-2.939197,2.315332,0.280605,0.844600,-0.032821,-0.023128,4.567375,-21.733330,2.744385,-160.93939,-2.601678,1.0725391,2.4579124,0.5813979,0.23938747,-0.60074025
20231225 03:39:39,-2.373156,2.613490,-0.233547,0.857384,-0.059455,0.089799,4.569561,-20.983246,3.097359,-159.17616,-2.5085578,1.8348173,2.5528512,0.6348471,0.14340138,-0.72243935
20231225 03:39:39,-1.619853,2.620253,-0.702246,0.727411,-0.152140,0.165439,4.842827,-21.247322,3.251274,-158.21375,-2.197742,2.3317685,2.274426,0.60701376,-0.040685713,-0.70468724
20231225 03:39:39,-0.763275,2.433193,-0.984694,0.474924,-0.279982,0.199530,4.763950,-21.160522,3.378799,-159.61449,-1.6372358,2.4500325,1.6665204,0.48636204,-0.24827388,-0.5510467
20231225 03:39:39,0.142196,2.271206,-0.887872,0.177692,-0.397170,0.208053,4.720928,-20.693657,3.481873,-162.02165,-0.7236273,2.3149662,0.8322029,0.29206008,-0.39984033,-0.33653054
20231225 03:39:39,0.970609,1.885146,-0.488480,-0.098233,-0.452568,0.179288,4.226765,-20.729256,3.345306,-165.90132,0.32774884,1.843742,-0.11653978,0.056687824,-0.44429526,-0.1130793
20231225 03:39:39,1.409732,1.357148,0.088999,-0.317695,-0.411020,0.134543,4.156845,-20.547440,3.466713,-167.53775,1.1579726,1.2776937,-0.81922233,-0.16068764,-0.38448313,0.058473036
20231225 03:39:39,1.536599,0.683864,0.977279,-0.492412,-0.343903,0.087668,4.535503,-20.421356,3.194305,-166.86179,1.8429344,0.63692987,-1.5613188,-0.35500482,-0.31142157,0.16615921
20231225 03:39:39,1.390674,-0.023000,2.056862,-0.609601,-0.313008,0.048250,4.499260,-20.609543,2.938286,-167.21744,2.2418993,-0.028737348,-2.4386854,-0.50649405,-0.2920092,0.20967862
20231225 03:39:39,0.998124,-0.856923,3.032770,-0.622385,-0.299158,0.036531,4.313839,-20.337250,2.650726,-167.57822,2.1775975,-0.8566425,-3.2746816,-0.549798,-0.29871297,0.17017943
20231225 03:39:39,0.646119,-1.725480,3.699314,-0.520111,-0.258675,0.056773,4.692112,-20.019272,2.097847,-166.34573,1.8662703,-1.740498,-3.9862971,-0.4686115,-0.2710374,0.06543414
20231225 03:39:39,0.438344,-2.620549,4.191379,-0.320891,-0.190493,0.079145,4.400917,-19.945244,1.956154,-167.25436,1.566429,-2.6402113,-4.6129327,-0.28641573,-0.20021187,-0.028820693
20231225 03:39:39,0.485934,-3.283572,4.392894,-0.056685,-0.143617,0.063165,4.161705,-20.243057,1.705269,-168.24821,1.4498309,-3.2897165,-4.954735,-0.040988296,-0.14450769,-0.07638915
20231225 03:39:39,0.710328,-3.664235,4.331682,0.250135,-0.138290,-0.025259,4.171436,-20.531815,2.260101,-168.57147,1.6068709,-3.6624537,-5.009406,0.23887157,-0.14015593,-0.05562502
20231225 03:39:39,0.830465,-3.631761,3.661332,0.554825,-0.143617,-0.152035,3.969887,-19.507591,2.057266,-168.44644,1.7453895,-3.6311655,-4.382522,0.4964864,-0.1458746,-0.027383715
20231225 03:39:39,0.680342,-3.130116,2.389159,0.761502,-0.163859,-0.254309,4.340351,-19.860298,2.351913,-167.26228,1.506109,-3.1332216,-3.0644293,0.62157583,-0.15083955,-0.07377367
20231225 03:39:39,0.488926,-2.416874,0.982748,0.816901,-0.200081,-0.300119,4.465591,-20.239548,3.315712,-166.58456,0.94672006,-2.4167664,-1.5647473,0.57544345,-0.1662938,-0.17802736
20231225 03:39:39,0.369787,-1.761316,-0.291938,0.740196,-0.196885,-0.288400,4.403870,-19.578934,2.870064,-165.19768,0.18975942,-1.7287896,-0.35427386,0.4327902,-0.1490204,-0.25464988
20231225 03:39:39,0.235883,-1.190471,-1.074666,0.571870,-0.175578,-0.231936,4.510796,-19.956337,3.565620,-163.9882,-0.49686038,-1.1114784,0.35005295,0.2667787,-0.127611,-0.26598492
20231225 03:39:39,0.196394,-0.590702,-1.713830,0.338559,-0.104199,-0.140316,4.767555,-19.276588,3.523804,-161.56416,-1.0704043,-0.44314936,0.83536977,0.13605943,-0.069017686,-0.1799202
20231225 03:39:39,0.132889,-0.405550,-1.754330,0.092464,-0.016841,-0.041239,4.670746,-19.379845,3.663551,-162.27608,-1.13561,-0.26404202,0.9769951,0.0357758,-0.007113641,-0.042968415
20231225 03:39:39,0.114429,-0.536322,-1.278926,-0.108887,0.032165,0.043989,4.934662,-19.547035,3.543121,-162.35527,-0.72685486,-0.43726665,0.71040523,-0.05411554,0.020670148,0.048684523
20231225 03:39:39,0.091847,-0.826004,-0.589104,-0.228206,0.064126,0.098322,4.715572,-18.904747,3.632988,-163.43372,-0.23609175,-0.78148896,0.20548066,-0.12536788,0.041028235,0.07843662
20231225 03:39:39,0.044422,-1.072280,0.076183,-0.260166,0.076910,0.126021,4.482368,-19.473846,2.462074,-164.76427,0.13638428,-1.0680742,-0.31866103,-0.14849871,0.049572162,0.06265604
20231225 03:39:39,-0.027658,-1.230930,0.516580,-0.228206,0.077975,0.134543,4.097313,-19.136757,3.374039,-166.00912,0.31985396,-1.254783,-0.6576377,-0.124048255,0.05138657,0.029102668
20231225 03:39:39,-0.140502,-1.273019,0.722253,-0.151501,0.085433,0.142001,4.176197,-19.223557,3.246513,-165.71144,0.34007964,-1.3218807,-0.783489,-0.058244668,0.061783206,-0.017937817
20231225 03:39:39,-0.243065,-1.177602,0.684082,-0.063077,0.105674,0.145197,4.070034,-19.229935,3.111900,-165.82378,0.24980405,-1.2387049,-0.6597228,0.019900005,0.088985085,-0.06104462
20231225 03:39:39,-0.303104,-0.950265,0.539453,0.015759,0.139765,0.151589,3.893578,-18.862610,2.818230,-165.79692,0.13439357,-1.0148983,-0.44063678,0.08941516,0.12884177,-0.10095439
20231225 03:39:39,-0.299085,-0.638205,0.299676,0.069026,0.167464,0.169700,3.982193,-19.238159,3.245537,-165.41888,-0.0015367717,-0.68850225,-0.17215882,0.14403403,0.15934637,-0.13873923
20231225 03:39:39,-0.245963,-0.483500,-0.010250,0.094595,0.220732,0.195268,3.506340,-19.275612,3.377220,-166.78462,-0.15542434,-0.5039832,0.07774218,0.1767192,0.21187449,-0.1679836
20231225 03:39:39,-0.274688,-0.328295,-0.188874,0.094595,0.259084,0.219771,3.954914,-19.331329,2.983414,-165.11752,-0.3015028,-0.3369139,0.25317883,0.19062205,0.24709581,-0.1723293
20231225 03:39:39,-0.232248,-0.343339,-0.318844,0.095660,0.330463,0.249601,3.505955,-19.083725,3.096748,-166.44739,-0.35028547,-0.3357744,0.32530433,0.20300391,0.3147362,-0.18781318
20231225 03:39:39,-0.258752,-0.325233,-0.256764,0.095660,0.370946,0.277300,3.481247,-18.618698,3.468056,-166.28157,-0.3312859,-0.3267284,0.2981222,0.21489954,0.35194016,-0.20056152
20231225 03:39:39,-0.411271,-0.467453,-0.115609,0.094595,0.385861,0.317783,3.453972,-18.711868,3.205933,-166.28139,-0.34165102,-0.50251067,0.25980487,0.22946696,0.35891938,-0.22836252
20231225 03:39:39,-0.503499,-0.554921,-0.075011,0.112705,0.397580,0.380639,3.154575,-19.116638,3.631287,-167.5856,-0.38451803,-0.6075205,0.27184516,0.27648255,0.36665526,-0.29534897
20231225 03:39:39,-0.470062,-0.728120,0.034022,0.152123,0.383730,0.448821,2.941872,-18.937508,3.081589,-168.53955,-0.2869211,-0.77944034,0.1430885,0.35461074,0.35649616,-0.38147447
20231225 03:39:39,-0.217432,-1.055063,-0.155700,0.192607,0.381599,0.507415,3.074928,-18.646072,3.197861,-168.34584,-0.19107185,-1.057319,0.08018058,0.4265087,0.36115688,-0.45226604
20231225 03:39:39,0.099754,-1.183223,-0.307026,0.212848,0.356031,0.551095,2.741474,-18.488953,3.720169,-169.63824,-0.03709294,-1.153057,0.011271805,0.47984397,0.3392436,-0.5099577
20231225 03:39:39,0.626946,-1.221674,-0.449717,0.218175,0.329397,0.563879,2.317223,-18.706352,3.462196,-172.34012,0.20241264,-1.2328614,-0.16639271,0.5235707,0.33197737,-0.5393759
20231225 03:39:39,1.087619,-1.190674,-0.673753,0.196868,0.275065,0.541506,1.947914,-18.929314,4.008965,-174.7511,0.3439167,-1.2984562,-0.25931,0.51081336,0.2911098,-0.5217251
20231225 03:39:39,1.457052,-1.119071,-0.954289,0.148927,0.234581,0.482912,1.763260,-19.040794,4.282349,-176.18033,0.34956664,-1.3490634,-0.31919044,0.45199555,0.26187176,-0.44654435
20231225 03:39:39,1.668586,-0.806453,-1.247651,0.075418,0.187706,0.410469,1.569256,-19.055405,4.281372,-177.13345,0.22192508,-1.1384585,-0.32076436,0.36079425,0.2243247,-0.33730686
20231225 03:39:39,1.673433,-0.430937,-1.478828,-0.015136,0.169595,0.335894,1.392796,-18.688087,3.987694,-177.34305,-0.0040535927,-0.7857925,-0.2562511,0.2552431,0.20933636,-0.20941383
20231225 03:39:39,1.514766,-0.060994,-1.569808,-0.113148,0.177053,0.271973,1.595764,-18.578453,3.982559,-176.05045,-0.1904543,-0.34761706,-0.12228072,0.14733228,0.21237247,-0.08414532
20231225 03:39:39,1.308597,0.229519,-1.394378,-0.211160,0.184510,0.225098,1.226070,-18.609528,4.248848,-176.78471,-0.1585955,0.07285905,-0.04791373,0.039188683,0.20905708,0.015907437
20231225 03:39:39,0.986460,0.351864,-0.974456,-0.282539,0.175987,0.200595,1.207371,-18.415787,3.700127,-175.88498,-0.023430824,0.31360897,-0.032087564,-0.044793203,0.18526962,0.076611355
20231225 03:39:39,0.703619,0.476130,-0.397103,-0.311303,0.142961,0.199530,1.206985,-18.223900,3.419662,-175.46428,0.22340995,0.47965473,-0.18252707,-0.083284035,0.14132291,0.083756566
20231225 03:39:39,0.573998,0.460303,0.093805,-0.298519,0.097151,0.214445,0.802204,-19.018822,4.271347,-177.1342,0.48569965,0.4643486,-0.43681005,-0.07889083,0.09305129,0.04439363
20231225 03:39:39,0.600513,0.282900,0.460247,-0.255905,0.043884,0.222967,0.632908,-19.498451,3.899063,-177.97646,0.7566023,0.282184,-0.7309661,-0.05206737,0.04536909,-0.0044880956
20231225 03:39:39,0.754075,0.178813,0.637383,-0.187723,-0.007253,0.219771,0.598080,-18.552780,3.435074,-178.23508,0.9901204,0.17418116,-0.96711534,-0.0050230324,1.5429617E-4,-0.050065532
20231225 03:39:39,0.907008,0.129850,0.538590,-0.120606,-0.032821,0.189942,0.677349,-18.831467,3.588028,-178.21954,1.0438657,0.114604875,-0.9932655,0.029270627,-0.023405116,-0.06810187
20231225 03:39:39,0.940660,0.198388,0.317446,-0.063077,-0.031756,0.152654,0.491924,-18.559166,3.300468,-178.72112,0.920633,0.17844106,-0.85676515,0.052705146,-0.025812171,-0.07331034
20231225 03:39:39,0.793442,0.303594,0.098070,-0.018332,0.005531,0.112171,0.537132,-18.275963,3.550369,-178.19638,0.6530679,0.29812184,-0.6016397,0.06236866,0.00647163,-0.070083246
20231225 03:39:39,0.532767,0.376915,-0.017303,0.026412,0.050276,0.070623,0.668385,-18.926483,3.594139,-177.29889,0.3704143,0.38787842,-0.3380516,0.06653987,0.04945647,-0.0678509
20231225 03:39:39,0.185285,0.379953,-0.107669,0.072222,0.083302,0.026943,0.349907,-18.945618,3.190308,-177.83757,0.040313914,0.39530215,-0.038582437,0.0664113,0.08573627,-0.066879496
20231225 03:39:39,-0.144385,0.403693,-0.201773,0.122294,0.105674,-0.001821,0.121845,-18.398346,3.286285,-178.01385,-0.27849996,0.40509367,0.25534236,0.07727337,0.116094805,-0.08115938
20231225 03:39:39,-0.511304,0.483815,-0.335609,0.158515,0.100347,-0.007148,0.130810,-18.303329,3.280174,-177.25497,-0.65763545,0.45268977,0.6148128,0.09430208,0.12014607,-0.103465855
20231225 03:39:39,-0.736907,0.451496,-0.658321,0.172365,0.093955,0.019486,0.473995,-18.749207,3.312691,-175.68478,-1.0429131,0.43291008,1.0096483,0.119684964,0.11405634,-0.13224924
20231225 03:39:39,-0.804936,0.446947,-0.742529,0.163842,0.089694,0.065296,0.264248,-18.203773,3.676910,-176.05423,-1.1482506,0.43740934,1.1147332,0.14403437,0.10087157,-0.16052994
20231225 03:39:40,-0.652434,0.558147,-1.129158,0.157450,0.090759,0.090864,0.094952,-18.683403,3.304626,-177.0923,-1.3431028,0.6284491,1.2565448,0.15772566,0.09633777,-0.17482606
20231225 03:39:40,-0.369245,0.655719,-1.334135,0.116967,0.109936,0.142001,-0.062809,-18.509819,3.559662,-178.20576,-1.3309305,0.7646759,1.1403344,0.17050219,0.10352367,-0.17810698
20231225 03:39:40,-0.235448,0.678908,-1.498157,0.062634,0.135504,0.152654,0.236969,-18.296944,3.414780,-177.51381,-1.37441,0.7868684,1.1280859,0.14646897,0.1258854,-0.13984556
20231225 03:39:40,0.123744,0.642084,-1.638167,-0.013006,0.149353,0.148393,0.167439,-18.307030,3.816658,-178.39026,-1.2296681,0.7253482,0.9387777,0.10017126,0.1413374,-0.07999174
20231225 03:39:40,0.342484,0.560561,-1.503656,-0.080123,0.161072,0.128151,0.097523,-18.125214,3.938065,-179.18874,-0.9519607,0.5984635,0.6993524,0.044216175,0.15686339,-0.01846917
20231225 03:39:40,0.505983,0.481613,-1.282676,-0.108887,0.171726,0.113237,-0.159233,-18.804962,3.979881,179.6677,-0.6526996,0.504727,0.44688106,0.013002075,0.16890924,0.008559294
20231225 03:39:40,0.604851,0.363237,-0.926507,-0.156828,0.156811,0.051446,-0.114410,-18.329865,3.949318,179.64906,-0.25647688,0.36861965,0.1980151,-0.07127192,0.15608977,0.07761288
20231225 03:39:40,0.585347,0.409574,-0.620502,-0.158958,0.129112,0.013094,-0.142075,-18.231140,3.406708,179.53899,-0.035619646,0.41453832,0.013472229,-0.102380544,0.12840693,0.10370284
20231225 03:39:40,0.618510,0.412599,-0.463341,-0.150435,0.111001,0.000310,0.025036,-18.501587,3.426025,-179.91379,0.10549742,0.41219786,-0.11365935,-0.10550209,0.111056566,0.10688045
20231225 03:39:40,0.642099,0.526476,-0.438974,-0.105691,0.091825,-0.046566,-0.299835,-18.057564,3.661751,178.91957,0.12416881,0.52953696,-0.16839024,-0.10692103,0.0916657,0.10740961
20231225 03:39:40,0.550238,0.771701,-0.515387,-0.090776,0.091825,-0.060415,0.297535,-18.381889,3.019012,-178.67807,-0.008360326,0.7823661,-0.03754112,-0.10709085,0.0915595,0.108997755
20231225 03:39:40,0.441181,0.960306,-0.612017,-0.080123,0.092890,-0.082788,0.173832,-18.770195,3.177101,-178.85648,-0.19478014,0.9883009,0.08612728,-0.11770229,0.093172,0.11606054
20231225 03:39:40,0.354844,1.144306,-0.751826,-0.106756,0.107805,-0.091310,0.387569,-17.623581,3.238358,-177.7211,-0.38374287,1.1840196,0.24917227,-0.14292306,0.107653946,0.14322239
20231225 03:39:40,0.205322,1.341469,-0.634533,-0.125932,0.123785,-0.090245,0.200729,-18.485130,3.158760,-178.24324,-0.42213726,1.3848381,0.28680784,-0.15766959,0.122321434,0.15673366
20231225 03:39:40,0.050150,1.458076,-0.432382,-0.128063,0.131243,-0.091310,-0.115181,-17.946083,3.388374,-178.96985,-0.40984747,1.4886005,0.2655068,-0.16360761,0.12866285,0.1580008
20231225 03:39:40,-0.197415,1.523817,-0.294911,-0.104626,0.146157,-0.078526,0.341976,-17.714897,2.707977,-177.00703,-0.5094633,1.520728,0.3971248,-0.14318511,0.14301418,0.13532612
20231225 03:39:40,-0.377189,1.565691,-0.170100,-0.083319,0.154680,-0.067873,-0.169350,-18.324318,3.144585,-178.6022,-0.5706929,1.5227623,0.4194714,-0.12461966,0.15160623,0.109839976
20231225 03:39:40,-0.506462,1.606478,-0.128674,-0.021528,0.179183,-0.026324,0.421242,-17.993576,2.860931,-176.29903,-0.64248013,1.5386692,0.530661,-0.056821678,0.17728716,0.041397955
20231225 03:39:40,-0.505143,1.627419,-0.103923,0.014693,0.189837,0.008832,0.121460,-18.206459,3.005806,-177.57433,-0.61051744,1.5635288,0.49123436,-0.0066445004,0.18784213,-0.011460161
20231225 03:39:40,-0.385420,1.709995,-0.119783,0.046654,0.219666,0.046120,0.421242,-17.993576,2.860931,-176.5211,-0.5385397,1.664999,0.43662858,0.040077046,0.21656993,-0.056611665
20231225 03:39:40,-0.292597,1.897436,-0.095190,0.059438,0.230320,0.062100,0.033619,-18.214684,3.139442,-178.06635,-0.46741435,1.8610319,0.32548824,0.060495697,0.22679934,-0.08047062
20231225 03:39:40,-0.205999,2.118989,-0.107890,0.067961,0.233516,0.088734,0.306885,-18.478752,3.293373,-177.00334,-0.43364006,2.0930488,0.2981115,0.086841896,0.22804287,-0.10110781
20231225 03:39:40,-0.109682,2.379119,-0.126284,0.009367,0.198359,0.110040,0.032848,-17.830910,2.578499,-178.53976,-0.38459143,2.3658826,0.20294389,0.07254529,0.1875809,-0.07342969
20231225 03:39:40,-0.041278,2.454291,-0.093915,-0.041770,0.161072,0.110040,-0.002625,-18.402878,2.883430,-178.87111,-0.28029728,2.4474301,0.12218146,0.046200145,0.14963453,-0.035532903
20231225 03:39:40,0.536189,2.008642,0.198427,-0.243121,0.012989,0.106844,0.439171,-17.803543,2.848701,-178.2684,0.5156478,2.0079787,-0.48547634,-0.088146746,0.013709765,0.10474686
20231225 03:39:40,1.185465,1.463417,0.579432,-0.352852,-0.043475,0.066361,0.103146,-18.204605,2.737564,179.56602,1.3389013,1.4217305,-1.2423239,-0.2140723,-0.019307597,0.19364731
20231225 03:39:40,1.622737,0.999316,1.036130,-0.399727,-0.054128,0.031205,0.014919,-18.020943,2.590729,179.103,1.9635603,0.9426892,-1.8623595,-0.28259695,-0.02257774,0.24180356
20231225 03:39:40,1.653753,0.502876,1.617913,-0.515850,-0.037082,-0.123271,0.500118,-18.080368,2.733406,-178.97322,2.3026626,0.46983117,-2.2672985,-0.49420124,-0.010634046,0.39713386
20231225 03:39:40,1.281449,-0.072357,2.323348,-0.540353,-0.029625,-0.178669,0.314316,-17.616180,2.165367,-179.02711,2.2886014,-0.07080259,-2.6526475,-0.5559664,-0.023015449,0.429442
20231225 03:39:40,0.668133,-0.507319,3.085571,-0.516915,-0.034952,-0.309707,0.357719,-18.274940,2.342773,-178.50436,2.0131683,-0.53991055,-3.0605052,-0.6005621,-0.047782823,0.5108715
20231225 03:39:40,0.098646,-0.880239,3.723157,-0.384812,-0.042409,-0.367235,0.753925,-17.766922,1.777679,-176.91055,1.6706927,-1.0075958,-3.462514,-0.50079644,-0.05978282,0.49179667
20231225 03:39:40,-0.493267,-1.143868,3.953127,-0.158958,-0.048801,-0.401327,0.733421,-18.515152,1.156456,-177.06625,1.1801682,-1.4223329,-3.473698,-0.3019387,-0.046156306,0.4286272
20231225 03:39:40,-1.085342,-1.226007,3.657037,0.094595,-0.059455,-0.383216,1.141163,-17.353928,1.218681,-175.2055,0.58879846,-1.6955163,-2.9662004,-0.063813426,-0.009991569,0.3044016
20231225 03:39:40,-1.499001,-1.307696,2.834503,0.208587,-0.053063,-0.351255,1.078793,-18.210953,1.541946,-175.22064,-0.02993548,-1.8891705,-2.0001059,0.046643987,0.030280184,0.22183883
20231225 03:39:40,-1.570147,-1.356906,2.405015,0.384369,-0.010449,-0.256439,1.451443,-17.813576,2.189568,-173.34026,-0.23498225,-1.9366802,-1.5953581,0.23712134,0.10564217,0.058478624
20231225 03:39:40,-1.510853,-1.585895,1.410957,0.550564,0.023642,-0.099833,1.609203,-17.987160,1.934532,-172.95964,-0.53194344,-2.0490289,-0.7273905,0.4427484,0.16220082,-0.1610518
20231225 03:39:40,-1.266431,-1.865468,0.774302,0.619811,0.006597,-0.010344,1.918716,-18.063042,2.344475,-171.67522,-0.5354668,-2.1803987,-0.31179267,0.54015726,0.1460346,-0.2840571
20231225 03:39:40,-1.123139,-1.986751,0.393595,0.636857,-0.002991,0.026943,1.698200,-18.554596,2.642311,-172.3804,-0.52362764,-2.2068238,0.017291814,0.5599639,0.123576835,-0.35084236
20231225 03:39:40,-0.636406,-2.050528,-0.667899,0.585720,-0.061585,0.103648,1.770306,-17.986336,2.873878,-171.82857,-0.65324056,-2.0364423,0.66451347,0.5478381,0.028125243,-0.42272103
20231225 03:39:40,-0.428334,-1.979234,-1.002510,0.532453,-0.098873,0.118563,1.716900,-18.748337,3.191025,-172.19849,-0.7080964,-1.8951439,0.836911,0.5076316,-0.029768934,-0.423195
20231225 03:39:40,0.208368,-1.727597,-2.072008,0.267181,-0.173447,0.134543,1.664528,-18.184601,3.019737,-172.56285,-1.1719117,-1.5601313,1.1638024,0.29671234,-0.16293308,-0.2982147
20231225 03:39:40,0.559656,-1.517243,-2.523494,0.144666,-0.172382,0.124955,1.434666,-18.579285,3.043213,-173.78448,-1.3508563,-1.3662955,1.2244936,0.19846815,-0.17129451,-0.20331812
20231225 03:39:40,0.649913,-1.449228,-2.482440,-0.279343,-0.113788,0.051446,1.506767,-18.011017,3.274780,-173.6834,-1.3136781,-1.3629944,1.1157864,-0.15170397,-0.12239939,0.15897518
20231225 03:39:40,0.663149,-1.120312,-2.246743,-0.424230,-0.076500,0.018421,1.355785,-18.492500,3.170731,-174.41711,-1.0488434,-1.0197467,1.0647786,-0.28905874,-0.091841124,0.276923
20231225 03:39:40,0.362415,-0.940600,-1.159302,-0.663933,-0.039213,-0.045500,1.892204,-18.539986,2.643288,-172.15556,-0.37865463,-0.815959,0.560477,-0.5397774,-0.09551272,0.45092028
20231225 03:39:40,-0.672430,-0.626311,0.591118,-0.866349,0.002335,-0.065742,1.784893,-17.970711,1.667259,-172.39867,-0.17387933,-0.80042565,-0.19179419,-0.7605524,-0.14423886,0.5288791
20231225 03:39:40,-1.302872,-0.513972,1.660501,-0.856761,0.020446,0.003506,1.846611,-18.631310,2.112915,-172.23524,-0.24906975,-0.9742914,-0.8229711,-0.7404704,-0.15984419,0.43170992
20231225 03:39:40,-1.700699,-0.481236,2.378841,-0.747030,0.069452,0.124955,2.225273,-18.505219,1.840508,-171.20953,-0.3753507,-1.1285301,-1.3523717,-0.612813,-0.115279496,0.24830467
20231225 03:39:40,-1.874455,-0.515127,2.874405,-0.656476,0.065191,0.196334,1.553879,-17.789719,0.849327,-173.8888,-0.35622573,-1.258179,-1.7508879,-0.5073031,-0.10949491,0.12883073
20231225 03:39:40,-2.030507,-0.529730,3.315554,-0.437014,0.021512,0.345482,1.596897,-18.256592,0.746254,-174.03383,-0.32213068,-1.2625244,-2.0939312,-0.24305372,-0.10252008,-0.11043681
20231225 03:39:40,-1.655636,-0.629516,3.097649,-0.201572,0.006597,0.480782,1.341560,-17.802483,0.580101,-174.88954,-0.048324943,-1.2064172,-2.0540068,0.03224343,-0.075022966,-0.3355482
20231225 03:39:40,-1.029302,-0.702334,2.562306,0.014693,0.008728,0.563879,1.218624,-18.574570,1.299133,-175.28308,0.34166002,-1.0008819,-1.8129303,0.2764988,-0.028020315,-0.50132936
20231225 03:39:40,-0.272313,-0.793394,1.861617,0.177692,0.000205,0.581990,0.963284,-18.120461,1.132973,-176.31914,0.72146225,-0.8766664,-1.5168756,0.44407848,-0.0098316185,-0.59181714
20231225 03:39:40,0.716231,-1.036026,0.593259,0.321514,0.024708,0.503154,1.060478,-18.209106,1.273705,-176.33041,0.908607,-1.0430225,-0.94142354,0.54312205,0.02476284,-0.5949045
20231225 03:39:40,0.920832,-1.079936,0.258064,0.346017,0.043884,0.459475,0.953285,-19.541222,1.627533,-177.06018,0.8815221,-1.1062136,-0.7735436,0.54431915,0.042481802,-0.5719925
20231225 03:39:40,1.127507,-1.126426,-0.272480,0.367324,0.071583,0.361463,0.646347,-18.907150,1.851036,-178.17087,0.71077526,-1.1939045,-0.46977806,0.5117919,0.06586165,-0.50619835
20231225 03:39:40,1.059268,-1.121579,-0.716745,0.364128,0.070518,0.263451,0.725609,-19.185837,2.003983,-177.90024,0.38353518,-1.1933585,-0.09120476,0.4515621,0.06263769,-0.42657173
20231225 03:39:40,0.974526,-1.096141,-0.807354,0.346017,0.052407,0.182484,0.663891,-18.525223,1.558334,-177.63118,0.23405743,-1.1189394,-0.024323046,0.38416004,0.049614914,-0.35810903
20231225 03:39:40,0.766609,-0.969541,-1.018029,0.317252,0.020446,0.124955,0.497547,-18.638550,2.099960,-178.23688,-0.07007903,-0.97894865,0.26554996,0.3235952,0.019205686,-0.29889515
20231225 03:39:40,0.610123,-0.828428,-1.129981,0.272508,-0.026429,0.079145,0.646729,-19.099037,2.131508,-177.52275,-0.2834013,-0.8096958,0.4142451,0.25678626,-0.024082799,-0.24066761
20231225 03:39:40,0.469839,-0.690808,-1.297552,0.212848,-0.070108,0.046120,0.893757,-18.130539,1.534859,-176.22435,-0.54061687,-0.6566879,0.58119214,0.18730727,-0.066725,-0.18340054
20231225 03:39:40,0.417006,-0.455235,-1.462903,0.142535,-0.104199,0.017355,0.057171,-18.104042,1.926720,-179.5146,-0.7127415,-0.41114062,0.7523563,0.11650416,-0.10115901,-0.11264119
20231225 03:39:40,0.361684,-0.386693,-1.503689,0.055177,-0.125506,-0.010344,0.619068,-19.000320,1.588898,-177.2512,-0.8001845,-0.32264206,0.786124,0.035747703,-0.123142816,-0.036192734
20231225 03:39:40,0.261537,-0.277963,-1.477193,-0.040705,-0.124441,-0.030585,0.567081,-18.628479,1.698082,-177.29709,-0.84042776,-0.19564438,0.8529377,-0.04454185,-0.12465162,0.046200857
20231225 03:39:40,0.172522,-0.226939,-1.148285,-0.156828,-0.128702,-0.050827,0.503941,-19.101723,1.460403,-177.71208,-0.6146141,-0.16045289,0.7417066,-0.14499912,-0.1346083,0.13776086
20231225 03:39:40,0.079523,-0.308788,-0.645857,-0.179200,-0.136160,-0.061481,0.848930,-18.605637,1.565422,-176.4206,-0.33085066,-0.27348557,0.43458188,-0.17134652,-0.14314057,0.1541642
20231225 03:39:40,0.046830,-0.370309,-0.221608,-0.186657,-0.155336,-0.094506,1.141933,-17.737709,1.779633,-175.17456,-0.0793817,-0.35586378,0.12235907,-0.19822578,-0.16193461,0.17772079
20231225 03:39:40,-0.015885,-0.467454,0.105965,-0.134455,-0.172382,-0.180800,1.149094,-18.584648,1.701012,-175.36252,0.07355118,-0.47215766,-0.10553175,-0.2068902,-0.17177173,0.21366188
20231225 03:39:40,-0.078080,-0.437528,0.303445,-0.105691,-0.174512,-0.210629,1.096725,-18.020912,1.529716,-175.32953,0.14417242,-0.4607088,-0.22527193,-0.1986367,-0.16929376,0.22019382
20231225 03:39:40,-0.260987,-0.387611,0.382054,-0.046031,-0.170251,-0.259635,1.279572,-18.851395,1.183838,-174.85666,0.045765355,-0.43841076,-0.17699917,-0.17839473,-0.154442,0.22260879
20231225 03:39:40,-0.562271,-0.210500,0.366100,0.006171,-0.154271,-0.272419,1.369606,-18.093086,1.403183,-173.94922,-0.20259613,-0.32347253,0.037663817,-0.14262679,-0.12217119,0.19783816
20231225 03:39:40,-0.806399,-0.071186,0.379796,0.055177,-0.145748,-0.254309,1.123234,-17.543968,1.230911,-174.67679,-0.3997119,-0.24386051,0.1909529,-0.09140547,-0.10284118,0.15541545
20231225 03:39:40,-1.015055,-0.019667,0.355913,0.102052,-0.144683,-0.215956,1.872742,-17.962471,1.533623,-171.73145,-0.57950073,-0.23075917,0.34911895,-0.031920016,-0.09708554,0.08840418
20231225 03:39:40,-1.075124,0.032950,0.174737,0.140405,-0.147879,-0.171211,1.801674,-17.205002,0.813622,-171.92662,-0.7304427,-0.16320041,0.5478385,0.022528224,-0.09977293,0.026786633
20231225 03:39:40,-0.963630,0.015542,-0.027678,0.172365,-0.156401,-0.128598,1.793472,-17.683800,1.380676,-171.89545,-0.7598087,-0.12473424,0.6393719,0.071105264,-0.111851186,-0.02940666
20231225 03:39:40,-0.714510,-0.152578,-0.273177,0.193672,-0.171316,-0.111552,1.900021,-17.869301,1.795761,-171.59047,-0.7044214,-0.20875056,0.6505133,0.0942156,-0.13462201,-0.0598372
20231225 03:39:40,-0.348058,-0.412535,-0.576694,0.203260,-0.184100,-0.132859,2.127308,-18.032806,1.138832,-171.0671,-0.6139219,-0.39917502,0.6096498,0.07732874,-0.16005355,-0.056840897
20231225 03:39:40,-0.050620,-0.502285,-0.864730,0.197933,-0.184100,-0.187192,2.382648,-18.486916,1.304993,-170.2382,-0.58482254,-0.4528093,0.6036225,0.032987528,-0.15947627,-0.01868838
20231225 03:39:40,-0.001111,-0.437721,-1.126311,0.175561,-0.174512,-0.251113,2.163937,-18.036507,1.675331,-170.58772,-0.73827124,-0.35101074,0.7552944,-0.031243265,-0.14085606,0.038326204
20231225 03:39:40,-0.183665,-0.227415,-1.257484,0.131882,-0.168120,-0.303315,2.260750,-17.933250,1.535576,-169.62929,-0.9868075,-0.10986136,0.97341645,-0.10170729,-0.11974203,0.09546676
20231225 03:39:40,-0.447874,-0.090524,-1.347974,0.093529,-0.138290,-0.335275,2.780006,-18.554565,1.581299,-167.49704,-1.2417533,0.04220912,1.2287438,-0.14836426,-0.07376134,0.14201817
20231225 03:39:40,-0.860529,0.156365,-1.225149,0.066896,-0.114853,-0.341667,2.734413,-18.645889,1.050926,-167.62857,-1.4770906,0.22069152,1.4755317,-0.1684626,-0.037159648,0.1684708
20231225 03:39:40,-1.244400,0.409352,-1.056335,0.046654,-0.104199,-0.320360,3.219612,-18.705307,1.193604,-165.53336,-1.67865,0.35406214,1.6759093,-0.1627092,-0.022311538,0.16673131
20231225 03:39:40,-1.518629,0.574265,-0.855449,0.046654,-0.105265,-0.268158,3.310032,-18.138893,1.693413,-164.53952,-1.776994,0.39638418,1.7634585,-0.122994095,-0.03049229,0.13074726
20231225 03:39:40,-1.573685,0.609099,-0.688380,0.059438,-0.113788,-0.202107,3.627739,-17.735962,1.536301,-163.03593,-1.7129176,0.38108438,1.7001114,-0.06772409,-0.05100558,0.07233135
20231225 03:39:40,-1.437316,0.654308,-0.645115,0.075418,-0.120180,-0.140316,3.344090,-18.700768,1.596458,-164.97882,-1.5853629,0.46795171,1.5766437,-0.017596401,-0.071873225,0.020525582
20231225 03:39:40,-1.202603,0.661976,-0.658348,0.085006,-0.124441,-0.098768,3.009869,-18.159874,1.557823,-166.0,-1.418466,0.54334134,1.4172859,0.014464796,-0.08688097,-0.0143844485
20231225 03:39:40,-0.987830,0.723989,-0.673614,0.081810,-0.126572,-0.074265,3.273785,-18.327080,1.437401,-165.14116,-1.2768668,0.65833354,1.2915361,0.025795292,-0.09821702,-0.03123568
20231225 03:39:40,-0.789392,0.781441,-0.588902,0.066896,-0.131898,-0.071069,3.582146,-17.827293,1.005928,-163.5843,-1.0746638,0.74129367,1.1136699,0.015142053,-0.1100344,-0.02660868
20231225 03:39:40,-0.641997,0.870929,-0.457561,0.050915,-0.140421,-0.082788,3.591496,-17.924156,1.280289,-163.79955,-0.8835723,0.83447325,0.936067,-0.0044427067,-0.12087816,-0.008260816
20231225 03:39:40,-0.650251,0.975805,-0.296565,0.020020,-0.156401,-0.076395,3.388912,-18.225670,1.565895,-164.86671,-0.79070157,0.9150219,0.8432789,-0.019280825,-0.14116803,0.00864004
20231225 03:39:40,-0.705771,1.054072,-0.015370,0.010432,-0.168120,-0.063611,3.379562,-18.128807,1.291534,-165.03125,-0.6452896,0.9481157,0.7015567,-0.015286509,-0.15587562,0.0054064095
20231225 03:39:40,-0.702953,1.062465,0.084534,-0.003417,-0.178774,0.004571,3.856567,-18.667023,2.001266,-164.21693,-0.5663549,0.9630321,0.6323967,0.019253265,-0.17753956,-0.036331564
20231225 03:39:40,-0.553973,0.897624,0.317109,0.011497,-0.162794,0.018421,3.610195,-18.117897,1.829002,-165.07117,-0.28187996,0.80541134,0.3152427,0.035452403,-0.16182151,-0.052058496
20231225 03:39:40,-0.354575,0.637577,0.673223,0.083941,-0.114853,-0.000756,4.058765,-18.173615,1.435188,-163.91179,0.115315974,0.5569328,-0.13104746,0.07177226,-0.10711845,-0.077874705
20231225 03:39:40,-0.266945,0.558478,0.976934,0.210718,-0.062651,-0.074265,3.653599,-18.776657,2.006401,-166.02031,0.37502664,0.46404058,-0.45561823,0.11951177,-0.039245985,-0.09064734
20231225 03:39:40,-0.428669,0.680474,1.052239,0.361997,-0.018972,-0.172277,3.882690,-17.998192,1.421989,-164.07263,0.28611058,0.52202713,-0.34701043,0.16562688,0.03898681,-0.11396968
20231225 03:39:40,-0.867325,0.882489,0.829125,0.578263,0.056668,-0.275616,4.244190,-18.445923,1.722748,-162.31413,-0.219562,0.6092219,0.19961101,0.23721862,0.1848284,-0.18337907
20231225 03:39:40,-1.322962,1.200663,0.575878,0.685863,0.100347,-0.284138,4.016899,-18.282417,2.379669,-161.40334,-0.7867922,0.7447856,0.83480227,0.26230305,0.30029348,-0.28159952
20231225 03:39:40,-1.710353,1.648663,0.355354,0.721019,0.108870,-0.268158,4.625805,-17.953537,2.364258,-158.04723,-1.3043848,1.103619,1.4495269,0.27808207,0.32387406,-0.33221525
20231225 03:39:41,-1.863460,2.250951,0.061395,0.728477,0.084367,-0.193584,4.669212,-18.612282,2.541664,-156.22255,-1.6986414,1.7103237,1.9974062,0.27510172,0.28351784,-0.45038304
20231225 03:39:41,-1.710955,2.663901,-0.457547,0.633661,0.033231,-0.081722,4.592133,-17.583527,2.741684,-155.11517,-2.0581079,2.3109963,2.2879975,0.30350995,0.17445616,-0.45902175
20231225 03:39:41,-1.214234,2.792207,-0.662817,0.442963,-0.042409,0.031205,4.450886,-18.353767,3.192474,-157.10747,-1.7806842,2.6722639,1.9627879,0.28488034,0.014101491,-0.3903728
20231225 03:39:41,-0.447184,2.714545,-0.750596,0.191541,-0.128702,0.099387,4.529762,-18.440559,3.064949,-158.92288,-1.1238177,2.7381134,1.3234416,0.20248222,-0.124678664,-0.23662311
20231225 03:39:41,0.373403,2.341725,-0.537887,-0.057750,-0.165990,0.104714,4.732346,-18.139030,2.779343,-160.24265,-0.20999095,2.345245,0.49285945,0.048717216,-0.16662961,-0.048214447
20231225 03:39:41,0.872983,1.903218,0.085900,-0.260166,-0.146813,0.070623,4.466625,-18.913803,2.827271,-163.65247,0.6978463,1.8838332,-0.3447338,-0.1256391,-0.13879383,0.12014344
20231225 03:39:41,0.978673,1.439010,0.963133,-0.417838,-0.129768,0.031205,4.580597,-18.236740,2.114357,-163.2964,1.4087243,1.435303,-1.0365393,-0.2901947,-0.1171789,0.23290548
20231225 03:39:41,0.967895,0.704617,1.790240,-0.521177,-0.122310,-0.007148,4.923397,-18.490730,1.866409,-163.3714,1.8052937,0.7065491,-1.796278,-0.4374112,-0.117955394,0.2670802
20231225 03:39:41,0.761941,-0.119473,2.593167,-0.538222,-0.097807,-0.029520,4.959637,-18.302536,2.122421,-163.50626,1.9852977,-0.12272682,-2.5541039,-0.476813,-0.09995321,0.27674046
20231225 03:39:41,0.442457,-1.025478,3.232405,-0.457256,-0.045605,-0.026324,4.729393,-18.505341,1.865433,-164.64307,1.8122346,-1.0560431,-3.2457561,-0.42290467,-0.058009163,0.21008654
20231225 03:39:41,0.228182,-1.874304,3.750812,-0.293192,0.018316,-0.015671,4.948101,-18.955750,1.495094,-164.58037,1.5896261,-1.919841,-3.9205854,-0.27945375,0.007190789,0.12415816
20231225 03:39:41,0.189988,-2.638505,4.144147,-0.057750,0.035361,-0.026324,5.259033,-17.897781,1.697067,-163.12184,1.4543355,-2.6750813,-4.5700636,-0.06336883,0.033641424,0.05117308
20231225 03:39:41,0.301416,-3.185102,4.268838,0.257593,-0.009383,-0.080657,5.134949,-18.094185,1.574684,-163.82602,1.4616385,-3.2028737,-4.8830986,0.22628433,-0.0035963785,0.0024776384
20231225 03:39:41,0.530635,-3.448213,3.771813,0.627269,-0.054128,-0.173342,5.399635,-18.645172,2.015190,-163.5912,1.6323164,-3.4531662,-4.5434127,0.5479288,-0.048718713,-0.041549668
20231225 03:39:41,0.635693,-3.124359,2.475145,0.939416,-0.081827,-0.257505,5.648197,-18.444221,2.540436,-162.4994,1.5619612,-3.126138,-3.2847884,0.7630959,-0.07730248,-0.16549753
20231225 03:39:41,0.670074,-2.588534,0.978157,1.089630,-0.103134,-0.312903,5.690830,-18.719200,2.156898,-161.71883,1.071936,-2.5887136,-1.8391721,0.7777685,-0.10577685,-0.32770774
20231225 03:39:41,0.703468,-1.976796,-0.349790,1.062996,-0.147879,-0.333144,5.369301,-18.100761,3.587006,-161.76987,0.3242532,-1.97694,-0.6661707,0.6137308,-0.14807345,-0.46190432
20231225 03:39:41,0.685705,-1.320662,-1.248201,0.902128,-0.245891,-0.317164,6.039925,-18.432480,4.017250,-158.51385,-0.49186122,-1.3336738,-0.06599164,0.35711348,-0.2537293,-0.5409551
20231225 03:39:41,0.822526,-0.621007,-2.202929,0.616615,-0.310877,-0.250047,5.863468,-18.065163,3.723564,-157.12485,-1.3827417,-0.72972006,0.32430393,0.12751077,-0.33702242,-0.44854808
20231225 03:39:41,0.969538,-0.260691,-2.803320,0.270377,-0.309812,-0.150970,6.118423,-18.327385,3.609253,-156.38112,-1.9046643,-0.54936296,0.4485327,-0.014750101,-0.33518657,-0.22383477
20231225 03:39:41,1.179770,-0.288204,-2.962985,-0.103560,-0.256544,-0.055088,6.276180,-18.500954,3.354218,-157.1461,-1.8927343,-0.7766769,0.38935888,-0.13516784,-0.25207508,0.06184744
20231225 03:39:41,1.461739,-0.515280,-2.530630,-0.448733,-0.181970,0.012028,6.339706,-18.219597,3.872360,-160.45169,-1.0783731,-1.0639217,0.2646122,-0.30164704,-0.121857144,0.30221105
20231225 03:39:41,1.662503,-1.025357,-1.492705,-0.704417,-0.148944,0.015224,6.557648,-18.286240,2.941086,-159.74379,0.12142515,-1.3822854,-0.34810257,-0.52697295,-0.05871205,0.42608362
20231225 03:39:41,1.568695,-1.381557,-0.405783,-0.851435,-0.141487,-0.031651,6.327785,-18.680923,2.964561,-161.02417,0.93098986,-1.5499436,-0.97968125,-0.71539366,-0.061439466,0.4900809
20231225 03:39:41,1.399974,-1.550812,0.630085,-0.885526,-0.173447,-0.114748,6.327015,-18.297150,2.403618,-160.24994,1.4484122,-1.6157293,-1.6944395,-0.81600034,-0.11560618,0.5175802
20231225 03:39:41,1.156308,-1.490827,1.285462,-0.827997,-0.202211,-0.222348,6.563271,-18.365631,1.740585,-158.7009,1.6295829,-1.501525,-2.0875545,-0.8245425,-0.17913218,0.55104756
20231225 03:39:41,0.775541,-1.184035,1.497506,-0.723593,-0.189427,-0.317164,6.581970,-18.559364,2.289299,-158.48997,1.4718149,-1.1865937,-1.9571366,-0.7785664,-0.19720213,0.5801594
20231225 03:39:41,0.163396,-0.760574,1.585290,-0.606404,-0.147879,-0.367235,6.720646,-18.347321,1.205063,-156.3775,1.0562626,-0.82355714,-1.5478848,-0.70002735,-0.17337261,0.5690297
20231225 03:39:41,-0.460614,-0.334379,1.671844,-0.484955,-0.088219,-0.366170,6.817459,-18.244072,1.065323,-155.18759,0.60231125,-0.5381292,-1.0917835,-0.5968801,-0.116090745,0.52044094
20231225 03:39:41,-1.017687,0.053391,1.589569,-0.358178,-0.006187,-0.319295,7.038357,-17.944397,1.047958,-153.68512,0.07098967,-0.30271822,-0.5480937,-0.47248667,-0.027475648,0.438895
20231225 03:39:41,-1.451014,0.167382,1.820625,-0.194115,0.085433,-0.230871,7.135170,-17.841148,0.908211,-153.16556,-0.20281553,-0.3945098,-0.4380585,-0.29940486,0.076053195,0.31167057
20231225 03:39:41,-1.861783,0.241237,1.924473,0.005105,0.145092,-0.103029,7.180374,-17.557945,1.158112,-152.54308,-0.50584507,-0.4949063,-0.24305701,-0.07546802,0.15690248,0.1268861
20231225 03:39:41,-1.937293,0.157949,1.694850,0.205391,0.163203,0.049316,7.214432,-18.119835,1.061165,-152.92996,-0.650032,-0.5654079,-0.03720808,0.1677942,0.19531554,-0.095163964
20231225 03:39:41,-1.646180,-0.011979,1.069595,0.360932,0.166399,0.195268,7.293694,-18.398506,1.214111,-152.47572,-0.6677714,-0.5137927,0.25249803,0.37482977,0.20344089,-0.296974
20231225 03:39:41,-1.066125,-0.166574,0.306972,0.457878,0.161072,0.318849,7.144516,-17.938019,1.182564,-151.8723,-0.598338,-0.3614116,0.42206514,0.5311531,0.18605222,-0.45245752
20231225 03:39:41,-0.352447,-0.408861,-0.429129,0.498362,0.141896,0.401946,6.845123,-18.342781,1.607925,-153.52164,-0.5164679,-0.40245834,0.38745695,0.62599146,0.15160234,-0.5560479
20231225 03:39:41,0.272063,-0.657365,-1.125902,0.472793,0.133373,0.439233,6.908642,-18.061424,2.126076,-153.65892,-0.5977231,-0.6304628,0.30998984,0.64205647,0.13384263,-0.5714688
20231225 03:39:41,0.820467,-0.765806,-1.615693,0.383304,0.105674,0.434972,6.765858,-18.064110,1.454979,-153.95668,-0.66569346,-0.8756722,0.15251958,0.58392847,0.10929913,-0.51526475
20231225 03:39:41,1.217959,-0.835386,-2.034441,0.260789,0.097151,0.403011,6.739731,-18.732948,2.034256,-156.2684,-0.81159693,-1.157317,0.080830574,0.48261067,0.11504258,-0.4131607
20231225 03:39:41,1.504482,-0.761230,-2.255084,0.113771,0.106740,0.341221,6.484009,-18.086945,1.587631,-156.33629,-0.85365415,-1.2878121,-0.030987024,0.34621745,0.14267804,-0.25994134
20231225 03:39:41,1.699897,-0.661623,-2.327371,-0.040705,0.123785,0.255993,6.732567,-17.885994,2.112869,-156.3523,-0.7901675,-1.2494786,-0.13192976,0.18787712,0.16790374,-0.08566436
20231225 03:39:41,1.620081,-0.531323,-2.161125,-0.198376,0.142961,0.163308,6.590553,-18.272461,2.002716,-156.56763,-0.63352174,-0.97534925,-0.07945752,0.01158762,0.18333292,0.090297304
20231225 03:39:41,1.346487,-0.439950,-1.761656,-0.334741,0.136569,0.091930,6.123280,-18.022995,1.847816,-157.18861,-0.40967238,-0.66521347,-0.0055122375,-0.14921556,0.16619259,0.22463934
20231225 03:39:41,1.026909,-0.389262,-1.221196,-0.440210,0.116328,0.053577,6.466465,-18.468872,1.880333,-156.34183,-0.14775038,-0.45341974,-0.045568824,-0.27010447,0.13039492,0.30956587
20231225 03:39:41,0.725493,-0.266903,-0.662234,-0.506262,0.095021,0.042924,6.325867,-17.721474,1.562202,-155.87224,0.08292487,-0.2721924,-0.1281746,-0.34253407,0.09718068,0.3431513
20231225 03:39:41,0.566947,-0.246164,-0.091330,-0.516915,0.063060,0.048250,6.756508,-17.967239,1.180611,-154.82655,0.3760608,-0.23885582,-0.3831517,-0.36395538,0.056749918,0.32113764
20231225 03:39:41,0.451696,-0.361722,0.174680,-0.481759,0.059864,0.064231,6.357349,-18.841553,0.831802,-156.95822,0.46594808,-0.35542017,-0.5201885,-0.33279687,0.04913686,0.27788875
20231225 03:39:41,0.393588,-0.374769,0.443052,-0.422099,0.076910,0.078080,6.420101,-18.176414,0.789009,-156.3964,0.59023046,-0.37298015,-0.68071985,-0.28882807,0.06287806,0.22491936
20231225 03:39:41,0.288178,-0.385373,0.676980,-0.342198,0.082237,0.077015,6.386047,-17.614525,0.885963,-155.95886,0.64907455,-0.3938844,-0.79239666,-0.2293123,0.06594598,0.17674544
20231225 03:39:41,0.123623,-0.279990,0.755516,-0.253774,0.098217,0.090864,6.260155,-18.752914,0.691078,-157.35162,0.5664494,-0.30381396,-0.71548593,-0.15108095,0.08048052,0.11706987
20231225 03:39:41,-0.006338,-0.167294,0.777772,-0.157893,0.134439,0.102583,6.013779,-18.203789,0.518814,-157.32672,0.47553447,-0.20638028,-0.61645323,-0.06973679,0.11842686,0.062204234
20231225 03:39:41,-0.145801,-0.062107,0.741938,-0.053489,0.177053,0.111106,6.638813,-18.626823,0.418671,-155.33069,0.34475893,-0.12365632,-0.4608157,0.0142879635,0.16405101,0.011724673
20231225 03:39:41,-0.358944,0.046829,0.596148,0.054111,0.213274,0.127086,6.676861,-17.496666,0.747192,-153.44415,0.09042391,-0.04588913,-0.17039445,0.10244937,0.20574701,-0.048392422
20231225 03:39:41,-0.596458,0.104652,0.304615,0.144666,0.234581,0.150524,6.649582,-17.589844,0.485062,-152.84361,-0.26854876,-0.0055852756,0.2188873,0.18091223,0.23325527,-0.1145797
20231225 03:39:41,-0.661634,0.179756,-0.045123,0.213914,0.242039,0.178223,6.729233,-18.060410,0.918480,-152.52013,-0.53663963,0.09708993,0.54026043,0.24718639,0.24451496,-0.17955956
20231225 03:39:41,-0.493601,0.273860,-0.593189,0.250135,0.254823,0.199530,6.296013,-18.372833,0.666626,-153.12277,-0.79655623,0.28412345,0.8085072,0.28461677,0.25624624,-0.22365548
20231225 03:39:41,-0.392659,0.494794,-1.032691,0.250135,0.288914,0.205922,6.041828,-18.494392,1.341888,-153.65443,-1.0849407,0.57376933,1.0524877,0.28155434,0.28674185,-0.22472058
20231225 03:39:41,-0.368684,0.667619,-1.365848,0.243743,0.346443,0.212314,6.174114,-17.819176,0.897217,-150.70345,-1.3654628,0.8015763,1.2452521,0.26914585,0.3392911,-0.19873495
20231225 03:39:41,-0.395869,0.940777,-1.547389,0.238417,0.414625,0.232556,6.174881,-18.202950,1.458160,-150.61456,-1.5906246,1.1150734,1.4157538,0.26197028,0.39899358,-0.18866742
20231225 03:39:41,-0.457747,1.046102,-1.721050,0.233090,0.500918,0.274104,6.014935,-18.779457,1.360229,-151.24532,-1.8033937,1.2632192,1.5703471,0.26562047,0.47109208,-0.18639454
20231225 03:39:41,-0.561902,1.101197,-1.698002,0.212848,0.553120,0.329502,6.008156,-18.124397,1.719315,-150.70485,-1.8580023,1.2999268,1.6579939,0.28724608,0.50939703,-0.18060471
20231225 03:39:41,-0.389813,0.899473,-1.721834,0.167038,0.565905,0.393423,5.574554,-18.244934,1.186981,-153.28276,-1.7043848,1.0847893,1.4982468,0.32870394,0.5197477,-0.19144107
20231225 03:39:41,-0.062226,0.737354,-1.526467,0.096725,0.510507,0.448821,5.655621,-17.581642,1.412437,-153.58081,-1.2844748,0.85103065,1.1058751,0.36871484,0.4782841,-0.18463194
20231225 03:39:41,0.447321,0.497131,-1.463804,0.006171,0.412494,0.479716,5.522957,-18.064964,1.576637,-156.51106,-0.8419633,0.5073477,0.64143705,0.37042198,0.4098394,-0.18097477
20231225 03:39:41,0.965583,0.257063,-1.441872,-0.100364,0.305960,0.488239,5.275162,-18.649696,1.612335,-159.46074,-0.45259565,0.10509545,0.1964218,0.32616904,0.34306312,-0.14997073
20231225 03:39:41,1.542123,0.118574,-1.463668,-0.212226,0.237777,0.478651,5.205246,-18.467896,1.733749,-161.2737,-0.045354843,-0.26356778,-0.2159611,0.24513952,0.32359126,-0.089887545
20231225 03:39:41,2.063833,0.117662,-1.337764,-0.308107,0.194098,0.427514,5.177967,-18.561058,1.471619,-162.3597,0.46367806,-0.49286628,-0.63523287,0.13287038,0.3210344,-0.008544475
20231225 03:39:41,2.437710,0.174125,-1.182591,-0.385877,0.186641,0.332698,5.064644,-17.720497,1.415619,-162.65428,0.8955996,-0.55737364,-0.95179766,0.003532976,0.32360622,0.098944396
20231225 03:39:41,2.502256,0.308176,-0.939088,-0.431687,0.217536,0.200595,5.046329,-17.718651,1.147369,-161.89111,1.1383632,-0.31955492,-1.1170933,-0.11959842,0.3239266,0.22564226
20231225 03:39:41,2.171768,0.675067,-0.490248,-0.439145,0.258019,0.068492,4.877419,-18.390167,1.055557,-161.72678,1.2408029,0.38015586,-1.0853208,-0.22909644,0.3095787,0.32595664
20231225 03:39:41,1.403604,1.122996,0.048934,-0.403988,0.281457,-0.024193,5.009705,-17.714951,0.610886,-158.94977,1.0459003,1.0863726,-0.7545224,-0.29186976,0.2912896,0.37547514
20231225 03:39:41,0.591210,1.538621,0.498968,-0.337937,0.282522,-0.056154,5.167465,-17.888527,0.355835,-157.66191,0.69943166,1.5393949,-0.3332581,-0.2905676,0.26918888,0.35220164
20231225 03:39:41,-0.117944,1.897856,0.842686,-0.245251,0.253758,-0.039108,4.700962,-18.022842,0.761879,-159.45036,0.3222198,1.7830198,-0.0020295978,-0.22495608,0.23101136,0.26301345
20231225 03:39:41,-0.662022,2.138924,0.928713,-0.139782,0.224993,0.021617,4.788807,-18.014618,0.628250,-158.6959,-0.094721556,1.890251,0.41294783,-0.112440646,0.199882,0.14313802
20231225 03:39:41,-0.876499,2.260942,0.882683,-0.025790,0.204752,0.111106,4.929024,-18.570122,0.665909,-158.50085,-0.30139327,1.972185,0.6387171,0.031823076,0.18145147,-9.3413144E-4
20231225 03:39:41,-0.741036,2.201368,0.645590,0.083941,0.209013,0.195268,4.815701,-17.729561,0.609909,-157.73271,-0.32098684,1.9944094,0.70514876,0.17107444,0.19045173,-0.13052544
20231225 03:39:41,-0.490885,2.178972,0.327537,0.173430,0.226059,0.262385,4.701347,-18.214737,1.042358,-158.78629,-0.31331962,2.0766513,0.687837,0.28554508,0.21236484,-0.23778288
20231225 03:39:41,-0.000311,2.021170,-0.039457,0.226698,0.260150,0.301803,4.870258,-17.543221,1.134171,-157.59392,-0.1555799,2.0168025,0.5266001,0.35969606,0.25264603,-0.28914866
20231225 03:39:41,0.320260,2.130535,-0.129656,0.237351,0.278261,0.300738,4.649742,-18.034767,1.432007,-158.98051,0.014190242,2.1434813,0.30877846,0.3714052,0.27345735,-0.29830626
20231225 03:39:41,0.441599,2.390911,-0.277624,0.154254,0.215405,0.286888,4.401951,-18.619492,1.467712,-160.3294,-0.033487663,2.4113245,0.3114469,0.31269246,0.20905302,-0.24339503
20231225 03:39:41,0.502516,2.245284,-0.397141,-0.033247,0.080106,0.277300,4.755135,-17.644615,1.005676,-157.67776,-0.04880956,2.262117,0.36454356,0.19472167,0.07330224,-0.114453346
20231225 03:39:41,0.787387,1.935796,-0.387393,-0.265493,-0.060520,0.285823,3.951839,-17.796219,0.739632,-162.43456,0.28379607,1.9025105,0.034443125,0.038602546,-0.04516472,0.008623481
20231225 03:39:41,1.322585,1.447278,-0.166112,-0.437014,-0.104199,0.265581,4.365326,-18.615791,0.931221,-163.16219,0.9305064,1.2943107,-0.5656447,-0.118640184,-0.03630715,0.12288311
20231225 03:39:41,2.011440,1.043699,0.183314,-0.565921,-0.028560,0.170765,4.321918,-17.957047,0.753815,-164.03928,1.7435868,0.7748732,-1.2630216,-0.31191278,0.06981254,0.25062525
20231225 03:39:41,2.162337,0.469594,0.871263,-0.669260,0.049211,-0.001821,4.373520,-18.136993,0.364159,-164.20872,2.2877853,0.284318,-1.868482,-0.53125626,0.1284722,0.4147256
20231225 03:39:41,1.731687,0.044298,1.831731,-0.740638,0.077975,-0.173342,4.551781,-17.562355,0.730331,-163.78479,2.441936,0.00718344,-2.4019842,-0.7150005,0.118555486,0.5552623
20231225 03:39:41,1.090970,-0.254694,2.848764,-0.744900,0.055603,-0.292661,4.409382,-17.756920,0.339706,-164.35426,2.3210328,-0.25626093,-2.9912262,-0.79425424,0.053607363,0.61692494
20231225 03:39:41,0.307987,-0.660607,3.611092,-0.659672,0.032165,-0.328883,4.936832,-17.899445,-0.181625,-162.99046,1.7983086,-0.7452749,-3.4438658,-0.73730385,-6.0490984E-4,0.5690254
20231225 03:39:41,-0.317653,-1.314934,4.137466,-0.465778,0.052407,-0.285204,4.803013,-17.807091,-0.858833,-163.83609,1.2168401,-1.4982626,-3.9430945,-0.5381865,0.016043155,0.43533647
20231225 03:39:41,-0.640280,-1.986396,4.329496,-0.213291,0.071583,-0.195714,5.121105,-17.596069,-0.735481,-162.99863,0.77713794,-2.2023997,-4.2991867,-0.26510006,0.054026995,0.2633446
20231225 03:39:41,-0.582254,-2.563947,4.271757,0.040262,0.035361,-0.110487,5.193592,-17.219696,-0.223442,-162.53333,0.6813514,-2.7264683,-4.4970126,0.0074685104,0.042176604,0.1004443
20231225 03:39:41,-0.148251,-2.980293,3.822562,0.263985,-0.061585,-0.066807,5.376060,-17.858284,-0.849792,-162.55472,0.9055723,-3.0409606,-4.3413234,0.23806733,-0.04595349,-0.025763646
20231225 03:39:41,0.478010,-3.304539,2.860891,0.438702,-0.167055,-0.075330,5.306911,-18.060257,-0.167442,-163.01051,1.220709,-3.3054092,-3.696134,0.40325606,-0.1657308,-0.09370079
20231225 03:39:41,1.072298,-3.553864,1.760088,0.553760,-0.254413,-0.133924,5.555088,-17.667419,0.077324,-161.9974,1.4689143,-3.5786092,-2.9628286,0.48854724,-0.28727975,-0.11092201
20231225 03:39:41,1.530366,-3.582356,0.706249,0.601700,-0.275720,-0.239394,5.149151,-17.886681,0.087593,-163.33778,1.5416908,-3.69472,-2.1201587,0.4757315,-0.34665197,-0.061512485
20231225 03:39:41,1.761698,-3.203238,-0.063222,0.577197,-0.278916,-0.373628,5.415260,-17.303795,0.320137,-161.81316,1.4087127,-3.3907778,-1.5784329,0.359995,-0.3661658,0.008208603
20231225 03:39:41,1.680447,-2.662518,-0.788307,0.466401,-0.284243,-0.530234,5.715805,-17.474701,0.736191,-160.26735,0.85148835,-2.8594723,-1.0192019,0.1012474,-0.36117387,0.09670538
20231225 03:39:41,1.330319,-1.932537,-1.242257,0.276769,-0.251217,-0.681513,5.907623,-18.210159,0.384201,-158.34206,0.26236337,-1.9954821,-0.4565766,-0.19876103,-0.27350226,0.2617693
20231225 03:39:41,0.608621,-1.281347,-1.308096,0.064765,-0.195819,-0.814682,6.570316,-17.311165,0.332108,-153.12646,-0.2764361,-1.1207092,0.056829333,-0.45750147,-0.12774959,0.44609898
20231225 03:39:41,-0.495942,-0.638673,-0.913308,-0.128063,-0.124441,-0.888191,6.561737,-17.598076,0.618698,-153.17815,-0.83180267,-0.56095296,0.7220136,-0.62130404,0.006625399,0.6496557
20231225 03:39:42,-1.596278,-0.100519,-0.155025,-0.256970,-0.056259,-0.873276,7.063717,-16.891785,-0.092262,-150.9922,-1.3332442,-0.5229923,1.038735,-0.6853533,0.0670674,0.7410778
20231225 03:39:42,-2.584260,0.179185,0.707471,-0.301715,-0.013645,-0.765676,7.530987,-17.141243,0.062637,-151.08754,-1.8173282,-0.9051787,1.0143672,-0.6370101,0.06413724,0.718357
20231225 03:39:42,-3.312008,0.196158,1.382799,-0.256970,0.023642,-0.579240,7.733570,-16.839729,-0.222969,-151.00049,-2.1909597,-1.3949089,0.8190541,-0.4993864,0.061423637,0.5753779
20231225 03:39:42,-3.586968,0.185030,1.836128,-0.140847,0.037492,-0.332079,7.690552,-16.372864,-0.119904,-150.79356,-2.2742572,-1.5976508,0.5418012,-0.2824245,0.055383615,0.3367725
20231225 03:39:42,-3.515817,0.032532,1.956922,0.018955,0.022577,-0.070003,7.733955,-17.031616,0.057495,-151.63368,-2.1314104,-1.6732203,0.3200277,-0.02081895,0.04244064,0.05261501
20231225 03:39:42,-2.907403,-0.280282,1.530265,0.168104,0.005531,0.159046,7.610252,-17.419922,0.215591,-152.10413,-1.6863879,-1.4841378,0.24971509,0.2192961,0.027731799,-0.20538147
20231225 03:39:42,-1.903611,-0.636058,0.773695,0.267181,-0.006187,0.299672,7.600906,-17.323059,-0.058769,-151.26105,-1.0801919,-1.2113407,0.22355974,0.38132888,0.011670597,-0.36882874
20231225 03:39:42,-0.939331,-0.948232,-0.004581,0.302337,-0.021102,0.351875,7.452110,-17.054459,0.190155,-150.80379,-0.64954114,-1.0924591,0.16822362,0.44778764,-0.011058137,-0.43378174
20231225 03:39:42,-0.236271,-1.142096,-0.722090,0.288488,-0.010449,0.338025,7.321239,-16.595825,0.426857,-149.99974,-0.51584435,-1.0880628,0.18817595,0.4338677,-0.007299347,-0.41238737
20231225 03:39:42,0.207034,-1.184773,-1.190711,0.224567,0.005531,0.293280,7.461456,-17.151329,0.464516,-150.16292,-0.5126962,-1.0799218,0.21046329,0.35838354,0.0040819403,-0.33702284
20231225 03:39:42,0.454838,-1.197644,-1.377855,0.142535,0.006597,0.231490,7.286533,-17.551567,1.292725,-151.89929,-0.48353335,-1.0933671,0.19963986,0.2579115,0.0031756815,-0.24547644
20231225 03:39:42,0.524379,-1.181790,-1.591421,0.047719,0.014054,0.164373,7.391926,-17.161400,0.866394,-150.37796,-0.5939125,-1.0666835,0.25383472,0.14335112,0.008395551,-0.13359177
20231225 03:39:42,0.519592,-1.131894,-1.602478,-0.042835,0.014054,0.094060,7.116856,-17.839302,0.639969,-151.98444,-0.5887685,-0.99373853,0.3238353,0.02843972,0.005310676,-0.029439256
20231225 03:39:42,0.320507,-1.082240,-1.384657,-0.109952,-0.004057,0.031205,6.685440,-17.209763,0.460609,-152.56227,-0.5546565,-0.92990124,0.35026473,-0.063590586,-0.01715235,0.048475303
20231225 03:39:42,0.066635,-0.927165,-1.147548,-0.152566,-0.038148,-0.009279,7.408318,-16.203812,-0.267715,-147.61998,-0.58393264,-0.78994304,0.31859848,-0.118705995,-0.0552469,0.088630624
20231225 03:39:42,-0.108139,-0.781301,-1.009344,-0.178135,-0.067978,-0.019932,7.504745,-15.908676,-0.687935,-146.40453,-0.63461494,-0.67318314,0.38282162,-0.14185975,-0.08820234,0.098045036
20231225 03:39:42,-0.246167,-0.674542,-0.899601,-0.201572,-0.090350,-0.005017,7.223663,-16.315292,0.005661,-148.80061,-0.679429,-0.596317,0.48043114,-0.1480819,-0.11563369,0.09607574
20231225 03:39:42,-0.224066,-0.681192,-0.822869,-0.230337,-0.108461,0.023747,7.700169,-14.760208,-0.894936,-143.61424,-0.61447537,-0.6150063,0.34179303,-0.1528443,-0.13896647,0.08029908
20231225 03:39:42,-0.071482,-0.728806,-0.691022,-0.266558,-0.126572,0.052512,7.329823,-16.308914,0.140274,-149.41943,-0.41980374,-0.6738795,0.22049606,-0.16741683,-0.15728943,0.07818505
20231225 03:39:42,0.173671,-0.845367,-0.492581,-0.302780,-0.140421,0.058904,7.495781,-16.003693,-0.681824,-148.59067,-0.10628979,-0.8048427,-0.11880258,-0.20255622,-0.1640825,0.07910962
20231225 03:39:42,0.531336,-1.103811,-0.072687,-0.318760,-0.164924,0.030139,7.160526,-16.788544,-0.232018,-152.24297,0.43116093,-1.0775774,-0.6703079,-0.24231184,-0.1791747,0.09302533
20231225 03:39:42,0.605075,-1.181307,0.081812,-0.309172,-0.197950,-0.033782,7.160526,-16.788544,-0.232018,-152.79465,0.5751834,-1.1652733,-0.84197485,-0.27537572,-0.20584846,0.115148336
20231225 03:39:42,0.615124,-1.099894,0.247552,-0.276147,-0.227780,-0.115813,6.920933,-16.894470,-0.763374,-153.16444,0.67638946,-1.0825038,-0.9365627,-0.2893573,-0.23481275,0.15058099
