Timestamp,linacce_x,linacce_y,linacce_z,gyro_x,gyro_y,gyro_z,X-magnetometer,Y-magnetometer,Z-magnetometer,Yaw, worldXAccel,worldYAccel,worldZAccel,worldXgyro,worldYgyro,worldZgyro
20231225 03:36:50,0.579742,-1.221761,-0.839140,0.497296,0.296372,-0.110487,-2.250484,36.992973,-23.931923,-0.09835155,0.18168983,-1.2983485,-0.9968936,0.43093354,0.24638306,-0.28776583
20231225 03:36:50,0.568829,-1.370914,-0.806938,0.517538,0.315548,-0.143512,-2.737869,36.302319,-24.427574,0.72770494,0.2048637,-1.4385264,-0.939518,0.44363388,0.26643443,-0.3208437
20231225 03:36:50,0.462875,-1.713383,-0.348177,0.593177,0.249496,-0.230871,-2.552830,36.221909,-24.420479,1.0726886,0.28887665,-1.7484897,-0.44702113,0.49464563,0.20310515,-0.4121841
20231225 03:36:50,0.436406,-1.787385,-0.196734,0.677340,0.140831,-0.354451,-2.395073,36.048325,-24.675529,1.2458285,0.3151399,-1.8126731,-0.2902717,0.5295515,0.09542191,-0.55697286
20231225 03:36:50,0.314563,-1.649477,-0.232961,0.758306,0.021512,-0.490816,-2.491882,35.945084,-24.535789,2.083145,0.19045074,-1.6628292,-0.27222484,0.53832316,-0.012721971,-0.7260946
20231225 03:36:50,0.098529,-1.385672,-0.299678,0.837142,-0.095677,-0.603743,-2.801777,36.212849,-25.226189,3.0864863,-0.03976804,-1.3893219,-0.24529195,0.52517235,-0.11431784,-0.8826232
20231225 03:36:50,0.042506,-0.945617,-0.581329,0.904259,-0.183035,-0.677252,-2.857368,34.700764,-25.262032,3.2308404,-0.24152885,-0.951058,-0.48607495,0.48242718,-0.20322561,-1.0107923
20231225 03:36:50,0.141293,-0.401628,-0.885445,0.952200,-0.202211,-0.716670,-2.457825,35.383190,-24.632729,2.3552723,-0.36990634,-0.41814217,-0.8049625,0.404977,-0.23510937,-1.1123153
20231225 03:36:50,0.104871,0.402584,-1.122503,0.983095,-0.159597,-0.709212,-3.141022,33.735958,-25.201866,3.9990292,-0.61502475,0.39645377,-0.9633911,0.326737,-0.16907567,-1.1570739
20231225 03:36:50,-0.114165,1.121006,-1.110501,1.017186,-0.072239,-0.645291,-2.920124,34.035629,-25.219231,5.396372,-0.8523408,1.1473652,-0.8308544,0.33600098,-0.02219887,-1.1502587
20231225 03:36:50,-0.504655,1.672355,-0.900030,1.058735,0.027904,-0.527038,-2.796421,34.423939,-25.377312,6.9189906,-1.0842209,1.687515,-0.460114,0.418125,0.13253349,-1.1058484
20231225 03:36:50,-0.768284,2.147841,-0.553613,1.083238,0.067322,-0.380020,-2.941395,33.671181,-26.401375,7.784849,-1.0960271,2.1162782,-0.07915062,0.5198672,0.18012659,-1.0257983
20231225 03:36:50,-0.802816,2.255832,-0.187516,1.041689,-0.012579,-0.270289,-3.178799,34.315327,-26.579765,7.366412,-0.85288376,2.2054152,0.19941133,0.5795891,0.07250035,-0.9049333
20231225 03:36:50,-0.448862,2.104470,-0.138243,0.886148,-0.168120,-0.260701,-3.074829,33.571629,-26.798119,5.421255,-0.4735073,2.0946503,0.065503374,0.46686065,-0.13795407,-0.7872157
20231225 03:36:50,-0.135624,2.103236,-0.368524,0.605962,-0.273590,-0.364039,-3.284576,34.117058,-26.433907,4.8966274,-0.37782222,2.1053889,-0.29086706,0.1741448,-0.26367432,-0.6683686
20231225 03:36:50,-0.088581,2.109679,-0.350892,0.276769,-0.326857,-0.531299,-3.108887,34.133518,-26.701180,5.5303016,-0.36642173,2.1152058,-0.33371425,-0.16354175,-0.30411935,-0.5492685
20231225 03:36:50,-0.445205,2.225383,-0.066447,0.025347,-0.388647,-0.706016,-3.868389,33.131268,-26.509346,8.184036,-0.49624997,2.194596,0.023327433,-0.43897572,-0.34604603,-0.48828185
20231225 03:36:50,-0.731333,1.908285,0.306563,-0.006613,-0.369471,-0.938262,-3.963779,34.161869,-26.577568,9.8164835,-0.51556253,1.7938818,0.46236604,-0.5838653,-0.28673127,-0.6457334
20231225 03:36:50,-1.511311,2.443532,0.894197,0.148927,-0.407824,-1.036274,-3.963398,33.969982,-26.297081,13.533983,-0.9264819,1.9696053,1.2323949,-0.49902016,-0.20706683,-0.7774296
20231225 03:36:50,-2.398810,2.735862,0.515146,0.399284,-0.318334,-0.983007,-4.512772,32.230408,-26.189003,19.302721,-2.084017,1.7960427,1.357388,-0.26609886,0.053162515,-0.8701772
20231225 03:36:50,-3.339920,2.498241,-1.031454,0.612354,0.100347,-0.860492,-4.485497,32.323578,-25.926857,34.16258,-4.164982,0.4481709,0.74931043,-0.022974193,0.8406689,-0.97677463
20231225 03:36:50,-4.775243,1.905004,-2.762863,0.744457,1.163565,-0.687905,-4.099289,31.410831,-25.997429,25.943947,-5.7182183,0.9177215,1.1883942,-0.36472687,1.525151,-1.3157662
20231225 03:36:50,-3.094804,3.219628,-0.275646,1.105610,1.258381,-0.421568,-4.135918,31.414532,-26.533913,18.85995,-3.1175995,2.3520098,1.3887159,0.137373,1.549725,-1.3587762
20231225 03:36:50,-1.935423,3.964750,0.456477,1.466763,0.760863,-0.195714,-3.536743,32.032177,-27.104149,14.747702,-1.6955624,3.4116533,1.125123,0.6395874,1.0188926,-1.3726572
20231225 03:36:50,-1.357510,2.846538,-1.156572,1.585017,0.450847,-0.124336,-3.397949,30.342815,-26.858528,17.577234,-2.4282422,2.729848,-0.086674035,0.73721606,0.7662797,-1.4222741
20231225 03:36:50,-1.328928,1.454440,-2.506651,1.482743,0.422083,-0.159493,-2.824902,30.291622,-26.849480,18.673317,-3.1034422,1.8170578,-0.5776056,0.6180515,0.75935924,-1.3712784
20231225 03:36:50,-1.003021,0.902994,-2.809548,1.306961,0.349639,-0.237263,-3.366081,29.030849,-27.308449,16.426039,-2.991079,1.3563012,-0.87407535,0.48326212,0.60427374,-1.2572744
20231225 03:36:50,-0.588907,1.568413,-2.408245,1.060865,-0.014710,-0.250047,-2.904816,29.052670,-26.233528,14.007188,-2.6191373,1.9381932,-0.92039484,0.35149372,0.16855371,-1.0290017
20231225 03:36:50,-0.225771,1.920846,-2.753687,0.703974,-0.498378,-0.201041,-4.017239,28.785053,-26.629036,14.259262,-2.8497884,2.3373203,-1.1955717,0.22168718,-0.39500272,-0.6625468
20231225 03:36:50,-0.000705,1.494832,-3.932523,0.278900,-0.770042,-0.191453,-3.779446,27.949020,-26.170174,15.977833,-3.877523,2.2710958,-1.5339183,0.08773449,-0.68844455,-0.24932462
20231225 03:36:50,0.147716,1.115670,-4.392082,-0.113148,-0.731689,-0.253243,-4.282192,27.626511,-26.020149,12.30973,-4.103078,1.6056246,-1.8539966,-0.1936582,-0.7031774,0.070030615
20231225 03:36:50,0.320347,1.020489,-3.948573,-0.398662,-0.656050,-0.304380,-4.405247,28.755836,-26.630989,10.106609,-3.41771,1.3072624,-2.157934,-0.40674353,-0.6471128,0.26879722
20231225 03:36:50,0.180627,0.874978,-3.089343,-0.548876,-0.570822,-0.343798,-4.694641,29.771832,-26.700188,12.208849,-2.5510204,1.2243311,-1.919013,-0.5234979,-0.56787425,0.33891922
20231225 03:36:50,-0.267758,0.753097,-2.215498,-0.574444,-0.474941,-0.366170,-5.065487,30.316429,-27.275307,14.511714,-1.9670935,1.0328163,-1.264931,-0.571689,-0.48120835,0.29700214
20231225 03:36:50,-0.724337,0.698698,-1.398411,-0.503066,-0.405693,-0.356582,-5.137974,29.940048,-27.787331,16.26525,-1.6070778,0.8022705,-0.5210107,-0.52779776,-0.41385815,0.21140592
20231225 03:36:50,-1.061385,0.829246,-0.831076,-0.376289,-0.360948,-0.331014,-5.311478,30.673668,-27.167107,16.772617,-1.4640625,0.76791394,0.038818717,-0.42848763,-0.35600558,0.12128347
20231225 03:36:50,-1.221891,1.128559,-0.531521,-0.235663,-0.324726,-0.293726,-5.267036,31.340652,-27.478127,16.584467,-1.4228323,0.9754082,0.29094973,-0.31065542,-0.30344534,0.03620881
20231225 03:36:50,-1.205124,1.311586,-0.291088,-0.115279,-0.318334,-0.269223,-6.078915,30.902138,-27.457588,17.13448,-1.2605861,1.1304476,0.3984759,-0.21553671,-0.28392947,-0.031658486
20231225 03:36:50,-1.005850,1.435351,-0.266601,-0.022594,-0.346033,-0.276681,-6.105808,30.617081,-27.439247,16.099262,-1.0899383,1.3067605,0.27827537,-0.16202128,-0.30216968,-0.10066859
20231225 03:36:50,-0.786906,1.519192,-0.414006,0.027478,-0.377994,-0.313968,-6.073936,29.305115,-27.889183,15.624085,-1.0320178,1.4546096,0.037730664,-0.15985085,-0.32704175,-0.15537275
20231225 03:36:50,-0.730921,1.703227,-0.501611,0.018955,-0.395039,-0.359778,-6.247055,29.846844,-26.988457,16.096443,-1.0914618,1.653989,-0.07763621,-0.19812086,-0.3351969,-0.16968353
20231225 03:36:50,-0.875696,1.964346,-0.508470,0.006171,-0.359883,-0.406653,-6.792828,29.991207,-26.735374,17.916698,-1.2676382,1.8776729,-0.05216348,-0.23749241,-0.28467658,-0.185756
20231225 03:36:50,-1.123938,2.058233,-0.314788,0.016824,-0.295962,-0.427960,-6.598053,29.622040,-26.173454,18.862616,-1.3565905,1.8660178,0.17853312,-0.24107239,-0.20665613,-0.22125874
20231225 03:36:50,-1.425470,2.002350,0.066251,0.061569,-0.246956,-0.433287,-6.792828,29.991207,-26.735374,19.694159,-1.3370662,1.6508154,0.5790856,-0.20627353,-0.14489436,-0.27260613
20231225 03:36:50,-1.711156,1.778031,0.576088,0.131882,-0.259740,-0.437548,-7.386753,29.486061,-27.646111,21.232029,-1.2207502,1.2430582,1.0828491,-0.1385694,-0.13853851,-0.31995535
20231225 03:36:50,-1.907699,1.623138,0.966886,0.202195,-0.348164,-0.411980,-7.190948,30.442635,-27.572639,21.045086,-1.1362891,0.9446554,1.4997814,-0.040880412,-0.20859146,-0.3283718
20231225 03:36:50,-2.036963,1.489892,1.128268,0.249070,-0.481333,-0.341667,-7.506855,30.981686,-27.343025,21.170193,-1.1410834,0.7588403,1.7064878,0.07013759,-0.34062183,-0.2712736
20231225 03:36:50,-1.896271,1.083910,1.168763,0.262920,-0.645396,-0.277746,-8.072742,30.185928,-27.430672,21.045313,-0.9462147,0.4716231,1.7356317,0.1419154,-0.524577,-0.18626277
20231225 03:36:50,-1.547142,0.620150,1.042208,0.297011,-0.788153,-0.229806,-8.390831,29.974903,-27.554039,20.07324,-0.67209,0.19446816,1.5586419,0.20235655,-0.68589413,-0.14066869
20231225 03:36:50,-1.125366,0.357502,0.959001,0.367324,-0.890426,-0.198910,-8.604954,29.020176,-27.895760,18.447187,-0.33606166,0.11412842,1.321602,0.25646842,-0.812212,-0.15371169
20231225 03:36:50,-0.576912,0.194275,0.766655,0.499427,-0.951151,-0.203172,-9.069271,29.635933,-27.136757,16.168165,0.031903267,0.10982451,0.8934168,0.3098278,-0.90123105,-0.26499385
20231225 03:36:50,0.011283,0.382222,0.189858,0.630465,-0.929844,-0.262831,-10.093460,29.184658,-27.385414,14.779148,0.13775909,0.38018996,0.05299589,0.27133206,-0.91977537,-0.45708454
20231225 03:36:50,0.433537,1.023803,-0.643043,0.620876,-0.874446,-0.366170,-9.943901,28.532280,-27.073418,13.062622,-0.21083173,0.998941,-0.8716301,0.07553303,-0.8951747,-0.58598655
20231225 03:36:50,0.499597,2.095392,-1.349223,0.453617,-0.811591,-0.432222,-10.419365,28.302944,-26.661263,14.855484,-0.85822463,2.0727568,-1.3912003,-0.14096247,-0.821097,-0.4961983
20231225 03:36:50,0.220699,3.386906,-1.693062,0.137209,-0.715709,-0.424764,-11.091797,27.692699,-27.163994,17.885704,-1.4744449,3.430041,-1.4382839,-0.2931058,-0.70321554,-0.2076722
20231225 03:36:50,0.020296,4.312529,-1.594510,-0.292127,-0.599586,-0.374693,-10.650764,28.675812,-27.759666,17.703068,-1.5766968,4.376225,-1.3622547,-0.44239238,-0.5895728,0.17412445
20231225 03:36:50,-0.013826,4.400081,-0.905986,-0.763011,-0.457895,-0.356582,-11.203308,29.475227,-27.147499,17.555754,-0.89669037,4.424827,-1.2065803,-0.7061825,-0.4623439,0.52200854
20231225 03:36:50,-0.008838,3.768283,0.712131,-1.173170,-0.310877,-0.393869,-11.416016,29.654362,-27.697182,17.224026,0.4130154,3.7458634,-0.2892527,-1.076906,-0.32963356,0.66848165
20231225 03:36:50,-0.213545,2.763197,2.677507,-1.427788,-0.190493,-0.443941,-11.519600,30.206169,-27.198357,18.007616,1.3446096,2.658874,1.4800487,-1.4006844,-0.23919667,0.5688882
20231225 03:36:50,-0.612639,1.666695,4.726933,-1.415004,-0.106330,-0.462051,-11.650848,30.856693,-27.242119,19.390848,1.6865953,1.4150834,3.7098465,-1.4556636,-0.19342604,0.33878124
20231225 03:36:50,-1.144223,0.535121,5.990886,-1.134817,-0.066912,-0.426895,-11.905426,30.927025,-26.847328,21.272331,1.2953093,0.12969375,5.3984365,-1.2066665,-0.16829112,0.10936788
20231225 03:36:50,-1.461748,-0.533845,6.281341,-0.672456,0.000205,-0.341667,-11.939857,31.680801,-27.030846,21.885107,0.7899034,-0.9986615,6.163014,-0.7478661,-0.0681882,-0.06685352
20231225 03:36:50,-1.582739,-1.187157,5.963001,-0.156828,0.065191,-0.246851,-11.678131,30.763523,-27.504250,22.364101,0.50756896,-1.6609502,6.1544023,-0.2316663,0.05519372,-0.18721882
20231225 03:36:50,-1.477805,-1.336109,5.146405,0.336429,0.107805,-0.137120,-11.854202,30.938953,-27.517448,22.312973,0.49864078,-1.7740121,5.449387,0.2607209,0.1577469,-0.27650654
20231225 03:36:50,-1.192794,-1.383060,3.784909,0.726346,0.141896,-0.006082,-11.863556,31.035824,-27.791817,21.252844,0.4498123,-1.6829283,4.1728616,0.658493,0.22108413,-0.33872122
20231225 03:36:50,-0.522648,-1.560389,2.234073,0.968180,0.125916,0.103648,-11.907608,30.176949,-27.200310,18.882463,0.53757215,-1.6307114,2.5843713,0.913544,0.16706006,-0.37095582
20231225 03:36:50,0.371326,-1.807473,0.738562,1.044885,0.047080,0.145197,-12.101227,29.970451,-26.920815,14.958813,0.6385705,-1.8023553,0.84125245,0.98080623,0.0010169344,-0.4062246
20231225 03:36:50,1.202044,-1.862783,-0.730809,0.986291,-0.037082,0.133478,-12.235321,28.353268,-26.548637,9.891089,0.37002003,-2.0984547,-1.015841,0.8797168,-0.17756268,-0.45130843
20231225 03:36:50,1.892206,-1.927502,-1.916512,0.827554,-0.082892,0.085537,-12.254402,28.738899,-27.377815,3.4412487,-0.112484336,-2.7075648,-2.5920634,0.6699058,-0.2709738,-0.46022087
20231225 03:36:50,2.292271,-1.925298,-2.804029,0.593177,-0.073304,0.007767,-12.061935,29.521061,-28.498741,-1.2020669,-0.6332673,-3.2456782,-3.6414852,0.41525966,-0.2439937,-0.40264425
20231225 03:36:50,2.291824,-1.789440,-3.164266,0.318318,-0.010449,-0.067873,-12.085487,29.410412,-27.286003,0.15836237,-0.97369456,-3.1897745,-3.848936,0.17574093,-0.11855419,-0.27461842
20231225 03:36:50,2.074150,-1.532553,-2.938785,0.042393,0.081171,-0.114748,-12.007378,29.707401,-27.974480,3.2249863,-0.9459219,-2.593897,-3.4652615,-0.030702002,0.040800773,-0.112787575
20231225 03:36:50,1.529746,-1.272986,-2.642639,-0.213291,0.263346,-0.117944,-12.124687,28.855923,-28.455940,14.467422,-1.0027707,-1.4342433,-2.6331797,-0.21913975,0.26589733,0.03936176
20231225 03:36:50,0.878345,-0.746867,-1.283069,-0.375224,0.565905,-0.051892,-12.061546,29.329170,-28.218254,14.017393,-0.10870975,-0.8411451,-1.3786895,-0.30731177,0.5820189,0.07885235
20231225 03:36:50,0.394164,-1.164015,-0.185972,-0.391204,0.455108,0.089799,-12.113914,29.892906,-28.389565,19.50422,0.26697925,-1.1279606,-0.0518305,-0.28865758,0.42549804,0.1696586
20231225 03:36:50,-0.340734,-1.181196,0.481873,-0.440210,0.506245,0.180353,-11.655609,29.548431,-28.228539,20.10946,0.005943015,-1.2275656,0.9131017,-0.31385592,0.45841658,0.21839228
20231225 03:36:50,-0.466175,-1.354340,1.590116,-0.419969,0.310221,0.261320,-11.681084,30.397224,-28.418175,20.384983,0.38356778,-1.469335,1.955777,-0.2678275,0.2556952,0.31537738
20231225 03:36:50,-0.500813,-1.521687,1.646970,-0.397596,0.140831,0.303934,-11.646645,29.643452,-28.234642,20.426888,0.37115252,-1.6333406,2.074497,-0.22222956,0.09108366,0.39110988
20231225 03:36:50,-0.428821,-1.408571,1.783795,-0.339002,0.081171,0.347613,-11.892632,30.000687,-28.126442,20.285872,0.49173245,-1.5123024,2.117764,-0.14613092,0.038694065,0.42012215
20231225 03:36:50,-0.487622,-1.146624,2.111555,-0.196245,0.061995,0.400880,-11.971519,30.087479,-27.998924,20.538565,0.6142045,-1.280783,2.3282714,0.012272507,0.026225777,0.40440193
20231225 03:36:50,-0.538301,-0.988104,1.838451,-0.021528,0.080106,0.439233,-11.451492,29.082394,-27.392250,20.721006,0.48685056,-1.1342323,2.0654576,0.19220382,0.053561375,0.3433388
20231225 03:36:50,-1.197833,-0.991167,0.766513,0.141470,0.408233,0.399815,-11.266838,29.193871,-27.665642,22.85629,-0.5113486,-1.2316376,1.5633079,0.29068476,0.38440216,0.10135856
20231225 03:36:50,-1.097764,-0.847772,0.958367,0.409938,0.711857,0.452017,-11.249672,29.767689,-28.238808,23.393581,-0.32329434,-1.123516,1.6165538,0.5057582,0.71743673,-0.11028996
20231225 03:36:50,-1.436593,-0.786317,0.100049,0.684797,0.912143,0.586251,-10.745773,29.514530,-27.547417,25.181255,-0.96090686,-1.0823886,1.2048153,0.73864836,0.93050706,-0.29889724
20231225 03:36:50,-1.442856,-0.650547,-0.638360,0.833946,1.222159,0.723681,-10.404510,30.028091,-28.917259,23.949419,-1.397525,-0.80778766,0.6777669,0.8889898,1.2270768,-0.40656948
20231225 03:36:50,-1.025966,-0.594429,-0.652174,0.897867,1.406464,0.846196,-10.106529,29.299007,-29.134636,22.078585,-1.1164848,-0.6585348,0.3654406,1.0308733,1.4059911,-0.37957448
20231225 03:36:50,-0.639621,-0.750051,-0.646914,0.880821,1.418183,0.913313,-9.226933,28.805634,-29.629570,18.240501,-0.83543277,-0.75308126,0.120517045,1.1306452,1.416696,-0.24199867
20231225 03:36:50,-0.192205,-0.833549,-0.602399,0.779613,1.289276,0.917574,-8.741348,28.554325,-29.206429,16.577784,-0.47298497,-0.80245495,-0.13733435,1.0926927,1.2826409,-0.10724521
20231225 03:36:50,-0.070891,-0.769444,-0.412611,0.637922,1.067684,0.888810,-8.592167,28.093838,-29.174873,15.520492,-0.27761313,-0.74858683,-0.10039052,1.0005723,1.056344,0.02293396
20231225 03:36:50,0.271908,-0.496437,-0.169214,0.498362,0.719315,0.879222,-8.089806,28.608231,-29.605370,13.090284,0.10596204,-0.48094034,-0.22013679,0.93392706,0.7083923,0.18551582
20231225 03:36:50,0.363387,-0.813673,-0.791539,0.326840,0.415691,0.863242,-7.809376,27.497215,-29.530052,13.057037,-0.24933743,-0.7724849,-0.6767049,0.81467384,0.39757514,0.32006308
20231225 03:36:50,0.601956,-1.472229,-1.787344,0.088202,0.291045,0.808909,-7.816154,28.152275,-29.170967,8.251246,-0.88909787,-1.5775189,-1.5321488,0.64239097,0.3229331,0.47874436
20231225 03:36:50,1.280023,-1.591878,-1.716801,-0.153632,0.379469,0.682132,-7.763783,27.588539,-28.999672,3.9592898,-0.3112234,-1.9195553,-2.0496948,0.36466366,0.46823663,0.5956848
20231225 03:36:50,1.837536,-1.329771,-0.434086,-0.242055,0.366684,0.507415,-7.597820,27.893749,-29.821770,2.7668006,1.087202,-1.6279867,-1.3823439,0.13869718,0.4516965,0.5377363
20231225 03:36:50,1.905565,-1.469965,0.246352,-0.201572,0.281457,0.314587,-7.464005,27.801411,-29.144569,3.7417262,1.5794001,-1.6853099,-0.785684,0.032935336,0.33374053,0.35774195
20231225 03:36:50,1.617299,-1.531168,0.450238,-0.116344,0.231385,0.151589,-7.614601,27.128048,-28.968132,6.3500986,1.4960415,-1.6428012,-0.39244494,0.0021030605,0.25009677,0.1687353
20231225 03:36:50,1.240620,-1.253777,0.518442,-0.007679,0.202621,0.061034,-7.366425,27.520885,-28.723366,7.8449254,1.2588654,-1.2978415,-0.17355356,0.037475046,0.20497987,0.03107086
20231225 03:36:50,0.947419,-0.850743,0.500550,0.104183,0.207948,0.026943,-6.946281,27.947662,-30.220726,8.607582,1.0416197,-0.86184686,-0.090161234,0.10208229,0.20618047,-0.06747724
20231225 03:36:50,0.628264,-0.547142,0.559245,0.194737,0.213274,0.045054,-7.412018,27.429565,-29.253746,11.028836,0.8439694,-0.54561406,0.1123164,0.17819333,0.21461205,-0.11993295
20231225 03:36:51,0.424885,-0.238466,0.611326,0.252266,0.169595,0.086603,-6.900688,28.038982,-29.690346,11.246344,0.725714,-0.24112357,0.21555716,0.24382295,0.17468226,-0.12433398
20231225 03:36:51,0.167533,0.034741,0.563436,0.271442,0.109936,0.151589,-7.245293,27.351002,-29.514900,12.854227,0.49921063,0.018983053,0.29057997,0.2984136,0.11596769,-0.089857355
20231225 03:36:51,0.205247,0.294105,0.532827,0.261854,0.030034,0.225098,-7.439678,27.528282,-29.796333,11.8731165,0.50513864,0.2866669,0.1994484,0.3442971,0.03138624,-0.02030155
20231225 03:36:51,0.490533,0.290358,0.496259,0.249070,-0.060520,0.265581,-7.658390,27.978695,-29.426003,10.290422,0.6991977,0.29016006,-0.016862273,0.36292326,-0.060519215,0.028317392
20231225 03:36:51,0.802834,0.170333,0.303140,0.238417,-0.131898,0.262385,-7.448261,27.241375,-29.509758,7.9545074,0.80270404,0.14645675,-0.3400508,0.3473212,-0.13151568,0.04321207
20231225 03:36:51,1.179880,-0.103993,0.253055,0.245874,-0.191558,0.206987,-7.238514,26.695950,-29.873985,5.398742,1.036403,-0.18340929,-0.59631157,0.3057587,-0.19529147,0.0015961677
20231225 03:36:51,1.427478,-0.237214,0.115494,0.279965,-0.222453,0.116433,-7.201885,26.692249,-29.337486,4.5787573,1.1055269,-0.36532658,-0.86901635,0.2638223,-0.23746456,-0.09138075
20231225 03:36:51,1.416190,-0.171601,-0.081145,0.339625,-0.214996,0.028009,-7.616405,26.186081,-29.040642,5.5022054,0.9449212,-0.30851725,-1.0323606,0.24377604,-0.24211611,-0.20170349
20231225 03:36:51,1.311801,-0.131649,-0.332540,0.412068,-0.161728,-0.049762,-7.829105,26.365211,-29.590324,6.1511326,0.67519766,-0.26596433,-1.156154,0.24076171,-0.19854973,-0.315926
20231225 03:36:51,1.128676,-0.075025,-0.498953,0.489839,-0.083958,-0.117944,-7.662380,26.286652,-29.851494,6.7872286,0.39334047,-0.18241973,-1.1600949,0.23934026,-0.12342266,-0.43307617
20231225 03:36:51,0.958530,0.103243,-0.761960,0.559086,0.005531,-0.178669,-7.450447,26.491299,-29.862740,7.5463653,0.03900975,0.018620074,-1.2285383,0.22294933,-0.029370928,-0.54268265
20231225 03:36:51,0.780152,0.332288,-1.112668,0.594243,0.100347,-0.227675,-7.777889,26.377136,-30.260460,9.24862,-0.39957744,0.2776599,-1.3189555,0.18302846,0.07858347,-0.61846006
20231225 03:36:51,0.630986,0.456738,-1.290241,0.596373,0.180249,-0.270289,-7.672501,26.767296,-30.686790,10.264484,-0.6676321,0.4421899,-1.3053963,0.13411891,0.17439054,-0.6575578
20231225 03:36:51,0.470888,0.641448,-1.340376,0.571870,0.209013,-0.321426,-7.451603,27.066963,-30.704155,11.79459,-0.84593177,0.6857014,-1.2123246,0.058423966,0.22815733,-0.6734686
20231225 03:36:51,0.225143,0.790165,-1.370652,0.524995,0.201556,-0.367235,-7.276943,25.757683,-30.482964,14.431872,-1.0676411,0.90255916,-1.0367513,-0.026214242,0.25543958,-0.66211843
20231225 03:36:51,-0.051416,0.913723,-1.432803,0.467466,0.180249,-0.390673,-7.487461,26.686886,-30.679695,17.18837,-1.3274276,1.0812162,-0.85815084,-0.08842574,0.26709253,-0.62496275
20231225 03:36:51,-0.310630,0.895636,-1.439170,0.406742,0.153615,-0.396000,-7.595421,25.738541,-30.886803,20.028936,-1.4984505,1.0899714,-0.66340405,-0.12269643,0.26632833,-0.57412773
20231225 03:36:51,-0.659443,0.886536,-1.406608,0.361997,0.136569,-0.375758,-7.241737,24.620129,-29.738518,22.781399,-1.6916937,1.0708936,-0.3658961,-0.1295206,0.2710961,-0.5230683
20231225 03:36:51,-0.930974,1.021084,-1.355196,0.350278,0.149353,-0.322491,-7.137115,25.394062,-30.725792,23.910397,-1.8500634,1.1577543,-0.14910889,-0.09744185,0.2843977,-0.48893014
20231225 03:36:51,-0.980367,1.100224,-1.308626,0.366258,0.169595,-0.248982,-7.499264,24.324158,-30.257637,24.38483,-1.8559123,1.2154604,-0.08506477,-0.039578155,0.2835908,-0.46908334
20231225 03:36:51,-0.782550,1.072641,-1.423345,0.369454,0.173856,-0.190388,-7.463020,24.512348,-30.001625,23.745956,-1.8299204,1.2529341,-0.2571665,-4.981011E-4,0.2680392,-0.44277188
20231225 03:36:51,-0.598821,1.066754,-1.681465,0.339625,0.157876,-0.142447,-7.350082,23.863670,-30.226097,23.261963,-1.9473709,1.3366437,-0.48147684,0.01734753,0.23177302,-0.39069748
20231225 03:36:51,-0.389442,1.153965,-1.800690,0.275704,0.114197,-0.092376,-7.127647,23.395782,-29.121574,21.633307,-1.95316,1.4452437,-0.68730897,0.03320866,0.16150767,-0.30306363
20231225 03:36:51,-0.172795,1.192620,-1.908281,0.189411,0.077975,-0.046566,-6.919056,23.426022,-30.327202,19.401077,-1.931585,1.4816169,-0.8975949,0.036982294,0.102198854,-0.19975132
20231225 03:36:51,0.076502,1.243701,-1.866820,0.100987,0.067322,-0.005017,-7.271587,23.968769,-30.634087,17.081429,-1.7323711,1.463457,-1.1062958,0.036299955,0.07405155,-0.10027916
20231225 03:36:51,0.362547,1.158886,-1.705048,0.028543,0.067322,0.020551,-7.208065,24.250126,-30.115944,13.80983,-1.366106,1.2704058,-1.2737118,0.027941601,0.06690891,-0.022851195
20231225 03:36:51,0.591544,1.114349,-1.467362,-0.030051,0.082237,0.026943,-6.787537,24.485016,-31.332817,10.879548,-0.96426415,1.1528202,-1.368073,0.0054882206,0.08124856,0.031332366
20231225 03:36:51,0.744255,0.941799,-1.052403,-0.072665,0.080106,0.006702,-6.662296,24.105766,-30.369026,10.045878,-0.44212487,0.94973594,-1.2972629,-0.036480743,0.079813845,0.05537972
20231225 03:36:51,0.773433,0.650532,-0.569666,-0.097168,0.039623,-0.038043,-7.519764,23.575932,-30.878868,11.868649,0.0064695477,0.66892505,-1.0342565,-0.08984044,0.039037142,0.049674347
20231225 03:36:51,0.678468,0.562606,-0.269452,-0.111018,-0.030690,-0.073199,-7.317177,23.877445,-31.164467,11.644123,0.20357361,0.5775925,-0.7654858,-0.12595639,-0.030975223,0.045675933
20231225 03:36:51,0.679289,0.461463,-0.191382,-0.114214,-0.092481,-0.097702,-7.147499,24.165184,-30.511711,11.755621,0.27006882,0.47862548,-0.70433885,-0.1456989,-0.09233078,0.040014543
20231225 03:36:51,0.703343,0.360883,-0.159183,-0.098233,-0.079696,-0.138186,-7.166195,24.358925,-31.060432,11.163271,0.3260923,0.3718882,-0.6835523,-0.16777971,-0.078865,-0.0022713318
20231225 03:36:51,0.701112,0.330981,0.037574,-0.035378,-0.020037,-0.197845,-7.262623,24.063786,-30.640205,12.228689,0.4783166,0.34663033,-0.5517048,-0.1720241,-0.015367336,-0.09711372
20231225 03:36:51,0.550117,0.411478,0.252036,0.081810,0.080106,-0.260701,-7.313454,23.859974,-29.689613,14.222868,0.5278564,0.42324796,-0.32014328,-0.14652582,0.098689295,-0.24079645
20231225 03:36:51,0.133255,0.663403,0.423573,0.232024,0.187706,-0.307576,-7.464821,23.570381,-30.074135,17.527771,0.33203614,0.6227706,0.03235458,-0.09950739,0.24116768,-0.40415835
20231225 03:36:51,-0.253870,1.034604,0.460719,0.373716,0.264411,-0.322491,-7.060688,22.847672,-30.156898,19.170898,0.040759236,0.9178953,0.25759715,-0.05134161,0.35150093,-0.5365619
20231225 03:36:51,-0.425336,1.616870,0.314201,0.449356,0.265476,-0.307576,-7.159031,23.511978,-31.139030,20.759127,-0.29988688,1.4601405,0.17918915,-0.026054218,0.37505877,-0.58796614
20231225 03:36:51,-0.481864,2.218212,0.028534,0.428049,0.203686,-0.271354,-7.141102,23.702015,-31.151268,20.682632,-0.6567077,2.0974674,-0.0026917122,-0.030182227,0.30181468,-0.5361899
20231225 03:36:51,-0.262798,2.772978,-0.374798,0.321514,0.147223,-0.247916,-6.710075,23.264370,-31.252373,19.581495,-0.95314527,2.752377,-0.40709564,-0.07807776,0.22243865,-0.41944885
20231225 03:36:51,-0.110722,3.257444,-0.451632,0.175561,0.153615,-0.235132,-7.098083,23.235149,-31.254326,19.727009,-1.010175,3.2600546,-0.64086115,-0.14352193,0.2085819,-0.28582925
20231225 03:36:51,-0.147045,3.601640,-0.268587,0.032804,0.245235,-0.225544,-6.984764,22.394585,-31.198326,19.900625,-0.9335734,3.5579185,-0.624759,-0.21655324,0.28308475,-0.17845535
20231225 03:36:51,-0.390388,3.552051,0.624510,-0.086515,0.333659,-0.218087,-6.428226,23.287205,-31.385033,19.838,-0.39126328,3.2905266,-0.039647102,-0.28527898,0.35399354,-0.11385668
20231225 03:36:51,-0.799045,3.246436,1.673041,-0.163220,0.356031,-0.199976,-6.551548,22.707008,-30.946480,21.395416,0.09211099,2.6837451,0.85178876,-0.32230335,0.3565091,-0.07867596
20231225 03:36:51,-1.226817,2.744504,2.561743,-0.182396,0.351770,-0.133924,-6.234222,23.301815,-31.384056,22.048853,0.35877,1.8749621,1.8162749,-0.29036278,0.32894853,-0.046972945
20231225 03:36:51,-1.605029,2.085860,3.112669,-0.180265,0.331528,-0.013540,-6.214756,22.724300,-30.274391,23.07242,0.36952007,1.0241942,2.595465,-0.20848817,0.27948633,0.013691455
20231225 03:36:51,-1.805053,1.152032,3.604878,-0.165350,0.256954,0.145197,-6.366508,22.626602,-30.939384,23.289146,0.436172,0.0670467,3.3670573,-0.09280333,0.18314157,0.124843754
20231225 03:36:51,-1.629670,-0.112613,3.670781,-0.134455,0.164268,0.286888,-5.608036,22.303108,-30.642784,21.67383,0.55401695,-0.99195427,3.7864885,0.012729958,0.0878552,0.24593502
20231225 03:36:51,-1.266398,-1.272248,3.668276,-0.112083,0.075844,0.364659,-6.208363,22.261131,-30.913963,21.247122,0.7183965,-1.87566,4.015936,0.06219858,0.0134960525,0.32813942
20231225 03:36:51,-0.793072,-2.316409,3.651760,-0.086515,-0.076500,0.372116,-5.898201,23.702885,-31.272911,18.684128,0.9124389,-2.676486,4.1590805,0.07607774,-0.1167205,0.37948292
20231225 03:36:51,-0.371316,-3.235123,3.441648,-0.049227,-0.265067,0.313522,-6.338192,24.045513,-31.165688,17.431507,1.0947411,-3.42713,4.083272,0.083932206,-0.2847806,0.36949253
20231225 03:36:51,0.047463,-3.510170,2.912733,0.009367,-0.409954,0.226163,-6.304138,23.483627,-31.262642,15.790989,1.3089097,-3.6029747,3.4443152,0.11232278,-0.41590598,0.29968464
20231225 03:36:51,0.404373,-3.555869,2.023086,0.104183,-0.435523,0.118563,-6.480598,23.850945,-31.556328,13.954462,1.3611224,-3.5842655,2.3563046,0.15917045,-0.43146515,0.15192933
20231225 03:36:51,0.655195,-3.307819,1.016829,0.219240,-0.288505,-0.007148,-6.463051,24.232872,-31.849022,12.192796,1.1771379,-3.302629,1.095617,0.19027242,-0.27873856,-0.069321774
20231225 03:36:51,0.756532,-2.683695,0.128606,0.306599,-0.037082,-0.147774,-6.002941,24.830360,-31.615501,11.842902,0.78216124,-2.6427083,0.034567848,0.14252642,-0.014119273,-0.30167407
20231225 03:36:51,0.447239,-1.817829,-0.455309,0.323644,0.216470,-0.282008,-6.462284,23.849094,-31.288078,16.995447,0.20764732,-1.6854545,-0.25406516,-1.4901161E-5,0.28497928,-0.46414518
20231225 03:36:51,-0.190629,-0.933480,-0.655016,0.272508,0.406102,-0.371497,-6.245377,22.456722,-31.730919,22.30793,-0.4008606,-0.7920662,-0.021864265,-0.17551088,0.51892906,-0.5326723
20231225 03:36:51,-0.894223,-0.328401,-0.617628,0.187280,0.537140,-0.394935,-6.164692,23.311897,-31.785942,26.777527,-0.91989475,-0.34857374,0.41209686,-0.30985177,0.6582103,-0.5307247
20231225 03:36:51,-1.549875,0.142419,-0.276664,0.105248,0.608518,-0.351255,-5.986427,23.886543,-31.419762,28.777876,-1.2748047,-0.24256977,0.9347977,-0.35987866,0.6918249,-0.48284838
20231225 03:36:51,-2.018654,0.339009,0.245369,0.051981,0.590408,-0.248982,-5.326954,22.709728,-31.336388,29.369085,-1.3715438,-0.43054676,1.4723665,-0.31471783,0.622654,-0.39229667
20231225 03:36:51,-2.200953,0.259331,0.571235,0.030674,0.482807,-0.103029,-5.141918,22.629318,-31.329292,29.282543,-1.3067006,-0.6824477,1.8017788,-0.1974105,0.47156397,-0.25493687
20231225 03:36:51,-2.112574,0.071253,0.597260,0.024282,0.340051,0.070623,-5.310833,21.957802,-31.421104,28.938992,-1.1665263,-0.7908712,1.8205721,-0.043120533,0.2909747,-0.09068595
20231225 03:36:51,-1.678307,-0.211751,0.396214,0.018955,0.186641,0.227229,-5.168427,22.152370,-31.030479,26.284777,-0.8831909,-0.7754789,1.4966866,0.10839291,0.11413966,0.07306789
20231225 03:36:51,-1.002558,-0.624541,0.078014,-0.008744,0.033231,0.335894,-5.528774,22.024433,-30.489830,22.875307,-0.51115626,-0.82898724,0.93582416,0.21435426,-0.044704683,0.21401003
20231225 03:36:51,-0.156205,-0.959119,-0.241573,-0.047097,-0.105265,0.380639,-5.089935,22.257469,-31.438469,16.762465,-0.14351419,-0.927443,0.14445424,0.2531219,-0.16348279,0.3060755
20231225 03:36:51,0.541646,-1.211816,-0.586446,-0.079057,-0.194754,0.361463,-5.399445,22.333347,-31.848427,12.964406,0.027161717,-1.1200248,-0.6025609,0.22858106,-0.22778727,0.324463
20231225 03:36:51,0.924811,-1.327823,-0.899837,-0.087580,-0.191558,0.314587,-5.708569,22.217339,-31.977882,10.6415825,-0.022081912,-1.264919,-1.1171209,0.18621755,-0.20540719,0.29241768
20231225 03:36:51,1.087288,-1.311131,-1.059186,-0.072665,-0.129768,0.263451,-5.599842,22.781906,-31.209831,10.043986,-0.06107837,-1.2522217,-1.3556526,0.15686843,-0.13916323,0.23835883
20231225 03:36:51,1.051602,-1.326172,-1.060329,-0.034313,-0.061585,0.228294,-5.750824,22.300426,-31.313881,10.895584,-0.05456972,-1.249682,-1.3119993,0.15134622,-0.071267344,0.18109164
20231225 03:36:51,0.986471,-1.436524,-1.002649,0.011497,-0.026429,0.197399,-5.335155,22.230934,-30.769341,10.32434,-0.03018421,-1.3660524,-1.2207093,0.15501589,-0.033189073,0.12477063
20231225 03:36:51,0.953977,-1.496472,-0.948620,0.054111,-0.032821,0.167569,-5.397907,21.565796,-30.726540,10.944671,0.0031710267,-1.4169538,-1.1414312,0.16165268,-0.037799254,0.074659236
20231225 03:36:51,0.853684,-1.555928,-1.030602,0.078614,-0.064781,0.131347,-5.380360,21.947720,-31.019234,12.124039,-0.092025876,-1.4358271,-1.0899235,0.15395042,-0.06838547,0.036725856
20231225 03:36:51,0.725342,-1.618320,-1.099512,0.081810,-0.121245,0.100452,-5.892075,21.530193,-30.863106,13.200903,-0.22735941,-1.4941912,-1.0077772,0.1372939,-0.12261856,0.022239726
20231225 03:36:51,0.688838,-1.524675,-1.202539,0.065830,-0.190493,0.067427,-5.698456,21.736694,-31.142586,13.169007,-0.3629983,-1.3834493,-1.0564852,0.10804581,-0.19051726,0.019291745
20231225 03:36:51,0.619804,-1.357861,-1.436612,0.026412,-0.221388,0.040793,-5.767601,21.534725,-30.460243,14.086817,-0.6267488,-1.1773572,-1.1410578,0.068049006,-0.22178115,0.036376417
20231225 03:36:51,0.546764,-1.176318,-1.563737,-0.040705,-0.212865,0.025878,-5.706650,21.257896,-30.575539,14.893373,-0.7791999,-0.95881987,-1.1672287,0.01804468,-0.21696715,0.08067207
20231225 03:36:51,0.456274,-0.959464,-1.337206,-0.122736,-0.220322,0.016290,-5.634933,22.018051,-30.624443,14.378376,-0.6629888,-0.7830979,-1.0131545,-0.04148636,-0.22979641,0.1400119
20231225 03:36:51,0.437572,-0.797712,-0.997797,-0.196245,-0.252283,-0.000756,-5.759022,21.821632,-30.746834,14.651171,-0.41028976,-0.65731645,-0.82212317,-0.09990257,-0.26599616,0.1918466
20231225 03:36:51,0.389441,-0.629202,-0.779686,-0.265493,-0.291701,-0.024193,-5.478706,22.612026,-32.001366,13.988464,-0.27823517,-0.5152596,-0.6874152,-0.16089192,-0.30888635,0.23326924
20231225 03:36:51,0.350346,-0.626159,-0.560373,-0.334741,-0.330053,-0.063611,-6.245377,22.456722,-31.730919,15.255302,-0.12195644,-0.5361383,-0.5115444,-0.23734984,-0.34996316,0.26720917
20231225 03:36:51,0.219088,-0.615837,-0.284749,-0.396531,-0.365210,-0.133924,-6.324638,22.735397,-31.883873,16.194706,0.010071665,-0.5557011,-0.22970945,-0.327117,-0.38672802,0.27224422
20231225 03:36:51,-0.051912,-0.543605,-0.038135,-0.439145,-0.373732,-0.212760,-6.419262,23.382225,-31.391151,18.370052,0.01350929,-0.53478193,0.13130713,-0.402823,-0.39641544,0.25686383
20231225 03:36:51,-0.508109,-0.358547,0.239050,-0.444472,-0.346033,-0.270289,-6.437958,23.575966,-31.939857,21.171673,-0.13414992,-0.48278943,0.6078152,-0.43709344,-0.36685067,0.22203746
20231225 03:36:51,-1.019766,-0.156826,0.568949,-0.408250,-0.297027,-0.289465,-6.492134,23.197735,-32.183662,23.843594,-0.34192812,-0.49948734,1.1229873,-0.4234728,-0.31350818,0.17324157
20231225 03:36:51,-1.531255,-0.065993,0.904501,-0.328349,-0.254413,-0.274550,-6.701111,23.359390,-31.258492,25.70348,-0.5595818,-0.6627284,1.6498067,-0.35812396,-0.26005578,0.116853505
20231225 03:36:51,-1.794551,0.028211,1.133753,-0.209030,-0.232041,-0.228740,-6.841328,23.914898,-31.296135,26.06676,-0.65185136,-0.7145395,1.9412234,-0.24406141,-0.21904038,0.06053275
20231225 03:36:51,-1.827877,0.082438,1.084811,-0.070534,-0.232041,-0.169081,-6.789337,23.543049,-31.405327,25.804306,-0.6856894,-0.64346945,1.9261924,-0.10485959,-0.19633803,0.00961493
20231225 03:36:51,-1.504662,0.110314,0.646501,0.048785,-0.245891,-0.127532,-6.895500,23.536671,-31.539940,24.922674,-0.65386045,-0.39086962,1.4471927,0.005747251,-0.19180986,-0.04306717
20231225 03:36:51,-1.068354,0.161652,-0.012364,0.126555,-0.241629,-0.116879,-7.107819,23.523911,-31.809166,23.303736,-0.75028557,-0.04425077,0.75132585,0.051467,-0.18263507,-0.10267804
20231225 03:36:51,-0.623288,0.234803,-0.509372,0.161712,-0.237368,-0.140316,-6.763481,22.502365,-30.935234,21.32868,-0.8203777,0.22904003,0.13411483,0.040747583,-0.17857622,-0.15376554
20231225 03:36:51,-0.279717,0.294260,-0.916940,0.177692,-0.239499,-0.194649,-7.264809,23.313709,-30.993172,20.882545,-0.941339,0.4167906,-0.33729345,-0.0058432072,-0.17452216,-0.20051803
20231225 03:36:51,-0.109562,0.463319,-1.372681,0.183018,-0.213930,-0.253243,-7.027782,22.861450,-31.095268,20.779144,-1.2660815,0.69697905,-0.7017697,-0.065671,-0.137956,-0.24125198
20231225 03:36:51,-0.124657,0.658599,-1.644931,0.187280,-0.147879,-0.296923,-7.089119,23.330170,-31.260445,21.581974,-1.5593834,0.96312237,-0.82475585,-0.11610559,-0.058125123,-0.27582866
20231225 03:36:51,-0.261464,0.882230,-1.676355,0.193672,-0.079696,-0.315033,-7.629261,23.395142,-32.207863,24.615164,-1.723343,1.2228117,-0.7665355,-0.13539962,0.032443874,-0.29751104
20231225 03:36:51,-0.507885,1.090672,-1.646794,0.195803,-0.037082,-0.297988,-7.186695,23.610695,-31.681633,25.173248,-1.8962674,1.3992281,-0.5749739,-0.13057421,0.07827163,-0.29883754
20231225 03:36:51,-0.578575,1.241192,-1.542984,0.175561,-0.023233,-0.256439,-6.746704,23.268070,-31.788872,24.940222,-1.8884207,1.5013762,-0.5194811,-0.1074366,0.07895071,-0.266484
20231225 03:36:51,-0.616450,1.304429,-1.357900,0.120163,-0.072239,-0.206368,-7.356377,23.322956,-32.334404,25.198364,-1.7646456,1.4945025,-0.4377374,-0.08157264,0.006510429,-0.18511544
20231225 03:36:51,-0.606967,1.313627,-1.154648,0.032804,-0.185166,-0.161623,-7.373158,22.557255,-31.480751,25.260164,-1.5906959,1.4447452,-0.37328932,-0.062598035,-0.12871926,-0.064275905
20231225 03:36:51,-0.599098,1.302140,-0.960259,-0.084384,-0.337511,-0.117944,-7.364574,22.844162,-31.767342,24.230093,-1.4099505,1.3787372,-0.2979788,-0.059523277,-0.30832377,0.08718194
20231225 03:36:51,-0.511387,1.314708,-0.686049,-0.211160,-0.500509,-0.066807,-7.541031,23.211479,-32.061012,22.263403,-1.1034675,1.3389031,-0.239339,-0.07401268,-0.5017172,0.24615595
20231225 03:36:51,-0.289712,1.279614,-0.392056,-0.316630,-0.650723,-0.028455,-8.094612,22.685154,-30.960411,20.930965,-0.6823402,1.2823064,-0.26112202,-0.109792076,-0.67080975,0.37687024
20231225 03:36:52,-0.077766,1.054495,-0.197854,-0.378420,-0.758323,-0.025259,-8.166065,23.634518,-31.960884,18.633507,-0.32813767,1.0584053,-0.2647488,-0.16354725,-0.78234327,0.43220484
20231225 03:36:52,0.104020,0.804591,-0.005816,-0.386943,-0.791349,-0.058285,-8.234444,23.048775,-30.717583,17.574814,-0.01136918,0.8073409,-0.23939803,-0.22043686,-0.8100854,0.414304
20231225 03:36:52,0.213122,0.682079,0.143502,-0.330479,-0.746604,-0.120075,-8.393742,23.989910,-31.584435,16.815655,0.19201794,0.6814201,-0.20061459,-0.24573137,-0.7556472,0.3163551
20231225 03:36:52,0.120238,0.675318,0.162395,-0.218618,-0.615566,-0.191453,-8.772785,24.055710,-31.592491,18.07016,0.13793615,0.6649356,-0.12665385,-0.230107,-0.6109614,0.17001083
20231225 03:36:52,-0.024572,0.651676,0.373320,-0.065208,-0.429131,-0.262831,-8.974598,23.370419,-30.745949,19.28072,0.18928969,0.6063726,0.111490116,-0.1924429,-0.40512964,-0.024795339
20231225 03:36:52,-0.130081,0.570060,0.731090,0.131882,-0.268263,-0.352321,-9.477734,23.239799,-30.876411,20.183697,0.37048727,0.4794902,0.43512416,-0.13082743,-0.21797764,-0.26074216
20231225 03:36:52,-0.259252,0.621946,0.955529,0.350278,-0.137225,-0.459921,-9.285530,22.312443,-30.947929,21.397816,0.42197442,0.4712491,0.6478176,-0.06505141,-0.041077018,-0.51474476
20231225 03:36:52,-0.479254,0.966118,1.069941,0.579328,-0.004057,-0.552606,-9.416782,22.962967,-30.991692,22.800032,0.30934623,0.72692645,0.76667094,-0.008025438,0.15400115,-0.77024055
20231225 03:36:52,-0.792001,1.723721,0.964845,0.776417,0.085433,-0.590959,-9.416782,22.962967,-30.991692,25.781075,-0.1235078,1.3330007,0.69282967,0.022376865,0.33230302,-0.9619128
20231225 03:36:52,-1.150243,2.585907,0.565249,0.866972,0.113132,-0.539822,-9.065788,23.187778,-31.806709,27.454945,-0.8821344,2.1050348,0.5467509,0.047723442,0.40125716,-1.0148896
20231225 03:36:52,-1.134049,3.057364,0.106948,0.823293,0.076910,-0.425830,-8.582767,22.378277,-32.016991,27.132912,-1.3264521,2.6874375,0.26425588,0.0777345,0.32264757,-0.91713685
20231225 03:36:52,-0.844827,3.269358,-0.140853,0.637922,-0.014710,-0.329948,-8.803288,21.886723,-31.719170,26.138496,-1.331002,3.0536575,-0.07023539,0.05546984,0.1555726,-0.6965734
20231225 03:36:52,-0.590559,3.570650,-0.039141,0.340690,-0.160663,-0.274550,-8.642952,22.271328,-31.340767,24.793257,-1.1233654,3.3811984,-0.28194922,-0.01689072,-0.049690768,-0.3857147
20231225 03:36:52,-0.639722,3.584260,0.264714,0.010432,-0.302354,-0.219152,-9.208839,21.475578,-31.428413,26.13729,-0.9288424,3.306173,-0.18376341,-0.104998015,-0.24121675,-0.043027572
20231225 03:36:52,-0.824690,3.228212,0.821811,-0.300650,-0.367340,-0.164819,-9.279137,21.849274,-31.587471,26.459944,-0.576199,2.7868848,0.23169228,-0.22764467,-0.36710086,0.24916676
20231225 03:36:52,-1.251420,2.422182,1.730602,-0.507327,-0.368406,-0.068938,-9.384914,21.651005,-31.441612,27.050331,-0.1578983,1.7336811,1.2069777,-0.32495,-0.4381482,0.43932897
20231225 03:36:52,-1.509462,1.390903,2.775786,-0.537157,-0.285309,0.070623,-9.252243,22.134331,-31.605812,26.556545,0.2906003,0.552214,2.3962307,-0.32359442,-0.39857474,0.48806918
20231225 03:36:52,-1.615740,0.173742,3.624476,-0.424230,-0.165990,0.206987,-9.055283,22.515240,-30.690926,25.938631,0.50808346,-0.6586703,3.552195,-0.22690974,-0.2777102,0.44663125
20231225 03:36:52,-1.507268,-1.143566,4.245675,-0.225010,-0.147879,0.307130,-9.100109,22.040142,-30.660362,25.5675,0.6333337,-1.8143404,4.5388594,-0.05143875,-0.21704717,0.4056964
20231225 03:36:52,-1.098494,-2.156295,4.359541,0.010432,-0.273590,0.359332,-9.374142,22.687988,-31.375237,24.046797,0.9093333,-2.6008763,4.8831606,0.17376578,-0.29309553,0.39673838
20231225 03:36:52,-0.562035,-2.770905,3.712052,0.232024,-0.453634,0.357201,-9.429085,22.693539,-32.179970,22.027256,1.1615837,-3.0121138,4.3105736,0.3821682,-0.4416929,0.36009306
20231225 03:36:52,-0.051875,-3.021902,2.396307,0.391827,-0.587867,0.340156,-9.410770,22.691689,-31.911720,19.429247,1.2063315,-3.1143448,2.903676,0.5299074,-0.56911427,0.27054185
20231225 03:36:52,0.395916,-2.936759,0.976532,0.475989,-0.639004,0.325241,-9.893017,23.117409,-31.140480,16.097656,0.91142374,-2.9407609,1.2252517,0.5839497,-0.63448864,0.13658516
20231225 03:36:52,0.980430,-2.643021,-0.403311,0.498362,-0.587867,0.313522,-10.047340,22.461521,-32.438911,9.906663,0.2736371,-2.7276993,-0.62212896,0.5389138,-0.6001296,-0.036187395
20231225 03:36:52,1.634448,-2.268586,-1.677806,0.437637,-0.427000,0.275169,-10.300377,21.764297,-30.922249,2.3531263,-0.6801319,-2.8129194,-2.2681193,0.39405203,-0.42892575,-0.15201756
20231225 03:36:52,2.091958,-1.982041,-2.523527,0.270377,-0.199015,0.188876,-10.291412,21.859318,-30.928352,-3.8887184,-1.3091973,-3.1052299,-3.2428327,0.23486365,-0.18429731,-0.11864349
20231225 03:36:52,2.280332,-1.661662,-2.619569,0.011497,-0.015775,0.075949,-10.345200,21.289200,-30.891670,-2.0286942,-1.1506166,-2.7872152,-3.4109473,0.05983321,0.0049727596,0.03439958
20231225 03:36:52,1.901444,-1.524794,-2.115468,-0.283604,0.077975,-0.043370,-10.758301,21.916889,-30.802788,6.9698114,-0.6815177,-2.0325966,-2.6785264,-0.19738264,0.1032361,0.19031276
20231225 03:36:52,1.144775,-1.306790,-1.150931,-0.549941,0.113132,-0.117944,-10.600151,21.551418,-30.777367,15.116204,-0.0740301,-1.3338296,-1.3622108,-0.460487,0.117975555,0.30357888
20231225 03:36:52,0.395791,-1.185366,-0.089842,-0.728920,0.103544,-0.138186,-9.973320,22.070347,-30.805000,19.591541,0.31141025,-1.1455225,-0.0315108,-0.6410603,0.05952084,0.3640939
20231225 03:36:52,-0.373017,-1.202287,0.897822,-0.802429,0.083302,-0.112617,-9.975624,23.221680,-32.487816,22.95558,0.37157556,-1.332804,1.2551446,-0.7132197,-0.018974684,0.38019276
20231225 03:36:52,-0.993329,-1.196735,1.726880,-0.769403,0.060930,-0.047631,-9.743191,24.174553,-31.877861,24.229624,0.29614288,-1.5574133,2.262957,-0.66546375,-0.07087874,0.38355798
20231225 03:36:52,-1.305496,-1.034924,2.264307,-0.640496,0.056668,0.041858,-10.228004,24.042084,-31.740059,25.542704,0.2806039,-1.5406533,2.7938771,-0.51560515,-0.07064463,0.36891666
20231225 03:36:52,-1.407756,-0.929006,2.448146,-0.444472,0.092890,0.121759,-9.883785,24.921947,-32.195976,24.340479,0.28279114,-1.4653052,2.9538376,-0.31352052,-0.0056515094,0.30878004
20231225 03:36:52,-1.196510,-0.863308,2.347674,-0.236729,0.145092,0.170765,-9.345833,24.106903,-31.601540,22.75035,0.4395014,-1.2989117,2.732826,-0.113761336,0.08565344,0.21894613
20231225 03:36:52,-0.934901,-0.672964,1.920660,-0.050293,0.207948,0.181419,-10.033997,24.056694,-31.739082,23.199892,0.50562865,-1.0238707,2.1749213,0.04603111,0.1755636,0.09779321
20231225 03:36:52,-0.805606,-0.401742,1.287998,0.099921,0.317679,0.182484,-9.470303,24.102371,-32.004402,22.621094,0.27539814,-0.68277526,1.5419183,0.15134385,0.30245146,-0.030841425
20231225 03:36:52,-0.891450,-0.246119,0.739971,0.236286,0.449782,0.202726,-9.627678,24.084061,-31.468880,23.743326,-0.11819309,-0.49493966,1.176279,0.23971146,0.4460728,-0.15855591
20231225 03:36:52,-0.903452,-0.233881,0.368816,0.354540,0.564839,0.247470,-9.099842,23.749664,-31.709740,23.533625,-0.36170948,-0.43580133,0.938567,0.3318583,0.56866294,-0.24572156
20231225 03:36:52,-0.824157,-0.360809,0.196226,0.439767,0.588277,0.297542,-8.933117,23.671101,-31.970894,22.851389,-0.3978638,-0.5115114,0.80665076,0.4263624,0.59696496,-0.2756912
20231225 03:36:52,-0.581325,-0.564491,-0.041889,0.486643,0.527552,0.335894,-8.692753,23.393257,-30.878609,21.300549,-0.35947785,-0.6254542,0.5317679,0.5047431,0.536938,-0.26320553
20231225 03:36:52,-0.284996,-0.683720,-0.440173,0.464270,0.406102,0.359332,-8.694553,22.451290,-30.951103,19.826078,-0.43743378,-0.6552161,0.090317845,0.52891433,0.40791857,-0.21160384
20231225 03:36:52,0.074479,-0.735533,-0.986986,0.379043,0.279326,0.377443,-8.296818,22.191750,-30.394325,16.678392,-0.6655548,-0.65754664,-0.51907444,0.51054525,0.2730211,-0.11831772
20231225 03:36:52,0.483978,-0.773679,-1.408853,0.252266,0.201556,0.381704,-8.379036,22.104130,-31.461189,13.222953,-0.82023126,-0.7456356,-1.1060945,0.45340282,0.19851074,-0.00516209
20231225 03:36:52,0.859602,-0.827084,-1.665089,0.122294,0.199425,0.372116,-8.962196,22.635963,-32.305534,10.667812,-0.8797523,-0.9103455,-1.5635421,0.3805963,0.20969357,0.092518866
20231225 03:36:52,1.057135,-0.735961,-1.743101,0.024282,0.289979,0.361463,-8.071060,22.795803,-32.173134,7.845019,-0.82803506,-0.8948388,-1.8124783,0.32400936,0.31110457,0.16807652
20231225 03:36:52,1.127599,-0.730083,-1.537391,-0.034313,0.419952,0.359332,-7.901379,23.083542,-31.520363,7.9653163,-0.57075286,-0.8706487,-1.7604427,0.28797352,0.44164833,0.20871222
20231225 03:36:52,1.137103,-0.804564,-1.201167,-0.071600,0.525421,0.351875,-7.382507,22.654121,-31.755119,7.3693585,-0.23309588,-0.92146814,-1.5703416,0.2521708,0.546814,0.23565574
20231225 03:36:52,1.074183,-0.893209,-0.812730,-0.108887,0.562708,0.333764,-7.498013,22.744610,-32.164085,8.538299,0.089677334,-0.957261,-1.2462234,0.19384226,0.57777834,0.24641708
20231225 03:36:52,0.980110,-0.857131,-0.361017,-0.155762,0.489200,0.315653,-7.312973,22.664200,-32.157005,9.006401,0.40301016,-0.8895106,-0.85778135,0.1298731,0.5005985,0.27561605
20231225 03:36:52,0.969871,-1.023264,-0.192275,-0.217552,0.334724,0.280496,-7.153023,23.240696,-32.059059,9.094205,0.5271239,-1.0450523,-0.70821786,0.05219923,0.34412822,0.31225044
20231225 03:36:52,0.854514,-0.907169,-0.240113,-0.285735,0.189837,0.243209,-6.834549,23.259838,-31.655220,10.009329,0.4150334,-0.9061407,-0.67400074,-0.020507023,0.18933359,0.34941158
20231225 03:36:52,0.663615,-0.581030,-0.277204,-0.356048,0.077975,0.232556,-6.676018,22.702480,-31.349342,11.132816,0.24482849,-0.5626774,-0.6026864,-0.06373869,0.06646385,0.40783182
20231225 03:36:52,0.459817,-0.186753,-0.508577,-0.410380,0.041753,0.264516,-6.437191,23.192184,-31.378929,12.753569,-0.09185469,-0.13596916,-0.64377666,-0.057284445,0.0075436244,0.47525805
20231225 03:36:52,0.169380,0.080516,-0.747693,-0.442341,0.102478,0.327371,-6.896915,22.402813,-31.331978,15.428225,-0.48308864,0.15826559,-0.5945624,-0.029892474,0.041573174,0.5256587
20231225 03:36:52,-0.024843,0.186044,-0.590761,-0.461517,0.166399,0.398750,-6.225258,23.396835,-31.390175,14.443268,-0.47935224,0.23577517,-0.38217548,-0.012766093,0.09430412,0.57481563
20231225 03:36:52,0.059677,0.031548,-0.164824,-0.466844,0.133373,0.425384,-6.286980,24.057446,-31.835823,12.389581,-0.081508435,0.0434321,-0.15790498,-0.014247268,0.086314194,0.60532933
20231225 03:36:52,0.301227,-0.114872,0.120597,-0.475367,-0.021102,0.400880,-6.259701,24.150612,-31.573692,10.627022,0.30020314,-0.11037484,-0.11638114,-0.047991663,-0.04289974,0.61785746
20231225 03:36:52,0.430901,-0.352954,0.111876,-0.486020,-0.216061,0.312457,-6.418610,24.899857,-32.160057,9.636311,0.38519144,-0.34995756,-0.18857946,-0.11581421,-0.22356027,0.58790845
20231225 03:36:52,0.616602,-0.776071,-1.239249,-0.425295,-0.172382,0.179288,-6.734131,25.247021,-31.649971,9.738016,-0.5125194,-0.767674,-1.1852206,-0.14788036,-0.17499249,0.4545966
20231225 03:36:52,0.348943,0.393221,-0.112650,-0.450864,-0.274655,0.185680,-6.258278,25.284466,-31.781654,10.164505,0.14458597,0.40287504,-0.37881973,-0.16260341,-0.2881494,0.48831835
20231225 03:36:52,0.435017,0.221889,0.089375,-0.486020,-0.418477,0.178223,-6.806618,24.870640,-32.162010,9.47129,0.35798305,0.22159281,-0.28839245,-0.19365832,-0.41787332,0.5247449
20231225 03:36:52,0.547986,-0.027954,-0.370282,-0.358178,-0.362014,0.119629,-6.619392,25.540306,-31.801949,9.322547,0.10960746,-0.026907662,-0.6457263,-0.15985626,-0.3625532,0.38126573
20231225 03:36:52,0.375910,0.060987,-0.205347,-0.252709,-0.353491,0.063165,-7.386444,25.576889,-31.811958,10.781282,0.100528374,0.06556882,-0.42149314,-0.120353036,-0.3559235,0.27318913
20231225 03:36:52,0.358144,0.207862,-0.435035,-0.157893,-0.277851,0.012028,-6.777153,25.713886,-31.546913,10.219797,-0.09334797,0.21747346,-0.57591486,-0.09153788,-0.2797481,0.15899698
20231225 03:36:52,0.238700,0.340974,-0.542559,-0.083319,-0.217126,-0.022063,-6.812244,24.950035,-30.961525,11.063407,-0.2638271,0.3578488,-0.5705447,-0.06605238,-0.21815492,0.07625852
20231225 03:36:52,0.180582,0.383563,-0.633194,-0.054554,-0.171316,-0.038043,-7.254421,24.542580,-31.207253,12.17829,-0.38096264,0.4075821,-0.58782226,-0.058855884,-0.17141333,0.04114974
20231225 03:36:52,0.099678,0.467693,-0.743558,-0.052423,-0.143617,-0.028455,-7.032494,26.167995,-31.713066,11.942242,-0.53415275,0.49959284,-0.5947721,-0.049355134,-0.1439767,0.041999705
20231225 03:36:52,0.010758,0.592311,-0.887032,-0.059881,-0.082892,0.002440,-7.314339,26.145157,-31.580406,12.416826,-0.7145042,0.6282188,-0.62189984,-0.031652577,-0.08480641,0.05958206
20231225 03:36:52,0.089104,0.657108,-0.968184,-0.060946,0.003401,0.043989,-7.033642,26.743660,-32.554482,11.314972,-0.725388,0.69035894,-0.7381551,-0.0033851713,3.9851316E-4,0.07414952
20231225 03:36:52,0.163438,0.537326,-0.933930,-0.044966,0.085433,0.063165,-6.821323,26.756420,-32.285255,10.114129,-0.6393861,0.5537034,-0.757003,0.020321991,0.08388544,0.0645355
20231225 03:36:52,0.395761,0.476385,-1.012852,-0.022594,0.177053,0.049316,-6.900589,27.035099,-32.438210,7.9720755,-0.5370611,0.44524783,-0.97387743,0.028756164,0.17854138,0.032787092
20231225 03:36:52,0.671002,0.401762,-1.129980,0.024282,0.286783,0.005636,-6.432934,26.593754,-32.002831,5.6986656,-0.46673253,0.30945116,-1.2397227,0.03515039,0.2853636,-0.03317594
20231225 03:36:52,0.825951,0.481747,-1.259333,0.082876,0.433801,-0.054023,-6.380562,26.030014,-31.831535,5.8545876,-0.46112472,0.38056147,-1.4506183,0.031067546,0.4266019,-0.12554616
20231225 03:36:52,0.766722,0.371728,-0.848656,0.107379,0.474285,-0.139251,-5.984360,26.538029,-32.396645,6.453991,-0.14017028,0.3282073,-1.1571995,-0.0229915,0.46729854,-0.20586964
20231225 03:36:52,0.559764,0.278310,-0.691198,0.109509,0.440194,-0.256439,-5.692780,26.272114,-31.974480,8.613318,-0.1750341,0.29395714,-0.8945031,-0.13245645,0.44483557,-0.2889082
20231225 03:36:52,0.121927,0.677896,-0.619807,0.120163,0.419952,-0.325687,-5.798935,26.265732,-32.109077,12.813515,-0.46362978,0.73530227,-0.5660394,-0.21409972,0.45357057,-0.3500971
20231225 03:36:52,-0.400256,0.982418,-0.511325,0.160646,0.443390,-0.336340,-5.668072,25.807095,-32.345787,16.089342,-0.78362167,0.99190784,-0.17264512,-0.21825898,0.50290865,-0.40647167
20231225 03:36:52,-0.754238,1.153969,-0.236707,0.237351,0.458304,-0.313968,-5.401581,26.198078,-31.832771,17.176035,-0.8551223,1.0595589,0.2172199,-0.16117519,0.53359437,-0.4608686
20231225 03:36:52,-0.915614,1.482321,0.047819,0.310860,0.412494,-0.269223,-5.146626,25.935863,-31.947090,17.076178,-0.79599,1.3078822,0.4696656,-0.081794076,0.49262118,-0.47940063
20231225 03:36:52,-0.735370,1.970329,0.068144,0.336429,0.287849,-0.219152,-4.723408,24.827522,-31.200676,15.3099375,-0.6859482,1.8402635,0.3201028,-0.016575485,0.35433027,-0.4414053
20231225 03:36:52,-0.370165,2.635736,-0.062489,0.282096,0.100347,-0.178669,-4.739922,25.771339,-31.396416,13.349388,-0.5824552,2.584311,-0.051014584,-0.008453175,0.14435141,-0.34383515
20231225 03:36:52,-0.016382,3.254163,-0.534162,0.144666,-0.033886,-0.142447,-4.619171,25.793346,-32.468422,11.234416,-0.7683803,3.2841287,-0.559034,-0.04833799,-0.013050362,-0.19159587
20231225 03:36:52,0.320515,3.567721,-0.836666,-0.030051,-0.025364,-0.132859,-4.591511,25.694630,-31.925819,9.402284,-0.78091395,3.6172342,-0.95435345,-0.12940879,-0.018762683,-0.034239188
20231225 03:36:52,0.483126,3.519506,-0.815920,-0.209030,0.140831,-0.175473,-5.025108,25.574093,-32.458153,10.278908,-0.6679521,3.5789597,-1.1503985,-0.26636234,0.14357133,0.077493116
20231225 03:36:52,0.071296,3.067304,0.186478,-0.332610,0.354966,-0.246851,-4.715210,25.306320,-31.767723,13.632371,-0.18949327,3.013302,-0.389917,-0.4407605,0.34893852,0.062628776
20231225 03:36:52,-0.797219,2.690712,1.644598,-0.365636,0.479611,-0.289465,-4.360878,25.705540,-31.388344,16.14714,0.1579088,2.2297795,1.1511585,-0.5346711,0.45657855,-0.024535313
20231225 03:36:52,-1.212354,2.562220,2.361327,-0.352852,0.500918,-0.282008,-4.344749,24.953613,-31.473091,18.056517,0.12957847,1.8345728,1.8905642,-0.52994066,0.46171743,-0.091782875
20231225 03:36:52,-1.962828,1.888084,4.047801,-0.215422,0.353900,-0.128598,-3.981834,25.639744,-31.380287,17.218372,0.48164487,0.81404203,3.8247597,-0.30069306,0.3180586,-0.053628854
20231225 03:36:52,-1.775405,1.177227,4.376586,-0.093972,0.157876,0.028009,-3.805759,25.464310,-31.367073,15.814596,0.7882234,0.27101803,4.2143426,-0.08209326,0.13307607,0.039644912
20231225 03:36:52,-1.174751,0.209866,3.979679,0.016824,0.006597,0.162243,-3.691788,26.141376,-32.079994,13.322884,1.0730547,-0.32763958,3.8627834,0.09871265,-0.0058811028,0.123413615
20231225 03:36:52,-0.430046,-0.849471,3.329364,0.103117,-0.055193,0.218706,-3.823036,26.791901,-32.123772,10.599928,1.3288146,-1.0658573,3.1843488,0.20101856,-0.057047732,0.14338997
20231225 03:36:52,0.151564,-1.631911,2.707057,0.145731,-0.063716,0.213379,-3.347183,26.829350,-32.255440,8.235994,1.4962634,-1.7116706,2.4753194,0.23275909,-0.0618311,0.122200385
20231225 03:36:52,0.412042,-2.103740,2.241621,0.148927,-0.057324,0.193138,-3.613289,26.246471,-32.487999,7.9313555,1.4539633,-2.1363602,2.0336509,0.22275272,-0.055003442,0.1074998
20231225 03:36:52,0.484098,-2.355900,2.124185,0.128686,-0.097807,0.164373,-3.541187,26.814739,-32.256416,7.114811,1.4166962,-2.3737473,1.9349401,0.18991795,-0.09610991,0.099834904
20231225 03:36:52,0.710092,-2.826097,1.870370,0.118032,-0.145748,0.148393,-3.807293,26.231861,-32.488976,6.2769637,1.4665673,-2.8277931,1.6427145,0.17153397,-0.14529838,0.09574701
20231225 03:36:52,0.928678,-3.016112,1.388157,0.095660,-0.292766,0.068492,-4.113853,26.674046,-31.985008,5.1893806,1.431384,-3.01938,1.051478,0.11371398,-0.29377472,0.04079842
20231225 03:36:52,1.150636,-2.898182,0.819539,0.089268,-0.320465,-0.010344,-3.656311,26.713341,-32.384926,2.885281,1.3313491,-2.9241369,0.2523398,0.0635743,-0.32426617,-0.040018097
20231225 03:36:52,1.241517,-2.631365,0.170923,0.091399,-0.242695,-0.106225,-3.806530,25.848087,-31.928032,3.2431598,1.0501068,-2.6739218,-0.43358424,0.009253889,-0.24904995,-0.12773404
20231225 03:36:52,1.039630,-2.194703,-0.142850,0.077549,-0.130833,-0.217021,-4.468567,26.466717,-32.644844,6.29202,0.73673356,-2.1935465,-0.55802214,-0.0713108,-0.13058656,-0.20674025
20231225 03:36:53,0.532624,-1.625181,-0.198355,0.034935,-0.051997,-0.312903,-3.602791,25.573940,-31.372215,9.958871,0.38828963,-1.558964,-0.2824388,-0.17281702,-0.027080055,-0.24958079
20231225 03:36:53,-0.227438,-0.928915,-0.096206,-0.010875,0.011924,-0.357647,-4.200546,26.090153,-31.009956,15.684027,-0.09102099,-0.92836803,0.27076665,-0.24650899,0.06363607,-0.24784413
20231225 03:36:53,-1.077372,-0.288828,0.149367,-0.027920,0.073714,-0.328883,-3.575512,25.667110,-31.110100,19.054432,-0.63171744,-0.55438805,0.9053158,-0.24855065,0.13384277,-0.22656801
20231225 03:36:53,-1.754570,0.158798,0.496975,-0.024724,0.099282,-0.291596,-3.684624,25.294426,-32.158607,21.551777,-1.0132347,-0.4376716,1.4871304,-0.2269836,0.15734257,-0.20925683
20231225 03:36:53,-2.067178,0.533455,0.757186,0.027478,0.123785,-0.088114,-4.105270,26.960953,-32.271584,22.09052,-1.1657181,-0.26244843,1.7782161,-0.06738114,0.144811,-0.112381905
20231225 03:36:53,-2.040788,0.654160,0.756821,0.075418,0.122720,0.086603,-3.531841,26.717873,-31.982079,20.486313,-1.1484485,-0.09526785,1.7555006,0.080535635,0.11296324,-0.024401024
20231225 03:36:53,-1.610963,0.489922,0.633034,0.114836,0.118458,0.254928,-3.719067,26.048206,-32.342140,18.2365,-0.8559554,-8.8751316E-5,1.4303306,0.22706887,0.086731836,0.070600495
20231225 03:36:53,-1.276619,0.228203,0.596204,0.131882,0.111001,0.318849,-3.267536,26.358784,-31.822029,12.333607,-0.57797647,-0.010949887,1.253029,0.29554644,0.088885576,0.12453579
20231225 03:36:53,0.099771,-0.492033,0.516833,0.147862,0.064126,0.381704,-3.082882,26.470261,-32.095406,7.3327675,0.4395982,-0.5092419,0.36356953,0.36068958,0.054200836,0.17844117
20231225 03:36:53,0.724828,-0.872733,0.328027,0.146797,-0.007253,0.335894,-3.435028,26.821121,-32.121819,4.6841564,0.7613745,-0.87324345,-0.17494453,0.33113623,-0.007083883,0.15681988
20231225 03:36:53,1.031790,-1.129478,0.162848,0.140405,-0.017906,0.269843,-3.268307,26.742561,-32.382973,2.9984787,0.8692049,-1.1520462,-0.4952971,0.2807543,-0.015638672,0.11631796
20231225 03:36:53,1.199147,-1.296159,0.267950,0.153189,-0.010449,0.197399,-3.338604,27.116261,-32.542030,2.3907192,1.0609986,-1.3321075,-0.5032586,0.24273932,-0.010196311,0.057490565
20231225 03:36:53,1.242569,-1.436997,0.424642,0.203260,-0.013645,0.115367,-3.162529,26.940830,-32.528831,1.9786187,1.1922952,-1.4730209,-0.3937736,0.23058778,-0.018344654,-0.034329057
20231225 03:36:53,1.236454,-1.478428,0.436064,0.277834,-0.010449,0.032270,-2.959175,26.858566,-32.253487,1.7020817,1.1945146,-1.5143764,-0.38039944,0.2387465,-0.021161443,-0.1448694
20231225 03:36:53,1.219959,-1.494054,0.509230,0.347082,-0.028560,-0.061481,-2.949829,26.761700,-31.979149,2.3611271,1.2343016,-1.5179652,-0.31485066,0.23232779,-0.040741816,-0.26353303
20231225 03:36:53,0.993077,-1.284147,0.432834,0.391827,-0.087154,-0.148839,-3.144482,25.229458,-31.211205,4.41922,1.0317748,-1.2855101,-0.24848533,0.19879693,-0.088305205,-0.36349678
20231225 03:36:53,0.723208,-1.045497,0.127079,0.409938,-0.131898,-0.211695,-3.374344,24.834770,-31.187721,6.6600695,0.64038676,-1.027503,-0.31813005,0.15543051,-0.11438097,-0.42356533
20231225 03:36:53,0.420179,-0.824493,-0.157942,0.413134,-0.131898,-0.254309,-3.128742,24.669422,-31.576408,8.846797,0.23997149,-0.78154886,-0.31930926,0.11955969,-0.08605152,-0.4561672
20231225 03:36:53,0.066040,-0.661047,-0.253197,0.412068,-0.112722,-0.272419,-3.234898,24.663040,-31.711006,11.498765,-0.06296993,-0.6187284,-0.12809376,0.10204044,-0.038418844,-0.46689475
20231225 03:36:53,-0.236751,-0.495356,-0.328772,0.415264,-0.077566,-0.276681,-3.314930,25.325497,-32.424904,13.94596,-0.32185513,-0.46785986,0.039036274,0.09367542,0.024087135,-0.4747591
20231225 03:36:53,-0.543163,-0.416150,-0.496747,0.416330,-0.023233,-0.263897,-2.935886,25.259697,-32.416847,15.371116,-0.6444688,-0.40216827,0.15512282,0.094303936,0.09571278,-0.47526428
20231225 03:36:53,-0.721993,-0.437454,-0.508399,0.411003,0.017250,-0.247916,-3.456947,24.939041,-32.535057,17.150492,-0.76039624,-0.45073926,0.29430765,0.09634754,0.14084102,-0.46690112
20231225 03:36:53,-0.759321,-0.444345,-0.487895,0.396088,0.025773,-0.236198,-3.147823,25.055046,-32.405586,17.223778,-0.7645682,-0.4686002,0.33669972,0.09348342,0.14908557,-0.4499512
20231225 03:36:53,-0.828521,-0.539988,-0.470901,0.381173,0.014054,-0.228740,-2.937309,24.125843,-32.208870,17.621119,-0.7782285,-0.5799709,0.4138259,0.0955396,0.13772877,-0.43066573
20231225 03:36:53,-0.852384,-0.687348,-0.461156,0.363062,-0.026429,-0.225544,-3.068558,24.776371,-32.252647,17.770174,-0.75786364,-0.73003244,0.46343023,0.097565696,0.096318364,-0.40604937
20231225 03:36:53,-0.738262,-0.780443,-0.532064,0.339625,-0.080762,-0.221283,-3.183681,24.674969,-32.381142,17.256021,-0.71176064,-0.7769814,0.36339122,0.0862011,0.031854827,-0.37774193
20231225 03:36:53,-0.604172,-0.682625,-0.722396,0.301272,-0.116984,-0.213825,-3.088676,23.836254,-32.593391,16.609024,-0.7855743,-0.6171897,0.13652849,0.062249646,-0.018487453,-0.34044504
20231225 03:36:53,-0.477742,-0.642121,-0.874983,0.249070,-0.135094,-0.202107,-2.990063,24.881466,-32.660637,15.015042,-0.84150064,-0.5369693,-0.06848568,0.033635274,-0.05644618,-0.29386002
20231225 03:36:53,-0.316056,-0.700814,-0.884478,0.190476,-0.153205,-0.191453,-2.982513,23.842636,-32.458778,14.128657,-0.7526228,-0.5812731,-0.19116506,0.0015397221,-0.09218934,-0.24129875
20231225 03:36:53,-0.104720,-0.639170,-0.888628,0.128686,-0.168120,-0.192518,-3.016186,24.212631,-32.081352,13.572791,-0.6395543,-0.49989676,-0.37088272,-0.038065284,-0.11790221,-0.1931142
20231225 03:36:53,-0.072152,-0.578309,-0.831777,0.077549,-0.171316,-0.192518,-3.324547,23.712845,-31.649879,13.696733,-0.592076,-0.45097414,-0.36688066,-0.07201508,-0.12962429,-0.15251324
20231225 03:36:53,-0.053559,-0.543158,-0.814384,0.061569,-0.165990,-0.194649,-3.095455,24.491310,-32.234306,12.775248,-0.57675695,-0.42390206,-0.3844447,-0.08569972,-0.12821634,-0.14447641
20231225 03:36:53,-0.023555,-0.414089,-0.740729,0.057307,-0.109526,-0.231936,-3.440823,24.187115,-32.619804,14.066365,-0.5167936,-0.29277098,-0.3674053,-0.124579124,-0.063858375,-0.16862069
20231225 03:36:53,-0.190862,-0.280787,-0.715809,0.093529,-0.046671,-0.266027,-3.253979,25.048668,-32.540199,15.405159,-0.60936147,-0.16755702,-0.23585011,-0.1344127,0.018329348,-0.22558966
20231225 03:36:53,-0.325724,-0.205426,-0.659057,0.132947,-0.002991,-0.292661,-3.299187,24.765461,-32.790108,17.553446,-0.6527186,-0.10741773,-0.093648314,-0.13801515,0.08538447,-0.2763381
20231225 03:36:53,-0.576842,0.031933,-0.643629,0.151058,0.005531,-0.300119,-2.893250,24.984718,-32.800377,18.080484,-0.8453394,0.077860326,0.074325085,-0.13430968,0.10647991,-0.2953352
20231225 03:36:53,-0.822857,0.300104,-0.682815,0.181953,0.001270,-0.295857,-2.964970,24.224564,-32.751472,19.903158,-1.0881261,0.30163765,0.2162674,-0.11513175,0.11849761,-0.31226063
20231225 03:36:53,-0.938910,0.624704,-0.897490,0.214979,-0.014710,-0.256439,-3.262562,24.761761,-32.253624,21.588234,-1.4093938,0.65685076,0.16953617,-0.06988348,0.109257914,-0.30923235
20231225 03:36:53,-0.928620,0.714380,-0.986502,0.216044,-0.027494,-0.238328,-2.849079,23.942181,-32.062035,21.198296,-1.4980383,0.77243185,0.10589814,-0.053491786,0.091643654,-0.29799283
20231225 03:36:53,-0.813302,0.821442,-1.166814,0.208587,-0.057324,-0.205303,-3.220192,22.777260,-31.587761,21.106672,-1.6005092,0.9600545,-0.059136033,-0.033251375,0.045443784,-0.26776272
20231225 03:36:53,-0.496680,0.909543,-1.257042,0.180888,-0.087154,-0.189322,-2.841148,22.711460,-31.579704,18.127619,-1.5132675,1.1096449,-0.34713307,-0.037875794,-0.0074427873,-0.23404059
20231225 03:36:53,-0.111271,0.971643,-1.296700,0.095660,-0.168120,-0.197845,-2.859077,22.521420,-31.567467,14.771164,-1.3275757,1.1833935,-0.67737937,-0.08375233,-0.114752576,-0.15841484
20231225 03:36:53,0.060951,0.911249,-1.237473,0.070092,-0.190493,-0.209564,-3.272945,23.532883,-32.039528,14.497944,-1.1702489,1.1202543,-0.78584373,-0.105377845,-0.14096671,-0.13993801
20231225 03:36:53,0.196403,0.809864,-1.103154,0.031739,-0.211800,-0.240459,-2.973549,23.937653,-32.464882,12.3293915,-0.92723495,0.9784223,-0.8408422,-0.15089425,-0.1701104,-0.12917338
20231225 03:36:53,0.261196,0.759017,-0.864222,0.018955,-0.218192,-0.275616,-3.414196,22.762650,-31.588737,13.324623,-0.661631,0.9002853,-0.7932748,-0.18006837,-0.17228168,-0.13968699
20231225 03:36:53,0.119735,0.678062,-0.415527,0.045589,-0.242695,-0.325687,-3.070362,23.834404,-32.325142,14.1294565,-0.3758061,0.7487571,-0.42938554,-0.19008628,-0.17577946,-0.1869463
20231225 03:36:53,-0.158350,0.696126,-0.243800,0.060503,-0.256544,-0.324622,-3.609348,23.323711,-32.431129,16.199852,-0.4162202,0.6998847,-0.13114172,-0.16699916,-0.17917854,-0.19279124
20231225 03:36:53,-0.233965,0.678287,-0.158875,0.074353,-0.327922,-0.297988,-3.607548,24.265675,-32.358635,16.168985,-0.39450654,0.6538466,-0.025015593,-0.12015344,-0.2504841,-0.17835139
20231225 03:36:53,-0.295748,0.601476,-0.020980,0.072222,-0.452568,-0.252178,-2.982513,23.842636,-32.458778,15.779303,-0.31548378,0.54157406,0.121924065,-0.05989489,-0.37748623,-0.13024187
20231225 03:36:53,-0.176425,0.368221,-0.326961,0.027478,-0.669899,-0.188257,-3.899399,22.822075,-31.731438,15.95855,-0.42723957,0.39450443,-0.102194495,-0.012879953,-0.6163187,-0.020332396
20231225 03:36:53,-0.077316,0.384789,-0.535257,-0.001287,-0.737016,-0.180800,-3.854958,23.489056,-32.042458,15.390373,-0.54145217,0.46025446,-0.28801465,-0.01713194,-0.68869334,0.013163939
20231225 03:36:53,0.066424,0.480327,-1.043831,-0.068404,-0.815852,-0.182930,-4.346939,24.203541,-31.826057,16.208097,-0.9278923,0.66991293,-0.6430292,-0.037004516,-0.7702286,0.08545759
20231225 03:36:53,0.065544,0.599057,-1.408526,-0.146174,-0.810525,-0.193584,-4.761070,23.505482,-31.248726,16.966684,-1.2575326,0.8533431,-0.83776534,-0.086961575,-0.7717016,0.1518079
20231225 03:36:53,-0.009933,0.762727,-1.373374,-0.199441,-0.760454,-0.213825,-5.131920,24.050083,-31.823860,17.987131,-1.29521,1.0108954,-0.795894,-0.13213459,-0.721956,0.18655871
20231225 03:36:53,-0.194696,0.895512,-1.056292,-0.215422,-0.688010,-0.259635,-5.069813,23.197586,-31.097725,20.23606,-1.1521684,1.071512,-0.5744401,-0.17017674,-0.6354043,0.17454755
20231225 03:36:53,-0.585877,1.078816,-0.605237,-0.173873,-0.609174,-0.316099,-5.129730,24.800156,-31.470879,21.104977,-1.0773563,1.0738102,-0.07698792,-0.19479838,-0.53248596,0.09761153
20231225 03:36:53,-1.139419,1.297074,-0.083358,-0.071600,-0.544188,-0.365105,-6.012291,24.927231,-31.889870,24.66392,-1.1244714,0.9860127,0.5270542,-0.15941457,-0.42010623,-0.007077679
20231225 03:36:53,-1.790142,1.643988,0.210029,0.186215,-0.457895,-0.349125,-5.872456,24.563610,-32.132668,28.209694,-1.51083,0.93225694,1.0538924,0.022659406,-0.24279717,-0.20310217
20231225 03:36:53,-2.400523,2.055611,0.109828,0.272508,-0.417412,-0.312903,-5.714699,24.390026,-32.387718,32.048775,-2.2031622,0.981426,1.3359663,0.119261295,-0.14485946,-0.24504812
20231225 03:36:53,-2.895336,2.598327,-0.270704,0.396088,-0.358818,-0.190388,-6.110905,23.882015,-31.822624,36.30883,-3.0418878,1.3179195,1.4359672,0.26350418,-0.073337846,-0.29692957
20231225 03:36:53,-2.929614,3.089294,-0.874348,0.390761,-0.323661,-0.010344,-6.313873,23.772385,-31.817482,37.612556,-3.6638606,2.064028,1.220671,0.35532618,-0.13934055,-0.24107052
20231225 03:36:53,-2.376429,3.343450,-1.087416,0.222436,-0.369471,0.183549,-6.101940,23.977036,-31.828743,32.195374,-3.4055045,2.8284569,0.8006284,0.4057514,-0.34921858,-0.027585976
20231225 03:36:53,-1.367604,3.119630,-0.897095,-0.032182,-0.499444,0.334829,-5.758369,23.339264,-31.515739,23.24055,-2.264113,3.0036037,0.22053975,0.4020584,-0.5715116,0.26923233
20231225 03:36:53,-0.300412,2.669693,-0.536580,-0.275081,-0.579345,0.414730,-6.753864,24.115013,-31.710243,14.6083765,-0.8575958,2.6870008,-0.35732275,0.26482522,-0.6293734,0.5179134
20231225 03:36:53,0.701393,2.122286,0.052042,-0.449798,-0.539927,0.413665,-6.471249,23.754074,-31.281960,7.4605517,0.5176962,2.1054811,-0.7027552,0.061508536,-0.5146563,0.6440797
20231225 03:36:53,1.409522,1.703951,0.910119,-0.595751,-0.352425,0.271973,-7.007668,23.801567,-30.754524,5.1482277,1.7674603,1.6565287,-0.4873075,-0.24903837,-0.28191507,0.6382729
20231225 03:36:53,1.674233,1.157741,2.058767,-0.601078,-0.282112,0.194203,-6.771023,23.541199,-31.137077,5.4101243,2.6954265,1.167442,0.30040526,-0.33156404,-0.22411275,0.56813705
20231225 03:36:53,1.509202,0.399368,3.263157,-0.494543,-0.118049,0.042924,-7.141872,24.085793,-31.712196,8.090985,3.1626544,0.43702146,1.6565123,-0.37599617,-0.09558042,0.34140122
20231225 03:36:53,0.883173,-0.249874,4.196635,-0.266558,0.077975,-0.059350,-6.928520,25.424301,-31.931435,10.938247,2.970026,-0.27257666,3.0708869,-0.2582742,0.074949704,0.07889559
20231225 03:36:53,0.164939,-0.814729,4.937346,0.027478,0.217536,-0.091310,-6.673950,25.353970,-32.326225,13.596447,2.5337443,-0.9778173,4.3008595,-0.027288012,0.22198442,-0.13594458
20231225 03:36:53,-0.392594,-1.378137,5.149445,0.325775,0.234581,-0.072134,-6.682144,24.875172,-31.759148,15.490739,2.025888,-1.6539524,4.9341755,0.2471411,0.26754606,-0.26493663
20231225 03:36:53,-0.549514,-1.819864,4.586234,0.551629,0.156811,-0.043370,-6.630543,24.695210,-32.148811,16.321829,1.7377317,-2.1359158,4.604149,0.45902604,0.21969494,-0.33256134
20231225 03:36:53,-0.551628,-1.952956,3.582227,0.668817,0.035361,-0.005017,-7.080925,23.808968,-31.827507,17.148233,1.4378381,-2.229538,3.7329216,0.57311606,0.109601215,-0.34981257
20231225 03:36:53,-0.275582,-2.046185,2.505515,0.686928,-0.123376,0.016290,-7.027134,24.379086,-31.864189,15.412301,1.2674187,-2.2038891,2.6175022,0.58831203,-0.06382175,-0.3396617
20231225 03:36:53,0.026776,-2.100521,1.291595,0.621942,-0.258675,0.020551,-7.081303,24.000854,-32.107964,14.264919,0.92818713,-2.1583517,1.3712473,0.51394975,-0.21808085,-0.32015398
20231225 03:36:53,0.339835,-2.015352,0.200477,0.487708,-0.334315,0.020551,-7.053261,23.710247,-31.284889,11.8157625,0.42944825,-2.0107152,0.21282597,0.37770268,-0.32310945,-0.2682978
20231225 03:36:53,0.670040,-2.033266,-0.643631,0.305533,-0.356687,0.004571,-7.282738,23.123669,-30.980949,9.9111185,-0.040688097,-2.0494342,-0.68391347,0.20694369,-0.36027268,-0.17866632
20231225 03:36:53,0.854892,-2.063152,-1.289407,0.106313,-0.294897,-0.019932,-6.905117,21.924019,-30.764915,7.953844,-0.50278115,-2.140434,-1.294381,0.04241062,-0.29889438,-0.06699656
20231225 03:36:53,0.986567,-2.054203,-1.379148,-0.079057,-0.176643,-0.050827,-7.160839,22.570015,-31.211525,7.7657013,-0.45504165,-2.1523204,-1.461811,-0.09854035,-0.17540483,0.041017998
20231225 03:36:53,0.917281,-2.146735,-0.979108,-0.209030,-0.070108,-0.088114,-7.249836,23.137447,-31.919319,9.094029,-0.08456999,-2.1875048,-1.0914052,-0.2119984,-0.06737861,0.093224615
20231225 03:36:53,0.709201,-2.186292,-0.449339,-0.274016,0.016185,-0.130728,-7.055447,22.960171,-31.637871,11.322472,0.25366297,-2.1706893,-0.48277494,-0.29132742,0.014042564,0.08561215
20231225 03:36:53,0.352002,-2.073951,0.097241,-0.291061,0.074779,-0.163754,-7.283894,23.699337,-31.822365,14.247662,0.43432447,-2.052012,0.23301856,-0.33126098,0.06564726,0.05341527
20231225 03:36:53,0.022327,-1.834514,0.537102,-0.270820,0.096086,-0.174407,-6.974762,23.815346,-31.692879,15.874867,0.50741124,-1.8611904,0.761611,-0.3260674,0.08394431,0.027504846
20231225 03:36:53,-0.321928,-1.403576,0.703178,-0.230337,0.114197,-0.150970,-6.929939,24.290443,-31.723457,17.393549,0.37512347,-1.4998884,1.0270063,-0.2833019,0.10122726,0.021028973
20231225 03:36:53,-0.544774,-0.904819,0.731170,-0.182396,0.135504,-0.090245,-7.045063,24.189045,-31.851952,18.415384,0.21751043,-1.0535443,1.0843624,-0.2102023,0.120588236,0.033322696
20231225 03:36:53,-0.555670,-0.501648,0.629060,-0.137651,0.149353,-0.006082,-6.956448,23.813496,-31.424644,18.368244,0.123146296,-0.64607155,0.92451835,-0.11963768,0.13018696,0.062081393
20231225 03:36:53,-0.442887,-0.250880,0.394172,-0.109952,0.170660,0.073819,-7.256996,23.984398,-31.840706,17.851612,0.014572829,-0.3444056,0.6321382,-0.04185295,0.14717479,0.09286642
20231225 03:36:53,-0.210308,-0.191787,0.279156,-0.088645,0.189837,0.136674,-7.046482,23.055191,-31.643974,16.035608,0.08439867,-0.2339059,0.37086236,0.024351649,0.16817534,0.11868362
20231225 03:36:53,0.075870,-0.146518,0.178007,-0.070534,0.202621,0.170765,-6.734398,23.537502,-30.600594,13.632543,0.19188012,-0.15277807,0.08145362,0.06771273,0.18764412,0.13130225
20231225 03:36:53,0.379405,-0.351458,0.152833,-0.042835,0.217536,0.170765,-6.868607,23.821728,-31.558281,11.601893,0.3786131,-0.34586295,-0.13072771,0.09086867,0.21162084,0.11505099
20231225 03:36:53,0.561745,-0.466774,0.132462,-0.007679,0.236712,0.148393,-6.553467,23.666451,-32.348839,10.448519,0.48674688,-0.45988807,-0.2665428,0.0995788,0.23393111,0.07556781
20231225 03:36:53,0.634050,-0.485984,0.117324,0.032804,0.259084,0.138805,-6.903046,24.575500,-31.741783,10.611873,0.52499324,-0.47967798,-0.3234072,0.120400414,0.25762537,0.036608413
20231225 03:36:53,0.655698,-0.596023,0.148463,0.066896,0.277195,0.131347,-6.993076,23.817196,-31.961128,10.562285,0.5667879,-0.5919611,-0.29516682,0.13869174,0.2766199,0.0061540455
20231225 03:36:53,0.721512,-0.798574,0.277637,0.090333,0.264411,0.130282,-6.524384,24.701591,-32.014198,9.460283,0.7083192,-0.79703605,-0.22615401,0.15516311,0.26426703,-0.0041137114
20231225 03:36:53,0.807372,-0.944557,0.269192,0.099921,0.227124,0.131347,-6.085159,24.742737,-32.682381,7.663767,0.75037146,-0.95159227,-0.28951305,0.16641805,0.2274876,5.844012E-4
20231225 03:36:53,0.923855,-1.014171,0.249118,0.100987,0.185575,0.128151,-6.312450,24.906239,-32.025444,7.1596713,0.8060388,-1.032132,-0.38092804,0.16680545,0.1861232,0.0034365878
20231225 03:36:53,1.099929,-1.140758,0.259669,0.092464,0.124850,0.114302,-6.109867,25.207756,-32.311058,5.774213,0.9235371,-1.1760052,-0.49453717,0.15103814,0.12539491,0.008686192
20231225 03:36:53,1.253399,-1.232781,0.156544,0.078614,0.046015,0.094060,-6.048149,24.547153,-31.865410,4.644054,0.92673707,-1.2960193,-0.6980536,0.124576405,0.04671626,0.008885574
20231225 03:36:53,1.391415,-1.235074,-0.069906,0.060503,-0.015775,0.063165,-6.261887,23.400536,-31.926659,3.8114142,0.8193768,-1.3417152,-0.9901222,0.08590662,-0.015314966,0.0011856742
20231225 03:36:53,1.501649,-1.183166,-0.395854,0.033870,-0.048801,0.026943,-6.120251,23.978882,-32.096977,2.2940793,0.59928215,-1.352357,-1.3450546,0.037527982,-0.048727207,-0.005621353
20231225 03:36:54,1.596649,-1.134188,-0.718295,0.004040,-0.024298,-0.024193,-6.349346,23.200417,-31.512550,1.7832233,0.37066537,-1.3734481,-1.6542982,-0.01836314,-0.027334496,-0.01837692
20231225 03:36:54,1.551878,-0.970514,-0.812605,-0.036443,0.027904,-0.091310,-6.338963,24.429291,-31.726631,3.2879245,0.27757794,-1.1649908,-1.6766808,-0.090298384,0.021811822,-0.031210503
20231225 03:36:54,1.297934,-0.691683,-0.672890,-0.088645,0.065191,-0.157362,-6.394173,22.725319,-31.481987,6.843528,0.28484792,-0.7637766,-1.3723216,-0.1747648,0.061607912,-0.036761925
20231225 03:36:54,0.773871,-0.448079,-0.381773,-0.131259,0.074779,-0.202107,-6.083626,23.975185,-31.560478,10.774722,0.22572264,-0.4122542,-0.77832943,-0.24139905,0.077787325,-0.03759093
20231225 03:36:54,0.256632,-0.176119,-0.036734,-0.150435,0.075844,-0.210629,-6.111668,24.265789,-32.383568,14.006182,0.1567415,-0.15173885,-0.18890592,-0.26326707,0.082390465,-0.03288337
20231225 03:36:54,-0.170881,0.067149,0.278028,-0.132325,0.076910,-0.190388,-6.278393,24.344349,-32.122398,16.840574,0.082221,0.009892475,0.29159957,-0.23806432,0.08523068,-0.037017047
20231225 03:36:54,-0.491370,0.296038,0.524706,-0.083319,0.083302,-0.145643,-6.339348,24.621178,-32.007118,18.029533,0.0075360537,0.14567709,0.63764673,-0.17411152,0.09207297,-0.048397742
20231225 03:36:54,-0.671173,0.403412,0.626618,-0.016202,0.068387,-0.094506,-6.208862,24.354431,-32.524284,18.604197,-0.053522468,0.1960839,0.8107275,-0.090808496,0.07972665,-0.06185145
20231225 03:36:54,-0.664206,0.501091,0.369764,0.047719,0.053472,-0.045500,-6.296326,24.154308,-32.110176,19.23079,-0.2346755,0.32778752,0.62848455,-0.012886893,0.06689822,-0.07541588
20231225 03:36:54,-0.536888,0.560810,-0.104240,0.095660,0.065191,-0.010344,-6.023441,24.082134,-32.236732,18.601892,-0.5041636,0.49376696,0.25940323,0.038421914,0.07815251,-0.09467426
20231225 03:36:54,-0.425334,0.560074,-0.614336,0.120163,0.096086,0.001375,-6.110905,23.882015,-31.822624,18.671244,-0.8347082,0.6030815,-0.08749066,0.05287089,0.108474694,-0.11536753
20231225 03:36:54,-0.322295,0.613298,-1.040487,0.111640,0.122720,-0.005017,-5.777836,23.916779,-32.625404,19.365837,-1.1482608,0.7645452,-0.36970934,0.031324375,0.13469425,-0.118473776
20231225 03:36:54,-0.420197,0.712758,-1.370630,0.088202,0.168530,-0.015671,-6.040604,23.508316,-31.663551,21.408987,-1.5118885,0.945971,-0.43613845,-0.006501223,0.17825209,-0.11486735
20231225 03:36:54,-0.525751,0.816009,-1.490912,0.063699,0.237777,-0.020997,-5.751209,22.492317,-31.594353,22.897316,-1.7018745,1.0854293,-0.4185511,-0.04679525,0.24190497,-0.112150155
20231225 03:36:54,-0.710264,0.884552,-1.418212,0.049850,0.297437,-0.014605,-5.698570,23.638103,-32.472450,23.519503,-1.7594292,1.108002,-0.27104354,-0.068489835,0.29360998,-0.11213701
20231225 03:36:54,-0.844072,0.891540,-1.210002,0.037066,0.319809,0.008832,-5.750942,24.201836,-32.643745,24.133007,-1.6701671,1.0274581,-0.09543151,-0.06534005,0.30456126,-0.09807621
20231225 03:36:54,-0.926074,0.891616,-1.012331,0.037066,0.326201,0.057838,-5.654129,24.305088,-32.783485,23.359537,-1.5549809,0.9504906,0.060103655,-0.024530653,0.29836866,-0.07309955
20231225 03:36:54,-0.818134,0.831291,-0.941653,0.038131,0.316613,0.116433,-5.290829,24.799324,-32.410225,21.4067,-1.4112294,0.891391,0.022726864,0.032999124,0.27842718,-0.035662062
20231225 03:36:54,-0.543306,0.653366,-1.004960,0.042393,0.305960,0.164373,-5.532230,23.751431,-33.014076,20.11868,-1.2523243,0.77265054,-0.19141448,0.08799836,0.26491556,-0.008268461
20231225 03:36:54,-0.275274,0.499053,-1.089276,0.051981,0.311286,0.191007,-5.654129,24.305088,-32.783485,17.859472,-1.1294926,0.6508441,-0.42486313,0.1282621,0.27571902,0.004103489
20231225 03:36:54,-0.030717,0.313157,-1.193980,0.066896,0.326201,0.202726,-5.362549,24.039169,-32.361320,16.261837,-1.0460844,0.4920553,-0.65198594,0.15186268,0.29542717,8.113533E-4
20231225 03:36:54,0.168222,0.119519,-1.196754,0.079680,0.338985,0.197399,-5.238842,24.427479,-32.519402,14.038907,-0.9105611,0.27725685,-0.79531324,0.1656902,0.31775248,-0.0063984543
20231225 03:36:54,0.377392,-0.038408,-1.236757,0.083941,0.330463,0.171831,-4.941635,24.082165,-33.297722,11.908042,-0.8132751,0.09646708,-0.9783788,0.15883483,0.3179781,-0.014813021
20231225 03:36:54,0.573103,-0.037741,-1.262503,0.067961,0.295306,0.124955,-5.003620,23.033253,-32.693993,11.036199,-0.7420308,0.07651605,-1.1505791,0.12083067,0.28862557,-0.021119341
20231225 03:36:54,0.623742,0.131997,-1.287700,0.037066,0.250562,0.074884,-4.834709,23.704769,-32.602180,10.78205,-0.7680746,0.25173244,-1.2117357,0.064963564,0.24595435,-0.017326385
20231225 03:36:54,0.564888,0.358874,-1.320671,-0.005548,0.204752,0.042924,-4.509457,23.068851,-32.557442,11.399182,-0.866877,0.5065603,-1.1877346,0.015265578,0.1994453,0.005584024
20231225 03:36:54,0.486517,0.554783,-1.378924,-0.055619,0.167464,0.026943,-5.031670,23.323856,-33.517067,12.808031,-0.9914308,0.72588325,-1.1633894,-0.022772893,0.15993235,0.042440638
20231225 03:36:54,0.457293,0.672024,-1.328725,-0.099299,0.139765,0.023747,-4.332348,24.219170,-33.032677,12.062334,-0.97687703,0.8439547,-1.1257038,-0.04571843,0.12945147,0.082470536
20231225 03:36:54,0.424416,0.736515,-1.298705,-0.132325,0.126981,0.024813,-4.307640,23.754150,-33.403984,12.144221,-0.9738962,0.9043566,-1.0915434,-0.060580827,0.11429479,0.112574175
20231225 03:36:54,0.429163,0.757297,-1.189866,-0.160024,0.119524,0.023747,-4.490490,24.584637,-33.058098,11.794473,-0.8583087,0.9006206,-1.0573239,-0.07606439,0.10614283,0.13564007
20231225 03:36:54,0.471583,0.729626,-1.062079,-0.187723,0.093955,0.021617,-4.924091,24.464092,-33.590431,11.878308,-0.71457756,0.85164773,-1.0293231,-0.089804575,0.080463015,0.16028185
20231225 03:36:54,0.502939,0.763638,-1.006375,-0.228206,0.065191,0.012028,-4.678101,24.106857,-33.698631,11.0752535,-0.64007163,0.87076783,-1.0323448,-0.11759696,0.051751938,0.19231391
20231225 03:36:54,0.540397,0.714353,-0.877950,-0.281473,0.041753,0.002440,-4.447857,24.309654,-33.441643,10.588865,-0.4832116,0.8098094,-1.0017738,-0.15771458,0.02637502,0.23108682
20231225 03:36:54,0.572573,0.689983,-0.576855,-0.310238,0.023642,-0.019932,-4.341694,24.316032,-33.307030,9.674188,-0.18244064,0.75133526,-0.86306936,-0.19719791,0.010637857,0.23939823
20231225 03:36:54,0.524287,0.753352,-0.316357,-0.307042,0.020446,-0.049762,-4.739052,24.383682,-33.583336,11.211326,-0.0070340484,0.8067358,-0.69276834,-0.22261663,0.006063585,0.21695009
20231225 03:36:54,0.361336,0.931125,-0.115573,-0.284669,0.027904,-0.077461,-4.773109,24.945572,-33.486397,12.332125,0.025784053,0.96246135,-0.47572127,-0.23299292,0.0143046295,0.18149115
20231225 03:36:54,0.131805,1.245747,-0.075686,-0.243121,0.057734,-0.088114,-4.463982,25.061581,-33.356911,14.274701,-0.16545814,1.2504029,-0.3277075,-0.21980056,0.04454395,0.14060886
20231225 03:36:54,-0.206543,1.587896,-0.034409,-0.186657,0.109936,-0.082788,-4.977615,25.603497,-34.603127,16.727629,-0.43159366,1.5292505,-0.11241665,-0.19310097,0.0985838,0.08906175
20231225 03:36:54,-0.443354,1.860798,-0.014450,-0.111018,0.163203,-0.071069,-4.528656,25.355888,-34.716469,18.02601,-0.658941,1.7359008,0.033267975,-0.1541655,0.15662205,0.025004867
20231225 03:36:54,-0.722448,2.242661,-0.105128,-0.026855,0.222862,-0.064677,-4.916279,25.134781,-34.437965,21.061495,-1.0611637,2.0368185,0.11070974,-0.12405437,0.22411397,-0.05429219
20231225 03:36:54,-1.019071,2.699879,-0.179463,0.025347,0.256954,-0.054023,-4.623661,26.194603,-34.504234,22.478956,-1.4922918,2.387289,0.22159313,-0.1059032,0.2613077,-0.10056573
20231225 03:36:54,-1.262579,3.203521,-0.119094,0.015759,0.204752,-0.022063,-4.195206,25.198765,-35.238792,23.395187,-1.7819484,2.7579038,0.35601076,-0.07496852,0.1998664,-0.06644388
20231225 03:36:54,-1.259566,3.453683,-0.178843,-0.060946,0.093955,0.043989,-4.034874,25.583374,-34.860390,22.055758,-1.8420227,3.0540795,0.33268893,-0.024550702,0.06333241,0.055156738
20231225 03:36:54,-0.747373,3.036106,-0.289225,-0.160024,0.020446,0.113237,-4.538002,25.452759,-34.990837,17.328676,-1.2569815,2.9111598,0.02399905,0.0063146874,-0.023787335,0.18973193
20231225 03:36:54,0.042710,2.402540,-0.234729,-0.235663,0.043884,0.130282,-4.704342,25.339428,-34.449211,12.40693,-0.43617284,2.4104342,-0.4463908,-0.026942678,0.011897991,0.26157552
20231225 03:36:54,0.503460,1.722456,0.183063,-0.294257,0.105674,0.088734,-4.556702,25.646496,-35.539543,10.127757,0.32954085,1.7301905,-0.47314113,-0.117871635,0.08264887,0.27474284
20231225 03:36:54,0.496680,1.057853,0.820932,-0.344329,0.118458,0.021617,-4.265503,25.572468,-35.397850,10.557293,0.8536713,1.0244877,0.056839943,-0.22888568,0.091231845,0.25095606
20231225 03:36:54,0.208384,0.439274,1.566316,-0.361374,0.084367,-0.050827,-4.687183,25.913246,-35.022377,12.475446,1.1572745,0.3158329,0.9232735,-0.30920342,0.052473802,0.19230664
20231225 03:36:54,-0.100628,0.021981,2.187063,-0.328349,0.025773,-0.108356,-4.563095,26.109665,-34.900002,13.946504,1.2794892,-0.22062337,1.7067559,-0.3249193,-0.0055991393,0.120605595
20231225 03:36:54,-0.437734,-0.042718,2.569913,-0.254840,-0.040278,-0.129663,-4.546200,24.973961,-34.423775,15.677892,1.2530897,-0.4286973,2.2059743,-0.27296123,-0.062417217,0.0721171
20231225 03:36:54,-0.792009,0.244303,2.442520,-0.190919,-0.094611,-0.094506,-4.907696,25.421688,-34.724541,17.752111,0.8986084,-0.27838272,2.2278218,-0.1904279,-0.11177409,0.077222176
20231225 03:36:54,-0.915396,0.371036,2.113443,-0.157893,-0.121245,-0.013540,-5.024742,26.279728,-36.255394,17.653215,0.61935157,-0.13236764,2.0300117,-0.107874736,-0.14359601,0.12260655
20231225 03:36:54,-0.670428,0.234191,1.677001,-0.152566,-0.086088,0.073819,-5.243069,26.538254,-35.604576,16.459831,0.55832744,-0.104794025,1.5973806,-0.05407468,-0.11791993,0.17254801
20231225 03:36:54,-0.354423,-0.290560,1.672770,-0.153632,0.003401,0.128151,-4.767601,26.767590,-36.016731,14.28736,0.7675743,-0.5087691,1.551322,-0.043468833,-0.030594368,0.19183072
20231225 03:36:54,-0.196819,-0.994114,2.040481,-0.128063,0.082237,0.143066,-4.848282,25.912415,-35.961723,14.376732,1.0489371,-1.1877378,1.9547884,-0.03469415,0.051732127,0.16952346
20231225 03:36:54,-0.243333,-1.631075,2.501373,-0.073730,0.121654,0.135609,-4.873756,26.761208,-36.151360,14.279281,1.1508622,-1.8356935,2.5690126,-0.006116532,0.10005912,0.1246959
20231225 03:36:54,-0.237432,-2.060258,2.846535,0.025347,0.091825,0.122825,-4.618805,26.498989,-36.265663,14.196632,1.2536193,-2.2709517,2.9963696,0.07267255,0.08541523,0.073463865
20231225 03:36:54,-0.257608,-2.349378,2.750964,0.149993,0.009793,0.114302,-5.147026,27.025280,-36.305275,14.720842,1.2297633,-2.5549986,2.9914188,0.1848934,0.02156649,0.024173737
20231225 03:36:54,-0.208512,-2.306574,2.118893,0.275704,-0.043475,0.122825,-4.785145,26.385662,-35.724052,14.238345,1.1026378,-2.478364,2.344246,0.3020178,-0.016329926,-0.0333208
20231225 03:36:54,0.042759,-2.118817,1.166925,0.365193,-0.031756,0.144132,-5.059448,25.323986,-35.389534,13.168998,0.8753539,-2.1847904,1.283337,0.38172984,-0.004648911,-0.09576398
20231225 03:36:54,0.300799,-1.854906,0.251522,0.364128,0.010858,0.144132,-4.865829,25.530487,-35.669029,12.476792,0.54503024,-1.8325737,0.28676856,0.36696717,0.0332431,-0.13651085
20231225 03:36:54,0.367483,-1.561203,-0.430974,0.279965,0.056668,0.135609,-4.938702,25.345993,-36.461540,12.475363,0.095516175,-1.4767319,-0.32006168,0.28736544,0.068972185,-0.114600934
20231225 03:36:54,0.261180,-1.240211,-0.726185,0.152123,0.124850,0.116433,-5.300194,25.793724,-36.762291,14.912775,-0.18741593,-1.0995486,-0.45216376,0.17200485,0.12626626,-0.056043915
20231225 03:36:54,-0.059118,-0.930435,-0.410388,0.021086,0.169595,0.107910,-5.052021,26.186558,-36.517540,16.773977,-0.18124922,-0.8523615,-0.04486227,0.06331892,0.15175381,0.023002412
20231225 03:36:54,-0.522342,-0.730537,0.079778,-0.081188,0.172791,0.128151,-4.754044,25.457474,-36.734901,18.606491,-0.19667165,-0.8184389,0.5830012,-0.004966557,0.12861867,0.10395562
20231225 03:36:54,-0.838035,-0.664230,0.734168,-0.129129,0.169595,0.176092,-5.009769,26.103470,-37.181541,19.088095,-0.059519023,-0.934639,1.2371478,-0.016351268,0.10746178,0.16831344
20231225 03:36:54,-1.009087,-0.632653,1.312871,-0.102495,0.152550,0.242144,-4.269611,25.781826,-37.153175,18.4575,0.12553066,-1.038235,1.7579573,0.042658,0.085273996,0.20532021
20231225 03:36:54,-1.042346,-0.621264,1.572638,-0.031116,0.144027,0.320979,-4.912571,26.014832,-37.040810,18.667841,0.2394473,-1.0579174,1.9692783,0.14729437,0.081997626,0.22057693
20231225 03:36:54,-0.833089,-0.749625,1.509767,0.055177,0.137635,0.392358,-4.312630,26.248699,-37.050117,16.060415,0.3813737,-1.0784966,1.813201,0.26496089,0.09009863,0.22885722
20231225 03:36:54,-0.450274,-0.926767,1.216513,0.126555,0.141896,0.432841,-4.499092,25.195259,-36.849236,14.141235,0.52358997,-1.102533,1.3675141,0.35552463,0.10958585,0.21422309
20231225 03:36:54,0.042272,-1.091310,0.799976,0.183018,0.160007,0.428580,-4.745464,25.744381,-37.021492,11.760364,0.6395237,-1.1414449,0.7277096,0.40618223,0.14209446,0.16999713
20231225 03:36:54,0.351786,-1.191679,0.412520,0.221371,0.194098,0.394488,-4.253483,25.029903,-37.237907,9.8011055,0.6072427,-1.1889112,0.21062973,0.4174912,0.18432048,0.11210136
20231225 03:36:54,0.502822,-1.219192,0.098053,0.234155,0.214340,0.342286,-4.640343,24.425018,-36.398445,9.851408,0.4945467,-1.1933594,-0.12741575,0.39397204,0.20860589,0.055082157
20231225 03:36:54,0.569763,-1.189129,-0.061971,0.230959,0.211144,0.290084,-4.147709,25.228172,-37.383766,8.677839,0.41609597,-1.1555016,-0.32078645,0.35771978,0.20767498,0.015908137
20231225 03:36:54,0.553906,-1.139062,-0.205300,0.219240,0.190902,0.232556,-3.883793,25.060974,-37.504189,9.108282,0.30878833,-1.089596,-0.41284093,0.30732542,0.18902183,-0.01825893
20231225 03:36:54,0.488467,-1.105148,-0.246158,0.212848,0.174922,0.205922,-4.041935,25.426441,-37.529625,9.60332,0.23398653,-1.0527067,-0.393607,0.2835716,0.17398804,-0.033912137
20231225 03:36:54,0.330811,-0.928173,-0.426961,0.188345,0.133373,0.143066,-4.087143,25.143234,-37.779533,11.371552,-0.0051892996,-0.85128593,-0.40351778,0.2186729,0.13476738,-0.06394008
20231225 03:36:54,0.143928,-0.839029,-0.520155,0.176626,0.118458,0.118563,-3.733959,26.118118,-38.241570,12.303415,-0.18958357,-0.7497567,-0.3253491,0.19005646,0.12129779,-0.073136464
20231225 03:36:54,-0.001172,-0.782342,-0.590559,0.162777,0.108870,0.108975,-3.205738,25.591827,-38.201958,12.554951,-0.3348586,-0.6903178,-0.2648951,0.17289686,0.11140918,-0.069044724
20231225 03:36:54,-0.071897,-0.748354,-0.592999,0.145731,0.097151,0.108975,-3.886745,24.694675,-38.418114,14.006972,-0.382282,-0.6596028,-0.20242015,0.16236046,0.09774158,-0.056937605
20231225 03:36:54,-0.078824,-0.751563,-0.568218,0.131882,0.081171,0.112171,-3.886360,24.502785,-38.137642,13.889768,-0.3693636,-0.669077,-0.18315846,0.15835574,0.08004343,-0.041281663
20231225 03:36:54,-0.046363,-0.799227,-0.547226,0.119098,0.051341,0.111106,-3.392963,24.922157,-38.562019,12.621639,-0.33398044,-0.7211735,-0.19990386,0.15398939,0.049508255,-0.026549034
20231225 03:36:54,0.060864,-0.843472,-0.608877,0.097791,0.011924,0.096191,-3.798515,24.511013,-38.271278,12.300086,-0.31922638,-0.7560812,-0.31594828,0.13438751,0.010299266,-0.0149697475
20231225 03:36:54,0.166500,-0.849946,-0.696591,0.059438,-0.042409,0.067427,-3.559303,24.808830,-38.020393,11.540554,-0.32663965,-0.7475,-0.4566136,0.094040856,-0.043930847,0.0022728667
20231225 03:36:54,0.179940,-0.801149,-0.758756,0.014693,-0.090350,0.033335,-3.639221,23.569878,-37.404427,11.905623,-0.3739921,-0.6896514,-0.50589216,0.04503281,-0.091776274,0.02125544
20231225 03:36:54,0.185928,-0.761255,-0.760006,-0.034313,-0.127637,-0.005017,-4.027229,23.540661,-37.406380,11.997066,-0.38079172,-0.65646416,-0.5159594,-0.012060942,-0.12889697,0.040226188
20231225 03:36:54,0.213867,-0.672661,-0.676811,-0.075861,-0.165990,-0.045500,-3.605282,24.909397,-38.831230,10.653893,-0.31668782,-0.5836028,-0.50868934,-0.06676832,-0.1663026,0.04967954
20231225 03:36:54,0.211533,-0.552646,-0.621198,-0.111018,-0.188362,-0.095572,-3.792507,24.239731,-39.191307,11.627993,-0.28122067,-0.46101505,-0.47890288,-0.12316279,-0.18602051,0.050492488
20231225 03:36:54,0.018152,-0.389702,-0.451200,-0.132325,-0.187297,-0.133924,-3.808250,24.799774,-38.826103,13.303903,-0.27616087,-0.32084334,-0.23847656,-0.16083468,-0.18129684,0.045312554
20231225 03:36:54,-0.188635,-0.199409,-0.187290,-0.134455,-0.181970,-0.154166,-3.896095,24.791546,-38.692467,14.464484,-0.23267765,-0.1919927,0.056304574,-0.1752353,-0.17283212,0.0335382
20231225 03:36:54,-0.386354,-0.100557,0.050041,-0.115279,-0.184100,-0.158427,-4.310230,24.093487,-38.115150,15.950875,-0.20435621,-0.16094862,0.33895028,-0.16296455,-0.17098913,0.018466055
20231225 03:36:54,-0.547673,-0.058442,0.123690,-0.079057,-0.176643,-0.152035,-3.931957,24.411465,-38.668022,16.346869,-0.2669577,-0.16313602,0.49743783,-0.1323655,-0.15789437,-0.005595602
20231225 03:36:54,-0.622651,-0.064536,0.142945,-0.031116,-0.160663,-0.133924,-4.188713,23.731720,-38.626198,16.847971,-0.3024449,-0.1842328,0.56663465,-0.089880265,-0.13800655,-0.031523146
20231225 03:36:54,-0.590421,-0.090613,0.101363,0.012563,-0.158532,-0.112617,-4.204838,24.483643,-38.541481,16.459923,-0.30516106,-0.19518965,0.52170634,-0.046383835,-0.13334848,-0.05145595
20231225 03:36:54,-0.449987,-0.238866,-0.075844,0.038131,-0.178774,-0.103029,-4.222767,24.293606,-38.529259,15.582252,-0.31343612,-0.28334954,0.33381993,-0.022808447,-0.1533201,-0.062379275
20231225 03:36:54,-0.235412,-0.361687,-0.366187,0.037066,-0.216061,-0.107291,-4.160015,24.958740,-38.572044,14.301298,-0.37476236,-0.33092028,0.009846896,-0.025823034,-0.19228034,-0.0609082
20231225 03:36:54,-0.054146,-0.390437,-0.627971,0.020020,-0.251217,-0.124336,-4.339428,24.959759,-39.779640,13.4374275,-0.4680922,-0.3084308,-0.28022337,-0.050857894,-0.22936277,-0.05451406
20231225 03:36:54,0.030532,-0.365258,-0.952783,-0.004483,-0.255479,-0.149904,-4.851139,24.542236,-39.623497,14.242367,-0.6845275,-0.22736135,-0.5231552,-0.08633973,-0.231856,-0.045725934
20231225 03:36:54,0.043031,-0.288219,-1.111119,-0.021528,-0.234172,-0.175473,-4.470676,25.610287,-39.823402,13.623813,-0.81843245,-0.1268835,-0.6324372,-0.120038144,-0.2087844,-0.050775312
20231225 03:36:54,-0.027143,-0.198200,-1.097872,-0.030051,-0.212865,-0.211695,-4.875847,25.007252,-39.252174,15.484592,-0.8577267,-0.022612736,-0.5655288,-0.15208241,-0.17845768,-0.06165462
20231225 03:36:55,-0.226923,0.059697,-1.118473,-0.033247,-0.192623,-0.247916,-4.867649,25.486050,-39.819252,17.441614,-1.0306082,0.24544735,-0.4384272,-0.17838503,-0.14314006,-0.07563801
20231225 03:36:55,-0.518093,0.312848,-1.098590,-0.044966,-0.180904,-0.268158,-4.709507,25.120583,-39.793816,20.168045,-1.2326403,0.47767705,-0.22869325,-0.19160604,-0.11521767,-0.0717306
20231225 03:36:55,-0.807132,0.568793,-1.051111,-0.066273,-0.188362,-0.254309,-4.955494,25.477821,-39.685600,22.237001,-1.4302928,0.67173874,-0.011641264,-0.18300602,-0.12014602,-0.038795993
20231225 03:36:55,-0.956619,0.641422,-1.043961,-0.100364,-0.203277,-0.221283,-4.771225,25.781185,-40.239464,22.113302,-1.5313369,0.7058098,0.0856815,-0.1719586,-0.1497803,0.008021131
20231225 03:36:55,-0.925572,0.591556,-0.915407,-0.139782,-0.233106,-0.177603,-4.789925,25.974926,-40.788185,21.260117,-1.3991605,0.6227501,0.11926144,-0.15786216,-0.20116499,0.06526865
20231225 03:36:55,-0.816182,0.453063,-0.744963,-0.176004,-0.269328,-0.141382,-5.292286,25.460529,-40.357689,20.091259,-1.1645204,0.46304303,0.13379371,-0.1537836,-0.2565694,0.115942545
20231225 03:36:55,-0.597046,0.254378,-0.665955,-0.191984,-0.294897,-0.117944,-5.132721,26.228912,-40.540215,17.870241,-0.92552793,0.28431192,0.028983623,-0.15203479,-0.2923302,0.13741863
20231225 03:36:55,-0.426666,0.083092,-0.549932,-0.193049,-0.316204,-0.113683,-5.432884,26.207928,-40.675819,16.895115,-0.6996679,0.1149472,-0.017316699,-0.15505019,-0.3160633,0.13890919
20231225 03:36:55,-0.236826,-0.021060,-0.426933,-0.182396,-0.349229,-0.125401,-5.565556,25.724598,-40.511604,15.37216,-0.47198227,0.011533644,-0.074573144,-0.16264355,-0.34693307,0.123007104
20231225 03:36:55,-0.074781,0.001246,-0.502192,-0.176004,-0.383321,-0.153100,-5.368980,26.297398,-39.877190,14.415905,-0.43319166,0.05866417,-0.2462433,-0.17810297,-0.37642413,0.10420704
20231225 03:36:55,-0.032582,0.085463,-0.591211,-0.169612,-0.403562,-0.187192,-5.971107,25.313450,-40.220879,14.688699,-0.4912084,0.15330243,-0.3391058,-0.20102452,-0.39203155,0.085398406
20231225 03:36:55,0.006091,0.298623,-0.739601,-0.171742,-0.413150,-0.231936,-6.049603,25.208351,-39.812874,15.427102,-0.6260197,0.39500228,-0.47169346,-0.23009571,-0.3928968,0.07181916
20231225 03:36:55,-0.153023,0.633895,-0.854421,-0.182396,-0.392909,-0.278812,-6.649929,25.166374,-40.084038,17.484335,-0.87418365,0.7408732,-0.45442116,-0.2658402,-0.36135712,0.06381929
20231225 03:36:55,-0.349901,0.957497,-0.766294,-0.187723,-0.353491,-0.322491,-6.314674,25.951221,-40.533852,18.905523,-0.99536455,1.0308356,-0.31026646,-0.2958855,-0.30665964,0.04368581
20231225 03:36:55,-0.703131,1.359853,-0.494184,-0.180265,-0.311942,-0.351255,-6.482170,26.413559,-40.833641,21.298542,-1.1093547,1.2995557,0.0059505403,-0.30669326,-0.24859826,0.019621253
20231225 03:36:55,-1.183068,1.669742,-0.140221,-0.145109,-0.284243,-0.349125,-6.306095,26.238129,-40.820442,23.401524,-1.2614421,1.375799,0.45934048,-0.27540028,-0.20580652,-0.010677353
20231225 03:36:55,-1.536457,1.844543,0.209067,-0.074796,-0.256544,-0.312903,-6.658245,26.588985,-40.846855,24.7943,-1.3123605,1.3315887,0.838166,-0.20499066,-0.17030942,-0.051438868
20231225 03:36:55,-1.744592,1.907885,0.413136,0.039196,-0.222453,-0.255374,-6.685902,26.687706,-41.389442,25.268763,-1.3413128,1.2637562,1.0697908,-0.097127706,-0.12705934,-0.11651794
20231225 03:36:55,-1.784162,1.740430,0.463232,0.174496,-0.169186,-0.195714,-6.764786,26.774494,-41.261940,24.884127,-1.282301,1.1007382,1.1681993,0.017157197,-0.06606509,-0.20208016
20231225 03:36:55,-1.575987,1.473075,0.420897,0.314056,-0.132964,-0.149904,-6.456039,27.082394,-41.412926,23.385225,-1.0781777,0.95013034,1.0830857,0.12626636,-0.021019183,-0.2954883
20231225 03:36:55,-1.333015,1.201968,0.193056,0.439767,-0.099938,-0.124336,-7.267914,26.643879,-41.392372,23.299887,-0.982027,0.839726,0.8502338,0.20801903,0.019695694,-0.38914016
20231225 03:36:55,-1.030345,1.069535,-0.118220,0.544171,-0.065847,-0.111552,-6.749813,26.598232,-42.188072,21.947247,-0.962532,0.867928,0.5120739,0.25968423,0.059323847,-0.48095825
20231225 03:36:55,-0.867980,1.132439,-0.462088,0.600635,-0.046671,-0.112617,-6.933697,26.102978,-41.353752,22.76209,-1.1372565,1.0454059,0.22352502,0.2644,0.086651325,-0.54307806
20231225 03:36:55,-0.846451,1.589700,-0.765966,0.583589,-0.064781,-0.089180,-6.651848,26.125816,-41.486397,23.20813,-1.4918746,1.5732594,0.021203607,0.25214034,0.0599029,-0.52620244
20231225 03:36:55,-0.783834,2.060319,-1.031631,0.467466,-0.142552,-0.035912,-7.120541,25.241425,-41.433327,23.427305,-1.789144,2.119382,-0.18105036,0.2370315,-0.056244235,-0.39598978
20231225 03:36:55,-0.571146,2.311156,-1.133262,0.255462,-0.267198,0.019486,-7.016571,24.497726,-41.651695,20.63824,-1.7459209,2.4214354,-0.37079424,0.19481005,-0.23337975,-0.1733807
20231225 03:36:55,-0.174460,2.603775,-1.082778,0.010432,-0.357752,0.058904,-7.061394,24.022629,-41.621132,17.02027,-1.42479,2.7164454,-0.6856994,0.11119619,-0.36050797,0.06602865
20231225 03:36:55,0.061138,2.907921,-0.656499,-0.202638,-0.379059,0.079145,-7.077518,24.774555,-41.536415,14.677272,-0.8595331,2.961005,-0.73627186,0.009558864,-0.39777276,0.26168334
20231225 03:36:55,0.117144,3.006316,0.114315,-0.382681,-0.384386,0.078080,-7.465912,24.937229,-41.818825,13.97933,-0.10853886,2.9858162,-0.43718258,-0.112124026,-0.41170833,0.4122007
20231225 03:36:55,0.115756,2.596821,0.884569,-0.533961,-0.371602,0.052512,-7.481655,25.497265,-41.453621,13.553751,0.56444365,2.5239954,0.06496757,-0.26161703,-0.40603217,0.5046301
20231225 03:36:55,-0.013455,1.877394,1.803096,-0.615993,-0.275720,0.036531,-7.791935,25.956921,-42.424522,14.318972,1.1264616,1.7326518,0.9116375,-0.38692924,-0.32205105,0.51079625
20231225 03:36:55,-0.222431,1.069928,3.032565,-0.545680,-0.076500,0.059969,-7.798714,26.611977,-42.065437,15.221762,1.6176805,0.8266466,2.2129571,-0.3856428,-0.12945664,0.39959157
20231225 03:36:55,-0.508144,0.035198,4.168501,-0.341133,0.149353,0.115367,-7.621868,26.052769,-41.491280,16.651493,1.7209761,-0.30186427,3.6634798,-0.24138223,0.1027614,0.23577705
20231225 03:36:55,-0.676062,-1.052540,5.064396,-0.064142,0.282522,0.166504,-7.703323,25.581371,-41.997215,17.147554,1.6026767,-1.369526,4.940731,-0.0010085106,0.2655426,0.09600781
20231225 03:36:55,-0.524956,-2.115692,5.551996,0.236286,0.223928,0.151589,-7.685772,25.963303,-42.289909,16.811274,1.6785057,-2.3684213,5.686891,0.26707467,0.23928303,-0.014709264
20231225 03:36:55,-0.292492,-2.836719,5.024312,0.504754,0.044949,0.088734,-7.270870,26.277580,-42.306297,15.555734,1.6741999,-3.0177603,5.3118696,0.5001328,0.08420641,-0.118504904
20231225 03:36:55,-0.081216,-3.205975,3.590357,0.724215,-0.091415,0.003506,-7.403156,25.602364,-41.861626,14.94352,1.5330826,-3.3240013,3.9355125,0.66235626,-0.037499607,-0.2785424
20231225 03:36:55,0.207537,-3.149461,1.909509,0.908521,-0.119114,-0.085984,-7.784004,24.726196,-41.942192,13.128235,1.2460976,-3.1869116,2.0980275,0.73688966,-0.07658792,-0.5176231
20231225 03:36:55,0.607886,-2.804284,0.201016,1.045950,-0.021102,-0.174407,-7.167553,24.016251,-41.755745,9.692015,0.61666536,-2.7993045,0.10513708,0.6734472,-0.008106953,-0.8147068
20231225 03:36:55,0.755722,-2.274245,-1.309379,1.043820,0.103544,-0.256439,-7.045650,23.462589,-41.986336,9.556593,-0.54946256,-2.239494,-1.1533501,0.42143017,0.12247874,-0.9962164
20231225 03:36:55,0.624391,-1.623816,-2.461887,0.864841,0.171726,-0.300119,-7.232109,22.409145,-41.785454,14.0972395,-1.728821,-1.3488058,-1.47302,0.117854446,0.24220112,-0.9208943
20231225 03:36:55,0.376875,-0.891690,-3.124639,0.572936,0.188771,-0.277746,-7.454544,22.877033,-42.889977,20.29806,-2.4926724,-0.18440175,-1.3353115,-0.07459901,0.2904784,-0.65348226
20231225 03:36:55,0.144662,-0.443571,-3.304637,0.222436,0.189837,-0.196780,-7.269505,22.796619,-42.882881,23.531096,-2.75163,0.4821104,-1.2143137,-0.14114201,0.25916734,-0.30290064
20231225 03:36:55,0.006167,-0.284029,-2.916219,-0.133390,0.168530,-0.083853,-7.011211,22.708817,-41.802818,21.23064,-2.4498446,0.38584876,-1.1865346,-0.17073974,0.16671836,0.056162853
20231225 03:36:55,0.043777,-0.422847,-1.872059,-0.431687,0.096086,0.021617,-7.145031,22.801151,-42.480019,17.495798,-1.4409099,-0.13462558,-0.9625169,-0.23768196,0.048325285,0.3534631
20231225 03:36:55,0.154782,-0.653117,-0.897826,-0.628777,0.020446,0.103648,-6.923752,22.908932,-42.216927,14.593053,-0.5269251,-0.55140156,-0.5677864,-0.32294786,-0.03849264,0.5454415
20231225 03:36:55,0.337340,-0.887274,-0.061239,-0.719331,0.003401,0.156916,-7.215332,23.174854,-42.639107,13.238366,0.24815476,-0.8600194,-0.13823535,-0.39606684,-0.04941009,0.617542
20231225 03:36:55,0.467567,-1.061717,0.777808,-0.726789,-0.006187,0.181419,-7.116718,24.220066,-42.706352,11.260121,0.8959611,-1.0680445,0.42589968,-0.4297268,-0.038330235,0.6118066
20231225 03:36:55,0.635888,-1.176216,1.443483,-0.673521,-0.034952,0.176092,-6.039387,23.723831,-41.725426,8.936092,1.4154394,-1.1852565,0.8579649,-0.41509813,-0.04958121,0.56108445
20231225 03:36:55,0.798387,-1.122015,1.797035,-0.574444,-0.049867,0.145197,-6.646492,24.336906,-41.637520,8.645804,1.7377478,-1.1238784,1.0422747,-0.36338863,-0.051996764,0.472508
20231225 03:36:55,0.878674,-0.980689,1.889949,-0.459386,-0.043475,0.108975,-6.540714,24.535179,-41.783379,8.032842,1.8597562,-0.9787889,1.0290594,-0.29259503,-0.04180291,0.37454772
20231225 03:36:55,0.871514,-0.824952,1.857608,-0.349656,-0.011514,0.070623,-6.771729,24.716152,-42.601311,8.241479,1.8493475,-0.8238535,0.96322066,-0.22601631,-0.010823712,0.2767031
20231225 03:36:55,0.826311,-0.635307,1.781099,-0.253774,0.032165,0.045054,-6.879044,25.285439,-43.577354,9.014873,1.7853351,-0.64273435,0.8890377,-0.16535419,0.028919188,0.19368401
20231225 03:36:55,0.649205,-0.435050,1.680913,-0.176004,0.065191,0.045054,-6.673115,25.761368,-42.668556,9.495966,1.5963185,-0.45227748,0.8874027,-0.10523992,0.06047636,0.14034575
20231225 03:36:55,0.598227,-0.390566,1.600900,-0.115279,0.077975,0.059969,-6.532902,25.205860,-42.630898,9.928372,1.5157443,-0.4142117,0.8397218,-0.04902721,0.0729443,0.11038877
20231225 03:36:55,0.547155,-0.357142,1.444103,-0.071600,0.090759,0.075949,-6.824486,25.471779,-43.053078,10.264592,1.3758662,-0.3792975,0.7488306,-0.0057685785,0.08642057,0.09130871
20231225 03:36:55,0.543566,-0.515594,1.314918,-0.031116,0.091825,0.084472,-6.548645,25.765900,-42.265709,9.810659,1.2876627,-0.5324807,0.6821946,0.029957015,0.08878005,0.07134004
20231225 03:36:55,0.561023,-0.676073,1.155312,-0.001287,0.080106,0.073819,-6.479881,26.159756,-43.228539,9.599509,1.1980672,-0.6882678,0.5755523,0.04549096,0.0781814,0.045657687
20231225 03:36:55,0.518961,-0.828416,0.983867,0.036000,0.072648,0.051446,-6.179722,26.180740,-43.092934,10.065677,1.0682749,-0.84127873,0.49276248,0.05837652,0.07216587,0.004697021
20231225 03:36:55,0.404312,-0.896703,0.791833,0.078614,0.079040,0.025878,-6.524323,25.492771,-42.917488,11.015071,0.8679283,-0.9095142,0.43224025,0.07228043,0.08146626,-0.04509958
20231225 03:36:55,0.333117,-0.926797,0.558187,0.124424,0.095021,-0.000756,-6.102642,25.151989,-43.292976,11.582235,0.6748377,-0.93476754,0.31247127,0.08549376,0.102399655,-0.09896935
20231225 03:36:55,0.270065,-0.988237,0.328656,0.174496,0.113132,-0.034847,-6.129154,24.675041,-42.994148,12.20457,0.48617202,-0.98688567,0.19561492,0.09449119,0.12683253,-0.16263556
20231225 03:36:55,0.196732,-0.899256,0.007768,0.213914,0.136569,-0.073199,-6.171406,24.758129,-42.330147,13.496473,0.22052613,-0.8767639,0.009036412,0.08406404,0.15993857,-0.22558467
20231225 03:36:55,-0.006230,-0.709671,-0.321413,0.234155,0.162138,-0.092376,-6.022228,24.297642,-42.298607,15.64856,-0.15183985,-0.6599684,-0.073827386,0.067259654,0.19755748,-0.26313812
20231225 03:36:55,-0.246940,-0.523717,-0.614893,0.230959,0.185575,-0.075330,-5.967670,24.483986,-41.774330,17.805527,-0.5329871,-0.44447938,-0.083655685,0.06134321,0.2254141,-0.2595595
20231225 03:36:55,-0.413379,-0.342642,-0.766963,0.209652,0.201556,-0.025259,-6.014027,24.776440,-42.865654,18.550537,-0.779335,-0.2539459,-0.060827196,0.074677564,0.23082505,-0.21893647
20231225 03:36:55,-0.329303,-0.251675,-0.934773,0.172365,0.202621,0.031205,-5.680195,24.427429,-43.107506,17.857681,-0.87797815,-0.12427081,-0.23486969,0.09326926,0.21549803,-0.15635253
20231225 03:36:55,-0.254373,-0.211440,-1.069231,0.124424,0.201556,0.082341,-5.725788,24.336109,-43.637871,17.540747,-0.95317876,-0.05236788,-0.3642454,0.10338999,0.19843741,-0.08943187
20231225 03:36:55,-0.178446,-0.190240,-1.154279,0.075418,0.214340,0.129217,-5.795319,24.326031,-43.236000,16.853117,-0.9863098,-0.01941131,-0.47639126,0.111703604,0.1978549,-0.024470583
20231225 03:36:55,-0.124355,-0.147412,-1.101431,0.038131,0.226059,0.165439,-5.292187,24.456650,-43.105553,15.538252,-0.9214475,0.0074695647,-0.5076818,0.11921506,0.20134388,0.02812858
20231225 03:36:55,-0.007862,-0.260558,-0.974758,0.000844,0.215405,0.188876,-5.213692,24.561749,-43.513542,14.095681,-0.73491263,-0.13355532,-0.5305242,0.120944805,0.1885831,0.078893065
20231225 03:36:55,0.198951,-0.354173,-0.875631,-0.051358,0.164268,0.188876,-5.452137,23.880150,-43.203484,12.262801,-0.532719,-0.25707453,-0.6355065,0.10165512,0.14212495,0.13231441
20231225 03:36:55,0.435516,-0.271977,-0.793316,-0.107822,0.103544,0.170765,-5.062325,24.851337,-43.129021,9.948873,-0.34297052,-0.1978665,-0.79317904,0.06231936,0.08673674,0.17714165
20231225 03:36:55,0.559335,-0.174385,-0.751653,-0.155762,0.054537,0.147328,-5.089218,24.566280,-43.110695,8.773313,-0.24784604,-0.120590836,-0.8795527,0.019610547,0.04235846,0.20713434
20231225 03:36:55,0.614824,-0.088288,-0.718606,-0.191984,0.025773,0.126021,-4.972942,24.092014,-42.140770,8.892802,-0.19781747,-0.031613458,-0.9102421,-0.01651182,0.012779526,0.22583964
20231225 03:36:55,0.579392,0.088494,-0.698020,-0.230337,0.024708,0.118563,-5.371452,24.735329,-43.258492,9.805513,-0.21488634,0.15360999,-0.88513935,-0.044893518,0.00783896,0.25186792
20231225 03:36:55,0.424720,0.248153,-0.591880,-0.263362,0.032165,0.128151,-4.781895,23.740322,-43.053719,10.215928,-0.22430092,0.31317517,-0.7192291,-0.062448665,0.008220917,0.28200045
20231225 03:36:55,0.301446,0.301778,-0.327888,-0.277212,0.048145,0.148393,-5.159519,24.939976,-43.269753,11.25785,-0.08990817,0.3470298,-0.47338247,-0.06276346,0.01731175,0.30132452
20231225 03:36:55,0.244824,0.338744,-0.117475,-0.259101,0.067322,0.176092,-4.930038,25.526554,-43.573708,11.003084,0.03955674,0.36326042,-0.30326432,-0.0373576,0.034674264,0.3014171
20231225 03:36:55,0.180616,0.311690,0.029978,-0.213291,0.104609,0.198464,-4.932228,24.776478,-43.926674,11.26696,0.114303485,0.32024106,-0.1575265,0.0019111931,0.07213985,0.27530348
20231225 03:36:55,0.150887,0.247693,0.162146,-0.147239,0.134439,0.219771,-5.026848,25.423306,-43.433937,11.218747,0.20072338,0.24393184,-0.039613776,0.05531522,0.1054158,0.23577161
20231225 03:36:55,0.185939,0.134024,0.201096,-0.084384,0.140831,0.235752,-4.832844,25.437916,-43.432961,10.392684,0.2636897,0.13103607,-0.021929234,0.1078956,0.11810872,0.20090015
20231225 03:36:55,0.308610,-0.012127,0.079556,-0.026855,0.141896,0.238948,-4.805565,25.531086,-43.170845,9.194677,0.26476264,-0.0015951735,-0.17753445,0.15283322,0.1273073,0.16153532
20231225 03:36:55,0.452681,-0.154335,-0.099719,0.022151,0.144027,0.219771,-3.959637,25.407707,-43.288338,7.2375774,0.22807029,-0.13446216,-0.39373496,0.17439821,0.13583729,0.11444878
20231225 03:36:55,0.526727,-0.234332,-0.327726,0.062634,0.151484,0.176092,-4.374153,24.901543,-42.991478,7.893103,0.09660125,-0.20125328,-0.59171337,0.16862838,0.14597705,0.05043282
20231225 03:36:55,0.454143,-0.180014,-0.619073,0.097791,0.178118,0.123890,-4.216778,24.919853,-43.527000,9.16806,-0.19333711,-0.11336102,-0.716702,0.14541496,0.17425679,-0.019067153
20231225 03:36:55,0.224920,0.020716,-0.909398,0.125490,0.217536,0.080211,-4.091919,24.732498,-42.843666,12.071543,-0.5965285,0.14776346,-0.7084444,0.112273656,0.2165271,-0.0819514
20231225 03:36:55,-0.134772,0.262610,-1.136907,0.146797,0.258019,0.066361,-4.331902,24.818459,-43.655495,15.954104,-1.0403062,0.44624573,-0.5444947,0.08920788,0.25780693,-0.125341
20231225 03:36:55,-0.418818,0.469388,-1.364638,0.146797,0.289979,0.079145,-3.592510,24.880592,-44.188072,17.84828,-1.4400864,0.7051494,-0.4230783,0.076068416,0.28221518,-0.13103268
20231225 03:36:55,-0.575000,0.668636,-1.620547,0.125490,0.305960,0.112171,-3.962208,24.849522,-43.921791,19.944817,-1.7947203,0.9727027,-0.406582,0.075400144,0.28140047,-0.10710624
20231225 03:36:55,-0.577306,0.852155,-1.801243,0.076484,0.305960,0.154785,-3.450108,25.075161,-43.797447,18.970375,-2.0031607,1.1987618,-0.4690991,0.086195275,0.26265943,-0.04360749
20231225 03:36:55,-0.387107,0.875826,-1.968909,0.001909,0.302764,0.198464,-3.468037,24.885124,-43.785210,16.817503,-2.0496302,1.2409683,-0.6952044,0.10074823,0.24823147,0.04784169
20231225 03:36:55,-0.092983,0.693709,-1.893359,-0.083319,0.296372,0.228294,-3.283382,24.996597,-44.058601,12.345331,-1.7664397,0.95897555,-0.9163461,0.10887165,0.25050467,0.15186802
20231225 03:36:55,0.250493,0.481208,-1.716662,-0.154697,0.284653,0.236817,-3.237793,25.087917,-43.528236,8.8550625,-1.3676366,0.64447504,-1.138445,0.094766,0.2536962,0.23126149
20231225 03:36:55,0.546761,0.388366,-1.454767,-0.215422,0.271869,0.224033,-3.107311,24.821171,-44.045403,6.38936,-0.9406632,0.47476882,-1.2681987,0.05758205,0.2539286,0.2853889
20231225 03:36:55,0.620305,0.373637,-1.197823,-0.263362,0.260150,0.208053,-2.936859,24.725132,-42.831688,5.671034,-0.6560501,0.43422416,-1.2032304,0.014339909,0.24531223,0.31974116
20231225 03:36:55,0.732403,0.414507,-0.956822,-0.296388,0.247366,0.188876,-2.558586,25.043110,-43.384560,4.213613,-0.36541337,0.44523683,-1.1669753,-0.022549316,0.23894085,0.34022045
20231225 03:36:55,0.759333,0.550453,-0.756672,-0.300650,0.259084,0.156916,-2.595982,25.430588,-44.482002,4.662727,-0.183839,0.5870613,-1.0833713,-0.056293905,0.248337,0.32295525
20231225 03:36:55,0.646557,0.781890,-0.468156,-0.276147,0.293175,0.121759,-2.560120,25.810665,-44.506462,6.0477853,-0.031795055,0.8288543,-0.84561247,-0.081385575,0.27585262,0.27570865
20231225 03:36:55,0.426558,1.037174,-0.230043,-0.213291,0.330463,0.088734,-1.942249,26.234570,-44.527977,7.1600327,-0.011063203,1.076146,-0.5557359,-0.083765455,0.3087878,0.19881949
20231225 03:36:56,0.135488,1.278169,-0.065967,-0.129129,0.372011,0.059969,-2.224102,26.211731,-44.395332,9.407963,-0.11345315,1.2843801,-0.27283552,-0.07149111,0.3508856,0.10229275
20231225 03:36:56,-0.059414,1.441409,0.008964,-0.030051,0.412494,0.041858,-1.642857,26.639336,-44.953346,10.798952,-0.23843518,1.4098837,-0.10690353,-0.044831112,0.3963387,0.0027841367
20231225 03:36:56,-0.319415,1.660089,-0.106880,0.062634,0.447651,0.034401,-1.536697,26.645714,-44.818718,12.420673,-0.5629463,1.5999144,-0.0041387714,-0.015740259,0.43875086,-0.08729408
20231225 03:36:56,-0.454602,1.997192,-0.266030,0.114836,0.455108,0.038662,-1.466015,26.080128,-44.379204,13.386572,-0.86023855,1.9340739,-0.016471729,0.0045988783,0.44948974,-0.13317633
20231225 03:36:56,-0.444458,2.503190,-0.398186,0.091399,0.407168,0.055708,-0.980812,26.020710,-44.236504,13.229336,-1.0830165,2.4543614,-0.117887065,0.008608606,0.39479458,-0.09834976
20231225 03:36:56,-0.344670,2.948406,-0.469366,-0.017267,0.282522,0.087668,-0.918713,25.168213,-43.510399,11.991369,-1.1288819,2.9277618,-0.23886393,0.011711121,0.25708923,0.028502453
20231225 03:36:56,-0.076957,2.962710,-0.637095,-0.182396,0.156811,0.119629,-0.382675,25.312611,-44.318321,8.385856,-0.9947432,3.006965,-0.45949814,-0.009498909,0.123831525,0.20574152
20231225 03:36:56,0.401738,2.645632,-0.585856,-0.339002,0.148288,0.112171,-0.143078,25.418541,-43.786949,3.3678,-0.43140775,2.685967,-0.7310187,-0.091241635,0.13028583,0.3426408
20231225 03:36:56,0.767724,2.276733,0.014378,-0.440210,0.234581,0.033335,-0.591652,25.474262,-43.393135,3.2525017,0.3694347,2.2965658,-0.6874975,-0.24277657,0.21939722,0.36713776
20231225 03:36:56,0.490099,2.140492,1.059303,-0.506262,0.299568,-0.078526,-0.433125,24.916904,-43.087257,6.3191147,0.93004096,2.0713148,0.16597265,-0.41689378,0.2662289,0.30938765
20231225 03:36:56,-0.254062,2.287109,2.257991,-0.545680,0.284653,-0.150970,-0.212227,25.216572,-43.104607,9.866015,1.092299,1.9108375,1.4694331,-0.5272095,0.2276005,0.24906906
20231225 03:36:56,-1.023082,2.371350,3.281826,-0.525438,0.230320,-0.126467,-0.310570,25.880878,-44.086754,12.114669,1.0230682,1.639354,2.6977139,-0.507483,0.15519062,0.22452971
20231225 03:36:56,-1.282652,2.045825,4.028637,-0.408250,0.218601,-0.025259,0.149540,26.478363,-43.853218,10.866928,1.2051651,1.2530051,3.5834503,-0.3621118,0.14985384,0.20524083
20231225 03:36:56,-1.003890,1.375960,4.473330,-0.199441,0.268672,0.079145,0.052345,26.567005,-43.993965,9.286036,1.59371,0.7582812,3.999069,-0.14465277,0.22807094,0.14386483
20231225 03:36:56,-0.652740,0.436355,4.660957,0.039196,0.307025,0.140936,0.149155,26.670250,-44.133705,8.026708,1.8613852,-0.02201721,4.204918,0.082837366,0.29732728,0.061071537
20231225 03:36:56,-0.311017,-0.543655,4.435445,0.270377,0.325136,0.157981,0.722588,26.427174,-43.844185,5.9934063,1.9349221,-0.8418609,4.039406,0.29280734,0.34199157,-0.026316896
20231225 03:36:56,0.041658,-1.473930,3.978038,0.457878,0.286783,0.139870,0.801464,26.340382,-43.971718,4.778039,1.923923,-1.6470928,3.610822,0.45732462,0.3198649,-0.10781536
20231225 03:36:56,0.341108,-2.231193,3.318532,0.578263,0.175987,0.105779,0.604889,25.767586,-44.606117,3.9528422,1.8542032,-2.3174324,2.952361,0.5586703,0.2130691,-0.17319205
20231225 03:36:56,0.657794,-2.789614,2.544921,0.633661,0.005531,0.061034,0.641132,25.955776,-44.350121,2.2470002,1.7919154,-2.8147366,2.0769029,0.59373015,0.033849474,-0.22944379
20231225 03:36:56,0.903528,-3.200555,1.514061,0.659229,-0.144683,0.016290,0.623974,25.381958,-43.776939,0.4595038,1.5508847,-3.198211,0.9208169,0.5884184,-0.13198243,-0.29966533
20231225 03:36:56,1.210371,-3.326686,0.474164,0.679471,-0.206473,-0.027389,0.358250,24.607193,-43.729012,-1.9141451,1.2339551,-3.3453918,-0.32946682,0.56029207,-0.22143795,-0.3871682
20231225 03:36:56,1.519654,-3.398072,-0.463702,0.705039,-0.184100,-0.080657,0.329937,23.188282,-43.502693,-5.32592,0.7915058,-3.516045,-1.5181507,0.51613724,-0.23728144,-0.49070504
20231225 03:36:56,1.799338,-3.417246,-1.324990,0.722085,-0.098873,-0.165885,0.302654,23.095108,-43.764839,-8.548079,0.12386221,-3.7143462,-2.5547507,0.4190197,-0.19585873,-0.61454827
20231225 03:36:56,1.857689,-3.047837,-2.148713,0.660294,0.027904,-0.284138,0.099308,23.177368,-44.040169,-6.4883943,-0.7675073,-3.3739767,-3.006987,0.20179099,-0.05075512,-0.68803716
20231225 03:36:56,1.369942,-2.279332,-2.490822,0.466401,0.064126,-0.386412,0.680550,23.604973,-44.598167,2.0158732,-1.2122337,-2.120512,-2.4727273,-0.06691924,0.09582715,-0.6033492
20231225 03:36:56,0.578188,-1.483629,-2.496378,0.212848,0.058799,-0.431156,0.214428,23.278770,-43.911674,13.887811,-1.369457,-0.7593407,-1.5969653,-0.24925146,0.1883893,-0.41173482
20231225 03:36:56,-0.250171,-0.807246,-1.968826,-0.028986,0.070518,-0.400261,0.769161,23.229427,-44.170876,18.702316,-1.377359,-0.20353645,-0.74082875,-0.33863217,0.18083756,-0.21250246
20231225 03:36:56,-0.897892,-0.382036,-1.055463,-0.200507,0.056668,-0.309707,0.741497,23.328144,-44.713478,20.523436,-1.1986632,-0.25756443,0.13447648,-0.36326325,0.09519933,-0.046821833
20231225 03:36:56,-1.385683,-0.169321,-0.211391,-0.312368,0.014054,-0.176538,0.256683,23.195679,-44.575676,21.95431,-1.046559,-0.48906937,0.90879756,-0.336246,-0.024056654,0.10866717
20231225 03:36:56,-1.687695,-0.077147,0.483989,-0.368832,-0.057324,-0.007148,0.363224,23.010170,-44.160606,20.950943,-0.8885826,-0.6854495,1.5147133,-0.25491127,-0.15600535,0.26539025
20231225 03:36:56,-1.636163,-0.154438,0.991620,-0.376289,-0.143617,0.166504,0.778126,23.324448,-44.176994,18.285906,-0.5525765,-0.8104745,1.8324168,-0.1399895,-0.27280638,0.40325418
20231225 03:36:56,-1.193857,-0.415469,1.203054,-0.351786,-0.225649,0.302868,0.444290,23.673458,-43.935143,14.558621,-0.059119403,-0.87199795,1.7411548,-0.031058863,-0.34652114,0.4949967
20231225 03:36:56,-0.486550,-0.750859,1.054492,-0.311303,-0.262936,0.368920,0.117619,23.175518,-43.771935,9.905058,0.39984924,-0.9333806,1.2019354,0.033146232,-0.34652382,0.51274955
20231225 03:36:56,0.211253,-1.073968,0.940075,-0.269754,-0.279982,0.359332,-0.021442,23.155361,-42.968163,5.6299024,0.8389156,-1.1146088,0.65578604,0.04498227,-0.3238446,0.46807632
20231225 03:36:56,0.683774,-1.262239,0.757452,-0.223944,-0.262936,0.295411,-0.297665,23.053131,-44.036003,3.3061109,1.0546844,-1.2587857,0.1888603,0.02952379,-0.2819711,0.3813037
20231225 03:36:56,0.872782,-1.339453,0.681908,-0.179200,-0.218192,0.205922,-0.429688,24.087437,-44.640709,2.678087,1.1408658,-1.3294345,0.0028697848,0.0020007938,-0.22877122,0.28055885
20231225 03:36:56,0.803137,-1.305911,0.679847,-0.125932,-0.178774,0.111106,-0.436462,24.742493,-44.281639,3.5924532,1.0995595,-1.293516,0.06696439,-0.01870659,-0.18809688,0.17446128
20231225 03:36:56,0.563653,-1.244094,0.761553,-0.049227,-0.147879,0.029074,-0.685024,24.541542,-44.806877,6.172124,0.99952376,-1.2440251,0.31638873,-0.009422962,-0.15274833,0.06599816
20231225 03:36:56,0.229313,-1.162706,0.710469,0.030674,-0.138290,-0.029520,-0.932434,23.764927,-44.490700,8.604071,0.74117243,-1.1922468,0.5096131,0.016472047,-0.1310763,-0.026570458
20231225 03:36:56,-0.030801,-0.999854,0.471539,0.096725,-0.154271,-0.074265,-0.642002,24.074677,-44.909935,10.606325,0.4183781,-1.0460547,0.49535316,0.040548936,-0.1292333,-0.09850987
20231225 03:36:56,-0.211735,-0.845775,0.101339,0.145731,-0.167055,-0.103029,-1.143982,23.368393,-44.198982,12.543899,0.05076757,-0.8732756,0.34896576,0.055140056,-0.12613331,-0.14914908
20231225 03:36:56,-0.331195,-0.646801,-0.362790,0.169169,-0.174512,-0.127532,-0.666328,24.347805,-44.258156,13.266651,-0.3661336,-0.61517555,0.11169623,0.051390685,-0.11908132,-0.18231723
20231225 03:36:56,-0.386927,-0.477664,-0.786512,0.157450,-0.179839,-0.146708,-0.886841,23.856247,-43.960320,14.57369,-0.73532426,-0.36456084,-0.10435721,0.02626279,-0.117423505,-0.18318594
20231225 03:36:56,-0.405709,-0.281122,-1.093589,0.112705,-0.193689,-0.160558,-1.195587,23.548351,-43.809334,15.745365,-1.018336,-0.096106485,-0.2704174,-0.011095226,-0.1312572,-0.15146814
20231225 03:36:56,-0.474739,-0.210762,-1.298658,0.045589,-0.205407,-0.166950,-1.285614,22.790043,-44.028664,17.119448,-1.2269087,0.02813682,-0.31986982,-0.05116594,-0.14734253,-0.095593065
20231225 03:36:56,-0.491182,-0.162409,-1.360120,-0.025790,-0.206473,-0.161623,-1.531223,22.955395,-43.639977,17.04465,-1.2981309,0.081352174,-0.35058883,-0.09044946,-0.1634358,-0.03520173
20231225 03:36:56,-0.489076,-0.159841,-1.259412,-0.093972,-0.207538,-0.152035,-1.867359,24.455738,-45.080971,16.60322,-1.2204974,0.045431733,-0.31775463,-0.12629622,-0.18107629,0.02207806
20231225 03:36:56,-0.428101,-0.258328,-1.089695,-0.150435,-0.214996,-0.146708,-1.585514,24.478577,-45.213631,15.244765,-1.0363942,-0.09598823,-0.27795178,-0.16044696,-0.20199265,0.06468712
20231225 03:36:56,-0.308469,-0.336607,-0.881230,-0.184527,-0.226714,-0.142447,-1.939079,23.695580,-45.032066,14.208768,-0.7957566,-0.21757022,-0.25954062,-0.18473127,-0.222783,0.08840162
20231225 03:36:56,-0.223622,-0.360095,-0.723445,-0.207964,-0.244825,-0.148839,-1.864403,24.822037,-44.167061,12.941958,-0.6246566,-0.26629433,-0.23603448,-0.20632964,-0.24395402,0.09935921
20231225 03:36:56,-0.144398,-0.334288,-0.562934,-0.218618,-0.267198,-0.159493,-2.148827,24.241009,-44.667839,12.793702,-0.4611706,-0.26114354,-0.20113537,-0.22068363,-0.2662307,0.102472655
20231225 03:36:56,-0.082996,-0.236133,-0.530400,-0.228206,-0.286374,-0.169081,-2.394432,24.406361,-44.279182,11.885805,-0.41767454,-0.17055956,-0.2443251,-0.23645703,-0.2855381,0.10329764
20231225 03:36:56,-0.003048,-0.146872,-0.434391,-0.249513,-0.307681,-0.189322,-2.176491,24.339729,-45.210457,11.501013,-0.30535525,-0.08783579,-0.25790688,-0.26395476,-0.30662474,0.106711246
20231225 03:36:56,-0.071314,0.010927,-0.354757,-0.265493,-0.326857,-0.214891,-1.955208,24.447510,-44.947334,12.065267,-0.31299865,0.05351796,-0.17200796,-0.28513795,-0.3224421,0.11027455
20231225 03:36:56,-0.217669,0.338970,-0.323972,-0.261232,-0.315138,-0.226610,-2.825459,24.844009,-44.178047,14.147851,-0.43856144,0.35477877,-0.08587859,-0.28499675,-0.3061302,0.10998091
