Timestamp,linacce_x,linacce_y,linacce_z,gyro_x,gyro_y,gyro_z,X-magnetometer,Y-magnetometer,Z-magnetometer,Yaw, worldXAccel,worldYAccel,worldZAccel,worldXgyro,worldYgyro,worldZgyro
20231225 03:40:01,0.560691,1.982343,-1.762543,0.661360,0.329397,-0.952112,-2.242638,-30.811218,-6.242752,169.73454,-1.1194676,2.0838714,0.42342168,-0.3457848,0.3992415,0.031005442
20231225 03:40:01,0.184380,2.660623,-1.525826,0.397153,0.500918,-0.995791,-1.714798,-31.145615,-6.483612,170.66614,-1.2942986,2.7985804,0.5470648,-0.5510111,0.6220186,0.27302483
20231225 03:40:01,-0.335944,2.900959,-0.320313,0.136143,0.593604,-1.011771,-1.035591,-31.190422,-6.339951,172.86551,-0.861187,2.8398535,0.20390165,-0.6763005,0.7411822,0.5715915
20231225 03:40:01,-1.303570,2.564476,1.041191,-0.056685,0.580819,-1.016032,-0.566135,-30.689804,-5.832085,174.11009,-0.8504261,2.003643,-0.22621483,-0.7421733,0.7180497,0.7859041
20231225 03:40:01,-2.302603,2.130122,2.711205,-0.083319,0.492396,-0.951046,0.322437,-31.088158,-6.333115,175.71513,-0.9608723,0.9247123,-1.213062,-0.6304874,0.60533774,0.81788206
20231225 03:40:01,-3.133065,1.596471,3.973949,0.113771,0.363488,-0.809355,0.341133,-31.281898,-5.784409,176.07993,-1.2974081,-0.1356799,-2.1403756,-0.31271595,0.5087333,0.6390221
20231225 03:40:01,-3.562790,1.009819,4.418972,0.486643,0.220732,-0.613331,0.834915,-31.054413,-5.928307,176.78296,-1.5748439,-0.97032666,-2.4616632,0.1529134,0.46711844,0.32688475
20231225 03:40:01,-3.439432,0.562158,3.799060,0.960723,0.126981,-0.405588,1.153393,-31.035271,-5.524475,177.67412,-1.5497193,-1.2903268,-1.8259321,0.6611755,0.5103009,-0.082935065
20231225 03:40:01,-2.727052,0.408162,2.291472,1.392189,0.082237,-0.229806,1.041611,-30.962257,-4.458588,178.36086,-1.2654175,-0.92640626,-0.50807095,1.0515985,0.5585711,-0.54463995
20231225 03:40:01,-2.026119,0.532060,0.620473,1.693682,0.068387,-0.106225,1.130222,-31.337814,-4.031281,178.76355,-1.3647565,-0.2547868,0.7520659,1.2567213,0.5919549,-0.9619968
20231225 03:40:01,-1.504220,0.533999,-0.866102,1.860942,0.056668,-0.014605,1.124599,-31.258415,-2.830780,179.7274,-1.7780844,0.3057078,1.6712137,1.2993581,0.58355546,-1.2968885
20231225 03:40:01,-0.982698,0.431076,-2.317236,1.880118,0.039623,0.052512,1.674473,-31.612144,-1.328545,-176.93205,-2.406145,0.909981,2.2082877,1.1760799,0.5046887,-1.5169165
20231225 03:40:01,-0.577671,0.397986,-3.399897,1.767191,0.011924,0.091930,1.305164,-31.835106,-0.781776,-176.89366,-3.0665498,1.4939351,2.2624128,0.9809598,0.37440306,-1.5592971
20231225 03:40:01,-0.142449,0.276746,-4.171123,1.561579,-0.027494,0.116433,1.511089,-31.359177,0.126999,-173.7255,-3.592222,1.7933774,1.918939,0.7753798,0.2096096,-1.4617336
20231225 03:40:01,0.301546,0.161766,-4.678289,1.300569,-0.072239,0.114302,0.981060,-31.774849,0.014893,-175.33327,-4.0178347,1.7241005,1.429452,0.59889907,0.06247368,-1.2542831
20231225 03:40:01,0.583988,0.013438,-4.801945,1.007598,-0.128702,0.067427,1.372406,-31.571213,1.211227,-171.73512,-4.1445227,1.3338456,1.0574832,0.43545833,-0.045930438,-0.9770898
20231225 03:40:01,0.784561,0.003183,-4.870562,0.713562,-0.163859,-0.022063,1.099907,-31.690933,1.618248,-172.90485,-4.1960764,1.1880338,0.8637546,0.25431237,-0.09603554,-0.6725864
20231225 03:40:01,0.725875,0.108636,-4.688258,0.439767,-0.180904,-0.120075,1.206066,-31.684547,1.752861,-172.54248,-3.9766464,1.3915985,0.9859326,0.09607638,-0.09911985,-0.37669933
20231225 03:40:01,0.378841,0.334643,-4.218350,0.200064,-0.191558,-0.202107,1.444897,-31.194839,1.723267,-171.8678,-3.4878428,1.8595474,1.4261055,-0.017562747,-0.07250401,-0.10914568
20231225 03:40:01,-0.355228,0.546135,-3.679192,0.002975,-0.188362,-0.221283,1.548481,-31.746643,1.224434,-173.06401,-3.1923335,1.9553337,2.1543639,-0.085773885,-0.069271505,0.09518239
20231225 03:40:01,-1.149089,0.732003,-2.945958,-0.150435,-0.185166,-0.168015,1.733906,-32.018944,1.512001,-173.09042,-3.022916,1.5441318,2.6742997,-0.123315066,-0.13043901,0.20621133
20231225 03:40:01,-1.663909,0.806990,-2.133554,-0.263362,-0.219257,-0.062546,1.690884,-31.552078,1.615059,-173.62607,-2.7944984,1.0001004,2.6863456,-0.12254202,-0.24885501,0.2279617
20231225 03:40:01,-1.669130,0.646213,-1.411996,-0.341133,-0.288505,0.046120,1.839680,-31.820686,1.366135,-174.11987,-2.272508,0.5445318,2.2242103,-0.10822291,-0.37453505,0.20029412
20231225 03:40:01,-1.280016,0.312536,-0.889073,-0.381616,-0.374798,0.095126,1.644909,-31.451515,0.804222,-175.27109,-1.5671358,0.20984103,1.5541079,-0.109803,-0.46537694,0.18710624
20231225 03:40:01,-0.610306,0.278042,-0.449076,-0.380551,-0.434457,0.081276,2.032917,-31.422295,0.806175,-174.4793,-0.7810719,0.25121474,0.7674531,-0.14772037,-0.49040863,0.18583219
20231225 03:40:01,-0.150138,0.518174,-0.225179,-0.337937,-0.455764,0.013094,1.927139,-31.620567,0.952026,-174.74547,-0.3296568,0.5200249,0.2970119,-0.16811669,-0.4920599,0.20418695
20231225 03:40:01,-0.004132,0.769366,-0.110438,-0.264428,-0.390778,-0.068938,1.520054,-31.264153,0.120888,-175.99048,-0.18092746,0.7704947,0.11704681,-0.1818644,-0.40866235,0.21876863
20231225 03:40:01,-0.208895,0.886460,0.053206,-0.181331,-0.301289,-0.131794,1.378799,-32.034386,0.571671,-176.29955,-0.2440699,0.8268355,0.1514392,-0.1734632,-0.3015739,0.20774186
20231225 03:40:01,-0.704417,1.105342,0.328508,-0.081188,-0.218192,-0.162689,2.075554,-31.697273,0.422630,-174.63719,-0.49697772,0.85769373,0.33407724,-0.12485792,-0.19394898,0.1578936
20231225 03:40:01,-1.325687,1.399747,0.551395,0.048785,-0.157467,-0.148839,1.845306,-31.900078,0.165634,-175.42377,-0.9134822,0.8649503,0.6186979,-0.026027948,-0.10087745,0.062470734
20231225 03:40:01,-1.897604,1.626131,0.627888,0.185149,-0.135094,-0.097702,2.209373,-31.789612,1.099846,-173.86345,-1.4009045,0.79501337,0.99868584,0.10690814,-0.045963883,-0.06964033
20231225 03:40:01,-2.248742,1.559793,0.646033,0.298076,-0.160663,-0.035912,2.122566,-30.472099,0.745041,-174.18681,-1.6535329,0.60455996,1.1920218,0.23792008,-0.051427606,-0.19056728
20231225 03:40:01,-2.020150,1.334520,0.647048,0.399284,-0.233106,0.018421,1.857227,-31.438751,1.073441,-174.71352,-1.3658366,0.56870717,1.0253272,0.35719258,-0.11989598,-0.30558547
20231225 03:40:01,-1.425336,1.343457,0.522661,0.497296,-0.291701,0.057838,2.112179,-31.700974,0.959122,-174.15645,-0.9125941,0.90023214,0.7482034,0.44698772,-0.19279855,-0.4158744
20231225 03:40:01,-0.720578,1.182776,0.218132,0.575067,-0.306616,0.080211,2.033684,-31.806076,1.367111,-174.2423,-0.5221408,1.0186627,0.45454985,0.499746,-0.22866541,-0.49301183
20231225 03:40:01,-0.157987,0.642197,-0.030481,0.617680,-0.306616,0.073819,1.612385,-31.657181,2.023056,-175.31194,-0.20212816,0.6212061,0.17130843,0.5146246,-0.24555488,-0.51354134
20231225 03:40:01,0.212995,0.340228,-0.302193,0.629399,-0.304485,0.040793,1.375748,-31.396812,2.405617,-175.85446,-0.10671538,0.38276774,0.06456703,0.48415953,-0.2533018,-0.5050518
20231225 03:40:01,0.263410,0.328025,-0.607843,0.645379,-0.262936,0.003506,1.895004,-32.018112,2.451340,-174.3722,-0.31660664,0.4163856,0.21964398,0.45522824,-0.1988803,-0.50598496
20231225 03:40:01,-0.005038,0.365716,-0.836607,0.652837,-0.217126,-0.040174,1.843018,-31.646271,2.560524,-173.87872,-0.6945933,0.48953682,0.5556469,0.41750702,-0.121734545,-0.49444294
20231225 03:40:01,-0.368040,0.571292,-1.183682,0.629399,-0.214996,-0.065742,2.055336,-31.633514,2.829742,-172.4353,-1.2574108,0.74644756,1.0409696,0.371543,-0.09177422,-0.48276266
20231225 03:40:01,-0.685488,0.886603,-1.505412,0.577197,-0.225649,-0.085984,1.676678,-31.759590,3.102150,-172.40904,-1.8061452,1.1273645,1.4718587,0.32173076,-0.07641325,-0.44611073
20231225 03:40:01,-0.984306,1.212536,-1.846841,0.514342,-0.216061,-0.117944,2.109894,-31.447174,3.354012,-169.97679,-2.3696256,1.5300236,1.9152339,0.25776547,-0.044763576,-0.39316773
20231225 03:40:01,-1.268997,1.590580,-1.885612,0.444029,-0.188362,-0.156297,2.144333,-32.200943,3.537521,-169.42049,-2.7085972,1.8426833,2.2066565,0.18654062,-0.0033960566,-0.3153585
20231225 03:40:01,-1.672961,2.085245,-1.751883,0.381173,-0.155336,-0.161623,2.295315,-31.719467,3.641571,-168.31194,-3.0599747,2.1060963,2.5497532,0.1490432,0.0360478,-0.25671053
20231225 03:40:01,-2.167369,2.501684,-1.586731,0.312991,-0.110591,-0.103029,2.068024,-31.555962,4.298492,-167.79745,-3.4411206,2.1907952,2.9429078,0.1457726,0.04747178,-0.22337814
20231225 03:40:01,-2.555247,2.942579,-1.311588,0.234155,-0.064781,0.035466,2.243332,-31.347626,3.750755,-167.96689,-3.6804206,2.2827682,3.175168,0.18206868,5.1527284E-4,-0.22288369
20231225 03:40:01,-2.706791,3.168885,-0.987798,0.134012,-0.044540,0.229359,2.173801,-31.357704,4.152634,-168.40582,-3.5842762,2.3382335,3.1408014,0.25641885,-0.097764224,-0.24204127
20231225 03:40:01,-2.305070,2.914234,-0.428266,0.025347,-0.077566,0.429645,1.907692,-31.940575,3.920082,-170.98811,-2.6161635,2.266318,2.3845181,0.35935903,-0.20528024,-0.27561352
20231225 03:40:01,-1.304261,2.314042,0.073970,-0.072665,-0.125506,0.570271,1.661320,-31.391457,3.747826,-173.49475,-1.1790187,2.0442472,1.1426866,0.41449228,-0.23867795,-0.3012799
20231225 03:40:01,-0.188431,1.756732,0.646544,-0.156828,-0.165990,0.621408,1.204163,-31.622635,4.428223,-176.39392,0.2671159,1.7086608,-0.21009871,0.37235332,-0.20632288,-0.2969742
20231225 03:40:01,0.807020,1.261319,1.110988,-0.240990,-0.216061,0.591578,1.185848,-31.620781,4.159973,-177.80072,1.404395,1.2715439,-1.319635,0.24488905,-0.18475181,-0.2477207
20231225 03:40:01,1.689813,0.879216,1.646233,-0.351786,-0.300223,0.492500,1.176498,-31.523918,3.885612,-178.67114,2.4310231,0.84874517,-2.339055,0.037264675,-0.21193026,-0.13408905
20231225 03:40:01,2.266836,0.289841,1.979886,-0.490281,-0.377994,0.338025,0.672985,-31.462646,3.474693,-179.97778,3.0175962,0.1800951,-2.9573317,-0.22401105,-0.26001552,0.037101567
20231225 03:40:01,2.543156,-0.375638,2.486697,-0.610666,-0.407824,0.178223,0.821396,-31.539352,2.945297,-179.46704,3.4310002,-0.50784916,-3.4803143,-0.4542457,-0.2879274,0.18544409
20231225 03:40:01,2.308104,-1.045244,3.102351,-0.640496,-0.331118,0.049316,0.363091,-31.194870,2.784279,-179.99039,3.441483,-1.1038207,-3.8309846,-0.55789465,-0.25377205,0.26561058
20231225 03:40:01,1.555831,-1.621513,3.923445,-0.529699,-0.186231,-0.036978,0.529430,-31.081551,2.242653,-179.12767,3.0352836,-1.6112309,-4.235838,-0.49904323,-0.16842277,0.25387412
20231225 03:40:01,0.615069,-2.126660,4.557772,-0.293192,-0.047736,-0.071069,0.239002,-31.391296,2.661896,-179.3748,2.2875664,-2.1632893,-4.4820523,-0.29802322,-0.056021687,0.17426851
20231225 03:40:01,-0.152925,-2.526665,4.887221,0.041327,0.011924,-0.081722,0.688995,-30.313164,2.060112,-178.26112,1.6469345,-2.6927307,-4.5931716,0.009787733,0.018314458,0.062352225
20231225 03:40:01,-0.728683,-2.579457,4.274958,0.417395,0.027904,-0.081722,0.671837,-30.886978,2.633286,-177.95967,1.1431098,-2.8934715,-3.72454,0.35023704,0.08791989,-0.088377856
20231225 03:40:01,-1.063597,-2.256169,2.843860,0.731673,0.024708,-0.066807,0.787342,-30.977470,3.042244,-177.21115,0.63677895,-2.6765409,-2.0680192,0.6063734,0.16046403,-0.2943672
20231225 03:40:01,-1.213114,-1.929369,1.082870,0.902128,0.009793,-0.018867,0.858025,-31.543053,3.481781,-176.46715,-0.07980144,-2.2678978,-0.2523411,0.7159878,0.19116569,-0.51681226
20231225 03:40:01,-1.018471,-1.614547,-0.637926,0.913847,-0.020037,0.049316,0.779911,-31.840042,4.170250,-175.73486,-0.8445405,-1.6255398,1.0873213,0.6797115,0.1435991,-0.6858692
20231225 03:40:01,-0.676015,-1.391973,-2.021135,0.787071,-0.037082,0.138805,0.843437,-31.558685,4.688393,-175.02568,-1.699712,-1.0569469,1.6826602,0.5901879,0.05308716,-0.7125431
20231225 03:40:01,-0.098559,-1.345993,-2.783000,0.561217,-0.062651,0.227229,0.834473,-31.653702,4.694511,-176.44162,-2.3181748,-1.1264131,1.4759268,0.4885472,-0.053645246,-0.5997074
20231225 03:40:01,0.646888,-1.303024,-3.182853,0.270377,-0.071174,0.284758,0.306248,-31.127411,4.654900,179.50952,-2.5312078,-1.6089257,1.0396829,0.37435418,-0.05952863,-0.37632835
20231225 03:40:01,1.212022,-1.498381,-3.237793,-0.050293,-0.056259,0.311391,0.304829,-32.261269,4.862869,177.52869,-2.2639651,-2.30445,0.80538255,0.21179628,0.018560652,-0.12801546
20231225 03:40:01,1.854719,-1.686273,-2.663072,-0.349656,-0.033886,0.286888,0.331337,-31.784325,4.564056,177.05978,-1.1558499,-2.6762383,0.35198855,-0.027579635,0.1178914,0.08377503
20231225 03:40:01,2.242089,-1.782661,-1.749494,-0.584032,-0.000861,0.205922,0.294327,-31.588737,3.747101,178.15085,0.120851636,-2.5376108,-0.22700584,-0.28954375,0.16589952,0.2515183
20231225 03:40:01,2.128168,-1.694099,-0.523400,-0.726789,0.023642,0.105779,0.055115,-31.886551,3.496216,178.58878,1.118841,-2.0663898,-0.8936761,-0.49838042,0.1532394,0.37268555
20231225 03:40:01,1.724021,-1.408118,0.698565,-0.772599,0.034296,0.026943,-0.111996,-31.616104,3.476898,178.9233,1.7047713,-1.513377,-1.5584891,-0.6062418,0.10901423,0.43276376
20231225 03:40:01,1.164129,-1.099115,1.643847,-0.719331,0.043884,-0.017801,0.336582,-31.671814,3.083084,-179.61633,1.861284,-1.0988572,-2.0202134,-0.60033464,0.072114296,0.42432708
20231225 03:40:01,0.747880,-0.821649,2.322410,-0.594686,0.055603,-0.038043,0.088017,-31.872772,2.557846,-179.85544,1.9181631,-0.8168741,-2.3440611,-0.51353055,0.058881547,0.36504653
20231225 03:40:01,0.386996,-0.439176,2.586117,-0.428491,0.066256,-0.036978,0.072273,-31.312737,2.923050,-179.64421,1.8203719,-0.47807014,-2.3348603,-0.37204304,0.05535838,0.27855965
20231225 03:40:01,0.044264,-0.119434,2.442959,-0.262297,0.096086,-0.006082,0.017719,-31.499077,2.398781,-179.62016,1.5058973,-0.21402508,-1.9791526,-0.21704994,0.08225136,0.16309297
20231225 03:40:01,-0.197750,0.152111,2.209058,-0.109952,0.121654,0.053577,0.018105,-31.690964,2.679260,-179.46278,1.2046366,0.020221084,-1.6066477,-0.05947188,0.1109368,0.027247198
20231225 03:40:01,-0.231574,0.204593,1.835380,0.016824,0.142961,0.126021,0.106331,-31.874619,2.826088,-179.26077,0.97188413,0.092218824,-1.2685344,0.08521002,0.13689968,-0.10659742
20231225 03:40:01,-0.101324,0.123487,1.450026,0.135078,0.170660,0.189942,-0.184864,-31.800598,2.684395,179.92538,0.8622336,0.06585311,-1.0337933,0.2197965,0.16919035,-0.23226273
20231225 03:40:01,0.186231,-0.075570,0.906257,0.222436,0.188771,0.234686,-0.439819,-31.538376,2.798706,179.17532,0.7394192,-0.087356366,-0.8026229,0.3187554,0.18901896,-0.325148
20231225 03:40:01,0.476337,-0.435028,0.464990,0.271442,0.183445,0.240013,-0.545975,-31.544754,2.664101,178.70312,0.66236246,-0.43541363,-0.65687,0.3634717,0.183048,-0.36302602
20231225 03:40:01,0.681323,-0.614719,0.044394,0.290619,0.162138,0.220837,-0.933983,-31.573975,2.662148,177.64369,0.5138654,-0.63007605,-0.47926265,0.36674193,0.15998106,-0.36452603
20231225 03:40:01,0.771163,-0.737303,-0.359924,0.290619,0.148288,0.191007,-0.791969,-31.187515,2.772301,177.8469,0.27551588,-0.7703471,-0.2649791,0.34535247,0.14508653,-0.34387445
20231225 03:40:01,0.764028,-0.751551,-0.698923,0.278900,0.146157,0.164373,-0.834221,-31.104424,3.436310,177.6958,0.002374947,-0.79011464,-0.048986465,0.31543922,0.14325745,-0.3191645
20231225 03:40:01,0.687014,-0.774069,-0.978306,0.252266,0.150419,0.140936,-1.055889,-31.020309,2.892738,177.2854,-0.266678,-0.78895944,0.17596588,0.27554402,0.1495753,-0.28603554
20231225 03:40:01,0.468443,-0.720153,-1.158689,0.208587,0.151484,0.127086,-1.302914,-31.988815,3.489380,177.06857,-0.5421354,-0.69315773,0.44332784,0.23097172,0.15243854,-0.24536133
20231225 03:40:02,0.322872,-0.605716,-1.119592,0.157450,0.148288,0.126021,-0.772888,-31.573143,3.601494,178.45293,-0.6154182,-0.5643899,0.5006571,0.19398296,0.14848912,-0.20410566
20231225 03:40:02,0.179766,-0.480969,-1.108035,0.112705,0.156811,0.133478,-1.194183,-31.424248,4.257431,177.82574,-0.6950694,-0.41522416,0.5990071,0.16643035,0.15459657,-0.17634869
20231225 03:40:02,0.120787,-0.382338,-0.979944,0.076484,0.169595,0.146262,-0.957542,-31.684624,3.874870,178.29419,-0.63745177,-0.32983425,0.5624961,0.15209529,0.16548117,-0.15722442
20231225 03:40:02,0.107142,-0.327086,-0.821110,0.048785,0.175987,0.157981,-1.379604,-31.151955,3.969872,177.30333,-0.522365,-0.28270707,0.47873533,0.14149624,0.17018707,-0.14728747
20231225 03:40:02,0.150635,-0.342134,-0.609303,0.040262,0.184510,0.166504,-1.045387,-31.692848,4.008507,178.07892,-0.32942104,-0.3114158,0.31189865,0.14177038,0.17902657,-0.14696631
20231225 03:40:02,0.163141,-0.395238,-0.486638,0.055177,0.200490,0.162243,-1.539940,-31.536552,3.591469,176.83409,-0.22470333,-0.37023795,0.23162672,0.1477953,0.19602992,-0.15924136
20231225 03:40:02,0.138944,-0.394187,-0.379856,0.065830,0.212209,0.154785,-1.397152,-31.533875,4.262573,177.35503,-0.16122524,-0.37257418,0.17517042,0.14839225,0.2081246,-0.16135472
20231225 03:40:02,0.134637,-0.398540,-0.310915,0.069026,0.200490,0.154785,-1.054733,-31.595985,3.734154,177.98741,-0.1160053,-0.3820642,0.12807795,0.15199453,0.19703114,-0.1618664
20231225 03:40:02,0.282332,-0.417349,-0.242030,0.069026,0.184510,0.161177,-1.706665,-31.458000,3.852623,176.22902,0.029111668,-0.40973765,-0.01524511,0.16101348,0.18309873,-0.17000248
20231225 03:40:02,0.511839,-0.488863,-0.280912,0.071157,0.171726,0.155850,-1.866993,-31.842606,3.474220,175.57094,0.15173298,-0.496369,-0.14432918,0.1628879,0.17254616,-0.16871372
20231225 03:40:02,0.659325,-0.586436,-0.329248,0.064765,0.160007,0.140936,-1.715244,-31.744904,4.139214,175.72224,0.20501944,-0.61172426,-0.2165279,0.15061179,0.16198832,-0.15244445
20231225 03:40:02,0.797390,-0.549180,-0.440345,0.048785,0.160007,0.120694,-2.242699,-31.602394,4.660545,174.39374,0.21283367,-0.59023595,-0.23769078,0.12647279,0.16239855,-0.12898144
20231225 03:40:02,0.788105,-0.441519,-0.468685,0.034935,0.153615,0.107910,-1.803089,-31.753136,4.272842,175.56902,0.17881233,-0.4620322,-0.24282968,0.10582988,0.15488915,-0.10642283
20231225 03:40:02,0.655002,-0.247051,-0.710838,0.022151,0.156811,0.103648,-2.040112,-31.300880,4.374939,174.97893,-0.12061912,-0.25348514,-0.028473854,0.09421905,0.1572395,-0.092482656
20231225 03:40:02,0.468652,-0.021273,-0.828461,0.030674,0.223928,0.110040,-1.936913,-31.660797,3.595634,175.41277,-0.34397382,0.0052143726,0.16100898,0.09967685,0.22198199,-0.104515344
20231225 03:40:02,0.222008,0.288786,-0.755499,0.062634,0.276130,0.123890,-2.103252,-31.774124,4.137260,175.51457,-0.466479,0.33794585,0.2817582,0.12093613,0.27153105,-0.13942114
20231225 03:40:02,-0.021752,0.392429,-0.713369,0.104183,0.318744,0.145197,-2.437469,-31.233231,4.098633,174.9811,-0.59813756,0.44512036,0.44007468,0.15282752,0.3122782,-0.18921074
20231225 03:40:02,-0.060914,0.402121,-0.634771,0.131882,0.325136,0.163308,-2.136539,-31.596008,4.795158,176.00873,-0.5582937,0.44411582,0.4296973,0.18492848,0.3194273,-0.2194641
20231225 03:40:02,0.065809,0.187901,-0.628882,0.138274,0.288914,0.177157,-2.321194,-31.707497,5.068535,175.21028,-0.44720832,0.2164871,0.34170255,0.21219918,0.28588337,-0.23482782
20231225 03:40:02,0.417884,-0.030655,-0.623194,0.120163,0.223928,0.173961,-2.394066,-31.891975,4.276031,174.23996,-0.19842276,-0.036651492,0.09128946,0.21155077,0.22434777,-0.2187869
20231225 03:40:02,0.817550,-0.261440,-0.686447,0.093529,0.156811,0.151589,-2.412376,-31.890129,4.007782,173.53079,0.005213499,-0.33791056,-0.15023336,0.18412215,0.16027296,-0.18099493
20231225 03:40:02,1.170747,-0.398764,-0.706480,0.058373,0.093955,0.114302,-2.557835,-31.447121,5.451103,172.40874,0.18962622,-0.5625668,-0.40019494,0.13327302,0.0994716,-0.12607521
20231225 03:40:02,1.499178,-0.198685,-0.945057,0.016824,0.071583,0.066361,-2.409428,-31.523834,4.921700,172.2927,0.21097517,-0.47157547,-0.54236245,0.070220426,0.0772384,-0.06096807
20231225 03:40:02,1.519639,-0.093185,-1.001220,-0.022594,0.080106,0.018421,-2.409428,-31.523834,4.921700,172.0594,0.15263534,-0.38402337,-0.57232696,0.010931463,0.08376477,-3.853636E-4
20231225 03:40:02,1.475716,0.116932,-1.112672,-0.049227,0.124850,-0.017801,-2.833672,-31.741241,4.663727,171.18158,0.018746614,-0.14081533,-0.5310401,-0.029212546,0.12575284,0.038442276
20231225 03:40:02,1.205710,0.364200,-1.038890,-0.064142,0.169595,-0.050827,-2.579105,-31.811569,4.268936,172.5099,-0.09681088,0.24088454,-0.38912708,-0.06806113,0.1688366,0.06843055
20231225 03:40:02,0.704864,0.563944,-0.958639,-0.063077,0.215405,-0.074265,-2.851986,-31.739395,4.395485,173.00258,-0.36611393,0.5919861,-0.045693457,-0.1012911,0.21587856,0.07893812
20231225 03:40:02,0.183224,0.767715,-0.758400,-0.047097,0.250562,-0.070003,-2.957764,-31.937660,4.541344,173.92676,-0.55682945,0.8395907,0.25909865,-0.105234966,0.2520661,0.06355628
20231225 03:40:02,-0.251958,0.857328,-0.559441,-0.014071,0.278261,-0.038043,-2.745445,-31.924896,4.810570,175.37706,-0.70179796,0.8929112,0.49870217,-0.07444634,0.27798685,0.020616388
20231225 03:40:02,-0.548749,0.932024,-0.370111,0.029608,0.283587,0.025878,-2.912170,-31.846344,5.071724,175.4709,-0.7628367,0.90608597,0.61369914,-0.0035239384,0.27816728,-0.053104054
20231225 03:40:02,-0.555805,0.964952,-0.340607,0.070092,0.267607,0.106844,-2.754795,-31.828033,4.536201,175.30087,-0.73801327,0.937814,0.59860563,0.0894882,0.25640005,-0.13416083
20231225 03:40:02,-0.263953,0.875182,-0.526013,0.095660,0.247366,0.179288,-3.000019,-31.854568,5.205360,174.13748,-0.6566832,0.89967126,0.4698232,0.1777571,0.23593199,-0.19777215
20231225 03:40:02,0.276893,0.824607,-0.877067,0.093529,0.223928,0.215510,-3.203369,-31.772308,4.930016,172.15154,-0.5669957,0.84220713,0.21345428,0.22604051,0.22141989,-0.21782361
20231225 03:40:02,0.817232,0.714783,-1.199430,0.064765,0.184510,0.206987,-2.991436,-31.567657,4.918770,170.88695,-0.48197532,0.57707036,-0.08253521,0.22147436,0.19631933,-0.18385425
20231225 03:40:02,1.393284,0.629476,-1.449840,0.001909,0.150419,0.161177,-3.255356,-31.400467,5.039200,168.783,-0.33733428,0.25722134,-0.45811653,0.15688832,0.17241041,-0.10385714
20231225 03:40:02,1.683044,0.663900,-1.513291,-0.071600,0.125916,0.081276,-3.248577,-32.055519,4.680115,168.45972,-0.22133553,0.17755985,-0.69445574,0.05140087,0.14604779,0.004082538
20231225 03:40:02,1.740267,0.837621,-1.622746,-0.150435,0.137635,-0.001821,-3.361130,-31.598732,5.185066,168.22092,-0.24246562,0.34728009,-0.68934816,-0.059668943,0.15115818,0.11192715
20231225 03:40:02,1.663163,0.980870,-1.245201,-0.221814,0.141896,-0.085984,-3.530811,-31.886475,4.532295,168.78954,0.05329919,0.65498996,-0.7908389,-0.17663097,0.14872809,0.21512562
20231225 03:40:02,1.432153,1.178838,-0.727480,-0.266558,0.139765,-0.155231,-3.382397,-31.963181,4.002899,170.31822,0.33960408,1.0498266,-0.8527352,-0.2720418,0.14196074,0.29173946
20231225 03:40:02,1.000521,1.479506,-0.182467,-0.270820,0.136569,-0.193584,-3.054958,-31.849022,4.400620,172.2131,0.48557264,1.4666156,-0.8047271,-0.31677103,0.13674912,0.32030383
20231225 03:40:02,0.588581,1.667061,0.347188,-0.235663,0.139765,-0.194649,-3.266891,-32.053673,4.411873,172.54419,0.5921415,1.669649,-0.8102103,-0.30351087,0.13977633,0.2931891
20231225 03:40:02,0.289964,1.853383,0.771464,-0.156828,0.158942,-0.168015,-3.170464,-31.758537,3.991653,173.15112,0.66242296,1.8153583,-0.8569076,-0.2387952,0.1606458,0.21518907
20231225 03:40:02,0.000590,2.167103,1.179576,-0.050293,0.139765,-0.128598,-3.258308,-31.766762,4.125290,173.23924,0.7311113,2.0644965,-0.9175638,-0.14116715,0.14574759,0.110045
20231225 03:40:02,-0.114088,2.341342,1.070276,0.020020,0.085433,-0.075330,-2.976078,-31.935806,4.273102,174.0513,0.5429277,2.2172344,-0.7255882,-0.05392733,0.09329018,0.025528997
20231225 03:40:02,-0.076251,2.568712,0.842655,0.009367,-0.014710,-0.029520,-2.639668,-31.726639,4.664703,174.54614,0.43358254,2.490618,-0.59008324,-0.016763687,-0.011926465,0.011020318
20231225 03:40:02,0.285812,2.575038,0.495244,-0.090776,-0.132964,-0.001821,-2.818314,-32.109390,4.018059,173.22997,0.48351884,2.5635488,-0.7013184,-0.05086332,-0.13498233,0.08349908
20231225 03:40:02,0.766999,2.271067,0.352328,-0.230337,-0.213930,-0.007148,-3.179047,-32.045441,4.278236,171.49934,0.8246038,2.2605863,-1.0241673,-0.15182737,-0.20768164,0.20740145
20231225 03:40:02,1.344739,2.032257,0.354878,-0.351786,-0.190493,-0.062546,-3.409676,-32.056358,3.740776,170.61734,1.2864032,1.9618375,-1.4728278,-0.28580475,-0.17147346,0.33126232
20231225 03:40:02,1.536924,1.634840,0.787277,-0.433818,-0.110591,-0.182930,-3.020905,-32.410904,4.303665,172.29787,1.719276,1.5902581,-1.8074156,-0.4348383,-0.096820444,0.4519226
20231225 03:40:02,1.088293,1.229988,1.450858,-0.468975,-0.030690,-0.324622,-2.985809,-31.647057,3.718277,173.36769,1.7847168,1.2294525,-1.8987019,-0.5639154,-0.031002559,0.55883497
20231225 03:40:02,0.381033,0.795472,2.274427,-0.447668,0.031100,-0.445006,-2.431076,-31.696396,3.459068,175.48405,1.6660012,0.7020922,-2.0629988,-0.6278838,0.024918651,0.623793
20231225 03:40:02,-0.475832,0.381925,3.108798,-0.353917,0.081171,-0.501469,-1.839714,-31.749443,3.736359,177.61807,1.3044571,0.013600826,-2.3053713,-0.5791929,0.078624785,0.6105883
20231225 03:40:02,-1.439715,0.010171,3.913606,-0.195180,0.102478,-0.458855,-2.272934,-32.061859,3.484497,177.28174,0.71464753,-0.7426298,-2.6184087,-0.4086177,0.11539295,0.4894078
20231225 03:40:02,-2.065796,-0.468362,4.427361,-0.000221,0.075844,-0.325687,-2.124138,-32.330460,3.235565,177.719,0.2531718,-1.4743102,-2.9089503,-0.15790376,0.11333236,0.28435555
20231225 03:40:02,-2.138931,-1.061148,4.348775,0.208587,0.030034,-0.153100,-1.982502,-31.752113,3.065254,177.82327,0.055699825,-1.9990811,-2.9195614,0.118462995,0.09359831,0.04421667
20231225 03:40:02,-1.646096,-1.804716,3.794587,0.407807,-0.002991,0.005636,-1.655060,-31.637962,3.462975,178.24196,0.21095407,-2.3841586,-2.7061677,0.372974,0.07060093,-0.17562126
20231225 03:40:02,-0.640867,-2.699416,2.915369,0.552694,-0.034952,0.084472,-1.945107,-32.139595,4.162689,177.38525,0.64801174,-2.8856823,-2.3272376,0.5439757,0.022628406,-0.28925684
20231225 03:40:02,0.209513,-3.558126,1.963588,0.638987,-0.074370,0.071688,-1.617668,-32.025436,4.560402,177.41327,0.9851289,-3.5780575,-1.7486908,0.62060905,-0.049963117,-0.3022498
20231225 03:40:02,0.821339,-3.943247,0.954725,0.661360,-0.073304,-0.002886,-1.590004,-32.124161,5.103012,176.99643,1.1142778,-3.9475255,-1.0120547,0.60517853,-0.080745935,-0.25713786
20231225 03:40:02,1.000734,-3.853495,0.013785,0.621942,-0.050932,-0.114748,-1.739182,-31.663673,5.071465,176.62988,0.8667358,-3.8587706,-0.30625483,0.4852116,-0.05463047,-0.2031281
20231225 03:40:02,0.723087,-3.275745,-0.749374,0.499427,-0.044540,-0.219152,-1.871853,-32.146996,5.235672,177.13379,0.28305838,-3.182101,0.28809816,0.26734596,-0.0016516941,-0.12647158
20231225 03:40:02,0.187900,-2.468933,-1.310205,0.309795,-0.058389,-0.288400,-1.323895,-31.541275,5.335548,179.52379,-0.41083598,-2.2071157,0.8257636,0.034455836,0.0281923,-0.0077703595
20231225 03:40:02,-0.505341,-1.578119,-1.544966,0.076484,-0.073304,-0.308641,-1.675659,-31.382309,5.589622,-179.47668,-1.0430043,-1.2292311,1.3994607,-0.1480971,0.021832589,0.1491642
20231225 03:40:02,-1.099106,-0.793013,-1.428265,-0.164285,-0.080762,-0.282008,-1.262562,-32.009987,5.500732,-177.79079,-1.4822823,-0.5962026,1.7479302,-0.2799533,-0.034314588,0.30748814
20231225 03:40:02,-1.512441,-0.269144,-0.982451,-0.385877,-0.074370,-0.233002,-1.086872,-31.993538,5.233467,-177.5382,-1.6121633,-0.37410134,1.7667547,-0.39785397,-0.10583788,0.43852788
20231225 03:40:02,-1.760843,-0.048588,-0.165361,-0.541418,-0.060520,-0.159493,-1.017727,-31.791565,4.551109,-178.47084,-1.3850907,-0.4743233,1.3162465,-0.4833672,-0.16147862,0.4835421
20231225 03:40:02,-1.733505,-0.202849,0.882068,-0.587228,-0.036017,-0.068938,-0.769161,-31.590622,5.076347,-178.24486,-0.8027189,-0.78883576,0.3766502,-0.49461308,-0.16496626,0.41695052
20231225 03:40:02,-1.596400,-0.516565,1.828198,-0.517981,-0.006187,0.032270,-0.981480,-31.603378,4.807129,-179.32956,-0.24457985,-1.1251961,-0.6120749,-0.40897584,-0.12495456,0.26583758
20231225 03:40:02,-1.391049,-0.802921,2.563719,-0.378420,-0.004057,0.136674,-0.736259,-31.576843,4.137985,-179.55838,0.21935034,-1.3569503,-1.459646,-0.25205687,-0.093549006,0.08189477
20231225 03:40:02,-1.022202,-1.247967,2.810590,-0.213291,-0.034952,0.232556,-1.008762,-31.696548,4.544991,179.60509,0.55012745,-1.6195143,-1.9569306,-0.07283136,-0.08622408,-0.1000274
20231225 03:40:02,-0.325151,-1.802028,2.843705,-0.042835,-0.076500,0.267712,-1.363094,-32.095764,4.165619,178.11691,1.07939,-1.9314077,-2.3248403,0.08710414,-0.089949094,-0.2159857
20231225 03:40:02,0.547508,-2.168207,2.498599,0.127620,-0.130833,0.215510,-1.723438,-32.223701,4.706268,176.85898,1.6559958,-2.1735957,-2.3576968,0.2137732,-0.1307275,-0.24351464
20231225 03:40:02,1.118491,-2.264404,1.742408,0.268246,-0.144683,0.106844,-1.660305,-31.750450,4.943947,176.49884,1.8042488,-2.2661135,-1.9463334,0.28302407,-0.1506937,-0.21960078
20231225 03:40:02,1.184287,-2.215239,0.887374,0.359866,-0.132964,-0.024193,-1.581421,-31.837242,4.816429,176.72264,1.453839,-2.224376,-1.2857354,0.28575146,-0.13892138,-0.17154703
20231225 03:40:02,0.824322,-2.012724,0.310425,0.416330,-0.139356,-0.131794,-1.633026,-31.657288,5.206078,177.13635,0.8932916,-1.9916258,-0.6701632,0.2522361,-0.12207617,-0.14519294
20231225 03:40:02,0.443380,-1.653119,-0.325969,0.451486,-0.132964,-0.196780,-1.563492,-31.647209,4.804199,177.74171,0.22784115,-1.5878465,-0.004380703,0.21507823,-0.08404672,-0.15062515
20231225 03:40:02,0.079670,-1.422603,-0.929777,0.466401,-0.136160,-0.228740,-1.228889,-32.379997,5.123306,179.33002,-0.42132124,-1.2732606,0.6023557,0.18072587,-0.047955357,-0.17399201
20231225 03:40:02,-0.224407,-1.218961,-1.428728,0.444029,-0.161728,-0.228740,-1.181110,-31.538589,6.006653,-179.27158,-0.980703,-0.94997525,1.0764004,0.1437423,-0.044952367,-0.1963199
20231225 03:40:02,-0.336029,-0.960856,-2.096245,0.375847,-0.170251,-0.206368,-1.005421,-31.522141,5.739380,-178.46098,-1.609068,-0.50893855,1.4928238,0.09988551,-0.05586719,-0.18433982
20231225 03:40:02,-0.385321,-0.812809,-2.449978,0.266116,-0.193689,-0.181865,-0.599098,-31.494766,6.009583,-176.7997,-1.9496028,-0.22122961,1.654766,0.05274628,-0.09375425,-0.12629876
20231225 03:40:02,-0.399254,-0.662294,-2.713283,0.131882,-0.199015,-0.154166,-0.598713,-31.686661,6.290054,-176.31837,-2.2066824,0.03045106,1.7694014,9.305477E-4,-0.12490854,-0.035367787
20231225 03:40:02,-0.405818,-0.546022,-2.660893,-0.020463,-0.195819,-0.117944,-0.625992,-31.779823,6.027924,-176.93756,-2.2110667,0.07537806,1.7797004,-0.056610063,-0.16089183,0.075930595
20231225 03:40:02,-0.307292,-0.506265,-2.301692,-0.166416,-0.202211,-0.084918,-0.747894,-31.226173,6.258514,-178.15799,-1.9003246,-0.09311828,1.5800589,-0.12525265,-0.20308557,0.1809265
20231225 03:40:02,-0.073254,-0.634527,-1.790867,-0.280408,-0.227780,-0.070003,-0.386780,-31.482010,6.278809,-178.50517,-1.3349458,-0.40647545,1.177822,-0.2018646,-0.24483247,0.25777224
20231225 03:40:02,0.148022,-0.796125,-1.286634,-0.358178,-0.268263,-0.082788,-0.696293,-31.406128,5.868858,179.95552,-0.7844412,-0.6699341,0.74974287,-0.27760884,-0.28684124,0.3219819
20231225 03:40:02,0.328885,-0.828010,-0.925302,-0.411446,-0.304485,-0.109421,-0.617798,-31.301025,5.460869,179.64581,-0.39048645,-0.7499551,0.40365702,-0.34428057,-0.32055634,0.3746672
20231225 03:40:02,0.389346,-0.781930,-0.654655,-0.457256,-0.334315,-0.140316,-0.441723,-31.476456,5.474068,179.89366,-0.14826205,-0.72700936,0.18708155,-0.4048523,-0.34944683,0.42345256
20231225 03:40:02,0.423398,-0.646565,-0.352041,-0.493478,-0.360948,-0.172277,-0.178185,-31.451775,5.073166,-179.62726,0.08832422,-0.60748637,-0.04709646,-0.45582148,-0.37601882,0.46640646
20231225 03:40:02,0.414987,-0.465868,-0.038029,-0.513719,-0.365210,-0.197845,-0.223396,-31.734978,4.823265,-179.77707,0.29710314,-0.44268993,-0.2587612,-0.4919871,-0.38039935,0.49564385
20231225 03:40:02,0.286035,-0.243528,0.345985,-0.515850,-0.362014,-0.218087,0.173191,-31.418854,4.538628,-178.84169,0.45669472,-0.24448177,-0.45197225,-0.50843036,-0.37937737,0.50325507
20231225 03:40:02,0.208857,-0.143519,0.700806,-0.495608,-0.364144,-0.235132,-0.178570,-31.259880,4.792694,-179.50172,0.6238763,-0.1688787,-0.6667687,-0.50723267,-0.38161424,0.5002672
20231225 03:40:02,0.075146,-0.014090,1.025555,-0.458321,-0.390778,-0.259635,0.224796,-31.598808,4.148979,-178.67998,0.7200428,-0.071437396,-0.82953966,-0.4925829,-0.40609002,0.48792353
20231225 03:40:02,-0.000925,-0.047742,1.115808,-0.397596,-0.382255,-0.289465,0.109673,-31.700211,4.020477,-178.81174,0.7121466,-0.12728786,-0.8575128,-0.46228254,-0.3933093,0.47071078
20231225 03:40:02,-0.245885,0.150896,1.304074,-0.301715,-0.357752,-0.321426,0.179970,-32.073906,4.179550,-178.38557,0.6268277,0.0047562495,-0.83818597,-0.40324008,-0.3576909,0.43231815
20231225 03:40:02,-0.570182,0.313347,1.374946,-0.176004,-0.323661,-0.346994,0.442352,-31.473557,2.937225,-177.8462,0.3991266,0.065914586,-0.6732003,-0.316307,-0.30183908,0.36920637
20231225 03:40:02,-0.937637,0.497349,1.278172,-0.024724,-0.284243,-0.350190,0.982498,-31.538528,3.884636,-175.92561,0.041762114,0.12607624,-0.3111049,-0.20025504,-0.22737259,0.26339322
20231225 03:40:02,-1.339792,0.772871,0.991598,0.128686,-0.234172,-0.322491,1.352573,-31.699348,3.898819,-174.59625,-0.4755497,0.27162617,0.25084984,-0.07246812,-0.13533202,0.12982288
20231225 03:40:02,-1.672920,1.022438,0.563398,0.263985,-0.191558,-0.271354,1.122711,-32.094032,3.922295,-174.52393,-1.0328636,0.4357159,0.8753258,0.04712841,-0.053334266,-0.01342909
20231225 03:40:02,-1.879216,1.206840,-0.002703,0.372650,-0.150009,-0.199976,0.894653,-31.546753,4.018272,-174.31158,-1.6007215,0.63910705,1.4775915,0.15447158,0.01244903,-0.15347329
20231225 03:40:03,-1.967735,1.227805,-0.569703,0.445094,-0.113788,-0.110487,1.237839,-31.992638,4.050797,-173.05896,-2.049758,0.7773734,1.9667282,0.24470112,0.049166605,-0.27953568
20231225 03:40:03,-1.835042,1.054883,-1.075599,0.471728,-0.093546,-0.025259,0.922314,-31.645470,4.560875,-173.12143,-2.2480536,0.8394939,2.1802053,0.3046862,0.043758206,-0.36155763
20231225 03:40:03,-1.523444,0.785380,-1.524169,0.446160,-0.105265,0.039727,1.302124,-32.095055,5.129883,-172.11353,-2.28018,0.8428408,2.1891131,0.3287326,-0.008708146,-0.3892943
20231225 03:40:03,-1.048136,0.382514,-1.864177,0.374781,-0.142552,0.071688,1.531990,-31.700371,5.106407,-172.1599,-2.1477427,0.6430758,1.9581826,0.30953127,-0.08616859,-0.35731313
20231225 03:40:03,-0.516155,0.072175,-2.106287,0.275704,-0.187297,0.065296,1.029240,-32.022873,5.256432,-174.34105,-1.9944805,0.3987077,1.6195756,0.24409992,-0.15889558,-0.27429843
20231225 03:40:03,-0.121342,-0.129567,-2.219064,0.159581,-0.225649,0.030139,1.364880,-31.429924,5.087090,-174.32556,-1.857884,0.15355328,1.342034,0.1445476,-0.2122933,-0.16117857
20231225 03:40:03,0.105360,-0.229128,-2.249279,0.043458,-0.249087,-0.019932,1.100574,-31.070824,4.927048,-175.2501,-1.7645689,0.037168473,1.1519941,0.03620398,-0.24113968,-0.03649814
20231225 03:40:03,0.133498,-0.064482,-2.134351,-0.062012,-0.233106,-0.067873,1.391006,-30.761086,4.507805,-174.55093,-1.6548758,0.19084157,1.0955347,-0.06389187,-0.22798428,0.07684392
20231225 03:40:03,-0.022792,0.107002,-1.844972,-0.145109,-0.218192,-0.110487,1.612289,-30.653297,4.770920,-173.71838,-1.5035932,0.34807646,1.0983299,-0.14435804,-0.21448538,0.16796689
20231225 03:40:03,-0.206204,0.278902,-1.509083,-0.207964,-0.204342,-0.129663,1.302010,-30.193642,3.800026,-174.73364,-1.339513,0.46495098,1.0989054,-0.1993563,-0.2054933,0.23199183
20231225 03:40:03,-0.265329,0.349227,-1.015381,-0.249513,-0.203277,-0.137120,1.418285,-30.667908,4.769943,-174.63037,-0.98117006,0.4434148,0.8746092,-0.23874691,-0.20961776,0.2666024
20231225 03:40:03,-0.202218,0.312102,-0.618826,-0.274016,-0.218192,-0.149904,1.345413,-30.852402,3.977432,-175.38153,-0.6233276,0.3547357,0.5797697,-0.27077347,-0.22614649,0.29187113
20231225 03:40:03,-0.132090,0.245514,-0.200737,-0.276147,-0.234172,-0.176538,1.654156,-30.544502,3.826431,-174.95288,-0.25642172,0.24987634,0.2495775,-0.29774284,-0.24082695,0.3056878
20231225 03:40:03,-0.312602,0.210116,0.214227,-0.246317,-0.279982,-0.210629,1.697945,-31.395149,4.284309,-174.72157,-0.09634487,0.15146767,0.08114268,-0.29198068,-0.28095663,0.30392063
20231225 03:40:03,-0.431656,0.088775,0.204881,-0.190919,-0.281047,-0.221283,1.531219,-31.316589,4.545464,-174.9889,-0.1822973,0.01465895,0.15620598,-0.2576905,-0.27500683,0.27352253
20231225 03:40:03,-0.536822,0.125975,0.393819,-0.100364,-0.238433,-0.231936,1.892334,-31.572426,4.565758,-174.14851,-0.14260268,0.009247709,0.08941585,-0.20098464,-0.22006035,0.21936901
20231225 03:40:03,-0.680892,0.206406,0.589464,0.023216,-0.181970,-0.234067,1.962250,-31.754234,4.444351,-173.85783,-0.13518295,0.025088578,0.04815182,-0.114418656,-0.1437525,0.14081609
20231225 03:40:03,-0.902218,0.378078,0.602649,0.155319,-0.138290,-0.212760,2.342712,-30.686180,4.244446,-172.56505,-0.30750242,0.13064364,0.22351357,-0.0090339035,-0.077150255,0.033030592
20231225 03:40:03,-1.029000,0.480566,0.483790,0.259724,-0.128702,-0.169081,2.237324,-31.076340,4.670776,-172.50012,-0.4822133,0.21236937,0.4262407,0.090890795,-0.052964814,-0.07513346
20231225 03:40:03,-1.008009,0.542370,0.214093,0.331102,-0.146813,-0.123271,2.282528,-30.793129,4.920685,-172.15442,-0.63627726,0.33138737,0.6333617,0.16652614,-0.06952668,-0.16884656
20231225 03:40:03,-0.821604,0.623147,-0.122222,0.376912,-0.160663,-0.094506,2.264984,-31.175064,5.213387,-172.1185,-0.73607606,0.509648,0.7513077,0.20749527,-0.08715018,-0.23417461
20231225 03:40:03,-0.606843,0.672241,-0.485990,0.395023,-0.167055,-0.093441,2.626095,-31.430901,5.233681,-171.16522,-0.86039966,0.65541804,0.8393564,0.20730403,-0.09637447,-0.26254505
20231225 03:40:03,-0.602991,0.770958,-0.745384,0.373716,-0.170251,-0.106225,2.310577,-31.083740,5.743759,-171.22318,-1.0821304,0.80048746,1.0003567,0.1784195,-0.0941447,-0.24658693
20231225 03:40:03,-0.734574,0.893210,-0.872201,0.319383,-0.161728,-0.105160,2.486267,-31.067276,5.476494,-170.51898,-1.293798,0.92672384,1.1951597,0.14479269,-0.087666735,-0.20710391
20231225 03:40:03,-0.870107,1.155374,-0.780278,0.269312,-0.143617,-0.101964,2.592808,-31.252785,5.891571,-169.88412,-1.3722888,1.1381629,1.2804127,0.11561354,-0.072632834,-0.16886605
20231225 03:40:03,-1.149637,1.414961,-0.605201,0.255462,-0.092481,-0.093441,2.831635,-30.763077,5.861984,-168.55888,-1.5055745,1.2771173,1.4440482,0.10697137,-0.016248226,-0.15903805
20231225 03:40:03,-1.528214,1.879915,-0.394725,0.257593,-0.027494,-0.056154,2.487419,-31.642952,6.317909,-168.65451,-1.7574723,1.5331237,1.6765242,0.120794624,0.04683605,-0.1761927
20231225 03:40:03,-1.974672,2.405938,-0.113019,0.217110,-0.014710,0.018421,2.460140,-31.736115,6.055779,-168.5056,-2.010029,1.7969931,1.936001,0.14792225,0.030922145,-0.18662006
20231225 03:40:03,-2.218931,2.819175,0.103962,0.098856,-0.087154,0.139870,2.753906,-31.251953,6.830917,-167.26694,-2.1386151,2.0419934,2.0835671,0.18946534,-0.100511864,-0.17271973
20231225 03:40:03,-2.006020,2.747197,0.377223,-0.072665,-0.179839,0.276235,2.611893,-31.638412,6.720764,-169.25902,-1.6305228,2.136436,1.659366,0.20417127,-0.25183964,-0.13258712
20231225 03:40:03,-1.214331,2.444694,0.691593,-0.234598,-0.258675,0.374247,2.081097,-31.670311,6.047714,-172.59454,-0.6039421,2.1559978,0.69954693,0.17118955,-0.3362628,-0.07696846
20231225 03:40:03,-0.376979,1.889925,1.037022,-0.357113,-0.239499,0.413665,2.232079,-31.188835,6.151749,-173.87567,0.38182887,1.7967553,-0.28929508,0.073226824,-0.28504193,-0.036301836
20231225 03:40:03,0.193538,1.198358,1.560468,-0.437014,-0.173447,0.395554,1.887093,-31.684921,6.046738,-175.6354,1.1718311,1.1671318,-1.2084997,-0.04968798,-0.19303799,-0.0037443638
20231225 03:40:03,0.356011,0.551986,2.121283,-0.468975,-0.081827,0.349744,1.683357,-31.410774,5.490929,-176.27731,1.5811136,0.5249281,-1.8562973,-0.1514634,-0.09704827,0.011110395
20231225 03:40:03,0.269972,-0.124451,2.732779,-0.442341,0.035361,0.304999,1.550304,-31.702217,5.374649,-176.58806,1.7301365,-0.17273495,-2.432871,-0.2025058,0.014998406,-0.0091970265
20231225 03:40:03,0.073599,-0.830560,3.411298,-0.333675,0.132308,0.257059,1.314045,-31.633728,6.037689,-176.98964,1.744926,-0.9071643,-3.0483534,-0.16930538,0.111932546,-0.055404946
20231225 03:40:03,-0.069733,-1.378385,3.851441,-0.152566,0.186641,0.199530,1.461308,-31.134773,4.666870,-176.61642,1.7109177,-1.49354,-3.473151,-0.051966526,0.17138335,-0.09919353
20231225 03:40:03,-0.288739,-1.550976,3.864858,0.095660,0.227124,0.142001,1.259102,-31.628181,5.232956,-176.84183,1.555579,-1.7104998,-3.3797379,0.14118844,0.2280361,-0.1586588
20231225 03:40:03,-0.431388,-1.379944,3.490227,0.373716,0.259084,0.100452,1.243366,-31.068146,5.598152,-176.47926,1.4331348,-1.5941756,-2.875295,0.36006802,0.28630656,-0.25982052
20231225 03:40:03,-0.564251,-1.063362,2.586301,0.620876,0.292110,0.086603,1.261677,-31.069992,5.866402,-176.06589,1.047657,-1.2954459,-1.8793997,0.5415697,0.34813276,-0.4033375
20231225 03:40:03,-0.545873,-0.835023,1.524453,0.790267,0.324071,0.101518,1.067673,-31.084602,5.865425,-176.31093,0.57905483,-1.0014663,-0.8933228,0.65594846,0.39137146,-0.55471116
20231225 03:40:03,-0.283455,-0.789394,0.557719,0.880821,0.337920,0.142001,0.937576,-31.009743,6.663071,-176.72084,0.21613848,-0.8412664,-0.2527228,0.7236551,0.38881958,-0.6849672
20231225 03:40:03,0.128268,-0.884725,-0.310169,0.886148,0.323005,0.191007,0.807476,-30.934883,7.460716,-177.91565,-0.11885736,-0.87735313,0.101222984,0.7485412,0.333896,-0.76099175
20231225 03:40:03,0.657548,-1.066663,-0.983323,0.788136,0.248431,0.230425,1.301643,-30.899284,7.597275,-178.32065,-0.36618593,-1.1466086,0.1274563,0.7034982,0.22369367,-0.7413325
20231225 03:40:03,1.358501,-1.399784,-1.462924,0.583589,0.118458,0.259189,0.774185,-30.756767,8.118607,177.60683,-0.41434896,-1.8188481,-0.017944396,0.5949983,0.07183649,-0.61266714
20231225 03:40:03,2.077140,-1.620985,-1.843937,0.305533,-0.053063,0.262385,0.958843,-30.645294,7.845222,175.64891,-0.38049376,-2.5139027,-0.28185058,0.3701898,-0.050231993,-0.39959443
20231225 03:40:03,2.701769,-1.808044,-2.097883,-0.001287,-0.169186,0.263451,0.676994,-30.668129,7.977882,172.79166,-0.1214422,-3.235822,-0.38143432,0.105524205,-0.052719086,-0.16384767
20231225 03:40:03,3.328618,-2.019680,-2.039470,-0.298519,-0.206473,0.228294,0.862419,-30.940430,8.265442,172.10933,0.51576865,-3.7930155,-0.5889492,-0.16601668,0.033732474,0.058854714
20231225 03:40:03,3.776579,-2.242290,-1.761213,-0.566987,-0.181970,0.146262,0.498348,-31.050888,7.331238,172.65332,1.290432,-4.116462,-0.7392124,-0.4326173,0.14601299,0.25513592
20231225 03:40:03,3.962336,-2.441826,-0.995306,-0.787514,-0.152140,0.003506,0.719631,-30.943108,7.594345,174.14374,2.0951612,-3.9798214,-1.2342541,-0.6875822,0.17888,0.45779476
20231225 03:40:03,3.567357,-2.255576,-0.047383,-0.941989,-0.157467,-0.173342,0.610516,-31.315788,6.545815,176.49353,2.502207,-3.194906,-1.8085554,-0.9069146,0.10503627,0.6709075
20231225 03:40:03,2.838791,-1.873227,0.989698,-0.994191,-0.179839,-0.346994,0.522671,-31.324020,6.679451,178.06636,2.6672585,-2.2387304,-2.3346748,-1.0386181,-0.03008997,0.8415177
20231225 03:40:03,1.818206,-1.213766,1.740698,-0.951577,-0.211800,-0.489751,0.801567,-31.667480,5.632881,-179.51848,2.413253,-1.2573471,-2.47437,-1.0716412,-0.16144061,0.9427413
20231225 03:40:03,0.766829,-0.616107,2.038133,-0.845042,-0.196885,-0.574978,1.455296,-30.863503,5.586906,-176.78432,1.8259532,-0.6295219,-2.1252785,-1.0188143,-0.20498733,0.9520256
20231225 03:40:03,-0.278631,-0.060455,2.317223,-0.704417,-0.160663,-0.589893,1.463879,-30.576591,5.300316,-175.56401,1.1545273,-0.26783913,-1.6895242,-0.9019506,-0.18674847,0.8825638
20231225 03:40:03,-1.158376,0.357284,2.460825,-0.527569,-0.066912,-0.529168,1.894138,-30.630455,4.638260,-174.16031,0.44690257,-0.12553468,-1.2625095,-0.7241008,-0.088151395,0.7308677
20231225 03:40:03,-1.731230,0.430599,2.878457,-0.291061,0.019381,-0.407719,2.043320,-31.090942,4.669800,-173.6358,0.11103833,-0.31856754,-1.3245443,-0.46738303,0.01718675,0.50060546
20231225 03:40:03,-2.050170,0.239477,3.013838,-0.015136,0.082237,-0.251113,1.982365,-30.814117,4.785103,-173.63106,-0.12018931,-0.6141817,-1.332437,-0.15889812,0.11135572,0.22361892
20231225 03:40:03,-1.914323,-0.105703,2.728436,0.259724,0.104609,-0.084918,2.221581,-30.516304,5.035980,-173.12012,-0.08902967,-0.8370079,-1.1843902,0.15527835,0.16363479,-0.06506789
20231225 03:40:03,-1.398961,-0.465094,1.859748,0.486643,0.112066,0.051446,1.736759,-30.648766,5.173775,-174.37093,0.0038942099,-0.8905561,-0.7022401,0.4093804,0.18050821,-0.320161
20231225 03:40:03,-0.673107,-0.855686,0.656297,0.629399,0.113132,0.128151,2.434284,-30.695435,5.585678,-173.30379,-0.03253025,-0.975024,-0.15246442,0.5568503,0.16703464,-0.48810416
20231225 03:40:03,-0.058439,-1.065090,-0.466209,0.695451,0.124850,0.151589,1.709866,-30.933830,5.192116,-175.47726,-0.3199284,-1.0451859,0.31347266,0.598163,0.14923097,-0.5865649
20231225 03:40:03,0.413906,-1.047752,-1.438483,0.699712,0.161072,0.136674,1.967392,-30.637856,5.711235,-175.05061,-0.81947696,-1.0200638,0.5460868,0.55199003,0.1679715,-0.6145834
20231225 03:40:03,0.583184,-0.928971,-2.274502,0.651772,0.215405,0.110040,2.119144,-30.540161,6.376221,-174.64188,-1.5207943,-0.922287,0.77800965,0.46490598,0.21627301,-0.58426625
20231225 03:40:03,0.652179,-0.901268,-2.777509,0.542041,0.246300,0.083407,1.970734,-30.463455,6.905624,-175.18373,-2.0354447,-0.95028925,0.8577902,0.35928407,0.2423808,-0.49414927
20231225 03:40:03,0.748026,-0.733160,-3.051107,0.377977,0.231385,0.058904,1.634323,-30.672623,6.514023,-176.30812,-2.289348,-0.8591158,0.8554587,0.24881239,0.2253649,-0.3490506
20231225 03:40:03,0.848158,-0.610663,-3.075886,0.180888,0.180249,0.041858,1.855221,-30.372955,6.496658,-176.31973,-2.272081,-0.8481785,0.781465,0.13872044,0.17550144,-0.17173716
20231225 03:40:03,0.997720,-0.560667,-2.888234,-0.028986,0.105674,0.026943,2.061146,-29.897034,7.405441,-176.87039,-1.9967698,-0.89916605,0.61911744,0.018313447,0.10933492,0.013907723
20231225 03:40:03,1.228961,-0.487104,-2.656627,-0.230337,0.039623,0.012028,1.804390,-30.576782,7.447258,-178.45482,-1.5879691,-0.9318024,0.41677403,-0.11089441,0.06031205,0.1868241
20231225 03:40:03,1.396973,-0.526954,-2.255985,-0.410380,0.008728,0.002440,1.873535,-30.374802,6.764900,-178.32343,-1.0224098,-0.9693526,0.21527016,-0.24174212,0.050618052,0.32801992
20231225 03:40:03,1.522942,-0.605260,-1.627044,-0.544614,0.004466,-0.007148,2.110561,-30.827065,6.662811,-177.60938,-0.27962375,-0.93972325,-0.09483826,-0.36295918,0.058522556,0.4150998
20231225 03:40:03,1.515521,-0.636568,-0.871877,-0.618123,0.011924,-0.022063,1.846256,-30.467979,6.502769,-177.8907,0.40050912,-0.85480535,-0.47246307,-0.45133463,0.067699835,0.45306867
20231225 03:40:03,1.440572,-0.565737,-0.148463,-0.620254,0.024708,-0.046566,1.633942,-30.480743,6.233551,-177.78049,0.928542,-0.673009,-0.87761647,-0.48785,0.06484675,0.45316055
20231225 03:40:03,1.131870,-0.481267,0.404735,-0.566987,0.036427,-0.074265,2.285484,-30.426834,5.834602,-175.69545,1.1115435,-0.5064166,-1.0674373,-0.479412,0.052744854,0.42528448
20231225 03:40:03,0.826228,-0.463019,0.884650,-0.481759,0.023642,-0.092376,2.030914,-30.356499,6.229393,-175.82785,1.1969912,-0.46327868,-1.2314093,-0.43385634,0.02454264,0.37423578
20231225 03:40:03,0.566572,-0.443723,1.094810,-0.376289,-0.000861,-0.103029,2.239895,-30.518150,5.304222,-175.10028,1.1264609,-0.44786373,-1.2377355,-0.35961926,-0.0051194457,0.31298134
20231225 03:40:03,0.481250,-0.515523,1.190012,-0.264428,-0.012579,-0.111552,1.912449,-30.632301,4.906502,-175.73372,1.1158013,-0.52370995,-1.2636347,-0.2772413,-0.015965454,0.24896795
20231225 03:40:03,0.420073,-0.458553,1.120515,-0.156828,-0.018972,-0.134990,2.294067,-30.139923,5.548019,-174.67735,1.0392298,-0.47276318,-1.1664693,-0.20626846,-0.020438153,0.20158643
20231225 03:40:03,0.248157,-0.284486,0.859841,-0.068404,-0.004057,-0.152035,2.442478,-30.216637,5.018616,-173.93457,0.7577646,-0.30886936,-0.83465946,-0.15026061,-8.874764E-4,0.15911558
20231225 03:40:03,0.059680,-0.147674,0.541081,-0.005548,0.024708,-0.147774,2.294067,-30.139923,5.548019,-173.82089,0.41433033,-0.17707762,-0.451333,-0.1041822,0.033563234,0.114815384
20231225 03:40:03,-0.141213,-0.008152,0.270275,0.042393,0.054537,-0.127532,2.521740,-30.495316,5.171570,-172.86021,0.08275764,-0.046248984,-0.09802214,-0.06124867,0.06974228,0.06751091
20231225 03:40:03,-0.345690,0.106151,-0.025184,0.078614,0.087563,-0.101964,2.187908,-30.146294,5.413406,-173.01096,-0.2738476,0.067860946,0.2716524,-0.025894701,0.107214525,0.023258504
20231225 03:40:03,-0.520414,0.243937,-0.341294,0.104183,0.118458,-0.075330,2.488453,-30.317200,5.829468,-171.52359,-0.6357435,0.21718544,0.6355423,-0.0011092536,0.14197393,-0.013802864
20231225 03:40:03,-0.730312,0.420279,-0.724179,0.115902,0.151484,-0.034847,2.824093,-29.724251,5.660126,-169.90768,-1.0864782,0.42392415,1.0672977,0.022749918,0.17185478,-0.047490858
20231225 03:40:03,-0.861490,0.509187,-1.019162,0.118032,0.179183,0.015224,2.311996,-29.949890,5.535789,-170.63861,-1.4118247,0.55509514,1.3569491,0.04856293,0.18965757,-0.08212575
20231225 03:40:03,-0.893977,0.556962,-1.361137,0.102052,0.194098,0.074884,2.593845,-29.927048,5.403130,-169.48036,-1.7052884,0.68695813,1.5869988,0.07471433,0.18669751,-0.104148
20231225 03:40:03,-0.809775,0.596099,-1.722691,0.066896,0.215405,0.132413,2.339272,-29.856712,5.797920,-169.78256,-1.952707,0.8300632,1.7035668,0.09427932,0.18810502,-0.107887596
20231225 03:40:03,-0.596556,0.649393,-1.963865,0.016824,0.245235,0.180353,2.621124,-29.833878,5.665260,-169.27774,-2.0442617,0.9446126,1.6399822,0.10512969,0.2038513,-0.087441914
20231225 03:40:03,-0.203089,0.624621,-2.114632,-0.044966,0.277195,0.206987,2.348621,-29.953583,6.072281,-170.9726,-1.9391328,0.9011479,1.3759296,0.10516655,0.23882048,-0.051307462
20231225 03:40:03,0.118371,0.718948,-1.975138,-0.114214,0.277195,0.203791,2.066006,-29.592644,5.643990,-173.04822,-1.6172175,0.87054724,1.0488938,0.08330083,0.2549153,9.587407E-5
20231225 03:40:03,0.488997,0.684262,-1.745322,-0.194115,0.238843,0.178223,1.818214,-30.177368,5.679695,-174.7342,-1.1563466,0.74987555,0.64898896,0.02451457,0.22865807,0.06751367
20231225 03:40:03,0.728579,0.727150,-1.500363,-0.262297,0.191967,0.145197,1.784538,-29.807373,6.057121,-175.46945,-0.76873577,0.7302564,0.34391493,-0.04061307,0.19144894,0.13287997
20231225 03:40:03,0.866398,0.856060,-1.160363,-0.317695,0.148288,0.115367,2.038727,-29.685806,5.381859,-175.04727,-0.37445885,0.83141,0.06902808,-0.10154036,0.15310913,0.18847004
20231225 03:40:03,0.957446,0.926266,-0.915827,-0.356048,0.119524,0.094060,1.844337,-29.508537,5.100418,-175.65756,-0.09333032,0.89155066,-0.12862635,-0.14772606,0.12724878,0.22408912
20231225 03:40:03,1.000061,0.958455,-0.672127,-0.388008,0.109936,0.083407,1.835373,-29.603554,5.106529,-175.95273,0.16616112,0.9132071,-0.2817031,-0.18522945,0.12195687,0.24620478
20231225 03:40:03,1.045485,0.899580,-0.316180,-0.401858,0.118458,0.065296,1.862652,-29.510384,5.368660,-176.03513,0.49487078,0.8627919,-0.5198601,-0.2185625,0.13064928,0.2591321
20231225 03:40:03,1.011936,0.984875,0.115308,-0.374159,0.145092,0.031205,1.862267,-29.318497,5.088188,-175.77098,0.7956499,0.9739352,-0.760122,-0.23443472,0.14999218,0.25609207
20231225 03:40:03,0.774732,1.160916,0.519830,-0.307042,0.175987,0.003506,1.728447,-29.226158,4.410973,-175.50005,0.88940775,1.1654315,-0.8520665,-0.216276,0.16957028,0.22631286
20231225 03:40:03,0.384395,1.445878,0.823840,-0.196245,0.205817,-0.006082,2.098526,-29.386978,4.425148,-174.04,0.7689384,1.4139867,-0.74286056,-0.15394159,0.1939508,0.15941557
20231225 03:40:03,-0.057894,1.707456,0.922367,-0.068404,0.213274,0.006702,1.807327,-29.312950,4.283455,-174.12233,0.4514373,1.5938756,-0.47040445,-0.06362084,0.20408864,0.059989385
20231225 03:40:03,-0.399484,1.949578,0.823689,0.050915,0.216470,0.040793,1.428669,-29.439034,4.555855,-174.60098,0.09247631,1.7760226,-0.13200587,0.037302196,0.21411425,-0.051307965
20231225 03:40:04,-0.505843,2.158741,0.496320,0.148927,0.222862,0.079145,1.525478,-29.335793,4.416107,-174.05632,-0.2448113,1.998871,0.21425915,0.12496025,0.22553065,-0.14988966
20231225 03:40:04,-0.405615,2.314969,0.056683,0.214979,0.251627,0.112171,1.528435,-28.969482,5.330025,-173.57802,-0.5215566,2.229111,0.44510776,0.18388663,0.25508857,-0.22125909
20231225 03:40:04,-0.322024,2.564960,-0.447357,0.219240,0.300633,0.130282,1.580036,-29.149452,4.940376,-173.03085,-0.9418452,2.5540216,0.69392824,0.18324386,0.29850677,-0.23318642
20231225 03:40:04,-0.417625,2.860809,-0.816670,0.134012,0.366684,0.156916,1.561337,-28.955711,4.391655,-172.66129,-1.4111751,2.8914375,0.99376595,0.13558334,0.34564376,-0.17172372
20231225 03:40:04,-0.368162,3.043616,-0.754474,-0.027920,0.375207,0.204856,1.273483,-28.707268,5.444344,-173.72446,-1.2794449,3.0680966,0.9153896,0.093777716,0.33506903,-0.068824165
20231225 03:40:04,-0.152462,2.651868,-0.378812,-0.203703,0.350704,0.245340,1.237236,-28.895454,5.188324,-175.05365,-0.6486365,2.6575043,0.48890987,0.035943985,0.30919734,0.03196633
20231225 03:40:04,0.295253,2.198741,0.240077,-0.345394,0.320875,0.248536,1.264515,-28.802284,5.450462,-176.17155,0.2892831,2.1965806,-0.2824871,-0.055828422,0.29875487,0.10827552
20231225 03:40:04,0.735257,1.744150,1.008393,-0.448733,0.254823,0.194203,1.069744,-28.433121,4.888535,-177.22318,1.2093644,1.7408857,-1.1740468,-0.18916342,0.24698849,0.18282546
20231225 03:40:04,0.793245,1.183787,1.674195,-0.532896,0.167464,0.111106,1.156052,-27.657341,3.633018,-177.0784,1.6642579,1.177199,-1.7491263,-0.34303895,0.16049562,0.25883043
20231225 03:40:04,0.838594,0.451887,2.346933,-0.566987,0.084367,0.023747,1.341091,-27.737747,3.640106,-176.85884,2.017189,0.44717437,-2.3863983,-0.45447654,0.08081076,0.30498415
20231225 03:40:04,0.949557,-0.288240,3.021663,-0.503066,0.063060,-0.067873,1.155666,-27.465446,3.352547,-177.39397,2.2990716,-0.29031745,-3.110951,-0.4727255,0.061737157,0.3062935
20231225 03:40:04,0.742369,-1.134898,3.633838,-0.334741,0.059864,-0.153100,1.391926,-27.533920,2.689514,-176.73866,2.1990852,-1.1647321,-3.6678088,-0.36896142,0.050954152,0.28103012
20231225 03:40:04,0.430854,-1.798347,4.127823,-0.103560,0.041753,-0.207433,1.324581,-26.793930,3.444366,-176.6545,1.9568055,-1.8621483,-4.0876837,-0.17342104,0.040483177,0.23292494
20231225 03:40:04,0.133145,-2.188169,4.201333,0.163842,-0.004057,-0.235132,1.376186,-26.973892,3.054710,-176.41309,1.6790053,-2.3023396,-4.095535,0.07022593,0.01727402,0.16103515
20231225 03:40:04,-0.108683,-2.335986,3.672753,0.422722,-0.061585,-0.235132,1.464413,-27.157547,3.201546,-176.04523,1.3714058,-2.4889886,-3.5033712,0.30644247,-0.0067414492,0.054419994
20231225 03:40:04,-0.224945,-2.343437,2.575532,0.610223,-0.094611,-0.223413,1.510387,-27.258110,4.012398,-175.58742,0.98216903,-2.492831,-2.4084435,0.46905598,-0.0067927474,-0.056516945
20231225 03:40:04,-0.240550,-2.386652,1.467973,0.703974,-0.092481,-0.211695,1.520504,-27.738762,4.847694,-175.23935,0.6182694,-2.4925146,-1.3638656,0.5349652,0.016204312,-0.14354543
20231225 03:40:04,-0.249310,-2.318010,0.619608,0.731673,-0.096742,-0.210629,1.856140,-27.145805,4.678360,-174.07767,0.30647823,-2.3752677,-0.606671,0.5305431,0.03344609,-0.20381325
20231225 03:40:04,-0.315903,-2.120697,-0.139767,0.685863,-0.119114,-0.208499,2.078194,-27.421806,5.502411,-172.84206,-0.08375344,-2.1115124,0.0797525,0.4566298,0.024215277,-0.23897591
20231225 03:40:04,-0.441697,-1.804278,-0.796347,0.567609,-0.148944,-0.195714,2.292313,-26.467079,5.844131,-171.27628,-0.55621934,-1.7111328,0.6771807,0.33947158,-0.009234238,-0.2297537
20231225 03:40:04,-0.479334,-1.488620,-1.259666,0.486643,-0.163859,-0.186126,2.141331,-26.948555,5.740097,-171.12254,-0.90973973,-1.297362,1.0670599,0.2607494,-0.029616483,-0.21865754
20231225 03:40:04,-0.519249,-1.232568,-1.516806,0.186215,-0.168120,-0.150970,2.801842,-26.799629,5.335030,-169.28104,-1.1530333,-0.9883841,1.2604902,0.062896095,-0.09499247,-0.048238613
20231225 03:40:04,-0.598305,-1.046031,-1.410007,-0.034313,-0.137225,-0.117944,2.538303,-26.824310,5.735931,-169.95459,-1.1691014,-0.85568595,1.2852196,-0.0769252,-0.11622444,0.090364516
20231225 03:40:04,-0.739537,-0.986114,-0.875754,-0.135521,-0.120180,-0.098768,2.822342,-26.051407,5.956245,-169.31917,-0.9340441,-0.9469464,0.99559915,-0.1434077,-0.12627898,0.14483091
20231225 03:40:04,-0.886054,-1.052794,-0.115698,-0.351786,-0.063716,-0.010344,2.670971,-26.340988,5.571732,-170.4845,-0.6172932,-1.1831162,0.4788385,-0.278965,-0.13289775,0.20897384
20231225 03:40:04,-1.000502,-1.198627,0.784102,-0.384812,-0.042409,0.025878,2.592480,-26.446091,5.979721,-170.77718,-0.22420397,-1.478877,-0.22955772,-0.29692677,-0.124397196,0.1912876
20231225 03:40:04,-1.033307,-1.364858,1.520680,-0.356048,0.010858,0.147328,2.546501,-26.345512,5.168877,-171.75832,0.0015704036,-1.6974243,-0.9527272,-0.23712045,-0.073860615,0.053841665
20231225 03:40:04,-0.940688,-1.339252,2.101530,-0.256970,0.012989,0.222967,2.387970,-25.788162,4.862976,-172.30632,0.32860357,-1.6845715,-1.5046171,-0.11725198,-0.054298144,-0.06411998
20231225 03:40:04,-0.812579,-1.274453,2.181639,-0.124867,0.014054,0.294346,2.027241,-25.724213,5.123154,-173.1909,0.4912994,-1.5837431,-1.5964382,0.035916492,-0.0332828,-0.18867049
20231225 03:40:04,-0.591275,-1.239184,1.931098,0.006171,0.017250,0.358267,2.158108,-26.182854,4.886452,-173.27155,0.5982333,-1.4645082,-1.4476299,0.18908663,-0.011995774,-0.30459523
20231225 03:40:04,-0.242732,-1.161162,1.477084,0.121228,0.036427,0.397684,1.930435,-25.827469,5.262901,-173.97238,0.6876311,-1.27772,-1.1910435,0.31682232,0.021513976,-0.39334315
20231225 03:40:04,0.126203,-1.062701,0.929069,0.213914,0.075844,0.400880,1.885609,-26.302567,5.293465,-174.4972,0.69969386,-1.0973221,-0.9054368,0.40365088,0.07014071,-0.44274884
20231225 03:40:04,0.258779,-1.035092,0.667570,0.277834,0.122720,0.373181,1.596596,-25.478447,5.504738,-175.16534,0.65720326,-1.0469497,-0.7533371,0.44227153,0.121785566,-0.45593768
20231225 03:40:04,0.481621,-1.084946,0.006561,0.303403,0.152550,0.319914,1.448185,-25.401741,6.034134,-175.47723,0.42243275,-1.0578202,-0.3769752,0.43057162,0.15430126,-0.4297362
20231225 03:40:04,0.418255,-0.989654,-0.327503,0.307664,0.161072,0.264516,1.084885,-25.895973,5.660873,-176.32927,0.149614,-0.94877845,-0.07409635,0.39768863,0.16497236,-0.39308798
20231225 03:40:04,0.370863,-0.951360,-0.505273,0.295945,0.148288,0.211249,1.236252,-25.606392,6.045387,-175.61142,-0.0052624643,-0.89361936,0.071989,0.35198313,0.15462352,-0.34614396
20231225 03:40:04,0.251691,-0.880531,-0.695659,0.271442,0.123785,0.169700,0.875137,-25.350555,6.025093,-176.09406,-0.22673556,-0.802448,0.28667027,0.30363053,0.13184106,-0.30354357
20231225 03:40:04,0.147816,-0.790864,-0.820639,0.236286,0.097151,0.144132,1.272114,-25.226311,6.020927,-174.83012,-0.39231935,-0.7012031,0.4331689,0.26090148,0.10499096,-0.26119643
20231225 03:40:04,0.112994,-0.803539,-0.881305,0.190476,0.065191,0.124955,0.832115,-24.883682,6.128159,-175.91908,-0.465202,-0.7134521,0.50651884,0.21725458,0.070514694,-0.21913466
20231225 03:40:04,0.206660,-0.724330,-0.863883,0.142535,0.036427,0.102583,1.220509,-25.046341,6.410583,-175.06125,-0.4022281,-0.6371727,0.42107764,0.17018305,0.039376676,-0.1707193
20231225 03:40:04,0.232723,-0.715809,-0.845295,0.093529,0.007662,0.072753,0.920349,-25.067337,6.275002,-175.85454,-0.37368193,-0.62832874,0.39564347,0.11669399,0.009232018,-0.11703971
20231225 03:40:04,0.206198,-0.677189,-0.868702,0.039196,-0.006187,0.049316,0.902802,-25.449272,6.567696,-175.88391,-0.4112534,-0.5891167,0.43306977,0.06285161,-0.0069345618,-0.06281733
20231225 03:40:04,0.187277,-0.677934,-0.818449,-0.015136,-0.004057,0.028009,0.444111,-24.912903,6.126205,-177.2055,-0.38130894,-0.6009817,0.43452692,0.008740005,-0.0071962294,-0.009767378
20231225 03:40:04,0.238344,-0.717296,-0.501503,-0.054554,-0.001926,-0.001821,0.841850,-25.172440,6.682991,-176.30756,-0.11552459,-0.6642581,0.17310095,-0.041261606,-0.0056738164,0.038169112
20231225 03:40:04,0.204814,-0.763793,-0.186441,-0.071600,-0.013645,-0.041239,0.805222,-25.168739,6.146500,-176.48427,0.082014926,-0.73267084,-0.029716223,-0.08004378,-0.016231963,0.07745639
20231225 03:40:04,0.158660,-0.780244,0.081360,-0.071600,-0.046671,-0.082788,0.813805,-24.881836,5.859917,-176.45422,0.22485662,-0.76912445,-0.20124398,-0.104750276,-0.046567462,0.10711783
20231225 03:40:04,0.112741,-0.786949,0.233634,-0.059881,-0.091415,-0.120075,0.683323,-24.615074,6.377090,-176.63925,0.28807384,-0.78923124,-0.2867496,-0.11635584,-0.08768355,0.12629147
20231225 03:40:04,0.073492,-0.737041,0.249956,-0.033247,-0.122310,-0.149904,0.989880,-25.057259,5.873123,-175.92244,0.2685461,-0.7441126,-0.278016,-0.11282898,-0.113749295,0.12907942
20231225 03:40:04,0.091879,-0.696164,0.155588,-0.002352,-0.135094,-0.172277,1.007809,-24.867226,5.860893,-175.78757,0.22170022,-0.69530594,-0.2163196,-0.10346631,-0.12175436,0.12426562
20231225 03:40:04,0.036910,-0.729128,0.015741,0.027478,-0.135094,-0.191453,1.317322,-24.943100,6.270844,-174.72742,0.09889388,-0.7209919,-0.086605966,-0.09262325,-0.11540109,0.11645052
20231225 03:40:04,0.011917,-0.701718,-0.119418,0.050915,-0.132964,-0.194649,0.928928,-24.780434,5.988411,-175.69969,-0.010658823,-0.6848146,0.041651145,-0.07933609,-0.11060899,0.10347003
20231225 03:40:04,0.051547,-0.730821,-0.262360,0.062634,-0.147879,-0.195714,1.352795,-24.371140,5.965912,-174.71924,-0.07938519,-0.70127493,0.10990746,-0.07186538,-0.12641671,0.09304252
20231225 03:40:04,0.161607,-0.817682,-0.404671,0.056242,-0.187297,-0.210629,1.713909,-24.626976,5.986206,-173.94102,-0.09408669,-0.77131087,0.12375897,-0.08663714,-0.16669507,0.101793185
20231225 03:40:04,0.202810,-0.833961,-0.569298,0.031739,-0.230976,-0.236198,1.265335,-24.571243,6.380020,-175.01047,-0.18050486,-0.77242136,0.2205787,-0.121349335,-0.21011527,0.13475701
20231225 03:40:04,0.216417,-0.759686,-0.738069,0.004040,-0.277851,-0.274550,1.449608,-24.267891,5.826172,-174.44753,-0.30659378,-0.6838137,0.3166923,-0.16866724,-0.25542063,0.17200129
20231225 03:40:04,0.200911,-0.554186,-0.944621,-0.026855,-0.303419,-0.320360,1.892170,-24.052322,6.352379,-172.7907,-0.49710643,-0.45062774,0.4477348,-0.22350192,-0.27529547,0.21114504
20231225 03:40:04,0.055972,-0.284458,-1.069191,-0.054554,-0.294897,-0.366170,2.015491,-23.472130,5.913818,-171.54843,-0.7156491,-0.14734527,0.6352373,-0.2706781,-0.25325507,0.25317302
20231225 03:40:04,-0.223301,0.168416,-1.022898,-0.067338,-0.268263,-0.399196,2.103336,-23.463905,5.780190,-170.23842,-0.93059677,0.30117524,0.84495604,-0.29529756,-0.20569348,0.27782473
20231225 03:40:04,-0.455622,0.440280,-0.929443,-0.064142,-0.254413,-0.406653,2.307072,-23.738045,6.335991,-168.8854,-1.0661908,0.5315245,0.9913621,-0.29246917,-0.17765561,0.27484843
20231225 03:40:04,-1.162819,1.111676,-0.734364,-0.046031,-0.239499,-0.390673,2.316036,-23.643028,6.329880,-167.71791,-1.5483302,0.99832314,1.5040399,-0.25648296,-0.14268151,0.2475066
20231225 03:40:04,-1.558748,1.389069,-0.660125,-0.014071,-0.228845,-0.290530,2.439743,-23.254723,6.171799,-166.17935,-1.8717394,1.0991235,1.8191321,-0.14904864,-0.13161941,0.15715307
20231225 03:40:04,-1.629598,1.288533,-0.623265,-0.015136,-0.256544,-0.183996,2.791893,-23.605583,6.198204,-165.9331,-1.8490171,0.99857265,1.8327976,-0.072300896,-0.19505566,0.08743702
20231225 03:40:04,-1.474831,1.128047,-0.595497,-0.025790,-0.284243,-0.133924,2.270061,-23.542458,5.519035,-169.37729,-1.6271607,0.9526814,1.62832,-0.059486076,-0.25361887,0.07201978
20231225 03:40:04,-0.434472,0.513391,-0.556772,-0.083319,-0.393974,-0.060415,2.596352,-22.852646,5.075340,-170.1082,-0.7536296,0.52476716,0.7505362,-0.05910084,-0.39164692,0.05588947
20231225 03:40:04,0.273533,0.129585,-0.673039,-0.122736,-0.448307,-0.092376,2.977196,-21.976471,5.155907,-170.01482,-0.31041256,0.16975494,0.26737112,-0.13163325,-0.44847348,0.098791346
20231225 03:40:04,0.499717,-0.016537,-0.738164,-0.145109,-0.457895,-0.127532,3.012672,-21.404503,4.850983,-170.13298,-0.19200906,0.010438698,0.1350053,-0.18213177,-0.45789793,0.1378225
20231225 03:40:04,0.686469,-0.161891,-0.748435,-0.183461,-0.444045,-0.217021,3.003708,-21.499519,4.857094,-170.11348,-0.048274845,-0.1178112,0.006606996,-0.26953638,-0.442482,0.22730213
20231225 03:40:04,0.553224,-0.095880,-0.540673,-0.196245,-0.391843,-0.306511,2.569458,-23.137703,5.093681,-171.33072,0.024740279,-0.022977654,-0.01569581,-0.32804784,-0.38315517,0.31159103
20231225 03:40:04,0.179129,0.056999,-0.173000,-0.171742,-0.324726,-0.381085,3.328960,-22.135445,4.901840,-167.95282,0.005650334,0.095318645,0.0075259805,-0.34887266,-0.29900178,0.3392214
20231225 03:40:04,-0.330536,0.346400,0.237243,-0.090776,-0.271459,-0.426895,3.399643,-22.701027,5.341377,-167.25452,-0.13529195,0.25245193,0.110739976,-0.31063554,-0.21766374,0.3233079
20231225 03:40:04,-1.061353,0.677881,0.715658,-0.038574,-0.317269,-0.405588,3.442280,-22.976006,4.957840,-166.81538,-0.43020165,0.33467185,0.31811434,-0.23927435,-0.24455667,0.26372153
20231225 03:40:04,-1.222738,0.787788,0.793438,-0.015136,-0.358818,-0.385346,3.753983,-22.301819,5.720757,-165.05258,-0.51248074,0.37161896,0.42771846,-0.19897437,-0.2772308,0.21409819
20231225 03:40:04,-1.338899,0.927899,0.697061,0.034935,-0.447241,-0.342732,3.999203,-22.275284,5.051613,-164.03563,-0.6518638,0.49037117,0.6576866,-0.12050529,-0.35488418,0.12071558
20231225 03:40:04,-1.290758,1.001486,0.235631,0.086072,-0.463222,-0.307576,4.441769,-22.059715,5.577827,-162.28511,-0.934022,0.6625251,0.986245,-0.059468493,-0.3656261,0.043300822
20231225 03:40:04,-1.211145,1.109207,-0.146967,0.162777,-0.369471,-0.297988,4.220104,-21.975609,5.034248,-162.23851,-1.1488719,0.85904294,1.2254907,-0.025377274,-0.2563812,-0.009325892
20231225 03:40:04,-1.335228,1.332529,-0.473551,0.191541,-0.319400,-0.304380,4.017513,-22.277130,5.319855,-162.2728,-1.5436274,1.0883852,1.5706179,-0.012603283,-0.1842205,-0.019104898
20231225 03:40:04,-1.478516,1.372151,-0.485759,0.254397,-0.213930,-0.312903,4.334839,-21.682312,4.882271,-160.74002,-1.6716568,1.078894,1.7147055,2.83435E-4,-0.060533874,-0.04578224
20231225 03:40:04,-1.934529,1.476360,-0.294132,0.323644,-0.118049,-0.304380,4.449966,-21.580925,5.010773,-159.98279,-1.907593,0.9607028,1.9656839,0.03790842,0.05908723,-0.078993395
20231225 03:40:04,-2.078250,1.467772,-0.267486,0.401415,-0.057324,-0.271354,4.547928,-22.053337,5.712440,-159.44867,-2.0172446,0.8551158,2.0556622,0.10232963,0.13897306,-0.14114344
20231225 03:40:04,-2.271624,1.403058,-0.243206,0.483447,-0.018972,-0.209564,4.195011,-21.318703,5.125084,-159.90245,-2.141275,0.6781359,2.1586297,0.19170955,0.1915245,-0.22963886
20231225 03:40:04,-2.365923,1.339553,-0.277437,0.598504,0.028969,-0.072134,4.690331,-21.858765,6.103065,-158.23744,-2.1896677,0.6250949,2.2680068,0.34034738,0.21976641,-0.39503035
20231225 03:40:04,-2.208308,1.272655,-0.368020,0.631530,0.039623,-0.025259,4.452919,-21.214615,5.924683,-157.99295,-2.076681,0.6800264,2.224613,0.37094766,0.21385776,-0.4631063
20231225 03:40:04,-2.013145,1.478179,-0.615967,0.667752,0.059864,0.075949,4.577393,-21.210091,6.327538,-156.95732,-2.1773477,1.0135474,2.2905684,0.44660935,0.20453978,-0.5537021
20231225 03:40:04,-1.966100,1.999159,-0.911744,0.619811,0.025773,0.195268,4.649494,-20.641823,6.559105,-154.62198,-2.5146122,1.6340082,2.572699,0.48698932,0.10732523,-0.60407776
20231225 03:40:04,-1.807432,2.348682,-1.245850,0.450421,-0.072239,0.342286,4.455875,-20.848328,6.838608,-154.96759,-2.7528524,2.1704886,2.6610613,0.5287714,-0.08622826,-0.5627253
20231225 03:40:04,-0.675873,2.210918,-1.491036,0.025347,-0.254413,0.528722,4.031242,-20.873840,6.300156,-162.0893,-1.915678,2.3327253,1.6516556,0.49694183,-0.32199183,-0.31826785
20231225 03:40:04,-0.037520,2.099783,-1.396064,-0.120606,-0.283178,0.547899,3.997566,-20.503838,6.677582,-165.34718,-1.2792736,2.1466742,1.0246373,0.41147014,-0.30503577,-0.21497831
20231225 03:40:04,1.147707,1.768164,-0.829638,-0.368832,-0.273590,0.493566,3.369965,-20.638985,6.144272,-171.86604,0.21923065,1.5709887,-0.27685204,0.14122489,-0.18852776,-0.020669162
20231225 03:40:04,1.921440,1.224585,0.070761,-0.545680,-0.207538,0.345482,3.703796,-20.987999,5.902435,-172.24916,1.5339708,0.9813906,-1.322635,-0.15780653,-0.09428415,0.13827533
20231225 03:40:04,2.032629,0.682860,1.343177,-0.653280,-0.148944,0.176092,3.457424,-20.438873,5.730171,-172.29503,2.4729025,0.58173877,-2.2504072,-0.40500844,-0.06532714,0.2663405
20231225 03:40:04,1.606523,0.063915,2.678609,-0.677783,-0.096742,0.056773,3.421181,-20.627052,5.474152,-171.4197,2.8058195,0.07071789,-3.0882893,-0.5407589,-0.059525333,0.31006658
20231225 03:40:04,0.986419,-0.688594,3.805614,-0.607470,-0.056259,0.014159,3.228981,-19.699699,5.545677,-170.8306,2.6300104,-0.68943006,-3.8860698,-0.5325195,-0.056777928,0.2596787
20231225 03:40:04,0.345595,-1.447500,4.723938,-0.456190,-0.043475,0.048250,2.944561,-20.280731,5.044891,-171.33499,2.1628482,-1.505614,-4.642656,-0.40156347,-0.060741957,0.12604602
20231225 03:40:04,0.073978,-2.156925,5.205039,-0.079057,-0.074370,0.156916,3.217445,-20.352913,4.918350,-170.65532,1.8452427,-2.2247348,-5.1927786,-0.020813417,-0.079586424,-0.13069268
20231225 03:40:04,0.279414,-2.823112,5.054528,0.069026,-0.083958,0.183549,2.804344,-19.725220,5.007233,-172.06627,1.7890853,-2.829739,-5.2306223,0.1211002,-0.0838995,-0.20518447
20231225 03:40:04,0.866830,-3.377043,4.367278,0.460009,-0.130833,0.137740,2.698570,-19.923492,5.153099,-173.28764,2.0601563,-3.3483527,-4.777544,0.4780934,-0.15161787,-0.28077662
20231225 03:40:04,1.464588,-3.608531,3.133191,0.610223,-0.153205,0.033335,3.201702,-19.792870,5.283554,-173.25397,2.2883813,-3.6093528,-3.8249183,0.57477343,-0.23021933,-0.2638057
20231225 03:40:04,1.802157,-3.590507,1.703909,0.652837,-0.148944,-0.028455,2.655933,-19.648514,5.536636,-175.16353,2.0909123,-3.7010503,-2.5525832,0.57810915,-0.245858,-0.2453634
20231225 03:40:04,1.828664,-2.989094,-0.123890,0.664556,-0.120180,-0.147774,2.683208,-19.555344,5.798767,-175.51028,1.2527992,-3.2406704,-1.0057048,0.49320596,-0.23737973,-0.2110285
20231225 03:40:04,1.757800,-2.743664,-0.460787,0.569740,-0.118049,-0.245786,2.773243,-18.797028,6.018105,-174.66489,0.88395405,-2.9799454,-0.8780007,0.30376104,-0.21392395,-0.14950034
20231225 03:40:05,1.443101,-1.961830,-1.262138,0.396088,-0.123376,-0.305445,3.159836,-19.901672,6.228027,-172.95064,-0.03825158,-2.1947136,-0.29898745,0.056293964,-0.18707652,-0.07477105
20231225 03:40:05,1.111186,-1.354734,-1.740156,0.160646,-0.110591,-0.321426,3.373569,-18.755051,6.289284,-170.2826,-0.68306714,-1.4952343,0.109196365,-0.14742729,-0.13486728,0.069459096
20231225 03:40:05,0.722332,-0.804019,-1.805920,-0.088645,-0.073304,-0.309707,3.513016,-18.926788,5.765991,-166.64284,-0.8663051,-0.6749806,0.46372432,-0.28925595,-0.06078753,0.25138792
20231225 03:40:05,0.211606,-0.503465,-1.372050,-0.293192,-0.026429,-0.272419,3.689091,-19.102219,5.779198,-165.6501,-0.8340771,-0.3768553,0.6470226,-0.3953273,-0.025543556,0.39010566
20231225 03:40:05,-0.259299,-0.334537,-0.564627,-0.408250,0.027904,-0.210629,3.124626,-18.764114,5.483574,-166.9385,-0.5395591,-0.2991244,0.5208911,-0.4407767,0.0054394454,0.43623024
20231225 03:40:05,-0.584252,-0.277352,0.292346,-0.416772,0.069452,-0.134990,3.512634,-18.734901,5.485527,-165.72992,-0.22258899,-0.38211024,0.11589633,-0.41010192,0.02936703,0.3844385
20231225 03:40:05,-0.772535,-0.343567,0.909472,-0.342198,0.101413,-0.052958,3.273808,-19.224602,5.515114,-166.91002,-0.0051196218,-0.54450095,-0.2688366,-0.31079412,0.05864011,0.2721752
20231225 03:40:05,-0.777529,-0.356493,1.254242,-0.217552,0.121654,0.031205,3.503670,-18.829926,5.491638,-166.24101,0.1875608,-0.5797314,-0.5457748,-0.16457728,0.08864318,0.13313952
20231225 03:40:05,-0.612548,-0.374136,1.255884,-0.085449,0.135504,0.106844,3.167259,-19.039101,5.100029,-167.89308,0.32555807,-0.5381708,-0.64189035,-0.012220569,0.116603725,-0.006392561
20231225 03:40:05,-0.198579,-0.422701,0.924653,0.024282,0.151484,0.164373,2.893993,-18.775024,4.946098,-169.305,0.46049732,-0.48235145,-0.6303028,0.11568688,0.14386609,-0.11795869
20231225 03:40:05,0.252703,-0.461682,0.519931,0.086072,0.167464,0.192072,3.257294,-18.280785,5.319366,-169.11978,0.53812027,-0.462621,-0.6126877,0.19206524,0.16708004,-0.17415695
20231225 03:40:05,0.618706,-0.458888,0.136644,0.104183,0.180249,0.198464,2.894379,-18.966911,5.226578,-170.9748,0.54158497,-0.46626633,-0.5710341,0.21348847,0.18139626,-0.19399497
20231225 03:40:05,1.119349,-0.612694,-0.143456,0.088202,0.175987,0.181419,3.036396,-18.580460,5.336731,-171.52196,0.68905544,-0.6850667,-0.723987,0.19739099,0.18017697,-0.17248936
20231225 03:40:05,1.206797,-0.624714,-0.214206,0.060503,0.185575,0.118563,3.037163,-18.964233,5.897675,-172.0901,0.68966615,-0.7135182,-0.73959184,0.13660589,0.18820764,-0.10829902
20231225 03:40:05,1.257575,-0.547226,-0.277352,0.054111,0.188771,0.095126,2.606133,-18.526581,5.998787,-173.1939,0.69067836,-0.63472134,-0.71364677,0.11506723,0.1902812,-0.08952867
20231225 03:40:05,1.096845,-0.521359,-0.307699,0.046654,0.195163,0.055708,2.833427,-18.690086,5.341866,-171.40367,0.56268656,-0.56272686,-0.59692687,0.07783958,0.19520104,-0.051010482
20231225 03:40:05,0.808108,-0.454356,-0.249674,0.057307,0.211144,0.040793,2.860706,-18.596924,5.603996,-170.6219,0.40801406,-0.45528907,-0.4369076,0.0697493,0.2111275,-0.043984495
20231225 03:40:05,0.528744,-0.350261,-0.178741,0.080745,0.206882,0.043989,2.524300,-18.806091,5.212395,-170.94675,0.2604007,-0.33216617,-0.2842598,0.083227955,0.20770182,-0.06438706
20231225 03:40:05,0.373509,-0.317558,-0.292774,0.105248,0.196229,0.057838,2.676437,-18.900291,6.157852,-170.25165,0.06600398,-0.29111466,-0.10164292,0.107260026,0.1977266,-0.09170708
20231225 03:40:05,0.307629,-0.245813,-0.531822,0.111640,0.186641,0.073819,2.421097,-18.446175,5.991699,-170.66522,-0.16690987,-0.20988713,0.106592536,0.121996544,0.18763787,-0.110609695
20231225 03:40:05,0.347860,-0.231853,-0.753441,0.095660,0.180249,0.080211,2.454769,-18.816170,5.614273,-170.82639,-0.31446522,-0.1963023,0.21890336,0.11771049,0.18029803,-0.10468835
20231225 03:40:05,0.487536,-0.249829,-0.854193,0.042393,0.162138,0.062100,2.357956,-18.919426,5.754021,-171.48615,-0.3047394,-0.22176537,0.17636925,0.07100545,0.16154777,-0.056537796
20231225 03:40:05,0.538381,-0.243703,-0.883112,0.026412,0.155746,0.049316,2.438641,-18.064247,5.698997,-170.73615,-0.29372802,-0.2066612,0.15219656,0.0501473,0.15494625,-0.03542009
20231225 03:40:05,0.432377,-0.204085,-0.895205,-0.001287,0.154680,0.025878,2.393818,-18.539345,5.729568,-170.6422,-0.37608123,-0.15017818,0.2377178,0.012038165,0.15330364,7.1229413E-4
20231225 03:40:05,0.313924,-0.133716,-0.904443,-0.031116,0.163203,0.008832,2.146023,-19.124077,5.765274,-171.13448,-0.45867783,-0.058327954,0.3431601,-0.024362454,0.1603145,0.034190647
20231225 03:40:05,0.168680,-0.114058,-0.827128,-0.055619,0.169595,0.000310,2.508556,-18.246056,5.577591,-169.11546,-0.48831654,-0.033994295,0.40432733,-0.05077096,0.16448991,0.06254706
20231225 03:40:05,-0.034881,-0.052244,-0.682136,-0.067338,0.182379,0.003506,2.181503,-18.552109,5.460350,-169.93912,-0.5156825,0.012669571,0.47442755,-0.061136708,0.17422181,0.068780445
20231225 03:40:05,-0.187631,-0.040258,-0.542802,-0.069469,0.182379,0.019486,1.954208,-18.388603,6.117271,-170.30652,-0.5143779,0.0010255277,0.49904197,-0.054026343,0.17073068,0.058416102
20231225 03:40:05,-0.259995,-0.023659,-0.427664,-0.060946,0.172791,0.039727,2.226707,-18.268898,5.710251,-169.22823,-0.48225933,-0.0021527298,0.47481996,-0.033830356,0.15905859,0.039546117
20231225 03:40:05,-0.277123,-0.050977,-0.431759,-0.050293,0.164268,0.071688,1.987877,-18.758606,5.739838,-170.41042,-0.49474972,-0.031682782,0.48812032,-0.0012957826,0.14917135,0.006721042
20231225 03:40:05,-0.132127,-0.122048,-0.542974,-0.055619,0.154680,0.102583,2.323517,-18.165649,5.570503,-169.4528,-0.47207406,-0.081628025,0.44583926,0.021783195,0.13887043,-0.00891833
20231225 03:40:05,0.115199,-0.211781,-0.652051,-0.072665,0.151484,0.119629,1.969185,-18.564865,5.191132,-171.47902,-0.38121843,-0.15907842,0.3347198,0.027078725,0.13804159,-0.012366429
20231225 03:40:05,0.327326,-0.280764,-0.714564,-0.104626,0.146157,0.119629,1.935509,-18.194870,5.568550,-172.11908,-0.2862131,-0.23521951,0.21688432,0.009565793,0.1363008,0.009409837
20231225 03:40:05,0.445423,-0.241953,-0.760208,-0.141913,0.142961,0.111106,1.899651,-18.574944,5.593002,-172.32343,-0.24444753,-0.1886217,0.1618495,-0.021235049,0.13176279,0.042534254
20231225 03:40:05,0.394192,-0.167244,-0.786741,-0.168546,0.154680,0.098322,1.802074,-18.294411,5.171814,-172.28453,-0.30730438,-0.10573895,0.21687797,-0.048890226,0.14087014,0.07330202
20231225 03:40:05,0.330698,-0.071933,-0.723741,-0.183461,0.175987,0.087668,1.750473,-18.114456,5.561455,-172.22693,-0.30542862,-0.008160893,0.232458,-0.0700168,0.15956917,0.09302753
20231225 03:40:05,0.202722,0.038434,-0.630444,-0.184527,0.190902,0.075949,1.095592,-18.342781,4.766029,-174.24367,-0.33012128,0.10144534,0.27496773,-0.08318196,0.17092477,0.09846774
20231225 03:40:05,0.017082,0.246452,-0.580123,-0.168546,0.204752,0.065296,1.256687,-18.341942,5.705368,-172.75658,-0.4428638,0.30828986,0.39192232,-0.08647662,0.17917201,0.0995704
20231225 03:40:05,-0.252576,0.414402,-0.571400,-0.144043,0.213274,0.074884,1.211098,-18.433258,5.174995,-172.2666,-0.6454319,0.45560247,0.6015794,-0.070232645,0.18129174,0.077607095
20231225 03:40:05,-0.410147,0.456014,-0.635349,-0.138717,0.197294,0.106844,1.229412,-18.435112,5.443237,-171.95767,-0.805339,0.48739892,0.7654555,-0.041531876,0.16026314,0.05259932
20231225 03:40:05,-0.370183,0.458858,-0.718230,-0.140847,0.181314,0.147328,1.386402,-18.224915,4.627251,-171.85587,-0.83770406,0.5043998,0.78749216,-0.0062810853,0.14301121,0.027992934
20231225 03:40:05,-0.154739,0.487750,-0.784387,-0.141913,0.175987,0.183549,1.202133,-18.528282,5.181107,-173.13089,-0.74221414,0.55143803,0.6615287,0.027538441,0.1423558,0.0031441748
20231225 03:40:05,0.139206,0.394597,-0.850541,-0.144043,0.181314,0.198464,1.026058,-18.352852,5.167908,-174.53236,-0.5825976,0.4621563,0.4673988,0.044053756,0.15754558,-0.0072414726
20231225 03:40:05,0.353273,0.339804,-0.911646,-0.136586,0.198359,0.195268,0.998779,-18.446022,4.905769,-175.10567,-0.48474914,0.4027769,0.33493862,0.05022937,0.18151279,-0.0102761835
20231225 03:40:05,0.482606,0.382716,-0.945613,-0.133390,0.215405,0.177157,0.708347,-18.755768,5.325012,-176.4792,-0.429328,0.43713948,0.2514444,0.04114064,0.20333737,-0.0028443262
20231225 03:40:05,0.587724,0.456691,-0.950557,-0.137651,0.221797,0.154785,0.892239,-18.260513,4.490685,-175.89877,-0.36852914,0.50349754,0.17613238,0.02345077,0.21275981,0.017107204
20231225 03:40:05,0.586656,0.583578,-0.857847,-0.144043,0.210078,0.139870,0.601036,-18.186485,4.348991,-176.95222,-0.30202046,0.62976456,0.11865598,0.007631995,0.20083262,0.028198436
20231225 03:40:05,0.607098,0.610178,-0.818384,-0.144043,0.197294,0.129217,0.813740,-18.365616,4.898682,-176.40576,-0.24768862,0.64419144,0.08914617,3.9872527E-4,0.19070381,0.03459558
20231225 03:40:05,0.668087,0.596230,-0.757584,-0.144043,0.185575,0.112171,1.149761,-17.964546,5.009819,-175.24455,-0.15460154,0.6233795,0.014045477,-0.012047447,0.18066101,0.046981275
20231225 03:40:05,0.688672,0.580066,-0.675473,-0.147239,0.172791,0.091930,0.759953,-18.935730,4.935356,-176.8369,-0.069508076,0.60552883,-0.056300968,-0.03071887,0.1682989,0.057163145
20231225 03:40:05,0.697761,0.588312,-0.596318,-0.145109,0.161072,0.069557,0.300877,-18.207474,4.213402,-178.33702,-0.003590703,0.61799866,-0.121275425,-0.047255483,0.15609775,0.066485345
20231225 03:40:05,0.602389,0.658579,-0.550611,-0.135521,0.154680,0.052512,0.618965,-17.996445,4.336761,-176.82417,-0.041608542,0.6987659,-0.06666219,-0.055760212,0.14796637,0.07301411
20231225 03:40:05,0.503258,0.744790,-0.499537,-0.122736,0.156811,0.045054,0.326351,-19.056274,4.403030,-177.80421,-0.08161929,0.78831,-0.03336349,-0.05416314,0.14919867,0.06699872
20231225 03:40:05,0.424164,0.877708,-0.478709,-0.106756,0.167464,0.042924,0.213028,-18.215706,4.347038,-178.0169,-0.13499601,0.9212255,0.008270681,-0.04594742,0.15973479,0.057027
20231225 03:40:05,0.394315,0.958671,-0.425317,-0.075861,0.196229,0.036531,0.389874,-18.774918,4.921181,-177.12935,-0.12438546,1.003733,0.009866357,-0.034353666,0.18909536,0.040072374
20231225 03:40:05,0.278347,1.206881,-0.326625,-0.037509,0.201556,0.028009,0.177170,-18.595787,4.371490,-177.70975,-0.16198158,1.2435529,0.027512118,-0.018101513,0.19602947,0.015925204
20231225 03:40:05,0.194618,1.267821,-0.435896,-0.003417,0.216470,0.017355,0.370789,-18.389282,4.091988,-176.652,-0.33022484,1.3142446,0.17199907,-0.009108007,0.21299155,-3.2295007E-4
20231225 03:40:05,0.017060,1.478625,-0.459064,0.028543,0.247366,0.004571,0.107258,-18.413971,4.492889,-176.93213,-0.5253156,1.5181878,0.31779864,-0.008724697,0.24658543,-0.017134951
20231225 03:40:05,-0.154914,1.673411,-0.664567,0.049850,0.291045,0.010963,0.379753,-18.294266,4.085876,-175.3936,-0.8645276,1.7253362,0.60685515,-0.005005249,0.2898559,-0.032055095
20231225 03:40:05,-0.342333,1.814696,-0.573593,0.066896,0.335789,0.030139,0.177170,-18.595787,4.371490,-175.76765,-0.95426524,1.8265985,0.7004242,0.008392252,0.3318822,-0.056379065
20231225 03:40:05,-0.435874,1.776859,-0.468267,0.080745,0.364554,0.062100,0.574142,-18.471542,4.367332,-174.15419,-0.9291669,1.7572752,0.7414092,0.035832122,0.35621774,-0.07883674
20231225 03:40:05,-0.393601,1.774003,-0.325477,0.100987,0.380534,0.100452,0.319191,-18.209320,4.481644,-175.23375,-0.77660537,1.739813,0.6008904,0.079052046,0.36925542,-0.1217242
20231225 03:40:05,-0.368738,1.811241,-0.243991,0.113771,0.389057,0.136674,0.399223,-18.871780,5.195541,-174.43942,-0.7229659,1.76131,0.54787534,0.10890837,0.37167364,-0.15017314
20231225 03:40:05,-0.487292,2.079480,-0.260258,0.090333,0.352835,0.173961,0.601807,-18.570267,4.909927,-173.47574,-0.8712454,2.0069928,0.6864695,0.12593319,0.32440147,-0.15177563
20231225 03:40:05,-0.423050,2.287130,-0.363385,-0.000221,0.267607,0.212314,0.274750,-18.876312,4.792686,-174.95241,-0.93651235,2.2434616,0.6722199,0.121221684,0.22397813,-0.10950532
20231225 03:40:05,-0.219535,2.174003,-0.587188,-0.161089,0.179183,0.243209,0.319576,-18.401215,4.762123,-175.52039,-0.9024316,2.2018504,0.61755264,0.07628578,0.12640092,-0.0016910732
20231225 03:40:05,0.291680,1.857559,-0.586360,-0.336871,0.151484,0.262385,0.036953,-18.040268,4.333832,-178.88281,-0.3679715,1.8908943,0.14979681,-0.0054607093,0.12786525,0.10796656
20231225 03:40:05,1.128051,1.355067,-0.049683,-0.465778,0.188771,0.219771,0.247856,-19.161369,4.811028,-179.90233,0.7738367,1.3171072,-0.7938636,-0.1481368,0.21034569,0.19354652
20231225 03:40:05,1.572763,0.774268,0.781743,-0.541418,0.227124,0.100452,-0.114025,-18.521751,4.229790,178.71518,1.7246735,0.7327861,-1.643085,-0.32805276,0.25554648,0.28163445
20231225 03:40:05,1.494488,0.325493,1.669051,-0.578705,0.226059,-0.050827,-0.071774,-18.604843,3.565781,179.44975,2.2019348,0.3204219,-2.2344692,-0.4898064,0.23709841,0.38636464
20231225 03:40:05,1.067692,-0.152123,2.607682,-0.552072,0.198359,-0.195714,0.377953,-19.236229,4.013382,-178.39809,2.30203,-0.16894065,-2.776163,-0.5744447,0.18599503,0.4659691
20231225 03:40:05,0.364607,-0.496587,3.389658,-0.423165,0.177053,-0.284138,0.509853,-18.369125,3.288239,-177.2322,2.0207045,-0.6359555,-3.138401,-0.5168273,0.15275604,0.46425626
20231225 03:40:05,-0.431140,-0.670835,3.821586,-0.216487,0.181314,-0.280942,0.598080,-18.552780,3.435074,-176.19574,1.4510716,-1.0429311,-3.197543,-0.33638927,0.16830575,0.35991699
20231225 03:40:05,-1.126249,-0.776735,4.035286,0.021086,0.150419,-0.187192,0.579769,-18.550934,3.166824,-175.991,0.9005696,-1.3760872,-3.096787,-0.080809176,0.16957352,0.16515335
20231225 03:40:05,-1.318457,-0.950857,3.661584,0.240547,0.095021,-0.040174,0.589500,-18.839691,3.721657,-175.54887,0.60269904,-1.582493,-2.675805,0.18421191,0.14533196,-0.07053911
20231225 03:40:05,-0.938043,-1.296672,2.819421,0.404611,0.071583,0.106844,0.670956,-18.368294,4.227577,-175.4781,0.595577,-1.6688544,-2.1234748,0.40003705,0.12621507,-0.2801478
20231225 03:40:05,-0.105344,-1.926151,1.895888,0.495165,0.067322,0.185680,0.528168,-18.370979,3.556480,-177.17076,0.87857246,-2.0148335,-1.7090873,0.5209504,0.10228942,-0.39236066
20231225 03:40:05,0.692282,-2.464158,1.175764,0.516472,0.053472,0.178223,0.722939,-18.740143,4.118393,-177.34267,1.1988904,-2.4607685,-1.462879,0.5390415,0.06570162,-0.39650637
20231225 03:40:05,1.127295,-2.725777,0.560543,0.477055,0.020446,0.110040,0.855610,-18.256813,3.954201,-177.37492,1.2442358,-2.7323885,-1.1517124,0.46935976,0.016994597,-0.3301034
20231225 03:40:05,1.283759,-2.613621,-0.004706,0.375847,-0.041344,0.015224,0.476952,-18.382904,4.226601,-178.56195,1.0636072,-2.6217194,-0.74981827,0.32341185,-0.043667167,-0.2182086
20231225 03:40:05,1.150273,-2.308214,-0.536551,0.219240,-0.109526,-0.080657,0.978279,-19.194260,4.284554,-176.51396,0.6221842,-2.2762537,-0.3859176,0.12666279,-0.10387057,-0.07472849
20231225 03:40:05,0.849529,-1.830521,-0.852126,0.032804,-0.142552,-0.162689,0.873924,-18.258667,4.222443,-175.63441,0.19801682,-1.7118675,-0.018560886,-0.07255517,-0.12982102,0.093017556
20231225 03:40:05,0.285389,-1.320671,-0.840758,-0.161089,-0.142552,-0.212760,1.322880,-18.506271,4.109100,-172.75494,-0.1769808,-1.1523933,0.30340126,-0.24180841,-0.13567905,0.25125366
20231225 03:40:05,-0.309925,-0.996816,-0.526810,-0.327283,-0.098873,-0.218087,1.146423,-18.138954,3.815430,-172.5787,-0.3987083,-0.9368101,0.500778,-0.36973643,-0.12419328,0.3661492
20231225 03:40:05,-0.953178,-0.736777,0.273411,-0.445537,-0.056259,-0.192518,1.040649,-18.337227,3.961288,-172.66757,-0.4730665,-0.97503906,0.2832325,-0.45655555,-0.12377291,0.4152068
20231225 03:40:05,-1.436378,-0.704744,1.113170,-0.492412,-0.000861,-0.144578,1.516502,-18.299774,3.829605,-171.08466,-0.47888565,-1.2459848,-0.2027573,-0.48502427,-0.10543828,0.39300084
20231225 03:40:05,-1.944479,-0.628269,1.997542,-0.458321,0.047080,-0.063611,1.488838,-18.201057,3.287010,-171.63458,-0.5848247,-1.4832194,-0.767005,-0.43154484,-0.07429555,0.296375
20231225 03:40:05,-2.262626,-0.731400,2.721724,-0.336871,0.096086,0.050381,1.558754,-18.382866,3.165596,-171.72116,-0.6163515,-1.776661,-1.350935,-0.2869147,-0.014327395,0.13180488
20231225 03:40:05,-2.322101,-0.747797,3.150583,-0.144043,0.115262,0.185680,1.452980,-18.581131,3.311462,-172.1168,-0.50789976,-1.8446662,-1.7297623,-0.06058821,0.04016433,-0.07930233
20231225 03:40:05,-2.174338,-0.876085,3.051980,0.076484,0.128047,0.328437,1.498573,-18.489815,3.841835,-171.69339,-0.38493025,-1.8575025,-1.7175093,0.19863054,0.09457656,-0.30560783
20231225 03:40:05,-1.600500,-1.019125,2.428163,0.272508,0.129112,0.452017,1.169327,-19.545937,3.371620,-173.7986,-0.04569888,-1.652623,-1.3539668,0.4405783,0.12578346,-0.51352453
20231225 03:40:05,-0.729720,-1.214409,1.459612,0.401415,0.123785,0.514873,0.765190,-18.823227,3.454384,-175.5055,0.30432922,-1.4494078,-0.89034706,0.6018963,0.13089861,-0.64147824
20231225 03:40:05,0.130121,-1.381518,0.402840,0.448290,0.111001,0.511677,0.977509,-18.810478,3.723610,-175.54591,0.42751586,-1.3885332,-0.4842746,0.65821636,0.11522306,-0.67044055
20231225 03:40:05,0.748832,-1.482994,-0.429189,0.433375,0.093955,0.458409,0.907597,-18.628662,3.845016,-176.47798,0.32896385,-1.4551564,-0.22228143,0.62450814,0.09511497,-0.6246088
20231225 03:40:05,1.091744,-1.512066,-1.251534,0.381173,0.105674,0.377443,0.722939,-18.740143,4.118393,-177.66737,-0.08624381,-1.533679,0.107988775,0.5372635,0.10545865,-0.5328584
20231225 03:40:05,1.256949,-1.618975,-1.729170,0.286357,0.141896,0.282627,0.590271,-19.223473,4.282600,-178.36546,-0.37381846,-1.6759722,0.29187185,0.40498987,0.14181828,-0.3994094
20231225 03:40:05,1.153019,-1.478465,-1.776946,0.186215,0.154680,0.193138,0.626129,-18.843391,4.258148,-177.43326,-0.45646733,-1.4308138,0.35404795,0.26571792,0.1544116,-0.26316118
20231225 03:40:05,0.768681,-1.287475,-1.639904,0.104183,0.142961,0.135609,0.626129,-18.843391,4.258148,-176.38591,-0.5504227,-1.123062,0.53194547,0.15993136,0.1400499,-0.16274542
20231225 03:40:05,0.370695,-1.105468,-1.374744,0.049850,0.107805,0.106844,0.459404,-18.764832,4.519302,-175.9523,-0.5833562,-0.9000902,0.645563,0.09822343,0.100152895,-0.10502807
20231225 03:40:05,0.091836,-0.913049,-1.181048,0.016824,0.052407,0.105779,0.520355,-19.041664,4.404007,-175.45676,-0.6477913,-0.7358629,0.70896196,0.07932712,0.040156912,-0.08299525
20231225 03:40:06,0.010314,-0.730993,-1.122006,-0.010875,-0.004057,0.118563,0.678497,-19.407127,4.429443,-174.98566,-0.6954051,-0.57571095,0.72363603,0.07702559,-0.02038785,-0.07434944
20231225 03:40:06,0.053204,-0.655123,-1.134963,-0.043901,-0.048801,0.132413,0.792854,-18.921944,3.996994,-174.8126,-0.69971156,-0.5064363,0.6973071,0.07052253,-0.06869252,-0.0617468
20231225 03:40:06,0.175939,-0.615251,-1.126947,-0.090776,-0.085023,0.140936,0.695663,-18.833313,3.856270,-175.56288,-0.627222,-0.48126584,0.61353356,0.047118712,-0.10673298,-0.03549909
20231225 03:40:06,0.348181,-0.658031,-1.067829,-0.150435,-0.114853,0.135609,0.607815,-18.841537,3.989906,-176.47833,-0.4692279,-0.5593644,0.47061658,-0.0014162362,-0.13356867,0.0074302703
20231225 03:40:06,0.521042,-0.789431,-0.874715,-0.212226,-0.135094,0.111106,0.325966,-18.864380,4.122559,-177.79614,-0.18801013,-0.71404105,0.2472398,-0.06925435,-0.1518651,0.063271604
20231225 03:40:06,0.548553,-0.877783,-0.545166,-0.260166,-0.143617,0.065296,0.705391,-19.122070,4.411102,-176.68782,0.08995029,-0.824621,0.007127464,-0.14566746,-0.15911186,0.11703466
20231225 03:40:06,0.523620,-0.909830,-0.083117,-0.281473,-0.157467,0.012028,0.565563,-18.758453,4.653915,-176.98433,0.3965854,-0.87234014,-0.30443978,-0.20263678,-0.17416969,0.16256285
20231225 03:40:06,0.357948,-0.911490,0.364756,-0.275081,-0.179839,-0.043370,0.343128,-18.290573,3.549393,-177.64958,0.558641,-0.9014868,-0.5368102,-0.23358443,-0.19735682,0.19655758
20231225 03:40:06,0.053378,-0.808199,0.738092,-0.246317,-0.224584,-0.089180,0.783119,-18.633186,3.442162,-175.8473,0.5465405,-0.85365164,-0.66669965,-0.23229738,-0.241304,0.20631313
20231225 03:40:06,-0.138469,-0.779035,0.854321,-0.187723,-0.245891,-0.114748,0.854839,-17.873032,3.393257,-175.31085,0.4593715,-0.8603696,-0.6525421,-0.19728187,-0.25520986,0.18754224
20231225 03:40:06,-0.288575,-0.644526,0.946125,-0.093972,-0.239499,-0.132859,1.241310,-17.076271,2.273323,-173.87764,0.39347818,-0.76627964,-0.63344765,-0.13040107,-0.2355183,0.14164278
20231225 03:40:06,-0.489139,-0.589131,0.922726,0.020020,-0.217126,-0.140316,1.292648,-18.965752,2.933060,-173.80267,0.22633225,-0.75416887,-0.48394632,-0.043328427,-0.19473921,0.08019289
20231225 03:40:06,-0.610817,-0.551589,0.735242,0.134012,-0.201146,-0.133924,0.924374,-17.862961,2.991371,-174.54028,0.036171257,-0.72687894,-0.23619485,0.04854369,-0.15961275,0.0064001903
20231225 03:40:06,-0.636104,-0.512666,0.333584,0.232024,-0.190493,-0.121140,1.258976,-18.595741,3.310486,-173.14175,-0.20186421,-0.6497581,0.11413294,0.1260003,-0.13194649,-0.07633759
20231225 03:40:06,-0.642364,-0.477964,-0.204250,0.291684,-0.183035,-0.103029,0.959194,-18.808624,3.455360,-173.8064,-0.530474,-0.54079866,0.54920256,0.17328152,-0.11330135,-0.13869303
20231225 03:40:06,-0.594553,-0.387019,-0.756608,0.301272,-0.192623,-0.085984,1.144234,-18.889030,3.462456,-172.83383,-0.8755722,-0.34543923,0.9158824,0.18277153,-0.122653395,-0.17343278
20231225 03:40:06,-0.522513,-0.327316,-1.264754,0.260789,-0.214996,-0.073199,1.108376,-19.269112,3.486908,-172.66827,-1.2032056,-0.1673802,1.1942918,0.15950698,-0.15172029,-0.16560136
20231225 03:40:06,-0.465287,-0.245167,-1.674821,0.186215,-0.245891,-0.062546,1.083286,-18.612206,3.577751,-172.45995,-1.5116097,-0.004193932,1.3898797,0.11507564,-0.20031077,-0.12547217
20231225 03:40:06,-0.245869,-0.186059,-1.970229,0.082876,-0.274655,-0.072134,1.638401,-18.853432,3.599022,-170.52911,-1.6573211,0.102008164,1.3513329,0.037508152,-0.24759902,-0.050368696
20231225 03:40:06,-0.042150,-0.090687,-2.097990,-0.034313,-0.293831,-0.106225,1.453362,-18.773026,3.591934,-171.48643,-1.6745445,0.20347974,1.2571374,-0.06291222,-0.27778384,0.064144135
20231225 03:40:06,-0.028425,0.163556,-1.989568,-0.136586,-0.289570,-0.154166,1.293411,-19.349518,3.493996,-172.19655,-1.6107838,0.45951253,1.2105417,-0.15899104,-0.27632475,0.17727384
20231225 03:40:06,-0.316884,0.424285,-1.627197,-0.206899,-0.262936,-0.186126,1.250011,-18.690765,3.316597,-171.89389,-1.5171174,0.66074145,1.2821794,-0.22306588,-0.2517698,0.2536177
20231225 03:40:06,-0.651137,0.703221,-1.080775,-0.236729,-0.244825,-0.197845,1.725864,-18.653320,3.184914,-170.02881,-1.3542174,0.7821311,1.2645407,-0.2517448,-0.23746878,0.27910358
20231225 03:40:06,-0.906832,0.880179,-0.572875,-0.234598,-0.240564,-0.183996,2.086208,-18.525375,2.644264,-168.96413,-1.1915691,0.79947436,1.162682,-0.24156228,-0.23753361,0.26418796
20231225 03:40:06,-1.038733,0.962685,-0.156400,-0.205834,-0.241629,-0.147774,2.192749,-18.710892,3.059341,-168.8801,-1.0038831,0.7788829,0.9835324,-0.20200466,-0.24298882,0.21653087
20231225 03:40:06,-0.958301,0.851009,0.249389,-0.158958,-0.267198,-0.105160,2.325039,-18.035667,2.614670,-168.76518,-0.645213,0.64140236,0.6142843,-0.14425299,-0.26944914,0.14772783
20231225 03:40:06,-0.744614,0.695149,0.473127,-0.109952,-0.310877,-0.062546,2.501110,-18.211105,2.627876,-168.7239,-0.30639416,0.5291049,0.27343017,-0.083964154,-0.31246257,0.07596554
20231225 03:40:06,-0.384453,0.507288,0.507957,-0.069469,-0.355622,-0.036978,2.419659,-18.682503,2.121956,-169.84299,0.02095151,0.42553777,-0.0368402,-0.045647755,-0.35603032,0.028280893
20231225 03:40:06,0.078171,0.379334,0.413420,-0.047097,-0.389713,-0.048696,1.989399,-18.628632,2.784012,-171.94415,0.32150394,0.36280352,-0.31305444,-0.049152285,-0.38884827,0.02759735
20231225 03:40:06,0.421879,0.264909,0.358516,-0.037509,-0.405693,-0.104095,2.228226,-18.138924,2.754425,-171.23056,0.54634166,0.26703048,-0.5174008,-0.08842547,-0.4038531,0.055584975
20231225 03:40:06,0.490775,0.339458,0.368916,-0.022594,-0.412085,-0.188257,2.211063,-18.712738,3.327591,-171.39291,0.5970314,0.34417048,-0.5661964,-0.13149661,-0.40558982,0.10551927
20231225 03:40:06,0.215840,0.625881,0.339747,0.002975,-0.402497,-0.267093,2.508274,-19.058052,2.549263,-169.62479,0.345362,0.61329716,-0.30922654,-0.15608428,-0.38035315,0.13235722
20231225 03:40:06,-0.278848,0.955392,0.372834,0.048785,-0.349229,-0.318229,2.544514,-18.869858,2.805283,-168.68546,-0.042289704,0.867221,0.075895995,-0.15033089,-0.30174223,0.13468574
20231225 03:40:06,-0.787134,1.297344,0.433585,0.112705,-0.294897,-0.334210,2.844681,-18.848877,2.940872,-166.81325,-0.45254335,1.0697012,0.47997153,-0.10850251,-0.21511507,0.097647
20231225 03:40:06,-1.349187,1.497336,0.484896,0.196868,-0.227780,-0.318229,3.162006,-18.254059,2.503288,-164.7521,-0.9123776,1.0647573,0.91930085,-0.03549552,-0.11311134,0.029985279
20231225 03:40:06,-1.775337,1.630463,0.602378,0.304468,-0.172382,-0.264962,3.232304,-18.627762,2.662346,-164.41846,-1.2096999,1.0012274,1.1716496,0.073099464,-0.032758202,-0.07210693
20231225 03:40:06,-2.004616,1.620994,0.579392,0.430179,-0.136160,-0.198910,3.656937,-18.602242,3.200790,-162.2472,-1.4060733,0.893967,1.4012717,0.19872779,0.025325328,-0.20647626
20231225 03:40:06,-2.115746,1.601888,0.395971,0.571870,-0.098873,-0.131794,3.595985,-18.325417,3.316093,-161.71002,-1.5941138,0.8663684,1.6370809,0.32521638,0.08380537,-0.35517442
20231225 03:40:06,-2.053945,1.596291,0.043973,0.703974,-0.072239,-0.070003,3.499176,-18.428658,3.455833,-161.45749,-1.7653071,0.96680486,1.8562244,0.43291926,0.12474628,-0.5030269
20231225 03:40:06,-1.856005,1.538820,-0.503676,0.795594,-0.055193,-0.018867,3.429646,-18.438744,3.857712,-160.62561,-1.9631978,1.1491938,2.069775,0.4915974,0.13721943,-0.62778986
20231225 03:40:06,-1.605927,1.705713,-1.089479,0.817966,-0.044540,0.032270,3.844547,-18.124466,3.841324,-156.8342,-2.275838,1.579056,2.2639003,0.4926551,0.12407184,-0.7068735
20231225 03:40:06,-1.448191,2.116224,-1.735540,0.731673,-0.054128,0.099387,3.553349,-18.050438,3.699623,-156.16263,-2.8254635,2.2567706,2.4677608,0.46017846,0.05850245,-0.6915213
20231225 03:40:06,-1.159075,2.409391,-2.110849,0.515407,-0.128702,0.188876,3.447956,-18.440590,4.125954,-156.90372,-3.0191855,2.7216282,2.3533435,0.4328356,-0.09813535,-0.560852
20231225 03:40:06,-0.517087,2.340397,-2.237572,0.210718,-0.228845,0.259189,3.729809,-18.417747,3.993301,-159.04659,-2.5361083,2.5894704,1.7746315,0.35546482,-0.24757886,-0.3335914
20231225 03:40:06,0.478582,2.084799,-1.911252,-0.109952,-0.286374,0.262385,3.474854,-18.155533,4.107613,-165.85156,-1.3071884,1.9691764,0.76543844,0.1573488,-0.2691944,-0.066765875
20231225 03:40:06,1.420373,1.746006,-1.144412,-0.376289,-0.272524,0.171831,3.950706,-18.118080,3.975937,-167.39944,0.16677624,1.421099,-0.2635439,-0.12262219,-0.20724413,0.1698813
20231225 03:40:06,1.862661,1.308711,0.035661,-0.565921,-0.211800,0.014159,3.401981,-18.340027,3.315117,-169.43755,1.4434496,1.101247,-1.2228396,-0.39953244,-0.14817028,0.37800002
20231225 03:40:06,1.614570,0.921111,1.519341,-0.669260,-0.152140,-0.138186,3.914078,-18.114380,3.439445,-167.39214,2.2579424,0.8986355,-2.021717,-0.6073092,-0.11848932,0.51034486
20231225 03:40:06,1.017354,0.381043,2.970211,-0.679914,-0.124441,-0.241524,3.850941,-18.587631,3.201767,-167.46147,2.4948883,0.38457394,-2.9079556,-0.7000079,-0.122534245,0.55081505
20231225 03:40:06,0.278702,-0.409126,4.230463,-0.559529,-0.093546,-0.264962,4.160839,-18.855400,3.892181,-166.60278,2.2161188,-0.50869775,-3.8594806,-0.615856,-0.115194894,0.46859357
20231225 03:40:06,-0.305489,-1.265099,5.128129,-0.310238,-0.061585,-0.207433,4.035213,-18.284264,2.647911,-166.53775,1.7265623,-1.4566901,-4.757345,-0.36380756,-0.079332426,0.29236066
20231225 03:40:06,-0.508041,-2.205552,5.505291,0.028543,-0.023233,-0.116879,4.431034,-17.584366,1.802345,-165.0326,1.358056,-2.392477,-5.4058967,-0.010076538,-0.017556177,0.09189747
20231225 03:40:06,-0.281732,-3.116339,5.231905,0.388631,-0.025364,-0.039108,4.106163,-17.140327,2.038071,-166.06516,1.217682,-3.2056162,-5.5244374,0.36315516,-0.004260141,-0.076613024
20231225 03:40:06,0.378731,-3.873236,4.290466,0.703974,-0.063716,-0.030585,4.599945,-16.912842,1.894157,-164.7728,1.4929701,-3.86457,-5.0726023,0.67040503,-0.07119841,-0.17458479
20231225 03:40:06,1.051733,-4.232732,2.857889,0.919174,-0.123376,-0.093441,4.299133,-18.451469,2.527489,-167.48038,1.736265,-4.235395,-3.8533995,0.8514949,-0.18847929,-0.20131718
20231225 03:40:06,1.435054,-4.364419,1.317794,1.017186,-0.171316,-0.188257,4.892296,-17.562546,2.877274,-165.74594,1.6082418,-4.4410987,-2.7054534,0.8797852,-0.29903984,-0.22480072
20231225 03:40:06,1.701692,-4.159753,0.087936,0.995879,-0.225649,-0.284138,4.327831,-17.224442,2.581642,-167.30753,1.2128348,-4.357033,-1.66579,0.74032164,-0.40460613,-0.25159544
20231225 03:40:06,1.846737,-3.642360,-1.436366,0.849926,-0.252283,-0.365105,5.035084,-17.559868,3.548378,-166.48424,-0.0015361309,-4.1095862,-0.73312294,0.40103245,-0.46589333,-0.30230525
20231225 03:40:06,1.859327,-2.897885,-2.453165,0.572936,-0.277851,-0.426895,5.344593,-17.635735,3.958321,-165.33337,-1.2443769,-3.6442173,-0.37964618,-0.008142889,-0.46159476,-0.22101212
20231225 03:40:06,1.652534,-1.999943,-3.236038,0.190476,-0.276786,-0.466313,5.459717,-17.534340,4.086815,-161.98027,-2.239715,-2.7692919,-0.1508565,-0.34506187,-0.38238636,0.020931095
20231225 03:40:06,1.193443,-1.115432,-3.419593,-0.234598,-0.244825,-0.476966,5.907906,-17.398178,3.412529,-153.77731,-2.4842725,-1.3123174,0.18111455,-0.54240096,-0.26150647,0.3587966
20231225 03:40:06,0.525507,-0.549069,-2.836827,-0.615993,-0.183035,-0.455659,5.802132,-17.596443,3.558395,-152.65031,-2.0118618,-0.21544665,0.8007908,-0.6965555,-0.17613956,0.6910424
20231225 03:40:06,-0.229271,-0.106057,-1.603930,-0.867415,-0.095677,-0.405588,6.286568,-17.272087,3.140129,-151.14601,-1.3289089,0.13407576,1.0450165,-0.84426117,-0.1473661,0.8633956
20231225 03:40:06,-0.973394,0.244973,-0.087032,-0.952643,-0.013645,-0.322491,6.470837,-16.968719,2.586273,-151.5066,-0.8048475,0.06523459,0.8142506,-0.899451,-0.13652425,0.8600763
20231225 03:40:06,-1.599890,0.431062,1.048437,-0.897245,0.059864,-0.202107,6.328819,-17.355179,2.476120,-153.70909,-0.67075825,-0.13553089,0.44399768,-0.82537526,-0.1047617,0.73241204
20231225 03:40:06,-2.031382,0.445589,2.080477,-0.725724,0.081171,-0.052958,6.343796,-17.531433,1.549973,-154.56813,-0.49739778,-0.4362703,-0.114783645,-0.6231344,-0.086030915,0.50487286
20231225 03:40:06,-2.155593,0.548739,2.569490,-0.487085,0.092890,0.110040,6.461487,-16.871857,2.311920,-153.62282,-0.3588333,-0.38559327,-0.3742138,-0.3443985,-0.038737133,0.2433795
20231225 03:40:06,-1.829187,0.516135,2.615623,-0.229271,0.069452,0.257059,6.363911,-16.591316,1.890724,-153.70609,0.007724166,-0.21286124,-0.5788803,-0.041324124,-0.011986207,-0.020342663
20231225 03:40:06,-1.127439,0.431523,2.019115,-0.018332,0.061995,0.367855,7.091377,-16.990501,0.450333,-150.7633,0.3560701,0.07136947,-0.4761377,0.21072966,0.020289078,-0.21227325
20231225 03:40:06,-0.221666,0.268361,1.191112,0.106313,0.073714,0.429645,6.486195,-17.336868,1.940605,-154.63943,0.61693263,0.20571962,-0.56776226,0.36220843,0.060132477,-0.3365167
20231225 03:40:06,0.660277,0.019221,0.508664,0.144666,0.092890,0.438168,6.028271,-17.184280,2.060059,-157.3422,0.8301405,0.012546994,-0.78795636,0.4070344,0.1021131,-0.36842006
20231225 03:40:06,1.384041,-0.288052,0.090178,0.127620,0.119524,0.398750,5.922501,-17.382545,2.205917,-159.49855,1.059062,-0.4167907,-1.0668936,0.3708044,0.14201023,-0.33141565
20231225 03:40:06,1.845457,-0.661780,-0.075407,0.092464,0.135504,0.334829,5.701599,-17.682213,2.223282,-161.55746,1.2637365,-0.92560214,-1.3123682,0.30201334,0.16154046,-0.2682309
20231225 03:40:06,2.108432,-1.002739,-0.101966,0.053046,0.142961,0.246405,6.098572,-17.557968,2.219116,-160.6837,1.4373648,-1.327269,-1.5190667,0.21246897,0.16345358,-0.17687535
20231225 03:40:06,2.054637,-1.241498,-0.066555,0.027478,0.140831,0.149458,5.489281,-17.694977,1.954063,-162.05327,1.4364974,-1.5079442,-1.5263021,0.12806615,0.15102215,-0.09449317
20231225 03:40:06,1.706233,-1.324706,0.098882,0.029608,0.134439,0.068492,5.604023,-17.401688,1.802094,-160.56454,1.3057727,-1.4644507,-1.4753424,0.07502777,0.13575049,-0.033919066
20231225 03:40:06,1.279671,-1.243057,0.156996,0.062634,0.131243,0.016290,5.825687,-17.485802,2.345665,-159.59001,1.054507,-1.289348,-1.2538463,0.063416615,0.12899029,-0.015420598
20231225 03:40:06,0.838031,-1.065814,0.152905,0.107379,0.126981,-0.013540,5.974102,-17.562508,1.816269,-157.71542,0.7357527,-1.0671753,-0.9585397,0.07324416,0.12675169,-0.023325125
20231225 03:40:06,0.508981,-0.837146,-0.012853,0.151058,0.132308,-0.025259,6.033684,-14.358383,2.277565,-152.89203,0.39273077,-0.8193035,-0.6162252,0.0908117,0.13786902,-0.04043804
20231225 03:40:06,0.227289,-0.511426,-0.211086,0.186215,0.140831,-0.028455,5.728111,-17.205269,1.924469,-156.02194,0.048544243,-0.4798563,-0.17005873,0.10356147,0.15462378,-0.0712485
20231225 03:40:06,-0.100433,-0.250900,-0.490093,0.214979,0.175987,-0.022063,5.992031,-17.372475,1.804047,-153.7211,-0.3959447,-0.20611474,0.29771483,0.11226529,0.19785112,-0.09018366
20231225 03:40:06,-0.375084,0.021298,-0.665708,0.237351,0.226059,-0.002886,5.870129,-16.818810,2.034630,-152.6867,-0.74032366,0.06661968,0.6806495,0.12497751,0.25202057,-0.105763815
20231225 03:40:06,-0.551429,0.037931,-0.733893,0.245874,0.255888,0.015224,6.046585,-17.186134,2.328300,-152.31953,-0.9086171,0.07474476,0.8558402,0.13497569,0.28200564,-0.11334807
20231225 03:40:06,-0.533686,-0.012729,-0.803865,0.233090,0.255888,0.043989,5.914299,-17.861343,2.772980,-154.08759,-0.9416765,0.035402626,0.87586844,0.14997214,0.27488452,-0.12584493
20231225 03:40:06,-0.358391,-0.074031,-0.803307,0.197933,0.222862,0.068492,5.977440,-17.388100,3.010651,-153.60736,-0.82278395,-0.01023753,0.72139436,0.15247518,0.23293678,-0.12440556
20231225 03:40:06,-0.154371,-0.192378,-0.982647,0.143601,0.182379,0.087668,6.198338,-17.088425,2.993286,-152.82893,-0.817083,-0.10152219,0.6309797,0.14047384,0.18443967,-0.105189696
20231225 03:40:06,0.114521,-0.385374,-1.139677,0.066896,0.151484,0.101518,5.959892,-17.770020,3.303352,-155.44452,-0.758113,-0.29607993,0.48488626,0.10952852,0.14771298,-0.069871634
20231225 03:40:06,0.435007,-0.574809,-1.225645,-0.018332,0.144027,0.110040,5.941963,-17.960060,3.315582,-156.9647,-0.6126916,-0.5321202,0.2736864,0.06633064,0.1406199,-0.016081765
20231225 03:40:06,0.687280,-0.750818,-1.095100,-0.097168,0.158942,0.102583,5.711330,-17.970970,2.778114,-158.30751,-0.32044473,-0.74800193,0.010548592,0.007312879,0.15862755,0.045339674
20231225 03:40:06,0.842828,-0.868643,-0.788294,-0.149370,0.177053,0.085537,5.368530,-17.716988,3.026062,-160.21045,0.043133795,-0.8824217,-0.2700634,-0.045355372,0.17903797,0.08985852
20231225 03:40:06,0.842627,-0.901882,-0.396591,-0.157893,0.187706,0.062100,6.144161,-17.466652,2.749496,-157.20349,0.34507668,-0.9007618,-0.5639211,-0.073022574,0.1875067,0.11918372
20231225 03:40:06,0.667887,-0.798686,-0.149151,-0.132325,0.197294,0.040793,6.020077,-17.663078,2.627113,-157.40419,0.40086713,-0.7837712,-0.57884145,-0.07242574,0.19413698,0.11806936
20231225 03:40:06,0.505529,-0.652217,-0.053054,-0.092907,0.220732,0.022682,5.728878,-17.589043,2.485420,-157.55156,0.36085236,-0.6241017,-0.49246365,-0.062034525,0.21475793,0.10982288
20231225 03:40:06,0.192945,-0.372572,0.031460,-0.050293,0.206882,0.017355,5.701599,-17.682213,2.223282,-156.75272,0.18946001,-0.35705012,-0.26065725,-0.040321626,0.2001249,0.082174145
20231225 03:40:06,-0.057948,-0.215950,-0.132471,-0.017267,0.190902,0.035466,5.728878,-17.589043,2.485420,-155.966,-0.11404164,-0.20679249,0.06459156,-0.0049568713,0.18425001,0.043980032
20231225 03:40:06,-0.100216,0.007427,-0.322595,-0.001287,0.182379,0.063165,5.807758,-17.675842,2.357895,-154.8531,-0.30468586,0.03224235,0.27239543,0.025888955,0.17355001,0.014592573
20231225 03:40:06,-0.083274,0.210187,-0.631351,-0.009810,0.164268,0.099387,5.650383,-17.694145,2.893410,-155.23619,-0.5531486,0.2690791,0.49148405,0.05075523,0.15085578,-0.0063966475
20231225 03:40:06,0.052166,0.338937,-0.916371,-0.033247,0.175987,0.131347,5.333324,-16.579430,2.281601,-154.28308,-0.71144414,0.43092874,0.5659731,0.06369716,0.15896443,-1.9600242E-4
20231225 03:40:06,0.091100,0.542774,-1.056161,-0.048162,0.217536,0.152654,5.940815,-17.384399,2.474167,-152.24336,-0.83658224,0.6614479,0.6471223,0.06712939,0.19460082,0.017840214
20231225 03:40:06,-0.014388,0.660640,-1.117228,-0.051358,0.268672,0.177157,5.995369,-17.198059,2.998428,-151.97185,-0.9704108,0.78958493,0.79412735,0.07527146,0.23866971,0.022760771
20231225 03:40:07,-0.139204,0.734821,-1.074708,-0.032182,0.321940,0.201660,5.625290,-17.037239,2.984245,-152.85762,-1.0311244,0.8635163,0.8947439,0.09105339,0.28349322,0.0057911426
20231225 03:40:07,-0.329296,0.854836,-0.970647,-0.002352,0.342182,0.230425,5.437679,-17.515015,2.343712,-153.46765,-1.0912855,0.9519496,1.0221019,0.123104125,0.29814917,-0.030568339
20231225 03:40:07,-0.361952,0.740331,-1.024593,0.024282,0.360292,0.260255,5.155834,-17.537857,2.476372,-154.84657,-1.1338749,0.84450966,1.0464123,0.15850762,0.31398413,-0.06965312
20231225 03:40:07,-0.214083,0.722239,-1.040864,0.031739,0.331528,0.280496,5.457794,-16.574898,2.684464,-152.95256,-1.0423071,0.82862866,0.93039906,0.1953658,0.29287767,-0.08523181
20231225 03:40:07,0.039654,0.529433,-1.212691,0.017890,0.304894,0.293280,5.510166,-17.138634,2.855751,-154.06273,-0.99282175,0.6510876,0.76066434,0.21269876,0.27407435,-0.092465185
20231225 03:40:07,0.318836,0.539241,-1.323553,-0.021528,0.271869,0.299672,5.307583,-17.440155,3.141357,-156.01561,-0.91629744,0.6320763,0.5775367,0.21319108,0.25196353,-0.078112945
20231225 03:40:07,0.630613,0.513730,-1.411188,-0.076926,0.242039,0.297542,5.059406,-17.832993,2.896591,-158.13461,-0.779812,0.5411675,0.3704021,0.19214648,0.23679404,-0.04688245
20231225 03:40:07,0.911059,0.473176,-1.428881,-0.144043,0.199425,0.275169,5.868710,-17.952660,2.242599,-155.10738,-0.6157758,0.40896553,0.13005829,0.14578778,0.21089286,0.020636097
20231225 03:40:07,1.158881,0.614723,-1.451814,-0.219683,0.171726,0.235752,5.086685,-17.739822,3.158722,-159.68861,-0.48185313,0.47702128,-0.04312712,0.0764453,0.19468276,0.08695668
20231225 03:40:07,1.271358,0.673207,-1.451656,-0.305976,0.168530,0.188876,5.076950,-17.451065,2.603889,-158.9732,-0.39476222,0.5074229,-0.11028558,-0.012371838,0.1961046,0.18215343
20231225 03:40:07,1.358407,0.728520,-1.266395,-0.394400,0.185575,0.139870,4.997688,-17.172386,2.450943,-159.28929,-0.13804239,0.5764425,-0.21163535,-0.11500192,0.21355057,0.27496213
20231225 03:40:07,1.290048,0.770828,-0.781193,-0.451929,0.209013,0.082341,5.031357,-17.542381,2.073517,-159.12674,0.24650276,0.7078658,-0.35410878,-0.21753478,0.22416937,0.34672692
20231225 03:40:07,0.900102,0.859749,-0.180468,-0.458321,0.238843,0.039727,4.900108,-16.891853,2.029747,-158.61388,0.44615626,0.8844802,-0.34691694,-0.2831676,0.2271813,0.3741887
20231225 03:40:07,0.350726,1.012904,0.393331,-0.410380,0.260150,0.030139,4.872833,-16.985031,1.767616,-158.36647,0.45090407,1.0035145,-0.2475673,-0.28169367,0.22770216,0.34302384
20231225 03:40:07,-0.145801,1.206928,0.853038,-0.310238,0.268672,0.055708,4.854904,-17.175064,1.779846,-158.35965,0.36714816,1.0844959,-0.14020744,-0.20767938,0.22626649,0.25421593
20231225 03:40:07,-0.492042,1.382959,1.001471,-0.174938,0.275065,0.105779,4.651550,-17.092804,1.504501,-158.589,0.17371184,1.1586874,0.05336088,-0.08493327,0.23290141,0.126513
20231225 03:40:07,-0.661440,1.553172,0.850737,-0.037509,0.279326,0.168635,4.758091,-17.278313,1.919586,-157.8764,-0.06945199,1.3034685,0.34696764,0.05410803,0.24331282,-0.0071785897
20231225 03:40:07,-0.638280,1.741807,0.446613,0.075418,0.292110,0.227229,4.521065,-16.826057,2.021683,-157.51787,-0.33970687,1.5586892,0.65138006,0.17479268,0.2616142,-0.12098737
20231225 03:40:07,-0.376537,1.919757,-0.140495,0.139339,0.324071,0.274104,4.794334,-17.090118,2.175606,-155.83987,-0.61007625,1.8683463,0.85336214,0.2530924,0.2951024,-0.18201767
20231225 03:40:07,-0.171118,2.194088,-0.481048,0.124424,0.319809,0.297542,4.618645,-17.106583,2.442879,-156.12604,-0.7648554,2.213738,0.8981333,0.27209848,0.28937548,-0.18357173
20231225 03:40:07,0.023339,2.429882,-0.773798,-0.010875,0.236712,0.304999,4.739777,-17.276466,1.651344,-154.79851,-0.8782173,2.4927409,0.9400102,0.22163007,0.20257178,-0.08782318
20231225 03:40:07,0.363202,2.277109,-0.893823,-0.230337,0.123785,0.307130,4.494171,-17.111115,2.040024,-157.63664,-0.6244738,2.3206391,0.6552383,0.118317485,0.104813404,0.056512058
20231225 03:40:07,0.929835,1.882115,-0.730943,-0.429557,0.103544,0.284758,3.920357,-16.676140,1.470032,-161.40567,0.05505961,1.8251305,0.04480967,-0.03042011,0.12673828,0.19788323
20231225 03:40:07,1.410357,1.116383,0.288375,-0.584032,0.243104,0.145197,4.387627,-16.925606,1.624939,-162.16475,1.2467241,1.0773201,-0.9373135,-0.3084666,0.2671704,0.36250204
20231225 03:40:07,1.271073,0.893410,0.847904,-0.601078,0.286783,0.082341,4.387627,-16.925606,1.624939,-162.47733,1.5232723,0.8872032,-1.2453516,-0.3934519,0.29459795,0.4033989
20231225 03:40:07,0.685773,0.491136,2.086405,-0.577640,0.327267,-0.038043,4.570095,-17.564209,0.998589,-162.48909,1.7605346,0.45060754,-1.8938208,-0.5013593,0.30029747,0.4481238
20231225 03:40:07,-0.008157,0.135641,3.232198,-0.459386,0.320875,-0.106225,4.517342,-16.808578,0.546822,-162.40556,1.6607128,-0.060462758,-2.5887735,-0.46621826,0.27997437,0.40888062
20231225 03:40:07,-0.642188,-0.231014,3.950087,-0.236729,0.310221,-0.116879,4.377895,-16.636848,1.070107,-162.91466,1.3871591,-0.6438434,-3.023187,-0.28816822,0.2814274,0.29338786
20231225 03:40:07,-1.101080,-0.286282,4.237741,0.023216,0.279326,-0.057219,4.826855,-16.884460,0.956772,-161.58156,1.0635636,-0.8872738,-3.0713964,-0.033838123,0.2832495,0.113703705
20231225 03:40:07,-1.417000,-0.399103,3.881666,0.268246,0.210078,0.066361,4.466125,-16.820511,1.216942,-162.57611,0.68486035,-1.0693344,-2.6225111,0.24280053,0.24834916,-0.13298276
20231225 03:40:07,-1.035362,-0.654317,3.025546,0.466401,0.181314,0.202726,4.086697,-16.562820,0.928413,-163.68658,0.71204853,-1.0560737,-2.107976,0.48684567,0.22814661,-0.3640287
20231225 03:40:07,-0.184059,-1.097502,2.052160,0.581459,0.181314,0.274104,4.599560,-16.720955,1.613686,-162.32474,0.9701944,-1.2090225,-1.8511875,0.6291672,0.21361975,-0.48067126
20231225 03:40:07,0.487194,-1.651756,1.288686,0.616615,0.188771,0.268777,4.882179,-17.081894,2.041977,-162.29659,1.121113,-1.6609435,-1.731395,0.6622761,0.20492695,-0.48996747
20231225 03:40:07,0.792337,-2.042906,0.789274,0.591047,0.180249,0.222967,4.512486,-17.112968,2.308266,-163.88036,1.1068468,-2.037967,-1.5441126,0.61871153,0.18703574,-0.449004
20231225 03:40:07,0.941004,-2.322042,0.467785,0.515407,0.133373,0.163308,4.097198,-17.235344,2.044182,-165.28056,1.0648167,-2.313416,-1.3811848,0.52336717,0.1386726,-0.37609154
20231225 03:40:07,0.852638,-2.385656,0.243569,0.401415,0.055603,0.113237,4.124477,-17.142181,2.306313,-164.9325,0.88888806,-2.3661866,-1.1810921,0.39767498,0.06421469,-0.2974606
20231225 03:40:07,0.750159,-2.284546,0.020278,0.258658,-0.030690,0.072753,4.257912,-17.042633,2.703056,-164.27348,0.6801251,-2.259207,-0.9512322,0.2550406,-0.023975158,-0.21103396
20231225 03:40:07,0.699698,-2.132226,-0.156200,0.100987,-0.091415,0.038662,4.388012,-17.117493,1.905411,-163.21655,0.5304127,-2.099884,-0.78925407,0.10678921,-0.08862946,-0.11079098
20231225 03:40:07,0.567069,-1.873221,-0.152432,-0.054554,-0.106330,0.002440,4.327831,-17.224442,2.581642,-163.43639,0.44345483,-1.8290809,-0.6505375,-0.037592784,-0.10930372,0.006601982
20231225 03:40:07,0.370223,-1.618396,0.175490,-0.180265,-0.091415,-0.046566,4.194393,-17.323990,2.184898,-163.68327,0.4952223,-1.5918312,-0.72119266,-0.16726992,-0.10241616,0.122343116
20231225 03:40:07,0.049444,-1.343735,0.714647,-0.264428,-0.076500,-0.107291,4.239216,-16.848892,2.154335,-162.81512,0.5663128,-1.3843746,-0.90733105,-0.27028972,-0.098198436,0.2187236
20231225 03:40:07,-0.542812,-0.961108,1.323931,-0.307042,-0.069043,-0.144578,4.388397,-17.309380,2.185875,-162.36758,0.4032622,-1.1898276,-0.9690455,-0.32481688,-0.10303262,0.27068445
20231225 03:40:07,-1.150903,-0.694171,1.946453,-0.293192,-0.079696,-0.134990,4.124092,-16.950287,2.025841,-162.94942,0.16902357,-1.1810391,-1.0928032,-0.30580643,-0.11996946,0.24937542
20231225 03:40:07,-1.584983,-0.559431,2.359259,-0.203703,-0.074370,-0.078526,4.706104,-16.906464,2.028770,-160.77332,-0.02415812,-1.257756,-1.1723142,-0.20107843,-0.107065514,0.15189177
20231225 03:40:07,-1.825776,-0.430649,2.501113,-0.059881,-0.047736,0.016290,4.466511,-17.012398,1.497414,-161.80742,-0.15196347,-1.246144,-1.1044061,-0.034106273,-0.06271443,0.00729004
20231225 03:40:07,-1.791068,-0.445380,2.213378,0.099921,-0.006187,0.132413,4.583054,-15.777138,1.417946,-159.91441,-0.22356868,-1.1864357,-0.84556973,0.15497255,-0.0035441704,-0.16074905
20231225 03:40:07,-1.433836,-0.484176,1.715142,0.234155,0.032165,0.238948,4.548344,-16.732887,2.283813,-160.76791,-0.13010871,-1.0018395,-0.61305034,0.32057577,0.043847326,-0.3110997
20231225 03:40:07,-0.818873,-0.769242,1.083641,0.321514,0.070518,0.312457,4.451534,-16.836136,2.423561,-161.4847,0.07215208,-0.99438983,-0.52238816,0.4339476,0.08183107,-0.4122644
20231225 03:40:07,-0.166759,-1.023606,0.454513,0.364128,0.085433,0.334829,4.994347,-17.346794,1.256554,-159.97453,0.22354537,-1.0646755,-0.50588155,0.48575872,0.093859255,-0.44977078
20231225 03:40:07,0.342723,-1.289100,-0.065344,0.369454,0.095021,0.317783,3.869522,-16.879967,2.420631,-164.47102,0.27229062,-1.2684367,-0.43564808,0.483225,0.099846594,-0.4515331
20231225 03:40:07,0.645129,-1.426844,-0.433161,0.357736,0.095021,0.274104,4.355110,-17.131279,2.843781,-163.24489,0.22750694,-1.4057046,-0.42088202,0.44806832,0.097393185,-0.41216403
20231225 03:40:07,0.854114,-1.457577,-0.748398,0.336429,0.085433,0.218706,3.887833,-16.881813,2.688873,-164.79707,0.13277817,-1.4560077,-0.32079542,0.39613754,0.08557448,-0.36558408
20231225 03:40:07,0.896133,-1.557629,-1.023854,0.312991,0.083302,0.156916,4.142792,-17.144028,2.574554,-163.68105,-0.038226724,-1.5450833,-0.21655208,0.33501264,0.084410034,-0.30702066
20231225 03:40:07,0.801243,-1.511833,-1.202132,0.293815,0.083302,0.099387,4.187614,-16.668930,2.543983,-162.41501,-0.23272973,-1.4543668,-0.07342774,0.27640277,0.088763885,-0.2560796
20231225 03:40:07,0.535746,-1.352022,-1.283144,0.276769,0.075844,0.056773,3.890404,-16.323616,3.322319,-162.71686,-0.4560721,-1.22442,0.18619323,0.22771156,0.08971495,-0.22118255
20231225 03:40:07,0.234806,-1.159927,-1.336463,0.259724,0.066256,0.036531,4.153557,-16.107048,2.640945,-160.11517,-0.688939,-0.9835786,0.4130268,0.19587336,0.087096795,-0.19871062
20231225 03:40:07,0.008709,-0.914214,-1.407861,0.229894,0.037492,0.040793,3.714718,-16.340080,3.589584,-161.6124,-0.9162061,-0.7109041,0.6823045,0.17641543,0.058228556,-0.19087896
20231225 03:40:07,-0.119163,-0.771796,-1.529796,0.171300,-0.008318,0.049316,3.854546,-16.703697,3.346771,-160.65952,-1.1124766,-0.54165244,0.8521497,0.14808506,0.005907319,-0.16313566
20231225 03:40:07,-0.119004,-0.639653,-1.644434,0.088202,-0.046671,0.058904,3.881058,-16.226753,3.047958,-159.86108,-1.2400041,-0.4035895,0.9229783,0.10717332,-0.044089966,-0.11346114
20231225 03:40:07,-0.045515,-0.506765,-1.614707,-0.010875,-0.088219,0.062100,3.557343,-16.358391,4.125099,-161.8316,-1.2053992,-0.28398374,0.89048845,0.0531898,-0.09651039,-0.045213945
20231225 03:40:07,-0.003734,-0.446218,-1.516028,-0.111018,-0.111657,0.062100,3.668743,-16.239517,2.778740,-161.48671,-1.1041915,-0.26771647,0.8310703,-0.010916837,-0.12811029,0.025094144
20231225 03:40:07,0.118098,-0.513181,-1.149628,-0.182396,-0.112722,0.054642,3.781677,-16.888191,2.554260,-162.5679,-0.7242956,-0.40360117,0.5451708,-0.07258894,-0.13055994,0.077617764
20231225 03:40:07,0.187997,-0.594766,-0.707181,-0.213291,-0.107395,0.025878,3.430298,-16.921112,3.088799,-164.85352,-0.321301,-0.5227481,0.23766585,-0.123656794,-0.12497092,0.11412965
20231225 03:40:07,0.131252,-0.640839,-0.279286,-0.216487,-0.113788,-0.016736,3.897182,-16.978683,2.963234,-163.36096,-0.0430602,-0.6033697,-0.028283134,-0.16043024,-0.12998775,0.13584259
20231225 03:40:07,-0.061835,-0.566852,0.092514,-0.205834,-0.151075,-0.051892,3.448227,-16.731071,3.076576,-164.79958,0.067331746,-0.57619596,-0.13363501,-0.17291966,-0.16526735,0.1467685
20231225 03:40:07,-0.173573,-0.615640,0.160490,-0.183461,-0.154271,-0.066807,3.906147,-16.883667,2.957115,-163.03368,0.03903441,-0.644368,-0.13213551,-0.16504759,-0.16643608,0.13654627
20231225 03:40:07,-0.336514,-0.529902,0.287755,-0.144043,-0.135094,-0.063611,3.800377,-17.081932,3.102982,-163.53987,-0.0064822435,-0.595351,-0.09630564,-0.13479379,-0.14405435,0.11244038
20231225 03:40:07,-0.398010,-0.621684,0.379344,-0.107822,-0.127637,-0.043370,3.660542,-16.718307,3.345795,-164.0699,0.0011472404,-0.70139396,-0.15275718,-0.09688012,-0.13470154,0.07460466
20231225 03:40:07,-0.302888,-0.746794,0.509017,-0.072665,-0.144683,-0.026324,3.836235,-16.701851,3.078529,-163.84328,0.14972183,-0.81238604,-0.3436922,-0.060754612,-0.14852503,0.03478634
20231225 03:40:07,0.016522,-0.855076,0.494807,-0.037509,-0.193689,-0.038043,3.545422,-16.819710,3.217300,-165.56183,0.37481236,-0.87773424,-0.54225576,-0.042598143,-0.1933702,0.015233444
20231225 03:40:07,0.337717,-0.898310,0.186205,-0.007679,-0.244825,-0.085984,3.703564,-17.185181,3.242729,-165.38115,0.40737593,-0.8902989,-0.5284293,-0.05432806,-0.24175139,0.021076486
20231225 03:40:07,0.489095,-0.737238,-0.294619,0.005105,-0.267198,-0.153100,3.754784,-17.173248,2.572601,-164.40654,0.16182204,-0.71158916,-0.2847976,-0.09591923,-0.26190802,0.049948268
20231225 03:40:07,0.409543,-0.433113,-0.711640,-0.001287,-0.268263,-0.228740,3.993996,-16.875435,2.823486,-162.34123,-0.22694764,-0.3707927,0.06313342,-0.1548492,-0.25464395,0.09259382
20231225 03:40:07,0.165794,-0.097492,-0.968033,-0.016202,-0.254413,-0.288400,4.285191,-16.949463,2.965187,-160.05104,-0.614315,0.014855072,0.44108832,-0.20281635,-0.22457413,0.13163981
