Timestamp,linacce_x,linacce_y,linacce_z,gyro_x,gyro_y,gyro_z,X-magnetometer,Y-magnetometer,Z-magnetometer,Yaw, worldXAccel,worldYAccel,worldZAccel,worldXgyro,worldYgyro,worldZgyro
03:44:06,0.104634,1.489807,-1.122591,-0.875007,0.794002,0.036834,-3.076244,-31.315941,-0.859253,170.88596,-0.86123705,1.5399971,0.47587806,-0.5642972,0.75963575,0.5704923
03:44:06,0.103775215,1.49394702,-1.130921525,-0.870063785,0.790742035,0.034548829999999996,-3.074834755,-31.315826825,-0.8599163000000001,170.8699986,-0.87124013475,1.5459075265,0.4787334577,-0.56319206685,0.75691777805,0.56797139935
03:44:06,0.10291643,1.4980870400000001,-1.1392520499999998,-0.86512057,0.78748207,0.03226366,-3.07342551,-31.31571265,-0.8605796,170.85403720000002,-0.8812432195,1.5518179529999998,0.4815888554,-0.5620869337000001,0.7541998061,0.5654504987
03:44:06,0.102057645,1.50222706,-1.147582575,-0.860177355,0.784222105,0.029978489999999997,-3.072016265,-31.315598474999998,-0.8612429,170.8380758,-0.89124630425,1.5577283794999999,0.4844442531,-0.56098180055,0.75148183415,0.56292959805
03:44:06,0.10119886,1.5063670800000002,-1.1559130999999998,-0.85523414,0.78096214,0.02769332,-3.07060702,-31.315484299999998,-0.8619062000000001,170.8221144,-0.901249389,1.563638806,0.4872996508,-0.5598766674000001,0.7487638622,0.5604086974
03:44:06,0.100340075,1.5105071,-1.164243625,-0.850290925,0.7777021749999999,0.025408149999999997,-3.069197775,-31.315370124999998,-0.8625695,170.80615300000002,-0.91125247375,1.5695492325,0.49015504849999997,-0.55877153425,0.74604589025,0.55788779675
03:44:06,0.09948129,1.51464712,-1.17257415,-0.84534771,0.77444221,0.023122979999999998,-3.06778853,-31.315255949999997,-0.8632328,170.7901916,-0.9212555585,1.5754596589999998,0.4930104462,-0.5576664011000001,0.7433279183,0.5553668961
03:44:06,0.098622505,1.5187871400000001,-1.1809046749999998,-0.840404495,0.771182245,0.02083781,-3.066379285,-31.315141774999997,-0.8638961000000001,170.7742302,-0.93125864325,1.5813700855,0.4958658439,-0.55656126795,0.7406099463500001,0.5528459954499999
03:44:06,0.09776372,1.52292716,-1.1892352,-0.83546128,0.76792228,0.01855264,-3.06497004,-31.3150276,-0.8645594000000001,170.75826880000002,-0.941261728,1.587280512,0.4987212416,-0.5554561348,0.7378919744000001,0.5503250947999999
03:44:06,0.09690493500000001,1.5270671800000002,-1.1975657249999998,-0.830518065,0.764662315,0.01626747,-3.063560795,-31.314913425,-0.8652227,170.74230740000002,-0.95126481275,1.5931909384999998,0.5015766393,-0.5543510016500001,0.7351740024500001,0.5478041941499999
03:44:06,0.09604615000000001,1.5312072,-1.20589625,-0.82557485,0.76140235,0.0139823,-3.06215155,-31.31479925,-0.865886,170.726346,-0.9612678975,1.5991013649999999,0.5044320369999999,-0.5532458685,0.7324560305000001,0.5452832934999999
03:44:06,0.09518736500000001,1.53534722,-1.214226775,-0.820631635,0.758142385,0.01169713,-3.0607423049999998,-31.314685075,-0.8665493000000001,170.7103846,-0.97127098225,1.6050117915,0.5072874347,-0.5521407353500001,0.7297380585500001,0.5427623928499999
03:44:06,0.09432858000000001,1.5394872400000001,-1.2225572999999998,-0.81568842,0.7548824199999999,0.009411959999999997,-3.05933306,-31.3145709,-0.8672126,170.69442320000002,-0.981274067,1.6109222179999998,0.5101428324,-0.5510356022,0.7270200866000001,0.5402414922
03:44:06,0.09346979500000001,1.54362726,-1.230887825,-0.810745205,0.751622455,0.007126789999999997,-3.057923815,-31.314456725,-0.8678759,170.6784618,-0.99127715175,1.6168326444999999,0.5129982301,-0.5499304690500001,0.72430211465,0.53772059155
03:44:06,0.09261101000000001,1.5477672800000002,-1.2392183499999998,-0.80580199,0.74836249,0.004841619999999998,-3.05651457,-31.31434255,-0.8685392000000001,170.6625004,-1.0012802365,1.622743071,0.5158536278,-0.5488253359,0.7215841427,0.5351996909
03:44:06,0.091752225,1.5519073,-1.247548875,-0.800858775,0.745102525,0.0025564500000000018,-3.055105325,-31.314228375,-0.8692025000000001,170.64653900000002,-1.01128332125,1.6286534975,0.5187090255,-0.54772020275,0.71886617075,0.53267879025
03:44:06,0.09089344,1.55604732,-1.2558794,-0.79591556,0.74184256,0.00027127999999999874,-3.05369608,-31.3141142,-0.8698658,170.6305776,-1.021286406,1.6345639239999998,0.5215644232,-0.5466150696000001,0.7161481988,0.5301578896
03:44:06,0.090034655,1.5601873400000001,-1.2642099249999998,-0.790972345,0.738582595,-0.0020138900000000043,-3.052286835,-31.314000025,-0.8705291000000001,170.6146162,-1.0312894907499999,1.6404743505,0.5244198208999999,-0.54550993645,0.71343022685,0.52763698895
03:44:06,0.08917587,1.56432736,-1.27254045,-0.78602913,0.73532263,-0.00429906,-3.05087759,-31.31388585,-0.8711924000000001,170.59865480000002,-1.0412925755,1.646384777,0.5272752186,-0.5444048033000001,0.7107122549,0.5251160883
03:44:06,0.088317085,1.56846738,-1.2808709749999998,-0.781085915,0.732062665,-0.006584230000000003,-3.049468345,-31.313771674999998,-0.8718557,170.5826934,-1.05129566025,1.6522952035,0.5301306163,-0.54329967015,0.70799428295,0.5225951876499999
03:44:06,0.0874583,1.5726074,-1.2892015,-0.7761427,0.7288027,-0.0088694,-3.0480591,-31.313657499999998,-0.872519,170.566732,-1.061298745,1.6582056299999999,0.532986014,-0.5421945370000001,0.705276311,0.5200742869999999
03:44:06,0.086599515,1.57674742,-1.297532025,-0.771199485,0.725542735,-0.011154570000000003,-3.046649855,-31.313543324999998,-0.8731823000000001,170.55077060000002,-1.0713018297499999,1.6641160565,0.5358414117,-0.54108940385,0.7025583390500001,0.5175533863499999
03:44:06,0.08574073000000001,1.5808874400000001,-1.3058625499999998,-0.76625627,0.72228277,-0.013439739999999999,-3.04524061,-31.313429149999997,-0.8738456,170.5348092,-1.0813049145,1.670026483,0.5386968094,-0.5399842707,0.6998403671000001,0.5150324856999999
03:44:06,0.08488194500000001,1.58502746,-1.314193075,-0.761313055,0.719022805,-0.01572491,-3.043831365,-31.313314974999997,-0.8745089,170.5188478,-1.09130799925,1.6759369094999998,0.5415522071,-0.53887913755,0.6971223951500001,0.5125115850499999
03:44:06,0.08402316000000001,1.58916748,-1.3225235999999998,-0.75636984,0.71576284,-0.018010080000000005,-3.04242212,-31.3132008,-0.8751722000000001,170.50288640000002,-1.101311084,1.681847336,0.5444076048,-0.5377740044,0.6944044232000001,0.5099906844
03:44:06,0.08316437500000001,1.5933075,-1.3308541249999999,-0.751426625,0.712502875,-0.02029525,-3.041012875,-31.313086625,-0.8758355,170.486925,-1.1113141687499999,1.6877577625,0.5472630025,-0.5366688712500001,0.6916864512500001,0.50746978375
03:44:06,0.08230559000000001,1.59744752,-1.33918465,-0.74648341,0.70924291,-0.022580420000000004,-3.0396036300000002,-31.31297245,-0.8764988,170.4709636,-1.1213172535,1.6936681889999998,0.5501184002,-0.5355637381,0.6889684793,0.5049488831
03:44:06,0.08144680500000001,1.6015875400000001,-1.3475151749999998,-0.741540195,0.705982945,-0.02486559,-3.038194385,-31.312858275,-0.8771621000000001,170.45500220000002,-1.1313203382500001,1.6995786155,0.5529737979,-0.5344586049500001,0.68625050735,0.50242798245
03:44:06,0.08058802000000001,1.60572756,-1.3558457,-0.73659698,0.70272298,-0.027150760000000003,-3.03678514,-31.3127441,-0.8778254000000001,170.43904080000001,-1.141323423,1.705489042,0.5558291956,-0.5333534718,0.6835325354,0.4999070818
03:44:06,0.07972923500000001,1.60986758,-1.364176225,-0.731653765,0.699463015,-0.029435930000000006,-3.035375895,-31.312629925,-0.8784887,170.4230794,-1.15132650775,1.7113994685,0.5586845933,-0.5322483386500001,0.68081456345,0.49738618115
03:44:06,0.07887045000000001,1.6140076,-1.3725067499999999,-0.72671055,0.69620305,-0.031721099999999995,-3.03396665,-31.31251575,-0.879152,170.407118,-1.1613295925,1.7173098949999999,0.561539991,-0.5311432055,0.6780965915,0.49486528049999995
03:44:06,0.07801166500000001,1.61814762,-1.380837275,-0.721767335,0.692943085,-0.03400627,-3.032557405,-31.312401575,-0.8798153000000001,170.39115660000002,-1.1713326772500001,1.7232203215,0.5643953887,-0.53003807235,0.67537861955,0.49234437984999996
03:44:06,0.07715288000000001,1.6222876400000001,-1.3891677999999998,-0.71682412,0.68968312,-0.03629144,-3.03114816,-31.3122874,-0.8804786,170.3751952,-1.181335762,1.729130748,0.5672507864,-0.5289329392000001,0.6726606476,0.48982347919999997
03:44:06,0.076294095,1.62642766,-1.397498325,-0.711880905,0.686423155,-0.038576610000000004,-3.029738915,-31.312173225,-0.8811419,170.3592338,-1.19133884675,1.7350411745,0.5701061841,-0.52782780605,0.66994267565,0.48730257855
03:44:06,0.07543531,1.63056768,-1.4058288499999998,-0.70693769,0.6831631899999999,-0.04086178000000001,-3.02832967,-31.31205905,-0.8818052000000001,170.34327240000002,-1.2013419315,1.740951601,0.5729615818,-0.5267226729000001,0.6672247037000001,0.4847816779
03:44:06,0.074576525,1.6347077,-1.4141593749999999,-0.701994475,0.679903225,-0.043146949999999996,-3.026920425,-31.311944875,-0.8824685000000001,170.327311,-1.2113450162500001,1.7468620275,0.5758169795,-0.52561753975,0.6645067317500001,0.48226077724999994
03:44:06,0.07371774,1.63884772,-1.4224899,-0.69705126,0.67664326,-0.04543212,-3.02551118,-31.311830699999998,-0.8831318,170.3113496,-1.221348101,1.752772454,0.5786723772,-0.5245124066000001,0.6617887598000001,0.47973987659999995
03:44:06,0.072858955,1.6429877400000001,-1.4308204249999998,-0.692108045,0.6733832949999999,-0.04771729,-3.024101935,-31.311716524999998,-0.8837951000000001,170.29538820000002,-1.23135118575,1.7586828804999999,0.5815277749,-0.52340727345,0.6590707878500001,0.47721897594999996
03:44:06,0.07200017,1.64712776,-1.43915095,-0.68716483,0.67012333,-0.050002460000000006,-3.02269269,-31.311602349999998,-0.8844584000000001,170.2794268,-1.2413542705,1.764593307,0.5843831726,-0.5223021403,0.6563528159,0.47469807529999997
03:44:06,0.071141385,1.65126778,-1.447481475,-0.682221615,0.666863365,-0.052287629999999995,-3.021283445,-31.311488175,-0.8851217,170.2634654,-1.2513573552500001,1.7705037335,0.5872385703,-0.5211970071500001,0.65363484395,0.47217717465
03:44:06,0.0702826,1.6554078,-1.4558119999999999,-0.6772784,0.6636034,-0.0545728,-3.0198742,-31.311374,-0.885785,170.24750400000002,-1.26136044,1.7764141599999999,0.590093968,-0.520091874,0.650916872,0.469656274
03:44:06,0.069423815,1.65954782,-1.464142525,-0.672335185,0.6603434349999999,-0.05685797,-3.0184649550000002,-31.311259825,-0.8864483000000001,170.2315426,-1.27136352475,1.7823245865,0.5929493657,-0.5189867408500001,0.64819890005,0.46713537335
03:44:06,0.06856503,1.6636878400000001,-1.4724730499999998,-0.66739197,0.65708347,-0.059143140000000004,-3.01705571,-31.31114565,-0.8871116,170.2155812,-1.2813666095,1.788235013,0.5958047634,-0.5178816077,0.6454809281,0.4646144727
03:44:06,0.067706245,1.66782786,-1.480803575,-0.662448755,0.653823505,-0.06142831000000001,-3.015646465,-31.311031475,-0.8877749,170.19961980000002,-1.2913696942500001,1.7941454394999998,0.5986601611,-0.5167764745500001,0.64276295615,0.46209357204999996
03:44:06,0.06684746000000001,1.67196788,-1.4891340999999998,-0.6575055399999999,0.65056354,-0.06371347999999999,-3.01423722,-31.3109173,-0.8884382000000001,170.1836584,-1.301372779,1.800055866,0.6015155588,-0.5156713414,0.6400449842,0.45957267139999997
03:44:06,0.06598867500000001,1.6761079,-1.4974646249999999,-0.652562325,0.647303575,-0.06599864999999999,-3.012827975,-31.310803125,-0.8891015,170.167697,-1.31137586375,1.8059662925,0.6043709565,-0.51456620825,0.63732701225,0.45705177075
03:44:06,0.06512989000000001,1.68024792,-1.50579515,-0.6476191099999999,0.64404361,-0.06828382,-3.01141873,-31.31068895,-0.8897648,170.1517356,-1.3213789485,1.811876719,0.6072263542,-0.5134610751,0.6346090403,0.4545308701
03:44:06,0.06427110500000001,1.6843879400000001,-1.5141256749999998,-0.642675895,0.640783645,-0.07056899,-3.010009485,-31.310574775,-0.8904281000000001,170.13577420000001,-1.3313820332500002,1.8177871455,0.6100817519,-0.51235594195,0.6318910683500001,0.45200996945
03:44:06,0.06341232000000001,1.68852796,-1.5224562,-0.63773268,0.6375236799999999,-0.07285416,-3.00860024,-31.3104606,-0.8910914000000001,170.1198128,-1.341385118,1.823697572,0.6129371496,-0.5112508088000001,0.6291730964,0.44948906879999995
03:44:06,0.06255353500000001,1.69266798,-1.530786725,-0.632789465,0.634263715,-0.07513933,-3.007190995,-31.310346425,-0.8917547,170.1038514,-1.35138820275,1.8296079985,0.6157925473,-0.51014567565,0.6264551244500001,0.44696816814999996
03:44:06,0.061694750000000007,1.696808,-1.5391172499999999,-0.6278462499999999,0.63100375,-0.07742450000000001,-3.00578175,-31.31023225,-0.892418,170.08789000000002,-1.3613912875,1.835518425,0.618647945,-0.5090405425000001,0.6237371525000001,0.44444726749999997
03:44:06,0.060835965000000006,1.70094802,-1.547447775,-0.622903035,0.6277437849999999,-0.07970967000000001,-3.004372505,-31.310118075,-0.8930813000000001,170.0719286,-1.3713943722500002,1.8414288515,0.6215033427,-0.50793540935,0.62101918055,0.44192636685
03:44:06,0.059977180000000005,1.7050880400000001,-1.5557782999999998,-0.61795982,0.62448382,-0.08199484000000001,-3.00296326,-31.310003899999998,-0.8937446,170.0559672,-1.381397457,1.847339278,0.6243587404,-0.5068302762,0.6183012086,0.4394054662
03:44:06,0.05911839500000001,1.70922806,-1.564108825,-0.613016605,0.621223855,-0.08428000999999999,-3.001554015,-31.309889724999998,-0.8944079,170.04000580000002,-1.39140054175,1.8532497045,0.6272141381,-0.50572514305,0.61558323665,0.43688456555
03:44:06,0.05825961000000001,1.71336808,-1.5724393499999998,-0.6080733899999999,0.61796389,-0.08656517999999999,-3.00014477,-31.30977555,-0.8950712000000001,170.0240444,-1.4014036265,1.8591601309999999,0.6300695358,-0.5046200099,0.6128652647,0.4343636649
03:44:06,0.05740082500000001,1.7175081,-1.5807698749999999,-0.603130175,0.6147039249999999,-0.08885035,-2.998735525,-31.309661375,-0.8957345000000001,170.008083,-1.4114067112500002,1.8650705575,0.6329249335,-0.5035148767500001,0.61014729275,0.43184276425
03:44:06,0.05654204000000001,1.72164812,-1.5891004,-0.59818696,0.61144396,-0.09113552,-2.9973262800000002,-31.3095472,-0.8963978,169.99212160000002,-1.421409796,1.870980984,0.6357803312,-0.5024097436,0.6074293208,0.42932186359999996
03:44:06,0.05568325500000001,1.7257881400000001,-1.5974309249999998,-0.593243745,0.608183995,-0.09342069,-2.995917035,-31.309433025,-0.8970611000000001,169.9761602,-1.43141288075,1.8768914104999999,0.6386357289,-0.5013046104500001,0.60471134885,0.42680096295
03:44:06,0.05482447000000001,1.72992816,-1.60576145,-0.5883005299999999,0.60492403,-0.09570586,-2.99450779,-31.30931885,-0.8977244000000001,169.9601988,-1.4414159655,1.882801837,0.6414911266000001,-0.5001994773,0.6019933769,0.4242800623
03:44:06,0.053965685000000006,1.73406818,-1.614091975,-0.583357315,0.601664065,-0.09799103,-2.993098545,-31.309204675,-0.8983877,169.94423740000002,-1.4514190502500002,1.8887122635,0.6443465243,-0.49909434415000004,0.59927540495,0.42175916165
03:44:06,0.05310690000000001,1.7382082,-1.6224224999999999,-0.5784141,0.5984041,-0.10027619999999998,-2.9916893,-31.3090905,-0.899051,169.928276,-1.461422135,1.89462269,0.647201922,-0.49798921100000004,0.5965574330000001,0.41923826099999995
03:44:06,0.05224811500000001,1.74234822,-1.6307530249999997,-0.573470885,0.595144135,-0.10256136999999999,-2.990280055,-31.308976325,-0.8997143000000001,169.9123146,-1.47142521975,1.9005331165,0.6500573197,-0.49688407785000005,0.59383946105,0.41671736034999995
03:44:06,0.05138933000000001,1.7464882400000001,-1.63908355,-0.5685276699999999,0.5918841699999999,-0.10484653999999999,-2.98887081,-31.30886215,-0.9003776,169.89635320000002,-1.4814283045,1.906443543,0.6529127174,-0.49577894470000006,0.5911214891000001,0.41419645969999996
03:44:06,0.05053054500000001,1.75062826,-1.647414075,-0.563584455,0.588624205,-0.10713170999999999,-2.9874615650000003,-31.308747975,-0.9010409,169.8803918,-1.4914313892500002,1.9123539695,0.6557681151,-0.49467381155,0.58840351715,0.41167555905
03:44:06,0.04967176000000001,1.75476828,-1.6557445999999998,-0.55864124,0.58536424,-0.10941688,-2.98605232,-31.3086338,-0.9017042000000001,169.8644304,-1.501434474,1.918264396,0.6586235128,-0.4935686784,0.5856855452,0.4091546584
03:44:06,0.04881297500000001,1.7589083,-1.6640751249999999,-0.553698025,0.582104275,-0.11170205,-2.984643075,-31.308519625,-0.9023675,169.848469,-1.51143755875,1.9241748225,0.6614789105000001,-0.49246354525,0.58296757325,0.40663375775
03:44:06,0.04795419000000001,1.76304832,-1.67240565,-0.5487548099999999,0.57884431,-0.11398722,-2.98323383,-31.30840545,-0.9030308,169.8325076,-1.5214406435,1.930085249,0.6643343082,-0.49135841210000003,0.5802496013,0.4041128571
03:44:06,0.04709540500000001,1.7671883400000001,-1.6807361749999998,-0.543811595,0.575584345,-0.11627239,-2.981824585,-31.308291275,-0.9036941000000001,169.8165462,-1.5314437282500002,1.9359956755,0.6671897059,-0.49025327895000004,0.57753162935,0.40159195645
03:44:06,0.046236620000000006,1.77132836,-1.6890667,-0.53886838,0.57232438,-0.11855756,-2.98041534,-31.308177099999998,-0.9043574000000001,169.8005848,-1.541446813,1.941906102,0.6700451036,-0.48914814580000004,0.5748136574,0.3990710558
03:44:06,0.04537783500000001,1.77546838,-1.697397225,-0.533925165,0.5690644149999999,-0.12084272999999998,-2.979006095,-31.308062924999998,-0.9050207,169.78462340000002,-1.55144989775,1.9478165285,0.6729005013,-0.48804301265000005,0.57209568545,0.39655015514999997
03:44:06,0.04451905000000001,1.7796083999999999,-1.7057277499999999,-0.5289819499999999,0.56580445,-0.12312789999999998,-2.97759685,-31.30794875,-0.905684,169.768662,-1.5614529825,1.953726955,0.675755899,-0.4869378795,0.5693777135,0.3940292545
03:44:06,0.04366026500000001,1.78374842,-1.7140582749999997,-0.524038735,0.562544485,-0.12541307,-2.9761876050000002,-31.307834575,-0.9063473000000001,169.7527006,-1.5714560672500002,1.9596373814999999,0.6786112967,-0.48583274635,0.56665974155,0.39150835385
03:44:06,0.04280148000000001,1.7878884400000001,-1.7223888,-0.51909552,0.55928452,-0.12769824,-2.97477836,-31.3077204,-0.9070106,169.73673920000002,-1.581459152,1.965547808,0.6814666944000001,-0.4847276132,0.5639417696,0.3889874532
03:44:06,0.041942695000000016,1.79202846,-1.730719325,-0.514152305,0.556024555,-0.12998341,-2.973369115,-31.307606225,-0.9076739,169.7207778,-1.59146223675,1.9714582345,0.6843220921,-0.48362248005,0.5612237976500001,0.38646655254999995
03:44:06,0.041083910000000015,1.79616848,-1.7390498499999998,-0.5092090899999999,0.55276459,-0.13226858,-2.97195987,-31.30749205,-0.9083372000000001,169.7048164,-1.6014653215,1.9773686609999999,0.6871774898,-0.48251734690000003,0.5585058257,0.38394565189999996
03:44:06,0.040225125000000014,1.8003084999999999,-1.7473803749999999,-0.504265875,0.549504625,-0.13455375,-2.970550625,-31.307377875,-0.9090005000000001,169.68885500000002,-1.6114684062500002,1.9832790875,0.6900328875,-0.48141221375000004,0.5557878537500001,0.38142475124999997
03:44:06,0.039366340000000014,1.80444852,-1.7557109,-0.49932266,0.5462446599999999,-0.13683892,-2.96914138,-31.3072637,-0.9096638,169.6728936,-1.621471491,1.989189514,0.6928882852,-0.48030708060000005,0.5530698818,0.3789038506
03:44:06,0.03850755500000001,1.8085885400000001,-1.7640414249999998,-0.494379445,0.5429846949999999,-0.13912409,-2.967732135,-31.307149525,-0.9103271000000001,169.6569322,-1.63147457575,1.9950999405,0.6957436829,-0.47920194745,0.55035190985,0.37638294995
03:44:06,0.03764877000000001,1.81272856,-1.77237195,-0.48943622999999997,0.53972473,-0.14140925999999998,-2.96632289,-31.30703535,-0.9109904000000001,169.64097080000002,-1.6414776605,2.001010367,0.6985990806,-0.4780968143,0.5476339379,0.3738620493
03:44:06,0.03678998500000001,1.81686858,-1.780702475,-0.48449301499999997,0.536464765,-0.14369442999999998,-2.964913645,-31.306921175,-0.9116537,169.6250094,-1.6514807452500002,2.0069207935,0.7014544783000001,-0.47699168115,0.54491596595,0.37134114865
03:44:06,0.03593120000000001,1.8210085999999999,-1.7890329999999999,-0.47954979999999997,0.5332048,-0.1459796,-2.9635044,-31.306807,-0.912317,169.609048,-1.66148383,2.01283122,0.704309876,-0.475886548,0.542197994,0.368820248
03:44:06,0.03507241500000001,1.82514862,-1.7973635249999997,-0.47460658499999997,0.529944835,-0.14826477,-2.962095155,-31.306692825,-0.9129803000000001,169.59308660000002,-1.67148691475,2.0187416465,0.7071652737,-0.47478141485,0.53948002205,0.36629934735
03:44:06,0.03421363000000001,1.82928864,-1.80569405,-0.46966336999999997,0.52668487,-0.15054994,-2.96068591,-31.30657865,-0.9136436,169.5771252,-1.6814899995,2.024652073,0.7100206714,-0.47367628170000003,0.5367620501,0.3637784467
03:44:06,0.03335484500000001,1.83342866,-1.814024575,-0.46472015499999997,0.5234249049999999,-0.15283511,-2.959276665,-31.306464475,-0.9143069,169.5611638,-1.6914930842500002,2.0305624995000002,0.7128760691,-0.47257114855000004,0.53404407815,0.36125754605
03:44:06,0.03249606000000001,1.83756868,-1.8223550999999998,-0.45977693999999997,0.5201649399999999,-0.15512028,-2.95786742,-31.3063503,-0.9149702000000001,169.5452024,-1.7014961690000001,2.036472926,0.7157314668,-0.4714660154,0.5313261062,0.3587366454
03:44:06,0.031637275000000006,1.8417086999999999,-1.8306856249999999,-0.45483372499999997,0.516904975,-0.15740545,-2.956458175,-31.306236125,-0.9156335,169.529241,-1.71149925375,2.0423833525,0.7185868645,-0.47036088225000006,0.52860813425,0.35621574474999995
03:44:06,0.030778490000000006,1.84584872,-1.83901615,-0.44989050999999997,0.51364501,-0.15969062,-2.9550489300000002,-31.30612195,-0.9162968,169.5132796,-1.7215023385000001,2.0482937789999998,0.7214422622000001,-0.4692557491,0.5258901623000001,0.35369484409999996
03:44:06,0.029919705000000005,1.84998874,-1.8473466749999998,-0.44494729499999996,0.510385045,-0.16197578999999998,-2.953639685,-31.306007775,-0.9169601000000001,169.4973182,-1.7315054232500002,2.0542042055,0.7242976599,-0.46815061595,0.52317219035,0.35117394344999997
03:44:06,0.029060920000000018,1.85412876,-1.8556772,-0.44000407999999996,0.50712508,-0.16426095999999998,-2.95223044,-31.3058936,-0.9176234000000001,169.48135680000001,-1.7415085080000001,2.060114632,0.7271530576,-0.4670454828,0.5204542184000001,0.3486530428
03:44:06,0.028202135000000017,1.85826878,-1.864007725,-0.43506086499999996,0.503865115,-0.16654613,-2.950821195,-31.305779425,-0.9182867,169.4653954,-1.75151159275,2.0660250585,0.7300084553,-0.46594034965000003,0.5177362464499999,0.34613214215
03:44:06,0.027343350000000016,1.8624087999999999,-1.8723382499999999,-0.43011764999999996,0.5006051499999999,-0.1688313,-2.94941195,-31.30566525,-0.91895,169.449434,-1.7615146775000001,2.071935485,0.732863853,-0.46483521650000004,0.5150182745,0.3436112415
03:44:06,0.026484565000000015,1.86654882,-1.8806687749999997,-0.42517443499999996,0.49734518499999997,-0.17111647,-2.948002705,-31.305551075,-0.9196133000000001,169.43347260000002,-1.7715177622500002,2.0778459115,0.7357192507,-0.46373008335,0.51230030255,0.34109034085
03:44:06,0.025625780000000015,1.87068884,-1.8889993,-0.42023121999999996,0.49408522,-0.17340164,-2.94659346,-31.3054369,-0.9202766,169.4175112,-1.7815208470000001,2.083756338,0.7385746484,-0.46262495020000005,0.5095823306,0.3385694402
03:44:06,0.024766995000000014,1.87482886,-1.897329825,-0.41528800499999996,0.49082525499999996,-0.17568681,-2.9451842150000003,-31.305322725,-0.9209399,169.4015498,-1.79152393175,2.0896667645,0.7414300461000001,-0.46151981705,0.50686435865,0.33604853955
03:44:06,0.023908210000000013,1.87896888,-1.9056603499999998,-0.41034478999999996,0.48756529,-0.17797198,-2.94377497,-31.30520855,-0.9216032000000001,169.38558840000002,-1.8015270165000001,2.0955771910000003,0.7442854438,-0.4604146839,0.5041463867,0.33352763890000003
03:44:06,0.023049425000000012,1.8831088999999999,-1.9139908749999999,-0.40540157499999996,0.48430532499999995,-0.18025715,-2.942365725,-31.305094375,-0.9222665000000001,169.369627,-1.8115301012500002,2.1014876175,0.7471408415,-0.45930955075,0.50142841475,0.33100673825
03:44:06,0.02219064000000001,1.88724892,-1.9223214,-0.40045836,0.48104536,-0.18254232,-2.94095648,-31.3049802,-0.9229298,169.3536656,-1.8215331860000001,2.107398044,0.7499962392,-0.4582044176,0.4987104428,0.3284858376
03:44:06,0.02133185500000001,1.89138894,-1.9306519249999998,-0.395515145,0.477785395,-0.18482748999999998,-2.939547235,-31.304866025,-0.9235931000000001,169.33770420000002,-1.83153627075,2.1133084705,0.7528516369,-0.45709928445000003,0.49599247085,0.32596493695
03:44:06,0.02047307000000001,1.89552896,-1.93898245,-0.39057193,0.47452542999999997,-0.18711266,-2.93813799,-31.30475185,-0.9242564000000001,169.3217428,-1.8415393555000001,2.119218897,0.7557070346,-0.4559941513,0.4932744989,0.32344403629999996
03:44:06,0.01961428500000001,1.89966898,-1.947312975,-0.385628715,0.471265465,-0.18939783,-2.936728745,-31.304637675,-0.9249197,169.3057814,-1.8515424402500003,2.1251293235,0.7585624323,-0.45488901815000005,0.49055652695,0.32092313564999997
03:44:06,0.01875550000000001,1.9038089999999999,-1.9556434999999999,-0.3806855,0.46800549999999996,-0.191683,-2.9353195000000003,-31.304523500000002,-0.925583,169.28982,-1.8615455250000001,2.1310397500000002,0.7614178300000001,-0.453783885,0.487838555,0.318402235
03:44:06,0.017896715000000007,1.90794902,-1.963974025,-0.375742285,0.464745535,-0.19396817,-2.9339102550000002,-31.304409325,-0.9262463000000001,169.2738586,-1.8715486097500003,2.1369501765,0.7642732277,-0.45267875185,0.48512058305,0.31588133435
03:44:06,0.017037930000000007,1.91208904,-1.97230455,-0.37079907,0.46148556999999996,-0.19625334,-2.93250101,-31.30429515,-0.9269096,169.2578972,-1.8815516945000001,2.142860603,0.7671286254,-0.4515736187,0.4824026111,0.3133604337
03:44:06,0.016179145000000006,1.91622906,-1.980635075,-0.36585585499999995,0.458225605,-0.19853851,-2.931091765,-31.304180975,-0.9275729,169.2419358,-1.89155477925,2.1487710294999998,0.7699840231,-0.45046848555,0.47968463915,0.31083953305
03:44:06,0.015320360000000005,1.92036908,-1.9889655999999998,-0.36091264,0.45496563999999995,-0.20082368,-2.92968252,-31.3040668,-0.9282362000000001,169.2259744,-1.9015578640000002,2.154681456,0.7728394208,-0.4493633524,0.47696666719999997,0.3083186324
03:44:06,0.014461575000000018,1.9245090999999999,-1.9972961249999999,-0.35596942499999995,0.451705675,-0.20310885,-2.928273275,-31.303952625,-0.9288995,169.210013,-1.9115609487500003,2.1605918825,0.7756948185,-0.44825821925000003,0.47424869525,0.30579773175
03:44:06,0.013602790000000017,1.92864912,-2.00562665,-0.35102621,0.44844571,-0.20539401999999998,-2.92686403,-31.30383845,-0.9295628,169.1940516,-1.9215640335000002,2.166502309,0.7785502162,-0.44715308610000004,0.4715307233,0.3032768311
03:44:06,0.012744005000000017,1.93278914,-2.013957175,-0.34608299499999995,0.44518574499999997,-0.20767918999999999,-2.925454785,-31.303724275,-0.9302261000000001,169.1780902,-1.93156711825,2.1724127355,0.7814056139000001,-0.44604795295,0.46881275135,0.30075593045
03:44:06,0.011885220000000016,1.93692916,-2.0222876999999997,-0.34113978,0.44192578,-0.20996436,-2.9240455400000003,-31.3036101,-0.9308894000000001,169.1621288,-1.9415702030000002,2.178323162,0.7842610116,-0.4449428198,0.4660947794,0.2982350298
03:44:06,0.011026435000000015,1.94106918,-2.030618225,-0.33619656499999995,0.43866581499999996,-0.21224953,-2.922636295,-31.303495925,-0.9315527,169.1461674,-1.9515732877500003,2.1842335885,0.7871164093,-0.44383768665,0.46337680745,0.29571412915
03:44:06,0.010167650000000014,1.9452091999999999,-2.03894875,-0.33125335,0.43540585,-0.2145347,-2.92122705,-31.30338175,-0.932216,169.13020600000002,-1.9615763725000002,2.190144015,0.789971807,-0.4427325535,0.4606588355,0.2931932285
03:44:06,0.009308865000000013,1.94934922,-2.047279275,-0.32631013499999995,0.43214588499999995,-0.21681987,-2.919817805,-31.303267575,-0.9328793000000001,169.1142446,-1.97157945725,2.1960544415000003,0.7928272047,-0.44162742035,0.45794086354999997,0.29067232785
03:44:06,0.008450080000000013,1.95348924,-2.0556098,-0.32136692,0.42888592,-0.21910504,-2.91840856,-31.3031534,-0.9335426,169.0982832,-1.9815825420000002,2.201964868,0.7956826024,-0.44052228720000003,0.4552228916,0.2881514272
03:44:06,0.007591295000000012,1.95762926,-2.063940325,-0.31642370499999994,0.425625955,-0.22139021,-2.916999315,-31.303039225,-0.9342059,169.08232180000002,-1.9915856267500003,2.2078752945,0.7985380001,-0.43941715405000004,0.45250491965,0.28563052655
03:44:06,0.006732510000000011,1.96176928,-2.0722708499999998,-0.31148049,0.42236598999999997,-0.22367538,-2.91559007,-31.30292505,-0.9348692000000001,169.0663604,-2.0015887115,2.213785721,0.8013933978000001,-0.4383120209,0.4497869477,0.2831096259
03:44:06,0.00587372500000001,1.9659092999999999,-2.0806013749999996,-0.30653727499999994,0.419106025,-0.22596055,-2.914180825,-31.302810875,-0.9355325000000001,169.050399,-2.0115917962500003,2.2196961475,0.8042487955,-0.43720688775000005,0.44706897575,0.28058872525
03:44:06,0.005014940000000009,1.97004932,-2.0889319,-0.30159406,0.41584605999999996,-0.22824572,-2.9127715800000002,-31.302696700000002,-0.9361958,169.03443760000002,-2.0215948810000004,2.225606574,0.8071041932,-0.4361017546,0.4443510038,0.2780678246
03:44:06,0.004156155000000009,1.97418934,-2.097262425,-0.29665084499999994,0.412586095,-0.23053089000000002,-2.911362335,-31.302582525000002,-0.9368591000000001,169.0184762,-2.0315979657500005,2.2315170005000002,0.8099595909,-0.43499662145,0.44163303184999997,0.27554692395
03:44:06,0.003297370000000008,1.97832936,-2.10559295,-0.29170763,0.40932612999999995,-0.23281606000000002,-2.90995309,-31.30246835,-0.9375224000000001,169.0025148,-2.0416010505,2.237427427,0.8128149886,-0.4338914883,0.4389150599,0.27302602330000003
03:44:06,0.002438585000000007,1.98246938,-2.113923475,-0.28676441499999994,0.406066165,-0.23510122999999997,-2.908543845,-31.302354175,-0.9381857,168.9865534,-2.05160413525,2.2433378535,0.8156703863,-0.43278635514999997,0.43619708795,0.27050512265
03:44:06,0.00157980000000002,1.9866093999999999,-2.122254,-0.2818212,0.4028062,-0.23738639999999997,-2.9071346,-31.30224,-0.938849,168.970592,-2.06160722,2.24924828,0.818525784,-0.43168122200000003,0.433479116,0.267984222
03:44:06,0.0007210150000000193,1.9907494199999998,-2.1305845249999997,-0.27687798499999994,0.39954623499999997,-0.23967156999999997,-2.905725355,-31.302125825,-0.9395123000000001,168.9546306,-2.07161030475,2.2551587065,0.8213811817000001,-0.43057608885,0.43076114405,0.26546332135
03:44:06,-0.00013776999999998152,1.99488944,-2.1389150499999996,-0.27193477,0.39628627,-0.24195673999999998,-2.90431611,-31.30201165,-0.9401756,168.9386692,-2.0816133895,2.261069133,0.8242365794,-0.42947095570000005,0.4280431721,0.2629424207
03:44:06,-0.0009965549999999823,1.99902946,-2.147245575,-0.26699155499999994,0.39302630499999996,-0.24424190999999998,-2.9029068650000003,-31.301897475,-0.9408389,168.9227078,-2.0916164742500003,2.2669795595,0.8270919771,-0.42836582255,0.42532520014999997,0.26042152005
03:44:06,-0.0018553399999999831,2.00316948,-2.1555761,-0.26204834,0.38976634,-0.24652707999999998,-2.90149762,-31.3017833,-0.9415022000000001,168.9067464,-2.1016195590000004,2.272889986,0.8299473748,-0.4272606894,0.42260722819999996,0.25790061940000003
03:44:06,-0.002714124999999984,2.0073095,-2.163906625,-0.25710512499999993,0.38650637499999996,-0.24881224999999998,-2.900088375,-31.301669125,-0.9421655,168.890785,-2.1116226437500005,2.2788004125,0.8328027725,-0.42615555625,0.41988925625,0.25537971875
03:44:06,-0.0035729099999999847,2.0114495199999998,-2.17223715,-0.25216191,0.38324641,-0.25109742,-2.89867913,-31.30155495,-0.9428288,168.8748236,-2.1216257285,2.284710839,0.8356581702,-0.4250504231,0.4171712843,0.2528588181
03:44:06,-0.0044316949999999855,2.0155895399999997,-2.180567675,-0.24721869499999993,0.37998644499999995,-0.25338259,-2.897269885,-31.301440775,-0.9434921000000001,168.8588622,-2.13162881325,2.2906212655,0.8385135679,-0.42394528995,0.41445331235,0.25033791745
03:44:06,-0.005290479999999986,2.01972956,-2.1888981999999997,-0.24227548,0.37672648,-0.25566776,-2.89586064,-31.3013266,-0.9441554000000001,168.8429008,-2.141631898,2.2965316920000003,0.8413689656000001,-0.4228401568,0.4117353404,0.2478170168
03:44:06,-0.006149264999999987,2.02386958,-2.197228725,-0.23733226500000004,0.373466515,-0.25795293,-2.894451395,-31.301212425,-0.9448187,168.82693940000001,-2.15163498275,2.3024421185,0.8442243633,-0.42173502365000004,0.40901736845,0.24529611615000002
03:44:06,-0.007008049999999988,2.0280096,-2.20555925,-0.23238904999999999,0.37020654999999997,-0.2602381,-2.8930421500000003,-31.30109825,-0.945482,168.810978,-2.1616380675,2.308352545,0.847079761,-0.4206298905,0.40629939649999997,0.24277521550000003
03:44:06,-0.007866834999999989,2.0321496199999998,-2.213889775,-0.22744583500000004,0.366946585,-0.26252327000000003,-2.8916329050000003,-31.300984075000002,-0.9461453000000001,168.7950166,-2.1716411522500003,2.3142629715,0.8499351587,-0.41952475735,0.40358142454999996,0.24025431485000004
03:44:06,-0.00872561999999999,2.0362896399999997,-2.2222203,-0.22250261999999998,0.36368661999999996,-0.26480844000000003,-2.89022366,-31.300869900000002,-0.9468086,168.77905520000002,-2.1816442370000004,2.320173398,0.8527905564,-0.4184196242,0.4008634526,0.2377334142
03:44:06,-0.00958440499999999,2.04042966,-2.230550825,-0.21755940500000004,0.360426655,-0.26709361000000004,-2.888814415,-31.300755725000002,-0.9474719,168.7630938,-2.1916473217500005,2.3260838245,0.8556459541,-0.41731449105,0.39814548065,0.23521251355
03:44:06,-0.010443189999999991,2.04456968,-2.2388813499999998,-0.21261618999999998,0.35716668999999995,-0.26937878000000004,-2.88740517,-31.30064155,-0.9481352000000001,168.7471324,-2.2016504065,2.3319942510000002,0.8585013518,-0.4162093579,0.3954275087,0.2326916129
03:44:06,-0.011301974999999992,2.0487097,-2.2472118749999996,-0.20767297500000004,0.353906725,-0.27166395000000004,-2.885995925,-31.300527375,-0.9487985000000001,168.73117100000002,-2.21165349125,2.3379046775,0.8613567495000001,-0.41510422475,0.39270953675,0.23017071225000002
03:44:06,-0.012160759999999993,2.0528497199999998,-2.2555424,-0.20272975999999998,0.35064675999999995,-0.27394912000000005,-2.88458668,-31.3004132,-0.9494618,168.7152096,-2.221656576,2.343815104,0.8642121472,-0.41399909160000004,0.38999156479999997,0.22764981160000003
03:44:06,-0.01301954499999998,2.0569897399999997,-2.263872925,-0.19778654500000004,0.34738679499999997,-0.27623429000000005,-2.883177435,-31.300299025,-0.9501251000000001,168.6992482,-2.23165966075,2.3497255305,0.8670675449,-0.41289395845,0.38727359284999996,0.22512891095000004
03:44:06,-0.01387832999999998,2.06112976,-2.27220345,-0.19284332999999998,0.34412683,-0.27851946,-2.8817681900000003,-31.30018485,-0.9507884000000001,168.6832868,-2.2416627455,2.355635957,0.8699229426,-0.4117888253,0.38455562089999995,0.2226080103
03:44:06,-0.014737114999999981,2.06526978,-2.280533975,-0.18790011500000003,0.34086686499999996,-0.28080463,-2.8803589450000002,-31.300070675,-0.9514517,168.6673254,-2.2516658302500003,2.3615463835000003,0.8727783403,-0.41068369215,0.38183764895,0.22008710965
03:44:06,-0.015595899999999982,2.0694098,-2.2888645,-0.18295689999999998,0.3376069,-0.2830898,-2.8789497,-31.2999565,-0.952115,168.651364,-2.2616689150000004,2.36745681,0.875633738,-0.409578559,0.379119677,0.217566209
03:44:06,-0.016454684999999983,2.0735498199999998,-2.2971950249999997,-0.17801368500000003,0.33434693499999996,-0.28537497,-2.877540455,-31.299842325,-0.9527783000000001,168.6354026,-2.2716719997500006,2.3733672365,0.8784891357,-0.40847342585,0.37640170505,0.21504530835000002
03:44:06,-0.017313469999999984,2.0776898399999997,-2.3055255499999996,-0.17307046999999998,0.33108697,-0.28766014,-2.87613121,-31.29972815,-0.9534416,168.6194412,-2.2816750845000002,2.379277663,0.8813445334000001,-0.40736829269999997,0.37368373309999997,0.21252440770000003
03:44:06,-0.018172254999999984,2.08182986,-2.313856075,-0.16812725500000003,0.32782700499999995,-0.28994531,-2.874721965,-31.299613975,-0.9541049,168.6034798,-2.29167816925,2.3851880895,0.8841999311,-0.40626315955000003,0.37096576114999996,0.21000350705000004
03:44:06,-0.019031039999999985,2.08596988,-2.3221866,-0.16318403999999997,0.32456704,-0.29223048,-2.87331272,-31.2994998,-0.9547682000000001,168.5875184,-2.301681254,2.391098516,0.8870553288,-0.4051580264,0.36824778919999995,0.20748260640000005
03:44:06,-0.019889824999999986,2.0901099,-2.330517125,-0.15824082500000003,0.321307075,-0.29451565,-2.8719034750000003,-31.299385625,-0.9554315,168.571557,-2.31168433875,2.3970089425000003,0.8899107265,-0.40405289325,0.36552981725,0.20496170575
03:44:06,-0.020748609999999973,2.0942499199999998,-2.33884765,-0.15329760999999997,0.31804710999999997,-0.29680082,-2.8704942300000003,-31.29927145,-0.9560948,168.5555956,-2.3216874235000002,2.402919369,0.8927661242,-0.4029477601,0.3628118453,0.2024408051
03:44:06,-0.021607394999999974,2.0983899399999997,-2.347178175,-0.14835439500000003,0.314787145,-0.29908599,-2.869084985,-31.299157275000002,-0.9567581000000001,168.5396342,-2.3316905082500003,2.4088297955,0.8956215219,-0.40184262695,0.36009387335,0.19991990445000002
03:44:06,-0.022466179999999975,2.10252996,-2.3555086999999997,-0.14341117999999997,0.31152717999999996,-0.30137116,-2.86767574,-31.299043100000002,-0.9574214000000001,168.5236728,-2.3416935930000005,2.414740222,0.8984769196,-0.4007374938,0.3573759014,0.19739900380000003
03:44:06,-0.023324964999999975,2.10666998,-2.363839225,-0.13846796500000003,0.308267215,-0.30365633000000003,-2.866266495,-31.298928925000002,-0.9580847,168.5077114,-2.3516966777500006,2.4206506485,0.9013323173000001,-0.39963236064999996,0.35465792944999996,0.19487810315000004
03:44:06,-0.024183749999999976,2.11081,-2.37216975,-0.13352474999999997,0.30500724999999995,-0.30594150000000003,-2.86485725,-31.298814750000002,-0.958748,168.49175,-2.3616997625000002,2.426561075,0.904187715,-0.3985272275,0.35193995749999996,0.19235720250000005
03:44:06,-0.025042534999999977,2.1149500199999998,-2.380500275,-0.12858153500000002,0.301747285,-0.30822667000000004,-2.863448005,-31.298700575,-0.9594113000000001,168.47578860000002,-2.37170284725,2.4324715015000002,0.9070431127,-0.39742209435,0.34922198554999995,0.18983630185
03:44:06,-0.025901319999999978,2.1190900399999997,-2.3888308,-0.12363831999999997,0.29848732,-0.31051184000000004,-2.86203876,-31.2985864,-0.9600746,168.4598272,-2.381705932,2.438381928,0.9098985104,-0.3963169612,0.3465040136,0.1873154012
03:44:06,-0.02676010499999998,2.12323006,-2.397161325,-0.11869510500000002,0.29522735499999997,-0.31279701000000004,-2.8606295150000003,-31.298472225,-0.9607379,168.4438658,-2.39170901675,2.4442923545,0.9127539081,-0.39521182805,0.34378604165,0.18479450055000002
03:44:06,-0.02761888999999998,2.12737008,-2.4054918499999998,-0.11375188999999997,0.29196738999999994,-0.31508218000000004,-2.8592202700000002,-31.29835805,-0.9614012000000001,168.4279044,-2.4017121015000003,2.450202781,0.9156093058000001,-0.3941066949,0.3410680697,0.18227359990000003
03:44:06,-0.02847767499999998,2.1315101,-2.4138223749999996,-0.10880867500000002,0.288707425,-0.31736735000000005,-2.857811025,-31.298243875,-0.9620645000000001,168.411943,-2.4117151862500004,2.4561132075,0.9184647035,-0.39300156175,0.33835009774999997,0.17975269925000004
03:44:06,-0.02933645999999998,2.1356501199999998,-2.4221529,-0.10386545999999997,0.28544746,-0.31965252,-2.85640178,-31.2981297,-0.9627278,168.3959816,-2.4217182710000005,2.4620236340000003,0.9213201012000001,-0.39189642859999996,0.33563212579999996,0.17723179860000005
03:44:06,-0.03019524499999998,2.1397901399999997,-2.430483425,-0.09892224500000002,0.28218749499999995,-0.32193769,-2.854992535,-31.298015525,-0.9633911000000001,168.3800202,-2.4317213557500006,2.4679340605,0.9241754989,-0.39079129545,0.33291415384999995,0.17471089795
03:44:06,-0.031054029999999982,2.14393016,-2.43881395,-0.09397902999999996,0.2789275299999999,-0.32422286,-2.85358329,-31.29790135,-0.9640544000000001,168.3640588,-2.4417244405000003,2.473844487,0.9270308966,-0.38968616229999997,0.33019618189999994,0.1721899973
03:44:06,-0.03191281499999998,2.14807018,-2.447144475,-0.08903581500000002,0.275667565,-0.32650803,-2.852174045,-31.297787175,-0.9647177,168.3480974,-2.45172752525,2.4797549135,0.9298862943,-0.38858102915000003,0.32747820995,0.16966909665000002
03:44:06,-0.032771599999999984,2.1522102,-2.455475,-0.08409259999999996,0.27240759999999997,-0.3287932,-2.8507648000000003,-31.297673,-0.965381,168.332136,-2.46173061,2.48566534,0.932741692,-0.387475896,0.324760238,0.16714819600000003
03:44:06,-0.033630384999999985,2.1563502199999998,-2.4638055249999997,-0.07914938500000002,0.26914763499999994,-0.33107837,-2.8493555550000003,-31.297558825,-0.9660443000000001,168.3161746,-2.47173369475,2.4915757665,0.9355970897000001,-0.38637076285,0.32204226604999997,0.16462729535000004
03:44:06,-0.034489169999999986,2.1604902399999997,-2.4721360499999996,-0.07420616999999996,0.26588767,-0.33336354,-2.84794631,-31.297444650000003,-0.9667076,168.3002132,-2.4817367795000003,2.4974861930000003,0.9384524874,-0.3852656297,0.31932429409999996,0.16210639470000004
03:44:06,-0.035347954999999986,2.16463026,-2.480466575,-0.06926295500000001,0.262627705,-0.33564871,-2.846537065,-31.297330475000003,-0.9673709,168.2842518,-2.4917398642500004,2.5033966195,0.9413078851000001,-0.38416049654999995,0.31660632214999995,0.15958549405000005
03:44:06,-0.03620673999999999,2.16877028,-2.4887971,-0.06431973999999996,0.25936773999999996,-0.33793388,-2.84512782,-31.297216300000002,-0.9680342000000001,168.2682904,-2.5017429490000005,2.509307046,0.9441632828,-0.3830553634,0.31388835019999994,0.1570645934
03:44:06,-0.03706552499999999,2.1729103,-2.497127625,-0.05937652500000001,0.2561077749999999,-0.34021905,-2.843718575,-31.297102125000002,-0.9686975,168.252329,-2.5117460337500006,2.5152174725000003,0.9470186805,-0.38195023024999997,0.31117037824999993,0.15454369275000002
03:44:06,-0.03792430999999999,2.1770503199999998,-2.50545815,-0.05443330999999996,0.25284781,-0.34250422,-2.84230933,-31.296987950000002,-0.9693608,168.2363676,-2.5217491185000003,2.521127899,0.9498740782,-0.38084509710000003,0.3084524063,0.15202279210000003
03:44:06,-0.03878309499999999,2.1811903399999997,-2.513788675,-0.04949009500000001,0.24958784499999997,-0.34478939000000003,-2.8409000850000004,-31.296873775,-0.9700241000000001,168.2204062,-2.53175220325,2.5270383255,0.9527294759,-0.37973996395,0.30573443435,0.14950189145000004
03:44:06,-0.03964187999999999,2.18533036,-2.5221191999999997,-0.044546879999999955,0.24632787999999994,-0.34707456000000003,-2.8394908400000003,-31.2967596,-0.9706874000000001,168.2044448,-2.541755288,2.5329487520000002,0.9555848736000001,-0.3786348308,0.30301646239999996,0.14698099080000004
03:44:06,-0.04050066499999999,2.18947038,-2.530449725,-0.03960366500000001,0.24306791500000002,-0.34935973000000003,-2.8380815950000002,-31.296645425,-0.9713507,168.1884834,-2.55175837275,2.5388591785,0.9584402713,-0.37752969765,0.30029849044999996,0.14446009015000005
03:44:06,-0.04135944999999999,2.1936104,-2.53878025,-0.034660449999999954,0.23980795,-0.35164490000000004,-2.83667235,-31.29653125,-0.972014,168.17252200000001,-2.5617614575000003,2.544769605,0.9612956690000001,-0.3764245645,0.29758051849999995,0.1419391895
03:44:06,-0.04221823499999999,2.1977504199999998,-2.547110775,-0.02971723500000001,0.23654798499999996,-0.35393007000000004,-2.835263105,-31.296417075,-0.9726773000000001,168.1565606,-2.5717645422500004,2.5506800315000002,0.9641510667,-0.37531943135,0.29486254654999994,0.13941828885000002
03:44:06,-0.043077019999999994,2.2018904399999997,-2.5554413,-0.024774019999999952,0.23328801999999993,-0.35621524000000004,-2.83385386,-31.2963029,-0.9733406,168.1405992,-2.5817676270000005,2.556590458,0.9670064644,-0.37421429819999996,0.2921445746,0.13689738820000003
03:44:06,-0.043935804999999994,2.20603046,-2.563771825,-0.019830805000000007,0.230028055,-0.35850041000000005,-2.832444615,-31.296188725,-0.9740039,168.1246378,-2.5917707117500006,2.5625008845000004,0.9698618621,-0.37310916505,0.28942660265,0.13437648755000003
03:44:06,-0.044794589999999995,2.21017048,-2.5721023499999998,-0.01488758999999995,0.22676808999999998,-0.36078558,-2.83103537,-31.29607455,-0.9746672000000001,168.1086764,-2.6017737965000003,2.568411311,0.9727172598,-0.3720040319,0.28670863069999997,0.13185558690000004
03:44:06,-0.045653374999999996,2.2143105,-2.5804328749999996,-0.009944375000000005,0.22350812499999995,-0.36307075,-2.8296261250000003,-31.295960375,-0.9753305000000001,168.092715,-2.61177688125,2.5743217375,0.9755726575000001,-0.37089889875,0.28399065874999996,0.12933468625000005
03:44:06,-0.04651215999999997,2.2184505199999998,-2.5887634,-0.005001159999999949,0.22024816000000003,-0.36535592,-2.8282168800000003,-31.2958462,-0.9759938,168.0767536,-2.621779966,2.580232164,0.9784280552,-0.3697937656,0.28127268679999995,0.1268137856
03:44:06,-0.04737094499999997,2.2225905399999997,-2.597093925,-5.794500000000369e-05,0.216988195,-0.36764109,-2.826807635,-31.295732025000003,-0.9766571000000001,168.0607922,-2.63178305075,2.5861425905,0.9812834529000001,-0.36868863245,0.27855471484999994,0.12429288495000002
03:44:06,-0.04822972999999997,2.22673056,-2.60542445,0.004885270000000053,0.21372822999999996,-0.36992626,-2.82539839,-31.295617850000003,-0.9773204000000001,168.0448308,-2.6417861355000003,2.5920530170000005,0.9841388506000001,-0.3675834993,0.27583674289999993,0.12177198430000002
03:44:06,-0.04908851499999997,2.23087058,-2.613754975,0.009828484999999998,0.21046826499999993,-0.37221143,-2.823989145,-31.295503675000003,-0.9779837,168.0288694,-2.6517892202500004,2.5979634435000003,0.9869942483,-0.36647836614999996,0.27311877095,0.11925108365000003
03:44:06,-0.04994729999999997,2.2350106,-2.6220855,0.014771700000000054,0.2072083,-0.3744966,-2.8225799,-31.295389500000002,-0.978647,168.012908,-2.6617923050000005,2.60387387,0.989849646,-0.365373233,0.27040079899999997,0.11673018300000004
03:44:06,-0.05080608499999997,2.2391506199999998,-2.6304160249999997,0.019714915,0.20394833499999998,-0.37678177,-2.821170655,-31.295275325000002,-0.9793103000000001,167.9969466,-2.6717953897500006,2.6097842965,0.9927050437,-0.36426809984999997,0.26768282704999996,0.11420928235000005
03:44:06,-0.051664869999999974,2.2432906399999997,-2.6387465499999996,0.024658130000000056,0.20068836999999995,-0.37906694,-2.81976141,-31.295161150000002,-0.9799736,167.9809852,-2.6817984745000003,2.615694723,0.9955604414,-0.3631629667,0.26496485509999995,0.11168838170000006
03:44:06,-0.052523654999999975,2.24743066,-2.647077075,0.029601345,0.19742840499999992,-0.38135211,-2.8183521650000003,-31.295046975,-0.9806369,167.9650238,-2.69180155925,2.6216051495,0.9984158391,-0.36205783355,0.26224688314999994,0.10916748105000001
03:44:06,-0.053382439999999975,2.25157068,-2.6554076,0.03454456000000006,0.19416844,-0.38363728,-2.8169429200000002,-31.2949328,-0.9813002000000001,167.9490624,-2.701804644,2.6275155760000004,1.0012712368,-0.3609527004,0.2595289112,0.10664658040000002
03:44:06,-0.054241224999999976,2.2557107,-2.663738125,0.039487775,0.19090847499999997,-0.38592245000000003,-2.815533675,-31.294818625,-0.9819635,167.933101,-2.71180772875,2.6334260025000003,1.0041266345,-0.35984756725,0.25681093925,0.10412567975000003
03:44:06,-0.05510000999999998,2.2598507199999998,-2.67206865,0.04443099000000006,0.18764850999999994,-0.38820762000000003,-2.81412443,-31.29470445,-0.9826268,167.9171396,-2.7218108135000003,2.639336429,1.0069820322,-0.35874243409999995,0.25409296729999997,0.10160477910000004
03:44:06,-0.05595879499999998,2.2639907399999997,-2.680399175,0.049374205000000004,0.18438854500000001,-0.39049279000000003,-2.812715185,-31.294590275,-0.9832901000000001,167.9011782,-2.7318138982500004,2.6452468555,1.0098374299000001,-0.35763730095,0.25137499534999996,0.09908387845000005
03:44:06,-0.05681757999999998,2.26813076,-2.6887296999999997,0.05431742000000006,0.18112857999999998,-0.39277796000000004,-2.81130594,-31.2944761,-0.9839534000000001,167.8852168,-2.7418169830000005,2.6511572820000002,1.0126928276,-0.35653216779999997,0.24865702339999995,0.09656297780000006
03:44:06,-0.05767636499999998,2.27227078,-2.697060225,0.059260635000000006,0.17786861499999995,-0.39506313000000004,-2.809896695,-31.294361925,-0.9846167,167.86925540000001,-2.7518200677500007,2.6570677085,1.0155482252999999,-0.35542703465,0.24593905144999995,0.09404207715000001
03:44:06,-0.05853514999999998,2.2764108,-2.70539075,0.06420385000000006,0.17460864999999992,-0.39734830000000004,-2.8084874500000003,-31.29424775,-0.98528,167.853294,-2.7618231525000003,2.6629781350000004,1.018403623,-0.3543219015,0.24322107949999994,0.09152117650000002
03:44:06,-0.05939393499999998,2.2805508199999998,-2.713721275,0.06914706500000001,0.171348685,-0.39963347000000005,-2.8070782050000003,-31.294133575,-0.9859433000000001,167.8373326,-2.77182623725,2.6688885615,1.0212590207,-0.35321676835,0.24050310754999993,0.08900027585000003
03:44:06,-0.06025271999999998,2.2846908399999997,-2.7220518,0.07409027999999995,0.16808871999999997,-0.40191864000000005,-2.80566896,-31.2940194,-0.9866066,167.8213712,-2.781829322,2.674798988,1.0241144184,-0.3521116352,0.23778513559999992,0.08647937520000004
03:44:06,-0.06111150499999998,2.28883086,-2.730382325,0.07903349500000001,0.16482875499999994,-0.40420381,-2.804259715,-31.293905225000003,-0.9872699,167.8054098,-2.79183240675,2.6807094145,1.0269698161,-0.35100650204999995,0.2350671636499999,0.08395847455000005
03:44:06,-0.06197028999999998,2.29297088,-2.7387128499999998,0.08397670999999995,0.16156879000000002,-0.40648898,-2.80285047,-31.293791050000003,-0.9879332000000001,167.7894484,-2.8018354915000003,2.686619841,1.0298252138000001,-0.3499013689,0.2323491916999999,0.08143757390000006
03:44:06,-0.06282907499999998,2.2971109,-2.7470433749999996,0.08891992500000001,0.158308825,-0.40877415,-2.801441225,-31.293676875000003,-0.9885965000000001,167.773487,-2.8118385762500004,2.6925302675000005,1.0326806115,-0.34879623574999996,0.2296312197499999,0.07891667325000007
03:44:06,-0.06368785999999999,2.3012509199999998,-2.7553739,0.09386313999999996,0.15504885999999996,-0.41105932,-2.80003198,-31.293562700000003,-0.9892598,167.7575256,-2.8218416610000006,2.6984406940000003,1.0355360091999999,-0.34769110259999997,0.2269132478,0.07639577260000002
03:44:06,-0.06454664499999999,2.3053909399999997,-2.7637044250000002,0.09880635500000001,0.15178889499999992,-0.41334449,-2.7986227350000004,-31.293448525000002,-0.9899231000000001,167.7415642,-2.8318447457500007,2.7043511205,1.0383914069,-0.34658596945,0.22419527585,0.07387487195000003
03:44:06,-0.06540542999999999,2.30953096,-2.77203495,0.10374956999999996,0.14852893,-0.41562966,-2.7972134900000003,-31.293334350000002,-0.9905864000000001,167.7256028,-2.8418478305000003,2.710261547,1.0412468046,-0.3454808363,0.22147730389999998,0.07135397130000004
03:44:06,-0.06626421499999999,2.31367098,-2.780365475,0.10869278500000001,0.14526896499999997,-0.41791483,-2.7958042450000002,-31.293220175000002,-0.9912497,167.7096414,-2.85185091525,2.7161719735,1.0441022023,-0.34437570315,0.21875933194999997,0.06883307065
03:44:07,-0.067123,2.317811,-2.788696,0.113636,0.142009,-0.4202,-2.794395,-31.293106,-0.991913,167.69368,-2.861854,2.7220824,1.0469576,-0.34327057,0.21604136,0.06631217
03:44:07,-0.05848428,2.31273224,-2.78426057,0.112922215,0.14241916,-0.417185065,-2.7772579150000003,-31.29480724,-0.97823437,165.9595196,-2.84979873865,2.7124272135000003,1.03997192675,-0.34069782345,0.21622461169999999,0.065615411825
03:44:07,-0.049845560000000004,2.30765348,-2.77982514,0.11220843,0.14282932,-0.41417013,-2.76012083,-31.29650848,-0.96455574,164.2253592,-2.8377434773,2.702772027,1.0329862535,-0.3381250769,0.21640786339999998,0.06491865365
03:44:07,-0.04120684000000001,2.30257472,-2.77538971,0.111494645,0.14323948,-0.41115519500000003,-2.742983745,-31.298209720000003,-0.9508771100000001,162.4911988,-2.82568821595,2.6931168405,1.02600058025,-0.33555233035,0.21659111509999998,0.064221895475
03:44:07,-0.032568120000000006,2.29749596,-2.7709542799999998,0.11078086,0.14364964,-0.40814026000000003,-2.72584666,-31.299910960000002,-0.9371984800000001,160.7570384,-2.8136329546,2.6834616540000003,1.019014907,-0.3329795838,0.21677436679999998,0.0635251373
03:44:07,-0.023929400000000003,2.2924172,-2.7665188499999998,0.110067075,0.1440598,-0.40512532500000004,-2.7087095750000003,-31.3016122,-0.92351985,159.022878,-2.80157769325,2.6738064675,1.01202923375,-0.33040683725,0.21695761849999998,0.062828379125
03:44:07,-0.015290680000000008,2.2873384399999996,-2.7620834199999997,0.10935329,0.14446996,-0.40211039000000004,-2.69157249,-31.30331344,-0.90984122,157.2887176,-2.7895224319,2.664151281,1.0050435605,-0.32783409069999997,0.2171408702,0.06213162095000001
03:44:07,-0.006651960000000012,2.2822596799999997,-2.7576479899999997,0.108639505,0.14488012,-0.399095455,-2.674435405,-31.305014680000003,-0.8961625900000001,155.5545572,-2.77746717055,2.6544960945000002,0.99805788725,-0.32526134415,0.2173241219,0.061434862775
03:44:07,0.00198675999999999,2.2771809199999997,-2.7532125599999997,0.10792572,0.14529028,-0.39608052,-2.65729832,-31.306715920000002,-0.8824839600000001,153.8203968,-2.7654119092,2.644840908,0.991072214,-0.3226885976,0.2175073736,0.0607381046
03:44:07,0.010625479999999993,2.2721021599999998,-2.7487771299999997,0.10721193500000001,0.14570044,-0.393065585,-2.6401612350000003,-31.30841716,-0.86880533,152.0862364,-2.75335664785,2.6351857215,0.98408654075,-0.32011585105,0.2176906253,0.060041346425
03:44:07,0.019264199999999995,2.2670234,-2.7443416999999997,0.10649815,0.1461106,-0.39005065,-2.62302415,-31.3101184,-0.8551267,150.352076,-2.7413013865,2.625530535,0.9771008675,-0.3175431045,0.217873877,0.059344588250000004
03:44:07,0.027902919999999984,2.26194464,-2.7399062699999996,0.105784365,0.14652076,-0.387035715,-2.605887065,-31.311819640000003,-0.84144807,148.6179156,-2.72924612515,2.6158753485,0.97011519425,-0.31497035795,0.2180571287,0.058647830075000004
03:44:07,0.036541639999999986,2.25686588,-2.73547084,0.10507058,0.14693092,-0.38402078,-2.5887499800000002,-31.313520880000002,-0.82776944,146.8837552,-2.7171908638,2.606220162,0.963129521,-0.3123976114,0.2182403804,0.057951071900000005
03:44:07,0.04518035999999999,2.25178712,-2.73103541,0.104356795,0.14734107999999999,-0.381005845,-2.5716128950000003,-31.31522212,-0.81409081,145.1495948,-2.70513560245,2.5965649755,0.95614384775,-0.30982486485,0.2184236321,0.057254313725000006
03:44:07,0.05381907999999998,2.24670836,-2.72659998,0.10364301000000001,0.14775124,-0.37799091,-2.55447581,-31.31692336,-0.80041218,143.4154344,-2.6930803411,2.586909789,0.9491581745000001,-0.3072521183,0.21860688379999998,0.056557555550000006
03:44:07,0.062457799999999994,2.2416296,-2.72216455,0.102929225,0.1481614,-0.374975975,-2.537338725,-31.318624600000003,-0.78673355,141.681274,-2.6810250797500004,2.5772546025,0.9421725012500001,-0.30467937175,0.21879013549999998,0.05586079737500001
03:44:07,0.07109651999999998,2.23655084,-2.71772912,0.10221544,0.14857156,-0.37196104,-2.5202016400000002,-31.320325840000002,-0.7730549200000001,139.9471136,-2.6689698184,2.567599416,0.9351868280000001,-0.3021066252,0.21897338719999998,0.0551640392
03:44:07,0.07973523999999997,2.2314720799999996,-2.71329369,0.101501655,0.14898171999999998,-0.368946105,-2.5030645550000004,-31.32202708,-0.7593762900000001,138.2129532,-2.6569145570500003,2.5579442295000003,0.9282011547500001,-0.29953387865,0.21915663889999998,0.05446728102500001
03:44:07,0.08837395999999999,2.2263933199999997,-2.70885826,0.10078787,0.14939188,-0.36593117000000003,-2.48592747,-31.32372832,-0.74569766,136.4787928,-2.6448592957000003,2.548289043,0.9212154815,-0.29696113209999997,0.2193398906,0.05377052285
03:44:07,0.09701267999999998,2.2213145599999997,-2.70442283,0.10007408500000001,0.14980204,-0.36291623500000003,-2.468790385,-31.32542956,-0.73201903,134.7446324,-2.6328040343500003,2.5386338565,0.91422980825,-0.29438838555,0.2195231423,0.053073764675
03:44:07,0.10565139999999999,2.2162357999999998,-2.6999874,0.0993603,0.1502122,-0.35990130000000004,-2.4516533000000003,-31.327130800000003,-0.7183404,133.010472,-2.6207487730000003,2.52897867,0.907244135,-0.29181563899999996,0.219706394,0.0523770065
03:44:07,0.11429011999999998,2.21115704,-2.69555197,0.098646515,0.15062235999999998,-0.35688636500000004,-2.4345162150000004,-31.32883204,-0.70466177,131.27631159999999,-2.6086935116500003,2.5193234835,0.90025846175,-0.28924289245,0.2198896457,0.051680248325000004
03:44:07,0.12292883999999997,2.20607828,-2.69111654,0.09793273,0.15103252,-0.35387143,-2.41737913,-31.33053328,-0.69098314,129.5421512,-2.5966382503000003,2.509668297,0.8932727885,-0.2866701459,0.2200728974,0.050983490150000005
03:44:07,0.13156755999999997,2.20099952,-2.68668111,0.097218945,0.15144268,-0.35085649500000005,-2.400242045,-31.33223452,-0.67730451,127.8079908,-2.5845829889500003,2.5000131105000003,0.88628711525,-0.28409739935,0.2202561491,0.050286731975000006
03:44:07,0.14020627999999996,2.19592076,-2.68224568,0.09650516,0.15185284,-0.34784156,-2.3831049600000003,-31.333935760000003,-0.66362588,126.07383039999999,-2.5725277276000003,2.490357924,0.879301442,-0.2815246528,0.2204394008,0.049589973800000006
03:44:07,0.14884499999999995,2.190842,-2.67781025,0.095791375,0.15226299999999998,-0.344826625,-2.365967875,-31.335637000000002,-0.6499472500000001,124.33967,-2.5604724662500002,2.4807027375,0.87231576875,-0.27895190625,0.2206226525,0.048893215625
03:44:07,0.15748372,2.18576324,-2.67337482,0.09507759,0.15267316,-0.34181169,-2.34883079,-31.33733824,-0.6362686200000001,122.6055096,-2.5484172049000002,2.4710475510000003,0.8653300955000001,-0.2763791597,0.22080590419999999,0.04819645745000001
03:44:07,0.16612243999999998,2.18068448,-2.66893939,0.094363805,0.15308332,-0.338796755,-2.331693705,-31.33903948,-0.62258999,120.8713492,-2.53636194355,2.4613923645,0.8583444222500001,-0.27380641315,0.22098915589999998,0.047499699275
03:44:07,0.17476115999999997,2.17560572,-2.66450396,0.09365002,0.15349348,-0.33578182,-2.3145566200000003,-31.340740720000003,-0.60891136,119.13718879999999,-2.5243066822,2.451737178,0.8513587490000001,-0.2712336666,0.22117240759999998,0.04680294110000001
03:44:07,0.18339987999999996,2.1705269599999997,-2.6600685299999998,0.092936235,0.15390364,-0.332766885,-2.2974195350000004,-31.342441960000002,-0.59523273,117.4030284,-2.51225142085,2.4420819915000003,0.8443730757500001,-0.26866092005,0.22135565929999998,0.046106182925
03:44:07,0.1920386,2.1654481999999997,-2.6556330999999997,0.09222245,0.1543138,-0.32975195,-2.28028245,-31.3441432,-0.5815541,115.668868,-2.5001961595,2.432426805,0.8373874025000001,-0.26608817349999997,0.221538911,0.04540942475
03:44:07,0.20067732,2.1603694399999998,-2.6511976699999997,0.091508665,0.15472396,-0.326737015,-2.263145365,-31.34584444,-0.56787547,113.9347076,-2.48814089815,2.4227716185,0.8304017292500001,-0.26351542694999996,0.2217221627,0.044712666575000004
03:44:07,0.20931603999999998,2.15529068,-2.6467622399999997,0.09079488,0.15513412,-0.32372208,-2.2460082800000003,-31.347545680000003,-0.55419684,112.20054719999999,-2.4760856368,2.4131164320000003,0.8234160560000001,-0.2609426804,0.2219054144,0.044015908400000005
03:44:07,0.21795475999999997,2.15021192,-2.6423268099999997,0.090081095,0.15554428,-0.320707145,-2.228871195,-31.349246920000002,-0.54051821,110.4663868,-2.46403037545,2.4034612455,0.8164303827500001,-0.25836993384999996,0.2220886661,0.043319150225000005
03:44:07,0.22659347999999996,2.14513316,-2.6378913799999997,0.08936731,0.15595444,-0.31769221000000003,-2.21173411,-31.35094816,-0.5268395800000001,108.7322264,-2.4519751141,2.393806059,0.8094447095,-0.2557971873,0.2222719178,0.042622392050000006
03:44:07,0.2352322,2.1400544,-2.63345595,0.088653525,0.1563646,-0.314677275,-2.194597025,-31.3526494,-0.5131609500000001,106.998066,-2.43991985275,2.3841508725000002,0.80245903625,-0.25322444075,0.2224551695,0.04192563387500001
03:44:07,0.24387092,2.13497564,-2.62902052,0.08793974,0.15677475999999999,-0.31166234000000004,-2.1774599400000003,-31.35435064,-0.49948232000000004,105.26390559999999,-2.4278645914,2.374495686,0.795473363,-0.2506516942,0.2226384212,0.0412288757
03:44:07,0.25250964,2.12989688,-2.62458509,0.087225955,0.15718492,-0.308647405,-2.1603228550000004,-31.356051880000003,-0.48580369,103.5297452,-2.41580933005,2.3648404995,0.78848768975,-0.24807894765,0.2228216729,0.04053211752500001
03:44:07,0.26114835999999997,2.12481812,-2.62014966,0.08651217,0.15759508,-0.30563247,-2.14318577,-31.35775312,-0.47212506,101.7955848,-2.4037540687,2.3551853130000002,0.7815020165000001,-0.2455062011,0.2230049246,0.03983535935
03:44:07,0.26978707999999996,2.11973936,-2.61571423,0.085798385,0.15800524,-0.302617535,-2.126048685,-31.35945436,-0.45844643000000007,100.06142439999999,-2.39169880735,2.3455301265,0.7745163432500001,-0.24293345454999998,0.22318817629999999,0.03913860117500001
03:44:07,0.2784258,2.1146605999999997,-2.6112788,0.08508460000000001,0.15841539999999998,-0.2996026,-2.1089116000000003,-31.3611556,-0.44476780000000005,98.327264,-2.379643546,2.33587494,0.7675306700000001,-0.24036070799999998,0.22337142799999998,0.038441843
03:44:07,0.28706452,2.1095818399999997,-2.60684337,0.084370815,0.15882556,-0.296587665,-2.091774515,-31.362856840000003,-0.43108917,96.59310359999999,-2.36758828465,2.3262197535,0.7605449967500001,-0.23778796144999997,0.22355467969999998,0.037745084825000004
03:44:07,0.29570324,2.1045030799999997,-2.60240794,0.08365703,0.15923572,-0.29357273,-2.07463743,-31.364558080000002,-0.41741054,94.8589432,-2.3555330233,2.316564567,0.7535593235,-0.23521521489999997,0.2237379314,0.037048326650000005
03:44:07,0.30434195999999997,2.09942432,-2.59797251,0.082943245,0.15964588,-0.290557795,-2.0575003450000002,-31.36625932,-0.40373190999999997,93.12478279999999,-2.34347776195,2.3069093805,0.74657365025,-0.23264246834999996,0.2239211831,0.036351568475000005
03:44:07,0.31298067999999996,2.09434556,-2.59353708,0.08222946,0.16005603999999998,-0.28754286,-2.0403632600000003,-31.36796056,-0.39005328000000006,91.3906224,-2.3314225006000004,2.297254194,0.739587977,-0.2300697218,0.2241044348,0.035654810300000006
03:44:07,0.32161939999999994,2.0892668,-2.58910165,0.08151567500000001,0.1604662,-0.284527925,-2.0232261750000005,-31.369661800000003,-0.37637465000000003,89.65646199999999,-2.31936723925,2.2875990075,0.73260230375,-0.22749697524999998,0.2242876865,0.03495805212500001
03:44:07,0.33025812,2.08418804,-2.58466622,0.08080189,0.16087636,-0.28151299,-2.00608909,-31.371363040000002,-0.36269602,87.9223016,-2.3073119779000004,2.277943821,0.7256166305,-0.22492422869999998,0.2244709382,0.03426129395000001
03:44:07,0.33889684,2.07910928,-2.58023079,0.08008810499999999,0.16128652,-0.278498055,-1.9889520050000002,-31.37306428,-0.34901739,86.18814119999999,-2.29525671655,2.2682886345,0.71863095725,-0.22235148215,0.2246541899,0.03356453577500001
03:44:07,0.34753555999999997,2.07403052,-2.57579536,0.07937432,0.16169667999999998,-0.27548311999999997,-1.9718149200000001,-31.37476552,-0.33533875999999996,84.4539808,-2.2832014552000004,2.2586334480000003,0.711645284,-0.2197787356,0.2248374416,0.03286777760000001
03:44:07,0.35617427999999995,2.06895176,-2.57135993,0.078660535,0.16210684,-0.27246818500000003,-1.954677835,-31.376466760000003,-0.32166013000000004,82.71982039999999,-2.27114619385,2.2489782615,0.70465961075,-0.21720598905,0.2250206933,0.032171019425
03:44:07,0.36481299999999994,2.063873,-2.5669245,0.07794675000000001,0.162517,-0.26945325,-1.9375407500000001,-31.378168000000002,-0.3079815,80.98566,-2.2590909325000004,2.239323075,0.6976739375000001,-0.2146332425,0.225203945,0.03147426125
03:44:07,0.37345172,2.05879424,-2.56248907,0.077232965,0.16292716,-0.26643831500000004,-1.9204036650000003,-31.37986924,-0.29430287,79.25149959999999,-2.24703567115,2.2296678885,0.6906882642500001,-0.21206049594999998,0.2253871967,0.030777503075000004
03:44:07,0.38209044,2.0537154799999997,-2.55805364,0.07651917999999999,0.16333732,-0.26342338,-1.9032665800000002,-31.38157048,-0.28062423999999997,77.5173392,-2.2349804098000003,2.220012702,0.6837025910000001,-0.20948774939999998,0.22557044839999998,0.030080744900000005
03:44:07,0.39072915999999996,2.0486367199999997,-2.5536182099999998,0.075805395,0.16374748,-0.26040844500000004,-1.886129495,-31.38327172,-0.26694561000000006,75.78317879999999,-2.2229251484500003,2.2103575155,0.6767169177500001,-0.20691500284999997,0.2257537001,0.029383986725000005
03:44:07,0.39936787999999995,2.04355796,-2.5491827799999998,0.07509161,0.16415764,-0.25739351,-1.8689924100000002,-31.384972960000002,-0.25326698000000003,74.0490184,-2.2108698871000003,2.2007023290000003,0.6697312445000001,-0.20434225629999997,0.2259369518,0.028687228550000006
03:44:07,0.40800659999999994,2.0384792,-2.5447473499999997,0.07437782500000001,0.1645678,-0.254378575,-1.8518553250000003,-31.3866742,-0.23958835,72.31485799999999,-2.1988146257500003,2.1910471425,0.6627455712500001,-0.20176950975,0.2261202035,0.027990470375000007
03:44:07,0.41664531999999993,2.03340044,-2.5403119199999997,0.07366404,0.16497795999999998,-0.25136364,-1.8347182400000002,-31.38837544,-0.22590971999999998,70.5806976,-2.1867593644000003,2.181391956,0.6557598980000001,-0.1991967632,0.2263034552,0.027293712200000007
03:44:07,0.42528404,2.02832168,-2.5358764899999997,0.07295025499999999,0.16538812,-0.248348705,-1.817581155,-31.39007668,-0.21223108999999996,68.84653719999999,-2.1747041030500003,2.1717367695,0.6487742247500001,-0.19662401664999998,0.2264867069,0.026596954025000008
03:44:07,0.4339227599999999,2.02324292,-2.5314410599999997,0.07223647,0.16579828,-0.24533377,-1.8004440700000002,-31.391777920000003,-0.19855246000000004,67.11237679999999,-2.1626488417000003,2.162081583,0.6417885515000001,-0.19405127009999998,0.2266699586,0.02590019585000001
03:44:07,0.44256148,2.01816416,-2.5270056299999997,0.071522685,0.16620843999999999,-0.242318835,-1.7833069850000003,-31.393479160000002,-0.18487383000000002,65.37821639999999,-2.1505935803500003,2.1524263965,0.6348028782500001,-0.19147852354999997,0.2268532103,0.025203437675000002
03:44:07,0.4512002,2.0130854,-2.5225702,0.07080890000000001,0.1666186,-0.2393039,-1.7661699000000002,-31.3951804,-0.1711952,63.64405599999999,-2.1385383190000002,2.1427712100000003,0.6278172050000002,-0.18890577699999997,0.227036462,0.024506679500000003
03:44:07,0.45983892,2.00800664,-2.51813477,0.070095115,0.16702876,-0.236288965,-1.7490328150000003,-31.39688164,-0.15751656999999997,61.909895599999984,-2.1264830576500002,2.1331160235,0.62083153175,-0.18633303045,0.2272197137,0.023809921325000004
03:44:07,0.46847764,2.0029278799999997,-2.51369934,0.06938133,0.16743892,-0.23327403,-1.7318957300000002,-31.398582880000003,-0.14383794000000005,60.17573519999999,-2.1144277963,2.123460837,0.6138458585000001,-0.1837602839,0.2274029654,0.023113163150000005
03:44:07,0.47711635999999996,1.99784912,-2.50926391,0.068667545,0.16784907999999998,-0.230259095,-1.7147586450000003,-31.400284120000002,-0.13015931000000003,58.441574799999984,-2.10237253495,2.1138056505,0.6068601852500001,-0.18118753734999998,0.2275862171,0.022416404975000005
03:44:07,0.48575507999999995,1.99277036,-2.50482848,0.06795376,0.16825924,-0.22724416,-1.6976215600000002,-31.40198536,-0.11648068,56.70741439999999,-2.0903172736,2.104150464,0.5998745120000001,-0.17861479079999998,0.22776946879999999,0.021719646800000006
03:44:07,0.49439379999999994,1.9876915999999998,-2.50039305,0.06723997500000001,0.1686694,-0.224229225,-1.680484475,-31.4036866,-0.10280204999999998,54.973254,-2.07826201225,2.0944952775,0.5928888387500001,-0.17604204424999997,0.22795272049999998,0.021022888625000007
03:44:07,0.5030325199999999,1.9826128399999998,-2.49595762,0.06652619,0.16907956,-0.22121429,-1.6633473900000002,-31.405387840000003,-0.08912341999999995,53.23909359999999,-2.0662067509,2.0848400910000002,0.5859031655000001,-0.17346929769999997,0.2281359722,0.020326130450000007
03:44:07,0.5116712399999999,1.9775340799999999,-2.49152219,0.065812405,0.16948971999999998,-0.218199355,-1.646210305,-31.407089080000002,-0.07544479000000004,51.504933199999996,-2.05415148955,2.0751849045,0.5789174922500001,-0.17089655114999996,0.2283192239,0.019629372275000008
03:44:07,0.5203099599999998,1.97245532,-2.48708676,0.06509862,0.16989988,-0.21518442,-1.6290732200000002,-31.40879032,-0.061766160000000014,49.77077279999999,-2.0420962282,2.065529718,0.571931819,-0.1683238046,0.2285024756,0.01893261410000001
03:44:07,0.5289486799999998,1.96737656,-2.48265133,0.064384835,0.17031004,-0.212169485,-1.611936135,-31.41049156,-0.04808752999999999,48.036612399999996,-2.03004096685,2.0558745315,0.56494614575,-0.16575105804999998,0.2286857273,0.01823585592500001
03:44:07,0.5375873999999999,1.9622978,-2.4782159,0.06367105,0.1707202,-0.20915455,-1.5947990500000002,-31.4121928,-0.034408899999999965,46.30245199999999,-2.0179857055,2.046219345,0.5579604725,-0.16317831149999998,0.228868979,0.017539097750000003
03:44:07,0.5462261199999999,1.95721904,-2.47378047,0.06295726500000001,0.17113035999999998,-0.206139615,-1.577661965,-31.413894040000002,-0.02073027000000005,44.568291599999995,-2.00593044415,2.0365641585,0.55097479925,-0.16060556494999997,0.2290522307,0.016842339575000004
03:44:07,0.5548648399999999,1.9521402799999998,-2.46934504,0.062243480000000004,0.17154052,-0.20312468,-1.5605248800000002,-31.41559528,-0.007051640000000026,42.83413119999999,-1.9938751828,2.026908972,0.543989126,-0.15803281839999997,0.2292354824,0.016145581400000004
03:44:07,0.5635035599999999,1.9470615199999999,-2.46490961,0.061529695,0.17195068,-0.200109745,-1.5433877950000001,-31.41729652,0.006626989999999999,41.099970799999994,-1.98181992145,2.0172537855,0.53700345275,-0.15546007184999996,0.2294187341,0.015448823225000005
03:44:07,0.5721422799999999,1.94198276,-2.46047418,0.06081591,0.17236084,-0.19709481,-1.5262507100000002,-31.41899776,0.020305620000000024,39.36581039999999,-1.9697646601,2.007598599,0.5300177795000001,-0.1528873253,0.2296019858,0.014752065050000006
03:44:07,0.5807809999999999,1.936904,-2.45603875,0.060102125,0.172771,-0.19407987499999999,-1.5091136250000001,-31.420699000000003,0.03398425000000005,37.63164999999998,-1.95770939875,1.9979434125000002,0.5230321062500001,-0.15031457874999998,0.2297852375,0.014055306875000007
03:44:07,0.5894197199999999,1.93182524,-2.45160332,0.059388340000000005,0.17318116,-0.19106494,-1.4919765400000002,-31.42240024,0.047662880000000074,35.8974896,-1.9456541374000003,1.9882882259999999,0.5160464330000001,-0.14774183219999998,0.2299684892,0.013358548700000007
03:44:07,0.5980584399999999,1.9267464799999998,-2.44716789,0.058674555,0.17359132,-0.188050005,-1.4748394550000001,-31.42410148,0.0613415100000001,34.16332919999999,-1.9335988760500002,1.9786330395,0.5090607597500001,-0.14516908564999997,0.2301517409,0.012661790525000008
03:44:07,0.6066971599999998,1.9216677199999999,-2.4427324599999998,0.05796077,0.17400148,-0.18503507,-1.4577023700000002,-31.42580272,0.0750201399999999,32.429168799999985,-1.9215436147000002,1.9689778530000002,0.5020750865000001,-0.14259633909999997,0.2303349926,0.011965032350000009
03:44:07,0.6153358799999998,1.91658896,-2.4382970299999998,0.057246985,0.17441163999999998,-0.182020135,-1.4405652850000001,-31.427503960000003,0.08869876999999993,30.695008399999978,-1.9094883533500002,1.9593226665,0.4950894132500001,-0.14002359254999996,0.2305182443,0.01126827417500001
03:44:07,0.6239745999999999,1.9115102,-2.4338616,0.056533200000000006,0.1748218,-0.1790052,-1.4234282000000003,-31.429205200000002,0.10237739999999995,28.960848,-1.8974330920000002,1.94966748,0.4881037400000001,-0.13745084599999996,0.230701496,0.010571516000000003
03:44:07,0.6326133199999999,1.90643144,-2.42942617,0.055819415000000004,0.17523196,-0.175990265,-1.4062911150000001,-31.43090644,0.11605602999999998,27.22668759999999,-1.8853778306500002,1.9400122935000002,0.48111806675000013,-0.13487809944999998,0.2308847477,0.009874757825000004
03:44:07,0.6412520399999999,1.90135268,-2.42499074,0.05510563,0.17564211999999998,-0.17297532999999998,-1.3891540300000003,-31.43260768,0.12973466,25.492527199999984,-1.8733225693000002,1.930357107,0.47413239350000014,-0.13230535289999998,0.2310679994,0.009177999650000004
03:44:07,0.6498907599999999,1.89627392,-2.42055531,0.054391845,0.17605228,-0.169960395,-1.3720169450000002,-31.43430892,0.14341329000000003,23.758366799999976,-1.8612673079500002,1.9207019205,0.46714672025000015,-0.12973260634999997,0.2312512511,0.008481241475000005
03:44:07,0.6585294799999999,1.8911951599999999,-2.41611988,0.05367806,0.17646244,-0.16694546,-1.3548798600000003,-31.436010160000002,0.15709192000000005,22.024206399999997,-1.8492120466000002,1.9110467340000001,0.46016104700000005,-0.12715985979999997,0.2314345028,0.007784483300000006
03:44:07,0.6671681999999999,1.8861164,-2.41168445,0.052964275000000005,0.1768726,-0.163930525,-1.3377427750000002,-31.4377114,0.17077055000000008,20.29004599999999,-1.8371567852500001,1.9013915475,0.45317537375000005,-0.12458711324999996,0.2316177545,0.0070877251250000065
03:44:07,0.6758069199999999,1.88103764,-2.40724902,0.052250490000000004,0.17728275999999998,-0.16091559,-1.3206056900000003,-31.43941264,0.1844491800000001,18.555885599999982,-1.8251015239000001,1.891736361,0.44618970050000006,-0.12201436669999996,0.2318010062,0.006390966950000007
03:44:07,0.6844456399999999,1.87595888,-2.40281359,0.051536705,0.17769291999999998,-0.157900655,-1.3034686050000002,-31.44111388,0.1981278099999999,16.821725199999975,-1.8130462625500001,1.8820811745000001,0.4392040272500001,-0.11944162014999998,0.2319842579,0.005694208775000008
03:44:07,0.6930843599999998,1.8708801199999998,-2.39837816,0.05082292000000001,0.17810308,-0.15488572,-1.2863315200000003,-31.442815120000002,0.21180643999999993,15.087564799999996,-1.8009910012000003,1.872425988,0.4322183540000001,-0.11686887359999998,0.2321675096,0.0049974506000000085
03:44:07,0.7017230799999998,1.8658013599999999,-2.39394273,0.050109135,0.17851324,-0.151870785,-1.2691944350000002,-31.44451636,0.22548506999999995,13.353404399999988,-1.7889357398500003,1.8627708015,0.4252326807500001,-0.11429612704999997,0.23235076129999999,0.004300692425000009
03:44:07,0.7103617999999998,1.8607226,-2.3895073,0.049395350000000005,0.1789234,-0.14885585,-1.2520573500000003,-31.4462176,0.23916369999999998,11.61924399999998,-1.7768804785000003,1.853115615,0.4182470075000001,-0.11172338049999997,0.232534013,0.00360393425000001
03:44:07,0.7190005199999999,1.85564384,-2.38507187,0.048681564999999996,0.17933356,-0.14584091500000002,-1.2349202650000002,-31.44791884,0.25284233,9.885083599999973,-1.7648252171500003,1.8434604285,0.4112613342500001,-0.10915063394999996,0.2327172647,0.0029071760750000036
03:44:07,0.7276392399999999,1.85056508,-2.38063644,0.04796778,0.17974372,-0.14282598000000002,-1.2177831800000003,-31.449620080000003,0.26652096000000003,8.150923199999994,-1.7527699558000003,1.833805242,0.4042756610000001,-0.10657788739999996,0.2329005164,0.0022104179000000113
03:44:07,0.7362779599999999,1.84548632,-2.37620101,0.04725399500000001,0.18015388,-0.13981104499999997,-1.2006460950000002,-31.45132132,0.28019959000000005,6.4167627999999866,-1.7407146944500003,1.8241500555,0.39728998775000013,-0.10400514084999998,0.2330837681,0.001513659725000005
03:44:07,0.7449166799999999,1.84040756,-2.37176558,0.04654021,0.18056403999999998,-0.13679610999999997,-1.1835090100000003,-31.45302256,0.2938782200000001,4.682602399999979,-1.7286594331000003,1.814494869,0.39030431450000014,-0.10143239429999998,0.2332670198,0.0008169015500000126
03:44:07,0.7535553999999999,1.8353287999999999,-2.36733015,0.045826425000000004,0.1809742,-0.13378117499999997,-1.1663719250000002,-31.4547238,0.3075568500000001,2.9484419999999716,-1.7166041717500002,1.8048396825,0.38331864125000015,-0.09885964774999997,0.2334502715,0.00012014337500000638
03:44:07,0.7621941199999999,1.83025004,-2.36289472,0.045112639999999996,0.18138436,-0.13076623999999998,-1.14923484,-31.456425040000003,0.32123548000000013,1.2142815999999925,-1.7045489104000002,1.795184496,0.37633296800000005,-0.09628690119999997,0.2336335232,-0.000576614799999986
03:44:07,0.7708328399999999,1.82517128,-2.35845929,0.044398855,0.18179452,-0.12775130499999998,-1.1320977550000002,-31.458126280000002,0.33491410999999993,-0.519878800000015,-1.6924936490500002,1.7855293095,0.36934729475000005,-0.09371415464999996,0.2338167749,-0.0012733729749999922
03:44:07,0.7794715599999998,1.82009252,-2.35402386,0.043685070000000006,0.18220468,-0.12473636999999999,-1.11496067,-31.45982752,0.34859273999999996,-2.2540392000000224,-1.6804383877000002,1.775874123,0.36236162150000006,-0.09114140809999999,0.2340000266,-0.0019701311499999985
03:44:07,0.7881102799999998,1.8150137599999998,-2.34958843,0.042971285,0.18261484,-0.12172143499999999,-1.0978235850000002,-31.46152876,0.36227137,-3.9881996000000015,-1.6683831263500002,1.7662189365,0.3553759482500001,-0.08856866154999998,0.2341832783,-0.002666889324999991
03:44:07,0.7967489999999998,1.8099349999999998,-2.345153,0.0422575,0.183025,-0.11870649999999999,-1.0806865,-31.463230000000003,0.37595,-5.722360000000009,-1.6563278650000002,1.75656375,0.3483902750000001,-0.08599591499999998,0.23436653000000002,-0.003363647499999997
03:44:07,0.8053877199999998,1.80485624,-2.34071757,0.04154371500000001,0.18343515999999999,-0.115691565,-1.0635494150000002,-31.464931240000002,0.38962863000000003,-7.4565204000000165,-1.6442726036500002,1.7469085635,0.3414046017500001,-0.08342316844999997,0.23454978170000002,-0.0040604056749999895
03:44:07,0.8140264399999999,1.79977748,-2.33628214,0.04082993,0.18384531999999998,-0.11267663,-1.0464123300000001,-31.46663248,0.40330726000000006,-9.190680800000024,-1.6322173423000002,1.737253377,0.3344189285000001,-0.08085042189999997,0.2347330334,-0.004757163849999996
03:44:07,0.8226651599999999,1.79469872,-2.3318467099999998,0.040116145000000006,0.18425548,-0.109661695,-1.0292752450000002,-31.46833372,0.4169858900000001,-10.924841200000003,-1.6201620809500001,1.7275981905,0.3274332552500001,-0.07827767534999996,0.2349162851,-0.005453922024999988
03:44:07,0.8313038799999999,1.78961996,-2.3274112799999997,0.03940236,0.18466564,-0.10664676000000001,-1.0121381600000001,-31.47003496,0.4306645200000001,-12.65900160000001,-1.6081068196000001,1.717943004,0.3204475820000001,-0.07570492879999996,0.2350995368,-0.006150680199999994
03:44:07,0.8399425999999999,1.7845412,-2.3229758499999997,0.038688575,0.18507579999999998,-0.10363182500000001,-0.9950010750000002,-31.471736200000002,0.44434315000000013,-14.393162000000018,-1.5960515582500003,1.7082878175,0.31346190875000013,-0.07313218224999996,0.2352827885,-0.006847438374999987
03:44:07,0.8485813199999999,1.77946244,-2.3185404199999997,0.03797479000000001,0.18548596,-0.10061689000000001,-0.9778639900000001,-31.47343744,0.45802177999999993,-16.127322400000025,-1.5839962969000003,1.698632631,0.30647623550000014,-0.07055943569999995,0.2354660402,-0.007544196549999993
03:44:07,0.8572200399999998,1.77438368,-2.31410499,0.037261005,0.18589612,-0.09760195499999996,-0.9607269050000002,-31.47513868,0.47170040999999996,-17.861482800000005,-1.5719410355500003,1.6889774445,0.29949056225000015,-0.06798668914999995,0.2356492919,-0.008240954725
03:44:07,0.8658587599999998,1.76930492,-2.30966956,0.036547220000000005,0.18630628,-0.09458701999999997,-0.9435898200000001,-31.47683992,0.48537904,-19.595643200000012,-1.5598857742000003,1.679322258,0.29250488900000016,-0.06541394259999994,0.2358325436,-0.008937712899999992
03:44:07,0.8744974799999998,1.76422616,-2.30523413,0.035833435,0.18671643999999998,-0.09157208499999997,-0.9264527350000002,-31.478541160000002,0.49905767,-21.32980360000002,-1.5478305128500003,1.6696670715,0.28551921575000005,-0.06284119604999999,0.2360157953,-0.009634471074999998
03:44:07,0.8831361999999998,1.7591473999999998,-2.3007987,0.03511965,0.18712659999999998,-0.08855714999999997,-0.9093156500000001,-31.4802424,0.5127363,-23.063964000000027,-1.5357752515000003,1.660011885,0.27853354250000006,-0.06026844949999999,0.236199047,-0.01033122924999999
03:44:07,0.8917749199999998,1.7540686399999998,-2.29636327,0.03440586500000001,0.18753676,-0.08554221499999998,-0.8921785650000003,-31.48194364,0.5264149300000001,-24.798124400000006,-1.5237199901500003,1.6503566985,0.2715478692500001,-0.05769570294999998,0.2363822987,-0.011027987424999997
03:44:07,0.9004136399999998,1.7489898799999999,-2.29192784,0.03369208,0.18794692,-0.08252727999999998,-0.8750414800000001,-31.48364488,0.5400935600000001,-26.532284800000014,-1.5116647288000002,1.640701512,0.2645621960000001,-0.05512295639999998,0.2365655504,-0.011724745599999989
03:44:07,0.9090523599999999,1.74391112,-2.28749241,0.032978295000000005,0.18835707999999998,-0.07951234499999998,-0.8579043950000003,-31.485346120000003,0.5537721900000001,-28.26644520000002,-1.4996094674500002,1.6310463255,0.2575765227500001,-0.052550209849999974,0.23674880210000002,-0.012421503774999995
03:44:07,0.9176910799999999,1.73883236,-2.28305698,0.032264509999999996,0.18876724,-0.07649740999999999,-0.8407673100000002,-31.487047360000002,0.5674508200000001,-30.00060560000003,-1.4875542061000002,1.621391139,0.2505908495000001,-0.04997746329999997,0.23693205380000001,-0.013118261949999988
03:44:07,0.9263297999999999,1.7337536,-2.27862155,0.031550725,0.1891774,-0.07348247499999999,-0.8236302250000003,-31.4887486,0.5811294499999999,-31.734766000000008,-1.4754989447500002,1.6117359525,0.2436051762500001,-0.047404716749999964,0.2371153055,-0.013815020124999994
03:44:07,0.9349685199999997,1.72867484,-2.27418612,0.030836940000000007,0.18958756,-0.07046754,-0.8064931400000002,-31.49044984,0.59480808,-33.468926400000015,-1.4634436834000002,1.602080766,0.23661950300000012,-0.04483197019999996,0.2372985572,-0.014511778299999986
03:44:07,0.9436072399999997,1.72359608,-2.26975069,0.030123155,0.18999771999999998,-0.067452605,-0.7893560550000003,-31.49215108,0.60848671,-35.20308680000002,-1.4513884220500002,1.5924255795,0.22963382975000013,-0.042259223649999955,0.2374818089,-0.015208536474999992
03:44:07,0.95224596,1.7185173200000001,-2.26531526,0.029409370000000004,0.19040788,-0.06443767,-0.7722189700000004,-31.493852320000002,0.62216534,-36.93724720000003,-1.4393331607000002,1.5827703929999999,0.22264815650000014,-0.03968647709999995,0.2376650606,-0.01590529465
03:44:07,0.9608846799999999,1.71343856,-2.26087983,0.02869558500000001,0.19081804,-0.061422735000000006,-0.7550818850000001,-31.49555356,0.63584397,-38.67140760000001,-1.4272778993500002,1.5731152065,0.21566248325000015,-0.037113730549999946,0.2378483123,-0.01660205282499999
03:44:07,0.9695233999999999,1.7083598,-2.2564444,0.0279818,0.1912282,-0.05840780000000001,-0.7379448000000002,-31.4972548,0.6495226000000001,-40.40556800000002,-1.4152226380000004,1.56346002,0.20867681000000016,-0.03454098399999994,0.238031564,-0.017298810999999997
03:44:07,0.9781621199999999,1.7032810399999998,-2.25200897,0.027268015000000007,0.19163836,-0.05539286499999996,-0.7208077150000003,-31.49895604,0.6632012300000001,-42.139728400000024,-1.4031673766500004,1.5538048335,0.20169113675000017,-0.03196823744999994,0.2382148157,-0.01799556917499999
03:44:07,0.9868008399999999,1.6982022799999998,-2.24757354,0.026554229999999998,0.19204852,-0.05237792999999996,-0.7036706300000004,-31.500657280000002,0.6768798600000001,-43.87388880000003,-1.3911121153000003,1.544149647,0.19470546350000006,-0.029395490899999988,0.2383980674,-0.018692327349999996
03:44:07,0.9954395599999999,1.6931235199999999,-2.24313811,0.025840445000000004,0.19245868,-0.049362994999999965,-0.6865335450000001,-31.50235852,0.6905584900000001,-45.60804920000001,-1.3790568539500003,1.5344944605,0.18771979025000007,-0.026822744349999983,0.23858131910000002,-0.01938908552499999
03:44:07,1.0040782799999999,1.68804476,-2.23870268,0.02512666000000001,0.19286883999999999,-0.04634805999999997,-0.6693964600000002,-31.50405976,0.7042371199999999,-47.34220960000002,-1.3670015926000003,1.524839274,0.18073411700000008,-0.02424999779999998,0.23876457080000002,-0.020085843699999995
03:44:07,1.0127169999999999,1.682966,-2.23426725,0.024412875,0.19327899999999998,-0.04333312499999997,-0.6522593750000003,-31.505761,0.71791575,-49.076370000000026,-1.3549463312500003,1.5151840875,0.1737484437500001,-0.021677251249999974,0.23894782250000002,-0.020782601874999987
03:44:07,1.0213557199999999,1.67788724,-2.2298318200000002,0.023699090000000006,0.19368916,-0.040318189999999976,-0.6351222900000004,-31.507462240000002,0.73159438,-50.81053040000003,-1.3428910699000003,1.505528901,0.1667627705000001,-0.01910450469999997,0.23913107420000002,-0.021479360049999993
03:44:07,1.0299944399999998,1.67280848,-2.2253963900000002,0.022985304999999998,0.19409932,-0.03730325499999998,-0.6179852050000001,-31.50916348,0.74527301,-52.54469080000001,-1.3308358085500003,1.4958737145,0.1597770972500001,-0.016531758149999964,0.2393143259,-0.022176118224999986
03:44:07,1.0386331599999998,1.66772972,-2.22096096,0.022271520000000003,0.19450947999999998,-0.03428831999999998,-0.6008481200000002,-31.51086472,0.75895164,-54.27885120000002,-1.3187805472000003,1.486218528,0.15279142400000012,-0.01395901159999996,0.2394975776,-0.022872876399999992
03:44:07,1.0472718799999998,1.6626509600000001,-2.21652553,0.02155773500000001,0.19491964,-0.03127338499999999,-0.5837110350000003,-31.51256596,0.7726302700000001,-56.01301160000003,-1.3067252858500003,1.4765633415,0.14580575075000013,-0.011386265049999955,0.2396808293,-0.023569634574999998
03:44:07,1.0559105999999998,1.6575722,-2.2120901,0.02084395,0.1953298,-0.02825844999999999,-0.56657395,-31.514267200000003,0.7863089000000001,-57.747172000000006,-1.2946700245000002,1.466908155,0.13882007750000014,-0.00881351849999995,0.239864081,-0.02426639274999999
03:44:07,1.0645493199999998,1.65249344,-2.20765467,0.020130165000000005,0.19573996,-0.025243514999999994,-0.5494368650000001,-31.51596844,0.7999875300000001,-59.481332400000014,-1.2826147631500002,1.4572529685,0.13183440425000015,-0.006240771949999946,0.2400473327,-0.024963150924999997
03:44:07,1.0731880399999998,1.64741468,-2.20321924,0.019416379999999997,0.19615011999999998,-0.022228579999999998,-0.5322997800000002,-31.51766968,0.8136661600000001,-61.21549280000002,-1.2705595018000002,1.4475977819999999,0.12484873100000016,-0.0036680253999999413,0.2402305844,-0.02565990909999999
03:44:07,1.0818267599999998,1.6423359199999998,-2.19878381,0.018702595000000002,0.19656027999999998,-0.019213645,-0.5151626950000003,-31.51937092,0.8273447899999999,-62.94965320000003,-1.2585042404500002,1.4379425955,0.11786305775000017,-0.0010952788499999366,0.2404138361,-0.026356667274999995
03:44:07,1.0904654799999998,1.6372571599999999,-2.19434838,0.017988810000000008,0.19697044,-0.016198710000000005,-0.49802561,-31.52107216,0.84102342,-64.68381360000001,-1.2464489791000002,1.428287409,0.11087738450000018,0.001477467700000068,0.2405970878,-0.027053425449999988
03:44:07,1.0991041999999998,1.6321784,-2.18991295,0.017275025,0.1973806,-0.013183775000000009,-0.4808885250000001,-31.522773400000002,0.85470205,-66.41797400000002,-1.2343937177500002,1.4186322224999999,0.10389171125000007,0.004050214250000017,0.2407803395,-0.027750183624999994
03:44:07,1.1077429199999997,1.62709964,-2.18547752,0.016561240000000005,0.19779075999999998,-0.010168839999999957,-0.46375144000000024,-31.52447464,0.86838068,-68.15213440000002,-1.2223384564000002,1.408977036,0.09690603800000008,0.006622960800000022,0.2409635912,-0.028446941799999986
03:44:07,1.1163816399999997,1.62202088,-2.18104209,0.015847454999999996,0.19820092,-0.0071539049999999604,-0.44661435500000035,-31.52617588,0.88205931,-69.88629480000003,-1.2102831950500004,1.3993218495,0.08992036475000009,0.009195707350000026,0.24114684290000002,-0.029143699974999993
03:44:07,1.1250203599999997,1.61694212,-2.17660666,0.015133670000000002,0.19861108,-0.004138969999999964,-0.42947727,-31.52787712,0.8957379400000001,-71.62045520000001,-1.1982279337000004,1.389666663,0.0829346915000001,0.011768453900000031,0.24133009460000002,-0.029840458149999985
03:44:07,1.13365908,1.61186336,-2.17217123,0.014419885000000007,0.19902124,-0.0011240349999999677,-0.41234018500000014,-31.529578360000002,0.9094165700000001,-73.35461560000002,-1.1861726723500003,1.3800114765,0.07594901825000011,0.014341200450000036,0.24151334630000001,-0.03053721632499999
03:44:07,1.1422978,1.6067846000000001,-2.1677358,0.013706099999999999,0.19943139999999998,0.0018909000000000287,-0.39520310000000025,-31.5312796,0.9230952000000001,-75.08877600000002,-1.1741174110000003,1.37035629,0.06896334500000012,0.01691394700000004,0.241696598,-0.031233974499999997
03:44:07,1.15093652,1.60170584,-2.16330037,0.012992315000000004,0.19984156,0.004905835000000025,-0.37806601500000037,-31.53298084,0.9367738300000001,-76.82293640000003,-1.1620621496500003,1.3607011035,0.06197767175000013,0.019486693550000045,0.2418798497,-0.03193073267499999
03:44:07,1.15957524,1.59662708,-2.15886494,0.01227853000000001,0.20025172,0.007920770000000021,-0.36092893000000004,-31.53468208,0.9504524599999999,-78.55709680000001,-1.1500068883000003,1.351045917,0.05499199850000014,0.02205944010000005,0.2420631014,-0.032627490849999996
03:44:07,1.1682139599999999,1.59154832,-2.15442951,0.011564745000000001,0.20066188,0.010935705000000018,-0.34379184500000015,-31.536383320000002,0.96413109,-80.29125720000002,-1.1379516269500003,1.3413907305,0.04800632525000015,0.024632186650000054,0.2422463531,-0.03332424902499999
03:44:07,1.1768526799999999,1.5864695599999998,-2.14999408,0.010850960000000007,0.20107204,0.013950640000000014,-0.32665476000000027,-31.53808456,0.97780972,-82.02541760000003,-1.1258963656000003,1.331735544,0.041020652000000046,0.02720493320000006,0.2424296048,-0.034021007199999995
03:44:07,1.1854913999999999,1.5813907999999999,-2.14555865,0.010137174999999998,0.2014822,0.01696557500000001,-0.3095176750000004,-31.5397858,0.99148835,-83.75957800000003,-1.1138411042500003,1.3220803575,0.034034978750000056,0.029777679750000063,0.2426128565,-0.03471776537499999
03:44:07,1.1941301199999999,1.57631204,-2.14112322,0.009423390000000004,0.20189236,0.019980510000000007,-0.29238059000000005,-31.54148704,1.00516698,-85.49373840000001,-1.1017858429000003,1.312425171,0.027049305500000065,0.03235042630000007,0.2427961082,-0.03541452354999999
03:44:07,1.2027688399999998,1.57123328,-2.13668779,0.00870960500000001,0.20230251999999999,0.022995445000000003,-0.27524350500000017,-31.543188280000003,1.0188456099999998,-87.22789880000002,-1.0897305815500002,1.3027699845,0.020063632250000074,0.03492317285000007,0.24297935990000002,-0.036111281724999986
03:44:07,1.2114075599999998,1.56615452,-2.13225236,0.00799582,0.20271267999999998,0.02601038,-0.2581064200000003,-31.54488952,1.03252424,-88.96205920000003,-1.0776753202000002,1.293114798,0.013077959000000083,0.03749591940000002,0.24316261160000002,-0.03680803989999999
03:44:07,1.2200462799999998,1.56107576,-2.12781693,0.007282035000000006,0.20312284,0.029025314999999996,-0.2409693350000004,-31.54659076,1.04620287,-90.69621960000003,-1.0656200588500002,1.2834596114999999,0.006092285750000093,0.040068665950000026,0.24334586330000002,-0.037504798074999984
03:44:07,1.2286849999999998,1.555997,-2.1233815,0.006568249999999998,0.203533,0.03204025000000005,-0.22383225000000007,-31.548292,1.0598815000000001,-92.43038000000004,-1.0535647975000002,1.273804425,-0.0008933874999998981,0.04264141250000003,0.24352911500000002,-0.03820155624999999
03:44:07,1.2373237199999998,1.5509182400000001,-2.11894607,0.005854465000000003,0.20394315999999998,0.035055185000000044,-0.20669516500000018,-31.54999324,1.07356013,-94.16454040000005,-1.0415095361500002,1.2641492385,-0.007879060749999889,0.045214159050000036,0.24371236670000002,-0.038898314425
03:44:07,1.2459624399999998,1.5458394800000002,-2.1145106399999998,0.005140680000000009,0.20435332,0.03807012000000004,-0.1895580800000003,-31.551694480000002,1.0872387600000002,-95.8987008,-1.0294542748000004,1.2544940519999999,-0.01486473399999988,0.04778690560000004,0.2438956184,-0.03959507259999999
03:44:07,1.2546011599999998,1.54076072,-2.1100752099999998,0.004426895,0.20476348,0.04108505500000004,-0.1724209950000004,-31.55339572,1.10091739,-97.63286120000001,-1.0173990134500004,1.2448388655,-0.02185040724999987,0.050359652150000045,0.2440788701,-0.040291830774999995
03:44:07,1.2632398799999998,1.53568196,-2.1056397799999997,0.0037131100000000056,0.20517364,0.04409999000000003,-0.15528391000000008,-31.55509696,1.1145960200000002,-99.36702160000002,-1.0053437521000004,1.235183679,-0.02883608049999986,0.05293239870000005,0.2442621218,-0.04098858894999999
03:44:07,1.2718785999999997,1.5306032,-2.10120435,0.002999324999999997,0.20558379999999998,0.04711492500000003,-0.1381468250000002,-31.5567982,1.12827465,-101.10118200000002,-0.9932884907500004,1.2255284924999998,-0.03582175374999985,0.055505145250000054,0.2444453735,-0.041685347124999994
03:44:07,1.2805173199999997,1.5255244399999999,-2.09676892,0.0022855400000000026,0.20599395999999998,0.050129860000000026,-0.12100974000000031,-31.558499440000002,1.1419532799999998,-102.83534240000003,-0.9812332294000004,1.215873306,-0.04280742699999984,0.05807789180000006,0.2446286252,-0.042382105299999986
03:44:07,1.2891560399999997,1.52044568,-2.09233349,0.001571755000000008,0.20640412,0.05314479500000002,-0.10387265500000042,-31.56020068,1.15563191,-104.56950280000004,-0.9691779680500003,1.2062181195,-0.04979310024999983,0.06065063835000006,0.2448118769,-0.04307886347499999
03:44:07,1.2977947599999997,1.51536692,-2.08789806,0.0008579699999999996,0.20681428,0.05615973000000002,-0.0867355700000001,-31.56190192,1.16931054,-106.30366320000005,-0.9571227067000003,1.196562933,-0.056778773499999824,0.06322338490000007,0.2449951286,-0.043775621649999985
03:44:07,1.3064334799999997,1.51028816,-2.08346263,0.000144185000000005,0.20722444,0.059174665000000015,-0.06959848500000021,-31.56360316,1.1829891700000001,-108.03782360000005,-0.9450674453500003,1.1869077465,-0.06376444674999981,0.06579613145000007,0.2451783803,-0.04447237982499999
03:44:07,1.3150722,1.5052094,-2.0790272,-0.0005695999999999896,0.2076346,0.06218960000000001,-0.052461400000000324,-31.565304400000002,1.1966678,-109.771984,-0.9330121840000003,1.17725256,-0.0707501199999998,0.06836887800000008,0.24536163200000002,-0.045169138
03:44:07,1.32371092,1.50013064,-2.07459177,-0.001283384999999998,0.20804476,0.06520453500000001,-0.035324314999999995,-31.56700564,1.2103464300000002,-111.50614440000001,-0.9209569226500003,1.1675973735,-0.0777357932499998,0.07094162455000003,0.24554488370000002,-0.04586589617499999
03:44:07,1.33234964,1.49505188,-2.07015634,-0.0019971699999999926,0.20845492,0.06821947,-0.01818723000000011,-31.56870688,1.22402506,-113.24030480000002,-0.9089016613000003,1.157942187,-0.08472146649999979,0.07351437110000003,0.24572813540000002,-0.046562654349999996
03:44:07,1.3409883599999999,1.4899731200000002,-2.06572091,-0.002710955000000001,0.20886507999999998,0.071234405,-0.0010501450000002244,-31.57040812,1.2377036900000002,-114.97446520000003,-0.8968463999500003,1.1482870004999999,-0.09170713974999978,0.07608711765000004,0.24591138710000002,-0.04725941252499999
03:44:07,1.3496270799999999,1.48489436,-2.06128548,-0.0034247399999999956,0.20927523999999997,0.07424934000000005,0.01608693999999966,-31.572109360000002,1.25138232,-116.70862560000003,-0.8847911386000002,1.138631814,-0.09869281299999977,0.07865986420000004,0.24609463880000002,-0.047956170699999995
03:44:07,1.3582657999999999,1.4798156,-2.05685005,-0.00413852499999999,0.2096854,0.07726427500000005,0.03322402499999999,-31.5738106,1.2650609499999999,-118.44278600000004,-0.8727358772500002,1.1289766275,-0.10567848624999976,0.08123261075000004,0.2462778905,-0.04865292887499999
03:44:07,1.3669045199999998,1.47473684,-2.05241462,-0.004852309999999999,0.21009556,0.08027921000000005,0.050361109999999876,-31.57551184,1.27873958,-120.17694640000005,-0.8606806159000002,1.1193214409999999,-0.11266415949999975,0.08380535730000005,0.2464611422,-0.04934968704999999
03:44:07,1.3755432399999998,1.4696580799999999,-2.04797919,-0.005566094999999993,0.21050572,0.08329414499999999,0.06749819499999976,-31.57721308,1.29241821,-121.9111068,-0.8486253545500002,1.1096662545,-0.11964983274999996,0.08637810385000005,0.2466443939,-0.050046445224999986
03:44:07,1.3841819599999998,1.46457932,-2.04354376,-0.006279880000000002,0.21091588,0.08630908000000004,0.08463527999999965,-31.57891432,1.3060968400000001,-123.6452672,-0.8365700932000002,1.100011068,-0.12663550599999995,0.08895085040000006,0.2468276456,-0.05074320339999999
03:44:07,1.3928206799999998,1.45950056,-2.03910833,-0.006993664999999996,0.21132604,0.08932401499999998,0.10177236499999998,-31.580615560000002,1.31977547,-125.37942760000001,-0.8245148318500002,1.0903558814999998,-0.13362117924999994,0.09152359695000006,0.2470108973,-0.051439961574999984
03:44:07,1.4014593999999998,1.4544218,-2.0346729,-0.007707449999999991,0.21173619999999999,0.09233895000000003,0.11890944999999986,-31.5823168,1.3334541000000002,-127.11358800000002,-0.8124595705000002,1.080700695,-0.14060685249999993,0.09409634350000007,0.24719414900000003,-0.05213671974999999
03:44:07,1.4100981199999998,1.44934304,-2.03023747,-0.008421235,0.21214635999999998,0.09535388500000008,0.13604653499999975,-31.58401804,1.34713273,-128.84774840000003,-0.8004043091500002,1.0710455085,-0.14759252574999993,0.09666909005000007,0.24737740070000003,-0.052833477925
03:44:07,1.4187368399999998,1.44426428,-2.0258020400000003,-0.009135019999999994,0.21255651999999997,0.09836882000000002,0.15318361999999963,-31.58571928,1.3608113600000002,-130.58190880000004,-0.7883490478000001,1.0613903219999998,-0.15457819899999992,0.09924183660000008,0.24756065240000003,-0.05353023609999999
03:44:07,1.4273755599999998,1.43918552,-2.0213666100000003,-0.009848805000000002,0.21296668,0.10138375500000008,0.17032070499999996,-31.587420520000002,1.37448999,-132.31606920000004,-0.7762937864500001,1.0517351355,-0.1615638722499999,0.10181458315000003,0.24774390410000002,-0.054226994274999996
03:44:07,1.4360142799999998,1.4341067600000001,-2.0169311800000003,-0.010562589999999997,0.21337683999999998,0.10439869000000002,0.18745778999999985,-31.58912176,1.3881686199999999,-134.05022960000005,-0.7642385251000001,1.042079949,-0.1685495454999999,0.10438732970000003,0.24792715580000002,-0.05492375244999999
03:44:07,1.4446529999999997,1.429028,-2.0124957500000002,-0.011276374999999991,0.213787,0.10741362500000007,0.20459487499999973,-31.590823,1.40184725,-135.78439,-0.7521832637500001,1.0324247625,-0.1755352187499999,0.10696007625000004,0.24811040750000002,-0.055620510624999994
03:44:07,1.4532917199999997,1.42394924,-2.0080603200000002,-0.011990159999999986,0.21419716,0.11042856000000001,0.22173195999999962,-31.59252424,1.41552588,-137.5185504,-0.7401280024000005,1.022769576,-0.18252089199999988,0.10953282280000004,0.24829365920000002,-0.05631726879999999
03:44:07,1.4619304399999997,1.41887048,-2.00362489,-0.012703945000000008,0.21460732,0.11344349500000006,0.23886904499999995,-31.594225480000002,1.4292045100000002,-139.25271080000002,-0.7280727410500005,1.0131143894999999,-0.18950656524999987,0.11210556935000004,0.24847691090000001,-0.05701402697499999
03:44:07,1.4705691599999997,1.4137917199999999,-1.9991894600000002,-0.013417730000000003,0.21501747999999998,0.11645843,0.25600612999999983,-31.59592672,1.44288314,-140.98687120000002,-0.7160174797000005,1.003459203,-0.19649223849999986,0.11467831590000005,0.2486601626,-0.057710785149999985
03:44:07,1.4792078799999997,1.40871296,-1.9947540300000002,-0.014131514999999997,0.21542763999999998,0.11947336500000005,0.2731432149999997,-31.59762796,1.4565617700000002,-142.72103160000003,-0.7039622183500005,0.9938040164999999,-0.20347791174999985,0.11725106245000005,0.2488434143,-0.05840754332499999
03:44:07,1.4878465999999997,1.4036342,-1.9903186000000002,-0.014845299999999992,0.2158378,0.1224883,0.2902802999999996,-31.5993292,1.4702404,-144.45519200000004,-0.6919069570000005,0.9841488299999999,-0.21046358499999984,0.11982380900000006,0.249026666,-0.059104301499999984
03:44:07,1.4964853199999997,1.39855544,-1.9858831700000001,-0.015559084999999986,0.21624796,0.12550323500000005,0.30741738499999993,-31.601030440000002,1.4839190300000002,-146.18935240000005,-0.6798516956500005,0.9744936435,-0.21744925824999983,0.12239655555000006,0.2492099177,-0.05980105967499999
03:44:07,1.5051240399999999,1.39347668,-1.9814477400000001,-0.01627287000000001,0.21665812,0.12851817,0.3245544699999998,-31.60273168,1.49759766,-147.92351280000005,-0.6677964343000005,0.9648384569999999,-0.22443493149999982,0.12496930210000007,0.2493931694,-0.060497817849999996
03:44:07,1.5137627599999999,1.38839792,-1.97701231,-0.016986655000000003,0.21706828,0.13153310500000004,0.3416915549999997,-31.60443292,1.5112762899999999,-149.6576732,-0.6557411729500005,0.9551832704999998,-0.23142060474999981,0.12754204865000007,0.2495764211,-0.061194576025
03:44:07,1.5224014799999999,1.38331916,-1.97257688,-0.017700439999999998,0.21747844,0.13454803999999998,0.3588286399999996,-31.60613416,1.52495492,-151.3918336,-0.6436859116000004,0.945528084,-0.2384062779999998,0.13011479520000008,0.24975967280000003,-0.06189133419999998
03:44:07,1.5310401999999999,1.3782404000000001,-1.96814145,-0.018414224999999992,0.2178886,0.13756297500000003,0.3759657249999999,-31.6078354,1.53863355,-153.12599400000002,-0.6316306502500004,0.9358728974999999,-0.2453919512499998,0.13268754175000008,0.24994292450000002,-0.06258809237499999
03:44:07,1.5396789199999998,1.3731616400000002,-1.96370602,-0.019128009999999987,0.21829875999999998,0.14057791000000008,0.3931028099999998,-31.60953664,1.5523121800000002,-154.86015440000003,-0.6195753889000004,0.9262177109999998,-0.2523776244999998,0.13526028830000003,0.2501261762,-0.06328485055
03:44:07,1.5483176399999998,1.36808288,-1.95927059,-0.01984179500000001,0.21870891999999997,0.14359284500000002,0.4102398949999997,-31.61123788,1.56599081,-156.59431480000003,-0.6075201275500004,0.9165625245,-0.2593632977499998,0.13783303485000004,0.2503094279,-0.063981608725
03:44:07,1.5569563599999998,1.36300412,-1.95483516,-0.020555580000000004,0.21911908,0.14660778000000008,0.4273769799999996,-31.61293912,1.5796694400000002,-158.32847520000004,-0.5954648662000004,0.9069073379999999,-0.26634897099999977,0.14040578140000004,0.2504926796,-0.06467836689999998
03:44:07,1.5655950799999998,1.35792536,-1.95039973,-0.021269365,0.21952924,0.14962271500000002,0.4445140649999999,-31.61464036,1.59334807,-160.06263560000005,-0.5834096048500004,0.8972521514999998,-0.27333464424999976,0.14297852795000004,0.2506759313,-0.06537512507499998
03:44:07,1.5742337999999998,1.3528466,-1.9459643,-0.021983149999999993,0.2199394,0.15263765000000007,0.4616511499999998,-31.616341600000002,1.6070267000000003,-161.79679600000006,-0.5713543435000004,0.887596965,-0.28032031749999975,0.14555127450000005,0.25085918300000004,-0.06607188324999999
03:44:07,1.5828725199999998,1.34776784,-1.94152887,-0.022696934999999988,0.22034956,0.155652585,0.4787882349999997,-31.61804284,1.62070533,-163.5309564,-0.5592990821500003,0.8779417784999999,-0.28730599074999974,0.14812402105000005,0.25104243470000004,-0.066768641425
03:44:07,1.5915112399999998,1.34268908,-1.93709344,-0.02341072000000001,0.22075972,0.15866752000000006,0.49592532,-31.61974408,1.6343839600000003,-165.26511680000002,-0.5472438208000003,0.868286592,-0.29429166399999995,0.15069676760000006,0.25122568640000004,-0.06746539959999998
03:44:07,1.6001499599999998,1.33761032,-1.93265801,-0.024124505000000004,0.22116987999999999,0.161682455,0.5130624049999999,-31.62144532,1.64806259,-166.99927720000002,-0.5351885594500003,0.8586314055,-0.30127733724999994,0.15326951415000006,0.25140893810000003,-0.06816215777499998
03:44:07,1.6087886799999997,1.33253156,-1.92822258,-0.02483829,0.22158003999999998,0.16469739000000005,0.5301994899999998,-31.623146560000002,1.66174122,-168.73343760000003,-0.5231332981000003,0.8489762189999999,-0.30826301049999993,0.15584226070000007,0.25159218980000003,-0.06885891594999999
03:44:07,1.6174273999999997,1.3274528,-1.9237871500000001,-0.025552074999999994,0.22199019999999997,0.167712325,0.5473365749999997,-31.6248478,1.6754198500000002,-170.46759800000004,-0.5110780367500003,0.8393210325,-0.3152486837499999,0.15841500725000007,0.25177544150000003,-0.069555674125
03:44:07,1.6260661199999997,1.3223740400000001,-1.91935172,-0.026265859999999988,0.22240036,0.17072726000000005,0.56447366,-31.62654904,1.68909848,-172.20175840000005,-0.4990227754000003,0.8296658459999999,-0.3222343569999999,0.16098775380000002,0.25195869320000003,-0.0702524323
03:44:07,1.6347048399999997,1.31729528,-1.91491629,-0.026979644999999983,0.22281051999999998,0.173742195,0.5816107449999999,-31.62825028,1.7027771100000002,-173.93591880000005,-0.48696751405000027,0.8200106594999998,-0.3292200302499999,0.16356050035000008,0.2521419449,-0.07094919047499998
03:44:07,1.6433435599999997,1.31221652,-1.91048086,-0.027693430000000005,0.22322068,0.17675713000000004,0.5987478299999998,-31.629951520000002,1.71645574,-175.6700792,-0.47491225270000026,0.810355473,-0.3362057034999999,0.16613324690000003,0.2523251966,-0.07164594864999999
03:44:07,1.6519822799999997,1.30713776,-1.90604543,-0.028407215,0.22363084,0.17977206499999998,0.6158849149999996,-31.63165276,1.7301343700000003,-177.4042396,-0.46285699135000025,0.8007002864999999,-0.3431913767499999,0.1687059934500001,0.2525084483,-0.07234270682499999
03:44:08,1.660621,1.302059,-1.90161,-0.029121,0.224041,0.182787,0.633022,-31.633354,1.743813,-179.1384,-0.45080173,0.7910451,-0.35017705,0.17127874,0.2526917,-0.073039465
03:44:08,1.66278174,1.2919283700000002,-1.90211574,-0.03734016,0.22127642,0.181897435,0.6296741299999999,-31.629554335,1.7596081700000001,-177.3610975,-0.44909254415,0.7790940165,-0.3490035621,0.1643153323,0.25168506262,-0.066540728675
03:44:08,1.66494248,1.28179774,-1.90262148,-0.04555932,0.21851183999999998,0.18100787000000002,0.62632626,-31.62575467,1.77540334,-175.58379499999998,-0.44738335830000003,0.7671429329999999,-0.3478300742,0.15735192460000003,0.25067842524,-0.06004199235
03:44:08,1.66710322,1.27166711,-1.90312722,-0.053778480000000004,0.21574726,0.180118305,0.62297839,-31.621955005,1.79119851,-173.8064925,-0.44567417245,0.7551918495,-0.3466565863,0.15038851690000002,0.24967178786000002,-0.053543256025
03:44:08,1.6692639599999999,1.2615364800000002,-1.90363296,-0.06199764,0.21298267999999998,0.17922874,0.61963052,-31.61815534,1.8069936800000002,-172.02919,-0.4439649866,0.743240766,-0.34548309839999997,0.1434251092,0.24866515048,-0.047044519699999995
03:44:08,1.6714247,1.25140585,-1.9041387,-0.0702168,0.2102181,0.17833917500000002,0.6162826499999999,-31.614355675000002,1.82278885,-170.25188749999998,-0.44225580075000004,0.7312896824999999,-0.3443096105,0.13646170150000003,0.24765851310000003,-0.040545783375
03:44:08,1.6735854399999999,1.2412752200000001,-1.90464444,-0.07843596,0.20745352,0.17744961,0.61293478,-31.61055601,1.83858402,-168.474585,-0.4405466149,0.719338599,-0.3431361226,0.12949829380000002,0.24665187572000002,-0.03404704705
03:44:08,1.67574618,1.23114459,-1.90515018,-0.08665512,0.20468893999999999,0.176560045,0.60958691,-31.606756345,1.85437919,-166.6972825,-0.43883742905,0.7073875155,-0.3419626347,0.12253488610000002,0.24564523834000002,-0.027548310724999997
03:44:08,1.6779069199999999,1.22101396,-1.90565592,-0.09487428,0.20192436,0.17567048000000002,0.60623904,-31.602956680000002,1.87017436,-164.91997999999998,-0.4371282432,0.6954364319999999,-0.3407891468,0.11557147840000001,0.24463860096,-0.0210495744
03:44:08,1.68006766,1.2108833300000001,-1.90616166,-0.10309344000000001,0.19915977999999998,0.174780915,0.6028911699999999,-31.599157015,1.8859695300000001,-163.1426775,-0.43541905735,0.6834853485,-0.3396156589,0.10860807070000002,0.24363196358000003,-0.014550838075000003
03:44:08,1.6822283999999998,1.2007527,-1.9066674000000001,-0.11131260000000001,0.1963952,0.17389135,0.5995433,-31.59535735,1.9017647,-161.36537499999997,-0.4337098715,0.6715342649999999,-0.338442171,0.10164466300000002,0.24262532620000002,-0.008052101749999999
03:44:08,1.68438914,1.19062207,-1.90717314,-0.11953175999999999,0.19363061999999998,0.17300178500000002,0.59619543,-31.591557685,1.91755987,-159.58807249999998,-0.43200068565,0.6595831815,-0.33726868309999997,0.09468125530000002,0.24161868882,-0.0015533654249999945
03:44:08,1.6865498799999998,1.1804914400000002,-1.90767888,-0.12775092,0.19086604,0.17211222,0.5928475599999999,-31.58775802,1.9333550400000001,-157.81077,-0.43029149980000003,0.647632098,-0.3360951952,0.08771784760000002,0.24061205144000003,0.004945370899999996
03:44:08,1.68871062,1.17036081,-1.90818462,-0.13597008,0.18810146,0.171222655,0.58949969,-31.583958355,1.94915021,-156.03346749999997,-0.42858231395,0.6356810144999999,-0.3349217073,0.08075443990000002,0.23960541406000002,0.011444107225
03:44:08,1.6908713599999998,1.16023018,-1.90869036,-0.14418924,0.18533687999999998,0.17033309,0.58615182,-31.58015869,1.96494538,-154.25616499999998,-0.4268731281,0.623729931,-0.3337482194,0.07379103220000002,0.23859877668,0.017942843550000004
03:44:08,1.6930321,1.1500995500000002,-1.9091961,-0.1524084,0.1825723,0.169443525,0.58280395,-31.576359025000002,1.9807405500000002,-152.4788625,-0.42516394225,0.6117788474999999,-0.3325747315,0.06682762450000002,0.2375921393,0.024441579874999994
03:44:08,1.6951928399999998,1.13996892,-1.90970184,-0.16062756,0.17980772,0.16855396,0.5794560799999999,-31.57255936,1.99653572,-150.70155999999997,-0.4234547564,0.5998277639999999,-0.3314012436,0.05986421680000002,0.23658550192000002,0.030940316199999998
03:44:08,1.69735358,1.1298382900000001,-1.91020758,-0.16884672,0.17704314,0.167664395,0.57610821,-31.568759695,2.0123308900000003,-148.92425749999998,-0.42174557055,0.5878766805,-0.3302277557,0.05290080910000003,0.23557886454000002,0.037439052525
03:44:08,1.69951432,1.11970766,-1.91071332,-0.17706588,0.17427856,0.16677483,0.57276034,-31.56496003,2.02812606,-147.146955,-0.4200363847,0.5759255969999999,-0.3290542678,0.04593740140000002,0.23457222716,0.04393778884999999
03:44:08,1.70167506,1.10957703,-1.91121906,-0.18528504,0.17151397999999998,0.165885265,0.56941247,-31.561160365,2.04392123,-145.36965249999997,-0.41832719885,0.5639745134999999,-0.3278807799,0.038973993700000015,0.23356558978000003,0.050436525175
03:44:08,1.7038358,1.0994464000000002,-1.9117248,-0.19350420000000002,0.1687494,0.1649957,0.5660646,-31.5573607,2.0597164,-143.59234999999998,-0.416618013,0.55202343,-0.326707292,0.032010586000000035,0.23255895240000002,0.0569352615
03:44:08,1.70599654,1.08931577,-1.91223054,-0.20172336,0.16598481999999998,0.16410613500000001,0.56271673,-31.553561035,2.07551157,-141.8150475,-0.41490882715,0.5400723464999999,-0.3255338041,0.025047178300000028,0.23155231502,0.063433997825
03:44:08,1.70815728,1.07918514,-1.91273628,-0.20994252,0.16322024,0.16321657,0.55936886,-31.549761370000002,2.0913067400000003,-140.03774499999997,-0.41319964130000003,0.528121263,-0.3243603162,0.01808377060000002,0.23054567764,0.06993273415000001
03:44:08,1.7103180199999999,1.06905451,-1.91324202,-0.21816168,0.16045566,0.162327005,0.5560209899999999,-31.545961705,2.10710191,-138.26044249999998,-0.41149045545,0.5161701795,-0.3231868283,0.011120362900000014,0.22953904026000002,0.07643147047499999
03:44:08,1.71247876,1.05892388,-1.9137477600000001,-0.22638084,0.15769107999999998,0.16143744000000002,0.5526731199999999,-31.54216204,2.12289708,-136.48314,-0.4097812696,0.5042190959999999,-0.3220133404,0.004156955200000034,0.22853240288,0.08293020679999999
03:44:08,1.7146394999999999,1.0487932500000001,-1.9142535,-0.2346,0.1549265,0.160547875,0.54932525,-31.538362375000002,2.13869225,-134.70583749999997,-0.40807208375000004,0.49226801249999996,-0.3208398525,-0.002806452499999973,0.2275257655,0.089428943125
03:44:08,1.71680024,1.0386626200000002,-1.91475924,-0.24281916,0.15216192,0.15965831,0.54597738,-31.53456271,2.15448742,-132.92853499999998,-0.4063628979,0.48031692899999995,-0.3196663646,-0.00976986019999998,0.22651912812000002,0.09592767945
03:44:08,1.7189609799999999,1.02853199,-1.9152649800000001,-0.25103832,0.14939734,0.158768745,0.5426295099999999,-31.530763045,2.1702825900000002,-131.1512325,-0.40465371205,0.4683658455,-0.3184928767,-0.01673326789999996,0.22551249074000002,0.102426415775
03:44:08,1.72112172,1.0184013600000001,-1.91577072,-0.25925748,0.14663275999999997,0.15787918,0.53928164,-31.52696338,2.18607776,-129.37392999999997,-0.4029445262,0.456414762,-0.3173193888,-0.023696675599999967,0.22450585336,0.1089251521
03:44:08,1.7232824599999998,1.00827073,-1.91627646,-0.26747664,0.14386817999999998,0.156989615,0.53593377,-31.523163715,2.20187293,-127.59662749999998,-0.40123534035,0.44446367849999996,-0.3161459009,-0.030660083299999974,0.22349921598000003,0.11542388842499998
03:44:08,1.7254432,0.9981401000000001,-1.9167822,-0.2756958,0.1411036,0.15610005,0.5325859,-31.51936405,2.2176681,-125.81932499999999,-0.3995261545,0.43251259499999994,-0.314972413,-0.03762349099999998,0.22249257860000002,0.12192262474999999
03:44:08,1.7276039399999998,0.9880094700000001,-1.91728794,-0.28391496,0.13833901999999998,0.155210485,0.5292380299999999,-31.515564385,2.23346327,-124.04202249999997,-0.39781696865,0.4205615115,-0.3137989251,-0.04458689869999996,0.22148594122,0.128421361075
03:44:08,1.72976468,0.97787884,-1.91779368,-0.29213412,0.13557444,0.15432092,0.52589016,-31.511764720000002,2.24925844,-122.26471999999998,-0.39610778280000003,0.40861042799999997,-0.3126254372,-0.05155030639999997,0.22047930384000003,0.1349200974
03:44:08,1.7319254199999998,0.9677482100000001,-1.91829942,-0.30035328,0.13280986,0.153431355,0.52254229,-31.507965055,2.26505361,-120.48741749999999,-0.39439859695,0.39665934449999996,-0.3114519493,-0.058513714099999975,0.21947266646000002,0.141418833725
03:44:08,1.73408616,0.9576175800000001,-1.91880516,-0.30857244,0.13004527999999999,0.15254179,0.5191944199999999,-31.50416539,2.2808487800000004,-118.71011499999997,-0.3926894111,0.384708261,-0.3102784614,-0.06547712179999995,0.21846602908,0.14791757005
03:44:08,1.7362468999999998,0.94748695,-1.9193109,-0.3167916,0.1272807,0.151652225,0.51584655,-31.500365725,2.29664395,-116.93281249999998,-0.39098022525,0.3727571775,-0.3091049735,-0.07244052949999996,0.2174593917,0.154416306375
03:44:08,1.73840764,0.9373563200000001,-1.91981664,-0.32501076,0.12451612,0.15076266,0.51249868,-31.49656606,2.31243912,-115.15550999999998,-0.3892710394,0.36080609399999997,-0.3079314856,-0.07940393719999997,0.21645275432000002,0.16091504269999998
03:44:08,1.74056838,0.9272256900000001,-1.92032238,-0.33322992,0.12175153999999999,0.149873095,0.50915081,-31.492766395,2.32823429,-113.37820749999999,-0.38756185355,0.34885501049999995,-0.3067579977,-0.08636734489999995,0.21544611694000002,0.167413779025
03:44:08,1.74272912,0.9170950600000001,-1.92082812,-0.34144908,0.11898695999999999,0.14898353,0.5058029399999999,-31.48896673,2.3440294600000002,-111.60090499999998,-0.38585266770000004,0.336903927,-0.3055845098,-0.09333075259999998,0.21443947956,0.17391251535
03:44:08,1.74488986,0.9069644300000002,-1.92133386,-0.34966824,0.11622237999999999,0.148093965,0.50245507,-31.485167065,2.3598246300000003,-109.82360249999998,-0.38414348185,0.3249528435,-0.3044110219,-0.10029416029999996,0.21343284218000003,0.18041125167499997
03:44:08,1.7470506,0.8968338,-1.9218396,-0.3578874,0.1134578,0.1472044,0.4991072,-31.4813674,2.3756198,-108.04629999999997,-0.382434296,0.31300175999999996,-0.303237534,-0.10725756799999994,0.21242620480000002,0.186909988
03:44:08,1.74921134,0.8867031700000001,-1.9223453400000001,-0.36610655999999997,0.11069322,0.146314835,0.49575932999999994,-31.477567735,2.39141497,-106.26899749999998,-0.38072511015,0.3010506765,-0.3020640461,-0.11422097569999998,0.21141956742,0.19340872432499998
03:44:08,1.7513720799999999,0.8765725400000001,-1.92285108,-0.37432572,0.10792863999999999,0.14542527,0.49241145999999997,-31.473768070000002,2.40721014,-104.49169499999998,-0.37901592430000003,0.289099593,-0.3008905582,-0.12118438339999996,0.21041293004,0.19990746065
03:44:08,1.75353282,0.86644191,-1.92335682,-0.38254488,0.10516405999999999,0.14453570500000001,0.48906359,-31.469968405,2.42300531,-102.71439249999997,-0.37730673845,0.27714850950000003,-0.2997170703,-0.12814779109999994,0.20940629266000002,0.20640619697499998
03:44:08,1.7556935599999999,0.8563112800000001,-1.92386256,-0.39076404,0.10239947999999999,0.14364614,0.48571571999999996,-31.46616874,2.4388004800000003,-100.93708999999998,-0.3755975526,0.26519742599999996,-0.2985435824,-0.13511119879999997,0.20839965528,0.21290493330000002
03:44:08,1.7578543,0.8461806500000001,-1.9243683,-0.3989832,0.09963489999999998,0.142756575,0.48236784999999993,-31.462369075,2.45459565,-99.15978749999998,-0.37388836675000003,0.2532463425,-0.2973700945,-0.14207460649999995,0.2073930179,0.219403669625
03:44:08,1.7600150399999999,0.8360500200000001,-1.92487404,-0.40720236,0.09687031999999998,0.14186701000000002,0.47901997999999996,-31.45856941,2.47039082,-97.38248499999997,-0.3721791809,0.24129525899999993,-0.2961966066,-0.14903801419999999,0.20638638052000002,0.22590240594999997
03:44:08,1.76217578,0.8259193900000001,-1.92537978,-0.41542152,0.09410574,0.140977445,0.47567211,-31.454769745,2.48618599,-95.60518249999998,-0.37046999505,0.22934417549999997,-0.2950231187,-0.15600142189999996,0.20537974314000002,0.232401142275
03:44:08,1.7643365199999999,0.8157887600000001,-1.92588552,-0.42364068,0.09134115999999998,0.14008788,0.47232423999999995,-31.45097008,2.50198116,-93.82787999999998,-0.3687608092,0.217393092,-0.2938496308,-0.16296482959999994,0.20437310576,0.23889987859999998
03:44:08,1.76649726,0.8056581300000001,-1.92639126,-0.43185984,0.08857657999999999,0.13919831500000002,0.46897637,-31.447170415000002,2.5177763300000002,-92.05057749999997,-0.36705162335,0.20544200849999994,-0.2926761429,-0.16992823729999998,0.20336646838,0.245398614925
03:44:08,1.7686579999999998,0.7955275,-1.926897,-0.440079,0.085812,0.13830875,0.4656285,-31.44337075,2.5335715,-90.27327499999998,-0.3653424375,0.19349092499999998,-0.291502655,-0.17689164499999996,0.20235983100000002,0.25189735125
03:44:08,1.77081874,0.7853968700000001,-1.92740274,-0.44829816,0.08304741999999998,0.137419185,0.46228062999999997,-31.439571085,2.54936667,-88.49597249999998,-0.36363325165,0.18153984150000002,-0.2903291671,-0.18385505269999994,0.20135319362,0.258396087575
03:44:08,1.77297948,0.7752662400000001,-1.92790848,-0.45651732,0.08028284,0.13652962000000002,0.45893275999999994,-31.435771420000002,2.56516184,-86.71866999999997,-0.3619240658,0.16958875799999995,-0.2891556792,-0.19081846039999997,0.20034655624000003,0.26489482389999996
03:44:08,1.77514022,0.7651356100000001,-1.92841422,-0.46473648,0.07751825999999998,0.135640055,0.45558488999999996,-31.431971755,2.58095701,-84.94136749999998,-0.36021487995,0.1576376745,-0.2879821913,-0.19778186809999995,0.19933991886000002,0.27139356022499994
03:44:08,1.77730096,0.75500498,-1.92891996,-0.47295564,0.07475367999999999,0.13475049,0.45223702,-31.42817209,2.59675218,-83.16406499999998,-0.3585056941,0.14568659100000003,-0.2868087034,-0.20474527579999993,0.19833328148,0.27789229655000003
03:44:08,1.7794617,0.7448743500000001,-1.9294257000000001,-0.4811748,0.0719891,0.13386092500000002,0.44888914999999996,-31.424372425,2.61254735,-81.38676249999997,-0.35679650825,0.13373550749999996,-0.2856352155,-0.21170868349999997,0.1973266441,0.284391032875
03:44:08,1.78162244,0.7347437200000001,-1.92993144,-0.48939395999999996,0.06922451999999998,0.13297136,0.44554127999999993,-31.42057276,2.6283425200000003,-79.60945999999998,-0.3550873224,0.121784424,-0.2844617276,-0.21867209119999995,0.19632000672,0.2908897692
