Timestamp,linacce_x,linacce_y,linacce_z,gyro_x,gyro_y,gyro_z,X-magnetometer,Y-magnetometer,Z-magnetometer,Yaw, worldXAccel,worldYAccel,worldZAccel,worldXgyro,worldYgyro,worldZgyro
03:45:40,-0.425011,0.934722,-1.633221,0.411933,0.054651,-0.264659,-0.150463,-30.759308,-5.287521,176.08139,-1.6130334,1.093511,1.3564777,0.07102901,0.1414807,-0.13560744
03:45:40,-0.42960770000000004,0.9240927750000001,-1.618687615,0.413371225,0.056712445,-0.262166085,-0.135862115,-30.760615525000002,-5.2832712399999995,174.32411825,-1.6072488635,1.0806780139999999,1.3470543977999998,0.07409622845000001,0.143486121,-0.13750009065
03:45:40,-0.43420440000000005,0.91346355,-1.60415423,0.41480944999999997,0.058773889999999995,-0.25967316999999995,-0.12126123000000001,-30.76192305,-5.27902148,172.5668465,-1.601464327,1.0678450279999998,1.3376310956,0.0771634469,0.14549154199999997,-0.13939274129999998
03:45:40,-0.43880110000000005,0.902834325,-1.589620845,0.416247675,0.060835335,-0.25718025499999997,-0.10666034500000002,-30.763230575,-5.2747717199999995,170.80957475,-1.5956797905,1.055012042,1.3282077933999998,0.08023066535000001,0.14749696299999998,-0.14128539195
03:45:40,-0.4433978,0.8922051000000001,-1.57508746,0.4176859,0.06289678,-0.25468734,-0.09205946000000001,-30.7645381,-5.27052196,169.052303,-1.589895254,1.042179056,1.3187844912,0.0832978838,0.149502384,-0.1431780426
03:45:40,-0.4479945,0.881575875,-1.560554075,0.419124125,0.064958225,-0.252194425,-0.07745857500000002,-30.765845625,-5.2662721999999995,167.29503125,-1.5841107175,1.02934607,1.3093611889999999,0.08636510225,0.151507805,-0.14507069325
03:45:40,-0.4525912,0.87094665,-1.54602069,0.42056235,0.06701967,-0.24970151,-0.06285769000000002,-30.767153150000002,-5.26202244,165.5377595,-1.578326181,1.0165130839999998,1.2999378868,0.08943232070000001,0.15351322599999997,-0.1469633439
03:45:40,-0.45718790000000004,0.8603174250000001,-1.531487305,0.422000575,0.069081115,-0.24720859499999998,-0.048256805000000014,-30.768460675,-5.2577726799999995,163.78048775,-1.5725416445,1.0036800979999998,1.2905145846,0.09249953915,0.15551864699999998,-0.14885599454999998
03:45:40,-0.46178460000000005,0.8496882000000001,-1.51695392,0.4234388,0.07114256,-0.24471568,-0.03365592000000002,-30.7697682,-5.25352292,162.023216,-1.566757108,0.9908471119999999,1.2810912823999998,0.0955667576,0.157524068,-0.1507486452
03:45:40,-0.46638130000000005,0.839058975,-1.502420535,0.424877025,0.073204005,-0.24222276499999998,-0.019055035000000026,-30.771075725,-5.2492731599999995,160.26594425,-1.5609725715,0.9780141259999999,1.2716679802,0.09863397605,0.159529489,-0.15264129585
03:45:40,-0.470978,0.8284297500000001,-1.48788715,0.42631525,0.07526545,-0.23972984999999997,-0.004454150000000018,-30.77238325,-5.2450234,158.5086725,-1.555188035,0.9651811399999999,1.2622446779999998,0.10170119450000001,0.16153490999999998,-0.1545339465
03:45:40,-0.4755747,0.817800525,-1.473353765,0.427753475,0.077326895,-0.23723693499999998,0.01014673499999999,-30.773690775000002,-5.24077364,156.75140075,-1.5494034985,0.952348154,1.2528213758,0.10476841295,0.16354033099999998,-0.15642659714999999
03:45:40,-0.4801714,0.8071713,-1.4588203800000001,0.4291917,0.07938834,-0.23474401999999997,0.02474761999999997,-30.7749983,-5.23652388,154.994129,-1.543618962,0.9395151679999999,1.2433980735999999,0.1078356314,0.165545752,-0.1583192478
03:45:40,-0.48476810000000004,0.7965420750000001,-1.4442869950000001,0.43062992499999997,0.081449785,-0.23225110499999999,0.03934850499999998,-30.776305825,-5.23227412,153.23685725,-1.5378344255,0.926682182,1.2339747714,0.11090284985000001,0.167551173,-0.16021189845
03:45:40,-0.48936480000000004,0.7859128500000001,-1.4297536100000001,0.43206815,0.08351123,-0.22975818999999997,0.053949389999999986,-30.77761335,-5.22802436,151.47958549999998,-1.532049889,0.9138491959999999,1.2245514692,0.1139700683,0.16955659399999998,-0.1621045491
03:45:40,-0.49396150000000005,0.775283625,-1.415220225,0.433506375,0.085572675,-0.227265275,0.06855027499999997,-30.778920875,-5.2237746,149.72231375,-1.5262653524999998,0.9010162099999999,1.215128167,0.11703728675,0.17156201499999998,-0.16399719975
03:45:40,-0.49855820000000006,0.7646544000000001,-1.40068684,0.4349446,0.08763412000000001,-0.22477235999999998,0.08315115999999997,-30.780228400000002,-5.21952484,147.965042,-1.520480816,0.8881832239999999,1.2057048648,0.1201045052,0.173567436,-0.16588985039999998
03:45:40,-0.5031549000000001,0.7540251750000001,-1.386153455,0.436382825,0.089695565,-0.22227944499999996,0.09775204499999998,-30.781535925,-5.21527508,146.20777025,-1.5146962794999999,0.8753502379999999,1.1962815625999998,0.12317172365000001,0.17557285699999997,-0.16778250105
03:45:40,-0.5077516000000001,0.74339595,-1.37162007,0.43782105,0.09175701,-0.21978652999999998,0.11235292999999996,-30.78284345,-5.21102532,144.4504985,-1.5089117429999999,0.862517252,1.1868582604,0.1262389421,0.17757827799999998,-0.1696751517
03:45:40,-0.5123483,0.7327667250000001,-1.357086685,0.439259275,0.093818455,-0.21729361499999997,0.12695381499999997,-30.784150975,-5.20677556,142.69322675,-1.5031272064999999,0.8496842659999999,1.1774349581999999,0.12930616055,0.17958369899999999,-0.17156780235
03:45:40,-0.516945,0.7221375000000001,-1.3425533,0.4406975,0.0958799,-0.21480069999999998,0.14155469999999998,-30.7854585,-5.2025258,140.935955,-1.4973426699999999,0.8368512799999999,1.168011656,0.132373379,0.18158912,-0.17346045300000001
03:45:40,-0.5215417,0.7115082750000001,-1.328019915,0.442135725,0.09794134500000001,-0.21230778499999997,0.15615558499999999,-30.786766025000002,-5.19827604,139.17868325,-1.4915581334999999,0.8240182939999999,1.1585883538,0.13544059745,0.183594541,-0.17535310365
03:45:40,-0.5261384,0.7008790500000001,-1.31348653,0.44357395,0.10000279000000001,-0.20981487,0.17075647,-30.78807355,-5.19402628,137.4214115,-1.485773597,0.811185308,1.1491650515999998,0.1385078159,0.18559996199999998,-0.1772457543
03:45:40,-0.5307351,0.6902498250000001,-1.298953145,0.445012175,0.102064235,-0.20732195499999997,0.18535735499999995,-30.789381075,-5.18977652,135.66413975,-1.4799890605,0.798352322,1.1397417494,0.14157503435000002,0.187605383,-0.17913840495
03:45:40,-0.5353318,0.6796206,-1.28441976,0.4464504,0.10412568,-0.20482903999999996,0.19995823999999995,-30.7906886,-5.18552676,133.906868,-1.474204524,0.7855193359999999,1.1303184471999999,0.1446422528,0.18961080399999997,-0.1810310556
03:45:40,-0.5399285,0.668991375,-1.269886375,0.447888625,0.10618712500000001,-0.20233612499999998,0.21455912499999996,-30.791996125,-5.181277,132.14959625,-1.4684199875,0.7726863499999999,1.120895145,0.14770947125,0.19161622499999997,-0.18292370624999998
03:45:40,-0.5445252,0.6583621500000001,-1.25535299,0.44932685,0.10824857000000002,-0.19984321,0.22916000999999997,-30.793303650000002,-5.17702724,130.3923245,-1.462635451,0.7598533639999999,1.1114718427999999,0.15077668970000002,0.19362164599999998,-0.1848163569
03:45:40,-0.5491219,0.6477329250000001,-1.240819605,0.450765075,0.11031001500000001,-0.19735029499999998,0.24376089499999998,-30.794611175,-5.17277748,128.63505275,-1.4568509145,0.747020378,1.1020485405999998,0.15384390814999999,0.195627067,-0.18670900755
03:45:40,-0.5537186000000001,0.6371037,-1.22628622,0.4522033,0.11237146,-0.19485737999999997,0.25836178,-30.7959187,-5.16852772,126.877781,-1.451066378,0.7341873919999999,1.0926252384,0.1569111266,0.197632488,-0.1886016582
03:45:40,-0.5583153000000001,0.6264744750000001,-1.211752835,0.453641525,0.114432905,-0.19236446499999998,0.27296266499999994,-30.797226225,-5.16427796,125.12050925,-1.4452818415,0.7213544059999999,1.0832019362,0.15997834505,0.19963790899999997,-0.19049430885
03:45:40,-0.5629120000000001,0.61584525,-1.19721945,0.45507975,0.11649435,-0.18987154999999997,0.28756354999999995,-30.79853375,-5.1600282,123.3632375,-1.439497305,0.7085214199999998,1.073778634,0.1630455635,0.20164332999999998,-0.1923869595
03:45:40,-0.5675087000000001,0.605216025,-1.182686065,0.456517975,0.11855579500000002,-0.18737863499999996,0.30216443499999995,-30.799841275000002,-5.15577844,121.60596575,-1.4337127685,0.6956884339999999,1.0643553317999999,0.16611278195,0.203648751,-0.19427961015
03:45:40,-0.5721054000000001,0.5945868000000001,-1.16815268,0.4579562,0.12061724000000001,-0.18488571999999998,0.31676531999999996,-30.8011488,-5.15152868,119.848694,-1.427928232,0.682855448,1.0549320296,0.1691800004,0.20565417199999997,-0.1961722608
03:45:40,-0.5767021000000001,0.5839575750000001,-1.153619295,0.459394425,0.12267868500000001,-0.182392805,0.33136620499999997,-30.802456325,-5.14727892,118.09142225,-1.4221436955,0.6700224619999999,1.0455087274,0.17224721885,0.20765959299999998,-0.19806491145
03:45:40,-0.5812988,0.5733283500000002,-1.13908591,0.46083265,0.12474013,-0.17989988999999998,0.34596709,-30.80376385,-5.14302916,116.33415049999999,-1.416359159,0.6571894759999999,1.0360854252,0.17531443730000001,0.20966501399999998,-0.19995756209999999
03:45:40,-0.5858955,0.5626991250000001,-1.124552525,0.462270875,0.126801575,-0.17740697499999997,0.36056797499999993,-30.805071375,-5.1387794,114.57687874999999,-1.4105746225,0.64435649,1.026662123,0.17838165575,0.211670435,-0.20185021274999998
03:45:40,-0.5904922,0.5520699000000001,-1.11001914,0.4637091,0.12886302000000002,-0.17491405999999998,0.37516885999999994,-30.806378900000002,-5.13452964,112.819607,-1.404790086,0.6315235039999999,1.0172388207999998,0.1814488742,0.213675856,-0.2037428634
03:45:40,-0.5950889,0.541440675,-1.095485755,0.465147325,0.13092446500000002,-0.17242114499999997,0.38976974499999995,-30.807686425,-5.13027988,111.06233525,-1.3990055495,0.618690518,1.0078155186,0.18451609265000002,0.21568127699999998,-0.20563551405
03:45:40,-0.5996856,0.5308114500000001,-1.0809523699999999,0.46658555,0.13298591,-0.16992822999999996,0.40437062999999995,-30.80899395,-5.12603012,109.3050635,-1.393221013,0.6058575319999999,0.9983922163999999,0.18758331109999998,0.21768669799999998,-0.20752816470000002
03:45:40,-0.6042823,0.5201822250000001,-1.0664189849999999,0.46802377500000003,0.135047355,-0.16743531499999997,0.41897151499999996,-30.810301475,-5.12178036,107.54779175,-1.3874364765,0.5930245459999999,0.9889689142,0.19065052955,0.21969211899999996,-0.20942081535
03:45:40,-0.6088790000000001,0.5095530000000001,-1.0518855999999999,0.469462,0.1371088,-0.1649424,0.43357239999999997,-30.811609,-5.1175306,105.79052,-1.38165194,0.5801915599999999,0.9795456119999999,0.193717748,0.22169753999999997,-0.211313466
03:45:40,-0.6134757000000001,0.49892377500000007,-1.0373522149999999,0.470900225,0.139170245,-0.16244948499999998,0.448173285,-30.812916525000002,-5.11328084,104.03324825,-1.3758674035,0.5673585739999999,0.9701223097999999,0.19678496645000002,0.22370296099999998,-0.21320611665
03:45:40,-0.6180724000000001,0.4882945500000001,-1.0228188299999998,0.47233845,0.14123169000000002,-0.15995656999999996,0.46277417,-30.81422405,-5.10903108,102.2759765,-1.370082867,0.554525588,0.9606990075999999,0.1998521849,0.22570838199999999,-0.2150987673
03:45:40,-0.6226691000000001,0.4776653250000001,-1.0082854449999998,0.473776675,0.14329313500000002,-0.15746365499999998,0.477375055,-30.815531575,-5.10478132,100.51870475,-1.3642983305,0.5416926019999999,0.9512757054,0.20291940335,0.227713803,-0.21699141795
03:45:40,-0.6272658,0.46703610000000007,-0.9937520599999999,0.4752149,0.14535458,-0.15497073999999997,0.49197594,-30.8168391,-5.10053156,98.761433,-1.3585137939999998,0.528859616,0.9418524032,0.2059866218,0.229719224,-0.21888406859999998
03:45:40,-0.6318625,0.4564068750000001,-0.979218675,0.476653125,0.147416025,-0.15247782499999996,0.5065768249999999,-30.818146625,-5.0962818,97.00416125000001,-1.3527292575,0.5160266299999999,0.9324291009999999,0.20905384025,0.23172464499999998,-0.22077671925
03:45:40,-0.6364592,0.4457776500000001,-0.96468529,0.47809135,0.14947747,-0.14998490999999997,0.5211777099999999,-30.819454150000002,-5.09203204,95.24688950000001,-1.3469447209999998,0.5031936439999999,0.9230057988,0.2121210587,0.233730066,-0.2226693699
03:45:40,-0.6410559,0.4351484250000001,-0.950151905,0.479529575,0.15153891500000002,-0.147491995,0.5357785949999999,-30.820761675,-5.08778228,93.48961775000001,-1.3411601845,0.49036065799999995,0.9135824965999999,0.21518827715,0.23573548699999997,-0.22456202055000002
03:45:40,-0.6456526,0.4245192000000001,-0.93561852,0.4809678,0.15360036000000002,-0.14499907999999997,0.5503794799999999,-30.8220692,-5.08353252,91.732346,-1.3353756479999999,0.4775276719999999,0.9041591943999999,0.21825549560000002,0.23774090799999997,-0.2264546712
03:45:40,-0.6502493,0.41388997500000013,-0.921085135,0.482406025,0.15566180500000001,-0.14250616499999996,0.5649803649999999,-30.823376725,-5.07928276,89.97507425,-1.3295911115,0.46469468599999997,0.8947358921999999,0.22132271405,0.23974632899999998,-0.22834732185
03:45:40,-0.654846,0.40326075000000006,-0.90655175,0.48384425,0.15772325,-0.14001324999999998,0.5795812499999999,-30.82468425,-5.0750329999999995,88.2178025,-1.3238065749999999,0.4518616999999999,0.88531259,0.2243899325,0.24175175,-0.2302399725
03:45:40,-0.6594427,0.3926315250000001,-0.892018365,0.485282475,0.159784695,-0.13752033499999997,0.594182135,-30.825991775000002,-5.07078324,86.46053075,-1.3180220385,0.439028714,0.8758892878,0.22745715095,0.243757171,-0.23213262315
03:45:40,-0.6640394000000001,0.38200230000000013,-0.87748498,0.4867207,0.16184614000000003,-0.13502741999999998,0.60878302,-30.8272993,-5.06653348,84.703259,-1.312237502,0.42619572799999994,0.8664659855999999,0.2305243694,0.24576259199999997,-0.2340252738
03:45:40,-0.6686361000000001,0.37137307500000005,-0.862951595,0.488158925,0.16390758500000002,-0.13253450499999997,0.623383905,-30.828606825,-5.06228372,82.94598725,-1.3064529655,0.4133627419999999,0.8570426834,0.23359158785,0.24776801299999998,-0.23591792444999998
03:45:40,-0.6732328000000001,0.3607438500000001,-0.84841821,0.48959715000000004,0.16596903000000002,-0.13004158999999998,0.63798479,-30.82991435,-5.0580339599999995,81.1887155,-1.300668429,0.40052975599999996,0.8476193811999999,0.2366588063,0.24977343399999996,-0.2378105751
03:45:40,-0.6778295000000001,0.3501146250000001,-0.8338848249999999,0.491035375,0.168030475,-0.12754867499999997,0.652585675,-30.831221875,-5.0537842,79.43144375,-1.2948838925,0.3876967699999999,0.8381960789999999,0.23972602475,0.25177885499999997,-0.23970322575
03:45:40,-0.6824262000000001,0.33948540000000005,-0.8193514399999999,0.4924736,0.17009192,-0.12505575999999996,0.66718656,-30.832529400000002,-5.0495344399999995,77.674172,-1.289099356,0.374863784,0.8287727767999999,0.2427932432,0.253784276,-0.2415958764
03:45:40,-0.6870229000000001,0.3288561750000001,-0.8048180549999999,0.493911825,0.172153365,-0.12256284499999998,0.681787445,-30.833836925,-5.04528468,75.91690025,-1.2833148195,0.36203079799999993,0.8193494746,0.24586046165,0.255789697,-0.24348852705000001
03:45:40,-0.6916196000000001,0.3182269500000001,-0.79028467,0.49535005,0.17421481000000003,-0.12006992999999996,0.6963883299999999,-30.83514445,-5.0410349199999995,74.15962850000001,-1.277530283,0.3491978119999999,0.8099261724,0.2489276801,0.257795118,-0.2453811777
03:45:40,-0.6962163000000001,0.30759772500000016,-0.775751285,0.496788275,0.17627625500000002,-0.11757701499999998,0.7109892149999999,-30.836451975,-5.03678516,72.40235675000001,-1.2717457465,0.33636482599999995,0.8005028702,0.25199489855,0.259800539,-0.24727382835
03:45:40,-0.7008130000000001,0.2969685000000001,-0.7612179,0.4982265,0.17833770000000002,-0.11508409999999997,0.7255900999999999,-30.8377595,-5.0325353999999995,70.64508500000001,-1.26596121,0.3235318399999999,0.791079568,0.25506211700000003,0.26180596,-0.249166479
03:45:40,-0.7054097,0.2863392750000001,-0.746684515,0.49966472500000003,0.180399145,-0.11259118499999998,0.7401909849999999,-30.839067025000002,-5.02828564,68.88781325000001,-1.2601766735,0.31069885399999997,0.7816562657999999,0.25812933545,0.263811381,-0.25105912965
03:45:40,-0.7100064,0.27571005000000015,-0.73215113,0.50110295,0.18246059000000003,-0.11009826999999997,0.7547918699999999,-30.84037455,-5.02403588,67.1305415,-1.254392137,0.2978658679999999,0.7722329635999999,0.26119655389999996,0.26581680199999996,-0.2529517803
03:45:40,-0.7146031,0.2650808250000001,-0.717617745,0.502541175,0.18452203500000003,-0.10760535499999999,0.7693927549999999,-30.841682075,-5.01978612,65.37326975,-1.2486076005,0.285032882,0.7628096614,0.26426377235,0.26782222299999997,-0.25484443095
03:45:40,-0.7191998000000001,0.2544516000000001,-0.70308436,0.5039794,0.18658348000000002,-0.10511243999999997,0.7839936399999999,-30.8429896,-5.01553636,63.615998000000005,-1.242823064,0.27219989599999994,0.7533863592,0.2673309908,0.269827644,-0.2567370816
03:45:40,-0.7237965000000001,0.24382237500000015,-0.688550975,0.505417625,0.18864492500000002,-0.10261952499999996,0.7985945249999999,-30.844297125,-5.0112866,61.858726250000004,-1.2370385275,0.2593669099999999,0.743963057,0.27039820925,0.271833065,-0.25862973224999997
03:45:40,-0.7283932000000001,0.23319315000000007,-0.6740175899999999,0.50685585,0.19070637000000001,-0.10012660999999998,0.81319541,-30.845604650000002,-5.00703684,60.1014545,-1.231253991,0.24653392399999996,0.7345397548,0.27346542770000004,0.27383848599999994,-0.2605223829
03:45:40,-0.7329899000000001,0.2225639250000001,-0.6594842049999999,0.508294075,0.19276781500000004,-0.09763369499999996,0.827796295,-30.846912175,-5.00278708,58.34418275,-1.2254694545,0.2337009379999999,0.7251164526,0.27653264615,0.27584390699999994,-0.26241503355
03:45:40,-0.7375866,0.21193470000000014,-0.6449508199999999,0.5097323,0.19482926000000003,-0.09514077999999998,0.84239718,-30.8482197,-4.99853732,56.586911,-1.219684918,0.22086795199999998,0.7156931503999999,0.27959986459999997,0.27784932799999995,-0.2643076842
03:45:40,-0.7421833,0.20130547500000007,-0.630417435,0.511170525,0.19689070500000003,-0.09264786499999997,0.856998065,-30.849527225,-4.99428756,54.82963925,-1.2139003815,0.20803496599999993,0.7062698481999999,0.28266708305,0.27985474899999996,-0.26620033485
03:45:40,-0.74678,0.1906762500000001,-0.61588405,0.5126087500000001,0.19895215000000002,-0.09015494999999998,0.8715989499999999,-30.85083475,-4.9900378,53.0723675,-1.208115845,0.19520198,0.696846546,0.2857343015,0.28186016999999997,-0.2680929855
03:45:40,-0.7513767,0.18004702500000014,-0.601350665,0.514046975,0.20101359500000002,-0.08766203499999997,0.886199835,-30.852142275000002,-4.98578804,51.31509575000001,-1.2023313085,0.18236899399999995,0.6874232438,0.28880151995000003,0.283865591,-0.26998563615000004
03:45:40,-0.7559734,0.16941780000000017,-0.58681728,0.5154852,0.20307504000000004,-0.08516911999999999,0.9008007199999999,-30.8534498,-4.98153828,49.55782400000001,-1.196546772,0.1695360079999999,0.6779999416,0.2918687384,0.285871012,-0.27187828680000004
03:45:40,-0.7605701,0.1587885750000001,-0.572283895,0.516923425,0.20513648500000004,-0.08267620499999997,0.915401605,-30.854757325,-4.97728852,47.80055225000001,-1.1907622355,0.15670302199999997,0.6685766394,0.29493595685,0.287876433,-0.27377093745000003
03:45:40,-0.7651668,0.14815935000000013,-0.55775051,0.51836165,0.20719793000000003,-0.08018328999999996,0.9300024899999999,-30.85606485,-4.97303876,46.04328050000001,-1.184977699,0.14387003599999992,0.6591533372,0.2980031753,0.289881854,-0.2756635881
03:45:40,-0.7697635,0.13753012500000017,-0.543217125,0.519799875,0.20925937500000003,-0.07769037499999998,0.944603375,-30.857372375,-4.968789,44.28600875000001,-1.1791931625,0.13103705,0.6497300349999999,0.30107039375,0.291887275,-0.27755623875
03:45:40,-0.7743602,0.1269009000000001,-0.52868374,0.5212381,0.21132082000000002,-0.07519745999999997,0.9592042599999999,-30.858679900000002,-4.96453924,42.52873700000001,-1.173408626,0.11820406399999994,0.6403067328,0.3041376122,0.293892696,-0.2794488894
03:45:40,-0.7789569000000001,0.11627167500000013,-0.514150355,0.522676325,0.21338226500000002,-0.07270454499999998,0.9738051449999998,-30.859987425,-4.96028948,40.771465250000006,-1.1676240894999999,0.1053710779999999,0.6308834306,0.30720483065000004,0.295898117,-0.28134154005
03:45:40,-0.7835536000000001,0.10564245000000017,-0.49961696999999994,0.52411455,0.21544371000000004,-0.07021162999999997,0.9884060299999999,-30.86129495,-4.95603972,39.014193500000005,-1.161839553,0.09253809199999985,0.6214601284,0.3102720491,0.29790353799999997,-0.2832341907
03:45:40,-0.7881503000000001,0.09501322500000009,-0.48508358499999993,0.525552775,0.21750515500000003,-0.06771871499999998,1.0030069149999998,-30.862602475,-4.95178996,37.256921750000004,-1.1560550164999999,0.07970510600000003,0.6120368262,0.31333926754999997,0.299908959,-0.28512684135
03:45:40,-0.7927470000000001,0.08438400000000013,-0.4705501999999999,0.526991,0.21956660000000003,-0.06522579999999997,1.0176078,-30.86391,-4.9475402,35.49965,-1.15027048,0.06687211999999998,0.602613524,0.316406486,0.30191438,-0.287019492
03:45:40,-0.7973437000000001,0.07375477500000016,-0.4560168149999999,0.528429225,0.22162804500000002,-0.06273288499999996,1.0322086849999998,-30.865217525000002,-4.94329044,33.74237825,-1.1444859434999999,0.05403913399999993,0.5931902218,0.31947370445,0.30391980099999993,-0.28891214265
03:45:40,-0.8019404000000001,0.06312555000000009,-0.4414834299999999,0.52986745,0.22368949000000002,-0.060239969999999976,1.04680957,-30.86652505,-4.93904068,31.9851065,-1.138701407,0.04120614799999989,0.5837669195999999,0.3225409229,0.30592522199999994,-0.2908047933
03:45:40,-0.8065371000000001,0.05249632500000012,-0.4269500449999999,0.531305675,0.22575093500000004,-0.057747054999999964,1.0614104549999999,-30.867832575,-4.93479092,30.22783475,-1.1329168705,0.028373162000000063,0.5743436174,0.32560814135,0.30793064299999995,-0.29269744394999997
03:45:40,-0.8111338000000001,0.04186710000000016,-0.4124166599999999,0.5327439,0.22781238000000004,-0.05525413999999998,1.07601134,-30.8691401,-4.93054116,28.470563,-1.1271323340000001,0.015540176000000017,0.5649203152,0.3286753598,0.30993606399999996,-0.29459009459999996
03:45:40,-0.8157305000000001,0.03123787500000008,-0.39788327499999987,0.5341821250000001,0.22987382500000003,-0.05276122499999997,1.0906122249999999,-30.870447625,-4.9262914,26.713291249999997,-1.1213477975,0.0027071899999999705,0.555497013,0.33174257825,0.31194148499999996,-0.29648274525
03:45:40,-0.8203272000000001,0.020608650000000117,-0.38334988999999986,0.53562035,0.23193527000000003,-0.05026830999999998,1.10521311,-30.871755150000002,-4.92204164,24.956019499999996,-1.115563261,-0.010125796000000076,0.5460737108,0.3348097967,0.31394690599999997,-0.2983753959
03:45:40,-0.8249239,0.009979425000000153,-0.36881650499999985,0.537058575,0.23399671500000002,-0.04777539499999997,1.119813995,-30.873062675,-4.91779188,23.198747749999995,-1.1097787245,-0.022958782000000122,0.5366504086,0.33787701515,0.315952327,-0.30026804655
03:45:40,-0.8295206,-0.0006497999999999227,-0.35428311999999984,0.5384968,0.23605816000000002,-0.04528247999999996,1.13441488,-30.8743702,-4.91354212,21.441475999999994,-1.103994188,-0.035791767999999946,0.5272271064,0.3409442336,0.317957748,-0.3021606972
03:45:40,-0.8341173000000001,-0.011279024999999887,-0.33974973499999983,0.539935025,0.23811960500000004,-0.042789564999999974,1.149015765,-30.875677725,-4.90929236,19.684204249999993,-1.0982096515,-0.04862475399999999,0.5178038041999999,0.34401145205,0.319963169,-0.30405334785
03:45:40,-0.8387140000000001,-0.02190824999999985,-0.32521635000000004,0.54137325,0.24018105000000003,-0.04029664999999996,1.1636166499999998,-30.87698525,-4.9050426,17.92693250000002,-1.092425115,-0.06145774000000004,0.508380502,0.3470786705,0.32196859,-0.30594599850000004
03:45:40,-0.8433107000000001,-0.032537474999999816,-0.31068296500000003,0.542811475,0.24224249500000003,-0.03780373499999998,1.178217535,-30.878292775000002,-4.90079284,16.16966075000002,-1.0866405785,-0.07429072600000008,0.4989571998,0.35014588895,0.323974011,-0.30783864915000003
03:45:40,-0.8479074000000001,-0.04316669999999989,-0.29614958,0.5442497,0.24430394000000002,-0.035310819999999965,1.1928184199999998,-30.8796003,-4.89654308,14.412389000000019,-1.080856042,-0.08712371200000013,0.4895338976,0.3532131074,0.325979432,-0.3097312998
03:45:40,-0.8525041,-0.053795924999999856,-0.281616195,0.545687925,0.24636538500000002,-0.03281790499999998,1.207419305,-30.880907825,-4.89229332,12.655117250000018,-1.0750715055,-0.09995669799999995,0.4801105954,0.35628032585,0.32798485299999997,-0.31162395045
03:45:40,-0.8571008,-0.06442514999999982,-0.26708281,0.54712615,0.24842683000000004,-0.03032498999999997,1.2220201899999998,-30.88221535,-4.88804356,10.897845500000017,-1.069286969,-0.112789684,0.4706872932,0.3593475443,0.329990274,-0.3135166011
03:45:40,-0.8616975,-0.0750543749999999,-0.252549425,0.548564375,0.25048827500000004,-0.027832074999999984,1.236621075,-30.883522875,-4.8837938,9.140573750000016,-1.0635024325,-0.12562267000000005,0.46126399100000004,0.36241476275,0.331995695,-0.31540925175
03:45:40,-0.8662942,-0.08568359999999986,-0.23801603999999998,0.5500026,0.25254972000000003,-0.02533915999999997,1.2512219599999999,-30.884830400000002,-4.87954404,7.383302000000015,-1.057717896,-0.1384556560000001,0.45184068879999995,0.36548198120000003,0.33400111599999993,-0.3173019024
03:45:40,-0.8708909,-0.09631282499999982,-0.22348265499999997,0.551440825,0.25461116500000003,-0.02284624499999996,1.265822845,-30.886137925,-4.87529428,5.626030250000014,-1.0519333595,-0.15128864200000014,0.44241738659999996,0.36854919965,0.33600653699999994,-0.31919455305
03:45:40,-0.8754876,-0.10694204999999979,-0.20894926999999996,0.55287905,0.25667261,-0.020353329999999975,1.2804237299999999,-30.88744545,-4.87104452,3.8687585000000126,-1.046148823,-0.16412162799999996,0.4329940844,0.3716164181,0.33801195799999995,-0.3210872037
03:45:40,-0.8800843,-0.11757127499999975,-0.19441588499999995,0.554317275,0.258734055,-0.017860414999999963,1.295024615,-30.888752975,-4.86679476,2.1114867500000116,-1.0403642865,-0.176954614,0.4235707822,0.37468363655,0.34001737899999995,-0.32297985435
03:45:40,-0.884681,-0.12820049999999994,-0.17988249999999995,0.5557555000000001,0.2607955,-0.015367499999999978,1.3096254999999999,-30.8900605,-4.862545,0.3542150000000106,-1.03457975,-0.18978760000000006,0.41414748,0.377750855,0.34202279999999996,-0.324872505
03:45:40,-0.8892777000000001,-0.1388297249999999,-0.16534911499999994,0.5571937250000001,0.262856945,-0.012874584999999994,1.324226385,-30.891368025000002,-4.85829524,-1.4030567499999904,-1.0287952135,-0.2026205860000001,0.40472417780000003,0.38081807345,0.34402822099999997,-0.32676515564999997
03:45:40,-0.8938744000000001,-0.14945894999999987,-0.15081572999999993,0.55863195,0.26491839,-0.010381669999999954,1.33882727,-30.89267555,-4.85404548,-3.1603284999999914,-1.023010677,-0.21545357199999993,0.39530087560000005,0.3838852919,0.346033642,-0.32865780629999997
03:45:40,-0.8984711000000001,-0.16008817499999983,-0.13628234499999992,0.560070175,0.266979835,-0.00788875499999997,1.3534281549999998,-30.893983075,-4.8497957199999995,-4.9176002499999925,-1.0172261405,-0.22828655799999997,0.38587757340000006,0.38695251035,0.348039063,-0.33055045695
03:45:40,-0.9030678000000001,-0.1707173999999998,-0.1217489599999999,0.5615084,0.26904128000000005,-0.005395839999999985,1.36802904,-30.8952906,-4.84554596,-6.6748719999999935,-1.011441604,-0.24111954400000002,0.37645427119999997,0.3900197288,0.350044484,-0.3324431076
03:45:40,-0.9076645000000001,-0.18134662499999976,-0.1072155749999999,0.562946625,0.27110272500000004,-0.002902924999999945,1.3826299249999998,-30.896598125,-4.8412962,-8.432143749999994,-1.0056570675,-0.25395253000000007,0.367030969,0.39308694725,0.352049905,-0.33433575825
03:45:40,-0.9122612000000001,-0.19197584999999995,-0.09268218999999989,0.56438485,0.27316417000000004,-0.0004100099999999607,1.39723081,-30.897905650000002,-4.83704644,-10.189415499999996,-0.999872531,-0.2667855160000001,0.3576076668,0.3961541657,0.354055326,-0.3362284089
03:45:40,-0.9168579000000001,-0.2026050749999999,-0.07814880499999988,0.565823075,0.27522561500000003,0.0020829050000000238,1.4118316949999998,-30.899213175,-4.8327966799999995,-11.946687249999997,-0.9940879945,-0.27961850199999994,0.3481843646,0.39922138415,0.356060747,-0.33812105955
03:45:40,-0.9214546000000001,-0.21323429999999988,-0.06361541999999987,0.5672613,0.27728706000000003,0.004575820000000008,1.42643258,-30.9005207,-4.82854692,-13.703958999999998,-0.988303458,-0.292451488,0.3387610623999999,0.4022886026,0.35806616799999996,-0.34001371020000004
03:45:40,-0.9260513,-0.22386352499999984,-0.04908203499999986,0.568699525,0.279348505,0.007068735000000048,1.4410334649999998,-30.901828225,-4.8242971599999995,-15.461230749999999,-0.9825189215,-0.30528447400000003,0.32933776020000005,0.40535582105,0.36007158899999997,-0.34190636085000004
03:45:40,-0.930648,-0.2344927499999998,-0.03454864999999985,0.57013775,0.28140995,0.009561650000000033,1.45563435,-30.90313575,-4.8200474,-17.2185025,-0.976734385,-0.3181174600000001,0.31991445799999996,0.4084230395,0.36207701,-0.34379901150000003
03:45:40,-0.9352447,-0.24512197499999977,-0.020015264999999838,0.571575975,0.283471395,0.012054565000000017,1.4702352349999999,-30.904443275000002,-4.8157976399999995,-18.97577425,-0.9709498485,-0.3309504460000001,0.3104911558000001,0.41149025795,0.364082431,-0.34569166215
03:45:40,-0.9398414,-0.25575119999999996,-0.005481879999999828,0.5730142,0.28553284,0.014547480000000057,1.48483612,-30.9057508,-4.81154788,-20.733046,-0.965165312,-0.34378343199999994,0.3010678536,0.4145574764,0.36608785199999994,-0.3475843128
03:45:40,-0.9444381000000001,-0.2663804249999999,0.009051505000000182,0.574452425,0.287594285,0.01704039500000004,1.4994370049999999,-30.907058325,-4.80729812,-22.490317750000003,-0.9593807755,-0.356616418,0.2916445514000001,0.41762469485,0.36809327299999994,-0.34947696345
03:45:40,-0.9490348000000001,-0.2770096499999999,0.02358489000000019,0.5758906500000001,0.28965573,0.019533310000000026,1.51403789,-30.90836585,-4.80304836,-24.247589500000004,-0.953596239,-0.36944940400000004,0.2822212492,0.4206919133,0.37009869399999995,-0.3513696141
03:45:40,-0.9536315000000001,-0.28763887499999985,0.0381182750000002,0.5773288750000001,0.29171717500000005,0.02202622500000001,1.528638775,-30.909673375,-4.7987986,-26.004861250000005,-0.9478117025,-0.3822823900000001,0.27279794699999993,0.42375913175,0.37210411499999996,-0.35326226475
03:45:40,-0.9582282000000001,-0.2982680999999998,0.05265165999999999,0.5787671,0.29377862000000005,0.02451914000000005,1.5432396599999998,-30.910980900000002,-4.79454884,-27.762132999999977,-0.942027166,-0.39511537600000013,0.26337464480000006,0.4268263502,0.37410953599999996,-0.3551549154
03:45:40,-0.9628249000000001,-0.3088973249999998,0.067185045,0.580205325,0.29584006500000004,0.027012055000000035,1.557840545,-30.912288425,-4.79029908,-29.51940474999998,-0.9362426295,-0.40794836199999995,0.25395134259999996,0.42989356865,0.37611495699999997,-0.35704756605
03:45:40,-0.9674216000000001,-0.31952654999999974,0.08171843000000001,0.58164355,0.29790151000000004,0.02950497000000002,1.5724414299999998,-30.91359595,-4.78604932,-31.27667649999998,-0.930458093,-0.420781348,0.2445280404000001,0.4329607871,0.378120378,-0.3589402167
03:45:40,-0.9720183000000001,-0.33015577499999993,0.09625181500000002,0.583081775,0.29996295500000003,0.031997885000000004,1.587042315,-30.914903475,-4.78179956,-33.03394824999998,-0.9246735565,-0.43361433400000005,0.2351047382,0.43602800555,0.380125799,-0.36083286735
03:45:40,-0.9766150000000001,-0.3407849999999999,0.11078520000000003,0.58452,0.3020244,0.034490800000000044,1.6016431999999998,-30.916211,-4.7775498,-34.79121999999998,-0.91888902,-0.4464473200000001,0.22568143600000012,0.439095224,0.38213122,-0.36272551799999997
03:45:40,-0.9812117000000001,-0.35141422499999986,0.12531858500000004,0.585958225,0.304085845,0.03698371500000003,1.616244085,-30.917518525000002,-4.77330004,-36.54849174999998,-0.9131044835,-0.4592803059999999,0.21625813380000003,0.44216244245,0.384136641,-0.36461816864999996
03:45:40,-0.9858084,-0.3620434499999998,0.13985197000000005,0.58739645,0.30614729,0.03947663000000001,1.6308449699999998,-30.91882605,-4.76905028,-38.30576349999998,-0.907319947,-0.47211329199999996,0.20683483159999994,0.4452296609,0.386142062,-0.3665108193
03:45:40,-0.9904051,-0.3726726749999998,0.15438535500000006,0.588834675,0.30820873500000007,0.04196954500000005,1.645445855,-30.920133575,-4.76480052,-40.063035249999984,-0.9015354105,-0.484946278,0.19741152940000006,0.44829687935,0.38814748299999996,-0.36840346995
03:45:40,-0.9950018,-0.38330189999999975,0.16891874000000007,0.5902729,0.31027018000000006,0.04446246000000004,1.6600467399999999,-30.9214411,-4.76055076,-41.820306999999985,-0.895750874,-0.49777926400000005,0.18798822719999997,0.4513640978,0.39015290399999997,-0.3702961206
03:45:40,-0.9995985000000001,-0.39393112499999994,0.18345212500000008,0.591711125,0.31233162500000006,0.04695537500000002,1.674647625,-30.922748625,-4.756301,-43.57757874999999,-0.8899663375,-0.5106122500000001,0.1785649250000001,0.45443131625,0.3921583249999999,-0.37218877125
03:45:40,-1.0041952,-0.4045603499999999,0.1979855100000001,0.59314935,0.31439307000000005,0.049448290000000006,1.6892485099999999,-30.924056150000002,-4.75205124,-45.33485049999999,-0.884181801,-0.5234452359999999,0.1691416228,0.4574985347,0.3941637459999999,-0.37408142190000004
03:45:40,-1.0087919,-0.41518957499999987,0.2125188950000001,0.594587575,0.31645451500000005,0.051941205000000046,1.703849395,-30.925363675,-4.74780148,-47.09212224999999,-0.8783972645,-0.536278222,0.15971832060000013,0.46056575315,0.39616916699999993,-0.37597407255000004
03:45:40,-1.0133886,-0.42581879999999983,0.2270522800000001,0.5960258,0.31851596000000004,0.05443412000000003,1.7184502799999999,-30.9266712,-4.74355172,-48.84939399999999,-0.872612728,-0.549111208,0.15029501840000004,0.4636329716,0.39817458799999994,-0.37786672320000003
03:45:40,-1.0179853,-0.4364480249999998,0.24158566500000012,0.5974640250000001,0.32057740500000004,0.056927035000000015,1.7330511649999998,-30.927978725,-4.73930196,-50.60666574999999,-0.8668281915,-0.5619441940000001,0.14087171619999994,0.46670019005,0.40018000899999995,-0.37975937385
03:45:40,-1.022582,-0.44707724999999976,0.2561190500000001,0.5989022500000001,0.32263885000000003,0.059419950000000055,1.74765205,-30.92928625,-4.7350522,-52.36393749999999,-0.861043655,-0.5747771800000001,0.13144841400000007,0.4697674085,0.40218542999999995,-0.3816520245
03:45:40,-1.0271787000000001,-0.4577064749999997,0.27065243500000014,0.600340475,0.324700295,0.06191286500000004,1.7622529349999998,-30.930593775000002,-4.73080244,-54.12120924999999,-0.8552591185,-0.5876101659999999,0.12202511179999997,0.47283462695,0.40419085099999996,-0.38354467515
03:45:40,-1.0317754000000001,-0.4683356999999999,0.28518582000000015,0.6017787,0.32676174,0.06440578000000002,1.77685382,-30.9319013,-4.72655268,-55.878480999999994,-0.849474582,-0.600443152,0.1126018096000001,0.4759018454,0.40619627199999997,-0.3854373258
03:45:40,-1.0363721000000001,-0.4789649249999999,0.29971920500000016,0.603216925,0.328823185,0.06689869500000001,1.7914547049999998,-30.933208825,-4.72230292,-57.635752749999995,-0.8436900455,-0.613276138,0.10317850740000001,0.47896906385,0.408201693,-0.38732997645
03:45:40,-1.0409688000000001,-0.48959414999999984,0.31425259000000016,0.60465515,0.33088463000000007,0.06939161000000005,1.80605559,-30.93451635,-4.71805316,-59.393024499999996,-0.837905509,-0.6261091240000001,0.09375520520000014,0.4820362823,0.410207114,-0.3892226271
03:45:40,-1.0455655,-0.5002233749999998,0.3287859750000002,0.606093375,0.33294607500000006,0.07188452500000003,1.8206564749999998,-30.935823875,-4.7138034,-61.15029625,-0.8321209725000001,-0.6389421100000001,0.08433190300000004,0.48510350074999997,0.412212535,-0.39111527775
03:45:40,-1.0501622,-0.5108525999999998,0.3433193600000002,0.6075316000000001,0.33500752000000006,0.07437744000000002,1.83525736,-30.937131400000002,-4.70955364,-62.907568,-0.8263364360000001,-0.6517750959999999,0.07490860079999995,0.4881707192,0.414217956,-0.3930079284
03:45:40,-1.0547589,-0.5214818249999997,0.3578527450000002,0.608969825,0.33706896500000005,0.07687035500000006,1.8498582449999998,-30.938438925,-4.70530388,-64.66483975,-0.8205518995,-0.664608082,0.06548529860000007,0.49123793765,0.416223377,-0.39490057905
03:45:40,-1.0593556,-0.5321110499999999,0.37238613,0.61040805,0.33913041000000005,0.07936327000000004,1.86445913,-30.93974645,-4.70105412,-66.4221115,-0.814767363,-0.677441068,0.05606199639999998,0.4943051561,0.418228798,-0.39679322969999997
03:45:40,-1.0639523,-0.5427402749999999,0.386919515,0.611846275,0.34119185500000004,0.08185618500000003,1.879060015,-30.941053975,-4.69680436,-68.17938325,-0.8089828265,-0.6902740540000001,0.04663869420000011,0.49737237455,0.420234219,-0.39868588034999997
03:45:40,-1.068549,-0.5533694999999998,0.4014529,0.6132845,0.34325330000000004,0.08434910000000001,1.8936608999999998,-30.9423615,-4.6925546,-69.936655,-0.80319829,-0.7031070399999999,0.037215392000000014,0.5004395930000001,0.4222396399999999,-0.40057853099999996
03:45:40,-1.0731457,-0.5639987249999998,0.415986285,0.614722725,0.34531474500000003,0.08684201500000005,1.9082617849999999,-30.943669025000002,-4.68830484,-71.69392674999997,-0.7974137535,-0.715940026,0.02779208980000014,0.50350681145,0.4242450609999999,-0.40247118164999995
03:45:40,-1.0777424,-0.5746279499999998,0.43051967,0.61616095,0.34737619000000003,0.08933493000000003,1.92286267,-30.94497655,-4.68405508,-73.45119849999998,-0.791629217,-0.728773012,0.018368787600000047,0.5065740299,0.42625048199999993,-0.40436383230000006
03:45:40,-1.0823391,-0.5852571749999997,0.44505305500000003,0.6175991750000001,0.349437635,0.09182784500000002,1.9374635549999997,-30.946284075,-4.67980532,-75.20847024999998,-0.7858446805,-0.741605998,0.008945485399999953,0.50964124835,0.42825590299999994,-0.40625648295000005
03:45:40,-1.0869358,-0.5958863999999997,0.45958644000000004,0.6190374000000001,0.3514990800000001,0.09432076,1.9520644399999998,-30.9475916,-4.67555556,-76.96574199999998,-0.780060144,-0.7544389840000001,-0.00047781679999991944,0.5127084667999999,0.43026132399999995,-0.40814913360000005
03:45:40,-1.0915325,-0.6065156249999999,0.47411982500000005,0.6204756250000001,0.35356052500000007,0.09681367500000004,1.966665325,-30.948899125,-4.6713058,-78.72301374999998,-0.7742756075,-0.7672719699999999,-0.009901119000000014,0.51577568525,0.43226674499999995,-0.41004178425000004
03:45:40,-1.0961292,-0.6171448499999999,0.48865321000000006,0.62191385,0.35562197000000006,0.09930659000000003,1.98126621,-30.950206650000002,-4.66705604,-80.48028549999998,-0.768491071,-0.780104956,-0.019324421199999886,0.5188429037,0.43427216599999996,-0.41193443490000003
03:45:40,-1.1007259,-0.6277740749999998,0.5031865950000001,0.623352075,0.35768341500000006,0.10179950500000001,1.9958670949999997,-30.951514175,-4.66280628,-82.23755725000001,-0.7627065345,-0.792937942,-0.02874772339999998,0.52191012215,0.43627758699999997,-0.41382708555000003
03:45:40,-1.1053226,-0.6384032999999998,0.5177199800000001,0.6247903,0.35974486000000006,0.10429242000000005,2.0104679799999996,-30.9528217,-4.658556519999999,-83.99482899999998,-0.756921998,-0.805770928,-0.03817102559999985,0.5249773406,0.438283008,-0.4157197362
03:45:40,-1.1099193,-0.6490325249999997,0.5322533650000001,0.626228525,0.36180630500000005,0.10678533500000004,2.0250688649999997,-30.954129225,-4.65430676,-85.75210075000001,-0.7511374615,-0.8186039140000001,-0.04759432779999995,0.52804455905,0.440288429,-0.41761238685
03:45:40,-1.114516,-0.6596617499999997,0.5467867500000001,0.62766675,0.36386775000000005,0.10927825000000002,2.03966975,-30.95543675,-4.650057,-87.50937249999998,-0.745352925,-0.8314368999999999,-0.05701763000000004,0.5311117775,0.44229385,-0.4195050375
03:45:40,-1.1191127,-0.6702909749999999,0.5613201350000001,0.6291049750000001,0.36592919500000004,0.111771165,2.054270635,-30.956744275000002,-4.64580724,-89.26664425000001,-0.7395683885000001,-0.844269886,-0.06644093219999991,0.5341789959500001,0.444299271,-0.42139768815
03:45:40,-1.1237094,-0.6809201999999999,0.5758535200000001,0.6305432,0.36799064000000004,0.11426408000000005,2.06887152,-30.9580518,-4.6415574799999995,-91.02391599999999,-0.733783852,-0.857102872,-0.07586423440000001,0.5372462144,0.446304692,-0.4232903388
03:45:40,-1.1283061,-0.6915494249999998,0.5903869050000001,0.631981425,0.37005208500000003,0.11675699500000003,2.083472405,-30.959359325,-4.63730772,-92.78118775000002,-0.7279993155,-0.8699358580000001,-0.08528753659999988,0.54031343285,0.448310113,-0.42518298945
03:45:40,-1.1329028,-0.7021786499999998,0.6049202900000001,0.63341965,0.37211353,0.11924991000000001,2.0980732899999994,-30.96066685,-4.63305796,-94.53845949999999,-0.722214779,-0.8827688440000001,-0.09471083879999997,0.5433806513,0.450315534,-0.4270756401
03:45:40,-1.1374995,-0.7128078749999998,0.6194536750000001,0.634857875,0.3741749750000001,0.12174282500000005,2.1126741749999995,-30.961974375,-4.6288082,-96.29573124999996,-0.7164302425,-0.8956018299999999,-0.10413414099999985,0.5464478697499999,0.4523209549999999,-0.42896829075
03:45:40,-1.1420962000000001,-0.7234370999999997,0.6339870600000002,0.6362961,0.37623642000000007,0.12423574000000004,2.1272750599999997,-30.963281900000002,-4.6245584399999995,-98.05300299999999,-0.710645706,-0.9084348160000002,-0.11355744319999994,0.5495150882,0.4543263759999999,-0.4308609414
03:45:40,-1.1466929000000001,-0.7340663249999999,0.6485204450000002,0.637734325,0.37829786500000007,0.12672865500000002,2.141875945,-30.964589425,-4.62030868,-99.81027474999996,-0.7048611695,-0.921267802,-0.12298074540000004,0.55258230665,0.45633179699999993,-0.43275359204999997
03:45:40,-1.1512896000000001,-0.7446955499999999,0.6630538300000002,0.6391725500000001,0.38035931000000006,0.12922157,2.15647683,-30.96589695,-4.61605892,-101.56754649999999,-0.699076633,-0.9341007879999998,-0.1324040475999999,0.5556495251,0.45833721799999994,-0.43464624269999996
03:45:40,-1.1558863000000001,-0.7553247749999998,0.6775872150000002,0.6406107750000001,0.38242075500000006,0.13171448500000005,2.171077715,-30.967204475,-4.61180916,-103.32481824999996,-0.6932920965,-0.9469337740000001,-0.1418273498,0.55871674355,0.46034263899999994,-0.43653889334999996
03:45:40,-1.1604830000000002,-0.7659539999999998,0.6921206000000002,0.6420490000000001,0.38448220000000005,0.13420740000000003,2.1856786,-30.968512,-4.6075593999999995,-105.08209,-0.68750756,-0.9597667599999999,-0.15125065199999987,0.561783962,0.46234805999999995,-0.43843154400000006
03:45:40,-1.1650797000000002,-0.7765832249999998,0.7066539850000002,0.643487225,0.38654364500000005,0.13670031500000002,2.2002794850000003,-30.969819525000002,-4.60330964,-106.83936174999997,-0.6817230235,-0.9725997460000002,-0.16067395419999997,0.56485118045,0.46435348099999996,-0.44032419465000006
03:45:40,-1.1696764000000002,-0.7872124499999997,0.7211873700000002,0.64492545,0.38860509000000004,0.13919323000000006,2.2148803699999995,-30.97112705,-4.5990598799999995,-108.5966335,-0.675938487,-0.985432732,-0.17009725639999984,0.5679183989000001,0.46635890199999996,-0.44221684530000005
03:45:40,-1.1742731000000002,-0.7978416749999997,0.7357207550000002,0.646363675,0.39066653500000004,0.14168614500000004,2.2294812549999996,-30.972434575,-4.59481012,-110.35390524999997,-0.6701539505,-0.9982657179999999,-0.17952055859999994,0.57098561735,0.46836432299999997,-0.44410949595000004
03:45:40,-1.1788698000000002,-0.8084708999999999,0.7502541400000002,0.6478019,0.39272798000000003,0.14417906000000003,2.2440821399999997,-30.9737421,-4.59056036,-112.111177,-0.664369414,-1.0110987040000001,-0.18894386080000003,0.5740528358000001,0.470369744,-0.44600214660000004
03:45:40,-1.1834665000000002,-0.8191001249999998,0.7647875250000002,0.6492401250000001,0.394789425,0.146671975,2.258683025,-30.975049625,-4.5863106,-113.86844874999997,-0.6585848775,-1.02393169,-0.1983671629999999,0.5771200542499999,0.472375165,-0.44789479725000003
03:45:40,-1.1880632000000002,-0.8297293499999998,0.7793209100000003,0.6506783500000001,0.3968508700000001,0.14916489000000005,2.27328391,-30.976357150000002,-4.58206084,-115.6257205,-0.6528003410000001,-1.0367646759999998,-0.2077904652,0.5801872726999999,0.474380586,-0.4497874479
03:45:40,-1.1926599000000002,-0.8403585749999998,0.7938542950000003,0.652116575,0.3989123150000001,0.15165780500000003,2.287884795,-30.977664675,-4.57781108,-117.38299224999997,-0.6470158045000001,-1.049597662,-0.21721376739999987,0.5832544911499999,0.476386007,-0.45168009855
03:45:40,-1.1972566000000002,-0.8509877999999997,0.8083876800000003,0.6535548,0.40097376000000007,0.15415072000000002,2.30248568,-30.9789722,-4.57356132,-119.140264,-0.6412312680000001,-1.0624306479999999,-0.22663706959999996,0.5863217096,0.478391428,-0.4535727492
03:45:40,-1.2018533000000002,-0.8616170249999997,0.8229210650000003,0.654993025,0.40303520500000006,0.15664363500000006,2.3170865649999994,-30.980279725,-4.56931156,-120.89753574999997,-0.6354467315,-1.0752636340000001,-0.23606037179999984,0.58938892805,0.480396849,-0.45546539985
03:45:40,-1.2064500000000002,-0.8722462499999999,0.8374544500000003,0.65643125,0.40509665000000006,0.15913655000000004,2.3316874499999996,-30.98158725,-4.5650618,-122.6548075,-0.629662195,-1.08809662,-0.24548367399999993,0.5924561465,0.4824022699999999,-0.4573580505
03:45:40,-1.2110467000000003,-0.8828754749999999,0.8519878350000003,0.657869475,0.40715809500000005,0.16162946500000003,2.3462883349999997,-30.982894775000002,-4.56081204,-124.41207924999998,-0.6238776585,-1.1009296059999998,-0.2549069762,0.59552336495,0.4844076909999999,-0.45925070115
03:45:40,-1.2156434000000003,-0.8935046999999998,0.8665212200000003,0.6593077,0.40921954000000005,0.16412238,2.36088922,-30.9842023,-4.55656228,-126.169351,-0.618093122,-1.113762592,-0.2643302783999999,0.5985905834,0.4864131119999999,-0.4611433518
03:45:40,-1.2202401,-0.9041339249999998,0.8810546050000003,0.6607459250000001,0.41128098500000004,0.16661529500000005,2.375490105,-30.985509825,-4.55231252,-127.92662274999998,-0.6123085855000001,-1.1265955779999999,-0.2737535806,0.6016578018500001,0.48841853299999993,-0.46303600245
03:45:40,-1.2248368,-0.9147631499999997,0.8955879900000003,0.6621841500000001,0.41334243000000004,0.16910821000000004,2.39009099,-30.98681735,-4.54806276,-129.6838945,-0.6065240490000001,-1.1394285640000001,-0.28317688279999986,0.6047250203000001,0.49042395399999994,-0.4649286531
03:45:40,-1.2294335,-0.9253923749999997,0.9101213750000003,0.6636223750000001,0.41540387500000003,0.17160112500000002,2.404691875,-30.988124875,-4.543813,-131.44116624999998,-0.6007395125000001,-1.15226155,-0.29260018499999996,0.6077922387500001,0.49242937499999995,-0.46682130374999997
03:45:40,-1.2340302,-0.9360215999999999,0.9246547600000004,0.6650606000000001,0.41746532000000003,0.17409404000000006,2.4192927600000003,-30.989432400000002,-4.53956324,-133.198438,-0.5949549759999999,-1.1650945359999998,-0.30202348719999983,0.6108594571999999,0.49443479599999995,-0.46871395439999997
03:45:40,-1.2386269,-0.9466508249999999,0.9391881450000004,0.666498825,0.4195267650000001,0.17658695500000005,2.4338936449999995,-30.990739925,-4.53531348,-134.95570974999998,-0.5891704394999999,-1.177927522,-0.3114467893999999,0.6139266756499999,0.49644021699999996,-0.47060660504999996
03:45:40,-1.2432236,-0.9572800499999998,0.9537215300000004,0.66793705,0.4215882100000001,0.17907987000000003,2.4484945299999996,-30.99204745,-4.53106372,-136.7129815,-0.5833859029999999,-1.1907605079999999,-0.3208700916,0.6169938940999999,0.49844563799999997,-0.47249925569999995
03:45:40,-1.2478203,-0.9679092749999998,0.9682549150000004,0.669375275,0.42364965500000007,0.18157278500000001,2.4630954149999997,-30.993354975,-4.52681396,-138.47025324999998,-0.5776013664999999,-1.2035934940000002,-0.3302933937999999,0.62006111255,0.500451059,-0.47439190635000006
03:45:40,-1.2524170000000001,-0.9785384999999998,0.9827883,0.6708135,0.42571110000000006,0.18406570000000005,2.4776963,-30.9946625,-4.5225642,-140.22752499999996,-0.5718168299999999,-1.21642648,-0.339716696,0.623128331,0.50245648,-0.47628455700000005
03:45:40,-1.2570137000000001,-0.9891677249999997,0.997321685,0.672251725,0.42777254500000006,0.18655861500000004,2.492297185,-30.995970025000002,-4.51831444,-141.98479675,-0.5660322935,-1.2292594659999998,-0.34913999819999986,0.62619554945,0.504461901,-0.47817720765000005
03:45:40,-1.2616104000000001,-0.9997969499999997,1.01185507,0.67368995,0.42983399000000005,0.18905153000000002,2.50689807,-30.99727755,-4.51406468,-143.74206849999996,-0.560247757,-1.242092452,-0.35856330039999995,0.6292627679,0.506467322,-0.48006985830000004
03:45:40,-1.2662071000000001,-1.0104261749999999,1.026388455,0.675128175,0.43189543500000005,0.191544445,2.521498955,-30.998585075,-4.50981492,-145.49934025,-0.5544632205,-1.254925438,-0.3679866025999998,0.63232998635,0.508472743,-0.48196250895000003
03:45:40,-1.2708038000000001,-1.0210553999999998,1.04092184,0.6765664,0.43395688000000004,0.19403736000000005,2.5360998399999994,-30.9998926,-4.50556516,-147.25661199999996,-0.548678684,-1.2677584240000002,-0.3774099047999999,0.6353972048000001,0.510478164,-0.48385515960000003
03:45:40,-1.2754005000000002,-1.0316846249999998,1.055455225,0.678004625,0.43601832500000004,0.19653027500000003,2.5507007249999996,-31.001200125,-4.5013154,-149.01388375,-0.5428941475,-1.28059141,-0.386833207,0.6384644232500001,0.5124835849999999,-0.48574781025
03:45:40,-1.2799972,-1.0423138499999998,1.06998861,0.67944285,0.43807977000000003,0.19902319000000002,2.5653016099999997,-31.002507650000002,-4.49706564,-150.77115549999996,-0.537109611,-1.2934243959999998,-0.3962565091999999,0.6415316417000001,0.5144890059999999,-0.4876404609
03:45:40,-1.2845939,-1.0529430749999997,1.084521995,0.6808810750000001,0.4401412150000001,0.20151610500000006,2.579902495,-31.003815175,-4.49281588,-152.52842725,-0.5313250745,-1.306257382,-0.4056798114,0.6445988601499999,0.5164944269999999,-0.48953311155
03:45:40,-1.2891906,-1.0635722999999997,1.09905538,0.6823193000000001,0.4422026600000001,0.20400902000000004,2.59450338,-31.0051227,-4.48856612,-154.28569899999997,-0.525540538,-1.319090368,-0.41510311359999985,0.6476660785999999,0.5184998479999999,-0.4914257622
03:45:40,-1.2937873,-1.0742015249999997,1.113588765,0.6837575250000001,0.4442641050000001,0.20650193500000003,2.609104265,-31.006430225,-4.48431636,-156.04297075,-0.5197560015,-1.3319233540000002,-0.42452641579999995,0.6507332970499999,0.5205052689999999,-0.49331841285
03:45:40,-1.298384,-1.0848307499999998,1.12812215,0.6851957500000001,0.44632555000000007,0.20899485,2.62370515,-31.00773775,-4.4800666,-157.80024249999997,-0.513971465,-1.34475634,-0.4339497179999998,0.6538005155,0.5225106899999999,-0.4952110635
03:45:40,-1.3029807,-1.0954599749999996,1.142655535,0.6866339750000001,0.44838699500000007,0.21148776500000005,2.6383060350000003,-31.009045275000002,-4.47581684,-159.55751425,-0.5081869285,-1.3575893259999998,-0.4433730201999999,0.65686773395,0.524516111,-0.49710371415
03:45:40,-1.3075774,-1.1060891999999998,1.15718892,0.6880722,0.45044844000000006,0.21398068000000003,2.6529069199999995,-31.0103528,-4.47156708,-161.31478599999997,-0.502402392,-1.370422312,-0.4527963224,0.6599349524,0.526521532,-0.4989963648
03:45:40,-1.3121741,-1.116718425,1.171722305,0.689510425,0.45250988500000006,0.21647359500000002,2.6675078049999996,-31.011660325,-4.46731732,-163.07205775,-0.49661785550000004,-1.383255298,-0.4622196245999999,0.66300217085,0.528526953,-0.50088901545
03:45:40,-1.3167708,-1.1273476499999997,1.18625569,0.69094865,0.45457133000000005,0.21896651000000006,2.6821086899999997,-31.01296785,-4.46306756,-164.82932949999997,-0.49083331900000005,-1.3960882840000002,-0.4716429268,0.6660693893,0.530532374,-0.5027816661
03:45:40,-1.3213675,-1.1379768749999999,1.200789075,0.692386875,0.45663277500000005,0.22145942500000004,2.696709575,-31.014275375,-4.4588178,-166.58660125,-0.48504878250000005,-1.40892127,-0.48106622899999985,0.6691366077500001,0.532537795,-0.50467431675
03:45:40,-1.3259642,-1.1486060999999996,1.21532246,0.6938251,0.45869422000000004,0.22395234000000003,2.71131046,-31.015582900000002,-4.45456804,-168.34387299999997,-0.47926424600000006,-1.4217542559999998,-0.49048953119999994,0.6722038262000001,0.534543216,-0.5065669674
03:45:40,-1.3305609,-1.1592353249999998,1.2298558450000001,0.695263325,0.46075566500000004,0.226445255,2.725911345,-31.016890425,-4.45031828,-170.10114475,-0.47347970950000007,-1.434587242,-0.4999128333999998,0.6752710446500001,0.536548637,-0.5084596180500001
03:45:40,-1.3351576,-1.1698645499999996,1.2443892300000001,0.69670155,0.4628171100000001,0.22893817000000005,2.74051223,-31.01819795,-4.44606852,-171.85841649999998,-0.4676951730000001,-1.447420228,-0.5093361355999999,0.6783382630999999,0.538554058,-0.5103522687000001
03:45:40,-1.3397543,-1.1804937749999997,1.2589226150000001,0.698139775,0.4648785550000001,0.23143108500000004,2.7551131149999994,-31.019505475,-4.44181876,-173.61568825,-0.4619106365000001,-1.4602532140000002,-0.5187594377999998,0.6814054815499999,0.540559479,-0.51224491935
03:45:41,-1.344351,-1.191123,1.273456,0.699578,0.46694,0.233924,2.769714,-31.020813,-4.437569,-175.37296,-0.4561261,-1.4730862,-0.52818274,0.6844727,0.5425649,-0.51413757
03:45:41,-1.33484797,-1.18685318,1.26372461,0.695231375,0.462918315,0.23178265,2.762133225,-31.023984655,-4.417341755,-175.38100075,-0.45392540946,-1.4674029315000001,-0.5248717266,0.6797743277,0.5381650798500001,-0.51034516985
03:45:41,-1.3253449400000001,-1.18258336,1.25399322,0.69088475,0.45889663,0.2296413,2.75455245,-31.02715631,-4.39711451,-175.38904150000002,-0.45172471892,-1.461719663,-0.5215607132,0.6750759554000001,0.5337652597,-0.5065527697000001
03:45:41,-1.31584191,-1.17831354,1.24426183,0.686538125,0.45487494500000003,0.22749995,2.746971675,-31.030327965,-4.376887265,-175.39708225,-0.44952402838,-1.4560363945,-0.5182496998,0.6703775831000001,0.52936543955,-0.50276036955
03:45:41,-1.30633888,-1.17404372,1.23453044,0.6821915000000001,0.45085326000000003,0.2253586,2.7393909,-31.03349962,-4.35666002,-175.405123,-0.44732333784,-1.450353126,-0.5149386864,0.6656792108,0.5249656194,-0.49896796940000004
03:45:41,-1.2968358500000001,-1.1697739,1.22479905,0.677844875,0.44683157500000004,0.22321725,2.731810125,-31.036671275,-4.336432775,-175.41316375,-0.44512264729999995,-1.4446698575,-0.511627673,0.6609808385,0.52056579925,-0.49517556925000006
03:45:41,-1.28733282,-1.1655040799999998,1.2150676599999999,0.6734982500000001,0.44280989000000004,0.2210759,2.72422935,-31.03984293,-4.3162055299999995,-175.42120450000002,-0.44292195675999996,-1.438986589,-0.5083166595999999,0.6562824662000001,0.5161659791000001,-0.4913831691
03:45:41,-1.27782979,-1.1612342599999999,1.2053362699999999,0.669151625,0.43878820500000004,0.21893455,2.716648575,-31.043014585,-4.295978285,-175.42924525,-0.44072126621999996,-1.4333033205,-0.5050056462,0.6515840939,0.51176615895,-0.48759076895000003
03:45:41,-1.26832676,-1.1569644399999999,1.1956048799999999,0.6648050000000001,0.43476652000000005,0.2167932,2.7090678,-31.04618624,-4.27575104,-175.437286,-0.43852057567999997,-1.427620052,-0.5016946327999999,0.6468857216,0.5073663388,-0.48379836880000004
03:45:41,-1.25882373,-1.15269462,1.1858734899999999,0.660458375,0.43074483500000005,0.21465185,2.701487025,-31.049357895,-4.255523795,-175.44532675,-0.43631988514,-1.4219367835,-0.4983836194,0.6421873493000001,0.50296651865,-0.48000596865000006
03:45:41,-1.2493207000000002,-1.1484248,1.1761420999999999,0.65611175,0.42672315,0.2125105,2.69390625,-31.05252955,-4.23529655,-175.4533675,-0.4341191946,-1.416253515,-0.49507260599999997,0.6374889770000001,0.4985666985,-0.4762135685
03:45:41,-1.23981767,-1.14415498,1.1664107099999999,0.6517651250000001,0.422701465,0.21036915,2.686325475,-31.055701205000002,-4.215069305,-175.46140825,-0.43191850406,-1.4105702465,-0.49176159259999996,0.6327906047,0.49416687835,-0.47242116835000003
03:45:41,-1.23031464,-1.13988516,1.1566793199999998,0.6474185,0.41867978,0.2082278,2.6787447,-31.05887286,-4.19484206,-175.469449,-0.42971781352,-1.404886978,-0.48845057919999996,0.6280922324,0.4897670582,-0.46862876820000005
03:45:41,-1.2208116100000002,-1.13561534,1.1469479299999998,0.6430718750000001,0.414658095,0.20608645,2.671163925,-31.062044515,-4.174614815,-175.47748975000002,-0.42751712298,-1.3992037095,-0.48513956579999995,0.6233938601000001,0.48536723805000004,-0.46483636805000006
03:45:41,-1.21130858,-1.13134552,1.1372165399999998,0.63872525,0.41063641,0.2039451,2.66358315,-31.06521617,-4.15438757,-175.4855305,-0.42531643244,-1.393520441,-0.4818285524,0.6186954878,0.4809674179,-0.4610439679
03:45:41,-1.20180555,-1.1270757,1.12748515,0.6343786250000001,0.406614725,0.20180375,2.656002375,-31.068387825000002,-4.134160325,-175.49357125,-0.4231157419,-1.3878371725,-0.478517539,0.6139971155,0.47656759775,-0.45725156775000003
03:45:41,-1.1923025200000001,-1.12280588,1.1177537599999998,0.630032,0.40259304,0.1996624,2.6484216,-31.07155948,-4.11393308,-175.501612,-0.42091505135999996,-1.382153904,-0.4752065256,0.6092987432000001,0.4721677776,-0.45345916760000005
03:45:41,-1.18279949,-1.1185360599999998,1.10802237,0.625685375,0.398571355,0.19752105,2.640840825,-31.074731135,-4.093705835,-175.50965275000001,-0.41871436081999996,-1.3764706355,-0.4718955122,0.6046003709000001,0.46776795745,-0.44966676745
03:45:41,-1.17329646,-1.1142662399999999,1.0982909799999998,0.62133875,0.39454967,0.1953797,2.63326005,-31.07790279,-4.07347859,-175.5176935,-0.41651367027999997,-1.370787367,-0.46858449879999997,0.5999019986,0.46336813730000004,-0.4458743673
03:45:41,-1.1637934300000001,-1.1099964199999999,1.08855959,0.616992125,0.390527985,0.19323835,2.625679275,-31.081074445,-4.053251345,-175.52573425,-0.41431297974,-1.3651040985,-0.46527348539999996,0.5952036263,0.45896831715,-0.44208196715000003
03:45:41,-1.1542904,-1.1057266,1.0788282,0.6126455000000001,0.3865063,0.191097,2.6180985,-31.0842461,-4.0330241,-175.533775,-0.4121122892,-1.35942083,-0.46196247199999996,0.5905052540000001,0.454568497,-0.43828956700000005
03:45:41,-1.14478737,-1.10145678,1.06909681,0.608298875,0.38248461500000003,0.18895565,2.6105177250000002,-31.087417755,-4.0127968549999995,-175.54181575,-0.40991159866,-1.3537375615,-0.4586514586,0.5858068817000001,0.45016867685,-0.43449716685000006
03:45:41,-1.1352843400000001,-1.09718696,1.05936542,0.6039522500000001,0.37846293,0.1868143,2.60293695,-31.09058941,-3.99256961,-175.5498565,-0.40771090812,-1.348054293,-0.45534044519999994,0.5811085094,0.4457688567,-0.4307047667
03:45:41,-1.12578131,-1.09291714,1.04963403,0.599605625,0.374441245,0.18467295,2.595356175,-31.093761065,-3.972342365,-175.55789725,-0.40551021758,-1.3423710245,-0.4520294318,0.5764101371000001,0.44136903655000004,-0.42691236655000003
03:45:41,-1.11627828,-1.08864732,1.03990264,0.595259,0.37041956,0.18253160000000002,2.5877754,-31.09693272,-3.9521151199999998,-175.56593800000002,-0.40330952704,-1.336687756,-0.4487184184,0.5717117648000001,0.4369692164,-0.42311996640000005
03:45:41,-1.10677525,-1.0843775,1.03017125,0.590912375,0.366397875,0.18039025,2.580194625,-31.100104375,-3.931887875,-175.57397875,-0.40110883649999995,-1.3310044875,-0.445407405,0.5670133925,0.43256939625,-0.41932756625
03:45:41,-1.09727222,-1.08010768,1.02043986,0.58656575,0.36237619,0.1782489,2.57261385,-31.10327603,-3.91166063,-175.5820195,-0.39890814595999996,-1.325321219,-0.44209639159999997,0.5623150202,0.4281695761,-0.4155351661
03:45:41,-1.08776919,-1.07583786,1.01070847,0.5822191250000001,0.358354505,0.17610755,2.565033075,-31.106447685,-3.891433385,-175.59006025,-0.39670745541999997,-1.3196379505,-0.43878537819999996,0.5576166479,0.42376975595,-0.41174276595000003
03:45:41,-1.07826616,-1.0715680399999998,1.00097708,0.5778725,0.35433282,0.17396620000000002,2.5574523,-31.109619340000002,-3.87120614,-175.598101,-0.39450676487999997,-1.3139546819999999,-0.43547436479999996,0.5529182756000001,0.41936993580000004,-0.40795036580000005
03:45:41,-1.06876313,-1.0672982199999999,0.99124569,0.5735258750000001,0.350311135,0.17182485,2.549871525,-31.112790995,-3.850978895,-175.60614175,-0.39230607434,-1.3082714135,-0.43216335139999995,0.5482199033,0.41497011565,-0.40415796565000006
03:45:41,-1.0592601,-1.0630283999999999,0.9815143,0.56917925,0.34628945,0.1696835,2.54229075,-31.11596265,-3.83075165,-175.6141825,-0.3901053838,-1.302588145,-0.428852338,0.5435215310000001,0.4105702955,-0.4003655655
03:45:41,-1.04975707,-1.05875858,0.9717829099999999,0.564832625,0.342267765,0.16754215,2.534709975,-31.119134305,-3.810524405,-175.62222325000002,-0.38790469326,-1.2969048765,-0.4255413246,0.5388231587000001,0.40617047535000006,-0.39657316535000003
03:45:41,-1.04025404,-1.05448876,0.9620515199999999,0.560486,0.33824608,0.16540080000000001,2.5271292,-31.122305960000002,-3.7902971599999997,-175.630264,-0.38570400272,-1.291221608,-0.4222303112,0.5341247864,0.4017706552,-0.39278076520000005
03:45:41,-1.03075101,-1.05021894,0.9523201299999999,0.5561393750000001,0.334224395,0.16325945,2.519548425,-31.125477615,-3.770069915,-175.63830475,-0.38350331218,-1.2855383395,-0.4189192978,0.5294264141,0.39737083505000004,-0.38898836505
03:45:41,-1.02124798,-1.04594912,0.9425887399999999,0.55179275,0.33020271,0.1611181,2.51196765,-31.12864927,-3.74984267,-175.6463455,-0.38130262163999995,-1.279855071,-0.41560828439999997,0.5247280418,0.3929710149,-0.3851959649
03:45:41,-1.01174495,-1.0416793,0.9328573499999999,0.547446125,0.326181025,0.15897675,2.504386875,-31.131820925,-3.729615425,-175.65438625000002,-0.3791019311,-1.2741718025,-0.41229727099999997,0.5200296695000001,0.38857119475,-0.38140356475000003
03:45:41,-1.0022419200000001,-1.03740948,0.9231259599999999,0.5430995000000001,0.32215934,0.1568354,2.4968061,-31.13499258,-3.70938818,-175.662427,-0.37690124055999996,-1.268488534,-0.40898625759999996,0.5153312972,0.38417137460000006,-0.3776111646
03:45:41,-0.99273889,-1.03313966,0.9133945699999999,0.538752875,0.318137655,0.15469405,2.489225325,-31.138164235,-3.689160935,-175.67046775,-0.37470055001999997,-1.2628052655,-0.40567524419999995,0.5106329249000001,0.37977155445,-0.37381876445000006
03:45:41,-0.98323586,-1.02886984,0.9036631799999999,0.53440625,0.31411597,0.15255269999999999,2.48164455,-31.14133589,-3.66893369,-175.6785085,-0.37249985948,-1.257121997,-0.40236423079999994,0.5059345526000001,0.37537173430000004,-0.3700263643
03:45:41,-0.9737328300000001,-1.0246000199999998,0.8939317899999999,0.530059625,0.310094285,0.15041135,2.474063775,-31.144507545,-3.648706445,-175.68654925,-0.37029916894,-1.2514387285,-0.3990532174,0.5012361803000001,0.37097191415,-0.36623396415000004
03:45:41,-0.9642298,-1.0203301999999999,0.8842003999999999,0.5257130000000001,0.30607260000000003,0.14827,2.466483,-31.1476792,-3.6284792,-175.69459,-0.3680984784,-1.24575546,-0.39574220399999993,0.496537808,0.366572094,-0.36244156400000005
03:45:41,-0.9547267700000001,-1.0160603799999999,0.8744690099999999,0.521366375,0.30205091500000003,0.14612865,2.458902225,-31.150850855,-3.608251955,-175.70263075,-0.36589778786,-1.2400721915,-0.3924311906,0.49183943570000005,0.36217227385000006,-0.35864916385
03:45:41,-0.9452237400000001,-1.01179056,0.8647376199999999,0.51701975,0.29802923000000003,0.14398729999999998,2.45132145,-31.15402251,-3.58802471,-175.71067150000002,-0.36369709732,-1.234388923,-0.3891201772,0.4871410634000001,0.3577724537,-0.3548567637
03:45:41,-0.93572071,-1.00752074,0.8550062299999999,0.5126731250000001,0.29400754500000004,0.14184595,2.443740675,-31.157194165,-3.567797465,-175.71871225,-0.36149640678,-1.2287056545,-0.38580916379999997,0.48244269110000004,0.35337263355000004,-0.35106436355000004
03:45:41,-0.92621768,-1.00325092,0.84527484,0.5083265,0.28998586,0.1397046,2.4361599,-31.16036582,-3.54757022,-175.726753,-0.35929571624,-1.223022386,-0.38249815039999996,0.47774431880000007,0.3489728134,-0.3472719634
03:45:41,-0.9167146500000001,-0.9989811,0.83554345,0.5039798750000001,0.285964175,0.13756325,2.428579125,-31.163537475000002,-3.527342975,-175.73479375,-0.35709502569999996,-1.2173391175,-0.37918713699999995,0.4730459465000001,0.34457299325,-0.34347956325000006
03:45:41,-0.90721162,-0.99471128,0.82581206,0.49963325000000003,0.28194249,0.13542189999999998,2.42099835,-31.16670913,-3.5071157299999998,-175.74283450000001,-0.35489433515999996,-1.211655849,-0.3758761236,0.46834757420000006,0.34017317310000006,-0.3396871631
03:45:41,-0.89770859,-0.99044146,0.81608067,0.49528662500000004,0.277920805,0.13328055,2.413417575,-31.169880785,-3.4868884849999997,-175.75087525,-0.35269364461999997,-1.2059725805000001,-0.37256511019999994,0.46364920190000003,0.33577335295,-0.33589476295000004
03:45:41,-0.8882055600000001,-0.98617164,0.80634928,0.49094000000000004,0.27389912,0.1311392,2.4058368,-31.17305244,-3.46666124,-175.758916,-0.35049295408,-1.200289312,-0.3692540968,0.45895082960000005,0.33137353280000004,-0.33210236280000005
03:45:41,-0.87870253,-0.9819018199999999,0.7966178899999999,0.48659337500000005,0.269877435,0.12899785000000002,2.3982560250000002,-31.176224095000002,-3.446433995,-175.76695675,-0.34829226354,-1.1946060434999999,-0.3659430833999999,0.4542524573000001,0.32697371265,-0.32830996265
03:45:41,-0.8691995,-0.977632,0.7868864999999999,0.48224675000000006,0.26585575,0.1268565,2.39067525,-31.17939575,-3.42620675,-175.7749975,-0.346091573,-1.188922775,-0.36263207,0.44955408500000005,0.3225738925,-0.3245175625
03:45:41,-0.85969647,-0.97336218,0.7771551099999999,0.477900125,0.261834065,0.12471515000000001,2.383094475,-31.182567405,-3.405979505,-175.78303825,-0.34389088246,-1.1832395065,-0.35932105659999997,0.4448557127,0.31817407235000006,-0.32072516235000004
03:45:41,-0.85019344,-0.96909236,0.7674237199999999,0.47355350000000007,0.25781238,0.12257380000000001,2.3755137,-31.18573906,-3.3857522600000003,-175.791079,-0.34169019192,-1.177556238,-0.35601004319999996,0.44015734040000004,0.3137742522,-0.3169327622
03:45:41,-0.84069041,-0.9648225399999999,0.7576923299999999,0.469206875,0.25379069499999996,0.12043245000000001,2.367932925,-31.188910715,-3.3655250150000002,-175.79911975000002,-0.33948950138,-1.1718729694999999,-0.35269902979999995,0.43545896810000007,0.30937443205000004,-0.31314036205000007
03:45:41,-0.83118738,-0.9605527199999999,0.7479609399999999,0.46486025000000003,0.24976900999999999,0.11829110000000001,2.36035215,-31.19208237,-3.34529777,-175.8071605,-0.33728881083999995,-1.166189701,-0.34938801639999995,0.43076059580000003,0.3049746119,-0.3093479619
03:45:41,-0.8216843500000001,-0.9562828999999999,0.7382295499999999,0.46051362500000004,0.245747325,0.11614975000000001,2.352771375,-31.195254025,-3.325070525,-175.81520125,-0.3350881203,-1.1605064325,-0.346077003,0.42606222350000006,0.30057479175,-0.30555556175000004
03:45:41,-0.81218132,-0.95201308,0.72849816,0.45616700000000004,0.24172564,0.11400840000000001,2.3451906,-31.19842568,-3.30484328,-175.823242,-0.33288742975999996,-1.154823164,-0.34276598959999993,0.4213638512000001,0.29617497160000006,-0.30176316160000005
03:45:41,-0.80267829,-0.94774326,0.71876677,0.45182037500000005,0.237703955,0.11186705000000001,2.337609825,-31.201597335,-3.284616035,-175.83128275,-0.33068673921999997,-1.1491398954999998,-0.3394549762,0.41666547890000005,0.29177515145000005,-0.29797076145
03:45:41,-0.79317526,-0.94347344,0.70903538,0.44747375000000006,0.23368227,0.10972570000000001,2.3300290500000003,-31.20476899,-3.26438879,-175.8393235,-0.32848604868,-1.143456627,-0.3361439628,0.4119671066000001,0.28737533130000004,-0.2941783613
03:45:41,-0.78367223,-0.93920362,0.69930399,0.44312712500000007,0.229660585,0.10758435,2.322448275,-31.207940645,-3.244161545,-175.84736425,-0.32628535814,-1.1377733585,-0.33283294939999997,0.40726873430000005,0.28297551115,-0.29038596115000004
03:45:41,-0.7741692,-0.9349337999999999,0.6895726,0.4387805,0.22563889999999998,0.10544300000000001,2.3148675,-31.2111123,-3.2239343,-175.85540500000002,-0.3240846676,-1.13209009,-0.32952193599999996,0.40257036200000007,0.278575691,-0.286593561
03:45:41,-0.76466617,-0.93066398,0.67984121,0.434433875,0.22161721499999998,0.10330165,2.307286725,-31.214283955,-3.2037070549999997,-175.86344575,-0.32188397706,-1.1264068215,-0.32621092259999995,0.39787198970000004,0.27417587085,-0.28280116085000007
03:45:41,-0.7551631400000001,-0.92639416,0.67010982,0.43008725000000003,0.21759552999999998,0.10116030000000001,2.29970595,-31.217455610000002,-3.1834798099999997,-175.8714865,-0.31968328652,-1.120723553,-0.3228999092,0.39317361740000006,0.26977605070000005,-0.2790087607
03:45:41,-0.74566011,-0.9221243399999999,0.66037843,0.42574062500000004,0.21357384499999998,0.09901895,2.292125175,-31.220627265,-3.163252565,-175.87952725,-0.31748259597999995,-1.1150402845,-0.31958889579999994,0.38847524510000003,0.26537623055000004,-0.27521636055000004
03:45:41,-0.73615708,-0.9178545199999999,0.65064704,0.42139400000000005,0.20955216,0.09687760000000001,2.2845444,-31.22379892,-3.14302532,-175.88756800000002,-0.31528190544,-1.109357016,-0.3162778824,0.38377687280000006,0.2609764104,-0.27142396040000005
03:45:41,-0.72665405,-0.9135846999999999,0.64091565,0.41704737500000005,0.205530475,0.09473625000000002,2.276963625,-31.226970575,-3.122798075,-175.89560875,-0.31308121489999996,-1.1036737475,-0.3129668689999999,0.3790785005000001,0.25657659025,-0.26763156025
03:45:41,-0.71715102,-0.9093148799999999,0.6311842599999999,0.41270075000000006,0.20150879,0.09259490000000001,2.26938285,-31.230142230000002,-3.1025708300000003,-175.9036495,-0.31088052436,-1.097990479,-0.3096558556,0.37438012820000005,0.2521767701,-0.2638391601
03:45:41,-0.70764799,-0.90504506,0.6214528699999999,0.40835412500000007,0.197487105,0.09045355000000002,2.2618020750000003,-31.233313885,-3.0823435850000003,-175.91169025,-0.30867983381999997,-1.0923072105,-0.30634484219999997,0.3696817559000001,0.24777694995000005,-0.26004675995000004
03:45:41,-0.69814496,-0.90077524,0.6117214799999999,0.4040075000000001,0.19346542,0.08831220000000001,2.2542213,-31.23648554,-3.06211634,-175.919731,-0.30647914328,-1.086623942,-0.30303382879999996,0.36498338360000004,0.24337712980000004,-0.2562543598
03:45:41,-0.6886419300000001,-0.89650542,0.6019900899999999,0.399660875,0.189443735,0.08617085000000002,2.246640525,-31.239657195,-3.041889095,-175.92777175,-0.30427845274,-1.0809406735,-0.29972281539999995,0.36028501130000007,0.23897730965000002,-0.25246195965
03:45:41,-0.6791389,-0.8922356,0.5922586999999999,0.39531425000000003,0.18542205,0.08402950000000001,2.23905975,-31.24282885,-3.02166185,-175.9358125,-0.3020777622,-1.0752574049999999,-0.29641180199999995,0.35558663900000004,0.2345774895,-0.24866955950000003
03:45:41,-0.66963587,-0.8879657799999999,0.5825273099999999,0.39096762500000004,0.181400365,0.08188815000000002,2.231478975,-31.246000505,-3.001434605,-175.94385325000002,-0.29987707166,-1.0695741365,-0.2931007886,0.35088826670000006,0.23017766935,-0.24487715935000004
03:45:41,-0.66013284,-0.88369596,0.5727959199999999,0.38662100000000005,0.17737868,0.0797468,2.2238982,-31.24917216,-2.98120736,-175.951894,-0.29767638111999994,-1.063890868,-0.28978977519999993,0.34618989440000003,0.22577784920000005,-0.2410847592
03:45:41,-0.65062981,-0.87942614,0.56306453,0.38227437500000006,0.17335699499999996,0.07760545000000002,2.216317425,-31.252343815,-2.960980115,-175.95993475,-0.29547569058,-1.0582075995,-0.2864787618,0.34149152210000006,0.22137802905000004,-0.23729235905
03:45:41,-0.64112678,-0.8751563199999999,0.55333314,0.37792775000000006,0.16933530999999996,0.0754641,2.20873665,-31.25551547,-2.94075287,-175.9679755,-0.29327500003999996,-1.0525243309999999,-0.2831677483999999,0.3367931498000001,0.21697820890000002,-0.23349995890000003
03:45:41,-0.63162375,-0.8708864999999999,0.54360175,0.37358112500000007,0.16531362499999996,0.07332275000000002,2.201155875,-31.258687125,-2.920525625,-175.97601625000001,-0.2910743095,-1.0468410625,-0.27985673499999997,0.33209477750000005,0.21257838875,-0.22970755875000004
03:45:41,-0.62212072,-0.8666166799999999,0.53387036,0.3692345,0.16129193999999997,0.0711814,2.1935751,-31.26185878,-2.9002983799999997,-175.984057,-0.28887361895999997,-1.041157794,-0.27654572159999996,0.3273964052000001,0.2081785686,-0.2259151586
03:45:41,-0.61261769,-0.8623468599999999,0.52413897,0.36488787500000003,0.15727025499999997,0.06904005000000002,2.1859943250000002,-31.265030435,-2.880071135,-175.99209775,-0.28667292842,-1.0354745255,-0.27323470819999995,0.32269803290000004,0.20377874845000005,-0.22212275845
03:45:41,-0.60311466,-0.85807704,0.51440758,0.36054125000000004,0.15324856999999997,0.0668987,2.17841355,-31.26820209,-2.85984389,-176.0001385,-0.28447223788,-1.0297912569999998,-0.26992369479999995,0.31799966060000007,0.19937892830000004,-0.21833035830000003
03:45:41,-0.5936116300000001,-0.85380722,0.50467619,0.35619462500000004,0.14922688499999998,0.06475735000000002,2.170832775,-31.271373745,-2.839616645,-176.00817925,-0.28227154734,-1.0241079885,-0.26661268139999994,0.31330128830000004,0.19497910815000002,-0.21453795815000004
03:45:41,-0.5841086,-0.8495374,0.49494479999999996,0.35184800000000005,0.14520519999999998,0.062616,2.163252,-31.2745454,-2.8193894,-176.01622,-0.2800708568,-1.01842472,-0.26330166799999993,0.30860291600000006,0.190579288,-0.210745558
03:45:41,-0.57460557,-0.84526758,0.48521340999999996,0.34750137500000006,0.14118351499999998,0.06047465000000002,2.155671225,-31.277717055,-2.7991621550000003,-176.02426075,-0.27787016626,-1.0127414515,-0.2599906545999999,0.3039045437000001,0.18617946785,-0.20695315785
03:45:41,-0.56510254,-0.84099776,0.47548201999999995,0.34315475000000006,0.13716182999999998,0.058333300000000005,2.1480904499999998,-31.28088871,-2.7789349100000003,-176.03230150000002,-0.27566947572,-1.0070581829999998,-0.2566796412,0.29920617140000005,0.18177964770000005,-0.20316075770000003
03:45:41,-0.55559951,-0.83672794,0.46575062999999994,0.33880812500000007,0.133140145,0.05619195000000002,2.140509675,-31.284060365000002,-2.758707665,-176.04034225,-0.27346878517999995,-1.0013749145,-0.25336862779999997,0.2945077991000001,0.17737982755000004,-0.19936835755000004
03:45:41,-0.54609648,-0.83245812,0.45601923999999994,0.3344615000000001,0.12911846,0.054050600000000004,2.1329289,-31.28723202,-2.73848042,-176.048383,-0.27126809464,-0.995691646,-0.25005761439999996,0.28980942680000005,0.17298000740000002,-0.1955759574
03:45:41,-0.53659345,-0.8281882999999999,0.44628784999999993,0.33011487500000003,0.125096775,0.05190925000000002,2.125348125,-31.290403675,-2.718253175,-176.05642375,-0.26906740409999996,-0.9900083774999999,-0.24674660099999995,0.28511105450000007,0.16858018725,-0.19178355725000001
03:45:41,-0.52709042,-0.8239184799999999,0.4365564599999999,0.32576825000000004,0.12107509,0.049767900000000004,2.1177673500000003,-31.29357533,-2.69802593,-176.0644645,-0.26686671356,-0.984325109,-0.24343558759999995,0.28041268220000004,0.1641803671,-0.18799115710000003
03:45:41,-0.51758739,-0.8196486599999999,0.4268250699999999,0.32142162500000004,0.117053405,0.04762655000000002,2.110186575,-31.296746985,-2.677798685,-176.07250525,-0.26466602302,-0.9786418404999999,-0.24012457419999994,0.27571430990000007,0.15978054695000005,-0.18419875695000004
03:45:41,-0.50808436,-0.8153788399999999,0.41709368,0.31707500000000005,0.11303171999999995,0.0454852,2.1026058,-31.29991864,-2.65757144,-176.080546,-0.26246533248,-0.9729585719999999,-0.23681356079999993,0.2710159376000001,0.15538072680000004,-0.1804063568
03:45:41,-0.49858133000000004,-0.81110902,0.40736229,0.31272837500000006,0.10901003499999995,0.04334385000000002,2.095025025,-31.303090295,-2.637344195,-176.08858675,-0.26026464194,-0.9672753034999999,-0.23350254739999993,0.26631756530000006,0.15098090665000002,-0.17661395665000001
03:45:41,-0.48907829999999997,-0.8068392,0.3976309,0.30838175000000007,0.10498834999999995,0.0412025,2.08744425,-31.30626195,-2.6171169499999998,-176.0966275,-0.2580639514,-0.961592035,-0.23019153399999998,0.2616191930000001,0.1465810865,-0.17282155650000003
03:45:41,-0.47957527,-0.80256938,0.38789951,0.3040351250000001,0.10096666499999996,0.03906115000000002,2.079863475,-31.309433605,-2.596889705,-176.10466825,-0.25586326086,-0.9559087665,-0.22688052059999997,0.25692082070000005,0.14218126635,-0.16902915635000004
03:45:41,-0.47007224000000003,-0.79829956,0.37816812,0.2996885,0.09694497999999996,0.0369198,2.0722827,-31.31260526,-2.57666246,-176.112709,-0.25366257031999995,-0.950225498,-0.22356950719999996,0.2522224484000001,0.13778144620000005,-0.1652367562
03:45:41,-0.46056920999999995,-0.79402974,0.36843673,0.29534187500000003,0.09292329499999996,0.034778450000000016,2.064701925,-31.315776915,-2.556435215,-176.12074975000002,-0.25146187978,-0.9445422295,-0.22025849379999995,0.24752407610000005,0.13338162605000004,-0.16144435605000002
03:45:41,-0.45106618,-0.78975992,0.35870534,0.29099525000000004,0.08890160999999996,0.0326371,2.05712115,-31.31894857,-2.53620797,-176.1287905,-0.24926118924,-0.938858961,-0.21694748039999995,0.24282570380000007,0.12898180590000002,-0.15765195590000003
03:45:41,-0.44156315,-0.7854901,0.34897395,0.28664862500000005,0.08487992499999997,0.030495750000000016,2.0495403750000003,-31.322120225,-2.5159807250000004,-176.13683125,-0.2470604987,-0.9331756925,-0.21363646699999994,0.23812733150000004,0.12458198575000001,-0.15385955575000004
03:45:41,-0.43206012000000005,-0.78122028,0.33924255999999997,0.28230200000000005,0.08085823999999997,0.02835440000000003,2.0419596,-31.32529188,-2.4957534800000003,-176.144872,-0.24485980815999997,-0.927492424,-0.21032545359999993,0.23342895920000006,0.12018216560000006,-0.1500671556
03:45:41,-0.42255708999999997,-0.7769504599999999,0.32951116999999996,0.27795537500000006,0.07683655499999997,0.026213050000000016,2.034378825,-31.328463535,-2.4755262350000002,-176.15291275,-0.24265911761999998,-0.9218091555,-0.20701444019999993,0.2287305869000001,0.11578234545000005,-0.14627475545000002
03:45:41,-0.41305406,-0.7726806399999999,0.31977977999999996,0.27360875000000007,0.07281486999999998,0.02407170000000003,2.02679805,-31.33163519,-2.45529899,-176.1609535,-0.24045842707999998,-0.916125887,-0.20370342679999992,0.22403221460000006,0.11138252530000003,-0.14248235530000003
03:45:41,-0.40355103000000003,-0.7684108199999999,0.31004838999999995,0.2692621250000001,0.06879318499999998,0.021930350000000015,2.019217275,-31.334806845,-2.435071745,-176.16899425,-0.23825773654,-0.9104426185,-0.20039241339999997,0.21933384230000008,0.10698270515000002,-0.13868995515
03:45:41,-0.39404799999999995,-0.764141,0.30031699999999995,0.2649155000000001,0.06477149999999998,0.01978900000000003,2.0116365,-31.3379785,-2.4148445,-176.17703500000002,-0.236057046,-0.90475935,-0.19708139999999996,0.21463547000000005,0.10258288500000001,-0.134897555
03:45:41,-0.38454497,-0.75987118,0.29058560999999994,0.26056887500000003,0.060749814999999985,0.017647650000000015,2.004055725,-31.341150155,-2.394617255,-176.18507575,-0.23385635545999997,-0.8990760815,-0.19377038659999996,0.20993709770000007,0.09818306485000006,-0.13110515485000002
03:45:41,-0.37504194,-0.75560136,0.28085421999999993,0.25622225000000004,0.05672812999999999,0.015506300000000028,1.99647495,-31.34432181,-2.37439001,-176.1931165,-0.23165566491999998,-0.893392813,-0.19045937319999995,0.20523872540000004,0.09378324470000005,-0.12731275470000003
03:45:41,-0.36553890999999994,-0.75133154,0.2711228299999999,0.25187562500000005,0.05270644499999999,0.013364950000000014,1.988894175,-31.347493465,-2.354162765,-176.20115725,-0.22945497437999998,-0.8877095445,-0.18714835979999994,0.20054035310000007,0.08938342455000003,-0.12352035454999999
03:45:41,-0.35603587999999997,-0.74706172,0.2613914399999999,0.24752900000000005,0.048684759999999994,0.011223600000000028,1.9813134,-31.35066512,-2.3339355200000003,-176.20919800000001,-0.22725428384,-0.8820262759999999,-0.18383734639999993,0.19584198080000004,0.08498360440000002,-0.1197279544
03:45:41,-0.34653285,-0.7427919,0.2516600499999999,0.24318237500000006,0.04466307499999994,0.009082250000000014,1.973732625,-31.353836775,-2.313708275,-176.21723875,-0.2250535933,-0.8763430074999999,-0.18052633299999993,0.19114360850000006,0.08058378425000001,-0.11593555425000002
03:45:41,-0.3370298199999999,-0.73852208,0.2419286599999999,0.23883575000000007,0.040641389999999944,0.006940900000000028,1.9661518500000001,-31.35700843,-2.29348103,-176.2252795,-0.22285290275999997,-0.8706597389999999,-0.17721531959999992,0.1864452362000001,0.07618396410000006,-0.11214315410000003
03:45:41,-0.32752679000000007,-0.73425226,0.2321972699999999,0.23448912500000008,0.03661970499999995,0.0047995500000000135,1.958571075,-31.360180085,-2.273253785,-176.23332025,-0.22065221221999998,-0.8649764704999999,-0.17390430619999997,0.18174686390000006,0.07178414395000005,-0.10835075394999999
03:45:41,-0.31802376,-0.7299824399999999,0.2224658799999999,0.23014250000000003,0.03259801999999995,0.002658200000000027,1.9509903,-31.36335174,-2.25302654,-176.241361,-0.21845152167999998,-0.8592932019999999,-0.17059329279999996,0.17704849160000002,0.06738432380000003,-0.1045583538
03:45:41,-0.3085207299999999,-0.7257126199999999,0.2127344899999999,0.22579587500000003,0.028576334999999953,0.0005168500000000131,1.943409525,-31.366523395,-2.232799295,-176.24940175,-0.21625083114,-0.8536099334999999,-0.16728227939999996,0.1723501193000001,0.06298450365000002,-0.10076595365000002
03:45:41,-0.29901770000000005,-0.7214427999999999,0.20300309999999988,0.22144925000000004,0.024554649999999956,-0.0016244999999999732,1.9358287500000002,-31.36969505,-2.21257205,-176.2574425,-0.2140501406,-0.8479266649999999,-0.16397126599999995,0.16765174700000007,0.05858468350000001,-0.09697355350000003
03:45:41,-0.28951467,-0.71717298,0.19327170999999987,0.21710262500000005,0.02053296499999996,-0.0037658499999999873,1.9282479750000001,-31.372866705,-2.1923448050000003,-176.26548325000002,-0.21184945005999997,-0.8422433964999999,-0.16066025259999994,0.16295337470000004,0.054184863350000056,-0.09318115334999999
03:45:41,-0.2800116399999999,-0.71290316,0.1835403200000001,0.21275600000000006,0.01651127999999996,-0.005907199999999974,1.9206672,-31.37603836,-2.1721175600000002,-176.273524,-0.20964875951999998,-0.8365601279999999,-0.15734923919999994,0.15825500240000012,0.049785043200000045,-0.0893887532
03:45:41,-0.27050861000000004,-0.70863334,0.17380893000000008,0.20840937500000006,0.012489594999999964,-0.008048549999999988,1.913086425,-31.379210015,-2.151890315,-176.28156475,-0.20744806897999998,-0.8308768594999999,-0.15403822579999993,0.1535566301000001,0.045385223050000034,-0.08559635305000002
03:45:41,-0.26100557999999996,-0.70436352,0.16407754000000008,0.20406275000000007,0.008467909999999967,-0.010189899999999974,1.90550565,-31.38238167,-2.13166307,-176.2896055,-0.20524737843999996,-0.8251935909999999,-0.15072721239999992,0.14885825780000006,0.04098540290000008,-0.08180395290000003
03:45:41,-0.2515025499999999,-0.7000937,0.15434615000000007,0.19971612500000008,0.00444622499999997,-0.012331249999999988,1.8979248750000002,-31.385553325,-2.111435825,-176.29764625,-0.20304668789999997,-0.8195103224999999,-0.14741619899999991,0.14415988550000003,0.03658558275000001,-0.07801155274999999
03:45:41,-0.24199952000000002,-0.69582388,0.14461476000000006,0.19536950000000008,0.00042453999999997327,-0.014472599999999974,1.8903441,-31.38872498,-2.09120858,-176.305687,-0.20084599735999997,-0.813827054,-0.14410518559999996,0.1394615132000001,0.032185762600000056,-0.0742191526
03:45:41,-0.23249648999999994,-0.69155406,0.13488337000000006,0.19102287500000004,-0.003597145000000024,-0.01661394999999996,1.882763325,-31.391896635000002,-2.070981335,-176.31372775,-0.19864530681999998,-0.8081437855,-0.14079417219999996,0.13476314090000008,0.02778594244999999,-0.07042675245000002
03:45:41,-0.22299345999999987,-0.68728424,0.12515198000000005,0.1866762500000001,-0.007618830000000021,-0.018755300000000003,1.87518255,-31.39506829,-2.0507540900000003,-176.3217685,-0.19644461627999998,-0.802460517,-0.13748315879999995,0.13006476860000005,0.023386122300000034,-0.06663435230000003
03:45:41,-0.21349043,-0.68301442,0.11542059000000005,0.18232962500000005,-0.011640515000000018,-0.02089664999999999,1.867601775,-31.398239945,-2.0305268450000002,-176.32980925,-0.19424392574,-0.7967772485,-0.13417214539999994,0.12536639630000002,0.01898630215000008,-0.06284195214999999
03:45:41,-0.20398739999999993,-0.6787445999999999,0.10568920000000004,0.177983,-0.01566220000000007,-0.023037999999999975,1.8600210000000001,-31.4014116,-2.0102996,-176.33785,-0.1920432352,-0.79109398,-0.13086113199999994,0.1206680240000001,0.014586482000000012,-0.059049552000000005
03:45:41,-0.19448437000000007,-0.6744747799999999,0.09595781000000003,0.17363637500000006,-0.019683885000000068,-0.02517934999999996,1.852440225,-31.404583255,-1.9900723550000001,-176.34589075,-0.18984254466,-0.7854107115,-0.12755011859999993,0.11596965170000006,0.010186661850000056,-0.05525715185000002
03:45:41,-0.18498134,-0.67020496,0.08622642000000003,0.16928975000000002,-0.023705570000000065,-0.027320700000000003,1.84485945,-31.40775491,-1.96984511,-176.35393150000002,-0.18764185412,-0.779727443,-0.12423910519999992,0.11127127940000003,0.005786841699999989,-0.05146475170000003
03:45:41,-0.17547830999999992,-0.66593514,0.07649503000000002,0.16494312500000008,-0.02772725500000006,-0.02946204999999999,1.837278675,-31.410926565,-1.949617865,-176.36197225,-0.18544116358,-0.7740441745,-0.12092809179999991,0.10657290710000011,0.0013870215500000338,-0.04767235154999999
03:45:41,-0.16597528000000006,-0.66166532,0.06676364000000001,0.16059650000000003,-0.03174894000000006,-0.031603399999999976,1.8296979000000002,-31.41409822,-1.92939062,-176.370013,-0.18324047303999996,-0.768360906,-0.11761707839999996,0.10187453480000008,-0.003012798599999922,-0.043879951400000006
03:45:41,-0.15647224999999998,-0.6573955,0.05703225000000001,0.1562498750000001,-0.035770625000000056,-0.03374474999999996,1.8221171250000001,-31.417269875,-1.9091633750000003,-176.37805375,-0.18103978249999997,-0.7626776375,-0.11430606499999996,0.09717616250000005,-0.0074126187499999885,-0.04008755125000002
03:45:41,-0.1469692199999999,-0.6531256799999999,0.04730086,0.15190325000000005,-0.03979231000000005,-0.035886100000000004,1.81453635,-31.42044153,-1.8889361300000003,-176.3860945,-0.17883909195999997,-0.756994369,-0.11099505159999995,0.09247779020000002,-0.011812438899999944,-0.036295151100000034
03:45:41,-0.13746619000000004,-0.64885586,0.037569469999999994,0.1475566250000001,-0.04381399500000005,-0.03802744999999999,1.806955575,-31.423613185,-1.8687088850000002,-176.39413525,-0.17663840141999998,-0.7513111004999999,-0.10768403819999994,0.0877794179000001,-0.01621225905000001,-0.03250275094999999
03:45:41,-0.12796315999999996,-0.64458604,0.027838079999999987,0.14321000000000006,-0.04783568000000005,-0.04016879999999998,1.7993748,-31.42678484,-1.8484816400000001,-176.402176,-0.17443771087999999,-0.7456278319999999,-0.10437302479999994,0.08308104560000007,-0.020612079199999966,-0.028710350800000006
03:45:41,-0.11846012999999989,-0.64031622,0.01810668999999998,0.138863375,-0.051857365000000044,-0.04231014999999996,1.7917940250000002,-31.429956495,-1.828254395,-176.41021675,-0.17223702034,-0.7399445634999999,-0.10106201139999993,0.07838267330000004,-0.025011899349999922,-0.02491795065000002
03:45:41,-0.10895710000000003,-0.6360464,0.008375299999999974,0.13451675000000007,-0.05587905000000004,-0.04445149999999995,1.78421325,-31.43312815,-1.80802715,-176.4182575,-0.1700363298,-0.7342612949999999,-0.09775099799999992,0.07368430100000012,-0.02941171949999999,-0.02112555049999998
03:45:41,-0.09945406999999995,-0.6317765799999999,-0.001356090000000032,0.13017012500000003,-0.05990073500000004,-0.04659284999999999,1.776632475,-31.436299805,-1.787799905,-176.42629825,-0.16783563926,-0.7285780264999999,-0.09443998459999992,0.06898592870000009,-0.033811539649999944,-0.017333150349999993
03:45:41,-0.08995103999999987,-0.6275067599999999,-0.011087480000000038,0.1258235000000001,-0.06392242000000004,-0.04873419999999998,1.7690517000000001,-31.43947146,-1.7675726600000004,-176.434339,-0.16563494872,-0.7228947579999999,-0.09112897119999991,0.06428755640000006,-0.03821135980000001,-0.013540750200000007
03:45:41,-0.08044801000000001,-0.62323694,-0.020818870000000045,0.12147687500000004,-0.06794410500000003,-0.050875549999999964,1.761470925,-31.442643115,-1.7473454150000003,-176.44237975000001,-0.16343425817999996,-0.7172114894999999,-0.08781795779999996,0.059589184100000026,-0.04261117994999997,-0.009748350049999965
03:45:41,-0.07094497999999994,-0.61896712,-0.03055026000000005,0.1171302500000001,-0.07196579000000003,-0.05301689999999995,1.7538901500000001,-31.44581477,-1.7271181700000002,-176.4504205,-0.16123356763999996,-0.7115282209999999,-0.08450694439999995,0.054890811800000106,-0.04701100009999992,-0.005955949900000035
03:45:41,-0.061441949999999856,-0.6146973,-0.04028165000000006,0.11278362500000005,-0.07598747500000003,-0.05515824999999999,1.746309375,-31.448986425,-1.7068909250000002,-176.45846125,-0.15903287709999997,-0.7058449524999999,-0.08119593099999994,0.050192439500000074,-0.05141082024999999,-0.0021635497499999934
03:45:41,-0.05193892,-0.61042748,-0.050013040000000064,0.10843700000000012,-0.08000916000000002,-0.05729959999999998,1.7387286,-31.45215808,-1.68666368,-176.466502,-0.15683218655999998,-0.7001616839999999,-0.07788491759999994,0.04549406720000004,-0.055810640399999945,0.001628850400000048
03:45:41,-0.04243588999999992,-0.6061576599999999,-0.05974443000000007,0.10409037500000007,-0.08403084500000002,-0.059440949999999965,1.731147825,-31.455329735,-1.666436435,-176.47454275,-0.15463149601999998,-0.6944784154999999,-0.07457390419999993,0.04079569490000012,-0.06021046055000001,0.005421250549999979
03:45:41,-0.032932860000000064,-0.60188784,-0.06947582000000008,0.09974375000000002,-0.08805253000000002,-0.06158229999999995,1.72356705,-31.45850139,-1.64620919,-176.4825835,-0.15243080548,-0.6887951469999999,-0.07126289079999992,0.03609732260000009,-0.06461028069999997,0.00921365070000002
03:45:41,-0.023429829999999985,-0.59761802,-0.07920721000000008,0.09539712500000008,-0.09207421500000001,-0.06372364999999999,1.7159862750000001,-31.461673045,-1.6259819450000004,-176.49062425,-0.15023011494,-0.6831118784999999,-0.06795187739999992,0.03139895030000006,-0.06901010084999992,0.01300605084999995
03:45:41,-0.013926799999999906,-0.5933482,-0.08893860000000009,0.09105050000000003,-0.09609590000000001,-0.06586499999999998,1.7084055,-31.4648447,-1.6057547000000003,-176.49866500000002,-0.1480294244,-0.6774286099999999,-0.06464086399999991,0.02670057800000003,-0.07340992099999999,0.016798450999999992
03:45:41,-0.004423770000000049,-0.58907838,-0.0986699900000001,0.0867038750000001,-0.10011758500000001,-0.06800634999999997,1.7008247250000001,-31.468016355,-1.5855274550000003,-176.50670575,-0.14582873386,-0.6717453415,-0.06132985059999996,0.02200220570000011,-0.07780974114999994,0.020590851150000034
03:45:41,0.00507926000000003,-0.5848085599999999,-0.1084013800000001,0.08235725000000005,-0.10413927,-0.07014769999999995,1.69324395,-31.47118801,-1.5653002100000002,-176.5147465,-0.14362804332,-0.666062073,-0.05801883719999995,0.01730383340000008,-0.08220956130000001,0.024383251299999964
03:45:41,0.014582290000000109,-0.5805387399999999,-0.11813277000000011,0.07801062500000011,-0.108160955,-0.07228905,1.685663175,-31.474359665,-1.5450729650000001,-176.52278725,-0.14142735277999996,-0.6603788045,-0.054707823799999944,0.012605461100000048,-0.08660938144999997,0.028175651450000005
03:45:41,0.024085319999999966,-0.57626892,-0.12786416000000012,0.07366400000000006,-0.11218264,-0.07443039999999998,1.6780824,-31.47753132,-1.52484572,-176.530828,-0.13922666223999997,-0.654695536,-0.05139681039999994,0.007907088800000017,-0.09100920159999992,0.03196805160000005
03:45:41,0.033588350000000045,-0.5719991,-0.1375955499999999,0.06931737500000001,-0.11620432500000011,-0.07657174999999997,1.670501625,-31.480702975,-1.504618475,-176.53886875,-0.13702597169999997,-0.6490122675,-0.04808579699999993,0.0032087165000000972,-0.09540902174999999,0.03576045174999998
03:45:41,0.043091380000000123,-0.56772928,-0.1473269399999999,0.06497075000000008,-0.1202260100000001,-0.07871309999999995,1.6629208500000001,-31.48387463,-1.4843912300000004,-176.5469095,-0.13482528115999998,-0.643328999,-0.04477478359999992,-0.0014896557999999338,-0.09980884189999994,0.03955285190000002
03:45:41,0.05259440999999998,-0.56345946,-0.1570583299999999,0.06062412500000003,-0.1242476950000001,-0.08085445,1.655340075,-31.487046285,-1.4641639850000003,-176.55495025,-0.13262459061999998,-0.6376457305,-0.041463770199999916,-0.006188028099999965,-0.10420866205000001,0.04334525204999995
03:45:41,0.06209744000000006,-0.5591896399999999,-0.16678971999999992,0.05627750000000009,-0.1282693800000001,-0.08299579999999998,1.6477593000000001,-31.49021794,-1.4439367400000003,-176.562991,-0.13042390008,-0.631962462,-0.03815275679999991,-0.010886400399999885,-0.10860848219999997,0.04713765219999999
03:45:41,0.07160047000000014,-0.55491982,-0.17652110999999993,0.05193087500000004,-0.1322910650000001,-0.08513714999999997,1.640178525,-31.493389595,-1.4237094950000002,-176.57103175,-0.12822320954,-0.6262791934999999,-0.0348417433999999,-0.015584772699999916,-0.11300830234999992,0.05093005235000003
03:45:41,0.0811035,-0.55065,-0.18625249999999993,0.047584250000000106,-0.1363127500000001,-0.08727849999999995,1.63259775,-31.49656125,-1.4034822500000002,-176.5790725,-0.126022519,-0.6205959249999999,-0.03153072999999995,-0.020283144999999947,-0.11740812249999999,0.05472245249999996
03:45:41,0.09060653000000007,-0.54638018,-0.19598388999999994,0.04323762500000006,-0.1403344350000001,-0.08941985,1.625016975,-31.499732905,-1.383255005,-176.58711325000002,-0.12382182846,-0.6149126564999999,-0.028219716599999944,-0.024981517299999978,-0.12180794264999995,0.058514852650000004
03:45:41,0.10010956000000015,-0.54211036,-0.20571527999999994,0.03889100000000001,-0.1443561200000001,-0.09156119999999998,1.6174362,-31.50290456,-1.36302776,-176.595154,-0.12162113792000001,-0.6092293879999999,-0.024908703199999938,-0.029679889599999898,-0.1262077628,0.062307252800000046
03:45:41,0.10961259000000001,-0.53784054,-0.21544666999999995,0.03454437500000007,-0.14837780500000008,-0.09370254999999997,1.6098554250000001,-31.506076215,-1.3428005150000004,-176.60319475,-0.11942044737999996,-0.6035461194999999,-0.021597689799999875,-0.03437826189999993,-0.13060758294999997,0.06609965294999998
03:45:41,0.11911562000000009,-0.5335707199999999,-0.22517805999999996,0.030197750000000023,-0.15239949000000008,-0.09584389999999995,1.60227465,-31.50924787,-1.3225732700000004,-176.6112355,-0.11721975683999997,-0.5978628509999999,-0.018286676399999924,-0.03907663419999996,-0.13500740309999992,0.06989205310000002
03:45:41,0.12861865000000017,-0.5293009,-0.23490944999999996,0.025851125000000086,-0.15642117500000008,-0.09798525,1.5946938750000001,-31.512419525,-1.3023460250000003,-176.61927625,-0.11501906629999997,-0.5921795824999999,-0.014975662999999972,-0.04377500649999988,-0.13940722325,0.07368445324999995
03:45:41,0.13812168000000002,-0.52503108,-0.24464083999999997,0.021504500000000037,-0.16044286000000008,-0.10012659999999998,1.5871131,-31.51559118,-1.2821187800000002,-176.627317,-0.11281837575999998,-0.5864963139999999,-0.01166464959999991,-0.04847337879999991,-0.14380704339999995,0.07747685339999999
03:45:41,0.1476247100000001,-0.52076126,-0.25437223,0.0171578750000001,-0.16446454500000007,-0.10226794999999997,1.579532325,-31.518762835,-1.2618915350000002,-176.63535775,-0.11061768521999998,-0.5808130454999999,-0.008353636199999959,-0.05317175109999994,-0.14820686355,0.08126925355000003
03:45:41,0.15712773999999996,-0.51649144,-0.26410362,0.012811250000000052,-0.16848623000000007,-0.10440929999999995,1.57195155,-31.52193449,-1.2416642900000001,-176.6433985,-0.10841699467999999,-0.5751297769999999,-0.005042622799999896,-0.05787012339999997,-0.15260668369999997,0.08506165369999996
03:45:41,0.16663077000000004,-0.5122216199999999,-0.27383501,0.008464625000000114,-0.17250791500000007,-0.10655065,1.564370775,-31.525106145,-1.221437045,-176.65143925,-0.10621630414,-0.5694465084999999,-0.001731609399999945,-0.0625684956999999,-0.15700650384999992,0.08885405385
03:45:41,0.17613380000000012,-0.5079518,-0.2835664,0.004118000000000066,-0.17652960000000006,-0.10869199999999998,1.5567900000000001,-31.5282778,-1.2012098,-176.65948,-0.1040156136,-0.5637632399999999,0.0015794040000001175,-0.06726686799999992,-0.161406324,0.09264645400000004
03:45:41,0.18563682999999997,-0.50368198,-0.29329779,-0.00022862499999998231,-0.18055128500000006,-0.11083334999999997,1.549209225,-31.531449455,-1.1809825550000004,-176.66752075,-0.10181492306,-0.5580799714999999,0.004890417400000069,-0.07196524029999996,-0.16580614414999995,0.09643885414999998
03:45:41,0.19513986000000005,-0.49941216,-0.30302918,-0.00457524999999992,-0.18457297000000006,-0.11297469999999996,1.5416284500000002,-31.53462111,-1.1607553100000003,-176.67556150000001,-0.09961423252000001,-0.5523967029999999,0.008201430800000131,-0.07666361259999988,-0.1702059643,0.10023125430000002
03:45:41,0.20464289000000013,-0.49514234,-0.31276057,-0.008921874999999968,-0.18859465500000006,-0.11511604999999994,1.534047675,-31.537792765,-1.1405280650000003,-176.68360225,-0.09741354197999996,-0.5467134344999999,0.011512444200000083,-0.0813619848999999,-0.17460578444999997,0.10402365445000006
03:45:41,0.21414592,-0.49087252000000003,-0.32249196,-0.013268499999999905,-0.19261634000000005,-0.11725739999999998,1.5264669,-31.54096442,-1.1203008200000002,-176.691643,-0.09521285143999997,-0.5410301659999999,0.014823457600000034,-0.08606035719999994,-0.17900560459999992,0.10781605459999999
03:45:41,0.22364895000000007,-0.48660269999999994,-0.33222335000000003,-0.017615124999999954,-0.19663802500000005,-0.11939874999999997,1.518886125,-31.544136075,-1.1000735750000001,-176.69968375,-0.09301216089999997,-0.5353468974999999,0.018134471000000096,-0.09075872949999997,-0.18340542475,0.11160845475000003
03:45:41,0.23315198000000015,-0.48233287999999996,-0.34195474000000003,-0.02196174999999989,-0.20065971000000005,-0.12154009999999996,1.51130535,-31.54730773,-1.07984633,-176.7077245,-0.09081147035999998,-0.5296636289999999,0.021445484400000048,-0.09545710179999989,-0.18780524489999995,0.11540085489999996
03:45:41,0.24265501,-0.47806306,-0.35168613000000004,-0.02630837499999994,-0.20468139500000004,-0.12368144999999994,1.5037245750000001,-31.550479385,-1.059619085,-176.71576525,-0.08861077981999999,-0.5239803605,0.02475649780000011,-0.10015547409999992,-0.19220506505,0.11919325505
03:45:41,0.2521580400000001,-0.47379324,-0.36141752000000005,-0.030654999999999877,-0.20870308000000004,-0.12582279999999998,1.4961438,-31.55365104,-1.0393918400000004,-176.723806,-0.08641008927999999,-0.518297092,0.02806751120000006,-0.10485384639999995,-0.19660488519999997,0.12298565520000004
03:45:41,0.26166107000000016,-0.46952342,-0.37114891000000005,-0.035001624999999925,-0.21272476500000004,-0.12796414999999997,1.4885630250000002,-31.556822695,-1.0191645950000003,-176.73184675,-0.08420939874,-0.5126138235,0.031378524600000124,-0.10955221869999987,-0.20100470534999992,0.12677805534999997
03:45:41,0.2711641,-0.46525359999999993,-0.38088030000000006,-0.039348249999999974,-0.21674645000000003,-0.13010549999999996,1.48098225,-31.55999435,-0.9989373500000003,-176.7398875,-0.0820087082,-0.506930555,0.034689538000000075,-0.1142505909999999,-0.2054045255,0.13057045550000002
03:45:41,0.2806671300000001,-0.46098377999999995,-0.39061169000000007,-0.04369487499999991,-0.22076813500000003,-0.13224684999999994,1.473401475,-31.563166005,-0.9787101050000002,-176.74792825,-0.07980801766000001,-0.5012472864999999,0.03800055140000003,-0.11894896329999993,-0.20980434564999995,0.13436285565000006
03:45:41,0.2901701600000002,-0.45671396,-0.4003430800000001,-0.04804149999999996,-0.22478982000000003,-0.13438819999999999,1.4658207,-31.56633766,-0.9584828600000002,-176.755969,-0.07760732712000001,-0.49556401799999994,0.04131156480000009,-0.12364733559999996,-0.2142041658,0.1381552558
03:45:41,0.29967319000000003,-0.45244414,-0.4100744700000001,-0.0523881249999999,-0.22881150500000003,-0.13652954999999997,1.458239925,-31.569509315,-0.9382556150000001,-176.76400975,-0.07540663657999996,-0.48988074949999993,0.04462257820000004,-0.12834570789999988,-0.21860398594999997,0.14194765595000003
03:45:41,0.3091762200000001,-0.44817432,-0.4198058600000001,-0.056734749999999945,-0.23283319000000002,-0.13867089999999996,1.4506591500000001,-31.57268097,-0.91802837,-176.7720505,-0.07320594603999997,-0.48419748099999993,0.0479335916000001,-0.13304408019999991,-0.22300380609999992,0.14574005609999996
03:45:41,0.31867924999999997,-0.44390450000000004,-0.4295372500000001,-0.06108137499999988,-0.23685487500000002,-0.14081224999999994,1.443078375,-31.575852625,-0.8978011250000004,-176.78009125,-0.07100525549999998,-0.4785142124999999,0.051244605000000054,-0.13774245249999995,-0.22740362625,0.14953245625
03:45:41,0.32818228000000005,-0.43963467999999994,-0.4392686399999999,-0.06542799999999993,-0.24087656000000013,-0.1429536,1.4354976000000002,-31.57902428,-0.8775738800000004,-176.788132,-0.06880456495999998,-0.4728309439999998,0.054555618400000117,-0.14244082479999987,-0.23180344639999995,0.15332485640000004
03:45:41,0.3376853100000001,-0.43536485999999996,-0.4490000299999999,-0.06977462499999998,-0.24489824500000013,-0.14509494999999997,1.427916825,-31.582195935,-0.8573466350000003,-176.79617275,-0.06660387441999999,-0.4671476754999999,0.05786663180000007,-0.1471391970999999,-0.23620326655,0.15711725654999997
03:45:41,0.34718834,-0.43109504,-0.4587314199999999,-0.07412124999999992,-0.24891993000000012,-0.14723629999999996,1.42033605,-31.58536759,-0.8371193900000002,-176.8042135,-0.06440318387999999,-0.4614644069999998,0.06117764520000013,-0.15183756939999993,-0.24060308669999997,0.16090965670000001
03:45:41,0.35669137000000006,-0.42682522,-0.4684628099999999,-0.07846787499999996,-0.2529416150000001,-0.14937764999999995,1.412755275,-31.588539245,-0.8168921450000002,-176.81225425,-0.06220249334,-0.4557811384999999,0.06448865860000008,-0.15653594169999996,-0.24500290684999992,0.16470205685000006
03:45:41,0.36619440000000014,-0.4225554,-0.4781941999999999,-0.0828144999999999,-0.2569633000000001,-0.151519,1.4051745,-31.5917109,-0.7966649000000001,-176.82029500000002,-0.060001802800000004,-0.45009787,0.06779967200000003,-0.16123431399999988,-0.249402727,0.168494457
03:45:41,0.37569743,-0.41828557999999993,-0.4879255899999999,-0.08716112499999995,-0.2609849850000001,-0.15366034999999997,1.3975937250000001,-31.594882555,-0.7764376550000001,-176.82833575,-0.05780111226000001,-0.4444146014999999,0.0711106854000001,-0.1659326862999999,-0.25380254714999995,0.17228685715000003
03:45:41,0.3852004600000001,-0.41401575999999995,-0.4976569799999999,-0.09150774999999989,-0.2650066700000001,-0.15580169999999996,1.39001295,-31.59805421,-0.7562104100000004,-176.8363765,-0.055600421720000015,-0.438731333,0.07442169880000005,-0.17063105859999994,-0.2582023673,0.17607925729999996
03:45:41,0.39470349000000016,-0.40974594,-0.5073883699999999,-0.09585437499999994,-0.2690283550000001,-0.15794304999999995,1.3824321750000002,-31.601225865,-0.7359831650000004,-176.84441725,-0.053399731179999965,-0.4330480644999999,0.07773271220000011,-0.17532943089999997,-0.26260218744999997,0.17987165745
03:45:41,0.40420652,-0.40547612,-0.5171197599999999,-0.10020099999999998,-0.2730500400000001,-0.1600844,1.3748514,-31.60439752,-0.7157559200000003,-176.852458,-0.05119904063999997,-0.427364796,0.08104372560000006,-0.1800278031999999,-0.2670020075999999,0.18366405760000004
03:45:41,0.4137095500000001,-0.4012063,-0.5268511499999999,-0.10454762499999992,-0.2770717250000001,-0.16222574999999997,1.367270625,-31.607569175,-0.6955286750000003,-176.86049875,-0.04899835009999998,-0.4216815274999999,0.08435473900000012,-0.18472617549999992,-0.27140182775,0.18745645774999997
03:45:41,0.42321258000000017,-0.39693648000000004,-0.5365825399999999,-0.10889424999999997,-0.2810934100000001,-0.16436709999999996,1.35968985,-31.61074083,-0.6753014300000002,-176.8685395,-0.04679765955999998,-0.415998259,0.08766575240000007,-0.18942454779999995,-0.27580164789999995,0.1912488579
03:45:41,0.43271561000000003,-0.39266665999999995,-0.54631393,-0.11324087499999991,-0.2851150950000001,-0.16650844999999995,1.352109075,-31.613912485,-0.6550741850000001,-176.87658025,-0.04459696901999999,-0.41031499049999987,0.09097676580000014,-0.19412292009999987,-0.28020146805,0.19504125805000005
03:45:41,0.4422186400000001,-0.38839683999999997,-0.55604532,-0.11758749999999996,-0.2891367800000001,-0.1686498,1.3445283000000001,-31.61708414,-0.6348469400000001,-176.884621,-0.042396278479999994,-0.40463172199999997,0.09428777920000009,-0.1988212923999999,-0.28460128819999997,0.19883365819999999
03:45:41,0.4517216700000002,-0.38412702,-0.56577671,-0.1219341249999999,-0.2931584650000001,-0.17079114999999997,1.336947525,-31.620255795,-0.6146196950000005,-176.89266175,-0.04019558794,-0.39894845349999986,0.09759879260000004,-0.20351966469999994,-0.2890011083499999,0.20262605835000003
03:45:41,0.46122470000000004,-0.3798572,-0.5755081,-0.12628074999999994,-0.2971801500000001,-0.17293249999999996,1.3293667500000002,-31.62342745,-0.5943924500000004,-176.9007025,-0.037994897400000005,-0.39326518499999996,0.1009098060000001,-0.20821803699999997,-0.2934009285,0.20641845849999996
03:45:41,0.4707277300000001,-0.37558738,-0.58523949,-0.13062737499999988,-0.3012018350000001,-0.17507384999999995,1.321785975,-31.626599105,-0.5741652050000003,-176.90874325000001,-0.03579420686000001,-0.38758191649999985,0.10422081940000005,-0.2129164092999999,-0.29780074864999995,0.21021085865
03:45:41,0.48023076,-0.37131756000000005,-0.59497088,-0.13497399999999993,-0.3052235200000001,-0.17721519999999993,1.3142052,-31.62977076,-0.5539379600000003,-176.916784,-0.03359351631999996,-0.38189864799999995,0.10753183280000012,-0.21761478159999992,-0.3022005687999999,0.21400325880000004
03:45:41,0.48973379000000006,-0.36704773999999996,-0.60470227,-0.13932062499999998,-0.3092452050000001,-0.17935654999999998,1.306624425,-31.632942415,-0.5337107150000002,-176.92482475,-0.03139282577999997,-0.37621537949999984,0.11084284620000007,-0.22231315389999995,-0.30660038894999997,0.21779565894999997
03:45:41,0.49923682000000014,-0.36277792,-0.61443366,-0.1436672499999999,-0.3132668900000001,-0.18149789999999996,1.29904365,-31.63611407,-0.5134834700000002,-176.9328655,-0.029192135239999972,-0.37053211099999994,0.11415385960000013,-0.22701152619999987,-0.3110002090999999,0.2215880591
03:45:41,0.50873985,-0.3585081,-0.62416505,-0.14801387499999996,-0.3172885750000001,-0.18363924999999995,1.2914628750000001,-31.639285725,-0.4932562250000001,-176.94090625,-0.026991444699999978,-0.3648488424999998,0.11746487300000008,-0.2317098984999999,-0.31540002925,0.22538045925000005
03:45:41,0.5182428800000001,-0.35423828,-0.63389644,-0.1523604999999999,-0.32131026000000007,-0.18578059999999993,1.2838821,-31.64245738,-0.4730289800000005,-176.948947,-0.024790754159999984,-0.35916557399999993,0.12077588640000014,-0.23640827079999993,-0.31979984939999995,0.22917285939999998
03:45:41,0.5277459100000002,-0.34996846000000004,-0.64362783,-0.15670712499999995,-0.32533194500000007,-0.18792194999999998,1.2763013250000002,-31.645629035,-0.4528017350000004,-176.95698775,-0.02259006361999999,-0.3534823054999998,0.1240868998000001,-0.24110664309999996,-0.3241996695499999,0.23296525955000003
03:45:41,0.53724894,-0.34569863999999995,-0.65335922,-0.16105374999999988,-0.32935363000000006,-0.19006329999999996,1.26872055,-31.64880069,-0.43257449000000037,-176.9650285,-0.020389373079999995,-0.3477990369999999,0.12739791320000005,-0.24580501539999988,-0.32859948969999997,0.23675765970000007
03:45:41,0.5467519700000001,-0.34142881999999997,-0.66309061,-0.16540037499999993,-0.33337531500000006,-0.19220464999999995,1.2611397750000002,-31.651972345,-0.4123472450000003,-176.97306925,-0.01818868254,-0.3421157684999998,0.1307089266000001,-0.2505033876999999,-0.3329993098499999,0.24055005985
03:45:42,0.556255,-0.337159,-0.672822,-0.169747,-0.337397,-0.194346,1.253559,-31.655144,-0.39212,-176.98111,-0.015987992,-0.3364325,0.13401994,-0.25520176,-0.33739913,0.24434246
03:45:42,0.5596632850000001,-0.347449215,-0.67099316,-0.166875885,-0.33635829,-0.19310486999999998,1.2528538550000001,-31.62235416,-0.379530625,-176.983712,-0.01186499774,-0.3470777915,0.1309255353,-0.2520897552,-0.336456223,0.2417962062
03:45:42,0.5630715700000001,-0.35773942999999997,-0.66916432,-0.16400477000000002,-0.33531958,-0.19186374,1.2521487100000002,-31.58956432,-0.36694125,-176.986314,-0.007742003479999999,-0.357723083,0.1278311306,-0.2489777504,-0.335513316,0.23924995240000002
03:45:42,0.5664798550000001,-0.36802964499999996,-0.66733548,-0.16113365500000001,-0.33428087,-0.19062261,1.251443565,-31.55677448,-0.35435187500000004,-176.988916,-0.0036190092199999985,-0.36836837450000004,0.12473672590000001,-0.2458657456,-0.334570409,0.2367036986
03:45:42,0.5698881400000001,-0.37831985999999995,-0.66550664,-0.15826254,-0.33324216,-0.18938148,1.25073842,-31.52398464,-0.3417625,-176.991518,0.0005039850400000018,-0.379013666,0.1216423212,-0.2427537408,-0.33362750199999996,0.2341574448
03:45:42,0.573296425,-0.388610075,-0.6636778,-0.155391425,-0.33220345,-0.18814034999999998,1.250033275,-31.4911948,-0.329173125,-176.99412,0.0046269793,-0.3896589575,0.1185479165,-0.239641736,-0.33268459499999997,0.23161119100000002
03:45:42,0.57670471,-0.39890029,-0.66184896,-0.15252031000000002,-0.33116474,-0.18689921999999998,1.24932813,-31.45840496,-0.31658375000000005,-176.996722,0.008749973560000002,-0.40030424900000006,0.1154535118,-0.2365297312,-0.331741688,0.2290649372
03:45:42,0.580112995,-0.409190505,-0.66002012,-0.149649195,-0.33012603,-0.18565809,1.2486229850000001,-31.42561512,-0.30399437500000004,-176.999324,0.012872967820000004,-0.41094954050000004,0.11235910710000001,-0.2334177264,-0.330798781,0.2265186834
03:45:42,0.58352128,-0.41948072,-0.65819128,-0.14677808,-0.32908732,-0.18441696,1.2479178400000002,-31.39282528,-0.291405,-177.001926,0.016995962080000003,-0.42159483200000003,0.10926470240000001,-0.2303057216,-0.329855874,0.22397242960000002
03:45:42,0.586929565,-0.42977093499999997,-0.65636244,-0.143906965,-0.32804861,-0.18317582999999998,1.247212695,-31.36003544,-0.278815625,-177.004528,0.02111895634,-0.4322401235,0.1061702977,-0.2271937168,-0.328912967,0.2214261758
03:45:42,0.59033785,-0.44006114999999996,-0.6545336,-0.14103585000000002,-0.3270099,-0.1819347,1.24650755,-31.3272456,-0.26622625,-177.00713,0.0252419506,-0.442885415,0.103075893,-0.224081712,-0.32797006,0.218879922
03:45:42,0.5937461350000001,-0.45035136499999995,-0.65270476,-0.138164735,-0.32597119,-0.18069357,1.245802405,-31.29445576,-0.25363687500000004,-177.009732,0.029364944860000006,-0.45353070650000005,0.0999814883,-0.2209697072,-0.327027153,0.2163336682
03:45:42,0.5971544200000001,-0.46064158,-0.65087592,-0.13529362,-0.32493248,-0.17945244,1.24509726,-31.26166592,-0.24104750000000003,-177.012334,0.033487939120000004,-0.46417599800000003,0.0968870836,-0.2178577024,-0.32608424599999997,0.21378741440000001
03:45:42,0.6005627050000001,-0.47093179499999993,-0.64904708,-0.13242250500000002,-0.32389377,-0.17821130999999998,1.2443921150000001,-31.22887608,-0.228458125,-177.014936,0.03761093338,-0.4748212895,0.09379267890000001,-0.2147456976,-0.325141339,0.2112411606
03:45:42,0.6039709900000001,-0.48122201,-0.6472182400000001,-0.12955139000000002,-0.32285506,-0.17697017999999998,1.2436869700000002,-31.19608624,-0.21586875000000003,-177.017538,0.04173392764000001,-0.48546658100000006,0.09069827420000001,-0.2116336928,-0.324198432,0.20869490680000002
03:45:42,0.607379275,-0.49151222499999997,-0.6453894,-0.126680275,-0.32181635000000003,-0.17572905,1.242981825,-31.1632964,-0.20327937500000004,-177.02014,0.04585692190000001,-0.49611187250000005,0.08760386950000001,-0.20852168799999998,-0.323255525,0.20614865300000002
03:45:42,0.61078756,-0.50180244,-0.6435605600000001,-0.12380916,-0.32077764,-0.17448792,1.24227668,-31.13050656,-0.19069000000000003,-177.022742,0.049979916160000006,-0.506757164,0.08450946480000002,-0.2054096832,-0.322312618,0.2036023992
03:45:42,0.614195845,-0.512092655,-0.64173172,-0.12093804500000001,-0.31973893,-0.17324678999999998,1.241571535,-31.09771672,-0.178100625,-177.025344,0.054102910420000004,-0.5174024555000001,0.08141506010000002,-0.20229767840000001,-0.321369711,0.2010561454
03:45:42,0.61760413,-0.5223828699999999,-0.6399028800000001,-0.11806693000000001,-0.31870022,-0.17200566,1.24086639,-31.06492688,-0.16551125000000003,-177.02794600000001,0.05822590468,-0.528047747,0.07832065540000001,-0.1991856736,-0.320426804,0.1985098916
03:45:42,0.621012415,-0.532673085,-0.63807404,-0.11519581500000001,-0.31766151,-0.17076453,1.2401612450000001,-31.03213704,-0.15292187500000004,-177.030548,0.06234889894,-0.5386930385,0.07522625070000001,-0.1960736688,-0.319483897,0.1959636378
03:45:42,0.6244207,-0.5429632999999999,-0.6362452000000001,-0.1123247,-0.3166228,-0.1695234,1.2394561000000002,-30.9993472,-0.14033250000000003,-177.03315,0.06647189319999999,-0.5493383300000001,0.07213184600000001,-0.192961664,-0.31854098999999997,0.193417384
03:45:42,0.6278289850000001,-0.553253515,-0.63441636,-0.109453585,-0.31558409,-0.16828226999999998,1.238750955,-30.96655736,-0.127743125,-177.035752,0.07059488746,-0.5599836215,0.06903744130000002,-0.1898496592,-0.317598083,0.19087113020000002
03:45:42,0.6312372700000001,-0.5635437299999999,-0.6325875200000001,-0.10658247000000001,-0.31454538,-0.16704113999999998,1.23804581,-30.93376752,-0.11515375000000005,-177.038354,0.07471788172000002,-0.5706289130000001,0.06594303660000002,-0.1867376544,-0.316655176,0.1883248764
03:45:42,0.6346455550000001,-0.573833945,-0.63075868,-0.103711355,-0.31350667,-0.16580001,1.237340665,-30.90097768,-0.10256437500000004,-177.040956,0.07884087598,-0.5812742045000001,0.06284863190000001,-0.1836256496,-0.315712269,0.1857786226
03:45:42,0.63805384,-0.58412416,-0.6289298400000001,-0.10084024000000001,-0.31246796,-0.16455888,1.23663552,-30.86818784,-0.08997500000000003,-177.043558,0.08296387024000001,-0.591919496,0.05975422720000001,-0.18051364479999998,-0.314769362,0.1832323688
03:45:42,0.641462125,-0.5944143749999999,-0.627101,-0.097969125,-0.31142925,-0.16331774999999998,1.2359303750000001,-30.835398,-0.07738562500000001,-177.04616,0.0870868645,-0.6025647875,0.05665982250000001,-0.17740164,-0.313826455,0.180686115
03:45:42,0.64487041,-0.6047045899999999,-0.6252721600000001,-0.09509801000000001,-0.31039054,-0.16207662,1.2352252300000002,-30.80260816,-0.06479625,-177.048762,0.09120985876000001,-0.613210079,0.053565417800000015,-0.17428963520000001,-0.312883548,0.1781398612
03:45:42,0.648278695,-0.6149948049999999,-0.62344332,-0.092226895,-0.30935183,-0.16083549,1.234520085,-30.76981832,-0.05220687500000004,-177.051364,0.09533285302,-0.6238553705000001,0.05047101310000002,-0.1711776304,-0.311940641,0.17559360740000002
03:45:42,0.65168698,-0.62528502,-0.6216144800000001,-0.08935578000000001,-0.30831312,-0.15959436,1.23381494,-30.73702848,-0.03961750000000003,-177.053966,0.09945584728000001,-0.634500662,0.04737660840000002,-0.1680656256,-0.31099773399999997,0.1730473536
03:45:42,0.655095265,-0.6355752349999999,-0.61978564,-0.086484665,-0.30727441,-0.15835322999999998,1.233109795,-30.70423864,-0.027028125000000014,-177.056568,0.10357884154000002,-0.6451459535,0.04428220370000001,-0.16495362079999998,-0.310054827,0.1705010998
03:45:42,0.65850355,-0.64586545,-0.6179568,-0.08361355000000001,-0.3062357,-0.15711209999999998,1.23240465,-30.6714488,-0.014438750000000056,-177.05917,0.1077018358,-0.6557912450000001,0.04118779900000001,-0.161841616,-0.30911192,0.167954846
03:45:42,0.6619118350000001,-0.656155665,-0.61612796,-0.080742435,-0.30519699,-0.15587097,1.2316995050000001,-30.63865896,-0.001849375000000042,-177.061772,0.11182483005999999,-0.6664365365,0.038093394300000014,-0.1587296112,-0.308169013,0.16540859219999998
03:45:42,0.6653201200000001,-0.6664458799999999,-0.61429912,-0.07787132000000001,-0.30415828,-0.15462984,1.2309943600000002,-30.60586912,0.010739999999999972,-177.064374,0.11594782432,-0.677081828,0.034998989600000016,-0.1556176064,-0.307226106,0.1628623384
03:45:42,0.668728405,-0.6767360949999999,-0.61247028,-0.07500020500000001,-0.30311957,-0.15338870999999998,1.230289215,-30.57307928,0.023329374999999986,-177.066976,0.12007081858000002,-0.6877271195000001,0.03190458490000002,-0.15250560159999998,-0.306283199,0.16031608460000002
03:45:42,0.67213669,-0.6870263099999999,-0.61064144,-0.07212909,-0.30208086,-0.15214758,1.22958407,-30.54028944,0.03591875,-177.069578,0.12419381284,-0.698372411,0.02881018020000002,-0.1493935968,-0.305340292,0.1577698308
03:45:42,0.675544975,-0.697316525,-0.6088126,-0.06925797500000001,-0.30104215,-0.15090645,1.228878925,-30.5074996,0.04850812499999996,-177.07218,0.1283168071,-0.7090177025000001,0.025715775500000024,-0.14628159200000002,-0.304397385,0.155223577
03:45:42,0.67895326,-0.7076067399999999,-0.60698376,-0.06638686,-0.30000344,-0.14966532,1.22817378,-30.47470976,0.06109749999999997,-177.074782,0.13243980136,-0.7196629940000001,0.022621370800000012,-0.1431695872,-0.30345447799999997,0.1526773232
03:45:42,0.682361545,-0.717896955,-0.60515492,-0.06351574500000001,-0.29896473,-0.14842418999999998,1.2274686350000001,-30.44191992,0.07368687499999999,-177.077384,0.13656279562,-0.7303082855,0.019526966100000015,-0.1400575824,-0.302511571,0.15013106939999998
03:45:42,0.68576983,-0.72818717,-0.60332608,-0.060644630000000005,-0.29792602,-0.14718305999999998,1.2267634900000002,-30.40913008,0.08627624999999994,-177.079986,0.14068578988,-0.7409535770000001,0.016432561400000018,-0.13694557759999998,-0.301568664,0.1475848156
03:45:42,0.689178115,-0.7384773849999999,-0.60149724,-0.05777351500000001,-0.29688731,-0.14594193,1.226058345,-30.37634024,0.09886562499999996,-177.082588,0.14480878414,-0.7515988685000001,0.01333815670000002,-0.1338335728,-0.300625757,0.1450385618
03:45:42,0.6925864,-0.7487675999999999,-0.5996684,-0.054902400000000004,-0.2958486,-0.1447008,1.2253532,-30.3435504,0.11145499999999997,-177.08519,0.1489317784,-0.7622441600000001,0.010243752000000023,-0.130721568,-0.29968285,0.142492308
03:45:42,0.6959946850000001,-0.7590578149999999,-0.59783956,-0.05203128500000001,-0.29480989,-0.14345966999999998,1.224648055,-30.31076056,0.12404437499999998,-177.087792,0.15305477266,-0.7728894515,0.007149347300000025,-0.1276095632,-0.298739943,0.1399460542
03:45:42,0.69940297,-0.76934803,-0.59601072,-0.04916017,-0.29377118,-0.14221854,1.22394291,-30.27797072,0.13663375,-177.090394,0.15717776692000002,-0.783534743,0.004054942600000028,-0.12449755839999999,-0.297797036,0.1373998004
03:45:42,0.7028112550000001,-0.7796382449999999,-0.59418188,-0.04628905500000001,-0.29273247,-0.14097741,1.2232377650000001,-30.24518088,0.149223125,-177.092996,0.16130076118,-0.7941800345000001,0.0009605379000000303,-0.1213855536,-0.29685412899999997,0.13485354659999998
03:45:42,0.70621954,-0.7899284599999999,-0.59235304,-0.043417940000000016,-0.29169376,-0.13973628,1.2225326200000002,-30.21239104,0.16181249999999991,-177.095598,0.16542375544000001,-0.804825326,-0.002133866799999967,-0.11827354879999999,-0.295911222,0.1323072928
03:45:42,0.709627825,-0.800218675,-0.5905242,-0.04054682500000001,-0.29065505,-0.13849514999999998,1.221827475,-30.1796012,0.17440187499999993,-177.0982,0.1695467497,-0.8154706175,-0.005228271499999992,-0.115161544,-0.294968315,0.129761039
