Timestamp,linacce_x,linacce_y,linacce_z,gyro_x,gyro_y,gyro_z,X-magnetometer,Y-magnetometer,Z-magnetometer,Yaw, worldXAccel,worldYAccel,worldZAccel,worldXgyro,worldYgyro,worldZgyro
03:46:25,0.746694,-1.430467,-1.351397,0.378908,-0.117936,-0.197542,-6.040897,-29.926361,-9.553596,166.43333,-0.09213287,-1.5556481,1.0595795,0.22512239,-0.16017148,0.0021906346
03:46:25,0.742721505,-1.4190257099999999,-1.34095283,0.37737922500000004,-0.11901199999999999,-0.197472755,-6.013650070000001,-29.93095363,-9.54967583,166.49013925,-0.08981458015,-1.543631935,1.0512595315,0.22379273753,-0.1610179944,0.002776295077
03:46:25,0.7387490099999999,-1.4075844199999998,-1.33050866,0.37585045,-0.120088,-0.19740351,-5.98640314,-29.93554626,-9.545755660000001,166.5469485,-0.0874962903,-1.53161577,1.0429395629999998,0.22246308506,-0.1618645088,0.003361955554
03:46:25,0.734776515,-1.39614313,-1.32006449,0.374321675,-0.121164,-0.197334265,-5.95915621,-29.94013889,-9.54183549,166.60375775,-0.08517800045000001,-1.519599605,1.0346195944999999,0.22113343259,-0.1627110232,0.0039476160310000005
03:46:25,0.73080402,-1.38470184,-1.30962032,0.37279290000000004,-0.12224,-0.19726501999999999,-5.93190928,-29.94473152,-9.53791532,166.66056700000001,-0.08285971060000001,-1.5075834399999999,1.026299626,0.21980378012000001,-0.1635575376,0.004533276508
03:46:25,0.7268315249999999,-1.37326055,-1.2991761499999999,0.371264125,-0.123316,-0.197195775,-5.904662350000001,-29.94932415,-9.53399515,166.71737625,-0.08054142075000001,-1.495567275,1.0179796575,0.21847412765000002,-0.164404052,0.005118936984999999
03:46:25,0.72285903,-1.3618192599999999,-1.2887319799999999,0.36973535,-0.124392,-0.19712653,-5.87741542,-29.95391678,-9.53007498,166.77418550000002,-0.0782231309,-1.48355111,1.0096596889999998,0.21714447518000002,-0.1652505664,0.0057045974619999995
03:46:25,0.718886535,-1.3503779699999998,-1.27828781,0.36820657500000004,-0.125468,-0.197057285,-5.85016849,-29.95850941,-9.526154810000001,166.83099475,-0.07590484105,-1.471534945,1.0013397204999999,0.21581482271,-0.16609708080000002,0.006290257939
03:46:25,0.71491404,-1.33893668,-1.26784364,0.3666778,-0.126544,-0.19698804,-5.82292156,-29.96310204,-9.52223464,166.88780400000002,-0.0735865512,-1.45951878,0.9930197519999999,0.21448517024,-0.16694359520000002,0.006875918416
03:46:25,0.710941545,-1.32749539,-1.25739947,0.365149025,-0.12762,-0.196918795,-5.795674630000001,-29.96769467,-9.51831447,166.94461325,-0.07126826135,-1.4475026149999999,0.9846997834999999,0.21315551777,-0.16779010960000001,0.007461578893
03:46:25,0.70696905,-1.3160541,-1.2469553,0.36362025000000003,-0.128696,-0.19684954999999998,-5.7684277,-29.9722873,-9.514394300000001,167.00142250000002,-0.06894997150000001,-1.43548645,0.9763798149999999,0.2118258653,-0.168636624,0.008047239369999999
03:46:25,0.702996555,-1.3046128099999998,-1.23651113,0.36209147500000005,-0.129772,-0.196780305,-5.74118077,-29.97687993,-9.51047413,167.05823175,-0.06663168165000001,-1.423470285,0.9680598464999999,0.21049621283,-0.1694831384,0.008632899846999999
03:46:25,0.69902406,-1.29317152,-1.22606696,0.3605627,-0.130848,-0.19671106,-5.71393384,-29.98147256,-9.506553960000002,167.11504100000002,-0.06431339180000001,-1.41145412,0.9597398779999999,0.20916656036,-0.1703296528,0.009218560324
03:46:25,0.695051565,-1.28173023,-1.21562279,0.35903392500000003,-0.13192399999999999,-0.196641815,-5.686686910000001,-29.98606519,-9.50263379,167.17185025,-0.061995101950000006,-1.399437955,0.9514199094999999,0.20783690789,-0.1711761672,0.009804220801
03:46:25,0.69107907,-1.27028894,-1.2051786199999999,0.35750515000000005,-0.133,-0.19657257,-5.65943998,-29.99065782,-9.49871362,167.22865950000002,-0.059676812100000004,-1.3874217899999999,0.9430999409999999,0.20650725542,-0.1720226816,0.010389881277999998
03:46:25,0.6871065749999999,-1.2588476499999999,-1.19473445,0.355976375,-0.134076,-0.196503325,-5.63219305,-29.99525045,-9.494793450000001,167.28546875,-0.05735852225000001,-1.375405625,0.9347799724999999,0.20517760295,-0.172869196,0.010975541754999998
03:46:25,0.68313408,-1.2474063599999998,-1.18429028,0.35444760000000003,-0.135152,-0.19643407999999998,-5.60494612,-29.99984308,-9.49087328,167.34227800000002,-0.05504023240000001,-1.36338946,0.926460004,0.20384795048,-0.1737157104,0.011561202231999999
03:46:25,0.679161585,-1.23596507,-1.17384611,0.35291882500000005,-0.136228,-0.196364835,-5.577699190000001,-30.00443571,-9.48695311,167.39908725,-0.052721942550000005,-1.351373295,0.9181400354999999,0.20251829801000001,-0.1745622248,0.012146862708999999
03:46:25,0.6751890899999999,-1.22452378,-1.16340194,0.35139005,-0.137304,-0.19629559,-5.55045226,-30.00902834,-9.483032940000001,167.45589650000002,-0.05040365270000001,-1.33935713,0.909820067,0.20118864554000002,-0.1754087392,0.012732523186
03:46:25,0.671216595,-1.21308249,-1.15295777,0.349861275,-0.13838,-0.196226345,-5.52320533,-30.01362097,-9.47911277,167.51270575,-0.04808536285000001,-1.3273409649999999,0.9015000984999999,0.19985899307,-0.1762552536,0.013318183662999998
03:46:25,0.6672441,-1.2016411999999999,-1.1425136,0.34833250000000004,-0.139456,-0.1961571,-5.4959584,-30.0182136,-9.4751926,167.56951500000002,-0.045767073000000005,-1.3153248,0.89318013,0.1985293406,-0.177101768,0.013903844139999998
03:46:25,0.663271605,-1.19019991,-1.13206943,0.346803725,-0.140532,-0.196087855,-5.468711470000001,-30.02280623,-9.47127243,167.62632425,-0.04344878315000001,-1.303308635,0.8848601614999999,0.19719968813,-0.1779482824,0.014489504616999998
03:46:25,0.65929911,-1.17875862,-1.12162526,0.34527495,-0.141608,-0.19601860999999998,-5.44146454,-30.02739886,-9.46735226,167.6831335,-0.04113049330000001,-1.29129247,0.876540193,0.19587003566,-0.17879479680000002,0.015075165093999999
03:46:25,0.655326615,-1.16731733,-1.11118109,0.34374617500000004,-0.142684,-0.195949365,-5.41421761,-30.03199149,-9.463432090000001,167.73994275,-0.038812203450000006,-1.279276305,0.8682202244999999,0.19454038319,-0.17964131120000001,0.015660825571
03:46:25,0.6513541199999999,-1.1558760399999999,-1.1007369200000001,0.3422174,-0.14376,-0.19588012,-5.38697068,-30.03658412,-9.45951192,167.796752,-0.03649391360000001,-1.2672601399999999,0.859900256,0.19321073072,-0.1804878256,0.016246486048
03:46:25,0.647381625,-1.1444347499999998,-1.09029275,0.340688625,-0.144836,-0.195810875,-5.359723750000001,-30.041176749999998,-9.45559175,167.85356125,-0.03417562375000001,-1.255243975,0.8515802874999999,0.19188107825,-0.18133434,0.016832146524999998
03:46:25,0.64340913,-1.13299346,-1.07984858,0.33915985000000004,-0.145912,-0.19574163,-5.33247682,-30.04576938,-9.451671580000001,167.9103705,-0.03185733390000001,-1.24322781,0.8432603189999999,0.19055142578,-0.1821808544,0.017417807001999998
03:46:25,0.639436635,-1.12155217,-1.06940441,0.337631075,-0.146988,-0.195672385,-5.30522989,-30.05036201,-9.44775141,167.96717975,-0.029539044050000005,-1.231211645,0.8349403504999999,0.18922177331,-0.1830273688,0.018003467478999998
03:46:25,0.63546414,-1.11011088,-1.05896024,0.3361023,-0.148064,-0.19560314,-5.27798296,-30.05495464,-9.443831240000002,168.023989,-0.027220754200000002,-1.21919548,0.826620382,0.18789212084,-0.1838738832,0.018589127956
03:46:25,0.631491645,-1.0986695899999999,-1.04851607,0.33457352500000004,-0.14914,-0.19553389499999999,-5.2507360300000006,-30.05954727,-9.43991107,168.08079825000002,-0.024902464350000014,-1.2071793149999999,0.8183004134999999,0.18656246837,-0.1847203976,0.019174788433
03:46:25,0.62751915,-1.0872283,-1.0380719,0.33304475,-0.150216,-0.19546465,-5.2234891,-30.0641399,-9.4359909,168.1376075,-0.022584174500000012,-1.19516315,0.8099804449999999,0.18523281590000001,-0.185566912,0.01976044891
03:46:25,0.623546655,-1.07578701,-1.0276277299999999,0.331515975,-0.15129199999999998,-0.195395405,-5.19624217,-30.06873253,-9.432070730000001,168.19441675000002,-0.02026588465000001,-1.183146985,0.8016604764999999,0.18390316343000002,-0.1864134264,0.020346109387
03:46:25,0.61957416,-1.06434572,-1.0171835599999999,0.32998720000000004,-0.152368,-0.19532616,-5.16899524,-30.07332516,-9.42815056,168.251226,-0.017947594800000008,-1.17113082,0.793340508,0.18257351096000002,-0.1872599408,0.020931769864
03:46:25,0.615601665,-1.05290443,-1.00673939,0.328458425,-0.153444,-0.195256915,-5.1417483100000005,-30.07791779,-9.42423039,168.30803525000002,-0.015629304950000006,-1.159114655,0.7850205395,0.18124385849000002,-0.18810645520000002,0.021517430341
03:46:25,0.61162917,-1.0414631399999998,-0.9962952199999999,0.32692965,-0.15452,-0.19518767,-5.11450138,-30.08251042,-9.420310220000001,168.3648445,-0.013311015100000004,-1.1470984899999999,0.7767005709999999,0.17991420602,-0.18895296960000002,0.022103090818
03:46:25,0.607656675,-1.03002185,-0.98585105,0.32540087500000003,-0.155596,-0.19511842499999998,-5.08725445,-30.08710305,-9.41639005,168.42165375000002,-0.010992725250000002,-1.135082325,0.7683806025,0.17858455355,-0.18979948400000002,0.022688751295
03:46:25,0.60368418,-1.01858056,-0.97540688,0.3238721,-0.156672,-0.19504918,-5.06000752,-30.09169568,-9.41246988,168.478463,-0.008674435400000013,-1.12306616,0.760060634,0.17725490108,-0.19064599840000002,0.023274411772
03:46:25,0.5997116849999999,-1.00713927,-0.96496271,0.322343325,-0.157748,-0.194979935,-5.0327605900000005,-30.09628831,-9.40854971,168.53527225000002,-0.006356145550000011,-1.111049995,0.7517406655,0.17592524861,-0.19149251280000001,0.023860072249
03:46:25,0.59573919,-0.9956979799999999,-0.95451854,0.32081455000000003,-0.158824,-0.19491069,-5.00551366,-30.10088094,-9.40462954,168.5920815,-0.004037855700000009,-1.09903383,0.7434206969999999,0.17459559614,-0.1923390272,0.024445732725999997
03:46:25,0.591766695,-0.9842566899999999,-0.94407437,0.319285775,-0.1599,-0.194841445,-4.97826673,-30.10547357,-9.400709370000001,168.64889075000002,-0.0017195658500000072,-1.0870176649999999,0.7351007285,0.17326594367,-0.1931855416,0.025031393202999998
03:46:25,0.5877942,-0.9728154,-0.9336302,0.317757,-0.160976,-0.1947722,-4.9510198,-30.1100662,-9.3967892,168.7057,0.0005987239999999949,-1.0750015,0.72678076,0.1719362912,-0.194032056,0.025617053679999998
03:46:25,0.583821705,-0.96137411,-0.92318603,0.31622822500000003,-0.162052,-0.19470295499999998,-4.9237728700000005,-30.11465883,-9.39286903,168.76250925,0.002917013849999997,-1.062985335,0.7184607915,0.17060663873,-0.1948785704,0.026202714157
03:46:25,0.57984921,-0.9499328199999999,-0.91274186,0.31469945,-0.163128,-0.19463371,-4.89652594,-30.11925146,-9.388948860000001,168.8193185,0.005235303699999985,-1.0509691700000001,0.7101408229999999,0.16927698626,-0.1957250848,0.026788374634
03:46:25,0.5758767149999999,-0.93849153,-0.9022976899999999,0.313170675,-0.164204,-0.194564465,-4.86927901,-30.12384409,-9.38502869,168.87612775,0.007553593549999987,-1.038953005,0.7018208545,0.16794733379000001,-0.1965715992,0.027374035111
03:46:25,0.57190422,-0.9270502399999999,-0.89185352,0.3116419,-0.16527999999999998,-0.19449522,-4.84203208,-30.12843672,-9.381108520000002,168.932937,0.00987188339999999,-1.0269368399999999,0.693500886,0.16661768132,-0.1974181136,0.027959695588
03:46:25,0.567931725,-0.91560895,-0.88140935,0.310113125,-0.166356,-0.194425975,-4.8147851500000005,-30.13302935,-9.37718835,168.98974625,0.012190173249999992,-1.014920675,0.6851809175,0.16528802885,-0.198264628,0.028545356065
03:46:25,0.56395923,-0.9041676599999999,-0.87096518,0.30858435,-0.167432,-0.19435673,-4.78753822,-30.13762198,-9.37326818,169.0465555,0.014508463099999994,-1.00290451,0.6768609489999999,0.16395837638,-0.1991111424,0.029131016542
03:46:25,0.559986735,-0.89272637,-0.86052101,0.307055575,-0.168508,-0.19428748499999998,-4.76029129,-30.14221461,-9.369348010000001,169.10336475,0.016826752949999996,-0.990888345,0.6685409805,0.16262872391,-0.1999576568,0.029716677019
03:46:25,0.55601424,-0.8812850799999999,-0.8500768400000001,0.3055268,-0.169584,-0.19421824,-4.73304436,-30.14680724,-9.36542784,169.160174,0.019145042799999984,-0.97887218,0.6602210119999999,0.16129907144,-0.2008041712,0.030302337496
03:46:25,0.552041745,-0.8698437899999999,-0.83963267,0.303998025,-0.17065999999999998,-0.194148995,-4.7057974300000005,-30.15139987,-9.36150767,169.21698325,0.021463332649999986,-0.966856015,0.6519010434999999,0.15996941897,-0.20165068560000002,0.030887997972999997
03:46:25,0.54806925,-0.8584025,-0.8291885,0.30246925,-0.171736,-0.19407975,-4.6785505,-30.1559925,-9.357587500000001,169.2737925,0.023781622499999988,-0.9548398499999999,0.643581075,0.1586397665,-0.20249720000000002,0.03147365845
03:46:25,0.544096755,-0.8469612099999999,-0.81874433,0.30094047500000004,-0.172812,-0.194010505,-4.65130357,-30.16058513,-9.35366733,169.33060175,0.02609991234999999,-0.9428236849999999,0.6352611065,0.15731011403,-0.20334371440000001,0.032059318926999994
03:46:25,0.54012426,-0.83551992,-0.80830016,0.2994117,-0.173888,-0.19394126,-4.62405664,-30.16517776,-9.34974716,169.38741100000001,0.028418202199999992,-0.93080752,0.626941138,0.15598046156,-0.2041902288,0.032644979404
03:46:25,0.5361517650000001,-0.8240786299999999,-0.79785599,0.297882925,-0.174964,-0.193872015,-4.5968097100000005,-30.16977039,-9.34582699,169.44422025,0.030736492049999994,-0.918791355,0.6186211694999999,0.15465080909,-0.2050367432,0.033230639880999994
03:46:25,0.53217927,-0.81263734,-0.78741182,0.29635415000000004,-0.17604,-0.19380276999999999,-4.56956278,-30.17436302,-9.34190682,169.50102950000002,0.033054781899999996,-0.90677519,0.610301201,0.15332115662,-0.2058832576,0.03381630035799999
03:46:25,0.528206775,-0.8011960499999999,-0.77696765,0.29482537500000006,-0.177116,-0.193733525,-4.54231585,-30.17895565,-9.337986650000001,169.55783875,0.035373071749999985,-0.8947590249999999,0.6019812325,0.15199150415,-0.206729772,0.034401960834999995
03:46:25,0.5242342799999999,-0.7897547599999999,-0.76652348,0.2932966,-0.178192,-0.19366428,-4.51506892,-30.18354828,-9.33406648,169.61464800000002,0.0376913616,-0.8827428599999999,0.593661264,0.15066185168000001,-0.2075762864,0.03498762131199999
03:46:25,0.520261785,-0.77831347,-0.7560793100000001,0.29176782500000004,-0.17926799999999998,-0.193595035,-4.4878219900000005,-30.18814091,-9.33014631,169.67145725,0.04000965144999999,-0.870726695,0.5853412954999999,0.14933219921000002,-0.2084228008,0.035573281788999996
03:46:25,0.51628929,-0.7668721799999999,-0.74563514,0.29023905000000005,-0.180344,-0.19352579,-4.46057506,-30.19273354,-9.326226140000001,169.72826650000002,0.04232794129999998,-0.85871053,0.577021327,0.14800254674000002,-0.2092693152,0.03615894226599999
03:46:25,0.512316795,-0.75543089,-0.73519097,0.288710275,-0.18142,-0.193456545,-4.43332813,-30.19732617,-9.32230597,169.78507575,0.04464623114999999,-0.846694365,0.5687013585,0.14667289427000002,-0.21011582960000003,0.036744602742999996
03:46:25,0.5083443,-0.7439895999999999,-0.7247468,0.28718150000000003,-0.182496,-0.19338729999999998,-4.4060812,-30.2019188,-9.318385800000001,169.841885,0.04696452099999998,-0.8346781999999999,0.56038139,0.14534324180000002,-0.21096234400000002,0.03733026321999999
03:46:25,0.504371805,-0.73254831,-0.71430263,0.28565272500000005,-0.183572,-0.193318055,-4.3788342700000005,-30.20651143,-9.31446563,169.89869425,0.04928281085,-0.8226620349999999,0.5520614215,0.14401358933,-0.21180885840000002,0.037915923697
03:46:25,0.5003993099999999,-0.7211070199999999,-0.70385846,0.28412395,-0.18464799999999998,-0.19324881,-4.35158734,-30.21110406,-9.31054546,169.9555035,0.051601100699999985,-0.81064587,0.543741453,0.14268393686,-0.21265537280000002,0.03850158417399999
03:46:25,0.496426815,-0.70966573,-0.69341429,0.28259517500000003,-0.185724,-0.193179565,-4.32434041,-30.21569669,-9.306625290000001,170.01231275,0.05391939055,-0.798629705,0.5354214845,0.14135428439,-0.21350188720000002,0.039087244651
03:46:25,0.49245432,-0.69822444,-0.68297012,0.28106640000000005,-0.1868,-0.19311032,-4.29709348,-30.22028932,-9.30270512,170.069122,0.05623768039999999,-0.7866135399999999,0.527101516,0.14002463192,-0.21434840160000002,0.039672905127999994
03:46:25,0.488481825,-0.6867831499999999,-0.67252595,0.279537625,-0.187876,-0.193041075,-4.2698465500000005,-30.22488195,-9.29878495,170.12593125,0.05855597024999998,-0.7745973749999999,0.5187815474999999,0.13869497945,-0.215194916,0.04025856560499999
03:46:25,0.48450933,-0.67534186,-0.6620817800000001,0.27800885000000003,-0.188952,-0.19297182999999998,-4.24259962,-30.22947458,-9.294864780000001,170.1827405,0.060874260099999994,-0.7625812099999999,0.510461579,0.13736532698,-0.2160414304,0.040844226081999994
03:46:25,0.480536835,-0.6639005699999999,-0.65163761,0.27648007500000005,-0.19002799999999997,-0.192902585,-4.21535269,-30.23406721,-9.29094461,170.23954975,0.06319254994999998,-0.750565045,0.5021416105,0.13603567451,-0.2168879448,0.04142988655899999
03:46:25,0.47656434000000003,-0.65245928,-0.64119344,0.2749513,-0.191104,-0.19283334,-4.18810576,-30.23865984,-9.28702444,170.296359,0.0655108398,-0.73854888,0.493821642,0.13470602203999998,-0.2177344592,0.042015547035999995
03:46:25,0.472591845,-0.6410179899999999,-0.63074927,0.273422525,-0.19218,-0.192764095,-4.1608588300000005,-30.24325247,-9.28310427,170.35316825,0.06782912964999999,-0.7265327149999999,0.48550167349999995,0.13337636957,-0.2185809736,0.04260120751299999
03:46:25,0.46861935,-0.6295767,-0.6203051,0.27189375000000005,-0.19325599999999998,-0.19269485,-4.1336119,-30.2478451,-9.2791841,170.4099775,0.0701474195,-0.7145165499999999,0.477181705,0.1320467171,-0.219427488,0.043186867989999995
03:46:25,0.464646855,-0.6181354099999999,-0.60986093,0.270364975,-0.194332,-0.192625605,-4.10636497,-30.25243773,-9.275263930000001,170.46678675,0.07246570934999999,-0.7025003849999999,0.46886173649999996,0.13071706463,-0.2202740024,0.04377252846699999
03:46:25,0.46067436,-0.60669412,-0.59941676,0.2688362,-0.195408,-0.19255635999999998,-4.07911804,-30.25703036,-9.27134376,170.523596,0.07478399919999998,-0.69048422,0.460541768,0.12938741216,-0.2211205168,0.044358188943999996
03:46:25,0.456701865,-0.59525283,-0.58897259,0.26730742500000004,-0.196484,-0.192487115,-4.05187111,-30.26162299,-9.26742359,170.58040525,0.07710228905,-0.678468055,0.45222179949999997,0.12805775969,-0.2219670312,0.04494384942099999
03:46:25,0.45272937,-0.5838115399999999,-0.57852842,0.26577865,-0.19756,-0.19241787,-4.02462418,-30.26621562,-9.263503420000001,170.6372145,0.07942057889999998,-0.6664518899999999,0.443901831,0.12672810722,-0.2228135456,0.045529509898
03:46:25,0.448756875,-0.57237025,-0.5680842500000001,0.264249875,-0.19863599999999998,-0.192348625,-3.99737725,-30.27080825,-9.25958325,170.69402375,0.08173886875,-0.6544357249999999,0.43558186249999997,0.12539845475,-0.22366006,0.04611517037499999
03:46:25,0.44478438,-0.5609289599999999,-0.55764008,0.26272110000000004,-0.199712,-0.19227938,-3.97013032,-30.27540088,-9.255663080000001,170.750833,0.08405715859999999,-0.6424195599999999,0.42726189400000003,0.12406880228,-0.2245065744,0.04670083085199999
03:46:25,0.440811885,-0.54948767,-0.54719591,0.261192325,-0.200788,-0.192210135,-3.94288339,-30.27999351,-9.25174291,170.80764225000001,0.08637544844999998,-0.630403395,0.4189419255,0.12273914981,-0.2253530888,0.047286491328999994
03:46:25,0.43683939,-0.5380463799999999,-0.53675174,0.25966355,-0.201864,-0.19214089,-3.91563646,-30.28458614,-9.24782274,170.8644515,0.08869373829999999,-0.61838723,0.41062195700000004,0.12140949734,-0.22619960320000002,0.04787215180599999
03:46:25,0.43286689500000003,-0.52660509,-0.5263075700000001,0.25813477500000004,-0.20294,-0.19207164499999999,-3.88838953,-30.28917877,-9.243902570000001,170.92126075000002,0.09101202814999998,-0.6063710649999999,0.4023019885,0.12007984487000001,-0.2270461176,0.048457812282999994
03:46:25,0.4288944,-0.5151638,-0.5158634,0.256606,-0.20401599999999998,-0.1920024,-3.8611426,-30.2937714,-9.2399824,170.97807,0.093330318,-0.5943548999999999,0.39398202000000004,0.11875019240000001,-0.227892632,0.04904347275999999
03:46:25,0.424921905,-0.5037225099999999,-0.50541923,0.255077225,-0.205092,-0.191933155,-3.83389567,-30.29836403,-9.23606223,171.03487925,0.09564860784999998,-0.5823387349999999,0.3856620515,0.11742053993,-0.2287391464,0.049629133236999995
03:46:25,0.42094941,-0.49228121999999996,-0.49497506,0.25354845000000004,-0.206168,-0.19186391,-3.80664874,-30.30295666,-9.232142060000001,171.0916885,0.0979668977,-0.57032257,0.37734208300000005,0.11609088746,-0.2295856608,0.05021479371399999
03:46:25,0.416976915,-0.4808399299999999,-0.48453089000000005,0.252019675,-0.20724399999999998,-0.191794665,-3.77940181,-30.30754929,-9.22822189,171.14849775,0.10028518754999999,-0.558306405,0.3690221145,0.11476123499,-0.2304321752,0.050800454190999995
03:46:25,0.41300442000000004,-0.46939864,-0.4740867200000001,0.2504909,-0.20832,-0.19172542,-3.75215488,-30.31214192,-9.22430172,171.205307,0.10260347739999998,-0.54629024,0.36070214600000006,0.11343158252,-0.2312786896,0.05138611466799999
03:46:25,0.409031925,-0.45795734999999993,-0.46364255,0.24896212500000003,-0.209396,-0.19165617499999998,-3.72490795,-30.31673455,-9.22038155,171.26211625,0.10492176724999999,-0.5342740749999999,0.3523821775,0.11210193005,-0.23212520400000003,0.051971775144999996
03:46:25,0.40505943,-0.44651606,-0.45319838,0.24743335000000002,-0.210472,-0.19158693,-3.69766102,-30.32132718,-9.21646138,171.3189255,0.10724005709999998,-0.52225791,0.34406220900000006,0.11077227758000001,-0.23297171840000003,0.05255743562199999
03:46:25,0.40108693500000003,-0.43507476999999994,-0.44275421000000004,0.24590457500000001,-0.21154799999999999,-0.191517685,-3.67041409,-30.32591981,-9.212541210000001,171.37573475,0.10955834695,-0.5102417449999999,0.3357422405,0.10944262511,-0.23381823280000003,0.05314309609899999
03:46:25,0.39711444,-0.4236334799999999,-0.43231004000000006,0.24437580000000003,-0.21262399999999998,-0.19144844,-3.64316716,-30.33051244,-9.20862104,171.432544,0.11187663679999998,-0.49822557999999995,0.32742227200000007,0.10811297264,-0.23466474720000002,0.05372875657599999
03:46:25,0.393141945,-0.41219218999999985,-0.4218658700000001,0.24284702500000002,-0.2137,-0.191379195,-3.61592023,-30.33510507,-9.20470087,171.48935325,0.11419492665,-0.48620941500000003,0.3191023035,0.10678332017,-0.23551126160000002,0.05431441705299999
03:46:25,0.38916945000000003,-0.4007509,-0.4114217,0.24131825,-0.214776,-0.19130995,-3.5886733,-30.3396977,-9.200780700000001,171.5461625,0.11651321649999999,-0.4741932499999999,0.3107823350000001,0.1054536677,-0.23635777600000002,0.054900077529999994
03:46:25,0.385196955,-0.38930961,-0.40097753,0.23978947500000003,-0.215852,-0.19124070499999998,-3.56142637,-30.34429033,-9.19686053,171.60297175,0.11883150634999998,-0.462177085,0.3024623665,0.10412401523,-0.23720429040000002,0.05548573800699999
03:46:25,0.38122446,-0.3778683199999999,-0.39053336000000005,0.23826070000000002,-0.216928,-0.19117146,-3.53417944,-30.34888296,-9.192940360000001,171.659781,0.12114979619999999,-0.45016091999999985,0.2941423980000001,0.10279436276000001,-0.23805080480000002,0.056071398483999994
03:46:25,0.377251965,-0.3664270299999999,-0.3800891900000001,0.236731925,-0.21800399999999998,-0.191102215,-3.50693251,-30.35347559,-9.18902019,171.71659025,0.12346808604999998,-0.43814475499999994,0.28582242950000003,0.10146471029,-0.2388973192,0.05665705896099999
03:46:25,0.37327947,-0.35498574000000005,-0.36964502,0.23520315000000003,-0.21908,-0.19103297,-3.47968558,-30.35806822,-9.18510002,171.7733995,0.1257863759,-0.42612859000000003,0.2775024610000001,0.10013505782,-0.2397438336,0.057242719437999995
03:46:25,0.36930697500000004,-0.34354445,-0.35920085,0.23367437500000002,-0.220156,-0.190963725,-3.45243865,-30.36266085,-9.181179850000001,171.83020875,0.12810466574999999,-0.4141124249999999,0.26918249250000004,0.09880540535000001,-0.240590348,0.05782837991499999
03:46:25,0.36533448,-0.33210315999999995,-0.34875668000000015,0.2321456,-0.22123199999999998,-0.19089448,-3.42519172,-30.36725348,-9.17725968,171.887018,0.13042295559999997,-0.40209626,0.260862524,0.09747575287999999,-0.2414368624,0.058414040391999995
03:46:25,0.361361985,-0.3206618699999999,-0.33831250999999996,0.23061682500000003,-0.222308,-0.19082523499999998,-3.39794479,-30.37184611,-9.17333951,171.94382725,0.13274124545,-0.39008009499999985,0.25254255550000004,0.09614610040999999,-0.2422833768,0.05899970086899999
03:46:25,0.35738949000000003,-0.30922057999999986,-0.32786834,0.22908805000000002,-0.22338399999999997,-0.19075599,-3.37069786,-30.37643874,-9.169419340000001,172.0006365,0.13505953529999998,-0.37806392999999994,0.244222587,0.09481644793999999,-0.2431298912,0.05958536134599999
03:46:25,0.353416995,-0.29777929000000003,-0.31742417,0.22755927500000003,-0.22446,-0.190686745,-3.34345093,-30.38103137,-9.16549917,172.05744575,0.13737782515,-0.366047765,0.23590261850000005,0.09348679547,-0.2439764056,0.06017102182299999
03:46:25,0.34944450000000005,-0.286338,-0.30698000000000003,0.22603050000000002,-0.225536,-0.1906175,-3.316204,-30.385624,-9.161579,172.114255,0.13969611499999998,-0.3540315999999999,0.22758265,0.092157143,-0.24482292,0.06075668229999999
03:46:25,0.345472005,-0.27489670999999993,-0.29653583000000006,0.224501725,-0.22661199999999998,-0.190548255,-3.28895707,-30.39021663,-9.15765883,172.17106425,0.14201440485,-0.342015435,0.21926268150000006,0.09082749053,-0.2456694344,0.06134234277699999
03:46:25,0.34149951,-0.2634554199999999,-0.2860916600000001,0.22297295000000003,-0.227688,-0.19047901,-3.26171014,-30.39480926,-9.15373866,172.2278735,0.14433269469999999,-0.32999926999999984,0.210942713,0.08949783806,-0.2465159488,0.06192800325399999
03:46:25,0.33752701500000004,-0.25201413000000006,-0.2756474900000001,0.22144417500000002,-0.228764,-0.190409765,-3.23446321,-30.39940189,-9.149818490000001,172.28468275,0.14665098454999997,-0.31798310499999993,0.20262274450000006,0.08816818559,-0.2473624632,0.062513663731
03:46:25,0.33355452,-0.24057284,-0.26520332000000013,0.2199154,-0.22984,-0.19034051999999999,-3.20721628,-30.40399452,-9.14589832,172.341492,0.1489692744,-0.30596694,0.194302776,0.08683853312,-0.2482089776,0.06309932420799999
03:46:25,0.329582025,-0.22913154999999996,-0.25475915000000016,0.21838662500000003,-0.230916,-0.190271275,-3.17996935,-30.40858715,-9.14197815,172.39830125,0.15128756424999998,-0.2939507749999999,0.18598280750000007,0.08550888065000001,-0.24905549200000002,0.063684984685
03:46:25,0.32560953000000004,-0.2176902599999999,-0.24431497999999996,0.21685785000000002,-0.23199199999999998,-0.19020203,-3.15272242,-30.41317978,-9.138057980000001,172.4551105,0.1536058541,-0.28193461,0.17766283900000002,0.08417922818000001,-0.24990200640000002,0.064270645162
03:46:25,0.321637035,-0.20624896999999986,-0.23387080999999998,0.215329075,-0.233068,-0.190132785,-3.12547549,-30.41777241,-9.13413781,172.51191975,0.15592414394999998,-0.26991844499999984,0.16934287050000008,0.08284957571000001,-0.2507485208,0.064856305639
03:46:25,0.31766454,-0.19480768000000004,-0.22342664,0.21380030000000003,-0.234144,-0.19006354,-3.09822856,-30.42236504,-9.130217640000001,172.568729,0.1582424338,-0.25790227999999993,0.16102290200000002,0.08151992324000001,-0.25159503520000004,0.06544196611599999
03:46:25,0.31369204500000003,-0.18336639,-0.21298247000000003,0.21227152500000002,-0.23521999999999998,-0.189994295,-3.07098163,-30.42695767,-9.12629747,172.62553825,0.16056072365,-0.24588611500000002,0.15270293350000008,0.08019027076999999,-0.2524415496,0.066027626593
03:46:25,0.30971955,-0.17192509999999994,-0.20253830000000006,0.21074275000000003,-0.236296,-0.18992504999999998,-3.0437347,-30.4315503,-9.1223773,172.6823475,0.16287901349999998,-0.23386994999999988,0.14438296500000003,0.07886061829999999,-0.25328806400000003,0.06661328707
03:46:25,0.30574705500000005,-0.1604838099999999,-0.19209413000000009,0.20921397500000002,-0.23737199999999997,-0.189855805,-3.01648777,-30.43614293,-9.118457130000001,172.73915675,0.16519730334999996,-0.22185378499999997,0.1360629965000001,0.07753096582999999,-0.2541345784,0.067198947547
03:46:25,0.30177456,-0.14904251999999985,-0.1816499600000001,0.20768520000000001,-0.238448,-0.18978656,-2.98924084,-30.44073556,-9.11453696,172.795966,0.1675155932,-0.20983761999999984,0.12774302800000004,0.07620131336,-0.25498109280000003,0.06778460802399999
03:46:25,0.297802065,-0.13760123000000002,-0.17120579000000014,0.20615642500000003,-0.239524,-0.189717315,-2.96199391,-30.44532819,-9.11061679,172.85277525,0.16983388305,-0.19782145499999992,0.1194230595000001,0.07487166089,-0.25582760720000003,0.068370268501
03:46:25,0.29382957000000004,-0.12615993999999997,-0.16076162000000016,0.20462765000000002,-0.24059999999999998,-0.18964807,-2.93474698,-30.44992082,-9.106696620000001,172.9095845,0.17215217289999998,-0.18580529,0.11110309100000004,0.07354200842,-0.2566741216,0.068955928978
03:46:25,0.289857075,-0.11471864999999992,-0.15031744999999996,0.203098875,-0.241676,-0.189578825,-2.90750005,-30.45451345,-9.10277645,172.96639375,0.17447046274999997,-0.17378912499999988,0.1027831225000001,0.07221235595,-0.257520636,0.069541589455
03:46:25,0.28588458000000005,-0.10327735999999987,-0.13987328,0.20157010000000003,-0.242752,-0.18950957999999998,-2.88025312,-30.45910608,-9.09885628,173.023203,0.17678875259999996,-0.16177295999999997,0.09446315400000005,0.07088270348,-0.2583671504,0.070127249932
03:46:25,0.28191208500000003,-0.09183607000000005,-0.12942911,0.20004132500000002,-0.243828,-0.189440335,-2.85300619,-30.46369871,-9.09493611,173.08001225,0.17910704245,-0.14975679499999983,0.08614318550000011,0.06955305101,-0.2592136648,0.070712910409
03:46:25,0.27793959,-0.08039478,-0.11898494000000004,0.19851255,-0.244904,-0.18937109,-2.82575926,-30.46829134,-9.09101594,173.1368215,0.1814253323,-0.13774062999999992,0.07782321700000006,0.06822339854000001,-0.2600601792,0.071298570886
03:46:25,0.27396709500000005,-0.06895348999999995,-0.10854077000000006,0.19698377500000003,-0.24597999999999998,-0.189301845,-2.79851233,-30.47288397,-9.087095770000001,173.19363075,0.18374362214999998,-0.125724465,0.06950324850000011,0.06689374607000001,-0.2609066936,0.071884231363
03:46:25,0.26999460000000003,-0.0575121999999999,-0.09809660000000009,0.19545500000000002,-0.247056,-0.1892326,-2.7712654,-30.4774766,-9.0831756,173.25044,0.18606191199999997,-0.11370829999999987,0.06118328000000006,0.06556409360000001,-0.261753208,0.07246989184
03:46:25,0.266022105,-0.046070909999999854,-0.08765243000000011,0.193926225,-0.24813199999999996,-0.189163355,-2.74401847,-30.48206923,-9.07925543,173.30724924999998,0.18838020185,-0.10169213499999996,0.05286331150000012,0.06423444113000001,-0.2625997224,0.07305555231699999
03:46:25,0.26204961000000004,-0.03462962000000003,-0.07720826000000014,0.19239745000000003,-0.24920799999999999,-0.18909410999999998,-2.71677154,-30.486661859999998,-9.075335260000001,173.3640585,0.1906984917,-0.08967596999999983,0.04454334300000018,0.06290478865999999,-0.2634462368,0.073641212794
03:46:25,0.258077115,-0.02318832999999998,-0.06676409000000016,0.19086867500000002,-0.250284,-0.189024865,-2.68952461,-30.49125449,-9.07141509,173.42086774999999,0.19301678155,-0.07765980499999992,0.036223374500000016,0.06157513618999999,-0.2642927512,0.074226873271
03:46:25,0.25410462,-0.011747039999999931,-0.05631991999999997,0.18933990000000003,-0.25136,-0.18895562,-2.66227768,-30.49584712,-9.067494920000001,173.477677,0.19533507139999998,-0.06564364,0.027903406000000075,0.06024548371999999,-0.2651392656,0.074812533748
03:46:25,0.25013212500000004,-0.0003057499999998825,-0.04587574999999999,0.18781112500000002,-0.252436,-0.188886375,-2.63503075,-30.500439749999998,-9.06357475,173.53448625,0.19765336124999996,-0.05362747499999987,0.019583437500000134,0.058915831249999995,-0.26598578,0.07539819422499999
03:46:25,0.24615963000000007,0.011135539999999944,-0.03543158000000002,0.18628235,-0.253512,-0.18881713,-2.60778382,-30.50503238,-9.05965458,173.5912955,0.1999716511,-0.04161130999999996,0.011263469000000192,0.05758617878,-0.2668322944,0.075983854702
03:46:25,0.242187135,0.022576829999999992,-0.024987410000000043,0.18475357500000003,-0.254588,-0.188747885,-2.58053689,-30.50962501,-9.055734410000001,173.64810475,0.20228994095,-0.029595144999999823,0.002943500500000029,0.05625652631,-0.2676788088,0.076569515179
03:46:25,0.23821464000000003,0.03401812000000004,-0.014543240000000068,0.18322480000000002,-0.255664,-0.18867864,-2.55328996,-30.51421764,-9.05181424,173.704914,0.20460823079999998,-0.01757897999999991,-0.005376467999999912,0.05492687384,-0.2685253232,0.077155175656
03:46:25,0.23424214500000007,0.04545941000000009,-0.0040990700000000935,0.181696025,-0.25673999999999997,-0.18860939499999999,-2.52604303,-30.51881027,-9.04789407,173.76172325,0.20692652064999997,-0.005562814999999999,-0.013696436499999853,0.05359722137,-0.2693718376,0.077740836133
03:46:25,0.23026965,0.05690070000000014,0.006345099999999881,0.18016725000000003,-0.257816,-0.18854015,-2.4987961,-30.5234029,-9.043973900000001,173.8185325,0.20924481049999996,0.006453350000000135,-0.022016405000000017,0.052267568900000005,-0.270218352,0.07832649660999999
03:46:25,0.22629715500000003,0.06834198999999996,0.016789269999999856,0.17863847500000002,-0.258892,-0.188470905,-2.47154917,-30.52799553,-9.04005373,173.87534175,0.21156310035,0.018469515000000047,-0.030336373499999958,0.05093791643000001,-0.2710648664,0.078912157087
03:46:25,0.22232466000000006,0.07978328000000001,0.02723343999999983,0.1771097,-0.259968,-0.18840166,-2.44430224,-30.53258816,-9.03613356,173.932151,0.2138813902,0.03048568000000018,-0.0386563419999999,0.04960826396000001,-0.2719113808,0.079497817564
03:46:25,0.218352165,0.09122457000000006,0.03767761000000003,0.17558092500000003,-0.261044,-0.188332415,-2.41705531,-30.53718079,-9.03221339,173.98896025,0.21619968004999998,0.042501845000000094,-0.04697631049999984,0.04827861149000001,-0.27275789520000004,0.080083478041
03:46:25,0.21437967000000002,0.10266586000000011,0.04812178,0.17405215000000002,-0.26211999999999996,-0.18826317,-2.38980838,-30.54177342,-9.02829322,174.0457695,0.21851796989999997,0.054518010000000006,-0.055296279000000004,0.046948959020000014,-0.2736044096,0.08066913851799999
03:46:25,0.21040717500000006,0.11410714999999994,0.05856594999999998,0.17252337500000003,-0.263196,-0.18819392499999998,-2.36256145,-30.54636605,-9.024373050000001,174.10257875,0.22083625974999996,0.06653417500000014,-0.06361624749999994,0.04561930654999999,-0.27445092400000004,0.081254798995
03:46:25,0.2064346800000001,0.12554843999999998,0.06901011999999995,0.17099460000000002,-0.264272,-0.18812468,-2.33531452,-30.55095868,-9.02045288,174.159388,0.2231545496,0.07855034000000005,-0.07193621599999989,0.04428965407999999,-0.2752974384,0.081840459472
03:46:25,0.20246218500000002,0.13698973000000003,0.07945428999999993,0.16946582500000001,-0.265348,-0.188055435,-2.30806759,-30.55555131,-9.01653271,174.21619725,0.22547283945,0.09056650500000019,-0.08025618449999983,0.04296000160999999,-0.27614395280000004,0.082426119949
03:46:25,0.19848969000000005,0.14843102000000008,0.0898984599999999,0.16793705000000003,-0.266424,-0.18798619,-2.28082066,-30.56014394,-9.012612540000001,174.2730065,0.22779112929999998,0.1025826700000001,-0.08857615299999999,0.041630349139999995,-0.2769904672,0.08301178042599999
03:46:25,0.1945171950000001,0.15987231000000013,0.10034262999999988,0.16640827500000002,-0.26749999999999996,-0.187916945,-2.25357373,-30.56473657,-9.00869237,174.32981575,0.23010941914999997,0.11459883500000001,-0.09689612149999993,0.04030069667,-0.27783698160000003,0.08359744090299999
03:46:25,0.1905447,0.17131359999999995,0.11078679999999985,0.1648795,-0.268576,-0.1878477,-2.2263268,-30.5693292,-9.004772200000001,174.38662499999998,0.232427709,0.12661500000000014,-0.10521608999999987,0.0389710442,-0.27868349600000003,0.08418310138
03:46:25,0.18657220500000005,0.18275489,0.12123096999999983,0.16335072500000003,-0.269652,-0.18777845499999998,-2.19907987,-30.57392183,-9.00085203,174.44343425,0.23474599885,0.13863116500000006,-0.11353605849999981,0.03764139173,-0.27953001040000003,0.084768761857
03:46:25,0.18259971000000008,0.19419618000000005,0.13167514000000002,0.16182195000000002,-0.27072799999999997,-0.18770921,-2.17183294,-30.57851446,-8.99693186,174.50024349999998,0.2370642887,0.1506473300000002,-0.12185602699999998,0.03631173926,-0.2803765248,0.085354422334
03:46:25,0.178627215,0.2056374700000001,0.14211931,0.160293175,-0.271804,-0.187639965,-2.14458601,-30.58310709,-8.993011690000001,174.55705275,0.23938257854999997,0.1626634950000001,-0.13017599549999992,0.034982086790000005,-0.2812230392,0.08594008281099999
03:46:25,0.17465472000000004,0.21707875999999993,0.15256347999999997,0.15876440000000003,-0.27288,-0.18757072,-2.11733908,-30.58769972,-8.98909152,174.61386199999998,0.24170086839999996,0.17467966000000001,-0.13849596399999986,0.03365243432000001,-0.2820695536,0.086525743288
03:46:25,0.17068222500000008,0.22852004999999997,0.16300764999999995,0.15723562500000002,-0.273956,-0.187501475,-2.09009215,-30.59229235,-8.98517135,174.67067125,0.24401915825,0.18669582500000015,-0.1468159324999998,0.03232278185000001,-0.282916068,0.087111403765
03:46:25,0.16670973,0.23996134000000002,0.17345181999999992,0.15570685,-0.275032,-0.18743223,-2.06284522,-30.59688498,-8.981251180000001,174.72748049999998,0.2463374481,0.19871199000000006,-0.15513590099999996,0.030993129380000012,-0.2837625824,0.087697064242
03:46:25,0.16273723500000004,0.25140263000000007,0.1838959899999999,0.15417807500000003,-0.27610799999999996,-0.18736298499999998,-2.0355982900000003,-30.60147761,-8.97733101,174.78428975,0.24865573794999998,0.2107281550000002,-0.1634558694999999,0.029663476910000014,-0.2846090968,0.08828272471899999
03:46:25,0.15876474000000007,0.2628439200000001,0.19434015999999987,0.15264930000000002,-0.277184,-0.18729374,-2.00835136,-30.60607024,-8.97341084,174.84109899999999,0.2509740278,0.2227443200000001,-0.17177583799999985,0.02833382443999999,-0.2854556112,0.088868385196
03:46:25,0.154792245,0.27428520999999995,0.20478432999999985,0.15112052500000003,-0.27826,-0.187224495,-1.9811044299999994,-30.61066287,-8.96949067,174.89790825,0.25329231764999993,0.23476048500000002,-0.1800958064999998,0.02700417196999999,-0.2863021256,0.089454045673
03:46:25,0.15081975000000003,0.2857265,0.21522849999999982,0.14959175000000002,-0.279336,-0.18715525,-1.9538574999999998,-30.6152555,-8.9655705,174.9547175,0.2556106075,0.24677665000000015,-0.18841577499999995,0.025674519499999993,-0.28714864,0.09003970615
03:46:25,0.14684725500000007,0.29716779000000004,0.22567267000000002,0.148062975,-0.280412,-0.187086005,-1.9266105700000002,-30.61984813,-8.961650330000001,175.01152675,0.25792889735,0.25879281500000006,-0.1967357434999999,0.024344867029999995,-0.2879951544,0.09062536662699999
03:46:25,0.14287476,0.3086090800000001,0.23611684,0.14653420000000003,-0.28148799999999996,-0.18701676,-1.8993636399999998,-30.62444076,-8.95773016,175.068336,0.26024718719999995,0.2708089800000002,-0.20505571199999983,0.023015214559999997,-0.2888416688,0.09121102710399999
03:46:25,0.13890226500000002,0.32005037000000014,0.24656100999999997,0.14500542500000002,-0.282564,-0.186947515,-1.8721167099999994,-30.62903339,-8.95380999,175.12514525,0.26256547705,0.2828251450000001,-0.21337568049999978,0.02168556209,-0.2896881832,0.091796687581
03:46:25,0.13492977000000006,0.33149165999999997,0.25700517999999994,0.14347665,-0.28364,-0.18687826999999999,-1.8448697799999998,-30.63362602,-8.949889820000001,175.1819545,0.26488376689999993,0.29484131,-0.22169564899999994,0.02035590962,-0.2905346976,0.092382348058
03:46:25,0.1309572750000001,0.34293295,0.2674493499999999,0.14194787500000003,-0.28471599999999997,-0.186809025,-1.8176228500000002,-30.63821865,-8.94596965,175.23876375,0.26720205674999997,0.30685747500000016,-0.23001561749999988,0.019026257150000003,-0.291381212,0.092968008535
03:46:25,0.12698478000000002,0.35437424000000006,0.2778935199999999,0.14041910000000002,-0.285792,-0.18673978,-1.7903759199999998,-30.64281128,-8.942049480000001,175.295573,0.2695203466,0.31887364000000007,-0.23833558599999982,0.017696604680000005,-0.29222772640000005,0.09355366901199999
03:46:25,0.12301228500000005,0.3658155300000001,0.28833768999999987,0.138890325,-0.286868,-0.186670535,-1.7631289899999993,-30.64740391,-8.93812931,175.35238225,0.27183863644999995,0.3308898050000002,-0.24665555449999976,0.016366952210000008,-0.2930742408,0.094139329489
03:46:25,0.11903979000000009,0.37725681999999994,0.29878185999999984,0.13736155000000003,-0.287944,-0.18660129,-1.7358820599999998,-30.65199654,-8.93420914,175.4091915,0.2741569263,0.3429059700000001,-0.2549755229999999,0.01503729974000001,-0.29392075520000005,0.094724989966
03:46:25,0.11506729500000001,0.38869811,0.3092260299999998,0.13583277500000002,-0.28902,-0.186532045,-1.7086351300000002,-30.65658917,-8.930288970000001,175.46600075,0.27647521615000004,0.354922135,-0.26329549149999987,0.013707647270000012,-0.2947672696,0.095310650443
03:46:25,0.11109480000000005,0.40013940000000003,0.3196702,0.13430400000000003,-0.29009599999999997,-0.18646279999999998,-1.6813881999999998,-30.6611818,-8.9263688,175.52281,0.27879350599999997,0.36693830000000016,-0.2716154599999998,0.012377994800000014,-0.29561378400000005,0.09589631091999999
03:46:25,0.10712230500000008,0.4115806900000001,0.33011437,0.13277522500000002,-0.291172,-0.186393555,-1.6541412699999993,-30.66577443,-8.92244863,175.57961925,0.28111179585,0.3789544650000001,-0.27993542849999997,0.011048342329999988,-0.2964602984,0.09648197139699999
03:46:25,0.10314981000000001,0.42302198000000013,0.34055853999999997,0.13124645000000001,-0.292248,-0.18632431,-1.6268943399999998,-30.67036706,-8.918528460000001,175.6364285,0.28343008569999995,0.3909706300000002,-0.2882553969999999,0.00971868985999999,-0.29730681280000004,0.097067631874
03:46:25,0.09917731500000004,0.43446326999999996,0.35100270999999994,0.12971767500000003,-0.293324,-0.186255065,-1.5996474100000002,-30.67495969,-8.91460829,175.69323774999998,0.28574837555,0.4029867950000001,-0.29657536549999985,0.008389037389999993,-0.2981533272,0.097653292351
03:46:25,0.09520482000000008,0.44590456,0.3614468799999999,0.1281889,-0.2944,-0.18618582,-1.5724004799999998,-30.67955232,-8.91068812,175.750047,0.28806666540000003,0.41500296000000003,-0.3048953339999998,0.007059384919999995,-0.29899984160000004,0.09823895282799999
03:46:25,0.091232325,0.45734585000000005,0.3718910499999999,0.126660125,-0.29547599999999996,-0.186116575,-1.5451535499999993,-30.68414495,-8.90676795,175.80685624999998,0.29038495524999997,0.42701912500000017,-0.31321530249999996,0.005729732449999997,-0.299846356,0.09882461330499999
03:46:25,0.08725983000000004,0.4687871400000001,0.38233521999999986,0.12513135000000003,-0.296552,-0.18604732999999998,-1.5179066199999998,-30.68873758,-8.90284778,175.8636655,0.2927032451,0.4390352900000001,-0.3215352709999999,0.004400079979999999,-0.30069287040000003,0.099410273782
03:46:25,0.08328733500000007,0.48022842999999993,0.39277938999999984,0.12360257500000005,-0.297628,-0.185978085,-1.4906596900000002,-30.69333021,-8.898927610000001,175.92047474999998,0.29502153494999994,0.451051455,-0.32985523949999984,0.003070427510000001,-0.3015393848,0.099995934259
03:46:25,0.07931484000000011,0.49166972,0.4032235599999998,0.12207380000000001,-0.29870399999999997,-0.18590884,-1.4634127599999998,-30.69792284,-8.89500744,175.977284,0.2973398248,0.4630676199999999,-0.3381752079999998,0.0017407750400000033,-0.30238589920000003,0.100581594736
03:46:25,0.07534234500000003,0.50311101,0.4136677299999998,0.12054502500000003,-0.29978,-0.185839595,-1.4361658299999993,-30.70251547,-8.89108727,176.03409324999998,0.29965811465000003,0.47508378500000026,-0.34649517649999995,0.0004111225700000054,-0.30323241360000003,0.10116725521299999
03:46:25,0.07136985000000007,0.5145523000000001,0.4241119,0.11901625000000005,-0.300856,-0.18577035,-1.4089188999999998,-30.7071081,-8.887167100000001,176.0909025,0.30197640449999996,0.48709995000000017,-0.3548151449999999,-0.0009185298999999925,-0.304078928,0.10175291569
03:46:25,0.0673973550000001,0.5259935900000001,0.43455606999999996,0.11748747500000001,-0.301932,-0.185701105,-1.3816719700000002,-30.71170073,-8.88324693,176.14771174999998,0.30429469435,0.4991161150000001,-0.36313511349999983,-0.0022481823699999903,-0.3049254424,0.102338576167
03:46:25,0.06342486000000003,0.53743488,0.44500023999999994,0.11595870000000003,-0.303008,-0.18563185999999998,-1.3544250399999997,-30.71629336,-8.879326760000001,176.204521,0.30661298419999994,0.51113228,-0.37145508199999977,-0.003577834839999988,-0.3057719568,0.102924236644
03:46:25,0.05945236500000006,0.54887617,0.4554444099999999,0.11442992500000004,-0.30408399999999997,-0.185562615,-1.3271781099999993,-30.72088599,-8.87540659,176.26133025,0.30893127405,0.5231484449999999,-0.37977505049999993,-0.004907487310000014,-0.3066184712,0.10350989712099999
03:46:25,0.0554798700000001,0.56031746,0.4658885799999999,0.11290115,-0.30516,-0.18549337,-1.2999311799999997,-30.72547862,-8.87148642,176.3181395,0.3112495639,0.5351646100000003,-0.3880950189999999,-0.006237139780000012,-0.3074649856,0.10409555759799999
03:46:25,0.05150737500000002,0.5717587500000001,0.47633274999999986,0.11137237500000002,-0.306236,-0.185424125,-1.2726842500000002,-30.73007125,-8.867566250000001,176.37494875,0.31356785374999996,0.5471807750000002,-0.3964149874999998,-0.0075667922500000095,-0.3083115,0.104681218075
03:46:25,0.04753488000000006,0.5832000400000001,0.48677691999999984,0.10984360000000004,-0.307312,-0.18535488,-1.2454373199999997,-30.73466388,-8.86364608,176.431758,0.3158861436,0.5591969400000001,-0.40473495599999976,-0.008896444720000007,-0.3091580144,0.105266878552
03:46:25,0.04356238500000009,0.5946413300000002,0.4972210899999998,0.108314825,-0.308388,-0.185285635,-1.2181903899999993,-30.73925651,-8.85972591,176.48856725,0.31820443344999993,0.571213105,-0.4130549244999999,-0.010226097190000005,-0.3100045288,0.10585253902899999
03:46:25,0.039589890000000016,0.6060826200000002,0.5076652599999998,0.10678605000000002,-0.30946399999999996,-0.18521639,-1.1909434599999997,-30.74384914,-8.855805740000001,176.5453765,0.3205227233,0.5832292699999999,-0.42137489299999986,-0.011555749660000003,-0.3108510432,0.10643819950599999
03:46:25,0.03561739500000005,0.6175239099999998,0.51810943,0.10525727500000004,-0.31054,-0.18514714499999999,-1.1636965300000002,-30.74844177,-8.85188557,176.60218575,0.32284101315,0.5952454350000003,-0.4296948614999998,-0.012885402130000001,-0.3116975576,0.107023859983
03:46:25,0.03164490000000009,0.6289651999999999,0.5285536,0.1037285,-0.311616,-0.1850779,-1.1364495999999997,-30.7530344,-8.8479654,176.658995,0.32515930299999996,0.6072616000000002,-0.43801482999999974,-0.014215054599999999,-0.312544072,0.10760952046
03:46:25,0.02767240500000001,0.6404064899999999,0.5389977699999999,0.10219972500000002,-0.31269199999999997,-0.185008655,-1.1092026699999993,-30.75762703,-8.84404523,176.71580425,0.32747759285,0.6192777650000001,-0.4463347984999999,-0.015544707069999997,-0.3133905864,0.108195180937
03:46:25,0.023699910000000046,0.65184778,0.5494419399999999,0.10067095000000004,-0.313768,-0.18493941,-1.0819557399999997,-30.76221966,-8.84012506,176.77261349999998,0.32979588269999993,0.63129393,-0.45465476699999985,-0.016874359539999995,-0.3142371008,0.10878084141399999
03:46:25,0.01972741500000008,0.66328907,0.5598861099999999,0.099142175,-0.31484399999999996,-0.184870165,-1.0547088100000002,-30.76681229,-8.836204890000001,176.82942275,0.33211417255,0.6433100949999999,-0.4629747354999998,-0.018204012009999992,-0.31508361520000006,0.10936650189099999
03:46:25,0.015754920000000006,0.6747303600000001,0.5703302799999999,0.09761340000000002,-0.31592,-0.18480091999999998,-1.0274618799999997,-30.77140492,-8.83228472,176.88623199999998,0.3344324624,0.6553262600000003,-0.47129470399999973,-0.01953366447999999,-0.3159301296,0.109952162368
03:46:25,0.01178242500000004,0.6861716500000001,0.5807744499999998,0.09608462500000003,-0.316996,-0.18473167499999998,-1.0002149499999993,-30.77599755,-8.82836455,176.94304125,0.33675075224999995,0.6673424250000002,-0.4796146724999999,-0.020863316949999988,-0.31677664400000005,0.110537822845
03:46:25,0.007809930000000076,0.6976129400000002,0.5912186199999998,0.09455585,-0.31807199999999997,-0.18466243,-0.9729680199999997,-30.78059018,-8.824444380000001,176.99985049999998,0.3390690421,0.6793585900000001,-0.48793464099999984,-0.022192969420000014,-0.3176231584,0.11112348332199999
03:46:25,0.003837435000000111,0.7090542300000002,0.6016627899999998,0.09302707500000001,-0.319148,-0.184593185,-0.9457210900000002,-30.78518281,-8.82052421,177.05665975,0.34138733194999993,0.691374755,-0.4962546094999998,-0.02352262189000001,-0.31846967280000005,0.11170914379899999
03:46:25,-0.00013505999999996465,0.7204955199999998,0.61210696,0.09149830000000003,-0.320224,-0.18452394,-0.9184741599999997,-30.78977544,-8.816604040000001,177.11346899999998,0.34370562179999997,0.7033909199999999,-0.5045745779999997,-0.02485227436000001,-0.3193161872,0.112294804276
03:46:25,-0.0041075549999999295,0.7319368099999999,0.62255113,0.089969525,-0.3213,-0.184454695,-0.8912272299999993,-30.79436807,-8.81268387,177.17027825,0.34602391165,0.7154070850000003,-0.5128945464999999,-0.02618192682999998,-0.32016270160000004,0.112880464753
03:46:25,-0.008080049999999894,0.7433780999999999,0.6329952999999999,0.08844075000000001,-0.322376,-0.18438545,-0.8639802999999997,-30.7989607,-8.8087637,177.22708749999998,0.34834220149999995,0.7274232500000002,-0.5212145149999998,-0.027511579299999978,-0.321009216,0.11346612522999999
03:46:25,-0.01205254499999997,0.75481939,0.6434394699999999,0.08691197500000003,-0.32345199999999996,-0.18431620499999998,-0.8367333700000001,-30.80355333,-8.804843530000001,177.28389675,0.35066049135,0.7394394150000001,-0.5295344834999998,-0.028841231769999975,-0.32185573040000004,0.11405178570699999
03:46:25,-0.016025039999999935,0.76626068,0.6538836399999997,0.08538319999999999,-0.324528,-0.18424696,-0.8094864399999997,-30.80814596,-8.80092336,177.34070599999998,0.3529787811999999,0.75145558,-0.5378544519999999,-0.03017088424000003,-0.3227022448,0.114637446184
03:46:25,-0.0199975349999999,0.7777019700000001,0.6643278100000001,0.08385442500000001,-0.325604,-0.184177715,-0.7822395099999992,-30.81273859,-8.79700319,177.39751525,0.35529707104999997,0.7634717449999999,-0.5461744204999999,-0.03150053671000003,-0.32354875920000004,0.115223106661
03:46:25,-0.023970029999999976,0.7891432600000001,0.67477198,0.08232565000000003,-0.32667999999999997,-0.18410847,-0.7549925799999997,-30.81733122,-8.793083020000001,177.45432449999998,0.3576153609,0.7754879100000003,-0.5544943889999998,-0.032830189180000025,-0.3243952736,0.115808767138
03:46:25,-0.02794252499999994,0.8005845500000002,0.68521615,0.08079687500000005,-0.327756,-0.184039225,-0.7277456500000001,-30.82192385,-8.78916285,177.51113375,0.35993365074999994,0.7875040750000002,-0.5628143574999998,-0.03415984165000002,-0.32524178800000003,0.11639442761499999
03:46:25,-0.031915019999999905,0.8120258400000002,0.69566032,0.07926810000000001,-0.32883199999999996,-0.18396998,-0.7004987199999997,-30.82651648,-8.78524268,177.56794299999999,0.3622519406,0.7995202400000001,-0.5711343259999999,-0.03548949412000002,-0.32608830240000003,0.11698008809199999
03:46:25,-0.03588751499999998,0.8234671299999998,0.70610449,0.07773932500000003,-0.329908,-0.18390073499999998,-0.6732517899999992,-30.83110911,-8.78132251,177.62475225,0.36457023045000003,0.811536405,-0.5794542944999999,-0.03681914659000002,-0.3269348168,0.117565748569
03:46:25,-0.039860009999999946,0.8349084199999999,0.71654866,0.07621055000000004,-0.330984,-0.18383149,-0.6460048599999997,-30.83570174,-8.77740234,177.6815615,0.36688852029999997,0.8235525699999999,-0.5877742629999998,-0.038148799060000016,-0.3277813312,0.118151409046
03:46:25,-0.04383250499999991,0.8463497099999999,0.7269928299999999,0.074681775,-0.33205999999999997,-0.183762245,-0.6187579300000001,-30.84029437,-8.773482170000001,177.73837075,0.36920681015,0.8355687350000003,-0.5960942314999997,-0.039478451530000014,-0.3286278456,0.11873706952299999
03:46:26,-0.047805,0.857791,0.737437,0.073153,-0.333136,-0.183693,-0.591511,-30.844887,-8.769562,177.79518,0.3715251,0.8475849,-0.6044142,-0.040808104,-0.32947436,0.11932273
03:46:26,-0.04588352,0.8439864899999999,0.716677125,0.07908166,-0.330563185,-0.182116285,-0.585812395,-30.847570755,-8.74588524,176.01259775,0.35924356749999997,0.834173159,-0.590387294,-0.03562086848,-0.3268139184,0.11391014635
03:46:26,-0.04396204,0.83018198,0.69591725,0.08501032,-0.32799037,-0.18053956999999998,-0.58011379,-30.85025451,-8.72220848,174.23001549999998,0.346962035,0.820761418,-0.576360388,-0.03043363296,-0.3241534768,0.1084975627
03:46:26,-0.04204056,0.8163774699999999,0.675157375,0.09093898,-0.32541755499999997,-0.178962855,-0.574415185,-30.852938265,-8.69853172,172.44743325,0.3346805025,0.8073496769999999,-0.562333482,-0.02524639744,-0.3214930352,0.10308497905
03:46:26,-0.04011908,0.80257296,0.6543975,0.09686763999999999,-0.32284473999999996,-0.17738614,-0.56871658,-30.85562202,-8.674854960000001,170.664851,0.32239897,0.793937936,-0.548306576,-0.02005916192,-0.31883259360000005,0.0976723954
03:46:26,-0.0381976,0.78876845,0.633637625,0.1027963,-0.320271925,-0.175809425,-0.5630179750000001,-30.858305775,-8.6511782,168.88226874999998,0.3101174375,0.780526195,-0.53427967,-0.014871926399999999,-0.31617215200000004,0.09225981175
03:46:26,-0.03627612,0.77496394,0.61287775,0.10872496,-0.31769911,-0.17423270999999999,-0.55731937,-30.86098953,-8.62750144,167.0996865,0.297835905,0.767114454,-0.520252764,-0.00968469088,-0.31351171040000003,0.0868472281
03:46:26,-0.03435464,0.76115943,0.592117875,0.11465361999999998,-0.315126295,-0.172655995,-0.551620765,-30.863673285,-8.60382468,165.31710425,0.2855543725,0.753702713,-0.5062258580000001,-0.0044974553599999995,-0.3108512688,0.08143464445
03:46:26,-0.03243316,0.74735492,0.571358,0.12058227999999999,-0.31255348,-0.17107928,-0.54592216,-30.86635704,-8.58014792,163.53452199999998,0.27327284,0.7402909719999999,-0.492198952,0.0006897801600000003,-0.3081908272,0.0760220608
03:46:26,-0.03051168,0.73355041,0.550598125,0.12651094,-0.309980665,-0.169502565,-0.540223555,-30.869040795,-8.556471160000001,161.75193975,0.2609913075,0.726879231,-0.478172046,0.00587701568,-0.3055303856,0.07060947715
03:46:26,-0.0285902,0.7197458999999999,0.5298382500000001,0.1324396,-0.30740785,-0.16792585,-0.53452495,-30.87172455,-8.5327944,159.9693575,0.24870977500000002,0.71346749,-0.46414514,0.0110642512,-0.302869944,0.06519689349999999
03:46:26,-0.02666872,0.70594139,0.509078375,0.13836826,-0.304835035,-0.16634913499999998,-0.528826345,-30.874408305,-8.509117640000001,158.18677524999998,0.2364282425,0.700055749,-0.45011823400000006,0.01625148672,-0.3002095024,0.059784309849999995
03:46:26,-0.02474724,0.69213688,0.4883185,0.14429692,-0.30226221999999997,-0.16477242,-0.5231277400000001,-30.87709206,-8.48544088,156.404193,0.22414671,0.686644008,-0.43609132800000006,0.02143872224,-0.29754906080000004,0.0543717262
03:46:26,-0.02282576,0.67833237,0.467558625,0.15022558,-0.29968940499999996,-0.163195705,-0.517429135,-30.879775815,-8.46176412,154.62161075,0.2118651775,0.6732322669999999,-0.42206442200000005,0.02662595776,-0.29488861920000004,0.04895914255
03:46:26,-0.02090428,0.66452786,0.44679875,0.15615424,-0.29711659,-0.16161899,-0.51173053,-30.882459569999998,-8.43808736,152.83902849999998,0.199583645,0.659820526,-0.40803751600000004,0.03181319328,-0.2922281776,0.04354655889999999
03:46:26,-0.0189828,0.65072335,0.426038875,0.16208289999999997,-0.294543775,-0.16004227499999998,-0.506031925,-30.885143325,-8.4144106,151.05644625,0.1873021125,0.646408785,-0.39401061000000004,0.0370004288,-0.289567736,0.03813397524999999
03:46:26,-0.01706132,0.63691884,0.405279,0.16801156,-0.29197096,-0.15846556,-0.50033332,-30.88782708,-8.390733840000001,149.273864,0.17502058,0.632997044,-0.37998370400000003,0.04218766432,-0.2869072944,0.0327213916
03:46:26,-0.015139840000000002,0.6231143299999999,0.384519125,0.17394021999999998,-0.289398145,-0.156888845,-0.494634715,-30.890510835,-8.36705708,147.49128174999998,0.1627390475,0.619585303,-0.365956798,0.04737489984,-0.2842468528,0.02730880795
03:46:26,-0.013218359999999998,0.60930982,0.36375925,0.17986888,-0.28682533,-0.15531213,-0.48893611000000003,-30.89319459,-8.34338032,145.7086995,0.15045751500000001,0.6061735619999999,-0.351929892,0.05256213536,-0.2815864112,0.021896224300000003
03:46:26,-0.011296880000000002,0.5955053100000001,0.342999375,0.18579753999999998,-0.284252515,-0.153735415,-0.483237505,-30.895878345,-8.31970356,143.92611725,0.13817598250000002,0.592761821,-0.337902986,0.05774937088,-0.27892596960000005,0.016483640649999992
03:46:26,-0.009375399999999999,0.5817008,0.3222395,0.19172619999999999,-0.2816797,-0.15215869999999998,-0.4775389,-30.8985621,-8.2960268,142.14353499999999,0.12589445000000002,0.57935008,-0.32387608,0.0629366064,-0.27626552800000004,0.011071056999999995
03:46:26,-0.007453920000000003,0.56789629,0.301479625,0.19765486,-0.27910688499999997,-0.150581985,-0.471840295,-30.901245855,-8.272350040000001,140.36095275,0.11361291750000002,0.5659383389999999,-0.30984917400000006,0.06812384192,-0.27360508640000003,0.005658473349999998
03:46:26,-0.00553244,0.55409178,0.28071975,0.20358352,-0.27653406999999997,-0.14900527,-0.46614169000000005,-30.90392961,-8.24867328,138.5783705,0.101331385,0.552526598,-0.29582226800000005,0.07331107744,-0.2709446448,0.00024588969999998767
03:46:26,-0.0036109600000000033,0.54028727,0.259959875,0.20951218,-0.273961255,-0.147428555,-0.460443085,-30.906613365,-8.224996520000001,136.79578825,0.08904985250000003,0.539114857,-0.28179536200000005,0.07849831296,-0.2682842032,-0.005166693950000009
03:46:26,-0.0016894800000000001,0.5264827599999999,0.23919999999999997,0.21544084,-0.27138844,-0.14585184,-0.45474448,-30.90929712,-8.20131976,135.013206,0.07676832,0.525703116,-0.26776845600000004,0.08368554848,-0.2656237616,-0.010579277600000006
03:46:26,0.0002319999999999961,0.51267825,0.21844012499999999,0.2213695,-0.268815625,-0.144275125,-0.44904587500000004,-30.911980875,-8.177643,133.23062375,0.06448678750000003,0.512291375,-0.25374155000000004,0.088872784,-0.26296332,-0.015991861250000003
03:46:26,0.0021534799999999993,0.49887374,0.19768025,0.22729816,-0.26624281,-0.14269841,-0.44334727,-30.91466463,-8.15396624,131.4480415,0.052205255000000006,0.49887963399999996,-0.23971464400000003,0.09406001952,-0.2603028784,-0.0214044449
03:46:26,0.0040749599999999955,0.48506923,0.17692037500000002,0.23322681999999997,-0.263669995,-0.141121695,-0.437648665,-30.917348385,-8.13028948,129.66545925,0.039923722500000036,0.485467893,-0.22568773800000003,0.09924725504,-0.2576424368,-0.026817028549999997
03:46:26,0.005996439999999999,0.47126471999999997,0.15616050000000004,0.23915547999999998,-0.26109718,-0.13954497999999999,-0.43195006,-30.92003214,-8.106612720000001,127.882877,0.02764219000000001,0.472056152,-0.21166083200000008,0.10443449056,-0.25498199520000003,-0.03222961220000002
03:46:26,0.007917919999999995,0.45746021,0.13540062499999994,0.24508413999999998,-0.258524365,-0.13796826499999998,-0.426251455,-30.922715895,-8.08293596,126.10029474999999,0.015360657500000041,0.458644411,-0.19763392600000007,0.10962172608,-0.2523215536,-0.03764219585000002
03:46:26,0.009839399999999998,0.4436557,0.11464074999999996,0.2510128,-0.25595154999999997,-0.13639155,-0.42055285,-30.92539965,-8.0592592,124.3177125,0.003079125000000016,0.44523267,-0.18360702000000007,0.1148089616,-0.24966111200000002,-0.043054779500000015
03:46:26,0.011760879999999994,0.42985119,0.09388087499999997,0.25694145999999995,-0.25337873499999997,-0.134814835,-0.414854245,-30.928083405,-8.03558244,122.53513024999998,-0.009202407499999954,0.43182092899999996,-0.16958011400000006,0.11999619712,-0.2470006704,-0.04846736315000001
03:46:26,0.013682359999999998,0.41604668,0.07312099999999999,0.26287012,-0.25080592,-0.13323812,-0.40915564000000004,-30.93076716,-8.01190568,120.75254799999999,-0.02148393999999998,0.418409188,-0.15555320800000005,0.12518343263999998,-0.2443402288,-0.05387994680000001
03:46:26,0.015603839999999994,0.40224217,0.05236112500000001,0.26879878,-0.24823310499999998,-0.131661405,-0.403457035,-30.933450914999998,-7.98822892,118.96996575,-0.033765472500000004,0.404997447,-0.14152630200000005,0.13037066815999998,-0.24167978720000002,-0.059292530450000006
03:46:26,0.017525319999999997,0.38843766,0.031601250000000025,0.27472744,-0.24566029,-0.13008469,-0.39775843,-30.93613467,-7.96455216,117.18738349999998,-0.046047004999999974,0.391585706,-0.12749939600000004,0.13555790367999998,-0.23901934560000002,-0.0647051141
03:46:26,0.0194468,0.37463315,0.010841375000000042,0.28065609999999996,-0.243087475,-0.128507975,-0.39205982500000003,-30.938818425,-7.9408754,115.40480124999999,-0.0583285375,0.378173965,-0.11347249000000004,0.14074513919999998,-0.23635890400000004,-0.07011769775
03:46:26,0.021368280000000003,0.36082864000000003,-0.009918500000000052,0.28658476,-0.24051466,-0.12693126,-0.38636122,-30.94150218,-7.9171986400000005,113.62221899999999,-0.07061006999999997,0.36476222399999997,-0.09944558400000003,0.14593237471999998,-0.23369846240000003,-0.0755302814
03:46:26,0.023289759999999993,0.34702413,-0.030678375000000035,0.29251342,-0.23794184499999999,-0.12535454499999998,-0.380662615,-30.944185935,-7.893521880000001,111.83963675,-0.0828916025,0.351350483,-0.08541867800000003,0.15111961023999998,-0.23103802080000002,-0.08094286505000002
03:46:26,0.025211239999999996,0.33321962000000005,-0.05143825000000002,0.29844207999999994,-0.23536902999999998,-0.12377782999999999,-0.37496401,-30.94686969,-7.869845120000001,110.05705449999999,-0.09517313499999996,0.33793874199999996,-0.07139177200000002,0.15630684575999998,-0.2283775792,-0.08635544870000002
03:46:26,0.02713272,0.31941511,-0.072198125,0.30437074,-0.23279621499999997,-0.122201115,-0.36926540500000005,-30.949553445,-7.84616836,108.27447224999999,-0.10745466749999999,0.324527001,-0.057364866000000014,0.16149408127999998,-0.2257171376,-0.09176803235000001
03:46:26,0.029054200000000002,0.30561060000000007,-0.09295799999999999,0.3102994,-0.2302234,-0.12062439999999999,-0.3635668,-30.9522372,-7.8224916,106.49188999999998,-0.11973619999999996,0.31111526,-0.04333796000000001,0.16668131679999998,-0.223056696,-0.09718061600000001
03:46:26,0.03097567999999999,0.29180609,-0.11371787499999997,0.31622806,-0.227650585,-0.119047685,-0.357868195,-30.954920955,-7.79881484,104.70930775,-0.13201773249999998,0.297703519,-0.029311054000000114,0.17186855231999998,-0.22039625440000002,-0.10259319965000001
03:46:26,0.032897159999999995,0.27800157999999997,-0.13447775000000006,0.32215671999999995,-0.22507776999999998,-0.11747097,-0.35216959000000003,-30.95760471,-7.7751380800000005,102.92672549999999,-0.14429926499999995,0.28429177799999994,-0.015284148000000108,0.17705578783999998,-0.2177358128,-0.1080057833
03:46:26,0.03481864,0.26419707000000003,-0.15523762500000005,0.32808538,-0.222504955,-0.11589425499999999,-0.346470985,-30.960288465,-7.751461320000001,101.14414324999998,-0.15658079749999992,0.27088003699999996,-0.0012572420000001028,0.18224302335999998,-0.21507537120000003,-0.11341836695
03:46:26,0.03674012,0.25039256,-0.17599750000000003,0.33401404,-0.21993214,-0.11431754,-0.34077238000000004,-30.96297222,-7.72778456,99.361561,-0.16886233,0.257468296,0.012769663999999903,0.18743025887999998,-0.21241492960000002,-0.11883095060000003
03:46:26,0.03866159999999999,0.23658805000000005,-0.196757375,0.33994269999999993,-0.217359325,-0.11274082499999999,-0.335073775,-30.965655975,-7.7041078,97.57897874999999,-0.18114386249999997,0.244056555,0.02679656999999991,0.19261749439999998,-0.20975448800000002,-0.12424353425000002
03:46:26,0.040583079999999994,0.22278354,-0.21751725,0.34587135999999996,-0.21478650999999999,-0.11116411,-0.32937517,-30.96833973,-7.68043104,95.79639649999999,-0.19342539499999994,0.23064481400000003,0.040823475999999914,0.19780472991999998,-0.2070940464,-0.12965611790000003
03:46:26,0.04250456,0.20897903000000007,-0.23827712499999998,0.35180002,-0.21221369499999998,-0.10958739499999999,-0.323676565,-30.971023485,-7.65675428,94.01381425,-0.20570692749999991,0.21723307299999994,0.05485038199999992,0.20299196543999998,-0.2044336048,-0.13506870155
03:46:26,0.04442604,0.19517452000000002,-0.2590370000000001,0.35772868,-0.20964087999999997,-0.10801068,-0.31797796,-30.97370724,-7.6330775200000005,92.23123199999999,-0.21798846,0.20382133199999997,0.06887728799999993,0.20817920095999998,-0.20177316320000002,-0.14048128520000003
03:46:26,0.04634752,0.18137000999999997,-0.27979687500000006,0.36365733999999994,-0.207068065,-0.10643396499999999,-0.31227935500000004,-30.976390995,-7.60940076,90.44864974999999,-0.23026999249999996,0.190409591,0.08290419399999993,0.21336643647999998,-0.19911272160000001,-0.14589386885000005
03:46:26,0.04826899999999999,0.16756550000000003,-0.30055675000000004,0.36958599999999997,-0.20449525,-0.10485725,-0.30658075,-30.97907475,-7.585724000000001,88.6660675,-0.24255152499999993,0.17699785,0.09693109999999994,0.21855367199999998,-0.19645228,-0.15130645250000002
03:46:26,0.050190479999999996,0.15376099,-0.321316625,0.37551466,-0.20192243499999998,-0.10328053499999999,-0.30088214500000005,-30.981758505,-7.56204724,86.88348524999999,-0.2548330575,0.16358610900000004,0.11095800599999994,0.22374090751999998,-0.19379183840000003,-0.15671903615000005
03:46:26,0.05211196,0.13995648000000005,-0.3420765,0.38144332000000003,-0.19934961999999998,-0.10170382,-0.29518354,-30.984442259999998,-7.53837048,85.10090299999999,-0.26711459,0.15017436799999995,0.12498491199999995,0.22892814303999998,-0.19113139680000002,-0.16213161980000002
03:46:26,0.05403344,0.12615197,-0.362836375,0.38737197999999995,-0.196776805,-0.100127105,-0.289484935,-30.987126015,-7.51469372,83.31832075,-0.27939612249999995,0.13676262699999997,0.13901181799999995,0.23411537855999998,-0.1884709552,-0.16754420345000004
03:46:26,0.05595491999999999,0.11234746000000007,-0.38359624999999997,0.39330064,-0.19420399,-0.09855038999999999,-0.28378633000000003,-30.98980977,-7.4910169600000005,81.5357385,-0.2916776549999999,0.12335088599999999,0.15303872399999996,0.23930261407999998,-0.1858105136,-0.1729567871
03:46:26,0.057876399999999995,0.09854295000000002,-0.40435612499999996,0.3992293,-0.191631175,-0.096973675,-0.278087725,-30.992493525,-7.467340200000001,79.75315624999999,-0.3039591875,0.10993914500000002,0.16706562999999996,0.24448984959999998,-0.18315007200000002,-0.17836937075000003
03:46:26,0.05979788,0.08473843999999997,-0.42511599999999994,0.40515795999999993,-0.18905835999999998,-0.09539695999999999,-0.27238912000000004,-30.99517728,-7.44366344,77.970574,-0.31624072,0.09652740400000004,0.18109253599999986,0.24967708511999998,-0.18048963040000002,-0.18378195440000006
03:46:26,0.06171936,0.07093393000000003,-0.4458758749999999,0.41108661999999996,-0.18648554499999997,-0.093820245,-0.266690515,-30.997861035,-7.41998668,76.18799175,-0.32852225249999994,0.08311566299999995,0.19511944199999987,0.25486432064,-0.1778291888,-0.18919453805000003
03:46:26,0.06364083999999999,0.057129419999999986,-0.4666357500000001,0.41701528,-0.18391273,-0.09224352999999999,-0.26099191,-31.00054479,-7.39630992,74.40540949999999,-0.3408037849999999,0.06970392199999997,0.20914634799999987,0.26005155616,-0.1751687472,-0.19460712170000005
03:46:26,0.06556232,0.04332491000000005,-0.4873956250000001,0.42294394,-0.181339915,-0.090666815,-0.255293305,-31.003228545,-7.37263316,72.62282724999999,-0.3530853175,0.056292181,0.22317325399999988,0.26523879168,-0.17250830560000002,-0.20001970535000002
03:46:26,0.0674838,0.029520400000000002,-0.5081555000000001,0.42887259999999994,-0.17876709999999998,-0.08909009999999999,-0.2495947,-31.0059123,-7.3489564000000005,70.840245,-0.36536684999999997,0.04288044000000002,0.23720015999999988,0.2704260272,-0.16984786400000002,-0.20543228900000005
03:46:26,0.06940528,0.015715890000000066,-0.5289153750000001,0.43480125999999997,-0.17619428499999998,-0.087513385,-0.24389609500000003,-31.008596054999998,-7.32527964,69.05766274999999,-0.37764838249999994,0.029468699000000043,0.2512270659999999,0.27561326272,-0.1671874224,-0.21084487265000001
03:46:26,0.07132675999999999,0.001911380000000018,-0.5496752500000001,0.44072992,-0.17362147,-0.08593666999999999,-0.23819749,-31.01127981,-7.30160288,67.27508049999999,-0.3899299149999999,0.016056957999999955,0.2652539719999999,0.28080049824,-0.1645269808,-0.21625745630000004
03:46:26,0.07324823999999999,-0.011893129999999918,-0.570435125,0.44665858,-0.171048655,-0.084359955,-0.23249888500000004,-31.013963565,-7.27792612,65.49249825,-0.4022114475,0.0026452169999999775,0.2792808779999999,0.28598773376,-0.16186653920000002,-0.22167003995
03:46:26,0.07516972,-0.025697639999999966,-0.591195,0.45258723999999995,-0.16847584,-0.08278324,-0.22680028000000002,-31.01664732,-7.25424936,63.70991599999999,-0.41449297999999996,-0.010766524,0.2933077839999999,0.29117496928,-0.1592060976,-0.22708262360000003
03:46:26,0.0770912,-0.039502150000000014,-0.611954875,0.4585159,-0.16590302499999998,-0.08120652499999999,-0.221101675,-31.019331075,-7.2305726,61.92733374999999,-0.4267745124999999,-0.024178264999999977,0.3073346899999999,0.2963622048,-0.156545656,-0.23249520725000006
03:46:26,0.07901267999999999,-0.05330665999999995,-0.63271475,0.46444456,-0.16333020999999998,-0.07962981,-0.21540307000000003,-31.02201483,-7.2068958400000005,60.1447515,-0.439056045,-0.037590005999999954,0.3213615959999999,0.30154944032,-0.15388521440000003,-0.23790779090000003
03:46:26,0.08093415999999999,-0.06711117,-0.653474625,0.4703732199999999,-0.160757395,-0.07805309499999999,-0.209704465,-31.024698585,-7.183219080000001,58.362169249999994,-0.4513375775,-0.05100174700000004,0.3353885019999999,0.30673667584,-0.15122477280000002,-0.24332037455000005
03:46:26,0.08285564,-0.08091567999999993,-0.6742345,0.47630187999999996,-0.15818458,-0.07647638,-0.20400586000000004,-31.02738234,-7.15954232,56.57958699999999,-0.46361910999999995,-0.06441348800000002,0.3494154079999999,0.31192391136,-0.1485643312,-0.24873295820000002
03:46:26,0.08477712,-0.09472018999999998,-0.6949943749999999,0.48223054,-0.15561176499999999,-0.07489966499999999,-0.19830725500000002,-31.030066095,-7.13586556,54.79700475,-0.4759006424999999,-0.077825229,0.36344231399999993,0.31711114687999997,-0.1459038896,-0.25414554185000005
03:46:26,0.0866986,-0.10852469999999992,-0.7157542499999999,0.4881592,-0.15303894999999998,-0.07332295,-0.19260865000000005,-31.03274985,-7.1121888,53.014422499999995,-0.488182175,-0.09123696999999997,0.37746921999999994,0.32229838239999997,-0.14324344800000002,-0.2595581255
03:46:26,0.08862008,-0.12232920999999997,-0.7365141250000001,0.49408785999999993,-0.150466135,-0.07174623499999999,-0.18691004500000002,-31.035433604999998,-7.08851204,51.23184024999999,-0.5004637075,-0.10464871099999995,0.39149612599999994,0.32748561791999997,-0.14058300640000002,-0.26497070915000004
03:46:26,0.09054156000000001,-0.1361337199999999,-0.7572740000000001,0.50001652,-0.14789332,-0.07016952,-0.18121144,-31.03811736,-7.0648352800000005,49.449257999999986,-0.5127452399999999,-0.11806045200000004,0.40552303199999995,0.33267285343999997,-0.1379225648,-0.2703832928
03:46:26,0.09246303999999998,-0.14993823000000006,-0.7780338750000001,0.50594518,-0.145320505,-0.06859280499999999,-0.17551283500000003,-31.040801115,-7.04115852,47.666675749999996,-0.5250267725,-0.13147219300000001,0.41954993799999996,0.33786008895999997,-0.1352621232,-0.27579587645000003
03:46:26,0.09438451999999999,-0.16374274,-0.7987937500000001,0.51187384,-0.14274768999999998,-0.06701609,-0.16981423,-31.04348487,-7.01748176,45.884093500000006,-0.537308305,-0.144883934,0.43357684399999996,0.34304732447999997,-0.13260168160000002,-0.28120846010000006
03:46:26,0.09630599999999999,-0.17754724999999993,-0.8195536250000001,0.5178024999999999,-0.14017487499999998,-0.065439375,-0.16411562500000004,-31.046168625,-6.993805,44.10151124999999,-0.5495898374999999,-0.15829567499999997,0.44760374999999997,0.34823455999999997,-0.12994124,-0.28662104375
03:46:26,0.09822747999999999,-0.19135175999999987,-0.8403135,0.52373116,-0.13760206,-0.06386265999999999,-0.15841702000000002,-31.04885238,-6.97012824,42.318929,-0.56187137,-0.17170741600000006,0.461630656,0.35342179551999997,-0.1272807984,-0.29203362740000005
03:46:26,0.10014896,-0.20515627000000003,-0.861073375,0.52965982,-0.135029245,-0.062285944999999995,-0.152718415,-31.051536135,-6.94645148,40.53634675000001,-0.5741529024999998,-0.18511915699999992,0.475657562,0.35860903103999997,-0.1246203568,-0.29744621105
03:46:26,0.10207044,-0.21896077999999997,-0.88183325,0.5355884799999999,-0.13245643,-0.06070922999999999,-0.14701981000000003,-31.05421989,-6.92277472,38.75376449999999,-0.5864344349999999,-0.198530898,0.489684468,0.36379626655999997,-0.12195991520000002,-0.30285879470000004
03:46:26,0.10399192,-0.2327652899999999,-0.902593125,0.54151714,-0.12988361499999998,-0.059132515,-0.141321205,-31.056903645,-6.899097960000001,36.97118225,-0.5987159675,-0.2119426390000001,0.503711374,0.36898350207999997,-0.11929947360000001,-0.30827137835
03:46:26,0.1059134,-0.24656979999999984,-0.923353,0.5474458,-0.1273108,-0.05755579999999999,-0.13562260000000004,-31.059587399999998,-6.8754212,35.18859999999998,-0.6109974999999999,-0.22535437999999997,0.51773828,0.37417073759999997,-0.116639032,-0.31368396200000004
03:46:26,0.10783488000000001,-0.26037431,-0.944112875,0.55337446,-0.124737985,-0.055979084999999984,-0.12992399500000001,-31.062271154999998,-6.85174444,33.40601774999999,-0.6232790324999999,-0.23876612100000005,0.5317651859999998,0.37935797311999997,-0.11397859040000002,-0.31909654565000006
03:46:26,0.10975635999999998,-0.27417881999999993,-0.96487275,0.5593031199999999,-0.12216516999999999,-0.054402370000000005,-0.12422539000000005,-31.06495491,-6.82806768,31.6234355,-0.635560565,-0.2521778619999999,0.5457920919999998,0.38454520863999997,-0.11131814880000002,-0.32450912930000003
03:46:26,0.11167783999999999,-0.28798332999999987,-0.9856326249999999,0.56523178,-0.11959235499999998,-0.052825655,-0.11852678500000002,-31.067638665,-6.80439092,29.84085324999998,-0.6478420975000001,-0.265589603,0.5598189979999998,0.38973244415999997,-0.10865770720000001,-0.32992171295000006
03:46:26,0.11359931999999999,-0.30178784000000003,-1.0063925,0.57116044,-0.11701953999999998,-0.05124893999999999,-0.11282818,-31.07032242,-6.7807141600000005,28.05827099999999,-0.66012363,-0.2790013440000001,0.5738459039999998,0.39491967967999997,-0.1059972656,-0.3353342966
03:46:26,0.11552079999999999,-0.31559234999999997,-1.027152375,0.5770891,-0.114446725,-0.049672224999999987,-0.10712957500000003,-31.073006175,-6.7570374,26.27568875,-0.6724051625,-0.29241308499999996,0.5878728099999998,0.40010691519999997,-0.10333682400000002,-0.34074688025000005
03:46:26,0.11744228,-0.3293968599999999,-1.04791225,0.5830177599999999,-0.11187391,-0.04809550999999998,-0.10143097000000001,-31.07568993,-6.73336064,24.493106499999982,-0.6846866949999999,-0.30582482600000005,0.6018997159999998,0.40529415071999997,-0.10067638240000001,-0.3461594639
03:46:26,0.11936376,-0.34320136999999984,-1.068672125,0.58894642,-0.10930109499999999,-0.046518795,-0.09573236500000004,-31.078373685,-6.70968388,22.71052424999999,-0.6969682275,-0.3192365669999999,0.6159266219999998,0.41048138623999997,-0.0980159408,-0.35157204755000004
03:46:26,0.12128524,-0.35700588,-1.089432,0.59487508,-0.10672827999999998,-0.044942079999999995,-0.09003376000000007,-31.08105744,-6.68600712,20.927942,-0.7092497600000001,-0.332648308,0.6299535279999998,0.41566862175999997,-0.0953554992,-0.35698463120000007
03:46:26,0.12320672,-0.37081038999999993,-1.110191875,0.60080374,-0.10415546499999997,-0.04336536499999999,-0.084335155,-31.083741194999998,-6.66233036,19.145359749999983,-0.7215312924999999,-0.3460600490000001,0.6439804339999998,0.42085585727999997,-0.09269505760000002,-0.36239721485000004
03:46:26,0.12512819999999997,-0.38461489999999987,-1.13095175,0.6067324,-0.10158265,-0.04178864999999998,-0.07863655000000003,-31.086424949999998,-6.6386536,17.362777499999993,-0.733812825,-0.35947178999999996,0.6580073399999998,0.42604309279999997,-0.09003461600000001,-0.36780979850000006
03:46:26,0.12704968,-0.39841941000000003,-1.151711625,0.61266106,-0.09900983499999999,-0.040211935000000004,-0.07293794500000006,-31.089108705,-6.614976840000001,15.580195250000003,-0.7460943575000001,-0.37288353100000005,0.6720342459999998,0.43123032831999997,-0.0873741744,-0.37322238215000003
03:46:26,0.12897115999999997,-0.41222391999999997,-1.1724714999999999,0.61858972,-0.09643701999999998,-0.03863522,-0.06723933999999998,-31.09179246,-6.59130008,13.797612999999984,-0.7583758899999999,-0.3862952719999999,0.6860611519999998,0.43641756383999997,-0.0847137328,-0.37863496580000006
03:46:26,0.13089264,-0.4260284299999999,-1.1932313749999999,0.62451838,-0.09386420499999998,-0.03705850499999999,-0.06154073500000001,-31.094476215,-6.56762332,12.015030749999994,-0.7706574225,-0.399707013,0.7000880579999998,0.44160479935999997,-0.08205329120000002,-0.38404754945
03:46:26,0.13281411999999998,-0.43983293999999984,-1.2139912499999999,0.63044704,-0.09129139,-0.035481789999999985,-0.055842130000000045,-31.09715997,-6.54394656,10.232448500000004,-0.7829389549999999,-0.4131187540000001,0.7141149639999999,0.44679203487999997,-0.07939284959999998,-0.3894601331
03:46:26,0.1347356,-0.45363745,-1.2347511249999998,0.6363757,-0.088718575,-0.03390507500000001,-0.05014352500000008,-31.099843725,-6.5202697999999994,8.449866249999985,-0.7952204875,-0.42653049499999995,0.7281418699999999,0.45197927039999997,-0.07673240800000003,-0.3948727167500001
03:46:26,0.13665708,-0.46744195999999993,-1.2555110000000003,0.64230436,-0.08614575999999999,-0.03232836,-0.04444492,-31.10252748,-6.4965930400000005,6.667283999999995,-0.80750202,-0.43994223600000004,0.7421687759999999,0.45716650591999997,-0.07407196640000002,-0.40028530040000004
03:46:26,0.13857856000000002,-0.48124646999999987,-1.2762708750000002,0.6482330199999999,-0.08357294499999998,-0.030751644999999994,-0.03874631500000003,-31.105211235,-6.47291628,4.884701750000005,-0.8197835524999999,-0.4533539769999999,0.7561956819999999,0.46235374143999997,-0.07141152480000001,-0.40569788405
03:46:26,0.14050004,-0.49505098000000003,-1.2970307500000002,0.65416168,-0.08100013,-0.029174929999999988,-0.03304771000000006,-31.10789499,-6.44923952,3.1021194999999864,-0.832065085,-0.466765718,0.7702225879999999,0.46754097695999997,-0.06875108320000001,-0.4111104677000001
03:46:26,0.14242151999999997,-0.50885549,-1.3177906250000002,0.66009034,-0.078427315,-0.02759821499999998,-0.027349104999999985,-31.110578744999998,-6.42556276,1.3195372499999962,-0.8443466175000001,-0.4801774590000001,0.7842494939999999,0.47272821247999997,-0.0660906416,-0.41652305135000006
03:46:26,0.144343,-0.5226599999999999,-1.3385505000000002,0.666019,-0.07585449999999999,-0.026021500000000003,-0.021650500000000017,-31.113262499999998,-6.401886,-0.46304499999999393,-0.8566281499999999,-0.49358919999999995,0.7982763999999999,0.47791544799999996,-0.06343019999999999,-0.42193563500000003
03:46:26,0.14626447999999997,-0.5364645099999998,-1.3593103750000002,0.67194766,-0.07328168499999999,-0.024444784999999997,-0.01595189500000005,-31.115946255,-6.37820924,-2.2456272500000125,-0.8689096825,-0.507000941,0.8123033059999999,0.48310268351999996,-0.060769758399999985,-0.42734821865
03:46:26,0.14818596,-0.55026902,-1.3800702500000002,0.67787632,-0.07070886999999998,-0.02286806999999999,-0.010253290000000082,-31.11863001,-6.35453248,-4.028209500000003,-0.8811912150000001,-0.5204126819999999,0.8263302119999999,0.48828991903999996,-0.05810931680000003,-0.4327608023000001
03:46:26,0.15010743999999998,-0.5640735299999999,-1.4008301250000001,0.68380498,-0.06813605499999997,-0.021291354999999984,-0.004554685000000003,-31.121313765,-6.330855720000001,-5.810791749999993,-0.8934727474999999,-0.533824423,0.8403571179999999,0.49347715455999996,-0.055448875200000025,-0.43817338595000005
03:46:26,0.15202892,-0.5778780399999999,-1.4215900000000001,0.68973364,-0.06556323999999997,-0.019714640000000005,0.001143919999999965,-31.12399752,-6.30717896,-7.593374000000011,-0.90575428,-0.5472361640000001,0.8543840239999999,0.49866439007999996,-0.05278843360000002,-0.4435859696
03:46:26,0.1539504,-0.59168255,-1.4423498750000001,0.6956623,-0.06299042499999996,-0.018137925,0.006842524999999933,-31.126681275,-6.2835022,-9.375956250000002,-0.9180358124999999,-0.560647905,0.8684109299999999,0.5038516256,-0.05012799200000001,-0.4489985532500001
03:46:26,0.15587188000000002,-0.60548706,-1.46310975,0.70159096,-0.06041761000000001,-0.016561209999999993,0.012541130000000011,-31.12936503,-6.25982544,-11.158538499999992,-0.930317345,-0.574059646,0.8824378359999999,0.50903886112,-0.0474675504,-0.45441113690000007
03:46:26,0.15779336,-0.6192915699999999,-1.483869625,0.70751962,-0.057844795000000004,-0.014984494999999987,0.01823973499999998,-31.132048785,-6.2361486799999994,-12.94112075000001,-0.9425988775,-0.5874713869999999,0.8964647419999999,0.51422609664,-0.044807108799999995,-0.45982372055000004
03:46:26,0.15971483999999997,-0.6330960799999998,-1.5046295,0.7134482799999999,-0.05527198,-0.01340777999999998,0.023938339999999947,-31.134732539999998,-6.2124719200000005,-14.723703,-0.9548804099999999,-0.600883128,0.9104916479999999,0.51941333216,-0.04214666719999999,-0.4652363042
03:46:26,0.16163632,-0.64690059,-1.525389375,0.71937694,-0.05269916499999999,-0.011831065000000002,0.029636945000000026,-31.137416294999998,-6.18879516,-16.50628524999999,-0.9671619425,-0.6142948690000001,0.9245185539999999,0.52460056768,-0.03948622559999998,-0.4706488878500001
03:46:26,0.16355779999999998,-0.6607050999999999,-1.54614925,0.7253056,-0.050126349999999986,-0.010254349999999995,0.03533554999999999,-31.14010005,-6.1651184,-18.28886750000001,-0.9794434750000001,-0.6277066099999999,0.9385454599999999,0.5297878032,-0.03682578400000003,-0.47606147150000006
03:46:26,0.16547928,-0.6745096099999999,-1.566909125,0.73123426,-0.04755353499999998,-0.008677634999999989,0.04103415499999996,-31.142783805,-6.14144164,-20.07144975,-0.9917250074999999,-0.641118351,0.952572366,0.53497503872,-0.03416534240000002,-0.48147405515
03:46:26,0.16740075999999998,-0.68831412,-1.587669,0.7371629199999999,-0.044980719999999974,-0.007100919999999983,0.04673275999999993,-31.14546756,-6.11776488,-21.85403199999999,-1.00400654,-0.6545300919999999,0.9665992719999997,0.54016227424,-0.03150490080000001,-0.4868866388000001
03:46:26,0.16932224,-0.70211863,-1.608428875,0.74309158,-0.04240790499999997,-0.005524205000000004,0.05243136500000001,-31.148151315,-6.09408812,-23.636614250000008,-1.0162880725,-0.667941833,0.9806261779999997,0.54534950976,-0.028844459200000006,-0.4922992224500001
03:46:26,0.17124372,-0.7159231399999999,-1.62918875,0.74902024,-0.03983508999999996,-0.003947489999999998,0.058129969999999975,-31.15083507,-6.07041136,-25.419196499999998,-1.028569605,-0.6813535740000001,0.9946530839999997,0.55053674528,-0.026184017599999998,-0.49771180610000004
03:46:26,0.17316520000000002,-0.7297276499999998,-1.649948625,0.7549489,-0.03726227500000001,-0.0023707749999999916,0.06382857499999994,-31.153518825,-6.0467346,-27.201778750000017,-1.0408511375,-0.6947653149999999,1.0086799899999996,0.5557239808,-0.02352357599999999,-0.50312438975
03:46:26,0.17508668,-0.74353216,-1.6707085000000004,0.76087756,-0.034689460000000005,-0.0007940599999999853,0.06952718000000002,-31.15620258,-6.02305784,-28.984361000000007,-1.0531326699999999,-0.708177056,1.0227068959999999,0.56091121632,-0.020863134399999983,-0.5085369734
03:46:26,0.17700815999999997,-0.7573366699999999,-1.6914683750000004,0.76680622,-0.032116645,0.0007826549999999932,0.07522578499999999,-31.158886335,-5.99938108,-30.766943249999997,-1.0654142025,-0.7215887969999999,1.0367338019999996,0.56609845184,-0.01820269280000003,-0.51394955705
03:46:26,0.17892964,-0.7711411799999999,-1.7122282500000003,0.77273488,-0.029543829999999993,0.0023593699999999995,0.08092438999999996,-31.161570089999998,-5.97570432,-32.549525500000016,-1.077695735,-0.735000538,1.0507607079999999,0.57128568736,-0.015542251200000023,-0.5193621407
03:46:26,0.18085111999999998,-0.7849456899999998,-1.7329881250000003,0.7786635399999999,-0.026971014999999987,0.003936085000000006,0.08662299499999992,-31.164253844999998,-5.952027559999999,-34.332107750000006,-1.0899772675,-0.7484122790000001,1.0647876139999997,0.57647292288,-0.012881809600000016,-0.5247747243499999
03:46:26,0.1827726,-0.7987502,-1.7537480000000003,0.7845922,-0.02439819999999998,0.005512800000000012,0.0923216,-31.1669376,-5.9283508000000005,-36.114689999999996,-1.1022588,-0.7618240199999999,1.0788145199999999,0.5816601584,-0.010221368000000008,-0.530187308
03:46:26,0.18469407999999998,-0.8125547099999999,-1.7745078750000003,0.79052086,-0.021825384999999975,0.0070895150000000184,0.09802020499999997,-31.169621355,-5.90467404,-37.897272250000015,-1.1145403325,-0.775235761,1.0928414259999997,0.58684739392,-0.007560926400000001,-0.53559989165
03:46:26,0.18661556,-0.8263592199999998,-1.7952677500000003,0.79644952,-0.01925256999999997,0.008666229999999997,0.10371880999999994,-31.17230511,-5.88099728,-39.679854500000005,-1.126821865,-0.7886475019999999,1.106868332,0.59203462944,-0.004900484799999993,-0.5410124753
03:46:26,0.18853704,-0.84016373,-1.8160276250000003,0.8023781799999999,-0.016679754999999963,0.010242945000000003,0.10941741500000002,-31.174988865,-5.85732052,-41.462436749999995,-1.1391033975,-0.802059243,1.1208952379999997,0.59722186496,-0.002240043199999986,-0.54642505895
03:46:26,0.19045851999999996,-0.8539682399999999,-1.8367875000000002,0.80830684,-0.014106940000000012,0.01181966000000001,0.11511601999999999,-31.17767262,-5.833643759999999,-43.24501900000001,-1.1513849299999999,-0.8154709840000001,1.134922144,0.60240910048,0.0004203984000000216,-0.5518376426
03:46:26,0.19238,-0.8677727499999999,-1.8575473750000002,0.8142355,-0.011534125000000006,0.013396375000000016,0.12081462499999995,-31.180356375,-5.809967,-45.027601250000004,-1.1636664625,-0.8288827249999999,1.1489490499999997,0.607596336,0.0030808399999999736,-0.55725022625
03:46:26,0.19430147999999997,-0.8815772599999998,-1.8783072500000002,0.82016416,-0.00896131,0.014973089999999994,0.12651322999999992,-31.18304013,-5.78629024,-46.810183499999994,-1.175947995,-0.842294466,1.162975956,0.61278357152,0.005741281599999981,-0.5626628099
03:46:26,0.19622296,-0.89538177,-1.8990671250000002,0.82609282,-0.006388494999999994,0.016549805,0.132211835,-31.185723884999998,-5.76261348,-48.59276575000001,-1.1882295274999999,-0.8557062069999999,1.1770028619999997,0.61797080704,0.008401723199999989,-0.56807539355
03:46:26,0.19814443999999998,-0.9091862799999999,-1.9198270000000002,0.83202148,-0.003815679999999988,0.018126520000000007,0.13791043999999997,-31.188407639999998,-5.73893672,-50.375348,-1.20051106,-0.869117948,1.191029768,0.62315804256,0.011062164799999996,-0.5734879772
03:46:26,0.20006592,-0.9229907899999998,-1.9405868750000002,0.83795014,-0.001242864999999982,0.019703235000000013,0.14360904499999994,-31.191091395,-5.71525996,-52.15793024999999,-1.2127925925,-0.8825296890000001,1.2050566739999997,0.62834527808,0.013722606400000004,-0.57890056085
03:46:26,0.20198739999999998,-0.9367953,-1.9613467500000001,0.8438787999999999,0.0013299500000000242,0.02127995000000002,0.14930765000000001,-31.19377515,-5.6915832,-53.94051250000001,-1.225074125,-0.8959414299999999,1.21908358,0.6335325136,0.01638304800000001,-0.5843131445
03:46:26,0.20390888000000001,-0.9505998099999999,-1.9821066250000001,0.84980746,0.0039027650000000302,0.022856664999999998,0.15500625499999998,-31.196458905,-5.667906439999999,-55.72309475,-1.2373556575,-0.909353171,1.2331104859999997,0.63871974912,0.01904348960000002,-0.58972572815
03:46:26,0.20583036,-0.9644043199999999,-2.0028665,0.85573612,0.006475580000000036,0.024433380000000005,0.16070485999999995,-31.19914266,-5.6442296800000005,-57.50567699999999,-1.24963719,-0.9227649119999999,1.247137392,0.64390698464,0.02170393119999997,-0.5951383118
03:46:26,0.20775184000000002,-0.9782088299999998,-2.023626375,0.86166478,0.009048394999999987,0.02601009500000001,0.16640346499999992,-31.201826415,-5.62055292,-59.28825925000001,-1.2619187225,-0.936176653,1.2611642979999997,0.64909422016,0.024364372799999978,-0.60055089545
03:46:26,0.20967332,-0.99201334,-2.04438625,0.8675934399999999,0.011621209999999993,0.027586810000000017,0.17210207,-31.20451017,-5.59687616,-61.0708415,-1.274200255,-0.9495883940000001,1.275191204,0.65428145568,0.027024814399999986,-0.6059634791
03:46:26,0.21159480000000003,-1.00581785,-2.065146125,0.8735221,0.014194024999999999,0.029163524999999996,0.17780067499999996,-31.207193925,-5.5731994,-62.85342374999999,-1.2864817874999999,-0.9630001349999999,1.2892181099999998,0.6594686912,0.029685255999999993,-0.61137606275
03:46:26,0.21351628,-1.0196223599999998,-2.085906,0.87945076,0.016766840000000005,0.030740240000000002,0.18349927999999993,-31.209877679999998,-5.549522639999999,-64.63600600000001,-1.29876332,-0.976411876,1.303245016,0.66465592672,0.0323456976,-0.6167886464
03:46:26,0.21543775999999998,-1.03342687,-2.106665875,0.88537942,0.01933965500000001,0.03231695500000001,0.189197885,-31.212561434999998,-5.52584588,-66.41858825,-1.3110448525,-0.9898236169999999,1.3172719219999998,0.66984316224,0.03500613920000001,-0.62220123005
03:46:26,0.21735924,-1.04723138,-2.12742575,0.89130808,0.021912470000000017,0.033893670000000015,0.19489648999999998,-31.215245189999997,-5.50216912,-68.20117049999999,-1.3233263849999999,-1.003235358,1.331298828,0.67503039776,0.037666580800000016,-0.6276138137
03:46:26,0.21928071999999998,-1.0610358899999999,-2.148185625,0.89723674,0.024485285000000023,0.03547038500000002,0.20059509499999995,-31.217928945,-5.47849236,-69.98375275000001,-1.3356079175,-1.016647099,1.3453257339999998,0.68021763328,0.04032702240000002,-0.63302639735
03:46:26,0.22120220000000002,-1.0748403999999998,-2.1689455,0.9031654,0.02705810000000003,0.0370471,0.2062936999999999,-31.2206127,-5.4548156,-71.766335,-1.34788945,-1.03005884,1.35935264,0.6854048688,0.042987463999999975,-0.638438981
03:46:26,0.22312368,-1.08864491,-2.1897053750000004,0.9090940599999999,0.029630915000000035,0.038623815000000006,0.211992305,-31.223296455,-5.43113884,-73.54891724999999,-1.3601709825,-1.043470581,1.3733795459999998,0.69059210432,0.04564790559999998,-0.64385156465
03:46:26,0.22504516000000002,-1.10244942,-2.2104652500000004,0.91502272,0.032203729999999986,0.04020053000000001,0.21769090999999996,-31.22598021,-5.40746208,-75.3314995,-1.372452515,-1.0568823219999999,1.387406452,0.69577933984,0.04830834719999999,-0.6492641483
03:46:26,0.22696664,-1.1162539299999998,-2.2312251250000004,0.92095138,0.03477654499999999,0.04177724500000002,0.22338951499999993,-31.228663965,-5.383785319999999,-77.11408175,-1.3847340474999998,-1.070294063,1.4014333579999998,0.70096657536,0.0509687888,-0.65467673195
03:46:26,0.22888812000000003,-1.1300584399999998,-2.2519850000000003,0.92688004,0.03734936,0.04335396,0.22908812,-31.23134772,-5.36010856,-78.89666400000002,-1.39701558,-1.083705804,1.415460264,0.70615381088,0.053629230400000005,-0.6600893156
03:46:26,0.2308096,-1.1438629499999997,-2.2727448750000003,0.9328086999999999,0.039922175000000004,0.044930675,0.23478672499999997,-31.234031475,-5.3364318,-80.67924624999998,-1.4092971125,-1.097117545,1.4294871699999998,0.7113410464,0.05628967200000001,-0.66550189925
03:46:26,0.23273107999999998,-1.15766746,-2.2935047500000003,0.93873736,0.04249499000000001,0.04650739000000001,0.24048532999999994,-31.236715229999998,-5.31275504,-82.4618285,-1.4215786449999999,-1.110529286,1.443514076,0.71652828192,0.05895011360000002,-0.6709144829
03:46:26,0.23465256,-1.17147197,-2.3142646250000003,0.94466602,0.045067805000000016,0.048084105000000016,0.2461839349999999,-31.239398984999998,-5.28907828,-84.24441075000001,-1.4338601775,-1.1239410269999999,1.4575409819999998,0.72171551744,0.06161055519999997,-0.67632706655
03:46:26,0.23657403999999999,-1.18527648,-2.3350245000000003,0.95059468,0.04764062000000002,0.049660819999999994,0.25188254,-31.24208274,-5.265401519999999,-86.02699299999998,-1.44614171,-1.137352768,1.471567888,0.72690275296,0.06427099679999998,-0.6817396502
03:46:26,0.23849552000000002,-1.19908099,-2.3557843750000003,0.9565233399999999,0.05021343500000003,0.051237535,0.25758114499999996,-31.244766495,-5.24172476,-87.80957525,-1.4584232424999999,-1.150764509,1.4855947939999998,0.73208998848,0.06693143839999999,-0.68715223385
03:46:26,0.240417,-1.2128854999999998,-2.3765442500000002,0.962452,0.052786250000000035,0.05281425000000001,0.2632797499999999,-31.24745025,-5.218048,-89.59215750000001,-1.470704775,-1.16417625,1.4996217,0.737277224,0.06959188,-0.6925648175
03:46:26,0.24233848000000002,-1.2266900099999998,-2.3973041250000002,0.96838066,0.055359064999999985,0.05439096500000001,0.268978355,-31.250134005,-5.19437124,-91.37473974999997,-1.4829863075,-1.177587991,1.5136486059999998,0.74246445952,0.0722523216,-0.69797740115
03:46:26,0.24425996,-1.2404945199999997,-2.418064,0.9743093199999999,0.05793187999999999,0.05596768000000002,0.27467695999999997,-31.25281776,-5.17069448,-93.157322,-1.49526784,-1.190999732,1.527675512,0.74765169504,0.07491276320000001,-0.7033899848
03:46:26,0.24618144000000003,-1.25429903,-2.438823875,0.98023798,0.060504695,0.057544395,0.28037556499999994,-31.255501515,-5.147017719999999,-94.93990425000001,-1.5075493725,-1.2044114730000002,1.5417024179999999,0.75283893056,0.07757320480000002,-0.70880256845
03:46:26,0.24810292,-1.26810354,-2.45958375,0.98616664,0.06307751,0.059121110000000004,0.28607417,-31.25818527,-5.12334096,-96.72248649999997,-1.5198309049999998,-1.2178232139999998,1.555729324,0.75802616608,0.08023364640000002,-0.7142151521
03:46:26,0.2500244,-1.28190805,-2.480343625,0.9920953,0.06565032500000001,0.06069782500000001,0.291772775,-31.260869024999998,-5.099664199999999,-98.50506874999999,-1.5321124375,-1.231234955,1.5697562299999999,0.7632134016,0.08289408799999998,-0.71962773575
03:46:26,0.25194588,-1.29571256,-2.5011035,0.9980239599999999,0.06822314000000002,0.06227454000000002,0.29747137999999995,-31.263552779999998,-5.07598744,-100.28765100000001,-1.54439397,-1.244646696,1.583783136,0.76840063712,0.08555452959999998,-0.7250403194
03:46:26,0.25386736,-1.3095170699999998,-2.521863375,1.00395262,0.07079595500000002,0.063851255,0.3031699849999999,-31.266236534999997,-5.05231068,-102.07023324999997,-1.5566755024999999,-1.258058437,1.5978100419999999,0.77358787264,0.08821497119999999,-0.73045290305
03:46:26,0.25578884,-1.3233215799999998,-2.54262325,1.0098812799999999,0.07336877000000003,0.06542797,0.30886859,-31.26892029,-5.02863392,-103.85281549999999,-1.568957035,-1.2714701780000002,1.611836948,0.77877510816,0.0908754128,-0.7358654867
03:46:26,0.25771032,-1.3371260899999997,-2.563383125,1.01580994,0.07594158500000003,0.06700468500000001,0.31456719499999997,-31.271604045,-5.00495716,-105.63539775000001,-1.5812385675,-1.2848819189999998,1.6258638539999999,0.78396234368,0.09353585440000001,-0.74127807035
03:46:26,0.2596318,-1.3509305999999996,-2.584143,1.0217386,0.07851439999999998,0.06858140000000001,0.32026579999999993,-31.2742878,-4.981280399999999,-107.41798000000003,-1.5935200999999999,-1.29829366,1.6398907600000001,0.7891495792,0.09619629600000001,-0.746690654
03:46:26,0.26155328,-1.36473511,-2.604902875,1.0276672599999999,0.08108721499999999,0.07015811500000002,0.325964405,-31.276971555,-4.95760364,-109.20056224999999,-1.6058016325,-1.311705401,1.653917666,0.79433681472,0.09885673760000002,-0.75210323765
03:46:26,0.26347476000000003,-1.37853962,-2.62566275,1.03359592,0.08366003,0.07173483000000003,0.33166301,-31.27965531,-4.93392688,-110.98314450000001,-1.618083165,-1.325117142,1.6679445719999997,0.79952405024,0.10151717919999997,-0.7575158213000001
03:46:26,0.26539624,-1.39234413,-2.646422625,1.03952458,0.086232845,0.07331154500000003,0.33736161499999995,-31.282339065,-4.91025012,-112.76572675000003,-1.6303646975000001,-1.3385288830000002,1.681971478,0.80471128576,0.10417762079999998,-0.76292840495
03:46:26,0.26731772,-1.4061486399999998,-2.6671825,1.0454532399999998,0.08880566000000001,0.07488825999999998,0.3430602199999999,-31.28502282,-4.88657336,-114.54830899999999,-1.64264623,-1.3519406239999998,1.6959983839999997,0.80989852128,0.10683806239999999,-0.7683409886
03:46:26,0.2692392,-1.4199531499999998,-2.687942375,1.0513819,0.09137847500000001,0.07646497499999999,0.348758825,-31.287706574999998,-4.862896599999999,-116.33089125000001,-1.6549277624999998,-1.365352365,1.71002529,0.8150857568,0.109498504,-0.77375357225
03:46:26,0.27116068,-1.4337576599999997,-2.70870225,1.05731056,0.09395129000000002,0.07804169,0.35445742999999996,-31.290390329999997,-4.83921984,-118.11347350000003,-1.6672092950000001,-1.378764106,1.7240521959999997,0.82027299232,0.1121589456,-0.7791661559
03:46:26,0.27308216,-1.4475621699999996,-2.7294621250000004,1.0632392199999998,0.09652410500000003,0.079618405,0.36015603499999993,-31.293074085,-4.815543079999999,-119.89605574999999,-1.6794908275,-1.392175847,1.738079102,0.82546022784,0.11481938720000001,-0.78457873955
03:46:26,0.27500364,-1.46136668,-2.7502220000000004,1.06916788,0.09909692000000003,0.08119512000000001,0.36585464,-31.29575784,-4.79186632,-121.678638,-1.6917723599999999,-1.4055875880000002,1.7521060079999997,0.83064746336,0.11747982880000002,-0.7899913232
03:46:26,0.27692512,-1.47517119,-2.7709818750000004,1.0750965399999999,0.10166973500000004,0.08277183500000002,0.371553245,-31.298441595,-4.76818956,-123.46122025000003,-1.7040538924999997,-1.4189993289999998,1.766132914,0.83583469888,0.12014027040000003,-0.7954039068500001
03:46:26,0.2788466,-1.4889757,-2.7917417500000004,1.0810252,0.10424254999999999,0.08434855000000002,0.37725184999999994,-31.30112535,-4.7445128,-125.24380249999999,-1.716335425,-1.43241107,1.7801598199999997,0.8410219344,0.12280071199999998,-0.8008164905
03:46:26,0.28076808,-1.5027802099999998,-2.8125016250000003,1.08695386,0.106815365,0.08592526500000003,0.3829504549999999,-31.303809105,-4.72083604,-127.02638475,-1.7286169574999999,-1.445822811,1.794186726,0.84620916992,0.12546115359999999,-0.80622907415
03:46:26,0.28268956,-1.5165847199999998,-2.8332615000000003,1.0928825199999999,0.10938818,0.08750198000000003,0.38864906,-31.30649286,-4.697159279999999,-128.80896700000002,-1.7408984899999997,-1.459234552,1.8082136319999997,0.85139640544,0.1281215952,-0.8116416578
03:46:26,0.28461104,-1.5303892299999997,-2.8540213750000003,1.09881118,0.11196099500000001,0.08907869499999999,0.39434766499999996,-31.309176615,-4.673482519999999,-130.59154924999999,-1.7531800225,-1.4726462930000002,1.822240538,0.85658364096,0.1307820368,-0.81705424145
03:46:26,0.28653252,-1.5441937399999996,-2.8747812500000003,1.10473984,0.11453381000000001,0.09065540999999999,0.4000462699999999,-31.311860369999998,-4.64980576,-132.3741315,-1.765461555,-1.4860580339999998,1.8362674439999997,0.86177087648,0.1334424784,-0.8224668251
03:46:26,0.288454,-1.55799825,-2.8955411250000003,1.1106685,0.11710662500000002,0.092232125,0.405744875,-31.314544124999998,-4.626129,-134.15671375000002,-1.7777430874999998,-1.499469775,1.85029435,0.866958112,0.13610292000000002,-0.82787940875
03:46:26,0.29037548,-1.57180276,-2.9163010000000003,1.11659716,0.11967944000000003,0.09380884,0.41144347999999986,-31.317227879999997,-4.60245224,-135.93929599999998,-1.79002462,-1.512881516,1.8643212559999998,0.87214534752,0.13876336160000002,-0.8332919924000001
03:46:26,0.29229696,-1.58560727,-2.9370608750000002,1.12252582,0.12225225500000003,0.09538555500000001,0.41714208499999994,-31.319911635,-4.57877548,-137.72187825,-1.8023061525,-1.526293257,1.878348162,0.87733258304,0.14142380319999998,-0.83870457605
03:46:26,0.29421844,-1.5994117799999998,-2.95782075,1.12845448,0.12482507000000004,0.09696227000000002,0.42284069,-31.32259539,-4.555098719999999,-139.50446050000002,-1.8145876849999998,-1.5397049980000002,1.8923750679999998,0.88251981856,0.14408424479999998,-0.8441171597
03:46:26,0.29613992,-1.6132162899999998,-2.978580625,1.13438314,0.127397885,0.09853898500000002,0.4285392949999999,-31.325279145,-4.531421959999999,-141.28704274999998,-1.8268692175,-1.5531167389999998,1.906401974,0.88770705408,0.1467446864,-0.84952974335
03:46:26,0.2980614,-1.6270207999999997,-2.9993405,1.1403117999999999,0.1299707,0.10011570000000003,0.43423789999999995,-31.3279629,-4.5077452,-143.069625,-1.83915075,-1.56652848,1.9204288799999998,0.8928942896,0.149405128,-0.8549423270000001
03:46:26,0.29998288,-1.6408253099999996,-3.020100375,1.14624046,0.132543515,0.10169241499999998,0.43993650500000003,-31.330646655,-4.48406844,-144.85220725000002,-1.8514322824999998,-1.579940221,1.934455786,0.89808152512,0.1520655696,-0.86035491065
03:46:26,0.30190436,-1.65462982,-3.04086025,1.15216912,0.13511633,0.10326912999999999,0.4456351099999999,-31.33333041,-4.46039168,-146.63478949999998,-1.863713815,-1.593351962,1.9484826919999998,0.90326876064,0.1547260112,-0.8657674943
03:46:26,0.30382584,-1.66843433,-3.061620125,1.1580977799999999,0.137689145,0.104845845,0.45133371499999997,-31.336014164999998,-4.43671492,-148.41737175,-1.8759953475,-1.6067637030000002,1.962509598,0.90845599616,0.15738645280000002,-0.87118007795
03:46:26,0.30574732,-1.68223884,-3.08238,1.16402644,0.14026196000000002,0.10642256,0.45703232000000005,-31.338697919999998,-4.413038159999999,-150.19995400000002,-1.8882768799999998,-1.6201754439999998,1.9765365039999998,0.91364323168,0.16004689440000003,-0.8765926616
03:46:26,0.3076688,-1.6960433499999998,-3.103139875,1.1699551,0.14283477500000002,0.107999275,0.4627309249999999,-31.341381674999997,-4.389361399999999,-151.98253624999998,-1.9005584125000001,-1.6335871849999999,1.99056341,0.9188304672,0.16270733599999998,-0.8820052452500001
03:46:26,0.30959028,-1.7098478599999998,-3.12389975,1.17588376,0.14540759000000003,0.10957599000000001,0.46842953,-31.34406543,-4.36568464,-153.7651185,-1.912839945,-1.646998926,2.004590316,0.92401770272,0.1653677776,-0.8874178289
03:46:26,0.31151176,-1.7236523699999997,-3.144659625,1.18181242,0.14798040500000004,0.11115270500000002,0.47412813500000006,-31.346749185,-4.34200788,-155.54770075000002,-1.9251214774999998,-1.660410667,2.018617222,0.92920493824,0.1680282192,-0.8928304125500001
03:46:26,0.31343324,-1.7374568799999996,-3.1654195,1.18774108,0.15055322,0.11272942000000002,0.4798267399999999,-31.34943294,-4.31833112,-157.33028299999998,-1.9374030099999997,-1.6738224080000002,2.032644128,0.9343921737599999,0.17068866080000006,-0.8982429961999999
03:46:26,0.31535472,-1.75126139,-3.186179375,1.19366974,0.153126035,0.11430613500000003,0.485525345,-31.352116695,-4.29465436,-159.11286525,-1.9496845425,-1.6872341489999998,2.046671034,0.9395794092799999,0.17334910239999995,-0.90365557985
03:46:26,0.3172762,-1.7650659,-3.20693925,1.1995984,0.15569885,0.11588284999999998,0.49122394999999985,-31.35480045,-4.270977599999999,-160.89544750000002,-1.9619660749999999,-1.7006458899999999,2.06069794,0.9447666447999999,0.17600954399999996,-0.9090681635000001
03:46:26,0.31919768,-1.77887041,-3.227699125,1.2055270599999999,0.158271665,0.11745956499999999,0.49692255499999993,-31.357484205,-4.247300839999999,-162.67802974999998,-1.9742476074999997,-1.714057631,2.074724846,0.9499538803199999,0.17866998559999997,-0.9144807471499999
03:46:26,0.32111916,-1.7926749199999998,-3.2484590000000004,1.21145572,0.16084448,0.11903628,0.50262116,-31.36016796,-4.22362408,-164.460612,-1.98652914,-1.727469372,2.088751752,0.9551411158399999,0.18133042719999998,-0.9198933308
03:46:26,0.32304064,-1.8064794299999998,-3.269218875,1.21738438,0.16341729500000002,0.120612995,0.5083197649999999,-31.362851714999998,-4.19994732,-166.24319425000002,-1.9988106724999999,-1.7408811130000001,2.1027786579999996,0.9603283513599999,0.18399086879999998,-0.9253059144500001
03:46:26,0.32496212,-1.8202839399999997,-3.2899787500000004,1.2233130399999999,0.16599011000000002,0.12218971,0.51401837,-31.365535469999998,-4.17627056,-168.02577649999998,-2.0110922049999997,-1.7542928539999998,2.116805564,0.9655155868799999,0.1866513104,-0.9307184981
03:46:26,0.3268836,-1.8340884499999996,-3.310738625,1.2292417,0.16856292500000003,0.12376642500000001,0.519716975,-31.368219224999997,-4.152593799999999,-169.80835875,-2.0233737375,-1.7677045949999999,2.1308324699999996,0.9707028223999999,0.189311752,-0.93613108175
03:46:26,0.32880508,-1.84789296,-3.3314985000000004,1.23517036,0.17113573999999998,0.12534314000000002,0.5254155799999999,-31.37090298,-4.128917039999999,-171.59094100000002,-2.03565527,-1.781116336,2.144859376,0.9758900579199999,0.1919721936,-0.9415436654000001
03:46:26,0.33072656,-1.86169747,-3.352258375,1.24109902,0.17370855500000004,0.12691985500000003,0.531114185,-31.373586735,-4.105240279999999,-173.37352324999998,-2.0479368024999998,-1.794528077,2.1588862819999997,0.9810772934399999,0.19463263520000001,-0.94695624905
03:46:26,0.33264804,-1.87550198,-3.3730182500000003,1.24702768,0.17628137,0.12849657000000003,0.53681279,-31.37627049,-4.08156352,-175.1561055,-2.060218335,-1.8079398180000001,2.172913188,0.9862645289599999,0.19729307680000002,-0.9523688327000001
03:46:26,0.33456952,-1.8893064899999998,-3.393778125,1.25295634,0.17885418500000005,0.13007328499999998,0.5425113949999999,-31.378954245,-4.05788676,-176.93868775,-2.0724998675,-1.8213515589999998,2.1869400939999997,0.9914517644799999,0.19995351840000003,-0.9577814163499999
03:46:27,0.336491,-1.903111,-3.414538,1.258885,0.181427,0.13165,0.54821,-31.381638,-4.03421,-178.72127,-2.0847814,-1.8347633,2.200967,0.996639,0.20261396,-0.963194
03:46:27,0.32628748999999996,-1.87506119,-3.3992492999999997,1.25109198,0.181187295,0.13389256,0.5537162099999999,-31.360919615,-3.9979957849999996,-178.6871492,-2.0850059415,-1.8088169185,2.19946281,0.9929329413500001,0.201304827225,-0.95872108975
03:46:27,0.31608398,-1.84701138,-3.3839606,1.24329896,0.18094759,0.13613512,0.55922242,-31.340201229999998,-3.96178157,-178.6530284,-2.0852304829999997,-1.7828705370000002,2.19795862,0.9892268827,0.19999569445,-0.9542481795
03:46:27,0.30588046999999996,-1.81896157,-3.3686719,1.2355059400000001,0.180707885,0.13837768,0.56472863,-31.319482845,-3.9255673549999996,-178.6189076,-2.0854550245,-1.7569241555000001,2.1964544299999997,0.9855208240500001,0.198686561675,-0.94977526925
03:46:27,0.29567696,-1.79091176,-3.3533831999999997,1.22771292,0.18046818,0.14062023999999998,0.57023484,-31.298764459999997,-3.88935314,-178.58478680000002,-2.0856795659999996,-1.730977774,2.19495024,0.9818147654,0.1973774289,-0.945302359
03:46:27,0.28547344999999996,-1.76286195,-3.3380945,1.2199199,0.180228475,0.14286279999999998,0.57574105,-31.278046075,-3.8531389249999997,-178.550666,-2.0859041074999998,-1.7050313925,2.19344605,0.9781087067500001,0.196068296125,-0.94082944875
03:46:27,0.27526994,-1.73481214,-3.3228058,1.21212688,0.17998877,0.14510536,0.5812472599999999,-31.25732769,-3.81692471,-178.5165452,-2.086128649,-1.6790850110000002,2.19194186,0.9744026481000001,0.19475916335000001,-0.9363565385
03:46:27,0.26506642999999996,-1.70676233,-3.3075170999999997,1.20433386,0.179749065,0.14734792,0.58675347,-31.236609304999998,-3.7807104949999997,-178.4824244,-2.0863531904999997,-1.6531386295000001,2.19043767,0.97069658945,0.19345003057500001,-0.93188362825
03:46:27,0.25486292,-1.67871252,-3.2922284,1.19654084,0.17950936,0.14959048,0.59225968,-31.21589092,-3.74449628,-178.4483036,-2.086577732,-1.627192248,2.1889334799999998,0.9669905308000001,0.19214089780000002,-0.927410718
03:46:27,0.24465940999999997,-1.65066271,-3.2769397,1.1887478200000001,0.179269655,0.15183303999999997,0.59776589,-31.195172534999998,-3.7082820649999997,-178.4141828,-2.0868022734999996,-1.6012458665000002,2.18742929,0.96328447215,0.19083176502500002,-0.92293780775
03:46:27,0.2344559,-1.6226129,-3.2616509999999996,1.1809548,0.17902995,0.15407559999999998,0.6032721,-31.17445415,-3.67206785,-178.380062,-2.0870268149999998,-1.5752994850000002,2.1859251,0.9595784135000001,0.18952263225000002,-0.9184648975
03:46:27,0.22425238999999997,-1.59456309,-3.2463623,1.17316178,0.17879024500000001,0.15631815999999998,0.6087783099999999,-31.153735765,-3.6358536349999997,-178.3459412,-2.0872513565,-1.5493531035,2.18442091,0.9558723548500001,0.18821349947500002,-0.91399198725
03:46:27,0.21404887999999997,-1.5665132800000001,-3.2310735999999998,1.16536876,0.17855054,0.15856072,0.61428452,-31.13301738,-3.59963942,-178.31182040000002,-2.0874758979999997,-1.5234067220000003,2.1829167199999997,0.9521662962,0.18690436670000002,-0.909519077
03:46:27,0.20384536999999997,-1.53846347,-3.2157849,1.15757574,0.178310835,0.16080328,0.61979073,-31.112298995,-3.5634252049999997,-178.2776996,-2.0877004395,-1.4974603405000002,2.18141253,0.9484602375500001,0.18559523392500002,-0.90504616675
03:46:27,0.19364185999999997,-1.51041366,-3.2004962,1.14978272,0.17807113,0.16304584,0.62529694,-31.091580609999998,-3.52721099,-178.2435788,-2.087924981,-1.4715139590000001,2.17990834,0.9447541789,0.18428610115,-0.9005732565
03:46:27,0.18343834999999997,-1.48236385,-3.1852074999999997,1.1419897,0.17783142500000002,0.1652884,0.63080315,-31.070862225,-3.4909967749999997,-178.209458,-2.0881495224999997,-1.4455675775,2.17840415,0.9410481202500001,0.182976968375,-0.89610034625
03:46:27,0.17323483999999997,-1.45431404,-3.1699188,1.13419668,0.17759172,0.16753095999999998,0.6363093599999999,-31.05014384,-3.45478256,-178.1753372,-2.088374064,-1.419621196,2.17689996,0.9373420616,0.1816678356,-0.891627436
03:46:27,0.16303132999999997,-1.4262642300000001,-3.1546301,1.12640366,0.177352015,0.16977351999999998,0.64181557,-31.029425455,-3.4185683449999997,-178.1412164,-2.0885986054999996,-1.3936748145000002,2.1753957699999997,0.93363600295,0.180358702825,-0.88715452575
03:46:27,0.15282781999999998,-1.39821442,-3.1393413999999997,1.11861064,0.17711231,0.17201608,0.64732178,-31.00870707,-3.38235413,-178.1070956,-2.088823147,-1.3677284330000001,2.17389158,0.9299299443000001,0.17904957005,-0.8826816155
03:46:27,0.14262430999999998,-1.37016461,-3.1240527,1.11081762,0.17687260500000002,0.17425864,0.65282799,-30.987988684999998,-3.3461399149999997,-178.0729748,-2.0890476885,-1.3417820515,2.17238739,0.92622388565,0.177740437275,-0.87820870525
03:46:27,0.13242079999999998,-1.3421148,-3.108764,1.1030246,0.1766329,0.17650119999999997,0.6583342,-30.9672703,-3.3099257,-178.03885400000001,-2.0892722299999997,-1.3158356700000002,2.1708832,0.9225178270000001,0.1764313045,-0.873735795
03:46:27,0.12221728999999998,-1.3140649899999999,-3.0934752999999997,1.09523158,0.176393195,0.17874375999999997,0.6638404099999999,-30.946551914999997,-3.2737114849999998,-178.0047332,-2.0894967715,-1.2898892885000002,2.16937901,0.91881176835,0.175122171725,-0.86926288475
03:46:27,0.11201377999999998,-1.2860151800000001,-3.0781866,1.08743856,0.17615349,0.18098631999999998,0.66934662,-30.92583353,-3.23749727,-177.9706124,-2.0897213129999996,-1.2639429070000001,2.1678748199999998,0.9151057097,0.17381303895,-0.8647899745000001
03:46:27,0.10181026999999998,-1.25796537,-3.0628979,1.07964554,0.17591378500000002,0.18322887999999998,0.67485283,-30.905115145,-3.2012830549999998,-177.9364916,-2.0899458545,-1.2379965255000003,2.16637063,0.9113996510500001,0.172503906175,-0.86031706425
03:46:27,0.09160675999999995,-1.22991556,-3.0476092,1.07185252,0.17567408,0.18547144,0.6803590399999999,-30.884396759999998,-3.16506884,-177.9023708,-2.090170396,-1.2120501440000002,2.16486644,0.9076935924,0.1711947734,-0.855844154
03:46:27,0.08140324999999998,-1.20186575,-3.0323205,1.0640595,0.175434375,0.187714,0.68586525,-30.863678375,-3.128854625,-177.86825,-2.0903949374999997,-1.1861037625000002,2.16336225,0.9039875337500001,0.169885640625,-0.85137124375
03:46:27,0.07119973999999996,-1.17381594,-3.0170318,1.0562664800000001,0.17519467,0.18995656,0.6913714599999999,-30.842959989999997,-3.0926404099999996,-177.8341292,-2.090619479,-1.1601573810000003,2.1618580599999997,0.9002814751,0.16857650785,-0.8468983335
03:46:27,0.060996229999999985,-1.1457661300000002,-3.0017430999999997,1.04847346,0.17495496500000002,0.19219911999999997,0.69687767,-30.822241605,-3.056426195,-177.8000084,-2.0908440204999996,-1.1342109995,2.16035387,0.89657541645,0.167267375075,-0.84242542325
03:46:27,0.05079271999999996,-1.11771632,-2.9864544,1.04068044,0.17471526,0.19444167999999998,0.70238388,-30.80152322,-3.02021198,-177.7658876,-2.091068562,-1.1082646180000002,2.15884968,0.8928693578,0.1659582423,-0.8379525130000001
03:46:27,0.04058920999999999,-1.08966651,-2.9711657,1.03288742,0.174475555,0.19668423999999998,0.70789009,-30.780804834999998,-2.983997765,-177.7317668,-2.0912931035,-1.0823182365000001,2.15734549,0.88916329915,0.164649109525,-0.83347960275
03:46:27,0.03038569999999996,-1.0616167,-2.955877,1.0250944,0.17423585,0.1989268,0.7133963,-30.76008645,-2.9477835499999996,-177.697646,-2.0915176449999997,-1.056371855,2.1558413,0.8854572405000001,0.16333997675,-0.8290066925
03:46:27,0.02018218999999999,-1.03356689,-2.9405883,1.0173013800000001,0.173996145,0.20116935999999996,0.7189025099999999,-30.739368064999997,-2.911569335,-177.6635252,-2.0917421865,-1.0304254735000002,2.1543371099999997,0.88175118185,0.162030843975,-0.82453378225
03:46:27,0.009978679999999962,-1.0055170800000002,-2.9252995999999998,1.00950836,0.17375644,0.20341191999999997,0.72440872,-30.71864968,-2.87535512,-177.6294044,-2.091966728,-1.0044790920000002,2.15283292,0.8780451232,0.1607217112,-0.820060872
03:46:27,-0.0002248300000000647,-0.9774672700000001,-2.9100108999999996,1.00171534,0.173516735,0.20565447999999997,0.72991493,-30.697931295,-2.839140905,-177.59528360000002,-2.0921912695,-0.9785327105000002,2.15132873,0.87433906455,0.159412578425,-0.81558796175
03:46:27,-0.010428340000000036,-0.94941746,-2.8947222,0.99392232,0.17327703,0.20789703999999998,0.7354211399999999,-30.677212909999998,-2.8029266899999996,-177.5611628,-2.092415811,-0.9525863290000002,2.14982454,0.8706330059,0.15810344565,-0.8111150515
03:46:27,-0.020631850000000063,-0.9213676500000001,-2.8794334999999998,0.9861293,0.173037325,0.21013959999999998,0.74092735,-30.656494525,-2.766712475,-177.527042,-2.0926403524999997,-0.9266399475000002,2.14832035,0.8669269472500001,0.156794312875,-0.80664214125
03:46:27,-0.030835360000000034,-0.8933178400000001,-2.8641448,0.97833628,0.17279762,0.21238216,0.7464335599999999,-30.635776139999997,-2.73049826,-177.4929212,-2.092864894,-0.9006935660000002,2.1468161599999998,0.8632208886,0.1554851801,-0.8021692309999999
03:46:27,-0.04103887000000006,-0.86526803,-2.8488561,0.97054326,0.172557915,0.21462472,0.75193977,-30.615057755,-2.694284045,-177.4588004,-2.0930894355,-0.8747471845000002,2.14531197,0.8595148299500001,0.154176047325,-0.79769632075
03:46:27,-0.05124238000000003,-0.83721822,-2.8335673999999997,0.9627502400000001,0.17231821,0.21686728,0.75744598,-30.59433937,-2.6580698299999996,-177.4246796,-2.0933139769999998,-0.8488008030000002,2.14380778,0.8558087713,0.15286691455,-0.7932234105
03:46:27,-0.06144589000000006,-0.8091684100000001,-2.8182787,0.95495722,0.172078505,0.21910984,0.76295219,-30.573620984999998,-2.621855615,-177.3905588,-2.0935385185,-0.8228544215000002,2.14230359,0.85210271265,0.151557781775,-0.7887505002499999
03:46:27,-0.07164940000000003,-0.7811186000000001,-2.80299,0.9471642,0.1718388,0.22135239999999998,0.7684584,-30.5529026,-2.5856414,-177.356438,-2.0937630599999997,-0.7969080400000002,2.1407993999999997,0.8483966540000001,0.150248649,-0.78427759
03:46:27,-0.08185291000000006,-0.7530687900000002,-2.7877013,0.93937118,0.171599095,0.22359495999999998,0.7739646099999999,-30.532184214999997,-2.549427185,-177.32231720000001,-2.0939876015,-0.7709616585000003,2.13929521,0.84469059535,0.148939516225,-0.77980467975
03:46:27,-0.09205642000000003,-0.72501898,-2.7724126,0.93157816,0.17135939,0.22583751999999999,0.77947082,-30.51146583,-2.5132129699999997,-177.2881964,-2.094212143,-0.7450152770000003,2.13779102,0.8409845367000001,0.14763038345,-0.7753317694999999
03:46:27,-0.10225993000000005,-0.69696917,-2.7571239,0.92378514,0.171119685,0.22808007999999996,0.78497703,-30.490747445,-2.476998755,-177.2540756,-2.0944366844999998,-0.7190688955000002,2.13628683,0.83727847805,0.14632125067500001,-0.77085885925
03:46:27,-0.11246344000000003,-0.6689193600000001,-2.7418351999999997,0.9159921200000001,0.17087998000000001,0.23032263999999997,0.7904832399999999,-30.470029059999998,-2.44078454,-177.2199548,-2.094661226,-0.6931225140000001,2.13478264,0.8335724194,0.14501211790000001,-0.766385949
03:46:27,-0.12266695000000005,-0.6408695500000001,-2.7265465,0.9081991,0.170640275,0.23256519999999997,0.79598945,-30.449310675,-2.404570325,-177.185834,-2.0948857674999997,-0.6671761325000003,2.1332784499999997,0.8298663607500001,0.14370298512500002,-0.7619130387499999
03:46:27,-0.13287046000000002,-0.6128197400000002,-2.7112578,0.90040608,0.17040057,0.23480775999999998,0.80149566,-30.428592289999997,-2.3683561099999997,-177.1517132,-2.095110309,-0.6412297510000002,2.13177426,0.8261603021,0.14239385235000002,-0.7574401285
03:46:27,-0.14307397000000005,-0.58476993,-2.6959691,0.89261306,0.170160865,0.23705031999999998,0.8070018699999999,-30.407873905,-2.332141895,-177.1175924,-2.0953348505,-0.6152833695000002,2.13027007,0.8224542434500001,0.14108471957500002,-0.75296721825
03:46:27,-0.15327748000000008,-0.55672012,-2.6806804,0.88482004,0.16992116000000002,0.23929287999999999,0.81250808,-30.38715552,-2.2959276799999997,-177.0834716,-2.0955593919999997,-0.5893369880000003,2.12876588,0.8187481848,0.13977558680000002,-0.7484943079999999
03:46:27,-0.16348099000000005,-0.5286703100000001,-2.6653917,0.87702702,0.169681455,0.24153544,0.81801429,-30.366437134999998,-2.259713465,-177.0493508,-2.0957839335,-0.5633906065000003,2.12726169,0.81504212615,0.13846645402500002,-0.74402139775
03:46:27,-0.17368450000000002,-0.5006205000000001,-2.6501029999999997,0.8692340000000001,0.16944175,0.243778,0.8235205,-30.34571875,-2.2234992499999997,-177.01523,-2.0960084749999996,-0.5374442250000002,2.1257574999999997,0.8113360675000001,0.13715732125000002,-0.7395484875
03:46:27,-0.1838880100000001,-0.4725706900000002,-2.6348143,0.86144098,0.169202045,0.24602055999999997,0.82902671,-30.325000364999998,-2.1872850349999995,-176.9811092,-2.0962330165,-0.5114978435000002,2.12425331,0.80763000885,0.13584818847500002,-0.73507557725
03:46:27,-0.19409152000000007,-0.44452088,-2.6195256,0.85364796,0.16896234,0.24826311999999998,0.83453292,-30.30428198,-2.1510708199999997,-176.9469884,-2.096457558,-0.4855514620000003,2.12274912,0.8039239502000001,0.13453905570000002,-0.730602667
03:46:27,-0.20429503000000004,-0.41647107000000005,-2.6042369,0.8458549399999999,0.168722635,0.25050567999999995,0.84003913,-30.283563594999997,-2.114856605,-176.9128676,-2.0966820994999997,-0.45960508050000026,2.12124493,0.80021789155,0.13322992292500002,-0.72612975675
03:46:27,-0.21449854000000002,-0.3884212600000001,-2.5889482,0.83806192,0.16848293,0.25274823999999996,0.8455453399999999,-30.26284521,-2.0786423899999997,-176.87874680000002,-2.096906641,-0.4336586990000002,2.11974074,0.7965118329,0.13192079015000002,-0.7216568465
03:46:27,-0.2247020500000001,-0.36037145000000015,-2.5736594999999998,0.8302689000000001,0.168243225,0.25499079999999996,0.85105155,-30.242126825,-2.0424281749999995,-176.844626,-2.0971311825,-0.40771231750000014,2.1182365499999998,0.7928057742500001,0.13061165737500002,-0.71718393625
03:46:27,-0.23490556000000007,-0.3323216400000002,-2.5583708,0.82247588,0.16800352,0.25723335999999997,0.8565577600000001,-30.221408439999998,-2.0062139599999997,-176.8105052,-2.097355724,-0.3817659360000003,2.11673236,0.7890997156,0.1293025246,-0.712711026
