Timestamp,linacce_x,linacce_y,linacce_z,gyro_x,gyro_y,gyro_z,X-magnetometer,Y-magnetometer,Z-magnetometer,Yaw, worldXAccel,worldYAccel,worldZAccel,worldXgyro,worldYgyro,worldZgyro
08:34:38,-0.813261,1.133868,-0.54925,-0.093747,0.314652,0.044532,18.667915,-59.342754,25.604042,-151.39374,-0.9888839,1.1537776,1.1319672,-0.045792032,0.2960804,0.12806718
08:34:38,-0.808246725,1.129368445,-0.54777794,-0.08969334999999999,0.31399681,0.045741170000000005,18.68039547,-59.331581555,25.615494295,-151.4039717,-0.9848189470000001,1.14929325335,1.1260871865000002,-0.04290891084,0.2955221347,0.1237877579
08:34:38,-0.80323245,1.1248688900000001,-0.54630588,-0.0856397,0.31334162,0.04695034,18.69287594,-59.32040911,25.62694659,-151.41420340000002,-0.9807539940000001,1.1448089067,1.120207173,-0.04002578968000001,0.2949638694,0.1195083358
08:34:38,-0.798218175,1.1203693350000001,-0.54483382,-0.08158605,0.31268642999999996,0.04815951,18.70535641,-59.309236665,25.638398885,-151.4244351,-0.9766890410000001,1.14032456005,1.1143271595000002,-0.037142668520000005,0.2944056041,0.1152289137
08:34:38,-0.7932039,1.1158697800000001,-0.54336176,-0.0775324,0.31203124,0.04936868,18.71783688,-59.29806422,25.64985118,-151.4346668,-0.972624088,1.1358402133999999,1.108447146,-0.03425954736,0.2938473388,0.1109494916
08:34:38,-0.788189625,1.1113702250000002,-0.5418897,-0.07347875,0.31137605,0.05057785,18.73031735,-59.286891775,25.661303475,-151.44489850000002,-0.968559135,1.1313558667499999,1.1025671325000002,-0.0313764262,0.2932890735,0.1066700695
08:34:38,-0.78317535,1.1068706700000002,-0.54041764,-0.06942509999999999,0.31072086,0.05178702,18.74279782,-59.27571933,25.67275577,-151.4551302,-0.964494182,1.1268715201,1.096687119,-0.028493305040000003,0.2927308082,0.1023906474
08:34:38,-0.778161075,1.1023711150000002,-0.53894558,-0.06537145,0.31006566999999996,0.05299619,18.75527829,-59.264546885,25.684208065,-151.4653619,-0.960429229,1.12238717345,1.0908071055000002,-0.025610183880000005,0.2921725429,0.0981112253
08:34:38,-0.7731468,1.0978715600000002,-0.53747352,-0.06131779999999999,0.30941048,0.05420536,18.76775876,-59.25337444,25.69566036,-151.4755936,-0.9563642760000001,1.1179028268,1.084927092,-0.022727062720000003,0.2916142776,0.09383180320000001
08:34:38,-0.768132525,1.093372005,-0.53600146,-0.05726414999999999,0.30875529,0.055414530000000004,18.78023923,-59.242201995,25.707112655,-151.48582530000002,-0.9522993230000001,1.11341848015,1.0790470785000001,-0.01984394156,0.2910560123,0.0895523811
08:34:38,-0.76311825,1.08887245,-0.5345294,-0.053210499999999994,0.3081001,0.0566237,18.7927197,-59.23102955,25.71856495,-151.496057,-0.94823437,1.1089341335,1.073167065,-0.016960820400000003,0.29049774700000003,0.08527295900000001
08:34:38,-0.758103975,1.084372895,-0.53305734,-0.04915684999999999,0.30744490999999996,0.05783287,18.80520017,-59.219857105,25.730017245,-151.5062887,-0.944169417,1.10444978685,1.0672870515000001,-0.014077699240000005,0.2899394817,0.0809935369
08:34:38,-0.7530897,1.07987334,-0.53158528,-0.04510319999999999,0.30678972,0.059042040000000004,18.81768064,-59.20868466,25.74146954,-151.51652040000002,-0.940104464,1.0999654401999999,1.061407038,-0.011194578080000003,0.28938121640000003,0.0767141148
08:34:38,-0.748075425,1.075373785,-0.53011322,-0.04104954999999999,0.30613453,0.06025121,18.830161110000002,-59.197512214999996,25.752921835,-151.5267521,-0.936039511,1.09548109355,1.0555270245000001,-0.008311456920000002,0.2888229511,0.0724346927
08:34:38,-0.74306115,1.07087423,-0.52864116,-0.036995899999999984,0.30547934,0.06146038,18.842641580000002,-59.18633977,25.76437413,-151.5369838,-0.9319745580000001,1.0909967469,1.049647011,-0.005428335760000007,0.28826468580000003,0.0681552706
08:34:38,-0.738046875,1.066374675,-0.5271691000000001,-0.032942249999999985,0.30482414999999996,0.06266955,18.855122050000002,-59.175167325,25.775826424999998,-151.5472155,-0.9279096050000001,1.08651240025,1.0437669975000001,-0.002545214600000005,0.2877064205,0.0638758485
08:34:38,-0.7330326,1.06187512,-0.5256970400000001,-0.028888599999999987,0.30416896,0.06387872,18.867602520000002,-59.16399488,25.78727872,-151.5574472,-0.9238446520000001,1.0820280536,1.037886984,0.0003379065599999967,0.28714815520000003,0.0595964264
08:34:38,-0.728018325,1.057375565,-0.5242249800000001,-0.02483494999999998,0.30351377,0.06508789,18.880082990000002,-59.152822435,25.798731015,-151.5676789,-0.919779699,1.07754370695,1.0320069705000001,0.0032210277199999984,0.2865898899,0.0553170043
08:34:38,-0.72300405,1.05287601,-0.5227529200000001,-0.02078129999999999,0.30285858,0.06629705999999999,18.89256346,-59.14164999,25.81018331,-151.5779106,-0.915714746,1.0730593603,1.026126957,0.00610414888,0.28603162460000003,0.0510375822
08:34:38,-0.717989775,1.048376455,-0.5212808600000001,-0.016727649999999983,0.30220338999999996,0.06750623,18.90504393,-59.130477545,25.821635605,-151.58814230000002,-0.911649793,1.06857501365,1.0202469435000001,0.008987270039999995,0.2854733593,0.0467581601
08:34:38,-0.7129755,1.0438769,-0.5198088000000001,-0.01267399999999999,0.3015482,0.0687154,18.9175244,-59.1193051,25.8330879,-151.598374,-0.9075848400000001,1.0640906669999999,1.01436693,0.011870391199999997,0.28491509400000004,0.042478738
08:34:38,-0.707961225,1.0393773450000001,-0.51833674,-0.008620349999999985,0.30089301,0.06992456999999999,18.93000487,-59.108132655,25.844540195,-151.6086057,-0.9035198870000001,1.05960632035,1.0084869165,0.014753512359999998,0.2843568287,0.0381993159
08:34:38,-0.70294695,1.0348777900000001,-0.51686468,-0.004566699999999979,0.30023782,0.07113374,18.94248534,-59.09696021,25.85599249,-151.61883740000002,-0.899454934,1.0551219737,1.002606903,0.017636633519999993,0.28379856340000004,0.0339198938
08:34:38,-0.697932675,1.0303782350000001,-0.51539262,-0.0005130499999999871,0.29958262999999996,0.07234291,18.95496581,-59.085787765,25.867444785,-151.6290691,-0.895389981,1.05063762705,0.9967268895000001,0.020519754679999995,0.2832402981,0.029640471700000004
08:34:38,-0.6929184,1.0258786800000002,-0.51392056,0.0035406000000000187,0.29892744,0.07355207999999999,18.96744628,-59.07461532,25.87889708,-151.6393008,-0.891325028,1.0461532804,0.9908468760000001,0.023402875839999997,0.28268203280000004,0.02536104959999999
08:34:38,-0.687904125,1.0213791250000002,-0.5124485,0.007594250000000025,0.29827225,0.07476125,18.97992675,-59.063442875,25.890349375,-151.64953250000002,-0.887260075,1.04166893375,0.9849668625000001,0.026285997,0.2821237675,0.02108162749999999
08:34:38,-0.68288985,1.0168795700000002,-0.51097644,0.011647900000000017,0.29761706,0.07597042,18.99240722,-59.05227043,25.90180167,-151.6597642,-0.883195122,1.0371845871,0.9790868490000001,0.02916911816,0.28156550220000004,0.016802205399999992
08:34:38,-0.6778755750000001,1.0123800150000002,-0.50950438,0.015701550000000022,0.29696186999999996,0.07717958999999999,19.00488769,-59.041097985,25.913253965,-151.6699959,-0.8791301690000001,1.03270024045,0.9732068355000001,0.03205223932,0.2810072369,0.012522783299999993
08:34:38,-0.6728613,1.00788046,-0.50803232,0.01975520000000003,0.29630668,0.07838876,19.01736816,-59.02992554,25.92470626,-151.6802276,-0.8750652160000001,1.0282158938,0.9673268220000001,0.03493536047999999,0.28044897160000004,0.008243361199999993
08:34:38,-0.667847025,1.003380905,-0.50656026,0.02380885000000002,0.29565149,0.07959793,19.02984863,-59.018753095,25.936158555,-151.69045930000001,-0.871000263,1.02373154715,0.9614468085000001,0.03781848163999999,0.2798907063,0.003963939099999994
08:34:38,-0.66283275,0.9988813500000001,-0.5050882,0.027862500000000026,0.2949963,0.08080709999999999,19.0423291,-59.00758065,25.94761085,-151.700691,-0.86693531,1.0192472005,0.9555667950000001,0.04070160279999999,0.279332441,-0.0003154830000000053
08:34:38,-0.657818475,0.994381795,-0.50361614,0.03191615000000003,0.29434110999999996,0.08201627,19.05480957,-58.996408205,25.959063145000002,-151.7109227,-0.862870357,1.01476285385,0.9496867815000001,0.043584723959999995,0.2787741757,-0.004594905099999991
08:34:38,-0.6528042000000001,0.98988224,-0.50214408,0.035969800000000024,0.29368592,0.08322544,19.06729004,-58.98523576,25.97051544,-151.72115440000002,-0.858805404,1.0102785072,0.9438067680000001,0.04646784512,0.27821591040000004,-0.008874327200000004
08:34:38,-0.647789925,0.985382685,-0.50067202,0.040023450000000016,0.29303073,0.08443461,19.07977051,-58.974063315,25.981967735,-151.7313861,-0.8547404510000001,1.00579416055,0.9379267545000001,0.04935096628,0.2776576451,-0.013153749300000017
08:34:38,-0.64277565,0.98088313,-0.49919996,0.044077100000000036,0.29237554,0.08564378,19.09225098,-58.96289087,25.99342003,-151.7416178,-0.8506754980000001,1.0013098139,0.9320467410000001,0.05223408744,0.2770993798,-0.017433171400000003
08:34:38,-0.637761375,0.9763835750000001,-0.4977279,0.04813075000000003,0.29172034999999996,0.08685295,19.10473145,-58.951718425,26.004872325,-151.7518495,-0.8466105450000001,0.99682546725,0.9261667275000001,0.0551172086,0.2765411145,-0.021712593500000016
08:34:38,-0.6327471,0.9718840200000001,-0.49625584,0.05218440000000002,0.29106516,0.08806212,19.11721192,-58.94054598,26.01632462,-151.7620812,-0.842545592,0.9923411206,0.9202867140000001,0.058000329760000004,0.2759828492,-0.0259920156
08:34:38,-0.627732825,0.9673844650000001,-0.49478378,0.05623805000000004,0.29040997,0.08927129,19.12969239,-58.929373535,26.027776915,-151.7723129,-0.838480639,0.9878567739499999,0.9144067005000001,0.06088345091999999,0.2754245839,-0.030271437700000015
08:34:38,-0.62271855,0.9628849100000001,-0.49331172,0.06029170000000003,0.28975478,0.09048046,19.142172860000002,-58.91820109,26.03922921,-151.7825446,-0.834415686,0.9833724273,0.908526687,0.06376657208,0.2748663186,-0.0345508598
08:34:38,-0.617704275,0.9583853550000001,-0.49183966,0.06434535000000002,0.28909958999999996,0.09168963,19.154653330000002,-58.907028645,26.050681505,-151.7927763,-0.8303507330000001,0.97888808065,0.9026466735,0.06664969324,0.2743080533,-0.03883028190000001
08:34:38,-0.61269,0.9538858000000001,-0.4903676,0.06839900000000002,0.2884444,0.0928988,19.167133800000002,-58.8958562,26.0621338,-151.803008,-0.8262857800000001,0.974403734,0.89676666,0.0695328144,0.273749788,-0.043109704
08:34:38,-0.607675725,0.9493862450000001,-0.48889554,0.07245265000000004,0.28778921,0.09410797,19.179614270000002,-58.884683755,26.073586095,-151.8132397,-0.822220827,0.96991938735,0.8908866465,0.07241593556,0.2731915227,-0.04738912610000001
08:34:38,-0.60266145,0.9448866900000001,-0.48742348,0.07650630000000003,0.28713402,0.09531714,19.19209474,-58.87351131,26.08503839,-151.82347140000002,-0.8181558740000001,0.9654350407,0.885006633,0.07529905672000001,0.2726332574,-0.0516685482
08:34:38,-0.597647175,0.940387135,-0.48595142,0.08055995000000002,0.28647882999999996,0.09652631,19.20457521,-58.862338865,26.096490685,-151.8337031,-0.814090921,0.96095069405,0.8791266195,0.07818217788000001,0.2720749921,-0.05594797030000001
08:34:38,-0.5926329,0.93588758,-0.48447936,0.08461360000000004,0.28582364,0.09773548,19.21705568,-58.85116642,26.10794298,-151.8439348,-0.810025968,0.9564663474,0.8732466060000001,0.08106529903999998,0.2715167268,-0.060227392399999996
08:34:38,-0.587618625,0.9313880250000001,-0.48300730000000003,0.08866725000000003,0.28516845,0.09894465,19.22953615,-58.839993975,26.119395275,-151.85416650000002,-0.8059610150000001,0.95198200075,0.8673665925,0.08394842019999998,0.2709584615,-0.06450681450000001
08:34:38,-0.58260435,0.9268884700000001,-0.48153524000000003,0.09272090000000002,0.28451326,0.10015382,19.24201662,-58.82882153,26.13084757,-151.8643982,-0.8018960620000001,0.9474976541,0.8614865790000001,0.08683154135999999,0.2704001962,-0.0687862366
08:34:38,-0.577590075,0.9223889150000001,-0.48006318000000003,0.09677455000000004,0.28385806999999996,0.10136298999999999,19.25449709,-58.817649085,26.142299865000002,-151.8746299,-0.7978311090000001,0.94301330745,0.8556065655,0.08971466251999999,0.2698419309,-0.07306565870000001
08:34:38,-0.5725758,0.9178893600000001,-0.47859112000000004,0.10082820000000003,0.28320288,0.10257216,19.26697756,-58.80647664,26.15375216,-151.8848616,-0.793766156,0.9385289608,0.8497265520000001,0.09259778367999999,0.2692836656,-0.07734508080000002
08:34:38,-0.567561525,0.9133898050000001,-0.47711906000000004,0.10488185000000003,0.28254769,0.10378133,19.27945803,-58.795304195,26.165204455,-151.8950933,-0.789701203,0.93404461415,0.8438465385,0.09548090483999999,0.26872540030000003,-0.0816245029
08:34:38,-0.5625472499999999,0.90889025,-0.47564700000000004,0.10893550000000005,0.2818925,0.10499049999999999,19.2919385,-58.78413175,26.17665675,-151.905325,-0.78563625,0.9295602675,0.8379665250000001,0.098364026,0.268167135,-0.08590392500000002
08:34:38,-0.557532975,0.904390695,-0.47417494000000004,0.11298915000000004,0.28123730999999996,0.10619967,19.30441897,-58.772959305,26.188109045,-151.9155567,-0.781571297,0.92507592085,0.8320865115,0.10124714716,0.26760886970000003,-0.0901833471
08:34:38,-0.5525187,0.89989114,-0.47270288,0.11704280000000003,0.28058212,0.10740883999999999,19.31689944,-58.76178686,26.19956134,-151.92578840000002,-0.7775063440000001,0.9205915741999999,0.8262064980000001,0.10413026832,0.2670506044,-0.09446276920000002
08:34:38,-0.5475044250000001,0.895391585,-0.47123082,0.12109645000000005,0.27992693,0.10861801,19.32937991,-58.750614415,26.211013635,-151.9360201,-0.7734413910000001,0.91610722755,0.8203264845,0.10701338948,0.26649233910000003,-0.0987421913
08:34:38,-0.54249015,0.8908920300000001,-0.46975876,0.12515010000000004,0.27927174,0.10982718,19.34186038,-58.73944197,26.22246593,-151.9462518,-0.7693764380000001,0.9116228809,0.8144464710000001,0.10989651064,0.2659340738,-0.10302161340000002
08:34:38,-0.5374758749999999,0.8863924750000001,-0.4682867,0.12920375000000003,0.27861654999999996,0.11103634999999999,19.35434085,-58.728269525,26.233918225,-151.9564835,-0.765311485,0.90713853425,0.8085664575,0.1127796318,0.26537580850000003,-0.1073010355
08:34:38,-0.5324616,0.8818929200000001,-0.46681464,0.13325740000000005,0.27796136,0.11224552,19.36682132,-58.71709708,26.24537052,-151.9667152,-0.761246532,0.9026541876,0.8026864440000001,0.11566275295999998,0.2648175432,-0.11158045760000002
08:34:38,-0.527447325,0.8773933650000001,-0.46534258,0.13731105000000005,0.27730617,0.11345469,19.37930179,-58.705924635,26.256822815,-151.9769469,-0.757181579,0.8981698409500001,0.7968064305000001,0.11854587411999998,0.26425927790000003,-0.1158598797
08:34:38,-0.5224330500000001,0.8728938100000001,-0.46387052,0.14136470000000004,0.27665098,0.11466385999999999,19.39178226,-58.69475219,26.26827511,-151.9871786,-0.7531166260000001,0.8936854943,0.7909264170000001,0.12142899527999998,0.2637010126,-0.12013930180000001
08:34:38,-0.517418775,0.8683942550000001,-0.46239846,0.14541835000000003,0.27599578999999996,0.11587302999999999,19.40426273,-58.683579745,26.279727405,-151.9974103,-0.7490516730000001,0.88920114765,0.7850464035000001,0.12431211643999998,0.26314274730000003,-0.12441872390000003
08:34:38,-0.5124044999999999,0.8638947000000001,-0.4609264,0.14947200000000005,0.2753406,0.1170822,19.4167432,-58.6724073,26.2911797,-152.007642,-0.74498672,0.8847168009999999,0.7791663900000001,0.12719523759999998,0.262584482,-0.128698146
08:34:38,-0.507390225,0.8593951450000001,-0.45945434,0.15352565000000004,0.27468541,0.11829136999999999,19.42922367,-58.661234855000004,26.302631995,-152.0178737,-0.7409217670000001,0.88023245435,0.7732863765000001,0.13007835875999998,0.26202621670000004,-0.1329775681
08:34:38,-0.50237595,0.85489559,-0.45798228,0.15757930000000006,0.27403022,0.11950053999999999,19.44170414,-58.650062410000004,26.31408429,-152.02810540000002,-0.736856814,0.8757481077,0.7674063630000001,0.13296147992,0.2614679514,-0.13725699019999998
08:34:38,-0.497361675,0.850396035,-0.45651022,0.16163295000000003,0.27337502999999996,0.12070971,19.454184610000002,-58.638889965,26.325536585000002,-152.0383371,-0.732791861,0.87126376105,0.7615263495000001,0.13584460108,0.2609096861,-0.14153641230000003
08:34:38,-0.4923474,0.8458964800000001,-0.45503816,0.16568660000000004,0.27271984,0.12191888,19.466665080000002,-58.62771752,26.33698888,-152.0485688,-0.7287269080000001,0.8667794144000001,0.7556463360000001,0.13872772224,0.2603514208,-0.1458158344
08:34:38,-0.487333125,0.8413969250000001,-0.4535661,0.16974025000000006,0.27206465,0.12312804999999999,19.479145550000002,-58.616545075,26.348441175,-152.05880050000002,-0.7246619550000001,0.86229506775,0.7497663225000001,0.1416108434,0.25979315550000004,-0.1500952565
08:34:38,-0.48231884999999997,0.8368973700000001,-0.45209404000000003,0.17379390000000003,0.27140946,0.12433722,19.49162602,-58.60537263,26.35989347,-152.0690322,-0.7205970020000001,0.8578107211,0.7438863090000001,0.14449396456,0.2592348902,-0.15437467860000004
08:34:38,-0.477304575,0.832397815,-0.45062198,0.17784755000000005,0.27075426999999996,0.12554639,19.50410649,-58.594200185,26.371345765,-152.0792639,-0.716532049,0.8533263744499999,0.7380062955000001,0.14737708572,0.2586766249,-0.15865410070000002
08:34:38,-0.4722903,0.82789826,-0.44914992,0.18190120000000007,0.27009908,0.12675556,19.51658696,-58.58302774,26.38279806,-152.0894956,-0.7124670960000001,0.8488420278,0.7321262820000001,0.15026020688,0.2581183596,-0.1629335228
08:34:38,-0.467276025,0.823398705,-0.44767786,0.18595485000000003,0.26944389,0.12796473,19.52906743,-58.571855295,26.394250355,-152.0997273,-0.708402143,0.84435768115,0.7262462685000001,0.15314332804,0.2575600943,-0.1672129449
08:34:38,-0.46226174999999997,0.81889915,-0.4462058,0.19000850000000005,0.2687887,0.1291739,19.5415479,-58.56068285,26.405702650000002,-152.109959,-0.7043371900000001,0.8398733345,0.7203662550000001,0.1560264492,0.257001829,-0.17149236700000003
08:34:38,-0.457247475,0.814399595,-0.44473374,0.19406215000000007,0.26813350999999996,0.13038307,19.55402837,-58.549510405,26.417154945,-152.1201907,-0.7002722370000001,0.83538898785,0.7144862415000001,0.15890957036,0.2564435637,-0.17577178910000002
08:34:38,-0.4522332,0.80990004,-0.44326168,0.19811580000000004,0.26747832,0.13159223999999997,19.56650884,-58.53833796,26.42860724,-152.13042240000001,-0.6962072840000001,0.8309046412000001,0.7086062280000001,0.16179269152,0.2558852984,-0.1800512112
08:34:38,-0.447218925,0.805400485,-0.44178962,0.20216945000000006,0.26682313,0.13280141,19.57898931,-58.527165515,26.440059535,-152.1406541,-0.6921423310000001,0.82642029455,0.7027262145000002,0.16467581267999998,0.2553270331,-0.1843306333
08:34:38,-0.44220465,0.8009009300000001,-0.44031756,0.20622310000000008,0.26616794,0.13401058,19.59146978,-58.51599307,26.45151183,-152.1508858,-0.688077378,0.8219359479,0.696846201,0.16755893383999998,0.2547687678,-0.18861005540000003
08:34:38,-0.43719037499999996,0.7964013750000001,-0.4388455,0.21027675000000004,0.26551274999999996,0.13521974999999997,19.60395025,-58.504820625,26.462964125,-152.1611175,-0.6840124250000001,0.8174516012499999,0.6909661875000002,0.17044205499999998,0.2542105025,-0.19288947750000002
08:34:38,-0.4321761,0.7919018200000001,-0.43737344,0.21433040000000006,0.26485756,0.13642892,19.61643072,-58.49364818,26.47441642,-152.1713492,-0.679947472,0.8129672546,0.685086174,0.17332517615999998,0.2536522372,-0.1971688996
08:34:38,-0.427161825,0.7874022650000001,-0.43590138,0.21838405000000008,0.26420237,0.13763809,19.62891119,-58.482475735,26.485868715000002,-152.1815809,-0.6758825190000001,0.80848290795,0.6792061605000002,0.17620829731999998,0.2530939719,-0.2014483217
08:34:38,-0.42214755,0.7829027100000001,-0.43442932,0.22243770000000004,0.26354718,0.13884725999999997,19.64139166,-58.47130329,26.49732101,-152.1918126,-0.6718175660000001,0.8039985613,0.673326147,0.17909141848,0.2525357066,-0.20572774380000003
08:34:38,-0.41713327499999997,0.7784031550000001,-0.43295726,0.22649135000000006,0.26289198999999996,0.14005643,19.65387213,-58.460130845,26.508773305000002,-152.2020443,-0.667752613,0.79951421465,0.6674461335000001,0.18197453964,0.2519774413,-0.21000716590000001
08:34:38,-0.412119,0.7739036,-0.4314852,0.23054500000000003,0.2622368,0.1412656,19.6663526,-58.4489584,26.5202256,-152.212276,-0.6636876600000001,0.7950298680000001,0.66156612,0.1848576608,0.251419176,-0.214286588
08:34:38,-0.407104725,0.769404045,-0.43001314,0.23459865000000005,0.26158161,0.14247476999999997,19.67883307,-58.437785955,26.531677895,-152.2225077,-0.659622707,0.79054552135,0.6556861065000001,0.18774078196,0.2508609107,-0.21856601010000004
08:34:38,-0.40209045,0.76490449,-0.42854108,0.23865230000000007,0.26092642,0.14368394,19.69131354,-58.42661351,26.54313019,-152.2327394,-0.655557754,0.7860611747,0.649806093,0.19062390312,0.2503026454,-0.22284543220000003
08:34:38,-0.397076175,0.7604049350000001,-0.42706902,0.24270595000000003,0.26027122999999996,0.14489311,19.70379401,-58.415441065,26.554582485,-152.2429711,-0.6514928010000001,0.78157682805,0.6439260795000001,0.19350702428,0.2497443801,-0.2271248543
08:34:38,-0.39206189999999996,0.7559053800000001,-0.42559696,0.24675960000000005,0.25961604,0.14610227999999997,19.71627448,-58.40426862,26.56603478,-152.2532028,-0.6474278480000001,0.7770924814,0.638046066,0.19639014544,0.24918611480000002,-0.2314042764
08:34:38,-0.387047625,0.751405825,-0.4241249,0.2508132500000001,0.25896085,0.14731145,19.72875495,-58.393096175000004,26.577487075,-152.26343450000002,-0.6433628950000001,0.77260813475,0.6321660525000001,0.1992732666,0.2486278495,-0.23568369850000004
08:34:38,-0.38203335,0.74690627,-0.42265284000000003,0.2548669,0.25830566,0.14852062,19.74123542,-58.381923730000004,26.588939370000002,-152.2736662,-0.639297942,0.7681237881,0.6262860390000001,0.20215638776,0.2480695842,-0.23996312060000002
08:34:38,-0.377019075,0.742406715,-0.42118078000000003,0.25892055,0.25765046999999996,0.14972978999999997,19.753715890000002,-58.370751285000004,26.600391665,-152.2838979,-0.6352329890000001,0.7636394414500001,0.6204060255000001,0.20503950891999997,0.2475113189,-0.2442425427
08:34:38,-0.37200479999999997,0.73790716,-0.41970872000000004,0.26297420000000005,0.25699528,0.15093896,19.766196360000002,-58.35957884,26.61184396,-152.2941296,-0.631168036,0.7591550948000001,0.6145260120000001,0.20792263007999998,0.2469530536,-0.2485219648
08:34:38,-0.36699052499999996,0.733407605,-0.41823666000000004,0.26702785000000007,0.25634009,0.15214813,19.778676830000002,-58.348406395,26.623296255,-152.3043613,-0.6271030830000001,0.75467074815,0.6086459985000001,0.21080575123999998,0.2463947883,-0.25280138690000004
08:34:38,-0.36197625,0.72890805,-0.41676460000000004,0.2710815000000001,0.2556849,0.15335729999999997,19.791157300000002,-58.33723395,26.63474855,-152.314593,-0.6230381300000001,0.7501864015,0.6027659850000001,0.21368887239999998,0.245836523,-0.257080809
08:34:38,-0.356961975,0.724408495,-0.41529254000000004,0.2751351500000001,0.25502970999999997,0.15456646999999998,19.80363777,-58.326061505,26.646200845,-152.3248247,-0.6189731770000001,0.74570205485,0.5968859715000001,0.21657199355999998,0.2452782577,-0.2613602311
08:34:38,-0.3519477,0.71990894,-0.41382048000000005,0.2791888,0.25437452,0.15577564,19.81611824,-58.31488906,26.65765314,-152.3350564,-0.6149082240000001,0.7412177082,0.5910059580000001,0.21945511471999998,0.2447199924,-0.2656396532
08:34:38,-0.34693342499999996,0.7154093850000001,-0.41234842000000005,0.28324245000000003,0.25371933,0.15698480999999997,19.82859871,-58.303716615,26.669105435000002,-152.3452881,-0.610843271,0.73673336155,0.5851259445000001,0.22233823587999998,0.2441617271,-0.26991907530000003
08:34:38,-0.34191915,0.7109098300000001,-0.41087636,0.28729610000000005,0.25306414,0.15819397999999998,19.84107918,-58.29254417,26.68055773,-152.3555198,-0.6067783180000001,0.7322490149,0.5792459310000001,0.22522135704,0.2436034618,-0.2741984974
08:34:38,-0.336904875,0.7064102750000001,-0.4094043,0.2913497500000001,0.25240894999999997,0.15940315,19.85355965,-58.281371725,26.692010025000002,-152.3657515,-0.6027133650000001,0.7277646682500001,0.5733659175000001,0.2281044782,0.2430451965,-0.2784779195
08:34:38,-0.3318906,0.7019107200000001,-0.40793224,0.2954034000000001,0.25175376,0.16061231999999998,19.86604012,-58.27019928,26.70346232,-152.3759832,-0.5986484120000001,0.7232803216,0.5674859040000001,0.23098759936,0.2424869312,-0.28275734160000005
08:34:38,-0.32687632499999997,0.6974111650000001,-0.40646018,0.2994570500000001,0.25109857,0.16182148999999998,19.87852059,-58.259026835,26.714914615,-152.3862149,-0.5945834590000001,0.71879597495,0.5616058905000001,0.23387072052,0.2419286659,-0.28703676370000003
08:34:38,-0.32186204999999996,0.6929116100000001,-0.40498812,0.3035107,0.25044338,0.16303066,19.89100106,-58.24785439,26.72636691,-152.3964466,-0.590518506,0.7143116283,0.5557258770000001,0.23675384168,0.2413704006,-0.2913161858
08:34:38,-0.316847775,0.688412055,-0.40351606,0.30756435000000004,0.24978819,0.16423982999999998,19.90348153,-58.236681945,26.737819205,-152.4066783,-0.5864535530000001,0.70982728165,0.5498458635000001,0.23963696284,0.2408121353,-0.2955956079
08:34:38,-0.3118335,0.6839125,-0.402044,0.31161800000000006,0.249133,0.16544899999999998,19.915962,-58.2255095,26.7492715,-152.41691,-0.5823886,0.705342935,0.5439658500000001,0.242520084,0.24025387,-0.29987503000000004
08:34:38,-0.30681922500000003,0.679412945,-0.40057194,0.3156716500000001,0.24847781,0.16665817,19.92844247,-58.214337055,26.760723795,-152.4271417,-0.578323647,0.70085858835,0.5380858365000001,0.24540320516,0.2396956047,-0.30415445210000003
08:34:38,-0.30180494999999996,0.6749133900000001,-0.39909988,0.3197253000000001,0.24782262,0.16786733999999998,19.94092294,-58.20316461,26.772176090000002,-152.4373734,-0.5742586940000001,0.6963742417000001,0.5322058230000001,0.24828632632,0.2391373394,-0.3084338742
08:34:38,-0.296790675,0.670413835,-0.39762782,0.3237789500000001,0.24716743,0.16907650999999999,19.95340341,-58.191992165,26.783628385,-152.4476051,-0.5701937410000001,0.6918898950500001,0.5263258095000001,0.25116944748000003,0.2385790741,-0.3127132963
08:34:38,-0.29177639999999994,0.66591428,-0.39615575999999997,0.32783260000000003,0.24651224,0.17028568,19.96588388,-58.18081972,26.79508068,-152.4578368,-0.5661287880000001,0.6874055484,0.5204457960000001,0.25405256864000003,0.2380208088,-0.31699271840000004
08:34:38,-0.286762125,0.661414725,-0.39468369999999997,0.33188625000000005,0.24585705,0.17149484999999998,19.97836435,-58.169647275,26.806532975,-152.46806850000002,-0.562063835,0.68292120175,0.5145657825000001,0.25693568980000003,0.2374625435,-0.3212721405
08:34:38,-0.28174785,0.65691517,-0.39321164,0.33593990000000007,0.24520186,0.17270402,19.99084482,-58.15847483,26.81798527,-152.4783002,-0.5579988820000001,0.6784368551,0.5086857690000001,0.25981881096000004,0.2369042782,-0.3255515626
08:34:38,-0.27673357499999995,0.652415615,-0.39173958,0.3399935500000001,0.24454667,0.17391319,20.00332529,-58.147302385,26.829437565,-152.4885319,-0.553933929,0.67395250845,0.5028057555000001,0.26270193212000004,0.2363460129,-0.3298309847
08:34:38,-0.2717193,0.64791606,-0.39026752,0.3440472000000001,0.24389148,0.17512235999999998,20.01580576,-58.136129940000004,26.84088986,-152.4987636,-0.5498689760000001,0.6694681618,0.49692574200000006,0.26558505328000004,0.23578774759999999,-0.33411040680000004
08:34:38,-0.26670502499999993,0.643416505,-0.38879546,0.34810085000000013,0.24323629,0.17633153000000001,20.02828623,-58.124957495000004,26.852342155000002,-152.5089953,-0.5458040230000001,0.66498381515,0.49104572850000006,0.26846817444000004,0.23522948230000001,-0.3383898289
08:34:38,-0.26169074999999997,0.63891695,-0.3873234,0.35215450000000004,0.2425811,0.1775407,20.0407667,-58.113785050000004,26.86379445,-152.519227,-0.5417390700000001,0.6604994685000001,0.48516571500000005,0.27135129560000004,0.234671217,-0.342669251
08:34:38,-0.256676475,0.634417395,-0.38585134,0.35620815000000006,0.24192591,0.17874986999999998,20.05324717,-58.102612605000004,26.875246745000002,-152.5294587,-0.5376741170000001,0.6560151218500001,0.47928570150000005,0.27423441676000004,0.23411295170000002,-0.3469486731
08:34:38,-0.25166219999999995,0.6299178400000001,-0.38437928,0.3602618000000001,0.24127072,0.17995904000000001,20.06572764,-58.091440160000005,26.88669904,-152.5396904,-0.533609164,0.6515307752,0.47340568800000016,0.27711753792,0.2335546864,-0.35122809520000003
08:34:38,-0.246647925,0.6254182850000001,-0.38290722,0.3643154500000001,0.24061553,0.18116821,20.07820811,-58.080267715,26.898151335,-152.5499221,-0.5295442110000002,0.64704642855,0.46752567450000015,0.28000065908,0.23299642110000002,-0.3555075173
08:34:38,-0.24163364999999992,0.6209187300000001,-0.38143516,0.3683691000000001,0.23996034,0.18237737999999998,20.090688580000002,-58.06909527,26.90960363,-152.5601538,-0.5254792580000001,0.6425620819000001,0.46164566100000015,0.28288378024,0.2324381558,-0.3597869394
08:34:38,-0.23661937499999997,0.616419175,-0.3799631,0.37242275,0.23930515,0.18358654999999996,20.10316905,-58.057922825,26.921055925,-152.5703855,-0.5214143050000001,0.63807773525,0.45576564750000015,0.2857669014,0.23187989050000002,-0.36406636150000005
08:34:38,-0.2316051,0.61191962,-0.37849104,0.37647640000000004,0.23864996,0.18479572,20.11564952,-58.04675038,26.932508220000003,-152.5806172,-0.5173493520000001,0.6335933886,0.44988563400000015,0.28865002256,0.2313216252,-0.36834578360000003
08:34:38,-0.22659082499999994,0.607420065,-0.37701898,0.38053005000000006,0.23799477,0.18600488999999998,20.12812999,-58.035577935,26.943960515,-152.5908489,-0.513284399,0.6291090419500001,0.44400562050000014,0.29153314372,0.23076335990000002,-0.3726252057000001
08:34:38,-0.22157654999999998,0.60292051,-0.37554692,0.3845837000000001,0.23733958,0.18721405999999996,20.14061046,-58.02440549,26.955412810000002,-152.6010806,-0.5092194460000001,0.6246246953000001,0.43812560700000014,0.29441626488,0.2302050946,-0.37690462780000006
08:34:38,-0.21656227500000003,0.598420955,-0.37407486,0.3886373500000001,0.23668439,0.18842323,20.15309093,-58.013233045,26.966865105,-152.6113123,-0.505154493,0.62014034865,0.43224559350000014,0.29729938604,0.22964682930000002,-0.38118404990000004
08:34:38,-0.21154799999999996,0.5939214,-0.3726028,0.3926910000000001,0.2360292,0.18963239999999998,20.1655714,-58.0020606,26.9783174,-152.621544,-0.50108954,0.615656002,0.42636558000000013,0.3001825072,0.229088564,-0.38546347200000003
08:34:38,-0.206533725,0.589421845,-0.37113074,0.39674465000000003,0.23537401,0.19084156999999996,20.17805187,-57.990888155,26.989769695,-152.6317757,-0.4970245870000001,0.6111716553500001,0.42048556650000013,0.30306562836,0.2285302987,-0.3897428941
08:34:38,-0.20151944999999993,0.5849222900000001,-0.36965868,0.40079830000000005,0.23471882,0.19205074,20.19053234,-57.97971571,27.00122199,-152.6420074,-0.4929596340000001,0.6066873087000001,0.4146055530000001,0.30594874952,0.2279720334,-0.3940223162
08:34:38,-0.19650517499999998,0.5804227350000001,-0.36818662,0.40485195000000007,0.23406363,0.19325990999999998,20.20301281,-57.968543265,27.012674285000003,-152.6522391,-0.4888946810000001,0.60220296205,0.4087255395000001,0.30883187068,0.2274137681,-0.3983017383
08:34:38,-0.19149090000000002,0.57592318,-0.36671456,0.4089056000000001,0.23340844,0.19446907999999996,20.21549328,-57.95737082,27.02412658,-152.6624708,-0.4848297280000001,0.5977186154,0.4028455260000001,0.31171499184,0.2268555028,-0.40258116039999997
08:34:38,-0.18647662499999995,0.571423625,-0.3652425,0.4129592500000001,0.23275325,0.19567825,20.22797375,-57.946198375,27.035578875000002,-152.6727025,-0.48076477500000003,0.5932342687500001,0.3969655125000001,0.314598113,0.2262972375,-0.40686058250000007
08:34:38,-0.18146235,0.56692407,-0.36377044000000003,0.4170129,0.23209806,0.19688741999999998,20.24045422,-57.93502593,27.04703117,-152.6829342,-0.47669982200000005,0.5887499221000001,0.3910854990000001,0.31748123416,0.2257389722,-0.41114000460000005
08:34:38,-0.17644807499999993,0.562424515,-0.36229838000000003,0.42106655000000004,0.23144287,0.19809658999999996,20.25293469,-57.923853485,27.058483465000002,-152.6931659,-0.47263486900000007,0.58426557545,0.3852054855000001,0.32036435532,0.2251807069,-0.41541942670000004
08:34:38,-0.17143379999999997,0.55792496,-0.36082632000000003,0.42512020000000006,0.23078768,0.19930576,20.26541516,-57.91268104,27.06993576,-152.7033976,-0.4685699160000001,0.5797812288,0.3793254720000001,0.32324747648,0.2246224416,-0.4196988488
08:34:38,-0.166419525,0.553425405,-0.35935426000000004,0.4291738500000001,0.23013249,0.20051492999999998,20.27789563,-57.901508595,27.081388055,-152.7136293,-0.4645049630000001,0.5752968821500001,0.3734454585000001,0.32613059764,0.2240641763,-0.4239782709
08:34:38,-0.16140524999999994,0.54892585,-0.35788220000000004,0.4332275000000001,0.2294773,0.20172409999999996,20.2903761,-57.89033615,27.09284035,-152.723861,-0.4604400100000001,0.5708125355,0.3675654450000001,0.3290137188,0.223505911,-0.428257693
08:34:38,-0.156390975,0.5444262950000001,-0.35641014000000004,0.43728115,0.22882211,0.20293327,20.30285657,-57.879163705,27.104292645,-152.7340927,-0.45637505700000014,0.56632818885,0.3616854315000001,0.33189683996,0.2229476457,-0.4325371151
08:34:38,-0.15137669999999992,0.5399267400000001,-0.35493808000000004,0.4413348,0.22816692,0.20414243999999998,20.31533704,-57.867991260000004,27.115744940000003,-152.7443244,-0.45231010400000005,0.5618438422,0.3558054180000001,0.33477996112,0.2223893804,-0.4368165372000001
08:34:38,-0.14636242499999996,0.535427185,-0.35346602,0.44538845000000005,0.22751173,0.20535160999999996,20.32781751,-57.856818815000004,27.127197235,-152.7545561,-0.44824515100000006,0.5573594955500001,0.3499254045000001,0.33766308228,0.2218311151,-0.44109595930000006
08:34:38,-0.14134815,0.53092763,-0.35199396,0.44944210000000007,0.22685654,0.20656078,20.34029798,-57.845646370000004,27.138649530000002,-152.7647878,-0.4441801980000001,0.5528751489,0.3440453910000001,0.34054620344000003,0.2212728498,-0.44537538140000005
08:34:38,-0.13633387499999994,0.526428075,-0.3505219,0.4534957500000001,0.22620135,0.20776994999999998,20.35277845,-57.834473925000005,27.150101825,-152.77501949999998,-0.4401152450000001,0.54839080225,0.3381653775000001,0.34342932460000003,0.2207145845,-0.44965480350000003
08:34:38,-0.13131959999999998,0.52192852,-0.34904984,0.4575494000000001,0.22554616,0.20897911999999996,20.36525892,-57.823301480000005,27.16155412,-152.7852512,-0.4360502920000001,0.5439064556000001,0.3322853640000001,0.34631244576000003,0.2201563192,-0.4539342256
08:34:38,-0.1263053249999999,0.517428965,-0.34757778,0.46160305,0.22489097,0.21018829,20.377739390000002,-57.812129035,27.173006415,-152.7954829,-0.43198533900000013,0.5394221089500001,0.3264053505000001,0.34919556692000003,0.21959805389999998,-0.4582136477
08:34:38,-0.12129104999999996,0.51292941,-0.34610572,0.46565670000000003,0.22423578,0.21139745999999998,20.390219860000002,-57.80095659,27.18445871,-152.8057146,-0.42792038600000004,0.5349377623,0.3205253370000001,0.35207868808000004,0.2190397886,-0.4624930698
08:34:38,-0.116276775,0.508429855,-0.34463366,0.46971035000000005,0.22358059,0.21260662999999996,20.402700330000002,-57.789784145,27.195911005,-152.8159463,-0.42385543300000006,0.53045341565,0.3146453235000001,0.35496180924000004,0.21848152329999998,-0.4667724919
08:34:38,-0.11126249999999993,0.5039303,-0.3431616,0.4737640000000001,0.2229254,0.2138158,20.4151808,-57.7786117,27.2073633,-152.826178,-0.4197904800000001,0.5259690690000001,0.30876531000000007,0.35784493040000004,0.217923258,-0.47105191400000007
08:34:38,-0.10624822499999997,0.49943074500000006,-0.34168954,0.4778176500000001,0.22227021,0.21502496999999998,20.42766127,-57.767439255,27.218815595000002,-152.8364097,-0.4157255270000001,0.5214847223500001,0.30288529650000007,0.36072805156000004,0.21736499269999998,-0.47533133610000006
08:34:38,-0.10123395000000002,0.49493118999999997,-0.34021748,0.4818713000000001,0.22161502,0.21623413999999996,20.44014174,-57.75626681,27.23026789,-152.8466414,-0.4116605740000001,0.5170003757,0.29700528300000006,0.36361117272000004,0.2168067274,-0.47961075820000004
08:34:38,-0.09621967499999995,0.490431635,-0.33874541999999996,0.48592495,0.22095983,0.21744331,20.45262221,-57.745094365,27.241720185000002,-152.8568731,-0.40759562100000013,0.51251602905,0.29112526950000006,0.36649429388000004,0.21624846209999998,-0.48389018030000003
08:34:38,-0.09120539999999999,0.48593208,-0.33727335999999997,0.48997860000000004,0.22030464,0.21865247999999998,20.46510268,-57.73392192,27.25317248,-152.8671048,-0.40353066800000015,0.5080316824000001,0.28524525600000006,0.36937741504000005,0.2156901968,-0.4881696024
08:34:38,-0.08619112499999992,0.481432525,-0.33580129999999997,0.49403225000000006,0.21964945,0.21986164999999996,20.47758315,-57.722749475,27.264624775,-152.8773365,-0.39946571500000005,0.5035473357500001,0.27936524250000017,0.3722605362,0.21513193149999998,-0.4924490245
08:34:38,-0.08117684999999997,0.47693297,-0.33432923999999997,0.4980859000000001,0.21899426,0.22107082,20.49006362,-57.71157703,27.27607707,-152.8875682,-0.39540076200000007,0.4990629891,0.27348522900000016,0.37514365736,0.2145736662,-0.4967284466
08:34:38,-0.07616257500000001,0.472433415,-0.33285718,0.5021395500000001,0.21833907,0.22227998999999998,20.50254409,-57.700404585,27.287529365,-152.8977999,-0.3913358090000001,0.49457864245000005,0.26760521550000016,0.37802677852,0.21401540089999999,-0.5010078687000001
08:34:38,-0.07114829999999994,0.46793386000000003,-0.33138512,0.5061932000000001,0.21768388,0.22348915999999996,20.51502456,-57.68923214,27.298981660000003,-152.9080316,-0.3872708560000001,0.4900942958000001,0.26172520200000016,0.38090989968,0.21345713560000001,-0.5052872908000001
08:34:38,-0.06613402499999999,0.46343430500000005,-0.32991306,0.51024685,0.21702869,0.22469833,20.52750503,-57.678059695,27.310433955,-152.9182633,-0.3832059030000001,0.4856099491500001,0.25584518850000015,0.38379302084,0.2128988703,-0.5095667129000001
08:34:38,-0.06111974999999992,0.45893475000000006,-0.328441,0.5143005,0.2163735,0.22590749999999998,20.5399855,-57.66688725,27.321886250000002,-152.928495,-0.37914095000000014,0.4811256025,0.24996517500000015,0.386676142,0.21234060500000002,-0.5138461350000001
08:34:38,-0.05610547499999996,0.45443519499999996,-0.32696894,0.5183541500000001,0.21571831,0.22711666999999996,20.55246597,-57.655714805,27.333338545,-152.9387267,-0.37507599700000005,0.47664125585000006,0.24408516150000015,0.38955926316,0.2117823397,-0.5181255571000001
08:34:38,-0.0510912,0.44993563999999997,-0.32549688,0.5224078000000001,0.21506312,0.22832584,20.56494644,-57.64454236,27.34479084,-152.9489584,-0.37101104400000007,0.4721569092000001,0.23820514800000014,0.39244238432,0.2112240744,-0.5224049792000001
08:34:38,-0.046076924999999935,0.445436085,-0.32402482,0.5264614500000001,0.21440793,0.22953500999999998,20.57742691,-57.633369915,27.356243135,-152.9591901,-0.3669460910000001,0.4676725625500001,0.23232513450000014,0.39532550548,0.2106658091,-0.5266844013
08:34:38,-0.04106264999999998,0.44093653,-0.32255276,0.5305151000000001,0.21375274,0.23074417999999997,20.58990738,-57.62219747,27.36769543,-152.9694218,-0.3628811380000001,0.46318821590000003,0.22644512100000014,0.39820862664,0.2101075438,-0.5309638234
08:34:38,-0.03604837499999991,0.436436975,-0.3210807,0.53456875,0.21309755,0.23195335,20.60238785,-57.611025025,27.379147725000003,-152.97965349999998,-0.3588161850000001,0.45870386925000006,0.22056510750000013,0.4010917478,0.2095492785,-0.5352432455
08:34:38,-0.031034099999999953,0.43193742,-0.31960864,0.5386224000000001,0.21244236,0.23316251999999998,20.61486832,-57.599852580000004,27.39060002,-152.9898852,-0.35475123200000014,0.4542195226000001,0.21468509400000013,0.40397486896,0.2089910132,-0.5395226676
08:34:38,-0.026019824999999996,0.42743786500000003,-0.31813658,0.5426760500000001,0.21178717,0.23437168999999997,20.62734879,-57.588680135000004,27.402052315000002,-153.0001169,-0.35068627900000005,0.4497351759500001,0.20880508050000013,0.40685799012,0.2084327479,-0.5438020897
08:34:38,-0.02100554999999993,0.42293831000000004,-0.31666452,0.5467297000000001,0.21113198,0.23558086,20.63982926,-57.577507690000004,27.41350461,-153.0103486,-0.34662132600000006,0.44525082930000004,0.20292506700000013,0.40974111128,0.2078744826,-0.5480815118
08:34:38,-0.01599127499999997,0.41843875500000005,-0.31519246,0.5507833500000001,0.21047679,0.23679002999999998,20.65230973,-57.566335245000005,27.424956905000002,-153.0205803,-0.3425563730000001,0.44076648265000007,0.19704505350000012,0.41262423244,0.2073162173,-0.5523609339
08:34:38,-0.010977000000000015,0.41393919999999995,-0.3137204,0.554837,0.2098216,0.23799919999999997,20.6647902,-57.555162800000005,27.4364092,-153.030812,-0.3384914200000001,0.4362821360000001,0.19116504000000012,0.4155073536,0.206757952,-0.556640356
08:34:38,-0.0059627249999999465,0.40943964499999996,-0.31224834,0.55889065,0.20916641,0.23920837,20.67727067,-57.543990355000005,27.447861495,-153.0410437,-0.3344264670000001,0.43179778935,0.18528502650000012,0.41839047476,0.2061996867,-0.5609197780999999
08:34:38,-0.0009484499999999896,0.40494009,-0.31077628,0.5629443000000001,0.20851122,0.24041753999999999,20.68975114,-57.532817910000006,27.459313790000003,-153.0512754,-0.33036151400000013,0.42731344270000005,0.1794050130000001,0.42127359592,0.2056414214,-0.5651992002000001
08:34:38,0.004065825000000078,0.400440535,-0.30930422,0.5669979500000001,0.20785603,0.24162670999999997,20.70223161,-57.521645465,27.470766085,-153.0615071,-0.32629656100000015,0.4228290960500001,0.1735249995000001,0.42415671708,0.2050831561,-0.5694786223000001
08:34:38,0.009080100000000035,0.39594098,-0.30783216,0.5710516000000001,0.20720084,0.24283588,20.71471208,-57.51047302,27.482218380000003,-153.0717388,-0.32223160800000006,0.4183447494000001,0.1676449860000001,0.42703983824,0.2045248908,-0.5737580444000001
08:34:38,0.014094374999999992,0.391441425,-0.3063601,0.5751052500000001,0.20654565,0.24404504999999999,20.72719255,-57.499300575,27.493670675,-153.0819705,-0.3181666550000001,0.41386040275,0.1617649725000001,0.4299229594,0.2039666255,-0.5780374665000001
08:34:38,0.01910865000000006,0.38694187,-0.30488804,0.5791589,0.20589046,0.24525421999999997,20.73967302,-57.48812813,27.505122970000002,-153.0922022,-0.3141017020000001,0.40937605610000005,0.1558849590000001,0.43280608056000003,0.2034083602,-0.5823168886000001
08:34:38,0.024122925000000017,0.38244231500000003,-0.30341598000000003,0.58321255,0.20523527,0.24646339,20.75215349,-57.476955685,27.516575265,-153.1024339,-0.3100367490000001,0.4048917094500001,0.1500049455000001,0.43568920172000003,0.2028500949,-0.5865963107000001
08:34:38,0.029137200000000085,0.37794276000000004,-0.30194392000000003,0.5872662000000001,0.20458008,0.24767255999999999,20.76463396,-57.46578324,27.52802756,-153.11266559999999,-0.30597179600000013,0.4004073628000001,0.1441249320000001,0.43857232288000003,0.2022918296,-0.5908757328
08:34:38,0.03415147500000004,0.37344320500000006,-0.30047186000000004,0.5913198500000001,0.20392489,0.24888172999999997,20.77711443,-57.454610795,27.539479855000003,-153.1228973,-0.30190684300000015,0.39592301615000003,0.1382449185000001,0.44145544404000003,0.2017335643,-0.5951551549
08:34:38,0.03916575,0.36894364999999996,-0.2989998,0.5953735000000001,0.2032697,0.2500909,20.7895949,-57.44343835,27.55093215,-153.133129,-0.29784189000000005,0.39143866950000006,0.1323649050000001,0.44433856520000004,0.20117529899999997,-0.599434577
08:34:38,0.04418002500000007,0.36444409499999997,-0.29752774,0.5994271500000001,0.20261451,0.25130007,20.80207537,-57.432265905,27.562384445000003,-153.1433607,-0.29377693700000007,0.3869543228500001,0.12648489150000009,0.44722168636000004,0.2006170337,-0.6037139991
08:34:38,0.049194300000000024,0.35994454,-0.29605568,0.6034808,0.20195932,0.25250923999999997,20.81455584,-57.42109346,27.57383674,-153.1535924,-0.2897119840000001,0.3824699762000001,0.12060487800000019,0.45010480752000004,0.20005876839999998,-0.6079934212
08:34:38,0.05420857500000009,0.355444985,-0.29458362,0.6075344500000001,0.20130413,0.25371841,20.82703631,-57.409921015,27.585289035000002,-153.1638241,-0.2856470310000001,0.37798562955000004,0.11472486450000008,0.45298792868000004,0.1995005031,-0.6122728433
08:34:38,0.05922285000000005,0.35094543,-0.29311156,0.6115881000000001,0.20064894,0.25492758,20.83951678,-57.39874857,27.59674133,-153.1740558,-0.2815820780000001,0.37350128290000006,0.10884485100000019,0.45587104984,0.19894223779999998,-0.6165522654
08:34:38,0.064237125,0.346445875,-0.2916395,0.6156417500000001,0.19999375,0.25613674999999997,20.85199725,-57.387576125,27.608193625000002,-153.18428749999998,-0.27751712500000014,0.3690169362500001,0.10296483750000007,0.458754171,0.1983839725,-0.6208316875
08:34:38,0.06925140000000007,0.34194632,-0.29016744,0.6196954000000001,0.19933856,0.25734592,20.86447772,-57.37640368,27.61964592,-153.1945192,-0.27345217200000005,0.3645325896000001,0.09708482400000018,0.46163729216,0.19782570719999998,-0.6251111095999999
08:34:38,0.07426567500000003,0.33744676500000004,-0.28869538,0.6237490500000001,0.19868337,0.25855509,20.87695819,-57.365231235,27.631098215,-153.2047509,-0.26938721900000007,0.36004824295000004,0.09120481050000007,0.46452041332,0.1972674419,-0.6293905317000001
08:34:38,0.0792799500000001,0.33294721000000005,-0.28722332,0.6278027,0.19802818,0.25976425999999997,20.88943866,-57.35405879,27.64255051,-153.21498259999998,-0.2653222660000001,0.35556389630000007,0.08532479700000017,0.46740353448,0.19670917659999998,-0.6336699538000001
08:34:38,0.08429422500000006,0.32844765499999995,-0.28575126,0.6318563500000001,0.19737299,0.26097342999999995,20.90191913,-57.342886345000004,27.654002805,-153.2252143,-0.2612573130000001,0.3510795496500001,0.07944478350000006,0.47028665564,0.1961509113,-0.6379493759000001
08:34:38,0.08930850000000001,0.32394809999999996,-0.2842792,0.6359100000000001,0.1967178,0.2621826,20.9143996,-57.331713900000004,27.665455100000003,-153.235446,-0.2571923600000001,0.34659520300000013,0.07356477000000017,0.4731697768,0.19559264599999998,-0.6422287980000001
08:34:38,0.09432277500000008,0.319448545,-0.28280714,0.6399636500000001,0.19606261,0.26339176999999997,20.92688007,-57.320541455000004,27.676907395,-153.2456777,-0.25312740700000014,0.34211085635000005,0.06768475650000005,0.47605289796,0.1950343807,-0.6465082201000001
08:34:38,0.09933705000000004,0.31494899,-0.28133508,0.6440173000000001,0.19540742,0.26460093999999995,20.93936054,-57.309369010000005,27.688359690000002,-153.2559094,-0.24906245400000016,0.3376265097000001,0.06180474300000016,0.47893601912,0.19447611539999998,-0.6507876422000001
08:34:38,0.104351325,0.310449435,-0.27986302,0.6480709500000001,0.19475223,0.26581011,20.95184101,-57.298196565000005,27.699811985,-153.2661411,-0.24499750100000006,0.3331421630500001,0.05592472950000005,0.48181914028,0.1939178501,-0.6550670643000001
08:34:38,0.10936560000000006,0.30594988,-0.27839096,0.6521246,0.19409704,0.26701927999999997,20.96432148,-57.287024120000005,27.71126428,-153.2763728,-0.24093254800000008,0.32865781640000014,0.050044716000000156,0.48470226144,0.19335958479999998,-0.6593464864
08:34:38,0.11437987500000002,0.301450325,-0.2769189,0.6561782500000001,0.19344185,0.26822844999999995,20.97680195,-57.275851675000006,27.722716575,-153.2866045,-0.2368675950000001,0.32417346975000005,0.04416470250000004,0.4875853826,0.19280131949999998,-0.6636259085
08:34:38,0.11939415000000009,0.29695077000000003,-0.27544684,0.6602319000000001,0.19278666,0.26943762,20.989282420000002,-57.264679230000006,27.73416887,-153.2968362,-0.23280264200000012,0.3196891231000001,0.03828468900000015,0.49046850376,0.19224305419999999,-0.6679053306
08:34:38,0.12440842500000004,0.29245121500000004,-0.27397478000000003,0.6642855500000001,0.19213147,0.27064678999999997,21.001762890000002,-57.253506785,27.745621165000003,-153.3070679,-0.22873768900000013,0.3152047764500001,0.032404675500000035,0.49335162492,0.19168478889999999,-0.6721847527
08:34:38,0.1294227,0.28795165999999994,-0.27250272,0.6683392000000001,0.19147628,0.27185595999999995,21.014243360000002,-57.24233434,27.75707346,-153.31729959999998,-0.22467273600000015,0.31072042980000014,0.026524662000000143,0.49623474608,0.1911265236,-0.6764641748
08:34:38,0.13443697500000007,0.28345210499999995,-0.27103066,0.6723928500000002,0.19082109,0.27306513,21.02672383,-57.231161895,27.768525755000002,-153.3275313,-0.22060778300000006,0.30623608315000006,0.02064464850000003,0.49911786724,0.1905682583,-0.6807435969
08:34:38,0.13945125000000003,0.27895254999999997,-0.2695586,0.6764465000000001,0.1901659,0.27427429999999997,21.0392043,-57.21998945,27.77997805,-153.337763,-0.21654283000000007,0.3017517365000001,0.014764635000000137,0.5020009884,0.190009993,-0.685023019
08:34:38,0.1444655250000001,0.274452995,-0.26808654,0.6805001500000001,0.18951071,0.27548346999999995,21.05168477,-57.208817005,27.791430345000002,-153.3479947,-0.2124778770000001,0.2972673898500001,0.008884621500000023,0.50488410956,0.1894517277,-0.6893024410999999
08:34:38,0.14947980000000005,0.26995344,-0.26661448,0.6845538000000001,0.18885552,0.27669264,21.06416524,-57.19764456,27.80288264,-153.3582264,-0.2084129240000001,0.29278304320000004,0.0030046080000001307,0.50776723072,0.1888934624,-0.6935818632000001
08:34:38,0.154494075,0.265453885,-0.26514242,0.6886074500000001,0.18820033,0.27790180999999997,21.07664571,-57.186472115,27.814334935,-153.3684581,-0.20434797100000013,0.28829869655000007,-0.0028754054999997614,0.51065035188,0.1883351971,-0.6978612853000001
08:34:38,0.15950835000000008,0.26095433,-0.26367036,0.6926611000000001,0.18754514,0.27911097999999995,21.08912618,-57.17529967,27.825787230000003,-153.3786898,-0.20028301800000015,0.2838143499000001,-0.008755418999999875,0.51353347304,0.1877769318,-0.7021407074000001
08:34:38,0.16452262500000003,0.256454775,-0.2621983,0.69671475,0.18688995,0.28032015,21.10160665,-57.164127225,27.837239525,-153.38892149999998,-0.19621806500000016,0.2793300032500001,-0.014635432499999768,0.5164165942,0.1872186665,-0.7064201295000001
08:34:38,0.1695369000000001,0.25195522000000004,-0.26072624,0.7007684000000001,0.18623476,0.28152931999999997,21.11408712,-57.15295478,27.848691820000003,-153.3991532,-0.19215311200000007,0.27484565660000004,-0.02051544599999988,0.51929971536,0.1866604012,-0.7106995516000001
08:34:38,0.17455117500000006,0.24745566499999994,-0.25925418,0.7048220500000001,0.18557957,0.28273848999999995,21.12656759,-57.141782335,27.860144115,-153.4093849,-0.1880881590000001,0.2703613099500001,-0.026395459499999774,0.52218283652,0.1861021359,-0.7149789737000001
08:34:38,0.17956545000000002,0.24295610999999995,-0.25778212,0.7088757000000001,0.18492438,0.28394766,21.13904806,-57.13060989,27.871596410000002,-153.41961659999998,-0.1840232060000001,0.2658769633000001,-0.03227547299999989,0.52506595768,0.1855438706,-0.7192583958000001
08:34:38,0.18457972500000008,0.23845655499999996,-0.25631006,0.7129293500000001,0.18426919,0.28515683,21.15152853,-57.119437445,27.883048705,-153.4298483,-0.17995825300000012,0.26139261665000013,-0.03815548649999978,0.52794907884,0.1849856053,-0.7235378179
08:34:39,0.189594,0.233957,-0.254838,0.716983,0.183614,0.286366,21.164009,-57.108265,27.894501,-153.44008,-0.1758933,0.25690827,-0.0440355,0.5308322,0.18442734,-0.72781724
08:34:39,0.18763954000000002,0.234342055,-0.256926655,0.712375365,0.18262323,0.2859878,21.14811951,-57.098398475,27.9151342,-153.43391499999998,-0.17873436615,0.25766692075,-0.04167469885,0.5288438834,0.18319570625,-0.723519535
08:34:39,0.18568508,0.23472711,-0.25901531,0.70776773,0.18163246,0.2856096,21.13223002,-57.088531950000004,27.935767400000003,-153.42775,-0.1815754323,0.2584255715,-0.039313897699999996,0.5268555668,0.1819640725,-0.7192218300000001
08:34:39,0.18373062,0.235112165,-0.261103965,0.703160095,0.18064169,0.2852314,21.11634053,-57.078665425000004,27.956400600000002,-153.421585,-0.18441649845,0.25918422225,-0.036953096549999995,0.5248672502,0.18073243875,-0.714924125
08:34:39,0.18177616000000002,0.23549722,-0.26319262,0.69855246,0.17965092,0.28485320000000003,21.10045104,-57.068798900000004,27.9770338,-153.41541999999998,-0.1872575646,0.259942873,-0.0345922954,0.5228789335999999,0.17950080499999999,-0.71062642
08:34:39,0.1798217,0.235882275,-0.265281275,0.693944825,0.17866015,0.28447500000000003,21.08456155,-57.058932375000005,27.997667000000003,-153.409255,-0.19009863075,0.26070152375,-0.03223149425,0.520890617,0.17826917125,-0.706328715
08:34:39,0.17786724,0.23626733,-0.26736993000000003,0.68933719,0.17766938,0.2840968,21.06867206,-57.049065850000005,28.018300200000002,-153.40309,-0.1929396969,0.2614601745,-0.029870693099999998,0.5189023004,0.1770375375,-0.70203101
08:34:39,0.17591278000000002,0.236652385,-0.26945858500000003,0.684729555,0.17667861,0.2837186,21.05278257,-57.039199325000006,28.0389334,-153.39692499999998,-0.19578076305,0.26221882525,-0.02750989195,0.5169139838,0.17580590375,-0.6977333050000001
08:34:39,0.17395832,0.23703744,-0.27154724,0.68012192,0.17568784,0.2833404,21.03689308,-57.029332800000006,28.0595666,-153.39076,-0.1986218292,0.262977476,-0.0251490908,0.5149256672,0.17457427,-0.6934356
08:34:39,0.17200386,0.237422495,-0.273635895,0.675514285,0.17469707,0.2829622,21.02100359,-57.019466275000006,28.080199800000003,-153.384595,-0.20146289535,0.26373612675,-0.022788289649999998,0.5129373506,0.17334263625,-0.689137895
08:34:39,0.17004940000000002,0.23780755,-0.27572455,0.67090665,0.1737063,0.282584,21.0051141,-57.00959975,28.100833,-153.37842999999998,-0.2043039615,0.2644947775,-0.0204274885,0.510949034,0.1721110025,-0.6848401900000001
08:34:39,0.16809494000000003,0.238192605,-0.277813205,0.666299015,0.17271553,0.2822058,20.98922461,-56.999733225,28.1214662,-153.372265,-0.20714502765,0.26525342825,-0.01806668735,0.5089607173999999,0.17087936874999998,-0.680542485
08:34:39,0.16614048,0.23857766,-0.27990186,0.66169138,0.17172476,0.2818276,20.97333512,-56.9898667,28.142099400000003,-153.3661,-0.2099860938,0.266012079,-0.015705886199999998,0.5069724008,0.169647735,-0.67624478
08:34:39,0.16418602000000002,0.238962715,-0.281990515,0.657083745,0.17073399,0.2814494,20.95744563,-56.980000175,28.162732600000002,-153.359935,-0.21282715995,0.26677072975,-0.01334508505,0.5049840842,0.16841610125,-0.6719470750000001
08:34:39,0.16223156000000002,0.23934777,-0.28407917,0.65247611,0.16974322,0.2810712,20.94155614,-56.97013365,28.1833658,-153.35377,-0.2156682261,0.26752938049999997,-0.010984283900000003,0.5029957676,0.1671844675,-0.66764937
08:34:39,0.1602771,0.239732825,-0.286167825,0.647868475,0.16875245,0.280693,20.92566665,-56.960267125,28.203999000000003,-153.347605,-0.21850929225,0.26828803125,-0.008623482750000001,0.501007451,0.16595283375,-0.663351665
08:34:39,0.15832264000000001,0.24011788,-0.28825648000000004,0.6432608400000001,0.16776168,0.28031480000000003,20.90977716,-56.9504006,28.224632200000002,-153.34144,-0.2213503584,0.269046682,-0.0062626816,0.4990191344,0.1647212,-0.65905396
08:34:39,0.15636818000000002,0.240502935,-0.29034513500000003,0.638653205,0.16677091,0.2799366,20.89388767,-56.940534075,28.2452654,-153.335275,-0.22419142455000002,0.26980533275,-0.003901880449999999,0.49703081779999997,0.16348956625,-0.654756255
08:34:39,0.15441372000000003,0.24088799,-0.29243379,0.6340455700000001,0.16578014,0.2795584,20.87799818,-56.93066755,28.2658986,-153.32911,-0.2270324907,0.2705639835,-0.0015410792999999978,0.4950425012,0.1622579325,-0.6504585500000001
08:34:39,0.15245926,0.241273045,-0.294522445,0.629437935,0.16478937,0.2791802,20.86210869,-56.920801025,28.286531800000002,-153.322945,-0.22987355685,0.27132263424999997,0.0008197218499999964,0.4930541846,0.16102629875,-0.646160845
08:34:39,0.15050480000000002,0.2416581,-0.2966111,0.6248303000000001,0.1637986,0.278802,20.8462192,-56.9109345,28.307165,-153.31678,-0.232714623,0.272081285,0.0031805229999999976,0.49106586799999996,0.159794665,-0.64186314
08:34:39,0.14855034,0.242043155,-0.298699755,0.620222665,0.16280783,0.2784238,20.83032971,-56.901067975000004,28.3277982,-153.31061499999998,-0.23555568915,0.27283993575,0.005541324149999999,0.4890775514,0.15856303124999999,-0.6375654350000001
08:34:39,0.14659588,0.24242821,-0.30078841,0.6156150300000001,0.16181706,0.2780456,20.81444022,-56.891201450000004,28.348431400000003,-153.30445,-0.23839675529999999,0.2735985865,0.0079021253,0.4870892348,0.1573313975,-0.63326773
08:34:39,0.14464142000000002,0.242813265,-0.302877065,0.611007395,0.16082629,0.2776674,20.79855073,-56.881334925000004,28.3690646,-153.298285,-0.24123782145,0.27435723725,0.010262926450000001,0.4851009182,0.15609976375,-0.6289700250000001
08:34:39,0.14268696000000003,0.24319832,-0.30496572,0.6063997600000001,0.15983552,0.2772892,20.78266124,-56.871468400000005,28.3896978,-153.29211999999998,-0.24407888760000002,0.275115888,0.012623727600000002,0.48311260159999997,0.15486813,-0.6246723200000001
08:34:39,0.1407325,0.243583375,-0.307054375,0.601792125,0.15884475,0.276911,20.76677175,-56.861601875000005,28.410331000000003,-153.285955,-0.24691995375,0.27587453875,0.014984528749999997,0.481124285,0.15363649625,-0.620374615
08:34:39,0.13877804000000002,0.24396843000000001,-0.30914303,0.5971844900000001,0.15785398,0.2765328,20.75088226,-56.851735350000006,28.430964200000002,-153.27979,-0.2497610199,0.2766331895,0.017345329899999998,0.4791359684,0.15240486250000002,-0.6160769100000001
08:34:39,0.13682358,0.244353485,-0.311231685,0.592576855,0.15686321,0.27615460000000003,20.73499277,-56.841868825000006,28.4515974,-153.27362499999998,-0.25260208605,0.27739184025,0.01970613105,0.47714765179999996,0.15117322875,-0.611779205
08:34:39,0.13486912,0.24473854,-0.31332034000000003,0.5879692200000001,0.15587244,0.27577640000000003,20.71910328,-56.8320023,28.472230600000003,-153.26746,-0.2554431522,0.278150491,0.022066932199999993,0.4751593352,0.14994159499999998,-0.6074815
08:34:39,0.13291466000000002,0.245123595,-0.315408995,0.583361585,0.15488167,0.2753982,20.70321379,-56.822135775,28.492863800000002,-153.261295,-0.25828421835,0.27890914175,0.02442773335,0.4731710186,0.14870996125,-0.6031837950000001
08:34:39,0.13096020000000003,0.24550865,-0.31749765,0.5787539500000001,0.1538909,0.27502,20.6873243,-56.81226925,28.513497,-153.25513,-0.2611252845,0.2796677925,0.026788534499999996,0.471182702,0.1474783275,-0.59888609
08:34:39,0.12900574,0.245893705,-0.319586305,0.574146315,0.15290013,0.2746418,20.67143481,-56.802402725,28.5341302,-153.248965,-0.26396635065,0.28042644325,0.029149335650000004,0.46919438539999997,0.14624669375,-0.594588385
08:34:39,0.12705128000000002,0.24627876,-0.32167496,0.5695386800000001,0.15190936,0.2742636,20.65554532,-56.7925362,28.554763400000002,-153.2428,-0.2668074168,0.281185094,0.0315101368,0.4672060688,0.14501506,-0.5902906800000001
08:34:39,0.12509682,0.246663815,-0.323763615,0.564931045,0.15091859,0.2738854,20.63965583,-56.782669675,28.5753966,-153.236635,-0.26964848295,0.28194374475,0.03387093794999999,0.4652177522,0.14378342625,-0.585992975
08:34:39,0.12314236000000002,0.24704887,-0.32585227,0.5603234100000001,0.14992782,0.2735072,20.62376634,-56.77280315,28.5960298,-153.23047,-0.2724895491,0.2827023955,0.0362317391,0.46322943559999996,0.1425517925,-0.58169527
08:34:39,0.12118790000000002,0.247433925,-0.327940925,0.555715775,0.14893705000000002,0.273129,20.60787685,-56.762936625,28.616663000000003,-153.224305,-0.27533061525,0.28346104625,0.038592540249999994,0.461241119,0.14132015875,-0.5773975650000001
08:34:39,0.11923344000000002,0.24781898,-0.33002958000000004,0.5511081400000001,0.14794627999999999,0.2727508,20.59198736,-56.7530701,28.6372962,-153.21814,-0.27817168140000004,0.284219697,0.0409533414,0.4592528024,0.14008852500000002,-0.57309986
08:34:39,0.11727898000000002,0.248204035,-0.33211823500000004,0.546500505,0.14695551,0.2723726,20.57609787,-56.743203575,28.6579294,-153.211975,-0.28101274755,0.28497834774999997,0.04331414255,0.4572644858,0.13885689125,-0.568802155
08:34:39,0.11532452000000001,0.24858909,-0.33420689000000003,0.5418928700000001,0.14596474,0.2719944,20.56020838,-56.73333705,28.678562600000003,-153.20580999999999,-0.2838538137,0.2857369985,0.04567494369999999,0.45527616919999997,0.1376252575,-0.56450445
08:34:39,0.11337006000000002,0.248974145,-0.33629554500000003,0.537285235,0.14497397,0.27161620000000003,20.54431889,-56.723470525,28.699195800000002,-153.199645,-0.28669487985,0.28649564925,0.04803574485,0.4532878526,0.13639362375,-0.560206745
08:34:39,0.11141560000000002,0.2493592,-0.3383842,0.5326776000000001,0.1439832,0.271238,20.5284294,-56.713604000000004,28.719829,-153.19348,-0.289535946,0.2872543,0.05039654599999999,0.451299536,0.13516199,-0.5559090400000001
08:34:39,0.10946114000000001,0.249744255,-0.340472855,0.528069965,0.14299243,0.2708598,20.51253991,-56.703737475000004,28.740462200000003,-153.18731499999998,-0.29237701215,0.28801295075,0.05275734715,0.44931121939999996,0.13393035625,-0.551611335
08:34:39,0.10750668000000002,0.25012931,-0.34256151,0.5234623300000001,0.14200166,0.2704816,20.49665042,-56.693870950000004,28.761095400000002,-153.18115,-0.2952180783,0.2887716015,0.055118148299999996,0.4473229028,0.1326987225,-0.5473136300000001
08:34:39,0.10555222000000002,0.250514365,-0.344650165,0.518854695,0.14101089,0.2701034,20.48076093,-56.684004425000005,28.7817286,-153.174985,-0.29805914445000004,0.28953025225,0.05747894944999999,0.4453345862,0.13146708875000002,-0.5430159250000001
08:34:39,0.10359776000000001,0.25089942,-0.34673882,0.5142470600000001,0.14002012,0.2697252,20.46487144,-56.674137900000005,28.8023618,-153.16881999999998,-0.3009002106,0.290288903,0.0598397506,0.4433462696,0.130235455,-0.53871822
08:34:39,0.10164330000000002,0.251284475,-0.348827475,0.509639425,0.13902935,0.269347,20.44898195,-56.664271375000006,28.822995000000002,-153.162655,-0.30374127675,0.29104755375,0.06220055174999999,0.44135795299999997,0.12900382125,-0.5344205150000001
08:34:39,0.09968884000000001,0.25166953000000003,-0.35091613,0.5050317900000001,0.13803858,0.2689688,20.43309246,-56.65440485,28.8436282,-153.15649,-0.30658234289999997,0.2918062045,0.06456135290000001,0.4393696364,0.1277721875,-0.53012281
08:34:39,0.09773438000000002,0.252054585,-0.353004785,0.500424155,0.13704781,0.2685906,20.41720297,-56.644538325,28.8642614,-153.15032499999998,-0.30942340905,0.29256485525,0.06692215404999999,0.4373813198,0.12654055375,-0.525825105
08:34:39,0.09577992000000002,0.25243964,-0.35509344,0.49581652000000004,0.13605704000000002,0.2682124,20.40131348,-56.6346718,28.884894600000003,-153.14416,-0.3122644752,0.293323506,0.0692829552,0.43539300319999996,0.12530892,-0.5215274000000001
08:34:39,0.09382546000000001,0.252824695,-0.357182095,0.49120888500000004,0.13506627,0.2678342,20.38542399,-56.624805275,28.9055278,-153.137995,-0.31510554135,0.29408215675,0.07164375635,0.4334046866,0.12407728625,-0.517229695
08:34:39,0.09187100000000002,0.25320975,-0.35927075,0.48660125000000004,0.13407550000000001,0.267456,20.3695345,-56.61493875,28.926161,-153.13182999999998,-0.31794660750000003,0.29484080749999997,0.07400455749999998,0.43141637,0.12284565250000001,-0.51293199
08:34:39,0.08991654000000002,0.253594805,-0.361359405,0.48199361500000004,0.13308472999999998,0.26707780000000003,20.35364501,-56.605072225,28.946794200000003,-153.125665,-0.32078767365,0.29559945825,0.07636535864999999,0.4294280534,0.12161401875000001,-0.5086342850000001
08:34:39,0.08796208000000003,0.25397986,-0.36344806,0.47738598000000004,0.13209396,0.2666996,20.33775552,-56.5952057,28.967427400000002,-153.1195,-0.3236287398,0.296358109,0.0787261598,0.4274397368,0.12038238500000001,-0.50433658
08:34:39,0.08600762000000002,0.254364915,-0.365536715,0.47277834500000004,0.13110319,0.2663214,20.32186603,-56.585339175,28.9880606,-153.113335,-0.32646980594999997,0.29711675975,0.08108696094999998,0.4254514202,0.11915075125,-0.500038875
08:34:39,0.08405316000000002,0.25474997,-0.36762537,0.46817071000000005,0.13011242,0.2659432,20.30597654,-56.57547265,29.0086938,-153.10717,-0.3293108721,0.2978754105,0.08344776209999999,0.4234631036,0.1179191175,-0.49574117000000006
08:34:39,0.08209870000000002,0.255135025,-0.369714025,0.46356307500000005,0.12912165,0.265565,20.29008705,-56.565606125,29.029327000000002,-153.101005,-0.33215193825,0.29863406125,0.08580856325,0.42147478699999996,0.11668748375,-0.491443465
08:34:39,0.08014424000000002,0.25552008,-0.37180268,0.45895544000000005,0.12813088,0.2651868,20.27419756,-56.5557396,29.0499602,-153.09484,-0.3349930044,0.299392712,0.08816936439999998,0.4194864704,0.11545585,-0.48714576000000004
08:34:39,0.07818978000000001,0.255905135,-0.373891335,0.45434780500000005,0.12714011,0.2648086,20.258308070000002,-56.545873075,29.0705934,-153.088675,-0.33783407055000003,0.30015136275,0.09053016554999999,0.4174981538,0.11422421625000001,-0.48284805500000005
08:34:39,0.07623532000000002,0.25629019000000003,-0.37597999000000004,0.44974017000000005,0.12614934,0.2644304,20.24241858,-56.53600655,29.091226600000002,-153.08250999999998,-0.3406751367,0.3009100135,0.0928909667,0.4155098372,0.11299258250000001,-0.47855035
08:34:39,0.07428086000000002,0.256675245,-0.37806864500000004,0.44513253500000005,0.12515857,0.2640522,20.22652909,-56.526140025000004,29.1118598,-153.076345,-0.34351620285,0.30166866425,0.09525176784999997,0.4135215206,0.11176094875,-0.47425264500000003
08:34:39,0.07232640000000001,0.2570603,-0.38015730000000003,0.44052490000000005,0.1241678,0.263674,20.2106396,-56.516273500000004,29.132493,-153.07018,-0.34635726899999997,0.302427315,0.09761256899999998,0.411533204,0.110529315,-0.46995494000000004
08:34:39,0.07037194000000002,0.257445355,-0.382245955,0.43591726500000005,0.12317702999999999,0.2632958,20.19475011,-56.506406975000004,29.153126200000003,-153.06401499999998,-0.34919833515,0.30318596575,0.09997337014999999,0.4095448874,0.10929768125,-0.46565723500000006
08:34:39,0.06841748000000002,0.25783041,-0.38433461,0.43130963000000005,0.12218625999999999,0.26291760000000003,20.178860620000002,-56.496540450000005,29.1737594,-153.05785,-0.3520394013,0.3039446165,0.1023341713,0.40755657079999996,0.10806604750000001,-0.4613595300000001
08:34:39,0.06646302000000003,0.25821546500000003,-0.386423265,0.42670199500000006,0.12119549,0.2625394,20.16297113,-56.486673925000005,29.1943926,-153.051685,-0.35488046745,0.30470326725,0.10469497244999998,0.4055682542,0.10683441375000001,-0.45706182500000003
08:34:39,0.06450856000000002,0.25860052,-0.38851192,0.42209436000000006,0.12020472,0.2621612,20.14708164,-56.4768074,29.2150258,-153.04551999999998,-0.35772153360000003,0.305461918,0.10705577359999999,0.4035799376,0.10560278000000001,-0.45276412000000005
08:34:39,0.06255410000000003,0.258985575,-0.390600575,0.41748672500000006,0.11921395,0.261783,20.13119215,-56.466940875,29.235659000000002,-153.039355,-0.36056259975,0.30622056875,0.10941657475,0.401591621,0.10437114625,-0.44846641500000006
08:34:39,0.06059964000000001,0.25937063,-0.39268923,0.41287909000000006,0.11822318,0.2614048,20.11530266,-56.45707435,29.2562922,-153.03319,-0.3634036659,0.3069792195,0.11177737589999998,0.3996033044,0.1031395125,-0.44416871
08:34:39,0.05864518000000002,0.259755685,-0.394777885,0.40827145500000006,0.11723241,0.2610266,20.099413170000002,-56.447207825,29.2769254,-153.02702499999998,-0.36624473204999997,0.30773787025,0.11413817704999998,0.3976149878,0.10190787875000001,-0.43987100500000004
08:34:39,0.05669072000000003,0.26014074,-0.39686654,0.40366382000000006,0.11624164000000001,0.2606484,20.08352368,-56.4373413,29.297558600000002,-153.02086,-0.3690857982,0.308496521,0.11649897819999999,0.3956266712,0.10067624500000001,-0.43557330000000005
08:34:39,0.05473626000000001,0.260525795,-0.398955195,0.39905618500000006,0.11525087,0.2602702,20.06763419,-56.427474775,29.3181918,-153.014695,-0.37192686435,0.30925517175,0.11885977935,0.39363835459999996,0.09944461125000001,-0.43127559500000007
08:34:39,0.05278180000000002,0.26091085,-0.40104385,0.39444855000000006,0.1142601,0.259892,20.0517447,-56.41760825,29.338825,-153.00853,-0.3747679305,0.3100138225,0.12122058049999998,0.391650038,0.0982129775,-0.42697789
08:34:39,0.050827340000000026,0.261295905,-0.403132505,0.38984091500000007,0.11326933,0.2595138,20.03585521,-56.407741725,29.359458200000002,-153.002365,-0.37760899665000003,0.31077247325,0.12358138164999999,0.3896617214,0.09698134375,-0.42268018500000004
08:34:39,0.048872880000000035,0.26168096,-0.40522116,0.38523328000000007,0.11227856,0.2591356,20.019965720000002,-56.3978752,29.3800914,-152.9962,-0.38045006280000004,0.311531124,0.1259421828,0.3876734048,0.09574971000000002,-0.41838248000000006
08:34:39,0.046918420000000016,0.262066015,-0.407309815,0.38062564500000007,0.11128779,0.2587574,20.00407623,-56.388008675,29.4007246,-152.990035,-0.38329112895,0.31228977474999997,0.12830298394999998,0.3856850882,0.09451807625000001,-0.41408477500000007
08:34:39,0.044963960000000025,0.26245107,-0.40939847,0.37601801000000007,0.11029702,0.25837920000000003,19.98818674,-56.37814215,29.421357800000003,-152.98387,-0.38613219509999996,0.3130484255,0.13066378509999999,0.3836967716,0.09328644250000001,-0.40978707000000003
08:34:39,0.043009500000000034,0.26283612500000003,-0.411487125,0.37141037500000007,0.10930625000000001,0.258001,19.97229725,-56.368275625,29.441991,-152.977705,-0.38897326125,0.31380707625,0.13302458625,0.381708455,0.09205480875000001,-0.40548936500000005
08:34:39,0.041055040000000015,0.26322118,-0.41357578,0.36680274000000007,0.10831548,0.2576228,19.95640776,-56.3584091,29.4626242,-152.97154,-0.3918143274,0.314565727,0.13538538739999997,0.37972013839999996,0.090823175,-0.40119166000000006
08:34:39,0.039100580000000024,0.263606235,-0.415664435,0.3621951050000001,0.10732471,0.2572446,19.940518270000002,-56.348542575,29.4832574,-152.965375,-0.39465539355,0.31532437775,0.13774618854999998,0.3777318218,0.08959154125,-0.3968939550000001
08:34:39,0.03714612000000003,0.26399129,-0.41775309000000005,0.3575874700000001,0.10633394,0.2568664,19.92462878,-56.338676050000004,29.503890600000002,-152.95920999999998,-0.3974964597,0.31608302850000003,0.1401069897,0.3757435052,0.08835990750000002,-0.39259625000000004
08:34:39,0.035191660000000013,0.264376345,-0.41984174500000004,0.3529798350000001,0.10534317,0.2564882,19.90873929,-56.328809525000004,29.5245238,-152.953045,-0.40033752585000004,0.31684167925,0.14246779085,0.3737551886,0.08712827375000001,-0.38829854500000005
08:34:39,0.03323720000000002,0.26476140000000004,-0.42193040000000004,0.3483722000000001,0.1043524,0.25611,19.8928498,-56.318943000000004,29.545157,-152.94688,-0.403178592,0.31760033,0.14482859199999998,0.371766872,0.08589664000000001,-0.38400084000000007
08:34:39,0.03128274000000003,0.265146455,-0.42401905500000003,0.3437645650000001,0.10336163,0.2557318,19.87696031,-56.309076475000005,29.565790200000002,-152.94071499999998,-0.40601965814999996,0.31835898075,0.14718939315,0.3697785554,0.08466500625000001,-0.379703135
08:34:39,0.029328280000000012,0.26553151,-0.42610771000000003,0.3391569300000001,0.10237086000000001,0.2553536,19.861070820000002,-56.299209950000005,29.5864234,-152.93455,-0.4088607243,0.3191176315,0.1495501943,0.3677902388,0.0834333725,-0.37540543000000004
08:34:39,0.02737382000000002,0.265916565,-0.428196365,0.3345492950000001,0.10138009,0.2549754,19.84518133,-56.289343425,29.6070566,-152.928385,-0.41170179045,0.31987628225,0.15191099544999997,0.36580192219999996,0.08220173875000002,-0.37110772500000005
08:34:39,0.02541936000000003,0.26630162,-0.43028502,0.3299416600000001,0.10038932,0.2545972,19.82929184,-56.2794769,29.627689800000002,-152.92221999999998,-0.4145428566,0.320634933,0.15427179659999998,0.3638136056,0.08097010500000001,-0.36681002000000007
08:34:39,0.02346490000000001,0.266686675,-0.432373675,0.3253340250000001,0.09939855,0.254219,19.81340235,-56.269610375,29.648323,-152.916055,-0.41738392275,0.32139358375,0.15663259775,0.361825289,0.07973847125000001,-0.36251231500000003
08:34:39,0.02151044000000002,0.26707173,-0.43446233,0.3207263900000001,0.09840778,0.2538408,19.79751286,-56.25974385,29.6689562,-152.90989,-0.42022498890000004,0.32215223449999997,0.15899339889999997,0.3598369724,0.07850683750000001,-0.35821461000000004
08:34:39,0.01955598000000003,0.26745678500000003,-0.436550985,0.3161187550000001,0.09741701,0.2534626,19.781623370000002,-56.249877325,29.689589400000003,-152.90372499999998,-0.42306605505,0.32291088525,0.16135420004999998,0.3578486558,0.07727520375000001,-0.35391690500000006
08:34:39,0.01760152000000001,0.26784184,-0.43863964,0.3115111200000001,0.09642624,0.2530844,19.76573388,-56.2400108,29.7102226,-152.89756,-0.42590712119999996,0.32366953600000004,0.1637150012,0.3558603392,0.07604357,-0.3496192000000001
08:34:39,0.015647060000000018,0.268226895,-0.440728295,0.3069034850000001,0.09543547000000001,0.2527062,19.74984439,-56.230144275,29.7308558,-152.891395,-0.42874818735,0.32442818675,0.16607580235,0.3538720226,0.07481193625000002,-0.34532149500000003
08:34:39,0.013692600000000027,0.26861195,-0.44281695,0.3022958500000001,0.0944447,0.252328,19.7339549,-56.22027775,29.751489,-152.88522999999998,-0.4315892535,0.3251868375,0.16843660349999998,0.35188370599999996,0.07358030250000001,-0.34102379000000005
08:34:39,0.011738140000000036,0.268997005,-0.444905605,0.2976882150000001,0.09345393,0.2519498,19.71806541,-56.210411225,29.772122200000002,-152.879065,-0.43443031965,0.32594548825,0.17079740464999998,0.3498953894,0.07234866875000001,-0.33672608500000006
08:34:39,0.009783680000000017,0.26938206000000003,-0.44699426,0.2930805800000001,0.09246316,0.2515716,19.702175920000002,-56.2005447,29.7927554,-152.8729,-0.4372713858,0.326704139,0.1731582058,0.3479070728,0.07111703500000001,-0.3324283800000001
08:34:39,0.007829220000000026,0.269767115,-0.44908291499999997,0.2884729450000001,0.09147239,0.2511934,19.68628643,-56.190678175,29.8133886,-152.866735,-0.44011245195000004,0.32746278975,0.17551900694999997,0.3459187562,0.06988540125,-0.32813067500000004
08:34:39,0.005874760000000034,0.27015217,-0.45117157,0.2838653100000001,0.09048162,0.2508152,19.67039694,-56.18081165,29.834021800000002,-152.86057,-0.44295351810000005,0.3282214405,0.17787980809999998,0.3439304396,0.06865376750000002,-0.32383297000000005
08:34:39,0.0039203000000000154,0.270537225,-0.453260225,0.2792576750000001,0.08949085,0.250437,19.65450745,-56.170945125,29.854655,-152.85440499999999,-0.44579458424999996,0.32898009125,0.18024060925,0.34194212300000004,0.06742213375000002,-0.31953526500000007
08:34:39,0.0019658400000000242,0.27092228,-0.45534888,0.27465004000000004,0.08850008000000001,0.2500588,19.63861796,-56.1610786,29.8752882,-152.84824,-0.4486356504,0.329738742,0.1826014104,0.3399538064,0.06619050000000001,-0.31523756
08:34:39,1.138000000003303e-05,0.27130733500000004,-0.457437535,0.27004240500000004,0.08750931,0.2496806,19.622728470000002,-56.151212075000004,29.8959214,-152.842075,-0.45147671655,0.33049739275,0.18496221154999998,0.33796548979999996,0.06495886625000001,-0.31093985500000004
08:34:39,-0.001943079999999986,0.27169239,-0.45952619,0.26543477000000004,0.08651854,0.2493024,19.60683898,-56.141345550000004,29.9165546,-152.83590999999998,-0.4543177827,0.3312560435,0.18732301269999999,0.3359771732,0.06372723250000001,-0.30664215000000006
08:34:39,-0.003897539999999977,0.27207744500000003,-0.46161484500000005,0.26082713500000004,0.08552777,0.24892419999999998,19.59094949,-56.131479025000004,29.9371878,-152.829745,-0.45715884885,0.33201469425,0.18968381385,0.3339888566,0.06249559875000002,-0.3023444450000001
08:34:39,-0.005851999999999968,0.2724625,-0.46370350000000005,0.25621950000000004,0.084537,0.248546,19.57506,-56.1216125,29.957821000000003,-152.82358,-0.45999991500000004,0.332773345,0.19204461499999997,0.33200054,0.06126396500000002,-0.29804674000000003
08:34:39,-0.007806459999999987,0.272847555,-0.46579215500000004,0.25161186500000005,0.08354623,0.2481678,19.55917051,-56.111745975,29.9784542,-152.81741499999998,-0.46284098115000005,0.33353199575000003,0.19440541614999998,0.3300122234,0.060032331250000015,-0.29374903500000005
08:34:39,-0.009760919999999979,0.27323261,-0.46788081000000004,0.24700423000000005,0.08255546,0.2477896,19.543281020000002,-56.10187945,29.9990874,-152.81125,-0.46568204729999996,0.3342906465,0.1967662173,0.32802390680000004,0.058800697500000026,-0.28945133000000006
08:34:39,-0.01171537999999997,0.273617665,-0.46996946500000003,0.24239659500000005,0.08156469,0.2474114,19.52739153,-56.092012925,30.0197206,-152.805085,-0.46852311345,0.33504929725,0.19912701844999997,0.3260355902,0.05756906375000001,-0.2851536250000001
08:34:39,-0.013669839999999961,0.27400272000000003,-0.47205812,0.23778896000000005,0.08057392000000001,0.2470332,19.51150204,-56.0821464,30.040353800000002,-152.79891999999998,-0.4713641796,0.335807948,0.20148781959999998,0.3240472736,0.05633743000000002,-0.28085592000000004
08:34:39,-0.01562429999999998,0.274387775,-0.474146775,0.23318132500000005,0.07958315,0.246655,19.49561255,-56.072279875,30.060987,-152.792755,-0.47420524575,0.33656659875,0.20384862075,0.322058957,0.055105796250000005,-0.27655821500000005
08:34:39,-0.01757875999999997,0.27477283,-0.47623543,0.22857369000000005,0.07859238,0.2462768,19.47972306,-56.06241335,30.0816202,-152.78659,-0.4770463119,0.3373252495,0.20620942189999997,0.3200706404,0.05387416250000002,-0.27226051000000007
08:34:39,-0.019533219999999962,0.275157885,-0.478324085,0.22396605500000005,0.07760161,0.2458986,19.463833570000002,-56.052546825,30.102253400000002,-152.78042499999998,-0.47988737805000004,0.33808390025,0.20857022305,0.3180823238,0.05264252875000003,-0.2679628050000001
08:34:39,-0.02148767999999998,0.27554294,-0.48041274,0.21935842000000005,0.07661084,0.2455204,19.44794408,-56.0426803,30.1228866,-152.77426,-0.48272844420000005,0.338842551,0.21093102419999998,0.3160940072,0.05141089500000001,-0.26366510000000004
08:34:39,-0.023442139999999972,0.27592799500000004,-0.482501395,0.2147507850000001,0.07562007,0.2451422,19.43205459,-56.032813775,30.1435198,-152.768095,-0.48556951034999996,0.33960120174999997,0.21329182534999996,0.31410569060000004,0.05017926125000002,-0.25936739500000006
08:34:39,-0.025396599999999964,0.27631305,-0.48459005,0.21014315000000006,0.0746293,0.244764,19.4161651,-56.02294725,30.164153,-152.76193,-0.48841057649999997,0.3403598525,0.2156526265,0.312117374,0.04894762750000001,-0.25506969000000007
08:34:39,-0.027351059999999983,0.276698105,-0.486678705,0.2055355150000001,0.07363853000000001,0.2443858,19.40027561,-56.013080725,30.1847862,-152.755765,-0.49125164265,0.34111850325,0.21801342764999998,0.3101290574,0.04771599375000002,-0.2507719850000001
08:34:39,-0.029305519999999974,0.27708316,-0.48876736,0.20092788000000006,0.07264776,0.2440076,19.384386120000002,-56.0032142,30.2054194,-152.7496,-0.4940927088,0.341877154,0.22037422879999996,0.3081407408,0.04648436,-0.24647428000000005
08:34:39,-0.031259979999999965,0.277468215,-0.490856015,0.19632024500000012,0.07165699,0.2436294,19.36849663,-55.993347675,30.2260526,-152.743435,-0.49693377495,0.34263580475,0.22273502995,0.3061524242,0.045252726250000014,-0.24217657500000006
08:34:39,-0.033214439999999984,0.27785327000000004,-0.49294467,0.19171261000000006,0.07066622,0.2432512,19.35260714,-55.98348115,30.2466858,-152.73727,-0.49977484110000003,0.34339445550000003,0.22509583109999998,0.3041641076,0.044021092500000025,-0.23787887000000008
08:34:39,-0.035168899999999975,0.278238325,-0.495033325,0.18710497500000012,0.06967545,0.242873,19.33671765,-55.973614625,30.267319,-152.73110499999999,-0.50261590725,0.34415310625,0.22745663224999996,0.302175791,0.04278945875000001,-0.23358116500000004
08:34:39,-0.037123359999999966,0.27862338000000003,-0.49712198,0.18249734000000006,0.06868468,0.2424948,19.32082816,-55.963748100000004,30.2879522,-152.72494,-0.5054569734,0.344911757,0.2298174334,0.30018747440000004,0.04155782500000002,-0.22928346000000005
08:34:39,-0.039077819999999985,0.279008435,-0.499210635,0.17788970500000012,0.06769391,0.24211660000000002,19.304938670000002,-55.953881575000004,30.308585400000002,-152.718775,-0.50829803955,0.34567040775,0.23217823454999997,0.2981991578,0.040326191250000004,-0.22498575500000006
08:34:39,-0.04103227999999998,0.27939349,-0.50129929,0.17328207000000007,0.06670314000000001,0.2417384,19.28904918,-55.944015050000004,30.3292186,-152.71260999999998,-0.5111391057,0.3464290585,0.23453903569999995,0.2962108412,0.039094557500000016,-0.22068805000000002
08:34:39,-0.04298673999999997,0.279778545,-0.5033879450000001,0.16867443500000012,0.06571237,0.2413602,19.27315969,-55.934148525,30.3498518,-152.706445,-0.51398017185,0.34718770925,0.23689983685,0.2942225246,0.03786292375000003,-0.2163903450000001
08:34:39,-0.04494119999999999,0.2801636,-0.5054765999999999,0.16406680000000007,0.0647216,0.240982,19.2572702,-55.924282,30.370485000000002,-152.70028,-0.516821238,0.34794636,0.23926063799999997,0.292234208,0.03663129000000001,-0.21209264000000005
08:34:39,-0.04689565999999998,0.28054865500000004,-0.507565255,0.15945916500000012,0.06373083,0.2406038,19.24138071,-55.914415475,30.3911182,-152.69411499999998,-0.51966230415,0.34870501075,0.24162143915,0.2902458914,0.03539965625000002,-0.20779493500000001
08:34:39,-0.04885011999999997,0.28093371,-0.5096539099999999,0.15485153000000007,0.06274006,0.24022559999999998,19.225491220000002,-55.90454895,30.4117514,-152.68795,-0.5225033703,0.3494636615,0.2439822403,0.2882575748,0.034168022500000006,-0.20349723000000008
08:34:39,-0.05080457999999996,0.281318765,-0.511742565,0.15024389500000013,0.06174929,0.2398474,19.20960173,-55.894682425,30.4323846,-152.681785,-0.52534443645,0.35022231225,0.24634304144999997,0.28626925820000004,0.03293638875000002,-0.19919952500000004
08:34:39,-0.05275903999999998,0.28170382,-0.51383122,0.14563626000000007,0.060758519999999996,0.2394692,19.19371224,-55.8848159,30.4530178,-152.67561999999998,-0.5281855026,0.35098096300000003,0.2487038426,0.2842809416,0.03170475500000003,-0.19490182000000011
08:34:39,-0.05471349999999997,0.282088875,-0.515919875,0.14102862500000013,0.05976775000000001,0.239091,19.17782275,-55.874949375,30.473651,-152.669455,-0.53102656875,0.35173961375,0.25106464375,0.282292625,0.030473121250000013,-0.19060411500000007
08:34:39,-0.05666795999999996,0.28247393000000004,-0.51800853,0.13642099000000008,0.058776980000000006,0.2387128,19.16193326,-55.86508285,30.4942842,-152.66329,-0.5338676349,0.3524982645,0.25342544489999996,0.28030430840000004,0.029241487500000024,-0.18630641000000003
08:34:39,-0.05862241999999998,0.282858985,-0.520097185,0.13181335500000013,0.057786210000000005,0.2383346,19.146043770000002,-55.855216325,30.5149174,-152.65712499999998,-0.53670870105,0.35325691525,0.25578624605,0.2783159918,0.028009853750000008,-0.1820087050000001
08:34:39,-0.06057687999999997,0.28324404000000003,-0.52218584,0.12720572000000008,0.05679544,0.2379564,19.13015428,-55.8453498,30.5355506,-152.65096,-0.5395497672,0.354015566,0.2581470472,0.2763276752,0.02677822000000002,-0.17771100000000006
08:34:39,-0.06253133999999996,0.283629095,-0.524274495,0.12259808500000002,0.05580467,0.2375782,19.11426479,-55.835483275,30.5561838,-152.644795,-0.54239083335,0.35477421675,0.26050784834999996,0.2743393586,0.02554658625000003,-0.17341329500000002
08:34:39,-0.06448579999999995,0.28401415,-0.52636315,0.11799045000000008,0.0548139,0.2372,19.0983753,-55.82561675,30.576817000000002,-152.63862999999998,-0.5452318995,0.3555328675,0.2628686495,0.272351042,0.024314952500000014,-0.1691155900000001
08:34:39,-0.06644025999999995,0.28439920500000004,-0.528451805,0.11338281500000003,0.05382313,0.2368218,19.08248581,-55.815750225,30.5974502,-152.632465,-0.54807296565,0.35629151825,0.26522945065,0.2703627254,0.023083318750000026,-0.16481788500000005
08:34:39,-0.06839471999999999,0.28478426,-0.53054046,0.10877518000000008,0.052832359999999995,0.2364436,19.066596320000002,-55.8058837,30.6180834,-152.6263,-0.5509140318,0.357050169,0.26759025179999996,0.2683744088,0.02185168500000001,-0.16052018
08:34:39,-0.07034917999999998,0.28516931500000003,-0.532629115,0.10416754500000003,0.05184158999999999,0.23606539999999998,19.05070683,-55.796017175,30.638716600000002,-152.620135,-0.55375509795,0.35780881975,0.26995105295,0.26638609220000004,0.02062005125000002,-0.15622247500000008
08:34:39,-0.07230363999999997,0.28555437,-0.5347177700000001,0.09955991000000008,0.05085081999999999,0.23568719999999999,19.03481734,-55.78615065,30.6593498,-152.61397,-0.5565961641,0.3585674705,0.2723118541,0.2643977756,0.019388417500000033,-0.15192477000000004
08:34:39,-0.07425809999999997,0.285939425,-0.536806425,0.09495227500000003,0.04986004999999999,0.235309,19.01892785,-55.776284125000004,30.679983,-152.60780499999998,-0.55943723025,0.35932612125,0.27467265524999995,0.262409459,0.018156783750000016,-0.1476270650000001
08:34:39,-0.07621255999999996,0.28632448,-0.5388950800000001,0.09034464000000009,0.048869280000000015,0.2349308,19.00303836,-55.766417600000004,30.7006162,-152.60164,-0.5622782964,0.360084772,0.2770334564,0.2604211424,0.016925150000000028,-0.14332936000000007
08:34:39,-0.07816701999999995,0.286709535,-0.540983735,0.08573700500000003,0.04787851000000001,0.2345526,18.987148870000002,-55.756551075,30.7212494,-152.595475,-0.56511936255,0.36084342275000003,0.27939425754999997,0.2584328258,0.01569351625000001,-0.13903165500000003
08:34:39,-0.08012148,0.28709459000000004,-0.5430723900000001,0.08112937000000009,0.04688774000000001,0.2341744,18.97125938,-55.74668455,30.7418826,-152.58930999999998,-0.5679604287,0.3616020735,0.2817550587,0.2564445092,0.014461882500000023,-0.1347339500000001
08:34:39,-0.08207593999999999,0.287479645,-0.545161045,0.07652173500000004,0.04589697000000001,0.2337962,18.95536989,-55.736818025,30.7625158,-152.583145,-0.57080149485,0.36236072425,0.28411585985,0.2544561926,0.013230248750000034,-0.13043624500000006
08:34:39,-0.08403039999999998,0.28786470000000003,-0.5472497000000001,0.07191410000000009,0.04490620000000001,0.23341800000000001,18.9394804,-55.7269515,30.783149,-152.57698,-0.573642561,0.363119375,0.28647666099999997,0.25246787600000004,0.011998615000000018,-0.12613854000000002
08:34:39,-0.08598485999999997,0.288249755,-0.549338355,0.06730646500000004,0.043915430000000005,0.2330398,18.92359091,-55.717084975,30.8037822,-152.57081499999998,-0.57648362715,0.36387802575,0.28883746215,0.2504795594,0.01076698125000003,-0.12184083500000009
08:34:39,-0.08793931999999996,0.28863481,-0.55142701,0.0626988300000001,0.04292466,0.2326616,18.907701420000002,-55.70721845,30.8244154,-152.56465,-0.5793246933,0.3646366765,0.2911982633,0.2484912428,0.009535347500000013,-0.11754313000000005
08:34:39,-0.08989377999999995,0.28901986500000004,-0.5535156649999999,0.05809119500000004,0.04193389,0.2322834,18.89181193,-55.697351925,30.845048600000002,-152.558485,-0.58216575945,0.36539532725,0.29355906444999996,0.24650292620000003,0.008303713750000025,-0.11324542500000012
08:34:39,-0.09184823999999994,0.28940492,-0.55560432,0.0534835600000001,0.04094312,0.2319052,18.87592244,-55.6874854,30.8656818,-152.55231999999998,-0.5850068256000001,0.366153978,0.2959198656,0.24451460960000004,0.007072080000000036,-0.10894772000000008
08:34:39,-0.09380269999999999,0.28978997500000003,-0.557692975,0.04887592500000004,0.03995235,0.23152699999999998,18.86003295,-55.677618875,30.886315,-152.546155,-0.58784789175,0.36691262875,0.29828066675,0.242526293,0.00584044625000002,-0.10465001500000004
08:34:39,-0.09575715999999998,0.29017503,-0.55978163,0.0442682900000001,0.038961579999999996,0.2311488,18.84414346,-55.66775235,30.906948200000002,-152.53999,-0.5906889579,0.3676712795,0.30064146789999996,0.24053797640000002,0.004608812500000031,-0.10035231000000011
08:34:39,-0.09771161999999997,0.290560085,-0.561870285,0.039660655000000045,0.037970809999999994,0.2307706,18.828253970000002,-55.657885825,30.9275814,-152.53382499999998,-0.59353002405,0.36842993025000004,0.30300226905,0.23854965980000004,0.003377178750000015,-0.09605460500000007
08:34:39,-0.09966607999999996,0.29094514000000005,-0.56395894,0.0350530200000001,0.03698003999999999,0.2303924,18.81236448,-55.6480193,30.9482146,-152.52766,-0.5963710902,0.369188581,0.3053630702,0.2365613432,0.0021455450000000265,-0.09175690000000003
08:34:39,-0.10162053999999995,0.291330195,-0.566047595,0.030445385000000047,0.03598926999999999,0.2300142,18.79647499,-55.638152775,30.9688478,-152.521495,-0.59921215635,0.36994723175,0.30772387134999996,0.2345730266,0.0009139112500000102,-0.0874591950000001
08:34:39,-0.10357499999999994,0.29171525000000004,-0.56813625,0.025837750000000104,0.034998500000000016,0.229636,18.7805855,-55.62828625,30.989481,-152.51533,-0.6020532225,0.37070588250000003,0.3100846725,0.23258471000000003,-0.00031772249999997837,-0.08316149000000006
08:34:39,-0.10552945999999999,0.292100305,-0.570224905,0.02123011500000005,0.034007730000000014,0.2292578,18.76469601,-55.618419725,31.0101142,-152.509165,-0.6048942886500001,0.37146453325,0.31244547364999997,0.23059639340000004,-0.001549356249999967,-0.07886378500000002
08:34:39,-0.10748391999999998,0.29248536,-0.57231356,0.016622480000000106,0.03301696000000001,0.2288796,18.748806520000002,-55.6085532,31.0307474,-152.503,-0.6077353548,0.372223184,0.31480627479999995,0.2286080768,-0.002780989999999983,-0.07456608000000009
08:34:39,-0.10943837999999997,0.292870415,-0.574402215,0.012014845000000052,0.03202619000000001,0.2285014,18.73291703,-55.598686675,31.0513806,-152.496835,-0.61057642095,0.37298183475,0.31716707595,0.22661976020000002,-0.004012623749999972,-0.07026837500000005
08:34:39,-0.11139283999999997,0.29325547,-0.57649087,0.007407210000000108,0.031035420000000008,0.2281232,18.71702754,-55.588820150000004,31.0720138,-152.49067,-0.6134174871,0.3737404855,0.31952787709999997,0.22463144360000004,-0.005244257499999988,-0.06597067000000012
08:34:39,-0.11334729999999996,0.29364052500000004,-0.5785795250000001,0.002799575000000054,0.030044650000000006,0.227745,18.70113805,-55.578953625,31.092647,-152.48450499999998,-0.61625855325,0.37449913625,0.32188867824999995,0.222643127,-0.0064758912499999766,-0.06167296500000008
08:34:39,-0.11530175999999995,0.29402558,-0.58066818,-0.0018080599999998892,0.029053880000000004,0.22736679999999998,18.68524856,-55.5690871,31.1132802,-152.47834,-0.6190996194,0.375257787,0.3242494794,0.2206548104,-0.007707524999999965,-0.05737526000000004
08:34:39,-0.11725622,0.29441063500000003,-0.5827568350000001,-0.0064156949999999435,0.028063110000000002,0.22698859999999998,18.669359070000002,-55.559220575,31.1339134,-152.472175,-0.62194068555,0.37601643775,0.32661028054999997,0.21866649380000003,-0.008939158749999981,-0.05307755500000011
08:34:39,-0.11921067999999999,0.29479569,-0.58484549,-0.011023329999999887,0.02707234,0.2266104,18.65346958,-55.54935405,31.1545466,-152.46600999999998,-0.6247817517,0.3767750885,0.3289710817,0.21667817720000004,-0.01017079249999997,-0.04877985000000007
08:34:39,-0.12116513999999998,0.295180745,-0.5869341450000001,-0.01563096499999994,0.02608157,0.2262322,18.63758009,-55.539487525,31.175179800000002,-152.459845,-0.62762281785,0.37753373925,0.33133188285,0.2146898606,-0.011402426249999986,-0.04448214500000003
08:34:39,-0.12311959999999997,0.2955658,-0.5890228,-0.020238599999999884,0.025090799999999996,0.225854,18.6216906,-55.529621,31.195813,-152.45368,-0.630463884,0.37829239000000003,0.33369268399999996,0.21270154400000002,-0.012634059999999975,-0.0401844400000001
08:34:39,-0.12507405999999996,0.295950855,-0.5911114550000001,-0.02484623499999994,0.024100029999999995,0.2254758,18.60580111,-55.519754475,31.2164462,-152.44751499999998,-0.63330495015,0.37905104075,0.33605348515,0.21071322740000004,-0.013865693749999963,-0.03588673500000006
08:34:39,-0.12702851999999995,0.29633591000000004,-0.59320011,-0.029453869999999882,0.023109259999999993,0.2250976,18.589911620000002,-55.50988795,31.2370794,-152.44135,-0.6361460163,0.3798096915,0.3384142863,0.2087249108,-0.01509732749999998,-0.03158903000000002
08:34:39,-0.12898297999999994,0.296720965,-0.595288765,-0.034061504999999936,0.02211848999999999,0.22471939999999999,18.57402213,-55.500021425,31.2577126,-152.435185,-0.63898708245,0.38056834225,0.34077508744999996,0.2067365942,-0.016328961249999968,-0.02729132500000009
08:34:39,-0.13093744,0.29710602,-0.5973774199999999,-0.03866913999999988,0.021127720000000016,0.2243412,18.55813264,-55.4901549,31.2783458,-152.42901999999998,-0.6418281486,0.381326993,0.3431358886,0.20474827760000003,-0.017560594999999984,-0.022993620000000048
08:34:39,-0.13289189999999998,0.29749107500000005,-0.599466075,-0.043276774999999934,0.020136950000000015,0.223963,18.54224315,-55.480288375,31.298979,-152.422855,-0.64466921475,0.38208564375,0.34549668975,0.20275996100000004,-0.018792228749999973,-0.01869591500000012
08:34:39,-0.13484635999999997,0.29787613,-0.60155473,-0.04788440999999988,0.019146180000000013,0.2235848,18.52635366,-55.47042185,31.3196122,-152.41669,-0.6475102809,0.3828442945,0.34785749089999995,0.2007716444,-0.02002386249999996,-0.014398210000000078
08:34:39,-0.13680081999999996,0.29826118500000004,-0.603643385,-0.05249204499999993,0.01815541000000001,0.22320659999999998,18.510464170000002,-55.460555325,31.3402454,-152.41052499999998,-0.65035134705,0.38360294525,0.35021829205,0.19878332780000002,-0.021255496249999978,-0.010100505000000037
08:34:39,-0.13875527999999995,0.29864624,-0.60573204,-0.057099679999999875,0.01716464000000001,0.22282839999999998,18.49457468,-55.4506888,31.3608786,-152.40436,-0.6531924132,0.38436159599999997,0.35257909319999997,0.19679501120000004,-0.022487129999999966,-0.005802800000000108
08:34:39,-0.14070973999999994,0.29903129500000003,-0.607820695,-0.06170731499999993,0.016173870000000007,0.2224502,18.47868519,-55.440822275,31.3815118,-152.398195,-0.65603347935,0.38512024675,0.35493989434999995,0.1948066946,-0.023718763749999983,-0.0015050950000000674
08:34:39,-0.1426642,0.29941635,-0.60990935,-0.06631494999999987,0.015183100000000005,0.222072,18.4627957,-55.43095575,31.402145,-152.39202999999998,-0.6588745455,0.38587889750000004,0.3573006955,0.192818378,-0.02495039749999997,0.002792609999999973
08:34:39,-0.14461865999999998,0.299801405,-0.611998005,-0.07092258499999993,0.014192330000000003,0.2216938,18.44690621,-55.421089225,31.4227782,-152.385865,-0.66171561165,0.38663754825,0.35966149664999997,0.19083006140000003,-0.02618203124999996,0.007090314999999903
08:34:39,-0.14657311999999997,0.30018646000000004,-0.61408666,-0.07553021999999987,0.013201560000000001,0.2213156,18.431016720000002,-55.4112227,31.4434114,-152.37969999999999,-0.6645566778,0.387396199,0.36202229779999995,0.18884174480000004,-0.027413664999999976,0.011388019999999943
08:34:39,-0.14852757999999996,0.300571515,-0.616175315,-0.08013785499999992,0.01221079,0.2209374,18.41512723,-55.401356175000004,31.4640446,-152.373535,-0.66739774395,0.38815484975000003,0.36438309895,0.1868534282,-0.028645298749999965,0.015685724999999873
08:34:39,-0.15048203999999996,0.30095657000000003,-0.61826397,-0.08474548999999987,0.011220019999999997,0.2205592,18.39923774,-55.39148965,31.4846778,-152.36737,-0.6702388101,0.3889135005,0.36674390009999996,0.18486511160000002,-0.02987693249999998,0.019983429999999913
08:34:39,-0.15243649999999995,0.30134162500000006,-0.620352625,-0.08935312499999992,0.010229249999999995,0.220181,18.38334825,-55.381623125,31.505311,-152.36120499999998,-0.67307987625,0.38967215125,0.36910470125,0.18287679500000004,-0.03110856624999997,0.024281134999999954
08:34:39,-0.15439096,0.30172668,-0.62244128,-0.09396075999999987,0.009238479999999993,0.2198028,18.36745876,-55.3717566,31.5259442,-152.35504,-0.6759209424,0.390430802,0.3714655024,0.1808884784,-0.032340199999999986,0.028578839999999883
08:34:39,-0.15634541999999998,0.302111735,-0.624529935,-0.09856839499999992,0.008247709999999991,0.2194246,18.351569270000002,-55.361890075,31.5465774,-152.348875,-0.67876200855,0.39118945275,0.37382630354999996,0.1789001618,-0.033571833749999974,0.032876544999999924
08:34:39,-0.15829987999999998,0.30249679,-0.6266185900000001,-0.10317602999999986,0.007256940000000017,0.21904639999999997,18.33567978,-55.35202355,31.5672106,-152.34270999999998,-0.6816030747,0.3919481035,0.3761871047,0.17691184520000003,-0.03480346749999996,0.037174249999999964
08:34:39,-0.16025433999999997,0.30288184500000004,-0.628707245,-0.10778366499999992,0.006266170000000015,0.21866819999999998,18.31979029,-55.342157025,31.5878438,-152.336545,-0.68444414085,0.39270675425,0.37854790585,0.17492352860000004,-0.03603510124999998,0.041471954999999894
08:34:39,-0.16220879999999996,0.3032669,-0.6307959000000001,-0.11239129999999986,0.005275400000000013,0.21828999999999998,18.3039008,-55.3322905,31.608477,-152.33038,-0.6872852070000001,0.39346540500000005,0.38090870699999996,0.172935212,-0.03726673499999997,0.045769659999999934
08:34:39,-0.16416325999999995,0.30365195500000003,-0.632884555,-0.11699893499999992,0.0042846300000000115,0.2179118,18.28801131,-55.322423975,31.6291102,-152.32421499999998,-0.6901262731500001,0.39422405574999997,0.38326950815,0.17094689540000002,-0.038498368749999984,0.050067364999999975
08:34:39,-0.16611771999999994,0.30403701000000005,-0.6349732100000001,-0.12160656999999986,0.0032938600000000096,0.2175336,18.272121820000002,-55.31255745,31.6497434,-152.31805,-0.6929673393,0.3949827065,0.3856303093,0.16895857880000004,-0.03973000249999997,0.054365069999999904
08:34:39,-0.16807218,0.304422065,-0.637061865,-0.1262142049999999,0.0023030900000000076,0.2171554,18.25623233,-55.302690925,31.6703766,-152.311885,-0.69580840545,0.39574135725000004,0.38799111044999995,0.16697026220000005,-0.04096163624999996,0.058662774999999945
08:34:39,-0.17002663999999998,0.30480712000000004,-0.63915052,-0.13082183999999986,0.0013123200000000057,0.2167772,18.24034284,-55.2928244,31.6910098,-152.30571999999998,-0.6986494716,0.396500008,0.3903519116,0.1649819456,-0.04219326999999998,0.06296047999999987
08:34:39,-0.17198109999999997,0.305192175,-0.6412391749999999,-0.1354294749999999,0.0003215500000000038,0.216399,18.22445335,-55.282957875,31.711643,-152.299555,-0.70149053775,0.39725865875,0.39271271274999997,0.16299362900000003,-0.043424903749999966,0.06725818499999991
08:34:39,-0.17393555999999996,0.30557723000000003,-0.64332783,-0.14003710999999985,-0.0006692199999999981,0.2160208,18.20856386,-55.27309135,31.7322762,-152.29339,-0.7043316039,0.3980173095,0.39507351389999995,0.16100531240000004,-0.04465653749999998,0.07155588999999996
08:34:39,-0.17589001999999995,0.305962285,-0.645416485,-0.1446447449999999,-0.00165999,0.2156426,18.192674370000002,-55.263224825,31.7529094,-152.28722499999998,-0.7071726700500001,0.39877596025,0.39743431505,0.1590169958,-0.04588817124999997,0.07585359499999988
08:34:39,-0.17784447999999994,0.30634734,-0.64750514,-0.14925237999999985,-0.002650760000000002,0.2152644,18.17678488,-55.2533583,31.7735426,-152.28106,-0.7100137362000001,0.399534611,0.39979511619999997,0.15702867920000002,-0.04711980499999996,0.08015129999999993
08:34:39,-0.17979894,0.30673239500000005,-0.649593795,-0.1538600149999999,-0.003641530000000004,0.2148862,18.16089539,-55.243491775,31.7941758,-152.274895,-0.71285480235,0.40029326175,0.40215591734999995,0.15504036260000004,-0.048351438749999975,0.08444900499999997
08:34:39,-0.18175339999999998,0.30711745,-0.65168245,-0.15846764999999985,-0.004632300000000006,0.21450799999999998,18.1450059,-55.23362525,31.814809,-152.26873,-0.7156958685,0.4010519125,0.4045167185,0.15305204600000005,-0.049583072499999964,0.0887467099999999
08:34:39,-0.18370785999999997,0.30750250500000004,-0.653771105,-0.1630752849999999,-0.005623070000000008,0.21412979999999998,18.12911641,-55.223758724999996,31.8354422,-152.262565,-0.71853693465,0.40181056325,0.40687751964999996,0.1510637294,-0.05081470624999998,0.09304441499999994
08:34:39,-0.18566231999999996,0.30788756000000006,-0.65585976,-0.16768291999999996,-0.006613839999999982,0.21375159999999999,18.113226920000002,-55.2138922,31.8560754,-152.25639999999999,-0.7213780008,0.402569214,0.4092383208,0.14907541280000003,-0.05204633999999997,0.09734211999999998
08:34:39,-0.18761677999999996,0.308272615,-0.657948415,-0.1722905549999999,-0.007604609999999984,0.2133734,18.09733743,-55.204025675,31.8767086,-152.250235,-0.72421906695,0.40332786475000004,0.41159912195,0.14708709620000004,-0.05327797374999996,0.1016398249999999
08:34:39,-0.18957123999999995,0.30865767,-0.66003707,-0.17689818999999996,-0.008595379999999986,0.2129952,18.08144794,-55.19415915,31.8973418,-152.24407,-0.7270601331000001,0.4040865155,0.41395992309999996,0.1450987796,-0.054509607499999974,0.10593752999999995
08:34:39,-0.19152569999999994,0.309042725,-0.662125725,-0.1815058249999999,-0.009586149999999988,0.212617,18.06555845,-55.184292625,31.917975,-152.23790499999998,-0.7299011992500001,0.40484516625,0.41632072425,0.14311046300000002,-0.05574124124999996,0.11023523499999988
08:34:39,-0.19348015999999998,0.30942778000000004,-0.66421438,-0.18611345999999995,-0.01057691999999999,0.2122388,18.04966896,-55.1744261,31.9386082,-152.23174,-0.7327422654,0.40560381700000003,0.4186815254,0.14112214640000004,-0.05697287499999998,0.11453293999999992
08:34:39,-0.19543461999999998,0.309812835,-0.666303035,-0.1907210949999999,-0.011567689999999992,0.2118606,18.03377947,-55.164559575,31.9592414,-152.225575,-0.73558333155,0.40636246775,0.42104232654999996,0.13913382980000005,-0.05820450874999997,0.11883064499999996
08:34:39,-0.19738907999999997,0.31019789000000003,-0.66839169,-0.19532872999999995,-0.012558459999999994,0.2114824,18.01788998,-55.15469305,31.9798746,-152.21940999999998,-0.7384243977,0.4071211185,0.4234031277,0.1371455132,-0.059436142499999955,0.12312834999999989
08:34:39,-0.19934353999999996,0.31058294500000005,-0.6704803450000001,-0.1999363649999999,-0.013549229999999995,0.2111042,18.00200049,-55.144826525,32.0005078,-152.213245,-0.74126546385,0.40787976925,0.42576392885,0.13515719660000003,-0.06066777624999997,0.12742605499999993
08:34:40,-0.201298,0.310968,-0.672569,-0.204544,-0.01454,0.210726,17.986111,-55.13496,32.021141,-152.20708,-0.74410653,0.40863842,0.42812473,0.13316888,-0.06189941,0.13172376
08:34:40,-0.19622585,0.298798145,-0.66876898,-0.201864645,-0.014385525000000001,0.21084318999999999,17.997427260000002,-55.123104875,32.00775252,-152.26380385,-0.7397142118500001,0.3958932544,0.42082719585,0.13428103025,-0.0614581188,0.1290938003
08:34:40,-0.1911537,0.28662829,-0.6649689599999999,-0.19918529000000001,-0.01423105,0.21096038,18.00874352,-55.11124975,31.99436404,-152.32052769999999,-0.7353218937,0.3831480888,0.4135296617,0.1353931805,-0.061016827600000004,0.1264638406
08:34:40,-0.18608155,0.274458435,-0.6611689399999999,-0.196505935,-0.014076575000000001,0.21107757,18.02005978,-55.099394625,31.98097556,-152.37725154999998,-0.73092957555,0.3704029232,0.40623212755,0.13650533075,-0.060575536400000005,0.1238338809
08:34:40,-0.18100940000000001,0.26228858,-0.65736892,-0.19382658,-0.013922100000000001,0.21119476,18.03137604,-55.0875395,31.96758708,-152.43397539999998,-0.7265372574000001,0.3576577576,0.39893459340000004,0.13761748099999999,-0.0601342452,0.1212039212
08:34:40,-0.17593725,0.25011872500000004,-0.6535689,-0.191147225,-0.013767625,0.21131195,18.042692300000002,-55.075684375,31.9541986,-152.49069924999998,-0.72214493925,0.344912592,0.39163705925000003,0.13872963124999999,-0.059692954,0.11857396149999999
08:34:40,-0.1708651,0.23794887000000003,-0.64976888,-0.18846787,-0.013613150000000001,0.21142914,18.05400856,-55.06382925,31.94081012,-152.5474231,-0.7177526211,0.3321674264,0.3843395251,0.13984178149999998,-0.0592516628,0.1159440018
08:34:40,-0.16579295,0.22577901500000003,-0.64596886,-0.18578851500000002,-0.013458675000000002,0.21154633,18.06532482,-55.051974125,31.92742164,-152.60414695,-0.7133603029500001,0.3194222608,0.37704199095,0.14095393174999998,-0.0588103716,0.1133140421
08:34:40,-0.1607208,0.21360916000000002,-0.64216884,-0.18310916,-0.0133042,0.21166352,18.07664108,-55.040119,31.91403316,-152.6608708,-0.7089679848,0.3066770952,0.3697444568,0.14206608199999998,-0.0583690804,0.1106840824
08:34:40,-0.15564865,0.201439305,-0.63836882,-0.180429805,-0.013149725000000001,0.21178071,18.087957340000003,-55.028263875,31.90064468,-152.71759465,-0.70457566665,0.29393192960000003,0.36244692265,0.14317823224999998,-0.0579277892,0.10805412269999999
08:34:40,-0.1505765,0.18926945,-0.6345687999999999,-0.17775045,-0.01299525,0.2118979,18.0992736,-55.01640875,31.8872562,-152.7743185,-0.7001833485000001,0.281186764,0.3551493885,0.14429038249999998,-0.057486498000000004,0.10542416299999999
08:34:40,-0.14550435,0.17709959500000003,-0.6307687799999999,-0.175071095,-0.012840775,0.21201509,18.11058986,-55.004553625,31.87386772,-152.83104235,-0.69579103035,0.26844159840000004,0.34785185435,0.14540253274999998,-0.0570452068,0.1027942033
08:34:40,-0.1404322,0.16492974000000002,-0.62696876,-0.17239174000000002,-0.012686300000000001,0.21213228,18.121906120000002,-54.992698499999996,31.86047924,-152.8877662,-0.6913987122,0.2556964328,0.3405543202,0.14651468299999998,-0.0566039156,0.1001642436
08:34:40,-0.13536005,0.152759885,-0.62316874,-0.169712385,-0.012531825,0.21224947,18.13322238,-54.980843375,31.84709076,-152.94449004999998,-0.6870063940500001,0.24295126720000002,0.33325678605,0.14762683324999998,-0.0561626244,0.09753428389999999
08:34:40,-0.1302879,0.14059003000000003,-0.61936872,-0.16703303,-0.01237735,0.21236665999999998,18.14453864,-54.96898825,31.83370228,-153.00121389999998,-0.6826140759,0.23020610160000002,0.3259592519,0.14873898349999998,-0.0557213332,0.0949043242
08:34:40,-0.12521575000000001,0.12842017500000003,-0.6155687,-0.164353675,-0.012222875000000001,0.21248385,18.1558549,-54.957133125,31.8203138,-153.05793774999998,-0.67822175775,0.21746093600000002,0.31866171775,0.14985113374999998,-0.055280042,0.0922743645
08:34:40,-0.1201436,0.11625032000000002,-0.61176868,-0.16167432,-0.0120684,0.21260104,18.167171160000002,-54.945278,31.80692532,-153.1146616,-0.6738294396000001,0.20471577040000002,0.3113641836,0.15096328399999998,-0.0548387508,0.0896444048
08:34:40,-0.11507145,0.10408046500000001,-0.6079686599999999,-0.158994965,-0.011913925,0.21271823,18.17848742,-54.933422875,31.79353684,-153.17138545,-0.66943712145,0.19197060480000003,0.30406664945,0.15207543424999997,-0.0543974596,0.08701444509999999
08:34:40,-0.10999930000000001,0.09191061,-0.6041686399999999,-0.15631561,-0.011759450000000001,0.21283542,18.18980368,-54.92156775,31.78014836,-153.2281093,-0.6650448033,0.17922543920000003,0.2967691153,0.15318758449999997,-0.053956168400000004,0.08438448539999999
08:34:40,-0.10492715,0.07974075500000002,-0.60036862,-0.153636255,-0.011604975,0.21295261,18.20111994,-54.909712625,31.76675988,-153.28483315,-0.6606524851500001,0.16648027360000003,0.28947158115000005,0.15429973475,-0.053514877200000005,0.0817545257
08:34:40,-0.099855,0.06757090000000002,-0.5965686,-0.1509569,-0.0114505,0.2130698,18.2124362,-54.8978575,31.7533714,-153.341557,-0.656260167,0.153735108,0.28217404700000004,0.155411885,-0.053073586,0.079124566
08:34:40,-0.09478285,0.05540104500000004,-0.59276858,-0.148277545,-0.011296025000000001,0.21318699,18.22375246,-54.886002375,31.73998292,-153.39828085,-0.65186784885,0.1409899424,0.27487651285000003,0.15652403525,-0.0526322948,0.07649460629999999
08:34:40,-0.0897107,0.04323119000000003,-0.58896856,-0.14559819000000002,-0.01114155,0.21330418,18.23506872,-54.87414725,31.72659444,-153.4550047,-0.6474755307000001,0.12824477680000002,0.2675789787,0.1576361855,-0.0521910036,0.0738646466
08:34:40,-0.08463855,0.031061335000000023,-0.58516854,-0.142918835,-0.010987075,0.21342137,18.246384980000002,-54.862292124999996,31.71320596,-153.51172855,-0.64308321255,0.11549961120000002,0.26028144455,0.15874833575,-0.0517497124,0.0712346869
08:34:40,-0.07956640000000001,0.018891480000000016,-0.5813685199999999,-0.14023948,-0.010832600000000001,0.21353856,18.25770124,-54.850437,31.69981748,-153.56845239999998,-0.6386908944,0.10275444560000002,0.2529839104,0.159860486,-0.0513084212,0.06860472719999999
08:34:40,-0.07449425000000001,0.006721625000000009,-0.5775684999999999,-0.137560125,-0.010678125,0.21365575,18.2690175,-54.838581875,31.686429,-153.62517624999998,-0.6342985762500001,0.09000928000000002,0.24568637625,0.16097263625,-0.05086713,0.06597476749999999
08:34:40,-0.06942210000000001,-0.005448229999999998,-0.57376848,-0.13488076999999998,-0.01052365,0.21377294,18.28033376,-54.82672675,31.67304052,-153.68190009999998,-0.6299062581,0.07726411440000003,0.2383888421,0.1620847865,-0.0504258388,0.06334480779999999
08:34:40,-0.06434994999999999,-0.017618085000000006,-0.56996846,-0.132201415,-0.010369175000000001,0.21389013,18.291650020000002,-54.814871625,31.65965204,-153.73862395,-0.62551393995,0.06451894880000003,0.23109130795000002,0.16319693675,-0.0499845476,0.060714848099999996
08:34:40,-0.05927779999999999,-0.029787939999999957,-0.56616844,-0.12952206,-0.0102147,0.21400732,18.30296628,-54.8030165,31.64626356,-153.7953478,-0.6211216218000001,0.051773783200000034,0.2237937738,0.164309087,-0.0495432564,0.05808488839999999
08:34:40,-0.054205649999999994,-0.041957794999999964,-0.56236842,-0.126842705,-0.010060225,0.21412451,18.31428254,-54.791161375,31.63287508,-153.85207165,-0.61672930365,0.03902861760000004,0.21649623965,0.16542123725,-0.0491019652,0.05545492869999999
08:34:40,-0.0491335,-0.05412764999999997,-0.5585684,-0.12416335,-0.009905750000000001,0.2142417,18.3255988,-54.77930625,31.6194866,-153.9087955,-0.6123369855,0.02628345200000004,0.20919870550000003,0.1665333875,-0.048660674,0.052824969
08:34:40,-0.04406135,-0.06629750499999998,-0.55476838,-0.121483995,-0.009751275,0.21435889,18.33691506,-54.767451125,31.60609812,-153.96551935,-0.60794466735,0.013538286400000044,0.20190117135000002,0.16764553775,-0.0482193828,0.050195009299999996
08:34:40,-0.0389892,-0.07846735999999999,-0.5509683599999999,-0.11880464,-0.0095968,0.21447607999999999,18.34823132,-54.755596,31.59270964,-154.0222432,-0.6035523492,0.0007931208000000467,0.1946036372,0.168757688,-0.0477780916,0.04756504959999999
08:34:40,-0.033917050000000004,-0.090637215,-0.54716834,-0.11612528500000001,-0.009442325000000001,0.21459327,18.35954758,-54.743740875,31.57932116,-154.07896705,-0.59916003105,-0.01195204479999995,0.18730610305,0.16986983825,-0.047336800400000004,0.04493508989999999
08:34:40,-0.028844900000000007,-0.10280707,-0.54336832,-0.11344593,-0.00928785,0.21471046,18.370863840000002,-54.73188575,31.56593268,-154.1356909,-0.5947677129,-0.024697210399999947,0.1800085689,0.1709819885,-0.046895509200000005,0.042305130199999985
08:34:40,-0.02377275000000001,-0.11497692500000001,-0.5395683,-0.110766575,-0.009133375000000001,0.21482765,18.3821801,-54.720030625,31.5525442,-154.19241474999998,-0.59037539475,-0.037442375999999944,0.17271103475,0.17209413875,-0.046454218,0.039675170499999995
08:34:40,-0.01870060000000001,-0.12714678000000001,-0.53576828,-0.10808722,-0.008978900000000001,0.21494484,18.39349636,-54.708175499999996,31.53915572,-154.24913859999998,-0.5859830766,-0.05018754159999994,0.16541350059999999,0.17320628899999999,-0.0460129268,0.03704521079999999
08:34:40,-0.013628450000000014,-0.13931663499999997,-0.53196826,-0.105407865,-0.008824425,0.21506203,18.40481262,-54.696320375,31.52576724,-154.30586245,-0.58159075845,-0.06293270719999994,0.15811596645000003,0.17431843924999998,-0.0455716356,0.03441525109999999
08:34:40,-0.008556299999999989,-0.15148648999999997,-0.52816824,-0.10272851000000001,-0.008669950000000001,0.21517922,18.416128880000002,-54.68446525,31.51237876,-154.3625863,-0.5771984403,-0.07567787279999993,0.15081843230000003,0.17543058949999998,-0.0451303444,0.0317852914
08:34:40,-0.0034841499999999914,-0.16365634499999998,-0.5243682199999999,-0.100049155,-0.008515475000000002,0.21529641,18.42744514,-54.672610125,31.49899028,-154.41931015,-0.57280612215,-0.08842303839999993,0.14352089815000002,0.17654273974999998,-0.0446890532,0.029155331699999995
08:34:40,0.001588000000000006,-0.1758262,-0.5205682,-0.0973698,-0.008361,0.2154136,18.4387614,-54.660755,31.4856018,-154.476034,-0.568413804,-0.10116820399999998,0.136223364,0.17765488999999998,-0.044247761999999996,0.02652537199999999
08:34:40,0.006660150000000004,-0.187996055,-0.5167681799999999,-0.094690445,-0.008206525000000001,0.21553079,18.45007766,-54.648899875,31.47221332,-154.53275785,-0.56402148585,-0.11391336959999993,0.12892582985,0.17876704024999998,-0.0438064708,0.023895412299999988
08:34:40,0.011732300000000001,-0.20016590999999995,-0.51296816,-0.09201109,-0.008052050000000002,0.21564798,18.46139392,-54.63704475,31.45882484,-154.5894817,-0.5596291677,-0.12665853519999998,0.1216282957,0.17987919049999998,-0.0433651796,0.021265452599999984
08:34:40,0.01680445,-0.21233576499999995,-0.50916814,-0.08933173500000001,-0.007897575,0.21576517,18.47271018,-54.625189625,31.44543636,-154.64620555,-0.55523684955,-0.13940370079999992,0.11433076154999999,0.18099134074999998,-0.0429238884,0.018635492899999995
08:34:40,0.021876599999999996,-0.22450561999999996,-0.50536812,-0.08665238,-0.007743100000000001,0.21588236,18.48402644,-54.6133345,31.43204788,-154.7029294,-0.5508445314,-0.15214886639999997,0.10703322740000004,0.182103491,-0.0424825972,0.01600553319999999
08:34:40,0.026948749999999994,-0.23667547499999997,-0.5015681,-0.083973025,-0.007588625000000001,0.21599955,18.495342700000002,-54.601479375,31.4186594,-154.75965324999999,-0.54645221325,-0.1648940319999999,0.09973569325000003,0.18321564125,-0.042041306,0.013375573499999988
08:34:40,0.03202089999999999,-0.24884532999999998,-0.49776807999999995,-0.08129367,-0.0074341500000000005,0.21611674,18.50665896,-54.58962425,31.40527092,-154.81637709999998,-0.5420598951,-0.17763919759999997,0.09243815910000003,0.1843277915,-0.0416000148,0.010745613799999998
08:34:40,0.03709304999999999,-0.261015185,-0.49396806,-0.07861431499999999,-0.007279675000000001,0.21623393,18.51797522,-54.577769124999996,31.39188244,-154.87310094999998,-0.53766757695,-0.1903843631999999,0.08514062495000002,0.18543994175,-0.0411587236,0.008115654099999994
08:34:40,0.042165199999999986,-0.27318504,-0.49016803999999997,-0.07593496,-0.007125200000000001,0.21635112,18.52929148,-54.565914,31.37849396,-154.9298248,-0.5332752588,-0.20312952879999996,0.07784309080000001,0.186552092,-0.0407174324,0.005485694399999991
08:34:40,0.04723735000000001,-0.285354895,-0.48636802,-0.073255605,-0.0069707250000000005,0.21646831,18.540607740000002,-54.554058874999996,31.36510548,-154.98654865,-0.52888294065,-0.2158746943999999,0.07054555665000001,0.18766424225,-0.040276141200000004,0.002855734700000001
08:34:40,0.05230949999999998,-0.29752475,-0.482568,-0.07057625000000001,-0.006816250000000001,0.2165855,18.551924,-54.54220375,31.351717,-155.0432725,-0.5244906225,-0.22861985999999995,0.0632480225,0.1887763925,-0.039834850000000005,0.00022577499999998363
08:34:40,0.05738164999999998,-0.309694605,-0.47876798,-0.06789689500000001,-0.006661775,0.21670269,18.56324026,-54.530348625,31.33832852,-155.09999635,-0.52009830435,-0.2413650255999999,0.055950488349999994,0.18988854275,-0.0393935588,-0.002404184700000006
08:34:40,0.062453799999999976,-0.32186446,-0.47496795999999997,-0.06521753999999999,-0.006507300000000001,0.21681988,18.57455652,-54.5184935,31.32494004,-155.1567202,-0.5157059862,-0.25411019119999995,0.04865295419999999,0.191000693,-0.0389522676,-0.0050341444000000235
08:34:40,0.06752594999999997,-0.334034315,-0.47116793999999995,-0.062538185,-0.006352825000000001,0.21693707,18.58587278,-54.506638375,31.311551559999998,-155.21344405,-0.51131366805,-0.2668553567999999,0.041355420050000036,0.19211284325,-0.0385109764,-0.007664104100000013
08:34:40,0.07259810000000003,-0.34620417000000003,-0.46736792,-0.05985883,-0.00619835,0.21705426,18.59718904,-54.49478325,31.29816308,-155.2701679,-0.5069213499,-0.27960052239999994,0.03405788590000003,0.1932249935,-0.0380696852,-0.010294063800000003
08:34:40,0.07767025000000002,-0.35837402500000004,-0.4635679,-0.05717947500000001,-0.006043875000000001,0.21717145,18.6085053,-54.482928125,31.2847746,-155.32689175,-0.50252903175,-0.2923456879999999,0.026760351750000022,0.19433714375,-0.037628393999999996,-0.01292402350000002
08:34:40,0.08274240000000002,-0.37054387999999994,-0.45976788,-0.05450012000000001,-0.005889400000000001,0.21728864,18.619821560000002,-54.471073,31.27138612,-155.38361559999998,-0.4981367136,-0.30509085359999993,0.019462817600000015,0.195449294,-0.037187102799999996,-0.01555398320000001
08:34:40,0.08781455000000002,-0.38271373499999994,-0.45596786,-0.05182076499999999,-0.005734925,0.21740583,18.63113782,-54.459217875,31.25799764,-155.44033944999998,-0.49374439545000004,-0.3178360191999999,0.012165283450000008,0.19656144425,-0.0367458116,-0.0181839429
08:34:40,0.09288670000000002,-0.39488358999999995,-0.45216784,-0.049141409999999996,-0.005580450000000001,0.21752302,18.64245408,-54.447362749999996,31.24460916,-155.4970633,-0.4893520773,-0.3305811847999999,0.004867749300000002,0.1976735945,-0.0363045204,-0.020813902600000017
08:34:40,0.09795885000000001,-0.40705344499999996,-0.44836782,-0.046462055,-0.005425975000000001,0.21764021,18.65377034,-54.435507625,31.23122068,-155.55378715,-0.48495975915,-0.34332635039999987,-0.002429784850000005,0.19878574475,-0.0358632292,-0.023443862300000007
08:34:40,0.10303100000000001,-0.41922329999999997,-0.44456779999999996,-0.04378270000000001,-0.0052715,0.2177574,18.665086600000002,-54.423652499999996,31.2178322,-155.610511,-0.48056744100000004,-0.3560715159999999,-0.009727318999999957,0.199897895,-0.035421938,-0.026073821999999997
08:34:40,0.10810315000000001,-0.431393155,-0.44076777999999994,-0.04110334500000001,-0.005117025000000001,0.21787459,18.67640286,-54.411797375,31.20444372,-155.66723485,-0.47617512285,-0.36881668159999986,-0.017024853149999963,0.20101004525,-0.0349806468,-0.028703781700000014
08:34:40,0.1131753,-0.44356301,-0.43696776,-0.03842398999999999,-0.004962550000000001,0.21799178,18.68771912,-54.399942249999995,31.19105524,-155.7239587,-0.4717828047,-0.3815618471999999,-0.02432238729999997,0.2021221955,-0.0345393556,-0.031333741400000004
08:34:40,0.11824745,-0.455732865,-0.43316773999999997,-0.035744635,-0.004808075,0.21810897,18.69903538,-54.388087125,31.17766676,-155.78068255,-0.46739048655000004,-0.39430701279999986,-0.03161992144999998,0.20323434575,-0.0340980644,-0.03396370110000002
08:34:40,0.1233196,-0.46790272,-0.42936772,-0.03306528,-0.004653600000000001,0.21822616,18.71035164,-54.376232,31.16427828,-155.8374064,-0.4629981684,-0.4070521783999999,-0.038917455599999984,0.204346496,-0.033656773200000004,-0.03659366080000001
08:34:40,0.12839175,-0.480072575,-0.4255677,-0.030385925000000008,-0.004499125000000001,0.21834335,18.7216679,-54.364376875,31.150889799999998,-155.89413025,-0.45860585025,-0.41979734399999996,-0.04621498974999999,0.20545864625,-0.033215482000000005,-0.0392236205
08:34:40,0.1334639,-0.49224243,-0.42176768,-0.027706570000000014,-0.00434465,0.21846054,18.73298416,-54.35252175,31.13750132,-155.9508541,-0.45421353210000004,-0.4325425095999999,-0.0535125239,0.2065707965,-0.0327741908,-0.04185358020000002
08:34:40,0.13853605,-0.504412285,-0.41796765999999996,-0.02502721499999999,-0.004190175000000001,0.21857773,18.744300420000002,-54.340666625,31.12411284,-156.00757794999998,-0.44982121395,-0.44528767519999995,-0.060810058050000004,0.20768294674999999,-0.0323328996,-0.04448353990000001
08:34:40,0.1436082,-0.51658214,-0.41416764,-0.022347859999999997,-0.0040357000000000014,0.21869492000000001,18.75561668,-54.3288115,31.11072436,-156.06430179999998,-0.4454288958,-0.4580328407999999,-0.06810759220000001,0.20879509699999999,-0.0318916084,-0.047113499600000025
08:34:40,0.14868035,-0.528751995,-0.41036762,-0.019668505000000003,-0.0038812250000000003,0.21881211,18.76693294,-54.316956375,31.09733588,-156.12102565,-0.44103657765000004,-0.47077800639999995,-0.07540512635000002,0.20990724724999998,-0.0314503172,-0.049743459300000015
