Timestamp,linacce_x,linacce_y,linacce_z,gyro_x,gyro_y,gyro_z,X-magnetometer,Y-magnetometer,Z-magnetometer,Yaw, worldXAccel,worldYAccel,worldZAccel,worldXgyro,worldYgyro,worldZgyro
08:32:59,-1.078965,-0.200891,0.044428,-0.019173,0.051511,-0.024716,2.332775,-11.619732,-15.855362,16.10799,-0.46989104,-0.35906377,0.97601753,-0.042593792,0.0526247,-0.0031135809
08:32:59,-1.070590185,-0.197740265,0.05063551,-0.01840595,0.049167235000000004,-0.025046259999999997,2.357053605,-11.618302765000001,-15.861242429999999,15.816033825000002,-0.4606239208,-0.35521292535,0.9723155851,-0.042316348695,0.0502955886,-0.0046549922455
08:32:59,-1.0622153699999999,-0.19458952999999998,0.05684302,-0.0176389,0.04682347,-0.02537652,2.3813322099999996,-11.616873530000001,-15.86712286,15.52407765,-0.45135680159999997,-0.3513620807,0.9686136402000001,-0.04203890539,0.0479664772,-0.006196403591
08:32:59,-1.0538405549999998,-0.191438795,0.06305053000000001,-0.01687185,0.044479705,-0.02570678,2.4056108149999997,-11.615444295000001,-15.87300329,15.232121475000001,-0.44208968239999996,-0.34751123605,0.9649116953,-0.041761462085,0.0456373658,-0.0077378149365
08:32:59,-1.04546574,-0.18828805999999998,0.06925804,-0.0161048,0.042135940000000004,-0.026037039999999997,2.42988942,-11.614015060000002,-15.87888372,14.9401653,-0.4328225632,-0.3436603914,0.9612097504,-0.04148401878,0.0433082544,-0.009279226282
08:32:59,-1.037090925,-0.185137325,0.07546555,-0.015337749999999999,0.039792175,-0.0263673,2.454168025,-11.612585825,-15.884764149999999,14.648209125000001,-0.423555444,-0.33980954675,0.9575078055,-0.041206575475,0.040979143,-0.0108206376275
08:32:59,-1.02871611,-0.18198658999999998,0.08167306,-0.014570699999999999,0.03744841,-0.02669756,2.4784466299999997,-11.61115659,-15.89064458,14.356252950000002,-0.4142883248,-0.3359587021,0.9538058606,-0.04092913217,0.0386500316,-0.012362048973
08:32:59,-1.020341295,-0.178835855,0.08788057,-0.01380365,0.035104645000000004,-0.027027819999999998,2.5027252349999998,-11.609727355,-15.89652501,14.064296775,-0.4050212056,-0.33210785745,0.9501039157,-0.040651688865,0.0363209202,-0.0139034603185
08:32:59,-1.01196648,-0.17568511999999997,0.09408808,-0.013036599999999999,0.032760880000000006,-0.02735808,2.52700384,-11.60829812,-15.902405439999999,13.772340600000001,-0.3957540864,-0.3282570128,0.9464019708,-0.04037424556,0.0339918088,-0.015444871664
08:32:59,-1.0035916649999999,-0.17253438499999998,0.10029559,-0.01226955,0.030417115,-0.02768834,2.551282445,-11.606868885,-15.90828587,13.480384425,-0.3864869672,-0.32440616815,0.9427000259,-0.040096802255,0.0316626974,-0.0169862830095
08:32:59,-0.9952168499999999,-0.16938365,0.1065031,-0.011502499999999999,0.028073350000000004,-0.028018599999999998,2.5755610499999997,-11.605439650000001,-15.9141663,13.188428250000001,-0.37721984799999997,-0.3205553235,0.938998081,-0.03981935895,0.029333586000000002,-0.018527694355
08:32:59,-0.986842035,-0.16623291499999998,0.11271061000000002,-0.01073545,0.025729585000000003,-0.028348859999999997,2.599839655,-11.604010415000001,-15.92004673,12.896472075000002,-0.36795272879999996,-0.31670447884999997,0.9352961361000001,-0.039541915645,0.0270044746,-0.0200691057005
08:32:59,-0.97846722,-0.16308218,0.11891812000000002,-0.0099684,0.02338582,-0.02867912,2.62411826,-11.602581180000001,-15.925927159999999,12.6045159,-0.35868560959999995,-0.3128536342,0.9315941912,-0.039264472339999995,0.0246753632,-0.021610517045999998
08:32:59,-0.9700924049999999,-0.15993144499999998,0.12512563000000002,-0.00920135,0.021042055000000004,-0.029009379999999998,2.6483968649999996,-11.601151945000002,-15.93180759,12.312559725000002,-0.34941849039999995,-0.30900278955,0.9278922463,-0.038987029034999995,0.0223462518,-0.023151928391499998
08:32:59,-0.9617175899999999,-0.15678071,0.13133314000000001,-0.0084343,0.018698290000000006,-0.02933964,2.6726754699999997,-11.59972271,-15.93768802,12.02060355,-0.3401513712,-0.30515194489999997,0.9241903014,-0.038709585729999996,0.0200171404,-0.024693339736999997
08:32:59,-0.953342775,-0.15362997499999997,0.13754065000000001,-0.0076672500000000005,0.016354525,-0.0296699,2.696954075,-11.598293475,-15.943568449999999,11.728647375000001,-0.330884252,-0.30130110025,0.9204883565,-0.038432142424999996,0.017688029,-0.026234751082499997
08:32:59,-0.9449679599999999,-0.15047924,0.14374816,-0.0069002,0.014010760000000004,-0.030000159999999998,2.72123268,-11.59686424,-15.94944888,11.436691200000002,-0.3216171328,-0.2974502556,0.9167864116,-0.038154699119999996,0.0153589176,-0.027776162427999997
08:32:59,-0.9365931449999999,-0.147328505,0.14995567,-0.00613315,0.011666995000000006,-0.030330419999999997,2.7455112849999996,-11.595435005,-15.95532931,11.144735025000001,-0.3123500136,-0.29359941095,0.9130844667,-0.037877255815,0.0130298062,-0.029317573773499996
08:32:59,-0.92821833,-0.14417776999999998,0.15616318,-0.0053661,0.009323230000000002,-0.030660679999999996,2.7697898899999998,-11.59400577,-15.96120974,10.85277885,-0.30308289439999997,-0.2897485663,0.9093825218,-0.03759981251,0.0107006948,-0.030858985118999996
08:32:59,-0.919843515,-0.141027035,0.16237069,-0.00459905,0.006979465000000004,-0.030990939999999998,2.794068495,-11.592576535000001,-15.96709017,10.560822675,-0.2938157752,-0.28589772165,0.9056805769,-0.037322369205,0.0083715834,-0.0324003964645
08:32:59,-0.9114686999999999,-0.13787629999999998,0.1685782,-0.0038320000000000003,0.0046357000000000065,-0.0313212,2.8183470999999995,-11.591147300000001,-15.9729706,10.268866500000001,-0.284548656,-0.282046877,0.9019786320000001,-0.0370449259,0.006042472,-0.033941807809999995
08:32:59,-0.9030938849999999,-0.134725565,0.17478571,-0.0030649500000000003,0.002291935000000002,-0.03165146,2.8426257049999997,-11.589718065000001,-15.97885103,9.976910325000002,-0.2752815368,-0.27819603235,0.8982766871,-0.036767482595,0.0037133606,-0.0354832191555
08:32:59,-0.89471907,-0.13157482999999998,0.18099322,-0.002297900000000002,-5.182999999999577e-05,-0.03198172,2.86690431,-11.588288830000002,-15.984731459999999,9.684954150000001,-0.2660144176,-0.2743451877,0.8945747422,-0.03649003929,0.0013842491999999998,-0.037024630501
08:32:59,-0.8863442549999999,-0.128424095,0.18720073,-0.0015308500000000003,-0.0023955949999999934,-0.03231198,2.891182915,-11.586859595,-15.99061189,9.392997975,-0.2567472984,-0.27049434305,0.8908727973,-0.036212595985,-0.0009448622000000004,-0.0385660418465
08:32:59,-0.87796944,-0.12527336,0.19340824,-0.000763800000000002,-0.004739359999999998,-0.032642239999999996,2.91546152,-11.58543036,-15.99649232,9.1010418,-0.24748017919999998,-0.2666434984,0.8871708524,-0.03593515268,-0.0032739736000000005,-0.040107453192
08:32:59,-0.869594625,-0.12212262499999998,0.19961575,3.249999999999781e-06,-0.007083124999999996,-0.0329725,2.9397401249999997,-11.584001125,-16.00237275,8.809085625000002,-0.23821305999999998,-0.26279265375,0.8834689075,-0.035657709375,-0.005603085000000001,-0.0416488645375
08:32:59,-0.8612198099999999,-0.11897188999999998,0.20582326,0.0007702999999999981,-0.009426889999999993,-0.03330276,2.96401873,-11.58257189,-16.00825318,8.517129450000002,-0.22894594079999997,-0.2589418091,0.8797669626,-0.03538026607,-0.007932196400000001,-0.043190275883
08:32:59,-0.8528449949999999,-0.11582115499999998,0.21203077,0.0015373499999999998,-0.011770654999999991,-0.03363302,2.9882973349999995,-11.581142655,-16.01413361,8.225173275000001,-0.21967882159999996,-0.25509096445,0.8760650177,-0.035102822765,-0.010261307800000001,-0.044731687228499996
08:32:59,-0.84447018,-0.11267042,0.21823828,0.002304399999999998,-0.014114419999999989,-0.03396328,3.0125759399999996,-11.579713420000001,-16.02001404,7.933217100000002,-0.2104117024,-0.2512401198,0.8723630728,-0.03482537946,-0.012590419200000001,-0.046273098574
08:32:59,-0.8360953649999999,-0.10951968499999999,0.22444579,0.00307145,-0.016458185,-0.03429354,3.0368545449999997,-11.578284185000001,-16.02589447,7.641260925000001,-0.2011445832,-0.24738927514999998,0.8686611279,-0.034547936155,-0.014919530600000001,-0.047814509919499995
08:32:59,-0.82772055,-0.10636894999999999,0.2306533,0.003838499999999998,-0.018801949999999998,-0.034623799999999996,3.06113315,-11.576854950000001,-16.0317749,7.349304750000002,-0.191877464,-0.24353843049999999,0.8649591830000001,-0.03427049285,-0.017248642,-0.049355921265
08:32:59,-0.819345735,-0.10321821499999999,0.23686081,0.00460555,-0.021145714999999995,-0.034954059999999995,3.085411755,-11.575425715000002,-16.03765533,7.057348575000001,-0.1826103448,-0.23968758585,0.8612572381,-0.033993049545,-0.0195777534,-0.050897332610499994
08:32:59,-0.8109709199999999,-0.10006747999999999,0.24306832,0.005372599999999998,-0.023489479999999993,-0.035284319999999994,3.1096903599999997,-11.57399648,-16.04353576,6.765392400000001,-0.17334322559999998,-0.23583674119999998,0.8575552932,-0.03371560624,-0.021906864800000002,-0.052438743956
08:32:59,-0.8025961049999999,-0.09691674499999998,0.24927583,0.0061396499999999965,-0.02583324499999999,-0.03561458,3.1339689649999998,-11.572567245,-16.04941619,6.473436225000002,-0.16407610639999998,-0.23198589655,0.8538533483,-0.033438162935,-0.024235976200000002,-0.0539801553015
08:32:59,-0.7942212899999999,-0.09376600999999998,0.25548334,0.006906699999999998,-0.02817700999999999,-0.03594484,3.15824757,-11.57113801,-16.05529662,6.181480050000001,-0.15480898719999997,-0.2281350519,0.8501514034,-0.03316071963,-0.026565087600000002,-0.055521566647
08:32:59,-0.7858464749999999,-0.09061527499999998,0.26169085000000003,0.0076737499999999965,-0.030520774999999986,-0.0362751,3.1825261749999996,-11.569708775,-16.06117705,5.889523875000002,-0.14554186799999996,-0.22428420724999998,0.8464494585,-0.032883276325,-0.028894199000000002,-0.0570629779925
08:32:59,-0.7774716599999999,-0.08746453999999998,0.26789836,0.008440799999999998,-0.03286454,-0.036605359999999997,3.2068047799999997,-11.56827954,-16.06705748,5.597567700000001,-0.13627474879999996,-0.2204333626,0.8427475136,-0.03260583302,-0.031223310400000003,-0.058604389337999996
08:32:59,-0.769096845,-0.08431380499999999,0.27410587000000003,0.009207849999999997,-0.035208304999999995,-0.036935619999999995,3.231083385,-11.566850305,-16.07293791,5.3056115250000015,-0.1270076296,-0.21658251795,0.8390455687,-0.032328389715,-0.0335524218,-0.0601458006835
08:32:59,-0.7607220299999999,-0.08116306999999999,0.28031338,0.009974899999999998,-0.03755206999999999,-0.03726588,3.25536199,-11.565421070000001,-16.07881834,5.013655350000002,-0.1177405104,-0.21273167329999998,0.8353436238,-0.03205094641,-0.0358815332,-0.061687212028999995
08:32:59,-0.7523472149999999,-0.07801233499999999,0.28652089000000003,0.010741949999999997,-0.03989583499999999,-0.03759614,3.2796405949999996,-11.563991835000001,-16.08469877,4.721699175000001,-0.10847339119999999,-0.20888082865,0.8316416789000001,-0.031773503105,-0.0382106446,-0.0632286233745
08:32:59,-0.7439723999999999,-0.07486159999999997,0.2927284,0.011508999999999998,-0.04223959999999999,-0.0379264,3.3039191999999997,-11.562562600000001,-16.0905792,4.429743000000002,-0.09920627199999998,-0.205029984,0.827939734,-0.031496059800000004,-0.040539756,-0.06477003472
08:32:59,-0.7355975849999999,-0.07171086499999998,0.29893591,0.01227605,-0.044583364999999986,-0.03825666,3.328197805,-11.561133365,-16.09645963,4.137786825000001,-0.08993915279999998,-0.20117913934999998,0.8242377891,-0.031218616495,-0.0428688674,-0.06631144606549999
08:32:59,-0.7272227699999999,-0.06856013,0.30514342000000005,0.013043099999999998,-0.04692713,-0.03858692,3.3524764099999995,-11.55970413,-16.10234006,3.8458306500000017,-0.08067203359999997,-0.1973282947,0.8205358442,-0.030941173189999997,-0.045197978800000004,-0.06785285741099999
08:32:59,-0.718847955,-0.06540939499999998,0.31135093,0.013810149999999997,-0.049270894999999995,-0.038917179999999996,3.3767550149999996,-11.558274895,-16.10822049,3.5538744750000024,-0.07140491439999996,-0.19347745005,0.8168338992999999,-0.030663729884999998,-0.047527090200000004,-0.06939426875649998
08:32:59,-0.71047314,-0.06225865999999999,0.31755844000000005,0.014577199999999995,-0.05161465999999999,-0.039247439999999995,3.4010336199999998,-11.55684566,-16.11410092,3.2619183000000014,-0.06213779520000001,-0.18962660539999998,0.8131319544,-0.030386286579999998,-0.049856201600000004,-0.07093568010199999
08:32:59,-0.7020983249999999,-0.05910792499999998,0.32376595,0.01534425,-0.05395842499999999,-0.03957769999999999,3.425312225,-11.555416425,-16.11998135,2.969962125000002,-0.052870676000000005,-0.18577576075,0.8094300095,-0.030108843274999998,-0.052185313000000004,-0.07247709144749999
08:32:59,-0.6937235099999999,-0.05595718999999999,0.32997346000000005,0.0161113,-0.05630218999999999,-0.03990796,3.44959083,-11.55398719,-16.12586178,2.678005950000001,-0.0436035568,-0.18192491609999997,0.8057280646,-0.02983139997,-0.054514424400000004,-0.07401850279299999
08:32:59,-0.6853486949999998,-0.052806454999999974,0.33618097,0.016878349999999997,-0.058645954999999986,-0.04023822,3.4738694349999997,-11.552557955000001,-16.13174221,2.386049775000002,-0.03433643759999999,-0.17807407144999998,0.8020261197,-0.029553956665,-0.056843535800000004,-0.07555991413849998
08:32:59,-0.6769738799999999,-0.04965571999999999,0.34238848000000005,0.017645399999999995,-0.06098972,-0.04056848,3.49814804,-11.551128720000001,-16.13762264,2.0940936000000008,-0.025069318399999985,-0.1742232268,0.7983241748000001,-0.02927651336,-0.059172647200000004,-0.07710132548399999
08:32:59,-0.668599065,-0.046504985,0.34859599,0.018412449999999993,-0.063333485,-0.040898739999999996,3.5224266449999995,-11.549699485000001,-16.14350307,1.8021374250000015,-0.015802199199999978,-0.17037238214999997,0.7946222299,-0.028999070055,-0.061501758600000005,-0.07864273682949999
08:32:59,-0.66022425,-0.04335424999999998,0.35480350000000005,0.0191795,-0.06567724999999999,-0.041229,3.5467052499999996,-11.548270250000002,-16.1493835,1.5101812500000023,-0.006535079999999971,-0.16652153749999998,0.790920285,-0.02872162675,-0.06383087000000001,-0.08018414817499998
08:32:59,-0.6518494349999999,-0.040203514999999995,0.36101101,0.019946549999999997,-0.06802101499999999,-0.04155926,3.5709838549999997,-11.546841015,-16.15526393,1.2182250750000012,0.002732039200000036,-0.16267069285,0.7872183401,-0.028444183445,-0.06615998140000001,-0.0817255595205
08:32:59,-0.6434746199999999,-0.03705277999999998,0.36721852000000005,0.020713599999999995,-0.07036477999999999,-0.04188952,3.59526246,-11.54541178,-16.16114436,0.926268900000002,0.011999158400000043,-0.15881984819999997,0.7835163951999999,-0.02816674014,-0.06848909280000001,-0.08326697086599999
08:32:59,-0.6350998049999999,-0.03390204499999999,0.37342603,0.021480649999999993,-0.07270854499999999,-0.04221978,3.619541065,-11.543982545,-16.16702479,0.6343127250000009,0.021266277599999994,-0.15496900354999998,0.7798144503,-0.027889296835,-0.07081820420000001,-0.08480838221149999
08:32:59,-0.6267249899999999,-0.030751309999999976,0.37963354000000005,0.0222477,-0.07505230999999998,-0.04255004,3.6438196699999996,-11.54255331,-16.17290522,0.34235655000000165,0.030533396800000057,-0.1511181589,0.7761125054,-0.02761185353,-0.07314731560000001,-0.08634979355699998
08:32:59,-0.6183501749999999,-0.02760057499999999,0.38584105,0.023014749999999997,-0.07739607499999998,-0.042880299999999996,3.6680982749999997,-11.541124075,-16.17878565,0.050400375000002384,0.039800516000000064,-0.14726731424999998,0.7724105605,-0.027334410225,-0.07547642700000001,-0.08789120490249999
08:32:59,-0.60997536,-0.02444984,0.39204856000000005,0.023781799999999995,-0.07973983999999998,-0.043210559999999995,3.6923768799999994,-11.539694840000001,-16.18466608,-0.24155579999999688,0.04906763519999996,-0.14341646959999999,0.7687086156,-0.02705696692,-0.07780553840000001,-0.08943261624799999
08:32:59,-0.6016005449999999,-0.021299104999999985,0.39825607,0.024548849999999994,-0.08208360499999998,-0.043540819999999994,3.7166554849999995,-11.538265605000001,-16.19054651,-0.5335119749999997,0.058334754399999966,-0.13956562495,0.7650066707000001,-0.026779523615000002,-0.08013464980000001,-0.09097402759349998
08:32:59,-0.5932257299999999,-0.018148369999999997,0.40446358000000004,0.0253159,-0.08442737,-0.04387107999999999,3.7409340899999997,-11.536836370000001,-16.19642694,-0.825468149999999,0.06760187359999997,-0.13571478029999998,0.7613047258,-0.02650208031,-0.08246376120000001,-0.09251543893899998
08:32:59,-0.5848509149999999,-0.014997634999999981,0.41067109,0.026082949999999997,-0.086771135,-0.04420133999999999,3.7652126949999998,-11.535407135000002,-16.20230737,-1.1174243249999982,0.07686899279999998,-0.13186393564999999,0.7576027809,-0.026224637005,-0.08479287260000001,-0.09405685028449999
08:32:59,-0.5764760999999999,-0.011846899999999994,0.41687860000000004,0.026849999999999995,-0.0891149,-0.0445316,3.7894913,-11.5339779,-16.2081878,-1.4093804999999975,0.08613611199999999,-0.12801309099999997,0.753900836,-0.0259471937,-0.08712198400000001,-0.09559826162999999
08:32:59,-0.5681012849999999,-0.008696164999999978,0.42308611,0.027617049999999994,-0.091458665,-0.044861859999999996,3.813769905,-11.532548665,-16.21406823,-1.7013366749999967,0.0954032312,-0.12416224634999998,0.7501988911,-0.025669750395,-0.08945109540000001,-0.09713967297549998
08:32:59,-0.5597264699999999,-0.00554542999999999,0.42929362000000004,0.0283841,-0.09380242999999999,-0.045192119999999995,3.8380485099999997,-11.53111943,-16.21994866,-1.9932928499999996,0.1046703504,-0.12031140169999999,0.7464969462,-0.02539230709,-0.09178020680000001,-0.09868108432099998
08:32:59,-0.5513516549999999,-0.0023946949999999745,0.43550113,0.029151149999999997,-0.09614619499999999,-0.04552238,3.862327115,-11.529690195,-16.22582909,-2.285249024999999,0.11393746960000001,-0.11646055704999997,0.7427950013,-0.025114863785,-0.09410931820000001,-0.10022249566649999
08:32:59,-0.5429768399999999,0.0007560400000000134,0.44170864000000004,0.029918199999999995,-0.09848995999999999,-0.04585264,3.8866057199999995,-11.52826096,-16.23170952,-2.577205199999998,0.12320458880000001,-0.11260971239999998,0.7390930564,-0.02483742048,-0.09643842960000001,-0.10176390701199999
08:32:59,-0.5346020249999999,0.003906775000000001,0.44791615000000007,0.030685249999999994,-0.10083372499999999,-0.0461829,3.9108843249999996,-11.526831725000001,-16.23758995,-2.8691613749999973,0.13247170800000002,-0.10875886774999999,0.7353911115,-0.024559977175,-0.09876754100000001,-0.10330531835749998
08:32:59,-0.52622721,0.007057510000000017,0.45412366000000004,0.03145229999999999,-0.10317748999999998,-0.04651316,3.9351629299999997,-11.525402490000001,-16.24347038,-3.1611175499999966,0.14173882720000003,-0.10490802309999997,0.7316891666,-0.02428253387,-0.10109665240000001,-0.10484672970299999
08:32:59,-0.5178523949999999,0.010208245000000005,0.46033117000000007,0.032219349999999994,-0.10552125499999998,-0.04684342,3.959441535,-11.523973255000001,-16.24935081,-3.4530737249999994,0.15100594640000004,-0.10105717844999995,0.7279872217,-0.024005090565,-0.10342576380000001,-0.10638814104849999
08:32:59,-0.5094775799999999,0.01335898000000002,0.46653868000000004,0.0329864,-0.10786501999999998,-0.047173679999999996,3.98372014,-11.522544020000002,-16.25523124,-3.7450298999999987,0.16027306560000004,-0.09720633379999999,0.7242852768,-0.02372764726,-0.10575487520000001,-0.10792955239399998
08:32:59,-0.501102765,0.016509715000000008,0.47274619000000007,0.03375344999999999,-0.11020878499999998,-0.047503939999999995,4.007998745,-11.521114785,-16.26111167,-4.036986074999998,0.16954018480000005,-0.09335548914999997,0.7205833319,-0.023450203955000002,-0.10808398660000001,-0.10947096373949998
08:32:59,-0.4927279499999999,0.019660450000000024,0.47895370000000004,0.034520499999999996,-0.11255254999999997,-0.04783419999999999,4.032277349999999,-11.51968555,-16.2669921,-4.328942249999997,0.17880730400000006,-0.08950464449999995,0.7168813869999999,-0.023172760650000002,-0.11041309800000002,-0.11101237508499999
08:32:59,-0.4843531349999999,0.02281118500000001,0.48516121000000006,0.03528755,-0.114896315,-0.04816445999999999,4.056555954999999,-11.518256315,-16.27287253,-4.6208984249999965,0.18807442320000006,-0.08565379984999999,0.7131794421,-0.022895317345,-0.11274220940000002,-0.11255378643049999
08:32:59,-0.47597831999999984,0.025961920000000027,0.49136872000000004,0.03605459999999999,-0.11724008,-0.04849471999999999,4.0808345599999996,-11.51682708,-16.27875296,-4.912854599999999,0.19734154240000007,-0.08180295519999997,0.7094774972,-0.02261787404,-0.11507132080000002,-0.11409519777599998
08:32:59,-0.4676035049999999,0.029112655000000015,0.49757623000000006,0.03682165,-0.119583845,-0.04882498,4.105113165,-11.515397845,-16.28463339,-5.204810774999999,0.20660866159999997,-0.07795211054999995,0.7057755523,-0.022340430735,-0.11740043220000002,-0.11563660912149998
08:32:59,-0.4592286899999999,0.03226339,0.50378374,0.03758869999999999,-0.12192760999999999,-0.049155239999999996,4.12939177,-11.513968610000001,-16.29051382,-5.496766949999998,0.21587578079999997,-0.07410126589999999,0.7020736074,-0.02206298743,-0.11972954360000002,-0.11717802046699999
08:32:59,-0.45085387499999985,0.03541412500000002,0.50999125,0.038355749999999994,-0.12427137499999999,-0.049485499999999995,4.153670375,-11.512539375000001,-16.29639425,-5.788723124999997,0.22514289999999998,-0.07025042124999997,0.6983716625,-0.021785544125,-0.12205865500000002,-0.11871943181249998
08:32:59,-0.4424790599999999,0.038564860000000006,0.51619876,0.0391228,-0.12661514,-0.04981576,4.17794898,-11.511110140000001,-16.30227468,-6.080679299999996,0.23441001919999999,-0.06639957659999995,0.6946697176000001,-0.02150810082,-0.12438776640000002,-0.12026084315799998
08:32:59,-0.4341042449999999,0.04171559500000002,0.5224062700000001,0.03988984999999999,-0.12895890499999998,-0.05014602,4.202227584999999,-11.509680905000002,-16.30815511,-6.372635474999999,0.2436771384,-0.06254873194999999,0.6909677727,-0.021230657515,-0.12671687780000002,-0.12180225450349998
08:32:59,-0.42572942999999985,0.04486633000000001,0.52861378,0.040656899999999996,-0.13130266999999998,-0.05047628,4.226506189999999,-11.50825167,-16.31403554,-6.664591649999998,0.2529442576,-0.05869788729999997,0.6872658278,-0.02095321421,-0.12904598920000002,-0.12334366584899999
08:32:59,-0.41735461499999993,0.048017065000000025,0.53482129,0.04142395,-0.13364643499999998,-0.05080654,4.2507847949999995,-11.506822435,-16.31991597,-6.956547824999998,0.2622113768,-0.054847042649999955,0.6835638828999999,-0.020675770905,-0.13137510060000002,-0.12488507719449998
08:32:59,-0.4089797999999999,0.05116780000000004,0.5410288,0.04219099999999999,-0.13599019999999998,-0.051136799999999996,4.2750634,-11.5053932,-16.3257964,-7.248503999999997,0.271478496,-0.05099619799999999,0.6798619379999999,-0.020398327600000002,-0.13370421200000002,-0.12642648854
08:32:59,-0.40060498499999986,0.054318535,0.5472363100000001,0.04295805,-0.13833396499999998,-0.051467059999999995,4.299342005,-11.503963965,-16.33167683,-7.540460174999996,0.2807456152,-0.047145353349999974,0.6761599931,-0.020120884295000002,-0.13603332340000002,-0.1279678998855
08:32:59,-0.39223016999999993,0.05746927000000002,0.55344382,0.0437251,-0.14067772999999997,-0.051797319999999994,4.32362061,-11.50253473,-16.33755726,-7.832416349999999,0.2900127344,-0.043294508699999956,0.6724580482,-0.019843440990000002,-0.13836243480000002,-0.12950931123099998
08:32:59,-0.3838553549999999,0.06062000500000003,0.55965133,0.044492149999999994,-0.14302149499999997,-0.05212757999999999,4.347899215,-11.501105495000001,-16.343437690000002,-8.124372524999998,0.29927985360000003,-0.039443664049999994,0.6687561033,-0.019565997685000003,-0.14069154620000002,-0.1310507225765
08:32:59,-0.37548053999999986,0.06377073999999999,0.5658588400000001,0.0452592,-0.14536526,-0.05245783999999999,4.372177819999999,-11.499676260000001,-16.34931812,-8.416328699999998,0.30854697280000004,-0.035592819399999975,0.6650541584,-0.01928855438,-0.14302065760000002,-0.13259213392199998
08:32:59,-0.36710572499999994,0.06692147500000001,0.5720663500000001,0.04602624999999999,-0.147709025,-0.0527881,4.396456425,-11.498247025000001,-16.35519855,-8.708284874999997,0.31781409200000005,-0.03174197474999996,0.6613522135000001,-0.019011111075,-0.14534976900000002,-0.1341335452675
08:32:59,-0.3587309099999999,0.07007221000000002,0.57827386,0.046793299999999996,-0.15005279,-0.053118359999999996,4.4207350299999995,-11.496817790000001,-16.36107898,-9.000241049999996,0.32708121120000005,-0.027891130099999994,0.6576502686,-0.01873366777,-0.14767888040000002,-0.13567495661299997
08:32:59,-0.35035609499999987,0.07322294500000004,0.58448137,0.04756035,-0.152396555,-0.053448619999999995,4.445013635,-11.495388555,-16.36695941,-9.292197224999999,0.33634833040000006,-0.024040285449999976,0.6539483237,-0.018456224465,-0.15000799180000002,-0.13721636795849998
08:32:59,-0.34198127999999994,0.07637368,0.5906888800000001,0.04832739999999999,-0.15474032,-0.05377888,4.46929224,-11.49395932,-16.37283984,-9.584153399999998,0.34561544959999996,-0.020189440799999958,0.6502463788,-0.01817878116,-0.15233710320000002,-0.138757779304
08:32:59,-0.3336064649999999,0.07952441500000001,0.59689639,0.04909445,-0.15708408499999998,-0.05410914,4.493570845,-11.492530085,-16.37872027,-9.876109574999997,0.35488256879999996,-0.016338596149999995,0.6465444338999999,-0.017901337855,-0.15466621460000002,-0.14029919064949997
08:32:59,-0.32523164999999987,0.08267515000000003,0.6031039,0.0498615,-0.15942784999999998,-0.0544394,4.51784945,-11.49110085,-16.3846007,-10.168065749999997,0.36414968799999997,-0.012487751499999977,0.642842489,-0.01762389455,-0.15699532600000002,-0.14184060199499998
08:32:59,-0.31685683499999984,0.08582588499999999,0.60931141,0.050628549999999994,-0.16177161499999998,-0.05476966,4.542128054999999,-11.489671615,-16.39048113,-10.460021924999996,0.3734168072,-0.008636906849999959,0.6391405441,-0.017346451245000002,-0.15932443740000002,-0.1433820133405
08:32:59,-0.3084820199999999,0.08897662,0.6155189200000001,0.0513956,-0.16411537999999998,-0.05509992,4.56640666,-11.48824238,-16.39636156,-10.751978099999999,0.3826839264,-0.004786062199999941,0.6354385992,-0.017069007940000002,-0.16165354880000002,-0.14492342468599997
08:32:59,-0.3001072049999999,0.09212735500000002,0.62172643,0.05216264999999999,-0.16645914499999998,-0.055430179999999996,4.590685264999999,-11.486813145000001,-16.40224199,-11.043934274999998,0.3919510456,-0.0009352175499999782,0.6317366543,-0.016791564635000002,-0.16398266020000002,-0.14646483603149998
08:32:59,-0.29173238999999984,0.09527809000000004,0.62793394,0.052929699999999996,-0.16880290999999997,-0.055760439999999994,4.6149638699999995,-11.485383910000001,-16.40812242,-11.335890449999997,0.4012181648,0.00291562710000004,0.6280347094000001,-0.016514121330000003,-0.16631177160000002,-0.14800624737699997
08:32:59,-0.2833575749999999,0.098428825,0.63414145,0.05369675,-0.17114667499999997,-0.05609069999999999,4.639242475,-11.483954675000001,-16.41400285,-11.627846624999997,0.410485284,0.006766471750000058,0.6243327645,-0.016236678025000003,-0.16864088300000002,-0.14954765872249998
08:32:59,-0.2749827599999999,0.10157956000000001,0.6403489600000001,0.05446379999999999,-0.17349044,-0.05642095999999999,4.66352108,-11.48252544,-16.41988328,-11.9198028,0.4197524032,0.01061731640000002,0.6206308196,-0.01595923472,-0.17096999440000002,-0.151089070068
08:32:59,-0.26660794499999985,0.10473029500000003,0.64655647,0.05523085,-0.175834205,-0.05675121999999999,4.687799685,-11.481096205,-16.425763710000002,-12.211758974999999,0.4290195224,0.014468161050000039,0.6169288747,-0.015681791415,-0.17329910580000002,-0.15263048141349997
08:32:59,-0.2582331299999999,0.10788102999999999,0.65276398,0.05599789999999999,-0.17817797,-0.05708147999999999,4.712078289999999,-11.47966697,-16.43164414,-12.503715149999998,0.4382866416,0.018319005700000057,0.6132269297999999,-0.01540434811,-0.17562821720000002,-0.15417189275899998
08:32:59,-0.2498583149999999,0.111031765,0.6589714900000001,0.056764949999999995,-0.180521735,-0.05741173999999999,4.736356895,-11.478237735,-16.43752457,-12.795671324999997,0.44755376080000003,0.02216985035000002,0.6095249849,-0.015126904805,-0.17795732860000002,-0.1557133041045
08:32:59,-0.24148349999999985,0.11418250000000002,0.6651790000000001,0.057532,-0.1828655,-0.057742,4.760635499999999,-11.4768085,-16.443405,-13.087627499999996,0.45682088000000004,0.026020695000000038,0.60582304,-0.014849461500000001,-0.18028644000000002,-0.15725471544999997
08:32:59,-0.23310868499999993,0.11733323500000004,0.67138651,0.05829904999999999,-0.18520926499999998,-0.05807226,4.7849141049999995,-11.475379265,-16.44928543,-13.379583675,0.46608799920000005,0.029871539650000056,0.6021210951,-0.014572018195000001,-0.18261555140000002,-0.15879612679549998
08:32:59,-0.2247338699999999,0.12048397,0.67759402,0.059066099999999996,-0.18755302999999998,-0.05840252,4.80919271,-11.473950030000001,-16.45516586,-13.671539849999998,0.47535511840000005,0.03372238430000002,0.5984191502,-0.014294574890000002,-0.18494466280000002,-0.160337538141
08:32:59,-0.21635905499999986,0.12363470500000001,0.6838015300000001,0.05983315,-0.18989679499999998,-0.05873278,4.833471315,-11.472520795000001,-16.46104629,-13.963496024999998,0.48462223760000006,0.03757322895000004,0.5947172053,-0.014017131585000002,-0.18727377420000002,-0.16187894948649997
08:32:59,-0.20798423999999982,0.12678544000000003,0.6900090400000001,0.06060019999999999,-0.19224055999999998,-0.05906304,4.85774992,-11.471091560000001,-16.46692672,-14.255452199999997,0.49388935680000007,0.041424073600000055,0.5910152604,-0.013739688280000002,-0.18960288560000002,-0.16342036083199998
08:32:59,-0.1996094249999999,0.129936175,0.69621655,0.06136725,-0.19458432499999997,-0.059393299999999996,4.882028524999999,-11.469662325,-16.47280715,-14.547408374999996,0.503156476,0.04527491825000002,0.5873133155,-0.013462244975000003,-0.19193199700000002,-0.16496177217749997
08:32:59,-0.19123460999999986,0.13308691,0.70242406,0.06213429999999999,-0.19692808999999997,-0.059723559999999995,4.90630713,-11.46823309,-16.47868758,-14.839364549999999,0.5124235952,0.049125762900000036,0.5836113706,-0.013184801670000003,-0.19426110840000002,-0.16650318352299998
08:32:59,-0.18285979499999983,0.13623764500000002,0.7086315700000001,0.06290135,-0.19927185499999997,-0.060053819999999994,4.930585734999999,-11.466803855,-16.48456801,-15.131320724999998,0.5216907144,0.052976607550000054,0.5799094256999999,-0.012907358365000003,-0.19659021980000002,-0.16804459486849999
08:32:59,-0.1744849799999999,0.13938838000000003,0.7148390800000001,0.0636684,-0.20161561999999997,-0.06038407999999999,4.954864339999999,-11.46537462,-16.49044844,-15.423276899999998,0.5309578336,0.05682745220000002,0.5762074808,-0.012629915060000003,-0.19891933120000002,-0.16958600621399997
08:32:59,-0.16611016499999987,0.142539115,0.72104659,0.06443544999999999,-0.20395938499999997,-0.06071433999999999,4.9791429449999995,-11.463945385,-16.49632887,-15.715233074999997,0.5402249528,0.060678296850000035,0.5725055359,-0.012352471755,-0.20124844260000005,-0.17112741755949998
08:32:59,-0.15773534999999983,0.14568985,0.7272541,0.0652025,-0.20630314999999996,-0.06104459999999999,5.00342155,-11.46251615,-16.5022093,-16.007189249999996,0.549492072,0.06452914150000005,0.568803591,-0.01207502845,-0.20357755400000002,-0.172668828905
08:32:59,-0.1493605349999999,0.14884058500000003,0.7334616100000001,0.06596955,-0.20864691499999996,-0.06137485999999999,5.027700155,-11.461086915000001,-16.508089730000002,-16.299145425,0.5587591912000001,0.06837998615000002,0.5651016461,-0.011797585145000001,-0.2059066654,-0.17421024025049997
08:32:59,-0.14098571999999987,0.15199131999999999,0.7396691200000001,0.0667366,-0.21099067999999996,-0.06170512,5.051978759999999,-11.459657680000001,-16.51397016,-16.591101599999995,0.5680263103999998,0.07223083080000003,0.5613997012,-0.011520141840000001,-0.20823577680000002,-0.17575165159599998
08:32:59,-0.13261090499999983,0.155142055,0.74587663,0.06750365,-0.21333444499999996,-0.06203538,5.076257365,-11.458228445000001,-16.51985059,-16.883057774999997,0.5772934295999999,0.07608167545000005,0.5576977563000001,-0.011242698535000005,-0.21056488820000005,-0.1772930629415
08:32:59,-0.12423608999999991,0.15829279000000002,0.75208414,0.06827069999999999,-0.21567820999999995,-0.06236564,5.100535969999999,-11.45679921,-16.525731020000002,-17.17501395,0.5865605487999999,0.07993252010000002,0.5539958114,-0.010965255230000005,-0.21289399960000002,-0.17883447428699997
08:32:59,-0.11586127499999987,0.16144352500000003,0.7582916500000001,0.06903775,-0.21802197499999995,-0.0626959,5.124814575,-11.455369975,-16.53161145,-17.466970124999996,0.5958276679999999,0.08378336475000003,0.5502938665,-0.010687811925000006,-0.215223111,-0.18037588563249998
08:32:59,-0.10748645999999984,0.16459426,0.7644991600000001,0.0698048,-0.22036574,-0.06302616,5.1490931799999995,-11.45394074,-16.53749188,-17.7589263,0.6050947871999999,0.08763420940000005,0.5465919215999999,-0.010410368619999999,-0.21755222240000002,-0.18191729697799996
08:32:59,-0.09911164499999991,0.167744995,0.77070667,0.07057184999999999,-0.222709505,-0.06335642,5.173371785,-11.452511505,-16.54337231,-18.050882474999995,0.6143619063999999,0.09148505405000007,0.5428899766999999,-0.010132925315,-0.21988133380000005,-0.18345870832349997
08:32:59,-0.09073682999999988,0.17089573000000002,0.77691418,0.0713389,-0.22505327,-0.06368668,5.19765039,-11.45108227,-16.54925274,-18.342838649999997,0.6236290255999999,0.09533589870000003,0.5391880318,-0.00985548201,-0.22221044520000002,-0.18500011966899998
08:32:59,-0.08236201499999984,0.17404646500000004,0.7831216900000001,0.07210594999999999,-0.227397035,-0.06401694,5.221928994999999,-11.449653035,-16.55513317,-18.634794825,0.6328961447999999,0.09918674335000005,0.5354860869,-0.009578038705,-0.2245395566,-0.18654153101449997
08:32:59,-0.07398719999999992,0.1771972,0.7893292000000001,0.072873,-0.2297408,-0.0643472,5.2462076,-11.448223800000001,-16.5610136,-18.926750999999996,0.6421632639999999,0.10303758800000007,0.531784142,-0.0093005954,-0.22686866800000002,-0.18808294235999998
08:32:59,-0.06561238499999988,0.18034793500000001,0.79553671,0.07364005,-0.232084565,-0.06467745999999999,5.270486204999999,-11.446794565000001,-16.56689403,-19.218707175,0.6514303831999999,0.10688843265000003,0.5280821971,-0.009023152095,-0.22919777940000005,-0.1896243537055
08:32:59,-0.05723756999999985,0.18349867000000003,0.80174422,0.07440709999999999,-0.23442833,-0.06500771999999999,5.29476481,-11.445365330000001,-16.57277446,-19.510663349999994,0.6606975023999999,0.11073927730000005,0.5243802522000001,-0.00874570879,-0.23152689080000002,-0.19116576505099997
08:32:59,-0.04886275499999981,0.186649405,0.8079517300000001,0.07517415,-0.236772095,-0.06533797999999999,5.319043414999999,-11.443936095,-16.57865489,-19.802619524999997,0.6699646215999999,0.11459012195000007,0.5206783073,-0.008468265485000001,-0.2338560022,-0.19270717639649998
08:32:59,-0.04048793999999978,0.18980014,0.8141592400000001,0.0759412,-0.23911585999999999,-0.06566823999999999,5.34332202,-11.44250686,-16.58453532,-20.0945757,0.6792317407999999,0.11844096660000003,0.5169763624,-0.008190822180000001,-0.23618511360000002,-0.19424858774199996
08:32:59,-0.032113124999999965,0.19295087500000002,0.82036675,0.07670824999999999,-0.24145962499999998,-0.0659985,5.367600625,-11.441077625,-16.590415750000002,-20.386531874999996,0.6884988599999999,0.12229181125000005,0.5132744174999999,-0.007913378875000002,-0.23851422500000005,-0.19578999908749997
08:32:59,-0.02373830999999993,0.19610161000000004,0.82657426,0.0774753,-0.24380338999999998,-0.06632876,5.39187923,-11.43964839,-16.59629618,-20.67848805,0.6977659791999999,0.12614265590000007,0.5095724725999999,-0.007635935570000002,-0.24084333640000002,-0.19733141043299998
08:32:59,-0.015363494999999894,0.199252345,0.8327817700000001,0.07824234999999999,-0.24614715499999998,-0.06665902,5.416157835,-11.438219155,-16.60217661,-20.970444224999994,0.7070330984,0.12999350055000003,0.5058705277,-0.007358492265000002,-0.2431724478,-0.19887282177849996
08:32:59,-0.006988679999999858,0.20240308,0.8389892800000001,0.0790094,-0.24849091999999998,-0.06698928,5.440436439999999,-11.43678992,-16.608057040000002,-21.262400399999997,0.7163002176,0.13384434520000005,0.5021685828,-0.007081048960000003,-0.24550155920000002,-0.20041423312399997
08:32:59,0.001386135000000177,0.20555381500000003,0.84519679,0.07977645,-0.25083468499999995,-0.06731954,5.464715045,-11.435360685000001,-16.61393747,-21.554356575,0.7255673368,0.13769518985000007,0.4984666379,-0.006803605655000003,-0.24783067060000005,-0.20195564446949998
08:32:59,0.009760950000000213,0.20870455,0.8514043000000001,0.08054349999999999,-0.25317844999999994,-0.0676498,5.488993649999999,-11.433931450000001,-16.6198179,-21.846312749999996,0.734834456,0.14154603450000003,0.494764693,-0.006526162350000003,-0.250159782,-0.20349705581499997
08:32:59,0.018135765000000248,0.211855285,0.8576118100000001,0.08131055,-0.25552221499999994,-0.06798006,5.5132722549999995,-11.432502215000001,-16.62569833,-22.138268925,0.7441015752,0.1453968791500001,0.4910627481,-0.0062487190450000035,-0.25248889339999997,-0.20503846716049998
08:32:59,0.02651058000000006,0.21500602000000002,0.8638193200000001,0.08207759999999999,-0.25786597999999994,-0.06831032,5.53755086,-11.43107298,-16.63157876,-22.430225099999994,0.7533686944,0.14924772380000006,0.48736080319999997,-0.005971275740000004,-0.2548180048,-0.206579878506
08:32:59,0.0348853950000001,0.21815675500000004,0.87002683,0.08284464999999999,-0.26020974499999994,-0.06864057999999999,5.561829465,-11.429643745,-16.63745919,-22.722181274999997,0.7626358136,0.15309856845000003,0.4836588583,-0.005693832435000004,-0.2571471162,-0.20812128985149997
08:32:59,0.04326021000000013,0.22130749,0.8762343400000001,0.0836117,-0.26255350999999993,-0.06897083999999999,5.58610807,-11.42821451,-16.64333962,-23.01413745,0.7719029328,0.1569494131000001,0.47995691339999996,-0.0054163891300000044,-0.2594762276,-0.20966270119699998
08:32:59,0.05163502500000017,0.224458225,0.8824418500000001,0.08437874999999999,-0.26489727499999993,-0.06930109999999999,5.610386674999999,-11.426785275,-16.64922005,-23.306093624999995,0.781170052,0.16080025775000006,0.4762549685,-0.005138945825000005,-0.26180533899999997,-0.21120411254249996
08:32:59,0.0600098400000002,0.22760896000000003,0.88864936,0.0851458,-0.26724103999999993,-0.06963135999999999,5.63466528,-11.42535604,-16.65510048,-23.5980498,0.7904371712,0.16465110240000003,0.47255302359999996,-0.004861502520000005,-0.2641344504,-0.21274552388799997
08:32:59,0.06838465500000024,0.230759695,0.89485687,0.08591285,-0.2695848049999999,-0.06996161999999999,5.658943884999999,-11.423926805,-16.66098091,-23.890005974999994,0.7997042904,0.1685019470500001,0.4688510787,-0.004584059215000005,-0.2664635618,-0.21428693523349998
08:32:59,0.07675947000000005,0.23391043,0.9010643800000001,0.08667989999999999,-0.2719285699999999,-0.07029188,5.6832224899999995,-11.42249757,-16.66686134,-24.181962149999997,0.8089714096,0.17235279170000006,0.4651491338,-0.004306615910000006,-0.2687926732,-0.21582834657899996
08:32:59,0.08513428500000009,0.23706116500000002,0.9072718900000001,0.08744695,-0.2742723349999999,-0.07062214,5.707501095,-11.421068335000001,-16.672741770000002,-24.473918325,0.8182385288,0.17620363635000003,0.4614471889,-0.004029172605000006,-0.27112178459999997,-0.21736975792449997
08:32:59,0.09350910000000012,0.24021190000000003,0.9134794,0.08821399999999999,-0.2766160999999999,-0.0709524,5.7317797,-11.419639100000001,-16.6786222,-24.765874499999995,0.827505648,0.1800544810000001,0.45774524399999994,-0.0037517293000000063,-0.273450896,-0.21891116926999998
08:32:59,0.10188391500000016,0.243362635,0.91968691,0.08898104999999999,-0.27895986500000003,-0.07128266,5.756058305,-11.418209865,-16.68450263,-25.057830674999998,0.8367727672,0.18390532565000006,0.45404329909999996,-0.0034742859949999996,-0.2757800074,-0.22045258061549997
08:32:59,0.1102587300000002,0.24651337,0.9258944200000001,0.0897481,-0.28130363,-0.07161292,5.780336909999999,-11.41678063,-16.690383060000002,-25.349786849999994,0.8460398864,0.18775617030000002,0.4503413542,-0.00319684269,-0.2781091188,-0.22199399196099998
08:32:59,0.11863354500000023,0.24966410500000003,0.9321019300000001,0.09051514999999999,-0.283647395,-0.07194318,5.804615515,-11.415351395,-16.69626349,-25.641743024999997,0.8553070056000001,0.1916070149500001,0.4466394093,-0.0029193993850000002,-0.28043823019999997,-0.22353540330649996
08:32:59,0.12700836000000026,0.25281484000000004,0.93830944,0.0912822,-0.28599116,-0.07227344,5.828894119999999,-11.41392216,-16.70214392,-25.9336992,0.8645741248000001,0.19545785960000006,0.4429374643999999,-0.0026419560800000005,-0.2827673416,-0.22507681465199997
08:32:59,0.13538317500000008,0.255965575,0.94451695,0.09204924999999999,-0.288334925,-0.0726037,5.853172724999999,-11.412492925,-16.708024350000002,-26.225655374999995,0.8738412439999999,0.19930870425000002,0.43923551949999995,-0.002364512775000001,-0.285096453,-0.22661822599749998
08:32:59,0.1437579900000001,0.25911631,0.9507244600000001,0.09281629999999999,-0.29067869,-0.07293395999999999,5.8774513299999995,-11.41106369,-16.71390478,-26.517611549999998,0.8831083631999999,0.2031595489000001,0.4355335746,-0.002087069470000001,-0.2874255644,-0.22815963734299996
08:32:59,0.15213280500000015,0.26226704500000003,0.9569319700000001,0.09358335,-0.293022455,-0.07326421999999999,5.901729935,-11.409634455,-16.71978521,-26.809567724999994,0.8923754823999999,0.20701039355000006,0.4318316297,-0.0018096261650000015,-0.2897546758,-0.22970104868849997
08:32:59,0.16050762000000018,0.26541778,0.96313948,0.09435039999999999,-0.29536622,-0.07359447999999999,5.92600854,-11.408205220000001,-16.72566564,-27.101523899999997,0.9016426015999999,0.21086123820000002,0.4281296848,-0.0015321828600000018,-0.2920837872,-0.23124246003399998
08:32:59,0.16888243500000022,0.268568515,0.96934699,0.09511744999999999,-0.297709985,-0.07392473999999999,5.950287144999999,-11.406775985000001,-16.73154607,-27.393480075,0.9109097207999999,0.2147120828500001,0.42442773989999993,-0.001254739555000002,-0.29441289860000003,-0.23278387137949996
08:32:59,0.17725725000000025,0.27171925,0.9755545000000001,0.0958845,-0.30005375,-0.07425499999999999,5.97456575,-11.40534675,-16.7374265,-27.685436249999995,0.9201768399999999,0.21856292750000006,0.42072579499999996,-0.0009772962500000024,-0.29674201,-0.23432528272499997
08:32:59,0.18563206500000007,0.27486998500000004,0.9817620100000001,0.09665154999999999,-0.302397515,-0.07458526,5.998844354999999,-11.403917515,-16.74330693,-27.977392424999998,0.9294439591999999,0.22241377215000002,0.4170238501,-0.0006998529450000027,-0.2990711214,-0.23586669407049998
08:32:59,0.1940068800000001,0.27802072,0.98796952,0.0974186,-0.30474128,-0.07491552,6.023122959999999,-11.40248828,-16.74918736,-28.269348599999994,0.9387110783999999,0.2262646168000001,0.4133219052,-0.00042240964000000297,-0.3014002328,-0.23740810541599996
08:32:59,0.20238169500000014,0.281171455,0.99417703,0.09818564999999999,-0.307085045,-0.07524578,6.0474015649999995,-11.401059045,-16.755067790000002,-28.561304774999996,0.9479781975999999,0.23011546145000006,0.40961996030000003,-0.00014496633500000328,-0.30372934420000003,-0.23894951676149997
08:32:59,0.21075651000000017,0.28432219000000003,1.00038454,0.09895269999999999,-0.30942881,-0.07557604,6.07168017,-11.39962981,-16.76094822,-28.85326095,0.9572453167999999,0.23396630610000002,0.40591801539999994,0.00013247696999999642,-0.3060584556,-0.24049092810699996
08:32:59,0.2191313250000002,0.287472925,1.00659205,0.09971975,-0.311772575,-0.0759063,6.095958775,-11.398200575,-16.76682865,-29.145217124999995,0.9665124359999999,0.2378171507500001,0.40221607049999997,0.0004099202749999961,-0.308387567,-0.24203233945249997
08:32:59,0.22750614000000025,0.29062366,1.01279956,0.10048679999999999,-0.31411634,-0.07623656,6.120237379999999,-11.39677134,-16.772709080000002,-29.437173299999998,0.9757795551999999,0.24166799540000006,0.3985141256,0.0006873635799999958,-0.3107166784,-0.24357375079799998
08:32:59,0.23588095500000006,0.293774395,1.01900707,0.10125384999999999,-0.316460105,-0.07656682,6.144515985,-11.395342105000001,-16.77858951,-29.729129474999993,0.9850466743999999,0.24551884005000002,0.3948121807,0.0009648068849999955,-0.31304578980000003,-0.24511516214349996
08:32:59,0.2442557700000001,0.29692513000000004,1.02521458,0.1020209,-0.31880387,-0.07689707999999999,6.168794589999999,-11.393912870000001,-16.78446994,-30.021085649999996,0.9943137935999999,0.2493696847000001,0.39111023579999993,0.0012422501899999952,-0.3153749012,-0.24665657348899997
08:32:59,0.25263058500000013,0.300075865,1.03142209,0.10278794999999999,-0.321147635,-0.07722733999999999,6.193073195,-11.392483635000001,-16.790350370000002,-30.313041825,1.0035809128,0.25322052935000006,0.38740829089999995,0.001519693494999995,-0.3177040126,-0.24819798483449998
08:32:59,0.26100540000000017,0.30322660000000007,1.0376296,0.103555,-0.3234914,-0.07755759999999999,6.217351799999999,-11.3910544,-16.7962308,-30.604997999999995,1.012848032,0.257071374,0.383706346,0.0017971367999999946,-0.320033124,-0.24973939617999996
08:32:59,0.2693802150000002,0.30637733500000003,1.0438371100000001,0.10432204999999999,-0.325835165,-0.07788785999999999,6.2416304049999995,-11.389625165,-16.80211123,-30.896954174999998,1.0221151512,0.2609222186500001,0.3800044011,0.0020745801049999943,-0.32236223540000003,-0.25128080752549997
08:32:59,0.27775503000000024,0.30952807,1.05004462,0.10508909999999999,-0.32817893,-0.07821811999999999,6.26590901,-11.38819593,-16.80799166,-31.188910349999993,1.0313822704,0.26477306330000006,0.3763024562,0.002352023409999994,-0.3246913468,-0.252822218871
08:32:59,0.28612984500000027,0.31267880500000006,1.05625213,0.10585614999999998,-0.330522695,-0.07854837999999999,6.290187614999999,-11.386766695,-16.81387209,-31.480866524999996,1.0406493896,0.26862390795,0.37260051129999994,0.0026294667149999937,-0.3270204582,-0.2543636302165
08:32:59,0.2945046600000001,0.31582954,1.06245964,0.1066232,-0.33286646,-0.07887864,6.31446622,-11.38533746,-16.81975252,-31.7728227,1.0499165088,0.2724747526000001,0.36889856639999996,0.0029069100199999934,-0.3293495696,-0.255905041562
08:32:59,0.3028794750000001,0.318980275,1.06866715,0.10739024999999999,-0.335210225,-0.0792089,6.338744824999999,-11.383908225,-16.82563295,-32.064778874999995,1.059183628,0.27632559725000005,0.3651966215,0.003184353324999993,-0.33167868100000003,-0.2574464529075
08:32:59,0.31125429000000016,0.32213101000000005,1.0748746599999999,0.10815729999999998,-0.33755398999999997,-0.07953916,6.363023429999999,-11.382478990000001,-16.83151338,-32.35673505,1.0684507472,0.2801764419,0.3614946766,0.0034617966299999928,-0.3340077924,-0.258987864253
08:32:59,0.3196291050000002,0.325281745,1.08108217,0.10892435,-0.33989775499999997,-0.07986942,6.387302034999999,-11.381049755000001,-16.837393810000002,-32.64869122499999,1.0777178664,0.2840272865500001,0.3577927316999999,0.0037392399349999994,-0.3363369038,-0.2605292755985
08:32:59,0.3280039200000002,0.32843247999999997,1.08728968,0.1096914,-0.34224151999999997,-0.08019968,6.4115806399999995,-11.379620520000001,-16.84327424,-32.940647399999996,1.0869849856,0.28787813120000005,0.35409078679999995,0.004016683239999999,-0.3386660152,-0.262070686944
08:32:59,0.33637873500000026,0.33158321500000004,1.09349719,0.11045844999999999,-0.34458528499999996,-0.08052994,6.435859245,-11.378191285,-16.84915467,-33.232603575,1.0962521048,0.29172897585,0.35038884189999997,0.004294126544999999,-0.34099512660000003,-0.2636120982895
08:32:59,0.3447535500000001,0.33473395,1.0997047,0.11122549999999998,-0.34692904999999996,-0.0808602,6.46013785,-11.37676205,-16.855035100000002,-33.524559749999995,1.105519224,0.2955798205000001,0.346686897,0.0045715698499999985,-0.343324238,-0.265153509635
08:32:59,0.3531283650000001,0.33788468499999996,1.10591221,0.11199255,-0.34927281499999996,-0.08119045999999999,6.484416455,-11.375332815,-16.86091553,-33.816515925,1.1147863432,0.29943066515000005,0.3429849521,0.004849013154999998,-0.3456533494,-0.2666949209805
08:32:59,0.36150318000000015,0.34103542000000003,1.11211972,0.11275959999999999,-0.35161657999999996,-0.08152071999999999,6.508695059999999,-11.37390358,-16.86679596,-34.10847209999999,1.1240534624,0.3032815098,0.33928300719999993,0.005126456459999998,-0.3479824608,-0.26823633232599997
08:32:59,0.3698779950000002,0.344186155,1.11832723,0.11352664999999998,-0.35396034499999995,-0.08185097999999999,6.532973664999999,-11.372474345,-16.872676390000002,-34.400428274999996,1.1333205816,0.3071323544500001,0.33558106229999995,0.005403899764999998,-0.35031157220000003,-0.2697777436715
08:32:59,0.3782528100000002,0.34733689000000006,1.1245347399999999,0.1142937,-0.35630410999999995,-0.08218123999999999,6.557252269999999,-11.37104511,-16.87855682,-34.69238445,1.1425877008,0.31098319910000005,0.3318791174,0.005681343069999997,-0.3526406836,-0.271319155017
08:32:59,0.38662762500000025,0.350487625,1.13074225,0.11506074999999999,-0.35864787499999995,-0.08251149999999999,6.5815308749999994,-11.369615875000001,-16.88443725,-34.984340624999994,1.15185482,0.31483404375,0.3281771725,0.005958786374999997,-0.354969795,-0.2728605663625
08:32:59,0.39500244000000007,0.35363836,1.13694976,0.11582779999999998,-0.36099163999999995,-0.08284176,6.60580948,-11.368186640000001,-16.890317680000003,-35.2762968,1.1611219391999998,0.3186848884000001,0.3244752276,0.006236229679999997,-0.3572989064,-0.274401977708
08:32:59,0.4033772550000001,0.35678909500000006,1.14315727,0.11659485,-0.36333540499999994,-0.08317202,6.630088085,-11.366757405000001,-16.89619811,-35.56825297499999,1.1703890583999998,0.32253573305000005,0.32077328269999994,0.006513672984999996,-0.35962801780000003,-0.2759433890535
08:32:59,0.41175207000000014,0.35993983,1.14936478,0.11736189999999999,-0.36567916999999994,-0.08350228,6.65436669,-11.36532817,-16.90207854,-35.860209149999996,1.1796561775999999,0.3263865777,0.31707133779999996,0.006791116289999996,-0.3619571292,-0.277484800399
08:32:59,0.42012688500000017,0.363090565,1.15557229,0.11812894999999998,-0.36802293499999994,-0.08383254,6.678645295,-11.363898935,-16.90795897,-36.152165325,1.1889232967999999,0.3302374223500001,0.3133693929,0.007068559594999996,-0.3642862406,-0.2790262117445
08:32:59,0.4285017000000002,0.36624130000000005,1.1617798,0.118896,-0.37036669999999994,-0.0841628,6.702923899999999,-11.3624697,-16.9138394,-36.444121499999994,1.1981904159999999,0.33408826700000005,0.309667448,0.0073460028999999955,-0.366615352,-0.28056762309
08:32:59,0.43687651500000024,0.369392035,1.16798731,0.11966304999999999,-0.37271046499999994,-0.08449306,6.727202504999999,-11.361040465,-16.919719830000002,-36.736077675,1.2074575351999999,0.3379391116500001,0.3059655030999999,0.007623446204999995,-0.36894446340000003,-0.2821090344355
08:32:59,0.4452513300000003,0.37254276999999997,1.1741948199999999,0.12043009999999998,-0.37505422999999993,-0.08482332,6.751481109999999,-11.35961123,-16.92560026,-37.02803384999999,1.2167246543999999,0.3417899563000001,0.30226355819999995,0.007900889509999995,-0.3712735748,-0.283650445781
08:32:59,0.4536261450000001,0.37569350500000004,1.18040233,0.12119714999999998,-0.37739799499999993,-0.08515357999999999,6.7757597149999995,-11.358181995,-16.93148069,-37.319990024999996,1.2259917736,0.34564080095000005,0.2985616133,0.008178332814999995,-0.3736026862,-0.28519185712649997
08:32:59,0.4620009600000001,0.37884424,1.18660984,0.1219642,-0.37974175999999993,-0.08548383999999999,6.80003832,-11.356752760000001,-16.937361120000002,-37.6119462,1.2352588928,0.3494916456000001,0.2948596684,0.008455776119999994,-0.3759317976,-0.286733268472
08:32:59,0.47037577500000016,0.38199497499999996,1.1928173499999999,0.12273124999999999,-0.3820855249999999,-0.08581409999999999,6.824316925,-11.355323525000001,-16.94324155,-37.903902374999994,1.244526012,0.3533424902500001,0.2911577235,0.008733219424999994,-0.37826090900000003,-0.2882746798175
08:32:59,0.4787505900000002,0.38514571000000003,1.19902486,0.12349829999999998,-0.3844292899999999,-0.08614435999999999,6.84859553,-11.353894290000001,-16.94912198,-38.19585855,1.2537931312,0.35719333490000005,0.28745577859999993,0.009010662729999994,-0.3805900204,-0.289816091163
08:32:59,0.48712540500000023,0.388296445,1.20523237,0.12426535,-0.3867730549999999,-0.08647461999999999,6.872874134999999,-11.352465055,-16.955002410000002,-38.48781472499999,1.2630602504,0.3610441795500001,0.28375383369999996,0.009288106034999993,-0.3829191318,-0.2913575025085
08:32:59,0.49550022000000027,0.39144718000000006,1.21143988,0.1250324,-0.3891168199999999,-0.08680487999999999,6.897152739999999,-11.35103582,-16.96088284,-38.779770899999995,1.2723273696,0.3648950242000001,0.2800518888,0.009565549339999993,-0.3852482432,-0.29289891385399996
08:32:59,0.5038750350000001,0.394597915,1.21764739,0.12579944999999998,-0.3914605849999999,-0.08713514,6.921431344999999,-11.349606585,-16.96676327,-39.071727075,1.2815944888,0.36874586885000005,0.2763499439,0.009842992644999993,-0.38757735460000003,-0.2944403251995
08:32:59,0.5122498500000001,0.39774865,1.2238548999999999,0.1265665,-0.3938043499999999,-0.0874654,6.9457099499999995,-11.34817735,-16.972643700000003,-39.363683249999994,1.290861608,0.3725967135000001,0.2726479989999999,0.010120435949999992,-0.389906466,-0.295981736545
08:32:59,0.5206246650000002,0.40089938500000005,1.23006241,0.12733355,-0.3961481149999999,-0.08779566,6.969988555,-11.346748115,-16.97852413,-39.655639425,1.3001287272,0.3764475581500001,0.26894605409999994,0.010397879254999992,-0.3922355774,-0.2975231478905
08:32:59,0.5289994800000002,0.40405012,1.23626992,0.12810059999999998,-0.39849188,-0.08812592,6.99426716,-11.34531888,-16.98440456,-39.9475956,1.3093958464,0.38029840280000005,0.26524410919999997,0.010675322559999999,-0.3945646888,-0.299064559236
08:32:59,0.5373742950000002,0.407200855,1.2424774299999999,0.12886765,-0.400835645,-0.08845618,7.018545765,-11.343889645,-16.99028499,-40.239551774999995,1.3186629656,0.3841492474500001,0.2615421643,0.010952765864999998,-0.39689380020000004,-0.3006059705815
08:32:59,0.5457491100000003,0.41035159000000004,1.24868494,0.1296347,-0.40317941,-0.08878644,7.042824369999999,-11.342460410000001,-16.99616542,-40.53150795,1.3279300848,0.3880000921000001,0.2578402194,0.011230209169999998,-0.3992229116,-0.30214738192699997
08:32:59,0.5541239250000003,0.413502325,1.25489245,0.13040174999999998,-0.405523175,-0.0891167,7.067102974999999,-11.341031175000001,-17.002045850000002,-40.823464124999994,1.337197204,0.39185093675000005,0.2541382744999999,0.011507652474999998,-0.401552023,-0.3036887932725
08:32:59,0.5624987400000001,0.41665305999999996,1.26109996,0.13116879999999997,-0.40786694,-0.08944695999999999,7.091381579999999,-11.33960194,-17.00792628,-41.1154203,1.3464643232,0.3957017814000001,0.25043632959999995,0.011785095779999998,-0.4038811344,-0.305230204618
08:32:59,0.5708735550000001,0.41980379500000004,1.26730747,0.13193585,-0.410210705,-0.08977721999999999,7.115660184999999,-11.338172705,-17.01380671,-41.407376475,1.3557314424,0.3995526260500001,0.24673438469999998,0.012062539084999997,-0.40621024580000004,-0.3067716159635
08:32:59,0.5792483700000002,0.42295453,1.27351498,0.13270289999999998,-0.41255447,-0.09010747999999999,7.1399387899999995,-11.33674347,-17.019687140000002,-41.699332649999995,1.3649985616,0.40340347070000004,0.2430324398,0.012339982389999997,-0.4085393572,-0.308313027309
08:32:59,0.5876231850000002,0.42610526500000007,1.27972249,0.13346994999999998,-0.414898235,-0.09043774,7.164217395,-11.335314235,-17.02556757,-41.991288825,1.3742656808,0.4072543153500001,0.2393304948999999,0.012617425694999997,-0.4108684686,-0.30985443865449996
08:33:00,0.595998,0.429256,1.28593,0.134237,-0.417242,-0.090768,7.188496,-11.333885,-17.031448,-42.283245,1.3835328,0.41110516,0.23562855,0.012894869,-0.41319758,-0.31139585
08:33:00,0.5921140850000001,0.417624355,1.2811865900000001,0.13391207,-0.416038155,-0.089921045,7.17785858,-11.374604855000001,-17.043632605000003,-42.099529335,1.3793463305,0.39937539720000004,0.23561628945,0.013501566055,-0.41202832365000003,-0.30998192047999995
08:33:00,0.58823017,0.40599271000000003,1.27644318,0.13358714,-0.41483431,-0.08907409,7.1672211599999995,-11.41532471,-17.05581721,-41.91581367,1.375159861,0.3876456344,0.23560402889999998,0.01410826311,-0.4108590673,-0.30856799096
08:33:00,0.584346255,0.394361065,1.2716997700000001,0.13326221,-0.413630465,-0.088227135,7.156583739999999,-11.456044565000001,-17.068001815000002,-41.732098005,1.3709733915,0.3759158716,0.23559176834999998,0.014714960164999999,-0.40968981095,-0.30715406143999996
08:33:00,0.5804623400000001,0.38272942000000004,1.26695636,0.13293728,-0.41242662,-0.08738018,7.14594632,-11.49676442,-17.08018642,-41.54838234,1.366786922,0.3641861088,0.2355795078,0.01532165722,-0.40852055460000003,-0.30574013192
08:33:00,0.576578425,0.371097775,1.2622129500000001,0.13261235,-0.411222775,-0.086533225,7.1353089,-11.537484275,-17.092371025000002,-41.364666675,1.3626004525,0.35245634600000003,0.23556724725,0.015928354275,-0.40735129825,-0.30432620239999997
08:33:00,0.57269451,0.35946613000000005,1.25746954,0.13228742,-0.41001893,-0.08568627,7.12467148,-11.57820413,-17.10455563,-41.18095101,1.358413983,0.34072658320000004,0.2355549867,0.01653505133,-0.4061820419,-0.30291227288
08:33:00,0.568810595,0.347834485,1.25272613,0.13196249,-0.408815085,-0.084839315,7.11403406,-11.618923985,-17.116740235,-40.997235345,1.3542275135,0.3289968204,0.23554272615,0.017141748385,-0.40501278555000003,-0.30149834336
08:33:00,0.56492668,0.33620284,1.24798272,0.13163756,-0.40761124,-0.08399236,7.10339664,-11.659643840000001,-17.12892484,-40.81351968,1.350041044,0.3172670576,0.2355304656,0.01774844544,-0.4038435292,-0.30008441383999995
08:33:00,0.561042765,0.32457119500000003,1.24323931,0.13131262999999999,-0.406407395,-0.083145405,7.09275922,-11.700363695,-17.141109445,-40.629804015,1.3458545745,0.3055372948,0.23551820504999998,0.018355142495,-0.40267427285,-0.29867048432
08:33:00,0.55715885,0.31293955000000007,1.2384959,0.13098769999999998,-0.40520355,-0.08229845,7.0821217999999995,-11.74108355,-17.15329405,-40.446088350000004,1.341668105,0.293807532,0.23550594449999998,0.018961839549999998,-0.40150501650000003,-0.29725655479999996
08:33:00,0.553274935,0.30130790500000004,1.23375249,0.13066276999999998,-0.403999705,-0.081451495,7.071484379999999,-11.781803405,-17.165478655,-40.262372685,1.3374816355,0.2820777692,0.23549368395,0.019568536605,-0.40033576015,-0.29584262528
08:33:00,0.5493910200000001,0.28967626,1.22900908,0.13033783999999998,-0.40279586,-0.08060454,7.06084696,-11.82252326,-17.17766326,-40.07865702,1.333295166,0.2703480064,0.2354814234,0.02017523366,-0.3991665038,-0.29442869575999997
08:33:00,0.545507105,0.278044615,1.22426567,0.13001290999999998,-0.401592015,-0.079757585,7.05020954,-11.863243115,-17.189847865,-39.894941355,1.3291086965,0.2586182436,0.23546916285,0.020781930715,-0.39799724745000004,-0.29301476624
08:33:00,0.54162319,0.26641297,1.21952226,0.12968798,-0.40038817,-0.07891063,7.03957212,-11.90396297,-17.202032470000002,-39.71122569,1.324922227,0.2468884808,0.2354569023,0.02138862777,-0.3968279911,-0.29160083672
08:33:00,0.5377392750000001,0.25478132500000006,1.21477885,0.12936305,-0.399184325,-0.078063675,7.0289347,-11.944682825000001,-17.214217075,-39.527510025,1.3207357575,0.235158718,0.23544464175,0.021995324825,-0.39565873475,-0.29018690719999995
08:33:00,0.53385536,0.24314968000000003,1.21003544,0.12903812,-0.39798048,-0.07721672,7.01829728,-11.98540268,-17.226401680000002,-39.343794360000004,1.316549288,0.2234289552,0.23543238119999998,0.02260202188,-0.39448947840000004,-0.28877297768
08:33:00,0.529971445,0.23151803500000004,1.20529203,0.12871319,-0.396776635,-0.076369765,7.0076598599999995,-12.026122535,-17.238586285,-39.160078695,1.3123628185,0.2116991924,0.23542012064999998,0.023208718935,-0.39332022205,-0.28735904815999996
08:33:00,0.5260875300000001,0.21988639000000004,1.20054862,0.12838826,-0.39557279,-0.07552281,6.997022439999999,-12.06684239,-17.250770890000002,-38.97636303,1.308176349,0.1999694296,0.2354078601,0.023815415989999998,-0.3921509657,-0.28594511864
08:33:00,0.522203615,0.20825474500000005,1.19580521,0.12806333,-0.394368945,-0.074675855,6.98638502,-12.107562245,-17.262955495,-38.792647365,1.3039898795,0.18823966679999998,0.23539559955,0.024422113045,-0.39098170935,-0.28453118911999997
08:33:00,0.5183197,0.19662310000000005,1.1910618,0.1277384,-0.3931651,-0.0738289,6.9757476,-12.1482821,-17.2751401,-38.6089317,1.29980341,0.176509904,0.235383339,0.0250288101,-0.389812453,-0.2831172596
08:33:00,0.5144357850000001,0.18499145500000003,1.18631839,0.12741347,-0.391961255,-0.07298194499999999,6.96511018,-12.189001955,-17.287324705,-38.425216035,1.2956169405,0.1647801412,0.23537107845,0.025635507155,-0.38864319665,-0.28170333008
08:33:00,0.51055187,0.17335981000000006,1.18157498,0.12708854,-0.39075740999999997,-0.07213499,6.95447276,-12.229721810000001,-17.29950931,-38.24150037,1.291430471,0.15305037839999996,0.2353588179,0.02624220421,-0.3874739403,-0.28028940055999996
08:33:00,0.5066679550000001,0.16172816500000003,1.17683157,0.12676361,-0.389553565,-0.071288035,6.94383534,-12.270441665,-17.311693915,-38.057784705,1.2872440015,0.14132061559999998,0.23534655734999999,0.026848901265,-0.38630468395,-0.27887547104
08:33:00,0.50278404,0.15009652,1.17208816,0.12643868,-0.38834972,-0.07044108,6.93319792,-12.31116152,-17.32387852,-37.87406904,1.283057532,0.1295908528,0.23533429679999998,0.02745559832,-0.3851354276,-0.27746154151999997
08:33:00,0.498900125,0.13846487500000004,1.16734475,0.12611375,-0.387145875,-0.069594125,6.9225604999999995,-12.351881375,-17.336063125000003,-37.690353375,1.2788710625,0.11786109,0.23532203625,0.028062295375,-0.38396617125,-0.276047612
08:33:00,0.49501621,0.12683323000000002,1.16260134,0.12578882,-0.38594203,-0.06874717,6.911923079999999,-12.39260123,-17.34824773,-37.50663771,1.274684593,0.10613132720000001,0.2353097757,0.02866899243,-0.3827969149,-0.27463368248
08:33:00,0.491132295,0.11520158500000005,1.15785793,0.12546389,-0.384738185,-0.067900215,6.90128566,-12.433321085,-17.360432335000002,-37.322922045,1.2704981235,0.09440156439999997,0.23529751515,0.029275689485,-0.38162765855,-0.27321975296
08:33:00,0.48724838000000004,0.10356994000000003,1.15311452,0.12513896,-0.38353434,-0.06705326,6.89064824,-12.47404094,-17.37261694,-37.139206380000005,1.266311654,0.08267180159999998,0.2352852546,0.02988238654,-0.3804584022,-0.27180582344
08:33:00,0.483364465,0.09193829500000006,1.14837111,0.12481402999999999,-0.382330495,-0.066206305,6.88001082,-12.514760795,-17.384801545000002,-36.955490715,1.2621251844999999,0.0709420388,0.23527299405,0.030489083595,-0.37928914585,-0.27039189391999996
08:33:00,0.47948055,0.08030665000000003,1.1436277000000001,0.12448909999999999,-0.38112665,-0.06535935,6.8693734,-12.55548065,-17.39698615,-36.77177505,1.2579387149999999,0.05921227599999995,0.23526073349999999,0.031095780649999998,-0.37811988950000003,-0.2689779644
08:33:00,0.47559663500000005,0.06867500500000007,1.13888429,0.12416416999999999,-0.379922805,-0.064512395,6.85873598,-12.596200505,-17.409170755,-36.588059385,1.2537522455,0.047482513199999965,0.23524847294999998,0.031702477704999996,-0.37695063315,-0.26756403487999997
08:33:00,0.47171272000000003,0.05704336000000004,1.13414088,0.12383923999999999,-0.37871896,-0.06366544,6.8480985599999995,-12.63692036,-17.42135536,-36.40434372,1.249565776,0.03575275039999998,0.2352362124,0.03230917476,-0.3757813768,-0.26615010536
08:33:00,0.467828805,0.04541171500000002,1.12939747,0.12351430999999999,-0.377515115,-0.06281848500000001,6.837461139999999,-12.677640215,-17.433539965,-36.220628055,1.2453793065,0.02402298759999999,0.23522395185,0.032915871815,-0.37461212045000003,-0.26473617584
08:33:00,0.46394489000000005,0.03378007000000005,1.1246540600000001,0.12318937999999999,-0.37631127,-0.06197153,6.82682372,-12.71836007,-17.44572457,-36.03691239,1.241192837,0.012293224800000002,0.2352116913,0.033522568870000005,-0.3734428641,-0.26332224632
08:33:00,0.46006097500000004,0.022148425000000027,1.11991065,0.12286445,-0.375107425,-0.061124575,6.8161863,-12.759079925,-17.457909175,-35.853196725000004,1.2370063675,0.000563461999999959,0.23519943075,0.034129265925,-0.37227360775,-0.2619083168
08:33:00,0.45617706,0.010516780000000059,1.11516724,0.12253952,-0.37390358,-0.060277620000000004,6.80554888,-12.79979978,-17.47009378,-35.66948106,1.232819898,-0.011166300800000029,0.2351871702,0.03473596298,-0.37110435140000003,-0.26049438727999996
08:33:00,0.45229314500000006,-0.001114864999999965,1.11042383,0.12221459,-0.372699735,-0.059430665,6.79491146,-12.840519635,-17.482278385,-35.485765395,1.2286334285,-0.022896063600000016,0.23517490964999999,0.035342660035,-0.36993509505,-0.25908045776
08:33:00,0.44840923,-0.012746509999999933,1.10568042,0.12188966,-0.37149589,-0.05858371,6.78427404,-12.88123949,-17.494462990000002,-35.30204973,1.224446959,-0.03462582640000006,0.2351626491,0.035949357089999995,-0.3687658387,-0.25766652823999997
08:33:00,0.44452531500000003,-0.024378154999999957,1.10093701,0.12156473,-0.370292045,-0.057736755,6.7736366199999996,-12.921959345,-17.506647595,-35.118334065,1.2202604895,-0.04635558920000005,0.23515038855,0.036556054145,-0.36759658235000003,-0.25625259872
08:33:00,0.4406414,-0.036009799999999925,1.0961936,0.1212398,-0.3690882,-0.0568898,6.762999199999999,-12.9626792,-17.518832200000002,-34.9346184,1.21607402,-0.058085352000000035,0.235138128,0.0371627512,-0.366427326,-0.2548386692
08:33:00,0.436757485,-0.04764144499999995,1.09145019,0.12091487,-0.367884355,-0.056042845,6.752361779999999,-13.003399055,-17.531016805,-34.750902735000004,1.2118875505,-0.06981511480000002,0.23512586745,0.037769448255000004,-0.36525806965,-0.25342473968
08:33:00,0.43287357000000004,-0.05927308999999997,1.08670678,0.12058993999999999,-0.36668051,-0.05519589,6.74172436,-13.04411891,-17.54320141,-34.56718707,1.207701081,-0.08154487760000001,0.2351136069,0.03837614531,-0.3640888133,-0.25201081016
08:33:00,0.428989655,-0.070904735,1.08196337,0.12026500999999999,-0.365476665,-0.054348935,6.73108694,-13.084838765,-17.555386015,-34.383471405,1.2035146115,-0.09327464040000005,0.23510134635,0.038982842365,-0.36291955695,-0.25059688063999996
08:33:00,0.42510574,-0.08253637999999991,1.07721996,0.11994007999999999,-0.36427282,-0.05350198,6.72044952,-13.12555862,-17.56757062,-34.19975574,1.199328142,-0.1050044032000001,0.23508908579999999,0.03958953942,-0.3617503006,-0.24918295112
08:33:00,0.42122182500000005,-0.09416802499999993,1.07247655,0.11961514999999999,-0.363068975,-0.052655025,6.7098121,-13.166278475,-17.579755225,-34.016040075,1.1951416725,-0.11673416600000003,0.23507682525,0.040196236475,-0.36058104425000004,-0.24776902159999997
08:33:00,0.41733791000000003,-0.10579966999999996,1.06773314,0.11929021999999999,-0.36186513,-0.05180807,6.69917468,-13.20699833,-17.59193983,-33.83232441,1.190955203,-0.12846392880000007,0.2350645647,0.04080293353,-0.3594117879,-0.24635509207999998
08:33:00,0.413453995,-0.11743131499999998,1.06298973,0.11896529,-0.360661285,-0.050961115,6.6885372599999995,-13.247718185,-17.604124435,-33.648608745000004,1.1867687335,-0.1401936916,0.23505230415,0.041409630584999996,-0.35824253155,-0.24494116255999998
08:33:00,0.40957008000000006,-0.12906296,1.05824632,0.11864036,-0.35945744,-0.05011416,6.67789984,-13.288438039999999,-17.61630904,-33.46489308,1.182582264,-0.15192345440000005,0.2350400436,0.042016327640000004,-0.3570732752,-0.24352723303999999
08:33:00,0.40568616500000004,-0.14069460499999992,1.05350291,0.11831543,-0.358253595,-0.049267205,6.66726242,-13.329157895,-17.628493645,-33.281177415,1.1783957945,-0.1636532172000001,0.23502778305,0.042623024695,-0.35590401885,-0.24211330352
08:33:00,0.40180225,-0.15232624999999994,1.0487595,0.1179905,-0.35704975,-0.04842025,6.656625,-13.36987775,-17.64067825,-33.09746175,1.174209325,-0.17538298000000002,0.2350155225,0.043229721750000005,-0.3547347625,-0.24069937399999997
08:33:00,0.39791833500000007,-0.16395789499999996,1.04401609,0.11766557,-0.355845905,-0.047573295,6.64598758,-13.410597605,-17.652862855000002,-32.913746085,1.1700228555,-0.18711274280000006,0.23500326195,0.043836418805,-0.35356550615000004,-0.23928544448
08:33:00,0.39403442,-0.17558954,1.03927268,0.11734064,-0.35464206,-0.04672634,6.63535016,-13.45131746,-17.66504746,-32.73003042,1.165836386,-0.1988425056,0.2349910014,0.04444311586000001,-0.3523962498,-0.23787151495999997
08:33:00,0.39015050500000004,-0.1872211849999999,1.03452927,0.11701571,-0.353438215,-0.045879385,6.62471274,-13.492037315000001,-17.677232065000002,-32.546314755,1.1616499165,-0.21057226840000004,0.23497874085,0.045049812915,-0.35122699345,-0.23645758543999998
08:33:00,0.38626659,-0.19885282999999992,1.02978586,0.11669078,-0.35223437,-0.04503243,6.6140753199999995,-13.53275717,-17.68941667,-32.36259909,1.157463447,-0.22230203120000008,0.2349664803,0.045656509969999995,-0.3500577371,-0.23504365591999998
08:33:00,0.382382675,-0.21048447499999995,1.02504245,0.11636584999999999,-0.351030525,-0.044185475,6.603437899999999,-13.573477024999999,-17.701601275,-32.178883425,1.1532769775,-0.23403179400000002,0.23495421975,0.046263207025,-0.34888848075,-0.2336297264
08:33:00,0.37849876000000005,-0.22211611999999997,1.02029904,0.11604091999999999,-0.34982668,-0.04333852,6.592800479999999,-13.61419688,-17.71378588,-31.99516776,1.149090508,-0.24576155680000006,0.2349419592,0.04686990408,-0.3477192244,-0.23221579688
08:33:00,0.37461484500000003,-0.233747765,1.0155556300000002,0.11571598999999999,-0.348622835,-0.042491565,6.58216306,-13.654916735,-17.725970485,-31.811452095,1.1449040385,-0.2574913196000001,0.23492969865,0.047476601135000004,-0.34654996805000005,-0.23080186735999997
08:33:00,0.37073093,-0.2453794099999999,1.01081222,0.11539105999999999,-0.34741899,-0.04164461,6.57152564,-13.69563659,-17.73815509,-31.62773643,1.140717569,-0.26922108240000003,0.2349174381,0.04808329819,-0.3453807117,-0.22938793784
08:33:00,0.36684701500000005,-0.25701105499999993,1.00606881,0.11506612999999999,-0.346215145,-0.040797655,6.56088822,-13.736356445,-17.750339695,-31.444020765,1.1365310995,-0.2809508452000001,0.23490517755,0.048689995245000006,-0.34421145535000003,-0.22797400831999998
08:33:00,0.36296310000000004,-0.26864269999999996,1.0013254,0.11474119999999999,-0.3450113,-0.0399507,6.5502508,-13.777076300000001,-17.7625243,-31.2603051,1.13234463,-0.2926806080000001,0.234892917,0.0492966923,-0.343042199,-0.22656007879999998
08:33:00,0.359079185,-0.280274345,0.99658199,0.11441626999999999,-0.343807455,-0.039103745,6.53961338,-13.817796155,-17.774708905,-31.076589435000002,1.1281581605,-0.30441037080000005,0.23488065645,0.049903389354999994,-0.34187294265,-0.22514614927999999
08:33:00,0.35519527000000006,-0.2919059899999999,0.99183858,0.11409133999999999,-0.34260361,-0.03825679,6.5289759599999995,-13.858516009999999,-17.78689351,-30.89287377,1.123971691,-0.3161401336000001,0.2348683959,0.05051008641,-0.34070368630000003,-0.22373221976
08:33:00,0.351311355,-0.3035376349999999,0.98709517,0.11376641,-0.341399765,-0.037409835,6.51833854,-13.899235865,-17.799078115,-30.709158105,1.1197852215,-0.3278698964,0.23485613535,0.051116783464999996,-0.33953442995,-0.22231829024
08:33:00,0.34742744000000003,-0.31516927999999994,0.98235176,0.11344148,-0.34019592,-0.03656288,6.50770112,-13.93995572,-17.811262720000002,-30.52544244,1.115598752,-0.33959965920000007,0.2348438748,0.051723480520000004,-0.3383651736,-0.22090436071999997
08:33:00,0.343543525,-0.32680092499999996,0.97760835,0.11311655,-0.338992075,-0.035715924999999996,6.4970637,-13.980675575,-17.823447325,-30.341726775,1.1114122825,-0.3513294220000001,0.23483161425,0.052330177575,-0.33719591725000003,-0.2194904312
08:33:00,0.33965961000000006,-0.33843257,0.97286494,0.11279162,-0.33778823,-0.03486897,6.48642628,-14.02139543,-17.83563193,-30.15801111,1.107225813,-0.36305918480000005,0.2348193537,0.052936874630000005,-0.3360266609,-0.21807650167999998
08:33:00,0.33577569500000004,-0.3500642149999999,0.96812153,0.11246669,-0.336584385,-0.034022014999999996,6.47578886,-14.062115285,-17.847816535,-29.974295445000003,1.1030393434999999,-0.3747889476000001,0.23480709315,0.053543571685,-0.33485740455,-0.21666257215999998
08:33:00,0.33189178,-0.3616958599999999,0.96337812,0.11214176,-0.33538054,-0.03317506,6.46515144,-14.10283514,-17.86000114,-29.79057978,1.0988528739999999,-0.3865187104,0.2347948326,0.05415026874000001,-0.33368814820000003,-0.21524864264
08:33:00,0.328007865,-0.37332750499999995,0.95863471,0.11181682999999999,-0.334176695,-0.032328104999999996,6.4545140199999995,-14.143554994999999,-17.872185745,-29.606864115,1.0946664044999999,-0.39824847320000006,0.23478257205,0.054756965795,-0.33251889185,-0.21383471312
08:33:00,0.32412395000000005,-0.38495914999999997,0.9538913,0.11149189999999999,-0.33297285,-0.03148115,6.443876599999999,-14.18427485,-17.88437035,-29.42314845,1.0904799349999998,-0.4099782360000001,0.2347703115,0.055363662849999995,-0.3313496355,-0.2124207836
08:33:00,0.32024003500000003,-0.3965907949999999,0.94914789,0.11116696999999999,-0.331769005,-0.030634194999999996,6.43323918,-14.224994705,-17.896554955,-29.239432784999998,1.0862934654999998,-0.42170799880000004,0.23475805095,0.055970359905,-0.33018037915,-0.21100685407999997
08:33:00,0.31635612,-0.4082224399999999,0.94440448,0.11084203999999999,-0.33056516,-0.02978724,6.42260176,-14.26571456,-17.90873956,-29.05571712,1.082106996,-0.4334377616000001,0.2347457904,0.05657705696,-0.3290111228,-0.20959292456
08:33:00,0.31247220500000006,-0.41985408499999993,0.9396610700000001,0.11051711,-0.329361315,-0.028940284999999996,6.41196434,-14.306434415,-17.920924165,-28.872001455000003,1.0779205265,-0.4451675244000001,0.23473352985,0.057183754015000005,-0.32784186645,-0.20817899503999998
08:33:00,0.30858829000000004,-0.43148572999999996,0.93491766,0.11019218,-0.32815747,-0.02809333,6.40132692,-14.34715427,-17.93310877,-28.688285790000002,1.073734057,-0.45689728720000006,0.2347212693,0.05779045107,-0.32667261010000004,-0.20676506551999999
08:33:00,0.304704375,-0.443117375,0.9301742500000001,0.10986725,-0.326953625,-0.027246375000000003,6.3906895,-14.387874125,-17.945293375,-28.504570125,1.0695475875,-0.4686270500000001,0.23470900875,0.058397148125000006,-0.32550335375,-0.205351136
08:33:00,0.30082046,-0.4547490199999999,0.92543084,0.10954232,-0.32574978,-0.026399419999999993,6.38005208,-14.42859398,-17.95747798,-28.32085446,1.065361118,-0.48035681280000014,0.2346967482,0.05900384518,-0.3243340974,-0.20393720647999997
08:33:00,0.29693654500000005,-0.4663806649999999,0.9206874300000001,0.10921739,-0.324545935,-0.025552464999999996,6.3694146599999995,-14.469313835,-17.969662585000002,-28.137138795,1.0611746485,-0.4920865756000001,0.23468448765,0.059610542234999994,-0.32316484105,-0.20252327696
08:33:00,0.29305263000000004,-0.47801230999999994,0.91594402,0.10889246,-0.32334209,-0.02470551,6.35877724,-14.51003369,-17.98184719,-27.95342313,1.056988179,-0.5038163384000001,0.2346722271,0.06021723929,-0.3219955847,-0.20110934743999997
08:33:00,0.289168715,-0.48964395499999996,0.9112006100000001,0.10856753,-0.322138245,-0.023858555000000004,6.34813982,-14.550753545,-17.994031795,-27.769707465000003,1.0528017095,-0.5155461012,0.23465996655,0.060823936344999996,-0.32082632835,-0.19969541792
08:33:00,0.2852848,-0.5012755999999998,0.9064572,0.1082426,-0.3209344,-0.023011599999999993,6.3375024,-14.5914734,-18.0062164,-27.585991800000002,1.04861524,-0.5272758640000001,0.234647706,0.061430633400000004,-0.31965707200000004,-0.19828148839999998
08:33:00,0.28140088500000005,-0.5129072449999998,0.9017137900000001,0.10791767,-0.319730555,-0.022164644999999997,6.32686498,-14.632193255,-18.018401005,-27.402276135,1.0444287705,-0.5390056268000001,0.23463544545,0.062037330455,-0.31848781565,-0.19686755888
08:33:00,0.27751697000000003,-0.5245388899999999,0.89697038,0.10759273999999999,-0.31852671,-0.02131769,6.31622756,-14.67291311,-18.03058561,-27.21856047,1.040242301,-0.5507353896,0.2346231849,0.06264402751,-0.3173185593,-0.19545362936
08:33:00,0.273633055,-0.5361705349999999,0.8922269700000001,0.10726780999999999,-0.317322865,-0.020470735000000004,6.30559014,-14.713632965,-18.042770215,-27.034844805,1.0360558315,-0.5624651524000002,0.23461092435,0.063250724565,-0.31614930295,-0.19403969983999997
08:33:00,0.26974914000000005,-0.5478021799999999,0.88748356,0.10694287999999999,-0.31611902000000003,-0.019623779999999993,6.2949527199999995,-14.75435282,-18.05495482,-26.85112914,1.031869362,-0.5741949152000001,0.2345986638,0.06385742162000001,-0.3149800466,-0.19262577032
08:33:00,0.26586522500000004,-0.5594338249999999,0.8827401500000001,0.10661794999999999,-0.314915175,-0.018776824999999997,6.284315299999999,-14.795072675,-18.067139425,-26.667413475,1.0276828925,-0.585924678,0.23458640325,0.064464118675,-0.31381079025,-0.19121184079999998
08:33:00,0.26198131,-0.57106547,0.8779967399999999,0.10629301999999999,-0.31371133,-0.01792987,6.27367788,-14.835792529999999,-18.07932403,-26.483697810000002,1.0234964229999999,-0.5976544408000002,0.2345741427,0.06507081573,-0.31264153390000005,-0.18979791127999998
08:33:00,0.258097395,-0.5826971149999998,0.87325333,0.10596808999999999,-0.31250748500000003,-0.017082915000000004,6.26304046,-14.876512385,-18.091508635,-26.299982145,1.0193099535,-0.6093842036000001,0.23456188215,0.065677512785,-0.31147227755,-0.18838398175999999
08:33:00,0.25421348000000005,-0.5943287599999998,0.86850992,0.10564315999999999,-0.31130364,-0.016235959999999994,6.25240304,-14.91723224,-18.10369324,-26.11626648,1.015123484,-0.6211139664000003,0.2345496216,0.06628420984,-0.31030302120000003,-0.18697005224
08:33:00,0.25032956500000003,-0.6059604049999998,0.86376651,0.10531822999999998,-0.310099795,-0.015389004999999997,6.24176562,-14.957952095,-18.115877845,-25.932550815000003,1.0109370145,-0.6328437292000002,0.23453736105,0.066890906895,-0.30913376485,-0.18555612272
08:33:00,0.24644565000000002,-0.6175920499999998,0.8590231,0.1049933,-0.30889595000000003,-0.01454205,6.2311282,-14.99867195,-18.12806245,-25.74883515,1.006750545,-0.6445734920000001,0.2345251005,0.06749760395,-0.3079645085,-0.1841421932
08:33:00,0.24256173500000006,-0.6292236949999999,0.85427969,0.10466837,-0.307692105,-0.013695095000000004,6.2204907799999996,-15.039391805,-18.140247055,-25.565119485,1.0025640755,-0.6563032548000001,0.23451283995,0.068104301005,-0.30679525215000003,-0.18272826367999997
08:33:00,0.23867782000000004,-0.6408553399999999,0.84953628,0.10434344,-0.30648826,-0.012848139999999994,6.209853359999999,-15.08011166,-18.15243166,-25.38140382,0.998377606,-0.6680330176000002,0.2345005794,0.06871099806,-0.30562599580000005,-0.18131433415999998
08:33:00,0.23479390500000002,-0.6524869849999999,0.84479287,0.10401851,-0.30528441500000003,-0.012001184999999998,6.19921594,-15.120831514999999,-18.164616265,-25.197688155,0.9941911365,-0.6797627804000002,0.23448831885,0.069317695115,-0.30445673945,-0.17990040463999998
08:33:00,0.23090999,-0.6641186299999999,0.84004946,0.10369358,-0.30408057,-0.011154230000000001,6.18857852,-15.16155137,-18.17680087,-25.01397249,0.990004667,-0.6914925432000001,0.2344760583,0.06992439217,-0.30328748310000003,-0.17848647512
08:33:00,0.22702607500000005,-0.675750275,0.83530605,0.10336864999999999,-0.302876725,-0.010307275000000005,6.1779411,-15.202271225,-18.188985475,-24.830256825,0.9858181975,-0.7032223060000002,0.23446379775,0.070531089225,-0.30211822675,-0.1770725456
08:33:00,0.22314216000000003,-0.68738192,0.83056264,0.10304371999999999,-0.30167288000000003,-0.009460319999999994,6.16730368,-15.24299108,-18.20117008,-24.64654116,0.981631728,-0.7149520688000002,0.2344515372,0.07113778628,-0.3009489704,-0.17565861608
08:33:00,0.21925824500000002,-0.6990135649999998,0.82581923,0.10271878999999999,-0.300469035,-0.008613364999999998,6.15666626,-15.283710935,-18.213354685,-24.462825495,0.9774452585,-0.7266818316000001,0.23443927665,0.071744483335,-0.29977971405000003,-0.17424468656
08:33:00,0.21537433000000006,-0.7106452099999998,0.82107582,0.10239386,-0.29926519,-0.007766410000000001,6.14602884,-15.32443079,-18.22553929,-24.27910983,0.973258789,-0.7384115944000003,0.2344270161,0.07235118039,-0.2986104577,-0.17283075703999998
08:33:00,0.21149041500000004,-0.7222768549999998,0.81633241,0.10206893,-0.298061345,-0.006919454999999991,6.1353914199999995,-15.365150645,-18.237723895,-24.095394165000002,0.9690723195,-0.7501413572000002,0.23441475555,0.072957877445,-0.29744120135,-0.17141682751999998
08:33:00,0.20760650000000003,-0.7339084999999999,0.811589,0.101744,-0.2968575,-0.006072499999999995,6.124753999999999,-15.405870499999999,-18.2499085,-23.9116785,0.9648858499999999,-0.7618711200000001,0.234402495,0.07356457450000001,-0.296271945,-0.17000289799999999
08:33:00,0.203722585,-0.7455401449999999,0.80684559,0.10141907,-0.295653655,-0.005225544999999998,6.114116579999999,-15.446590355,-18.262093105,-23.727962835,0.9606993804999999,-0.7736008828000003,0.23439023445,0.074171271555,-0.29510268865,-0.16858896848
08:33:00,0.19983867000000005,-0.7571717899999999,0.80210218,0.10109414,-0.29444981,-0.004378590000000002,6.10347916,-15.48731021,-18.27427771,-23.544247170000002,0.9565129109999999,-0.7853306456000002,0.2343779739,0.07477796861,-0.2939334323,-0.16717503896
08:33:00,0.19595475500000004,-0.7688034349999999,0.79735877,0.10076921,-0.293245965,-0.0035316349999999913,6.09284174,-15.528030065,-18.286462315,-23.360531505,0.9523264414999999,-0.7970604084000001,0.23436571335,0.075384665665,-0.29276417595000004,-0.16576110944
08:33:00,0.19207084000000002,-0.78043508,0.79261536,0.10044428,-0.29204211999999996,-0.002684679999999995,6.08220432,-15.568749919999998,-18.29864692,-23.17681584,0.9481399719999999,-0.8087901712000001,0.2343534528,0.07599136272000001,-0.2915949196,-0.16434717992
08:33:00,0.18818692500000006,-0.792066725,0.78787195,0.10011935,-0.29083827500000003,-0.0018377249999999984,6.0715669,-15.609469775,-18.310831525,-22.993100175000002,0.9439535024999999,-0.8205199340000002,0.23434119225,0.076598059775,-0.29042566325,-0.16293325039999998
08:33:00,0.18430301000000004,-0.8036983699999998,0.78312854,0.09979442,-0.28963443,-0.000990770000000002,6.0609294799999995,-15.65018963,-18.32301613,-22.80938451,0.939767033,-0.8322496968000002,0.2343289317,0.07720475683,-0.2892564069,-0.16151932087999998
08:33:00,0.18041909500000003,-0.8153300149999998,0.77838513,0.09946949,-0.28843058499999996,-0.0001438149999999916,6.05029206,-15.690909484999999,-18.335200735,-22.625668845,0.9355805635,-0.8439794596000001,0.23431667115000002,0.077811453885,-0.28808715055,-0.16010539136
08:33:00,0.17653518,-0.8269616599999998,0.77364172,0.09914455999999999,-0.28722674000000004,0.0007031400000000049,6.03965464,-15.73162934,-18.34738534,-22.441953180000002,0.931394094,-0.8557092224000002,0.2343044106,0.07841815094,-0.2869178942,-0.15869146184
08:33:00,0.17265126500000005,-0.8385933049999998,0.76889831,0.09881962999999999,-0.286022895,0.0015500950000000013,6.02901722,-15.772349195,-18.359569945,-22.258237515,0.9272076244999999,-0.8674389852000002,0.23429215005,0.07902484799500001,-0.28574863785000004,-0.15727753232
08:33:00,0.16876735000000004,-0.8502249499999999,0.7641549,0.09849469999999999,-0.28481904999999996,0.002397049999999998,6.0183798,-15.81306905,-18.37175455,-22.07452185,0.9230211549999999,-0.8791687480000001,0.2342798895,0.07963154505,-0.2845793815,-0.1558636028
08:33:00,0.16488343500000002,-0.8618565949999999,0.75941149,0.09816976999999999,-0.28361520500000004,0.003244005000000008,6.00774238,-15.853788904999998,-18.383939155,-21.890806185000002,0.9188346855,-0.8908985108000003,0.23426762895,0.08023824210500001,-0.28341012515,-0.15444967328
08:33:00,0.16099952000000006,-0.8734882399999999,0.7546680800000001,0.09784483999999999,-0.28241136,0.004090960000000005,5.99710496,-15.89450876,-18.396123760000002,-21.70709052,0.914648216,-0.9026282736000002,0.2342553684,0.08084493916,-0.2822408688,-0.15303574375999998
08:33:00,0.15711560500000005,-0.8851198849999999,0.7499246700000001,0.09751990999999999,-0.28120751499999996,0.004937915000000001,5.98646754,-15.935228615,-18.408308365,-21.523374855,0.9104617465,-0.9143580364000001,0.23424310785,0.081451636215,-0.28107161245,-0.15162181423999999
08:33:00,0.15323169000000003,-0.89675153,0.7451812600000001,0.09719497999999999,-0.28000367000000004,0.0057848699999999975,5.9758301199999995,-15.975948469999999,-18.42049297,-21.339659190000003,0.906275277,-0.9260877992000003,0.23423084730000002,0.08205833327,-0.2799023561,-0.15020788472
08:33:00,0.14934777500000002,-0.9083831749999998,0.7404378500000001,0.09687004999999999,-0.278799825,0.006631825000000008,5.965192699999999,-16.016668324999998,-18.432677575,-21.155943525,0.9020888075,-0.9378175620000002,0.23421858675,0.082665030325,-0.27873309975000005,-0.1487939552
08:33:00,0.14546386000000006,-0.9200148199999998,0.7356944400000001,0.09654511999999998,-0.27759597999999996,0.007478780000000004,5.95455528,-16.05738818,-18.44486218,-20.97222786,0.897902338,-0.9495473248000001,0.2342063262,0.08327172738000001,-0.2775638434,-0.14738002568
08:33:00,0.14157994500000004,-0.9316464649999998,0.7309510300000001,0.09622018999999998,-0.276392135,0.008325735,5.94391786,-16.098108035,-18.457046785,-20.788512195,0.8937158685,-0.9612770876000003,0.23419406565,0.083878424435,-0.27639458705000003,-0.14596609616
08:33:00,0.13769603000000002,-0.9432781099999998,0.72620762,0.09589526,-0.27518829,0.009172689999999997,5.93328044,-16.13882789,-18.46923139,-20.60479653,0.8895293989999999,-0.9730068504000002,0.2341818051,0.08448512149000001,-0.2752253307,-0.14455216663999998
08:33:00,0.133812115,-0.9549097549999999,0.72146421,0.09557033,-0.27398444499999997,0.010019645000000008,5.92264302,-16.179547745,-18.481415995,-20.421080865,0.8853429294999999,-0.9847366132000002,0.23416954455,0.085091818545,-0.27405607435,-0.14313823711999998
08:33:00,0.12992820000000005,-0.9665413999999999,0.7167208,0.0952454,-0.2727806,0.010866600000000004,5.9120056,-16.2202676,-18.4936006,-20.2373652,0.8811564599999999,-0.9964663760000003,0.234157284,0.0856985156,-0.27288681800000003,-0.1417243076
08:33:00,0.12604428500000003,-0.9781730449999999,0.71197739,0.09492046999999999,-0.271576755,0.011713555,5.9013681799999995,-16.260987455,-18.505785205,-20.053649535,0.8769699904999999,-1.0081961388000003,0.23414502345000002,0.086305212655,-0.27171756165000005,-0.14031037808
08:33:00,0.12216037000000002,-0.9898046899999999,0.70723398,0.09459553999999999,-0.27037290999999997,0.012560509999999997,5.89073076,-16.301707309999998,-18.51796981,-19.86993387,0.8727835209999999,-1.0199259016000002,0.2341327629,0.08691190971,-0.2705483053,-0.13889644856
08:33:00,0.11827645500000006,-1.001436335,0.70249057,0.09427060999999999,-0.269169065,0.013407465000000007,5.88009334,-16.342427165,-18.530154415,-19.686218205,0.8685970514999999,-1.0316556644000001,0.23412050235,0.087518606765,-0.26937904895,-0.13748251904
08:33:00,0.11439254000000004,-1.0130679799999998,0.69774716,0.09394567999999999,-0.26796522,0.014254420000000004,5.86945592,-16.38314702,-18.54233902,-19.502502540000002,0.864410582,-1.0433854272000003,0.2341082418,0.08812530382,-0.2682097926,-0.13606858952
08:33:00,0.11050862500000003,-1.0246996249999998,0.69300375,0.09362075,-0.26676137499999997,0.015101375,5.8588185,-16.423866875,-18.554523625,-19.318786875,0.8602241125,-1.0551151900000002,0.23409598125,0.08873200087500001,-0.26704053625,-0.13465465999999998
08:33:00,0.10662471000000001,-1.0363312699999998,0.68826034,0.09329582,-0.26555753,0.015948329999999997,5.84818108,-16.46458673,-18.56670823,-19.13507121,0.856037643,-1.0668449528000001,0.2340837207,0.08933869793,-0.26587127990000003,-0.13324073047999999
08:33:00,0.10274079500000005,-1.0479629149999998,0.68351693,0.09297089,-0.264353685,0.016795285000000007,5.83754366,-16.505306585,-18.578892835,-18.951355545000002,0.8518511735,-1.0785747156000003,0.23407146015,0.08994539498500001,-0.26470202355000005,-0.13182680096
08:33:00,0.09885688000000004,-1.0595945599999999,0.67877352,0.09264596,-0.26314983999999997,0.017642240000000003,5.82690624,-16.54602644,-18.59107744,-18.76763988,0.8476647039999999,-1.0903044784000002,0.23405919960000002,0.09055209204,-0.2635327672,-0.13041287144
08:33:00,0.09497296500000008,-1.0712262049999999,0.67403011,0.09232103,-0.261945995,0.018489195,5.8162688199999995,-16.586746294999998,-18.603262045,-18.583924215,0.8434782344999999,-1.1020342412000002,0.23404693905,0.091158789095,-0.26236351085,-0.12899894192
08:33:00,0.09108905,-1.08285785,0.6692867,0.0919961,-0.26074215,0.01933615000000001,5.805631399999999,-16.62746615,-18.61544665,-18.400208550000002,0.8392917649999999,-1.1137640040000003,0.2340346785,0.09176548615,-0.2611942545,-0.1275850124
08:33:00,0.08720513500000004,-1.094489495,0.66454329,0.09167117,-0.25953830499999997,0.020183105000000007,5.79499398,-16.668186005,-18.627631255,-18.216492885,0.8351052954999999,-1.1254937668000002,0.23402241795,0.092372183205,-0.26002499815,-0.12617108288
08:33:00,0.08332122000000008,-1.10612114,0.65979988,0.09134624,-0.25833446,0.021030060000000003,5.78435656,-16.70890586,-18.63981586,-18.03277722,0.8309188259999999,-1.1372235296000002,0.2340101574,0.09297888026000001,-0.25885574180000004,-0.12475715335999998
08:33:00,0.07943730500000001,-1.1177527849999997,0.65505647,0.09102131,-0.257130615,0.021877015,5.77371914,-16.749625715,-18.652000465,-17.849061555000002,0.8267323565,-1.1489532924000003,0.23399789685,0.093585577315,-0.25768648545000006,-0.12334322383999999
08:33:00,0.07555339000000005,-1.1293844299999998,0.65031306,0.09069638,-0.25592676999999997,0.02272397000000001,5.76308172,-16.79034557,-18.66418507,-17.66534589,0.822545887,-1.1606830552000003,0.2339856363,0.09419227437000001,-0.2565172291,-0.12192929431999999
08:33:00,0.07166947499999998,-1.1410160749999998,0.64556965,0.09037144999999999,-0.254722925,0.023570925000000006,5.7524443,-16.831065425,-18.676369675,-17.481630225,0.8183594175,-1.1724128180000002,0.23397337575000002,0.094798971425,-0.25534797275,-0.1205153648
08:33:00,0.06778556000000002,-1.1526477199999998,0.64082624,0.09004651999999999,-0.25351908,0.024417880000000003,5.7418068799999995,-16.871785279999997,-18.688554279999998,-17.297914560000002,0.814172948,-1.1841425808000001,0.2339611152,0.09540566848000001,-0.2541787164,-0.11910143528
08:33:00,0.06390164500000006,-1.1642793649999998,0.63608283,0.08972158999999999,-0.25231523499999997,0.025264835,5.73116946,-16.912505135,-18.700738885,-17.114198895,0.8099864784999999,-1.1958723436000003,0.23394885465,0.096012365535,-0.25300946005,-0.11768750576
08:33:00,0.06001772999999999,-1.1759110099999999,0.63133942,0.08939665999999999,-0.25111139,0.02611179000000001,5.72053204,-16.95322499,-18.71292349,-16.93048323,0.8058000089999999,-1.2076021064000002,0.2339365941,0.09661906259,-0.25184020370000004,-0.11627357624000001
08:33:00,0.05613381500000003,-1.187542655,0.62659601,0.08907172999999999,-0.249907545,0.026958745000000006,5.70989462,-16.993944845,-18.725108095,-16.746767565000003,0.8016135394999999,-1.2193318692000001,0.23392433355,0.097225759645,-0.25067094735,-0.11485964671999999
08:33:00,0.05224990000000007,-1.1991743,0.6218526,0.08874679999999999,-0.2487037,0.027805700000000003,5.6992572,-17.0346647,-18.7372927,-16.5630519,0.7974270699999999,-1.2310616320000003,0.233912073,0.0978324567,-0.24950169100000003,-0.11344571719999999
08:33:00,0.048365985,-1.210805945,0.61710919,0.08842186999999999,-0.247499855,0.028652655,5.68861978,-17.075384555,-18.749477305,-16.379336235,0.7932406004999999,-1.2427913948000002,0.23389981245,0.09843915375500001,-0.24833243465000002,-0.11203178768
08:33:00,0.04448207000000004,-1.2224375899999997,0.61236578,0.08809693999999998,-0.24629600999999998,0.02949961000000001,5.67798236,-17.11610441,-18.76166191,-16.19562057,0.7890541309999999,-1.2545211576000002,0.23388755190000002,0.09904585081,-0.2471631783,-0.11061785816
08:33:00,0.04059815500000008,-1.2340692349999998,0.60762237,0.08777200999999998,-0.245092165,0.030346565000000006,5.6673449399999996,-17.156824264999997,-18.773846515,-16.011904905,0.7848676615,-1.2662509204000003,0.23387529135000001,0.09965254786500001,-0.24599392195000003,-0.10920392864
08:33:00,0.03671424000000001,-1.2457008799999998,0.60287896,0.08744707999999998,-0.24388832,0.031193520000000002,5.656707519999999,-17.19754412,-18.78603112,-15.82818924,0.780681192,-1.2779806832000002,0.2338630308,0.10025924492,-0.24482466560000002,-0.10778999912000001
08:33:00,0.03283032500000005,-1.2573325249999998,0.5981355500000001,0.08712215,-0.24268447499999998,0.032040475,5.646070099999999,-17.238263975,-18.798215725,-15.644473575,0.7764947225,-1.2897104460000002,0.23385077025,0.100865941975,-0.24365540925,-0.10637606959999998
08:33:00,0.02894641000000009,-1.2689641699999998,0.5933921400000001,0.08679722,-0.24148063,0.03288743000000001,5.63543268,-17.27898383,-18.81040033,-15.460757910000002,0.772308253,-1.3014402088000003,0.2338385097,0.10147263903,-0.24248615290000003,-0.10496214007999999
08:33:00,0.025062495000000018,-1.2805958149999999,0.5886487300000001,0.08647229,-0.240276785,0.033734385000000006,5.62479526,-17.319703685,-18.822584935,-15.277042245,0.7681217834999999,-1.3131699716000003,0.23382624915,0.102079336085,-0.24131689655000002,-0.10354821055999999
08:33:00,0.021178580000000058,-1.2922274599999999,0.5839053200000001,0.08614735999999999,-0.23907293999999998,0.03458134,5.61415784,-17.36042354,-18.83476954,-15.09332658,0.7639353139999999,-1.3248997344000002,0.2338139886,0.10268603314000001,-0.2401476402,-0.10213428104
08:33:00,0.017294664999999987,-1.303859105,0.5791619100000001,0.08582242999999999,-0.237869095,0.03542829500000001,5.60352042,-17.401143395,-18.846954144999998,-14.909610915000002,0.7597488444999999,-1.3366294972000003,0.23380172805000002,0.103292730195,-0.23897838385000003,-0.10072035152
08:33:00,0.013410750000000027,-1.31549075,0.5744185,0.08549749999999999,-0.23666525,0.036275249999999995,5.592883,-17.441863249999997,-18.85913875,-14.72589525,0.7555623749999999,-1.3483592600000003,0.23378946750000001,0.10389942725000001,-0.23780912750000002,-0.099306422
08:33:00,0.009526835000000067,-1.3271223949999997,0.56967509,0.08517256999999999,-0.23546140499999998,0.037122205000000005,5.5822455799999995,-17.482583105,-18.871323355,-14.542179585,0.7513759054999999,-1.3600890228000002,0.23377720695,0.104506124305,-0.23663987115000001,-0.09789249248000001
08:33:00,0.005642919999999996,-1.3387540399999998,0.56493168,0.08484764,-0.23425756,0.037969160000000016,5.57160816,-17.52330296,-18.88350796,-14.358463920000002,0.7471894359999999,-1.3718187856000004,0.2337649464,0.10511282136,-0.23547061480000003,-0.09647856295999999
08:33:00,0.0017590050000000357,-1.3503856849999998,0.56018827,0.08452271,-0.233053715,0.038816115,5.56097074,-17.564022815,-18.895692565,-14.174748255,0.7430029665,-1.3835485484000003,0.23375268585,0.105719518415,-0.23430135845000002,-0.09506463343999999
08:33:00,-0.0021249099999999244,-1.3620173299999998,0.55544486,0.08419778,-0.23184986999999999,0.03966307000000001,5.55033332,-17.60474267,-18.90787717,-13.99103259,0.738816497,-1.3952783112000002,0.2337404253,0.10632621547,-0.23313210210000002,-0.09365070392
08:33:00,-0.006008824999999995,-1.3736489749999998,0.55070145,0.08387285,-0.230646025,0.04051002499999999,5.5396959,-17.645462525,-18.920061775,-13.807316925000002,0.7346300275,-1.4070080740000002,0.23372816475,0.106932912525,-0.23196284575,-0.0922367744
08:33:00,-0.009892739999999955,-1.3852806199999999,0.54595804,0.08354792,-0.22944218,0.04135698,5.52905848,-17.686182379999998,-18.93224638,-13.623601260000001,0.7304435579999999,-1.4187378368000003,0.23371590420000002,0.10753960958,-0.23079358940000003,-0.09082284488
08:33:00,-0.013776654999999915,-1.3969122649999999,0.54121463,0.08322299,-0.228238335,0.04220393500000001,5.51842106,-17.726902234999997,-18.944430985,-13.439885595,0.7262570884999999,-1.4304675996000003,0.23370364365000001,0.10814630663500001,-0.22962433305000002,-0.08940891536000001
08:33:00,-0.017660569999999987,-1.40854391,0.53647122,0.08289806,-0.22703449,0.043050889999999994,5.5077836399999995,-17.76762209,-18.95661559,-13.256169930000002,0.7220706189999999,-1.4421973624000002,0.2336913831,0.10875300369,-0.2284550767,-0.08799498584000001
08:33:00,-0.021544484999999947,-1.420175555,0.53172781,0.08257313,-0.225830645,0.043897845000000005,5.497146219999999,-17.808341945,-18.968800195,-13.072454265000001,0.7178841494999999,-1.4539271252000003,0.23367912255,0.10935970074500001,-0.22728582035000003,-0.08658105631999999
08:33:00,-0.025428400000000018,-1.4318071999999997,0.5269844,0.0822482,-0.2246268,0.044744800000000015,5.486508799999999,-17.8490618,-18.980984799999998,-12.8887386,0.7136976799999999,-1.4656568880000003,0.233666862,0.1099663978,-0.22611656400000002,-0.08516712679999999
08:33:00,-0.029312314999999978,-1.4434388449999997,0.52224099,0.08192326999999999,-0.223422955,0.045591755,5.47587138,-17.889781655,-18.993169405,-12.705022935000002,0.7095112104999999,-1.4773866508000002,0.23365460145,0.110573094855,-0.22494730765,-0.08375319728
08:33:00,-0.03319622999999994,-1.4550704899999998,0.51749758,0.08159833999999999,-0.22221911,0.04643871000000001,5.46523396,-17.93050151,-19.005354009999998,-12.521307270000001,0.7053247409999999,-1.4891164136000004,0.23364234090000002,0.11117979191,-0.22377805130000003,-0.08233926776
08:33:00,-0.03708014500000001,-1.4667021349999998,0.51275417,0.08127340999999999,-0.221015265,0.04728566500000002,5.45459654,-17.971221364999998,-19.017538615,-12.337591605,0.7011382715,-1.5008461764000003,0.23363008035000002,0.111786488965,-0.22260879495000002,-0.08092533824
08:33:00,-0.04096405999999997,-1.4783337799999998,0.50801076,0.08094847999999999,-0.21981142,0.04813262,5.44395912,-18.011941219999997,-19.02972322,-12.153875940000002,0.696951802,-1.5125759392000002,0.23361781980000002,0.11239318602000001,-0.2214395386,-0.07951140872000001
08:33:00,-0.04484797499999993,-1.4899654249999998,0.50326735,0.08062354999999999,-0.218607575,0.04897957500000001,5.4333217,-18.052661075,-19.041907825,-11.970160275000001,0.6927653324999999,-1.5243057020000004,0.23360555925,0.112999883075,-0.22027028225000003,-0.07809747920000001
08:33:00,-0.04873189,-1.5015970699999999,0.49852394,0.08029861999999999,-0.21740373,0.049826529999999994,5.4226842799999995,-18.09338093,-19.05409243,-11.78644461,0.6885788629999999,-1.5360354648000003,0.2335932987,0.11360658013000001,-0.21910102590000002,-0.07668354967999999
08:33:00,-0.05261580499999996,-1.513228715,0.49378053,0.07997368999999999,-0.21619988499999998,0.050673485000000004,5.41204686,-18.134100785,-19.066277035,-11.602728944999999,0.6843923934999999,-1.5477652276000002,0.23358103815,0.114213277185,-0.21793176955000002,-0.07526962016
08:33:00,-0.05649971999999992,-1.52486036,0.48903712,0.07964875999999999,-0.21499604,0.051520440000000015,5.40140944,-18.17482064,-19.07846164,-11.419013280000001,0.6802059239999999,-1.5594949904000002,0.2335687776,0.11481997424000001,-0.2167625132,-0.07385569064
08:33:00,-0.06038363499999999,-1.536492005,0.48429371,0.07932382999999998,-0.213792195,0.052367395,5.39077202,-18.215540495,-19.090646245,-11.235297615,0.6760194544999999,-1.5712247532000003,0.23355651705000002,0.115426671295,-0.21559325685000003,-0.07244176112
08:33:00,-0.06426754999999995,-1.5481236499999997,0.4795503,0.07899889999999998,-0.21258834999999998,0.05321435000000001,5.3801346,-18.256260349999998,-19.10283085,-11.05158195,0.6718329849999999,-1.5829545160000003,0.23354425650000002,0.11603336835,-0.21442400050000002,-0.07102783160000001
08:33:00,-0.06815146499999991,-1.5597552949999998,0.47480689,0.07867396999999998,-0.211384505,0.05406130500000002,5.36949718,-18.296980204999997,-19.115015454999998,-10.867866285000002,0.6676465154999999,-1.5946842788000004,0.23353199595000002,0.116640065405,-0.21325474415,-0.06961390208000001
08:33:00,-0.07203537999999998,-1.57138694,0.47006348,0.07834904,-0.21018066,0.05490826,5.35885976,-18.33770006,-19.12720006,-10.68415062,0.6634600459999999,-1.6064140416000003,0.2335197354,0.11724676246,-0.21208548780000003,-0.06819997255999999
08:33:00,-0.07591929499999994,-1.583018585,0.46532007,0.07802411,-0.20897681499999998,0.05575521500000001,5.3482223399999995,-18.378419915,-19.139384664999998,-10.500434955,0.6592735765,-1.6181438044000003,0.23350747485,0.11785345951500001,-0.21091623145000002,-0.06678604303999999
08:33:00,-0.07980321000000001,-1.5946502299999996,0.46057665999999997,0.07769917999999999,-0.20777297,0.05660216999999999,5.337584919999999,-18.41913977,-19.15156927,-10.316719290000002,0.655087107,-1.6298735672000002,0.2334952143,0.11846015657,-0.2097469751,-0.06537211352
08:33:00,-0.08368712499999997,-1.6062818749999996,0.45583324999999997,0.07737424999999999,-0.206569125,0.057449125000000004,5.326947499999999,-18.459859625,-19.163753874999998,-10.133003625,0.6509006374999999,-1.6416033300000001,0.23348295375,0.11906685362500001,-0.20857771875000003,-0.063958184
08:33:00,-0.08757103999999993,-1.6179135199999997,0.4510898400000001,0.07704931999999999,-0.20536527999999998,0.058296080000000014,5.31631008,-18.50057948,-19.17593848,-9.94928796,0.6467141679999999,-1.6533330928000005,0.23347069320000002,0.11967355068,-0.20740846240000002,-0.06254425448
08:33:00,-0.091454955,-1.6295451649999997,0.44634643000000007,0.07672438999999999,-0.204161435,0.059143035,5.30567266,-18.541299334999998,-19.188123085,-9.765572294999998,0.6425276984999999,-1.6650628556000004,0.23345843265000002,0.120280247735,-0.20623920605,-0.06113032495999998
08:33:00,-0.09533886999999996,-1.6411768099999997,0.44160302000000007,0.07639945999999999,-0.20295759,0.05998999000000001,5.29503524,-18.582019189999997,-19.20030769,-9.581856630000004,0.6383412289999999,-1.6767926184000004,0.23344617210000002,0.12088694479,-0.20506994970000003,-0.059716395440000014
08:33:00,-0.09922278499999992,-1.6528084549999997,0.43685961000000006,0.07607453,-0.20175374499999998,0.06083694500000002,5.28439782,-18.622739045,-19.212492295,-9.398140965000003,0.6341547594999999,-1.6885223812000003,0.23343391155,0.121493641845,-0.20390069335000002,-0.05830246591999999
08:33:00,-0.1031067,-1.6644400999999998,0.43211620000000006,0.0757496,-0.2005499,0.0616839,5.2737604,-18.6634589,-19.2246769,-9.214425300000002,0.6299682899999999,-1.7002521440000002,0.233421651,0.12210033890000001,-0.20273143700000001,-0.05688853640000002
08:33:00,-0.10699061499999996,-1.6760717449999998,0.42737279000000006,0.07542467,-0.199346055,0.06253085500000001,5.26312298,-18.704178755,-19.236861505,-9.030709635000001,0.6257818204999999,-1.7119819068000002,0.23340939045,0.122707035955,-0.20156218065000003,-0.05547460688
08:33:00,-0.11087452999999992,-1.6877033899999998,0.42262938000000005,0.07509974,-0.19814220999999999,0.06337780999999999,5.25248556,-18.74489861,-19.24904611,-8.84699397,0.6215953509999999,-1.7237116696,0.2333971299,0.12331373301000001,-0.20039292430000002,-0.054060677359999976
08:33:00,-0.11475844499999999,-1.6993350349999998,0.41788597000000005,0.07477481,-0.196938365,0.064224765,5.24184814,-18.785618465,-19.261230715,-8.663278304999999,0.6174088815,-1.7354414324000005,0.23338486935000002,0.123920430065,-0.19922366795000002,-0.05264674784000001
08:33:00,-0.11864235999999995,-1.7109666799999999,0.41314256000000005,0.07444988,-0.19573452,0.06507172000000001,5.23121072,-18.826338319999998,-19.273415319999998,-8.479562639999997,0.6132224119999999,-1.7471711952000004,0.23337260880000002,0.12452712712,-0.19805441160000004,-0.051232818319999984
08:33:00,-0.1225262749999999,-1.7225983249999999,0.40839915000000004,0.07412495,-0.194530675,0.065918675,5.2205733,-18.867058174999997,-19.285599925,-8.295846975000003,0.6090359424999999,-1.7589009580000003,0.23336034825000002,0.125133824175,-0.19688515525000003,-0.049818888800000016
08:33:00,-0.12641018999999998,-1.73422997,0.40365574000000004,0.07380002,-0.19332683,0.06676563,5.20993588,-18.90777803,-19.29778453,-8.112131310000002,0.6048494729999999,-1.7706307208000003,0.2333480877,0.12574052122999999,-0.19571589890000002,-0.04840495927999999
08:33:00,-0.13029410499999994,-1.745861615,0.39891233000000004,0.07347508999999999,-0.192122985,0.06761258500000002,5.19929846,-18.948497885,-19.309969135,-7.928415645000001,0.6006630034999999,-1.7823604836000002,0.23333582715,0.126347218285,-0.19454664255,-0.046991029760000025
08:33:00,-0.13417802,-1.75749326,0.39416892000000003,0.07315015999999999,-0.19091914,0.06845954,5.1886610399999995,-18.98921774,-19.322153739999997,-7.74469998,0.5964765339999999,-1.7940902464000001,0.2333235666,0.12695391534,-0.19337738620000003,-0.04557710024
08:33:00,-0.13806193499999997,-1.769124905,0.38942551000000003,0.07282522999999999,-0.189715295,0.06930649500000001,5.178023619999999,-19.029937595,-19.334338345,-7.560984314999999,0.5922900644999999,-1.8058200092000005,0.23331130605,0.127560612395,-0.19220812985000002,-0.04416317071999998
08:33:00,-0.14194584999999993,-1.78075655,0.3846821,0.07250029999999999,-0.18851145,0.07015344999999999,5.167386199999999,-19.07065745,-19.34652295,-7.377268649999998,0.5881035949999999,-1.8175497720000005,0.23329904550000002,0.12816730945,-0.1910388735,-0.04274924120000001
08:33:00,-0.145829765,-1.792388195,0.37993869,0.07217536999999999,-0.187307605,0.071000405,5.156748779999999,-19.111377304999998,-19.358707555,-7.193552985000004,0.5839171254999999,-1.8292795348000004,0.23328678495000002,0.128774006505,-0.18986961715000003,-0.041335311679999986
08:33:00,-0.14971367999999996,-1.80401984,0.37519528,0.07185043999999999,-0.18610376,0.07184736000000001,5.14611136,-19.152097159999997,-19.37089216,-7.009837320000003,0.579730656,-1.8410092976000003,0.23327452440000002,0.12938070356,-0.18870036080000002,-0.03992138216000002
08:33:00,-0.15359759499999992,-1.8156514849999996,0.37045187,0.07152550999999999,-0.184899915,0.072694315,5.13547394,-19.192817015,-19.383076765,-6.8261216550000015,0.5755441864999999,-1.8527390604000002,0.23326226385,0.129987400615,-0.18753110445,-0.038507452639999995
08:33:00,-0.15748151,-1.8272831299999996,0.36570846,0.07120057999999999,-0.18369607,0.07354127,5.12483652,-19.23353687,-19.39526137,-6.64240599,0.5713577169999999,-1.8644688232000002,0.2332500033,0.13059409767,-0.18636184810000003,-0.03709352312000003
08:33:00,-0.16136542499999995,-1.8389147749999997,0.36096505,0.07087564999999998,-0.18249222499999998,0.07438822500000002,5.1141991,-19.274256725,-19.407445974999998,-6.458690324999999,0.5671712474999999,-1.8761985860000001,0.23323774275,0.131200794725,-0.18519259175000002,-0.035679593600000004
08:33:00,-0.1652493399999999,-1.8505464199999997,0.35622164,0.07055072,-0.18128838,0.07523518,5.10356168,-19.31497658,-19.41963058,-6.274974659999998,0.5629847779999999,-1.8879283488000005,0.2332254822,0.13180749178,-0.18402333540000002,-0.03426566407999998
08:33:00,-0.16913325499999998,-1.8621780649999997,0.35147823,0.07022579,-0.180084535,0.07608213500000001,5.09292426,-19.355696435,-19.431815184999998,-6.091258995000004,0.5587983084999999,-1.8996581116000004,0.23321322165000002,0.132414188835,-0.18285407905000003,-0.03285173456000001
08:33:00,-0.17301716999999994,-1.8738097099999997,0.34673482,0.06990086,-0.17888068999999998,0.07692909000000002,5.08228684,-19.396416289999998,-19.44399979,-5.907543330000003,0.5546118389999999,-1.9113878744000004,0.23320096110000002,0.13302088589,-0.18168482270000003,-0.03143780503999999
08:33:00,-0.176901085,-1.8854413549999998,0.34199141,0.06957593,-0.177676845,0.077776045,5.07164942,-19.437136144999997,-19.456184395,-5.723827665000002,0.5504253694999999,-1.9231176372000003,0.23318870055000002,0.133627582945,-0.18051556635000002,-0.03002387552000002
08:33:01,-0.180785,-1.897073,0.337248,0.069251,-0.176473,0.078623,5.061012,-19.477856,-19.468369,-5.540112,0.5462389,-1.9348474,0.23317644,0.13423428,-0.17934631,-0.028609946
08:33:01,-0.177349575,-1.886624765,0.333159245,0.06843068,-0.17564203,0.07866561,5.05435875,-19.482920885,-19.480831845,-5.585370149999999,0.5422179382,-1.9241490167,0.2288813878,0.13378919227500002,-0.17851221861,-0.027873850395
08:33:01,-0.17391415,-1.87617653,0.32907049,0.06761036,-0.17481106,0.07870822,5.0477055,-19.487985769999998,-19.49329469,-5.6306283,0.5381969764,-1.9134506334,0.22458633560000002,0.13334410455,-0.17767812722,-0.02713775479
08:33:01,-0.170478725,-1.865728295,0.324981735,0.06679004,-0.17398009,0.07875083,5.04105225,-19.493050654999998,-19.505757535,-5.67588645,0.5341760146,-1.9027522501,0.2202912834,0.13289901682500002,-0.17684403583,-0.026401659185000002
08:33:01,-0.1670433,-1.8552800600000001,0.32089298,0.06596972,-0.17314912,0.07879343999999999,5.034399,-19.49811554,-19.51822038,-5.7211446,0.5301550528,-1.8920538668,0.2159962312,0.1324539291,-0.17600994444,-0.025665563580000002
08:33:01,-0.163607875,-1.844831825,0.316804225,0.0651494,-0.17231815,0.07883605,5.02774575,-19.503180425,-19.530683225,-5.766402749999999,0.526134091,-1.8813554835,0.21170117900000002,0.13200884137500002,-0.17517585305,-0.024929467975
08:33:01,-0.16017245,-1.83438359,0.31271547,0.06432908,-0.17148718,0.07887866,5.0210925,-19.50824531,-19.54314607,-5.8116609,0.5221131292,-1.8706571002,0.2074061268,0.13156375365,-0.17434176166,-0.02419337237
08:33:01,-0.156737025,-1.823935355,0.308626715,0.06350876,-0.17065621,0.07892127,5.01443925,-19.513310195,-19.555608915,-5.85691905,0.5180921674,-1.8599587169,0.20311107460000002,0.13111866592500002,-0.17350767027,-0.023457276765
08:33:01,-0.1533016,-1.81348712,0.30453796,0.06268844,-0.16982524,0.07896388,5.007785999999999,-19.51837508,-19.56807176,-5.9021772,0.5140712056,-1.8492603336,0.19881602240000001,0.1306735782,-0.17267357888,-0.02272118116
08:33:01,-0.149866175,-1.803038885,0.300449205,0.06186811999999999,-0.16899427,0.07900649,5.00113275,-19.523439964999998,-19.580534605,-5.947435349999999,0.5100502438,-1.8385619503,0.19452097020000003,0.130228490475,-0.17183948749,-0.021985085555
08:33:01,-0.14643075,-1.79259065,0.29636045,0.06104779999999999,-0.1681633,0.0790491,4.9944795,-19.528504849999997,-19.59299745,-5.9926935,0.506029282,-1.827863567,0.19022591800000002,0.12978340275,-0.1710053961,-0.021248989949999998
08:33:01,-0.142995325,-1.782142415,0.292271695,0.06022747999999999,-0.16733233,0.07909171,4.9878262499999995,-19.533569735,-19.605460295,-6.03795165,0.5020083202,-1.8171651837,0.1859308658,0.129338315025,-0.17017130471,-0.020512894344999998
08:33:01,-0.13955990000000001,-1.7716941800000001,0.28818294,0.059407159999999994,-0.16650136,0.07913432,4.981173,-19.53863462,-19.61792314,-6.0832098,0.49798735839999997,-1.8064668004,0.18163581360000003,0.12889322730000002,-0.16933721332,-0.01977679874
08:33:01,-0.136124475,-1.761245945,0.284094185,0.058586839999999994,-0.16567039,0.07917692999999999,4.97451975,-19.543699505,-19.630385985,-6.128467949999999,0.49396639659999997,-1.7957684171,0.17734076140000002,0.128448139575,-0.16850312193,-0.019040703135
08:33:01,-0.13268905,-1.75079771,0.28000543,0.057766519999999995,-0.16483942,0.07921954,4.9678664999999995,-19.54876439,-19.64284883,-6.1737261,0.48994543479999997,-1.7850700338,0.1730457092,0.12800305185000002,-0.16766903054,-0.01830460753
08:33:01,-0.129253625,-1.740349475,0.275916675,0.056946199999999995,-0.16400845,0.07926215,4.96121325,-19.553829275,-19.655311675,-6.21898425,0.48592447299999997,-1.7743716505,0.16875065700000003,0.127557964125,-0.16683493915,-0.017568511925000002
08:33:01,-0.1258182,-1.72990124,0.27182792,0.056125879999999996,-0.16317747999999999,0.07930476,4.95456,-19.558894159999998,-19.66777452,-6.2642424,0.48190351119999997,-1.7636732672,0.16445560480000002,0.12711287640000002,-0.16600084776000001,-0.01683241632
08:33:01,-0.122382775,-1.719453005,0.267739165,0.05530556,-0.16234651,0.07934737,4.94790675,-19.563959045,-19.680237365,-6.309500549999999,0.47788254939999997,-1.7529748839,0.1601605526,0.126667788675,-0.16516675637,-0.016096320715
08:33:01,-0.11894735000000001,-1.70900477,0.26365041,0.05448523999999999,-0.16151553999999999,0.07938998,4.9412535,-19.56902393,-19.692700209999998,-6.3547587,0.47386158759999997,-1.7422765006,0.15586550040000002,0.12622270095000002,-0.16433266498000001,-0.01536022511
08:33:01,-0.115511925,-1.698556535,0.259561655,0.05366491999999999,-0.16068457,0.07943259,4.93460025,-19.574088815,-19.705163055,-6.40001685,0.46984062579999997,-1.7315781173,0.1515704482,0.125777613225,-0.16349857359,-0.014624129505
08:33:01,-0.11207650000000001,-1.6881083000000001,0.2554729,0.05284459999999999,-0.15985359999999998,0.0794752,4.927947,-19.5791537,-19.717625899999998,-6.445275,0.46581966399999997,-1.720879734,0.147275396,0.1253325255,-0.16266448220000002,-0.0138880339
08:33:01,-0.108641075,-1.677660065,0.251384145,0.05202427999999999,-0.15902263,0.07951781,4.92129375,-19.584218585,-19.730088745,-6.490533149999999,0.46179870219999997,-1.7101813506999999,0.14298034380000002,0.12488743777500001,-0.16183039081,-0.013151938295
08:33:01,-0.10520565000000001,-1.66721183,0.24729539,0.05120395999999999,-0.15819165999999998,0.07956041999999999,4.9146405,-19.589283469999998,-19.742551589999998,-6.5357913,0.45777774039999997,-1.6994829674,0.1386852916,0.12444235005000001,-0.16099629942000002,-0.012415842689999998
08:33:01,-0.101770225,-1.6567635950000001,0.243206635,0.05038363999999999,-0.15736069,0.07960303,4.90798725,-19.594348354999997,-19.755014435,-6.58104945,0.45375677859999997,-1.6887845841,0.1343902394,0.12399726232500001,-0.16016220803,-0.011679747085
08:33:01,-0.0983348,-1.64631536,0.23911787999999998,0.049563319999999994,-0.15652971999999998,0.07964564,4.901334,-19.59941324,-19.767477279999998,-6.6263076,0.44973581679999997,-1.6780862008,0.13009518720000002,0.12355217460000001,-0.15932811664000002,-0.01094365148
08:33:01,-0.09489937500000001,-1.635867125,0.23502912499999998,0.048742999999999995,-0.15569875,0.07968825,4.89468075,-19.604478125,-19.779940125,-6.671565749999999,0.44571485499999997,-1.6673878174999999,0.12580013500000004,0.12310708687500001,-0.15849402525,-0.010207555875
08:33:01,-0.09146395,-1.6254188900000002,0.23094036999999998,0.047922679999999995,-0.15486777999999998,0.07973086,4.8880275,-19.60954301,-19.792402969999998,-6.7168239,0.44169389319999997,-1.6566894342,0.12150508280000002,0.12266199915,-0.15765993386000002,-0.009471460269999999
08:33:01,-0.08802852500000001,-1.614970655,0.22685161499999998,0.047102359999999996,-0.15403681,0.07977347,4.8813742499999995,-19.614607895,-19.804865815,-6.76208205,0.43767293139999996,-1.6459910509,0.11721003060000001,0.122216911425,-0.15682584247,-0.008735364664999998
08:33:01,-0.0845931,-1.6045224200000001,0.22276285999999998,0.046282039999999997,-0.15320583999999998,0.07981608,4.874721,-19.61967278,-19.817328659999998,-6.8073402,0.43365196959999996,-1.6352926676,0.11291497840000002,0.1217718237,-0.15599175108000002,-0.007999269059999998
08:33:01,-0.08115767500000001,-1.594074185,0.21867410499999998,0.04546172,-0.15237487,0.07985869,4.86806775,-19.624737664999998,-19.829791505,-6.852598349999999,0.42963100779999996,-1.6245942843,0.10861992620000002,0.12132673597500002,-0.15515765969,-0.007263173455000001
08:33:01,-0.07772225,-1.58362595,0.21458534999999998,0.0446414,-0.1515439,0.0799013,4.8614144999999995,-19.62980255,-19.842254349999997,-6.8978565,0.42561004599999996,-1.613895901,0.10432487400000001,0.12088164825000002,-0.1543235683,-0.00652707785
08:33:01,-0.07428682500000001,-1.573177715,0.21049659499999998,0.04382108,-0.15071293,0.07994390999999999,4.85476125,-19.634867435,-19.854717195,-6.94311465,0.42158908419999996,-1.6031975177,0.10002982180000003,0.12043656052500001,-0.15348947691,-0.0057909822449999995
08:33:01,-0.07085140000000001,-1.56272948,0.20640783999999998,0.04300076,-0.14988195999999998,0.07998652,4.848108,-19.63993232,-19.867180039999997,-6.9883728,0.41756812239999996,-1.5924991344,0.09573476960000002,0.11999147280000001,-0.15265538552000002,-0.005054886639999999
08:33:01,-0.067415975,-1.552281245,0.20231908499999998,0.04218044,-0.14905099,0.08002913,4.84145475,-19.644997205,-19.879642885,-7.033630949999999,0.41354716059999996,-1.5818007510999998,0.09143971740000001,0.11954638507500001,-0.15182129413,-0.004318791034999998
08:33:01,-0.06398055000000001,-1.54183301,0.19823032999999998,0.04136012,-0.14822002,0.08007174,4.8348015,-19.65006209,-19.89210573,-7.0788891,0.40952619879999996,-1.5711023678,0.08714466520000003,0.11910129735000001,-0.15098720274,-0.0035826954299999977
08:33:01,-0.060545125000000005,-1.531384775,0.19414157499999998,0.0405398,-0.14738905,0.08011435,4.82814825,-19.655126974999998,-19.904568575,-7.12414725,0.40550523699999996,-1.5604039845,0.08284961300000002,0.11865620962500001,-0.15015311135,-0.002846599824999997
08:33:01,-0.05710970000000001,-1.5209365400000001,0.19005281999999998,0.039719479999999995,-0.14655807999999998,0.08015696,4.821495,-19.660191859999998,-19.91703142,-7.1694054,0.40148427519999996,-1.5497056012,0.07855456080000003,0.11821112190000001,-0.14931901996000002,-0.00211050422
08:33:01,-0.05367427500000002,-1.510488305,0.18596406499999998,0.038899159999999995,-0.14572711,0.08019957,4.81484175,-19.665256745,-19.929494265,-7.214663549999999,0.39746331339999996,-1.5390072179,0.07425950860000002,0.117766034175,-0.14848492857,-0.0013744086149999994
08:33:01,-0.05023885,-1.50004007,0.18187530999999998,0.038078839999999996,-0.14489614,0.08024218,4.8081885,-19.67032163,-19.94195711,-7.2599217,0.39344235159999996,-1.5283088346,0.06996445640000001,0.11732094645000002,-0.14765083718,-0.0006383130099999988
08:33:01,-0.04680342500000001,-1.4895918350000001,0.17778655499999999,0.037258519999999996,-0.14406517,0.08028479,4.80153525,-19.675386515,-19.954419955,-7.30517985,0.38942138979999996,-1.5176104513,0.06566940420000003,0.116875858725,-0.14681674579,9.778259500000178e-05
08:33:01,-0.04336800000000002,-1.4791436,0.17369779999999999,0.0364382,-0.14323419999999998,0.0803274,4.794881999999999,-19.6804514,-19.9668828,-7.350438,0.38540042799999996,-1.5069120679999999,0.06137435200000002,0.11643077100000002,-0.14598265440000002,0.0008338782000000024
08:33:01,-0.039932575,-1.468695365,0.16960904499999999,0.03561788,-0.14240323,0.08037000999999999,4.78822875,-19.685516285,-19.979345645,-7.395696149999999,0.38137946619999996,-1.4962136846999998,0.05707929980000001,0.11598568327500001,-0.14514856301,0.001569973805000003
08:33:01,-0.036497150000000006,-1.4582471300000002,0.16552029,0.03479756,-0.14157226,0.08041262,4.7815755,-19.690581169999998,-19.99180849,-7.4409543,0.37735850439999996,-1.4855153014,0.05278424760000003,0.11554059555000001,-0.14431447162,0.00230606941
08:33:01,-0.033061725000000014,-1.447798895,0.161431535,0.03397724,-0.14074129,0.08045523,4.7749222499999995,-19.695646054999997,-20.004271335,-7.48621245,0.37333754259999996,-1.4748169181,0.04848919540000002,0.11509550782500001,-0.14348038023,0.003042165015000004
08:33:01,-0.029626300000000022,-1.4373506600000001,0.15734278,0.03315692,-0.13991032,0.08049784,4.768269,-19.70071094,-20.01673418,-7.5314706,0.36931658079999996,-1.4641185347999999,0.04419414320000001,0.11465042010000001,-0.14264628884,0.0037782606200000048
08:33:01,-0.026190875000000002,-1.4269024250000002,0.153254025,0.03233659999999999,-0.13907935,0.08054045,4.76161575,-19.705775825,-20.029197025,-7.576728749999999,0.36529561899999996,-1.4534201515,0.039899091000000025,0.11420533237500001,-0.14181219745,0.004514356224999998
08:33:01,-0.02275545000000001,-1.41645419,0.14916527,0.031516279999999994,-0.13824838,0.08058306,4.7549624999999995,-19.71084071,-20.04165987,-7.6219869,0.36127465719999996,-1.4427217682,0.035604038800000015,0.11376024465000001,-0.14097810606,0.005250451829999999
