Timestamp,linacce_x,linacce_y,linacce_z,gyro_x,gyro_y,gyro_z,X-magnetometer,Y-magnetometer,Z-magnetometer,Yaw, worldXAccel,worldYAccel,worldZAccel,worldXgyro,worldYgyro,worldZgyro
08:34:06,-1.01259,0.415851,0.21592,-0.901281,0.224098,-0.11314,41.812359,-32.501545,0.36937,-93.70987,-0.40222812,0.17334196,1.0843238,-0.57075524,0.10790217,0.9079868
08:34:06,-1.0073789050000002,0.40784953500000004,0.214904945,-0.89494218,0.221013815,-0.11173374,41.800930185,-32.475275315,0.3474459,-93.732236825,-0.39954703505,0.1665863832,1.07602344025,-0.5661247137,0.1054215275,0.9008618349999999
08:34:06,-1.00216781,0.39984807,0.21388989,-0.88860336,0.21792962999999999,-0.11032748,41.78950137,-32.44900563,0.3255218,-93.75460364999999,-0.39686595010000003,0.1598308064,1.0677230805,-0.5614941874,0.10294088500000001,0.89373687
08:34:06,-0.996956715,0.391846605,0.212874835,-0.88226454,0.214845445,-0.10892122,41.778072555,-32.422735945,0.30359769999999997,-93.776970475,-0.39418486515,0.1530752296,1.05942272075,-0.5568636611,0.1004602425,0.886611905
08:34:06,-0.9917456200000001,0.38384514000000003,0.21185978,-0.87592572,0.21176126,-0.10751496,41.76664374,-32.39646626,0.28167359999999997,-93.79933729999999,-0.39150378020000004,0.14631965279999998,1.051122361,-0.5522331348,0.0979796,0.8794869399999999
08:34:06,-0.986534525,0.37584367500000004,0.210844725,-0.8695869,0.208677075,-0.1061087,41.755214925000004,-32.370196575,0.25974949999999997,-93.821704125,-0.38882269525,0.13956407599999998,1.04282200125,-0.5476026085,0.09549895750000001,0.872361975
08:34:06,-0.9813234300000001,0.36784221000000006,0.20982967,-0.86324808,0.20559289,-0.10470244000000001,41.74378611,-32.34392689,0.23782539999999996,-93.84407094999999,-0.38614161030000005,0.13280849919999999,1.0345216415,-0.5429720822,0.093018315,0.86523701
08:34:06,-0.976112335,0.359840745,0.208814615,-0.85690926,0.20250870499999998,-0.10329618,41.732357295,-32.317657205,0.21590129999999996,-93.866437775,-0.38346052535,0.1260529224,1.02622128175,-0.5383415559,0.0905376725,0.8581120449999999
08:34:06,-0.9709012400000001,0.35183928000000003,0.20779956,-0.85057044,0.19942452,-0.10188992000000001,41.72092848,-32.29138752,0.19397719999999996,-93.8888046,-0.3807794404,0.1192973456,1.017920922,-0.5337110296,0.08805703000000001,0.85098708
08:34:06,-0.965690145,0.34383781500000005,0.206784505,-0.84423162,0.196340335,-0.10048366,41.709499665,-32.265117835,0.17205309999999996,-93.91117142499999,-0.37809835545000003,0.1125417688,1.0096205622499999,-0.5290805033,0.0855763875,0.843862115
08:34:06,-0.9604790500000001,0.33583635,0.20576945,-0.8378928,0.19325615,-0.09907740000000001,41.69807085,-32.23884815,0.15012899999999996,-93.93353825,-0.3754172705,0.105786192,1.0013202024999999,-0.524449977,0.083095745,0.83673715
08:34:06,-0.9552679550000001,0.327834885,0.204754395,-0.83155398,0.190171965,-0.09767114,41.686642035,-32.212578465,0.12820489999999996,-93.95590507499999,-0.37273618555000004,0.09903061519999999,0.99301984275,-0.5198194507,0.08061510250000001,0.829612185
08:34:06,-0.9500568600000001,0.31983342000000003,0.20373934,-0.82521516,0.18708777999999998,-0.09626488,41.67521322,-32.18630878,0.10628079999999995,-93.9782719,-0.3700551006,0.0922750384,0.9847194829999999,-0.5151889244,0.07813446,0.82248722
08:34:06,-0.9448457650000001,0.31183195500000005,0.202724285,-0.81887634,0.184003595,-0.09485862,41.663784405,-32.160039095,0.08435669999999995,-94.000638725,-0.36737401565000005,0.0855194616,0.9764191232499999,-0.5105583981,0.0756538175,0.815362255
08:34:06,-0.9396346700000001,0.30383049000000006,0.20170923,-0.81253752,0.18091941,-0.09345236,41.65235559,-32.13376941,0.06243259999999995,-94.02300555,-0.36469293070000003,0.07876388479999999,0.9681187634999999,-0.5059278718,0.07317317500000001,0.80823729
08:34:06,-0.9344235750000001,0.295829025,0.200694175,-0.8061986999999999,0.17783522499999999,-0.0920461,41.640926775,-32.107499725,0.04050849999999995,-94.045372375,-0.36201184575,0.072008308,0.9598184037499999,-0.5012973455,0.0706925325,0.801112325
08:34:06,-0.9292124800000001,0.28782756000000004,0.19967912,-0.79985988,0.17475104,-0.09063984,41.62949796,-32.08123004,0.018584399999999945,-94.06773919999999,-0.35933076080000004,0.0652527312,0.951518044,-0.4966668192,0.06821189,0.79398736
08:34:06,-0.9240013850000001,0.27982609500000005,0.198664065,-0.79352106,0.171666855,-0.08923358,41.618069145,-32.054960355,-0.0033397000000000565,-94.090106025,-0.35664967585,0.0584971544,0.94321768425,-0.4920362929,0.0657312475,0.786862395
08:34:06,-0.9187902900000001,0.27182463,0.19764901,-0.78718224,0.16858267,-0.08782732,41.60664033,-32.02869067,-0.02526380000000006,-94.11247284999999,-0.35396859090000005,0.051741577600000005,0.9349173245,-0.4874057666,0.063250605,0.77973743
08:34:06,-0.9135791950000001,0.263823165,0.196633955,-0.78084342,0.165498485,-0.08642106,41.595211515,-32.002420985,-0.04718790000000006,-94.134839675,-0.35128750595,0.04498600080000001,0.92661696475,-0.48277524029999996,0.060769962500000003,0.772612465
08:34:06,-0.9083681000000001,0.25582170000000004,0.1956189,-0.7745046,0.1624143,-0.0850148,41.5837827,-31.9761513,-0.06911200000000006,-94.1572065,-0.34860642100000006,0.03823042400000001,0.918316605,-0.478144714,0.058289320000000006,0.7654875
08:34:06,-0.9031570050000001,0.24782023500000006,0.194603845,-0.76816578,0.159330115,-0.08360854000000001,41.572353885,-31.949881615,-0.09103610000000006,-94.17957332499999,-0.34592533605000003,0.03147484719999999,0.91001624525,-0.4735141877,0.0558086775,0.7583625350000001
08:34:06,-0.8979459100000001,0.23981877000000004,0.19358879,-0.76182696,0.15624593,-0.08220228,41.56092507,-31.92361193,-0.11296020000000007,-94.20194015,-0.3432442511,0.024719270399999993,0.9017158854999999,-0.4688836614,0.053328035,0.75123757
08:34:06,-0.8927348150000001,0.23181730500000003,0.192573735,-0.75548814,0.15316174500000002,-0.08079602,41.549496255,-31.897342245,-0.13488430000000007,-94.22430697499999,-0.34056316615000004,0.017963693599999997,0.8934155257499999,-0.4642531351,0.050847392500000005,0.744112605
08:34:06,-0.8875237200000001,0.22381584000000004,0.19155868,-0.74914932,0.15007756,-0.07938976,41.53806744,-31.87107256,-0.15680840000000007,-94.2466738,-0.3378820812,0.011208116800000001,0.885115166,-0.4596226088,0.04836675,0.7369876399999999
08:34:06,-0.8823126250000001,0.21581437500000006,0.190543625,-0.7428105,0.14699337499999998,-0.07798350000000001,41.526638625000004,-31.844802875,-0.17873250000000007,-94.269040625,-0.33520099625,0.004452540000000005,0.87681480625,-0.4549920825,0.0458861075,0.729862675
08:34:06,-0.8771015300000001,0.20781291000000005,0.18952857,-0.73647168,0.14390919,-0.07657724,41.51520981,-31.81853319,-0.20065660000000007,-94.29140745,-0.3325199113,-0.0023030367999999912,0.8685144465,-0.4503615562,0.043405465000000004,0.72273771
08:34:06,-0.8718904350000001,0.19981144500000003,0.188513515,-0.73013286,0.140825005,-0.07517098,41.503780995,-31.792263505,-0.22258070000000008,-94.313774275,-0.32983882635000006,-0.009058613599999987,0.8602140867499999,-0.4457310299,0.0409248225,0.715612745
08:34:06,-0.8666793400000001,0.19180998000000005,0.18749846,-0.72379404,0.13774081999999999,-0.07376472,41.49235218,-31.76599382,-0.24450480000000008,-94.33614109999999,-0.32715774140000004,-0.01581419040000001,0.8519137269999999,-0.44110050359999997,0.03844418000000001,0.70848778
08:34:06,-0.8614682450000001,0.18380851500000006,0.186483405,-0.71745522,0.134656635,-0.07235846,41.480923365,-31.739724135,-0.2664289000000001,-94.358507925,-0.32447665645,-0.022569767200000007,0.8436133672499999,-0.43646997730000003,0.035963537500000003,0.701362815
08:34:06,-0.8562571500000001,0.17580705000000005,0.18546835,-0.7111164,0.13157245,-0.07095219999999999,41.46949455,-31.71345445,-0.2883530000000001,-94.38087474999999,-0.32179557150000004,-0.029325344000000003,0.8353130074999999,-0.431839451,0.033482895,0.6942378499999999
08:34:06,-0.8510460550000001,0.16780558500000003,0.18445329500000002,-0.70477758,0.128488265,-0.06954594,41.458065735,-31.687184765,-0.3102771000000001,-94.403241575,-0.31911448655,-0.0360809208,0.8270126477499999,-0.4272089247,0.031002252500000008,0.687112885
08:34:06,-0.8458349600000001,0.15980412000000005,0.18343824,-0.6984387599999999,0.12540408,-0.06813968000000001,41.44663692,-31.66091508,-0.3322012000000001,-94.4256084,-0.3164334016,-0.042836497599999995,0.818712288,-0.4225783984,0.028521610000000003,0.67998792
08:34:06,-0.8406238650000001,0.15180265500000006,0.182423185,-0.69209994,0.122319895,-0.06673342,41.435208105,-31.634645395,-0.3541253000000001,-94.447975225,-0.31375231665000003,-0.04959207439999999,0.81041192825,-0.4179478721,0.026040967499999998,0.672862955
08:34:06,-0.8354127700000001,0.14380119000000008,0.18140813,-0.68576112,0.11923571,-0.06532716,41.42377929,-31.60837571,-0.3760494000000001,-94.47034205,-0.3110712317,-0.05634765119999999,0.8021115685,-0.4133173458,0.023560325000000007,0.66573799
08:34:06,-0.8302016750000001,0.13579972500000004,0.180393075,-0.6794222999999999,0.116151525,-0.0639209,41.412350475,-31.582106025,-0.3979735000000001,-94.49270887499999,-0.30839014675000004,-0.06310322799999998,0.79381120875,-0.40868681949999996,0.021079682500000002,0.658613025
08:34:06,-0.8249905800000001,0.12779826000000005,0.17937802,-0.67308348,0.11306734,-0.06251464000000001,41.40092166,-31.55583634,-0.4198976000000001,-94.5150757,-0.3057090618,-0.06985880479999998,0.785510849,-0.4040562932,0.018599039999999997,0.6514880599999999
08:34:06,-0.8197794850000001,0.11979679500000007,0.178362965,-0.66674466,0.109983155,-0.061108380000000004,41.389492845,-31.529566655,-0.4418217000000001,-94.53744252499999,-0.30302797685000005,-0.0766143816,0.77721048925,-0.3994257669,0.016118397500000006,0.644363095
08:34:06,-0.8145683900000001,0.11179533000000003,0.17734791,-0.66040584,0.10689897000000001,-0.05970212,41.37806403,-31.50329697,-0.4637458000000001,-94.55980935,-0.3003468919,-0.08336995839999997,0.7689101294999999,-0.3947952406,0.013637755000000001,0.6372381300000001
08:34:06,-0.8093572950000001,0.10379386500000004,0.176332855,-0.65406702,0.103814785,-0.05829586,41.366635215,-31.477027285,-0.4856699000000001,-94.582176175,-0.29766580695,-0.09012553519999997,0.7606097697499999,-0.3901647143,0.011157112499999997,0.630113165
08:34:06,-0.8041462000000001,0.09579240000000006,0.1753178,-0.6477282,0.1007306,-0.0568896,41.3552064,-31.4507576,-0.5075940000000001,-94.60454299999999,-0.29498472200000003,-0.09688111199999996,0.75230941,-0.385534188,0.008676470000000006,0.6229882
08:34:06,-0.7989351050000001,0.08779093500000007,0.174302745,-0.64138938,0.09764641500000001,-0.05548334,41.343777585,-31.424487915,-0.5295181000000001,-94.626909825,-0.29230363705,-0.10363668880000002,0.74400905025,-0.3809036617,0.006195827500000001,0.615863235
08:34:06,-0.7937240100000001,0.07978947000000008,0.17328769,-0.63505056,0.09456223,-0.05407708,41.33234877,-31.39821823,-0.5514422000000001,-94.64927664999999,-0.28962255210000004,-0.11039226560000001,0.7357086905,-0.3762731354,0.003715184999999996,0.60873827
08:34:06,-0.7885129150000001,0.07178800500000004,0.172272635,-0.62871174,0.09147804500000001,-0.05267082,41.320919955,-31.371948545,-0.5733663000000001,-94.671643475,-0.28694146715,-0.11714784240000001,0.7274083307499999,-0.3716426091,0.0012345425000000049,0.601613305
08:34:06,-0.7833018200000001,0.06378654000000006,0.17125758000000002,-0.62237292,0.08839386000000002,-0.05126456,41.30949114,-31.34567886,-0.5952904000000001,-94.6940103,-0.28426038220000005,-0.1239034192,0.7191079709999999,-0.3670120828,-0.0012461,0.5944883400000001
08:34:06,-0.7780907250000001,0.05578507500000007,0.170242525,-0.6160341,0.085309675,-0.049858299999999994,41.298062325000004,-31.319409175,-0.6172145000000001,-94.716377125,-0.28157929725,-0.130658996,0.7108076112499999,-0.36238155650000003,-0.003726742500000005,0.587363375
08:34:06,-0.7728796300000002,0.04778361000000003,0.16922747,-0.60969528,0.08222549000000001,-0.04845204,41.28663351,-31.29313949,-0.6391386000000001,-94.73874395,-0.2788982123,-0.1374145728,0.7025072514999999,-0.3577510302,-0.006207384999999996,0.58023841
08:34:06,-0.7676685350000001,0.039782145000000046,0.168212415,-0.60335646,0.079141305,-0.047045779999999995,41.275204695,-31.266869805,-0.6610627,-94.76111077499999,-0.27621712735000004,-0.1441701496,0.6942068917499999,-0.3531205039,-0.0086880275,0.5731134449999999
08:34:06,-0.7624574400000002,0.03178068000000006,0.16719736000000002,-0.59701764,0.07605712,-0.04563952,41.26377588,-31.24060012,-0.6829868000000001,-94.7834776,-0.2735360424,-0.1509257264,0.685906532,-0.3484899776,-0.011168670000000006,0.56598848
08:34:06,-0.7572463450000001,0.023779215000000076,0.166182305,-0.5906788199999999,0.07297293500000002,-0.044233259999999996,41.252347065,-31.214330435,-0.7049109000000002,-94.80584442499999,-0.27085495745,-0.15768130319999998,0.67760617225,-0.3438594513,-0.013649312499999997,0.558863515
08:34:06,-0.75203525,0.01577775000000009,0.16516725,-0.58434,0.06988875,-0.042827000000000004,41.24091825,-31.188060749999998,-0.7268350000000001,-94.82821125,-0.2681738725,-0.16443687999999998,0.6693058125,-0.339228925,-0.016129955,0.55173855
08:34:06,-0.7468241550000001,0.007776285000000049,0.164152195,-0.57800118,0.06680456500000001,-0.04142074,41.229489435,-31.161791065,-0.7487591,-94.850578075,-0.26549278755000005,-0.17119245679999998,0.66100545275,-0.33459839869999997,-0.018610597500000006,0.544613585
08:34:06,-0.7416130600000002,-0.000225179999999936,0.16313714,-0.5716623599999999,0.06372038,-0.040014480000000005,41.21806062,-31.13552138,-0.7706832000000001,-94.8729449,-0.26281170260000003,-0.17794803359999997,0.652705093,-0.32996787240000003,-0.021091239999999997,0.53748862
08:34:06,-0.7364019650000001,-0.008226644999999921,0.162122085,-0.5653235400000001,0.060636195000000004,-0.03860822,41.206631805,-31.109251695,-0.7926073000000002,-94.895311725,-0.26013061765,-0.18470361039999997,0.64440473325,-0.3253373461,-0.023571882499999988,0.5303636549999999
08:34:06,-0.73119087,-0.016228109999999962,0.16110703,-0.55898472,0.057552010000000015,-0.03720195999999999,41.19520299,-31.08298201,-0.8145314000000001,-94.91767854999999,-0.25744953270000004,-0.19145918719999996,0.6361043734999999,-0.3207068198,-0.026052525000000007,0.52323869
08:34:06,-0.7259797750000001,-0.024229574999999948,0.160091975,-0.5526458999999999,0.054467825,-0.0357957,41.183774174999996,-31.056712325,-0.8364555,-94.940045375,-0.25476844775,-0.19821476399999996,0.62780401375,-0.3160762935,-0.028533167499999998,0.5161137250000001
08:34:06,-0.7207686800000002,-0.03223103999999993,0.15907692,-0.5463070800000001,0.05138364000000001,-0.03438943999999999,41.17234536,-31.03044264,-0.8583796000000001,-94.96241219999999,-0.2520873628,-0.2049703408,0.619503654,-0.3114457672,-0.03101380999999999,0.50898876
08:34:06,-0.7155575850000001,-0.04023250499999992,0.158061865,-0.53996826,0.04829945500000002,-0.03298318,41.160916545,-31.004172955,-0.8803037000000002,-94.984779025,-0.24940627785000002,-0.2117259176,0.61120329425,-0.3068152409,-0.03349445250000001,0.501863795
08:34:06,-0.71034649,-0.048233969999999904,0.15704681,-0.53362944,0.04521527,-0.031576919999999994,41.14948773,-30.97790327,-0.9022278000000001,-95.00714585,-0.24672519290000003,-0.2184814944,0.6029029345,-0.3021847146,-0.035975095,0.49473883
08:34:06,-0.7051353950000001,-0.056235434999999945,0.156031755,-0.52729062,0.04213108500000001,-0.030170660000000002,41.138058915,-30.951633585,-0.9241519,-95.02951267499999,-0.24404410795000003,-0.2252370712,0.5946025747499999,-0.2975541883,-0.03845573749999999,0.487613865
08:34:06,-0.6999243000000002,-0.06423689999999993,0.1550167,-0.5209518,0.03904690000000002,-0.028764399999999996,41.1266301,-30.9253639,-0.9460760000000001,-95.0518795,-0.24136302300000004,-0.231992648,0.5863022149999999,-0.292923662,-0.04093638000000001,0.4804889
08:34:06,-0.6947132050000001,-0.07223836499999992,0.15400164500000002,-0.51461298,0.035962715000000006,-0.027358140000000003,41.115201285,-30.899094215,-0.9680001000000003,-95.07424632499999,-0.23868193805000001,-0.2387482248,0.5780018552499999,-0.2882931357,-0.0434170225,0.473363935
08:34:06,-0.6895021100000001,-0.08023982999999996,0.15298659,-0.50827416,0.03287853000000002,-0.025951879999999997,41.10377247,-30.87282453,-0.9899242000000001,-95.09661315,-0.23600085310000002,-0.2455038016,0.5697014954999999,-0.2836626094,-0.04589766499999999,0.46623897000000003
08:34:06,-0.6842910150000001,-0.08824129499999994,0.151971535,-0.50193534,0.029794345,-0.024545620000000004,41.092343655,-30.846554845,-1.0118483,-95.118979975,-0.23331976815000002,-0.2522593784,0.56140113575,-0.2790320831,-0.04837830750000001,0.459114005
08:34:06,-0.6790799200000002,-0.09624275999999993,0.15095648,-0.49559652,0.02671016000000001,-0.023139359999999998,41.08091484,-30.82028516,-1.0337724000000001,-95.1413468,-0.23063868320000003,-0.25901495519999995,0.553100776,-0.2744015568,-0.05085895,0.45198904
08:34:06,-0.6738688250000001,-0.10424422499999991,0.14994142500000002,-0.48925769999999996,0.02362597500000002,-0.02173309999999999,41.069486025,-30.794015475000002,-1.0556965000000003,-95.163713625,-0.22795759825000003,-0.265770532,0.54480041625,-0.2697710305,-0.05333959249999999,0.444864075
08:34:06,-0.6686577300000001,-0.1122456899999999,0.14892637,-0.48291888,0.020541790000000004,-0.02032684,41.05805721,-30.76774579,-1.0776206000000002,-95.18608044999999,-0.22527651330000004,-0.27252610879999994,0.5365000565,-0.2651405042,-0.05582023500000001,0.43773911
08:34:06,-0.6634466350000001,-0.12024715499999988,0.147911315,-0.47658005999999997,0.017457605000000015,-0.018920579999999992,41.046628395,-30.741476105,-1.0995447,-95.208447275,-0.22259542835000004,-0.2792816856,0.52819969675,-0.2605099779,-0.0583008775,0.430614145
08:34:06,-0.6582355400000002,-0.12824861999999987,0.14689626,-0.47024124,0.014373419999999998,-0.01751432,41.03519958,-30.71520642,-1.1214688000000002,-95.23081409999999,-0.21991434340000002,-0.28603726239999994,0.519899337,-0.25587945160000003,-0.06078151999999999,0.42348918
08:34:06,-0.6530244450000001,-0.13625008499999997,0.145881205,-0.46390242,0.011289235000000009,-0.016108059999999993,41.023770765,-30.688936735,-1.1433929000000003,-95.253180925,-0.21723325845000002,-0.2927928392,0.5115989772499999,-0.2512489253,-0.06326216250000001,0.41636421500000004
08:34:06,-0.6478133500000001,-0.14425154999999995,0.14486615,-0.45756359999999996,0.00820505000000002,-0.014701800000000001,41.01234195,-30.66266705,-1.1653170000000002,-95.27554775,-0.21455217350000003,-0.29954841599999993,0.5032986174999999,-0.246618399,-0.065742805,0.40923925
08:34:06,-0.6426022550000001,-0.15225301499999994,0.14385109499999998,-0.45122478,0.005120865000000002,-0.013295539999999995,41.000913135,-30.636397365,-1.1872411,-95.297914575,-0.21187108855000003,-0.3063039928,0.49499825774999995,-0.2419878727,-0.06822344749999999,0.402114285
08:34:06,-0.6373911600000002,-0.16025447999999992,0.14283604,-0.44488595999999997,0.002036680000000013,-0.011889280000000002,40.98948432,-30.61012768,-1.2091652000000002,-95.3202814,-0.20919000360000004,-0.3130595695999999,0.48669789799999996,-0.2373573464,-0.07070409000000001,0.39498932
08:34:06,-0.6321800650000001,-0.1682559449999999,0.141820985,-0.43854714,-0.0010475049999999764,-0.010483019999999996,40.978055505,-30.583857995,-1.2310893000000003,-95.34264822499999,-0.20650891865000004,-0.31981514639999997,0.47839753825,-0.2327268201,-0.0731847325,0.38786435500000005
08:34:06,-0.6269689700000001,-0.1762574099999999,0.14080593000000002,-0.43220832,-0.004131689999999993,-0.009076760000000003,40.96662669,-30.55758831,-1.2530134000000002,-95.36501505,-0.20382783370000002,-0.3265707232,0.4700971785,-0.22809629380000002,-0.07566537499999999,0.38073939
08:34:06,-0.6217578750000001,-0.18425887499999988,0.139790875,-0.42586949999999996,-0.007215874999999983,-0.007670499999999997,40.955197874999996,-30.531318625,-1.2749375,-95.38738187499999,-0.20114674875000002,-0.33332629999999996,0.46179681875,-0.22346576750000002,-0.07814601750000001,0.37361442499999997
08:34:06,-0.6165467800000002,-0.19226033999999997,0.13877582,-0.41953068,-0.010300059999999972,-0.00626423999999999,40.94376906,-30.505048940000002,-1.2968616000000002,-95.4097487,-0.19846566380000003,-0.3400818767999999,0.4534964589999999,-0.21883524119999997,-0.08062666,0.36648946000000004
08:34:06,-0.6113356850000001,-0.20026180499999996,0.137760765,-0.41319185999999997,-0.013384244999999989,-0.004857979999999998,40.932340245,-30.478779255,-1.3187857000000003,-95.432115525,-0.19578457885000003,-0.34683745359999996,0.4451960992499999,-0.21420471489999998,-0.0831073025,0.359364495
08:34:06,-0.6061245900000001,-0.20826326999999994,0.13674571000000002,-0.40685304,-0.01646842999999998,-0.0034517199999999915,40.92091143,-30.45250957,-1.3407098000000002,-95.45448234999999,-0.19310349390000003,-0.3535930303999999,0.43689573949999994,-0.2095741886,-0.08558794500000001,0.35223952999999997
08:34:06,-0.6009134950000001,-0.21626473499999993,0.135730655,-0.40051422000000003,-0.019552614999999995,-0.002045459999999999,40.909482615,-30.426239885,-1.3626339,-95.476849175,-0.19042240895000004,-0.36034860719999995,0.42859537974999995,-0.2049436623,-0.0880685875,0.34511456500000004
08:34:06,-0.5957024000000002,-0.22426619999999992,0.1347156,-0.39417539999999995,-0.022636799999999985,-0.0006391999999999926,40.8980538,-30.3999702,-1.3845580000000002,-95.49921599999999,-0.18774132400000004,-0.3671041839999999,0.42029501999999996,-0.200313136,-0.09054923,0.3379896
08:34:06,-0.5904913050000001,-0.2322676649999999,0.133700545,-0.38783658,-0.025720984999999974,0.00076706,40.886624985,-30.373700515,-1.4064821000000003,-95.521582825,-0.18506023905000002,-0.37385976079999994,0.41199466025,-0.1956826097,-0.09302987250000001,0.33086463499999996
08:34:06,-0.5852802100000001,-0.2402691299999999,0.13268549000000002,-0.38149776,-0.028805169999999963,0.0021733200000000064,40.87519617,-30.34743083,-1.4284062000000002,-95.54394965,-0.18237915410000002,-0.3806153376,0.4036943005,-0.19105208340000002,-0.095510515,0.32373967000000003
08:34:06,-0.5800691150000001,-0.24827059499999987,0.131670435,-0.37515893999999994,-0.03188935499999998,0.003579579999999999,40.863767355,-30.321161145,-1.4503303,-95.566316475,-0.17969806915000003,-0.38737091439999993,0.39539394075,-0.18642155710000002,-0.0979911575,0.316614705
08:34:06,-0.5748580200000002,-0.25627205999999986,0.13065538,-0.36882012,-0.03497354,0.004985840000000005,40.85233854,-30.29489146,-1.4722544000000002,-95.5886833,-0.17701698420000003,-0.3941264912,0.387093581,-0.18179103080000003,-0.10047180000000001,0.30948974000000007
08:34:06,-0.5696469250000001,-0.26427352499999995,0.129640325,-0.3624813,-0.03805772499999996,0.006392099999999998,40.840909725,-30.268621775,-1.4941785000000003,-95.61105012499999,-0.17433589925000004,-0.4008820679999999,0.3787932212499999,-0.17716050449999998,-0.1029524425,0.30236477500000003
08:34:06,-0.5644358300000001,-0.27227498999999994,0.12862527,-0.35614247999999993,-0.041141909999999976,0.007798360000000004,40.82948091,-30.24235209,-1.5161026000000002,-95.63341695,-0.17165481430000004,-0.4076376448,0.37049286149999994,-0.1725299782,-0.105433085,0.29523981
08:34:06,-0.5592247350000001,-0.2802764549999999,0.127610215,-0.34980365999999996,-0.04422609499999999,0.00920462000000001,40.818052095,-30.216082405,-1.5380267,-95.65578377499999,-0.16897372935000002,-0.4143932215999999,0.36219250174999995,-0.1678994519,-0.10791372750000001,0.28811484500000006
08:34:06,-0.5540136400000002,-0.2882779199999999,0.12659516,-0.34346484,-0.047310279999999955,0.010610880000000003,40.80662328,-30.18981272,-1.5599508000000002,-95.6781506,-0.16629264440000002,-0.42114879839999997,0.35389214199999997,-0.1632689256,-0.11039437,0.28098988
08:34:06,-0.5488025450000001,-0.2962793849999999,0.125580105,-0.33712602,-0.05039446499999997,0.012017139999999996,40.795194465,-30.163543035,-1.5818749000000003,-95.700517425,-0.16361155945000003,-0.4279043751999999,0.34559178225,-0.1586383993,-0.1128750125,0.273864915
08:34:06,-0.5435914500000001,-0.3042808499999999,0.12456505000000001,-0.33078719999999995,-0.05347864999999999,0.013423400000000016,40.78376565,-30.13727335,-1.6037990000000002,-95.72288424999999,-0.16093047450000003,-0.43465995199999996,0.3372914225,-0.15400787300000002,-0.11535565500000002,0.26673995000000006
08:34:06,-0.5383803550000001,-0.31228231499999987,0.12354999500000001,-0.32444838,-0.056562835000000006,0.014829660000000008,40.772336835,-30.111003665,-1.6257231,-95.745251075,-0.15824938955000004,-0.4414155287999999,0.32899106275,-0.14937734670000002,-0.1178362975,0.259614985
08:34:06,-0.5331692600000002,-0.32028377999999996,0.12253494000000001,-0.31810956,-0.05964701999999997,0.01623592,40.76090802,-30.08473398,-1.6476472000000002,-95.76761789999999,-0.15556830460000004,-0.44817110559999995,0.3206907029999999,-0.14474682039999998,-0.12031694,0.25249002
08:34:06,-0.5279581650000001,-0.32828524499999995,0.12151988500000001,-0.31177073999999994,-0.06273120499999998,0.017642179999999993,40.749479205,-30.058464295,-1.6695713000000003,-95.789984725,-0.15288721965000002,-0.4549266823999999,0.3123903432499999,-0.14011629409999998,-0.12279758250000002,0.24536505500000005
08:34:06,-0.5227470700000001,-0.33628670999999993,0.12050483000000001,-0.30543191999999997,-0.06581539,0.019048440000000014,40.73805039,-30.03219461,-1.6914954,-95.81235155,-0.15020613470000005,-0.46168225919999994,0.30408998349999994,-0.1354857678,-0.12527822500000002,0.23824009000000002
08:34:06,-0.5175359750000001,-0.3442881749999999,0.119489775,-0.2990931,-0.06889957499999996,0.020454700000000006,40.726621574999996,-30.005924925,-1.7134195,-95.834718375,-0.14752504975000003,-0.4684378359999999,0.29578962374999995,-0.1308552415,-0.12775886749999998,0.23111512499999998
08:34:06,-0.5123248800000001,-0.3522896399999999,0.11847472,-0.29275428000000003,-0.07198375999999998,0.02186096,40.71519276,-29.97965524,-1.7353436000000002,-95.8570852,-0.1448439648,-0.47519341279999994,0.28748926399999997,-0.1262247152,-0.13023951,0.22399016000000005
08:34:06,-0.5071137850000002,-0.3602911049999999,0.117459665,-0.28641545999999996,-0.075067945,0.02326722000000002,40.703763945,-29.953385555,-1.7572677000000003,-95.87945202499999,-0.14216287985000003,-0.4819489896,0.27918890425,-0.12159418890000001,-0.13272015250000002,0.216865195
08:34:06,-0.5019026900000001,-0.3682925699999999,0.11644461,-0.28007664,-0.07815212999999996,0.02467348000000001,40.69233513,-29.92711587,-1.7791918000000004,-95.90181885,-0.1394817949,-0.48870456639999993,0.2708885445,-0.11696366260000002,-0.13520079499999998,0.20974022999999997
08:34:06,-0.49669159500000015,-0.37629403499999986,0.115429555,-0.27373782,-0.08123631499999998,0.026079740000000004,40.680906315,-29.900846185,-1.8011159,-95.92418567499999,-0.13680070995000004,-0.4954601432,0.26258818475,-0.11233313630000002,-0.1376814375,0.20261526500000004
08:34:06,-0.4914805000000001,-0.38429549999999985,0.1144145,-0.26739899999999994,-0.08432049999999999,0.027485999999999997,40.6694775,-29.8745765,-1.8230400000000002,-95.9465525,-0.13411962500000002,-0.5022157199999999,0.254287825,-0.10770261000000003,-0.14016208000000002,0.1954903
08:34:06,-0.48626940500000015,-0.39229696499999994,0.113399445,-0.26106018,-0.08740468499999995,0.028892260000000017,40.658048685,-29.848306815,-1.8449641000000003,-95.968919325,-0.13143854005000005,-0.5089712968,0.24598746524999993,-0.10307208369999998,-0.14264272249999999,0.18836533500000008
08:34:06,-0.4810583100000001,-0.4002984299999999,0.11238439,-0.25472136,-0.09048886999999997,0.03029852000000001,40.64661987,-29.82203713,-1.8668882,-95.99128615,-0.12875745510000003,-0.5157268735999999,0.23768710549999994,-0.09844155739999999,-0.145123365,0.18124037000000004
08:34:06,-0.47584721500000016,-0.4082998949999999,0.111369335,-0.24838253999999993,-0.09357305499999999,0.03170478,40.635191055,-29.795767445,-1.8888123,-96.013652975,-0.12607637015,-0.5224824504,0.22938674574999995,-0.0938110311,-0.14760400749999997,0.174115405
08:34:06,-0.4706361200000001,-0.4163013599999999,0.11035428,-0.24204371999999996,-0.09665724,0.033111039999999994,40.62376224,-29.76949776,-1.9107364000000002,-96.03601979999999,-0.12339528520000004,-0.5292380271999999,0.22108638599999997,-0.0891805048,-0.15008465,0.16699044000000007
08:34:06,-0.46542502500000016,-0.4243028249999999,0.10933922500000001,-0.2357049,-0.09974142499999997,0.034517300000000015,40.612333425,-29.743228075,-1.9326605000000003,-96.058386625,-0.12071420025000001,-0.535993604,0.21278602624999998,-0.08454997850000001,-0.1525652925,0.15986547500000003
08:34:06,-0.4602139300000001,-0.43230428999999987,0.10832417000000001,-0.22936608000000003,-0.10282560999999998,0.03592356000000001,40.60090461,-29.71695839,-1.9545846000000004,-96.08075345,-0.11803311530000005,-0.5427491807999999,0.2044856665,-0.07991945220000002,-0.15504593499999997,0.15274051
08:34:06,-0.45500283500000016,-0.44030575499999985,0.10730911500000001,-0.22302725999999995,-0.105909795,0.03732982,40.589475795,-29.690688705,-1.9765087000000001,-96.103120275,-0.11535203035000002,-0.5495047576,0.19618530675,-0.07528892590000003,-0.1575265775,0.14561554500000007
08:34:06,-0.4497917400000001,-0.44830721999999995,0.10629406000000001,-0.21668843999999998,-0.10899397999999996,0.03873608000000002,40.578046979999996,-29.66441902,-1.9984328000000002,-96.1254871,-0.11267094540000006,-0.5562603343999999,0.1878849469999999,-0.07065839959999998,-0.16000722,0.13849058000000003
08:34:06,-0.44458064500000016,-0.45630868499999994,0.10527900500000001,-0.21034962000000001,-0.11207816499999998,0.04014234000000001,40.566618165,-29.638149335,-2.0203569000000003,-96.14785392499999,-0.10998986045000003,-0.5630159111999999,0.17958458724999993,-0.06602787330000004,-0.16248786249999997,0.131365615
08:34:06,-0.4393695500000001,-0.4643101499999999,0.10426395000000001,-0.20401079999999994,-0.11516235,0.041548600000000005,40.55518935,-29.61187965,-2.042281,-96.17022075,-0.10730877550000001,-0.5697714879999999,0.17128422749999994,-0.06139734699999999,-0.164968505,0.12424065000000006
08:34:06,-0.43415845500000017,-0.4723116149999999,0.10324889500000001,-0.19767197999999997,-0.11824653499999996,0.04295486,40.543760535,-29.585609965,-2.0642051,-96.19258757499999,-0.10462769055000004,-0.5765270647999999,0.16298386774999996,-0.056766820700000054,-0.1674491475,0.11711568500000002
08:34:06,-0.4289473600000001,-0.4803130799999999,0.10223384,-0.19133316,-0.12133071999999998,0.04436112000000002,40.53233172,-29.55934028,-2.0861292000000002,-96.2149544,-0.10194660560000002,-0.5832826416,0.15468350799999997,-0.052136294400000005,-0.16992978999999997,0.10999071999999999
08:34:06,-0.42373626500000017,-0.4883145449999999,0.101218785,-0.18499433999999992,-0.12441490499999999,0.04576738000000001,40.520902905,-29.533070594999998,-2.1080533000000004,-96.237321225,-0.09926552065000005,-0.5900382183999999,0.14638314824999998,-0.04750576809999996,-0.1724104325,0.10286575500000006
08:34:06,-0.4185251700000001,-0.49631600999999986,0.10020373,-0.17865551999999996,-0.12749908999999995,0.04717364,40.50947409,-29.50680091,-2.1299774000000005,-96.25968805,-0.09658443570000003,-0.5967937952,0.1380827885,-0.04287524180000002,-0.174891075,0.09574079000000002
08:34:06,-0.41331407500000017,-0.5043174749999999,0.099188675,-0.1723167,-0.13058327499999997,0.048579899999999995,40.498045274999996,-29.480531225,-2.1519015,-96.282054875,-0.09390335075000006,-0.6035493719999999,0.12978242875,-0.03824471549999997,-0.17737171749999997,0.08861582499999998
08:34:06,-0.4081029800000001,-0.5123189399999999,0.09817362,-0.16597788000000002,-0.13366746,0.049986160000000016,40.48661646,-29.45426154,-2.1738256000000002,-96.30442169999999,-0.09122226580000004,-0.6103049488,0.12148206900000003,-0.03361418920000003,-0.17985236,0.08149086000000005
08:34:06,-0.40289188500000017,-0.5203204049999999,0.097158565,-0.15963905999999994,-0.13675164499999995,0.05139242000000001,40.475187645,-29.427991855000002,-2.1957497000000004,-96.326788525,-0.08854118085000001,-0.6170605255999999,0.11318170924999993,-0.028983662899999985,-0.1823330025,0.07436589500000002
08:34:06,-0.3976807900000001,-0.5283218699999999,0.09614351,-0.15330023999999998,-0.13983582999999997,0.05279868,40.463758829999996,-29.40172217,-2.2176738,-96.34915534999999,-0.08586009590000004,-0.6238161024,0.10488134949999994,-0.024353136600000047,-0.18481364499999997,0.06724092999999998
08:34:06,-0.3924696950000002,-0.5363233349999998,0.095128455,-0.14696142,-0.14292001499999998,0.05420494000000002,40.452330015,-29.375452485,-2.2395979,-96.371522175,-0.08317901095000002,-0.6305716791999999,0.09658098974999996,-0.0197226103,-0.1872942875,0.06011596500000005
08:34:06,-0.3872586000000001,-0.5443247999999998,0.09411340000000001,-0.14062259999999993,-0.14600419999999995,0.05561120000000001,40.4409012,-29.3491828,-2.2615220000000003,-96.393889,-0.08049792600000005,-0.637327256,0.08828062999999997,-0.01509208399999995,-0.18977493,0.05299100000000001
08:34:06,-0.3820475050000002,-0.5523262649999998,0.09309834500000001,-0.13428377999999996,-0.14908838499999996,0.057017460000000006,40.429472385,-29.322913115,-2.2834461000000004,-96.416255825,-0.07781684105000003,-0.6440828327999999,0.07998027024999987,-0.010461557700000013,-0.19225557249999997,0.04586603500000008
08:34:06,-0.3768364100000001,-0.5603277299999998,0.09208329000000001,-0.12794496,-0.15217256999999998,0.05842372,40.41804357,-29.29664343,-2.3053702000000005,-96.43862265,-0.0751357561,-0.6508384096,0.07167991049999989,-0.005831031399999964,-0.194736215,0.038741070000000044
08:34:06,-0.3716253150000002,-0.5683291949999998,0.09106823500000001,-0.12160613999999992,-0.155256755,0.05982998000000002,40.406614755,-29.270373745,-2.3272943,-96.46098947499999,-0.07245467115000004,-0.6575939863999999,0.0633795507499999,-0.0012005051000000266,-0.1972168575,0.031616105000000005
08:34:06,-0.3664142200000001,-0.57633066,0.09005318000000001,-0.11526731999999995,-0.15834093999999996,0.06123624000000001,40.39518594,-29.24410406,-2.3492184000000003,-96.4833563,-0.06977358620000002,-0.6643495631999999,0.055079190999999916,0.003430021200000022,-0.19969749999999997,0.024491140000000078
08:34:06,-0.3612031250000002,-0.584332125,0.089038125,-0.10892849999999998,-0.16142512499999997,0.0626425,40.383757125,-29.217834375,-2.3711425000000004,-96.505723125,-0.06709250125000005,-0.6711051399999999,0.04677883124999993,0.00806054749999996,-0.2021781425,0.01736617500000004
08:34:06,-0.3559920300000001,-0.59233359,0.08802307000000001,-0.10258968000000002,-0.16450931,0.06404876,40.37232831,-29.19156469,-2.3930666,-96.52808995,-0.06441141630000002,-0.6778607167999999,0.038478471499999944,0.012691073800000008,-0.204658785,0.01024121
08:34:06,-0.3507809350000002,-0.600335055,0.087008015,-0.09625085999999994,-0.16759349499999995,0.06545502000000002,40.360899495,-29.165295005,-2.4149907,-96.550456775,-0.061730331350000056,-0.6846162935999999,0.03017811174999996,0.017321600099999945,-0.20713942749999997,0.003116245000000073
08:34:06,-0.34556984000000013,-0.6083365199999999,0.08599296000000001,-0.08991203999999997,-0.17067767999999997,0.06686128000000001,40.349470679999996,-29.139025320000002,-2.4369148000000003,-96.57282359999999,-0.05904924640000003,-0.6913718703999999,0.021877751999999973,0.021952126399999994,-0.20962007,-0.004008719999999966
08:34:06,-0.3403587450000001,-0.6163379849999999,0.08497790500000002,-0.08357322,-0.173761865,0.06826754,40.338041865,-29.112755635,-2.4588389000000004,-96.595190425,-0.05636816145000001,-0.6981274472,0.013577392249999987,0.026582652700000042,-0.2121007125,-0.011133685000000004
08:34:06,-0.33514765000000013,-0.6243394499999999,0.08396285,-0.07723439999999993,-0.17684604999999995,0.06967380000000002,40.32661305,-29.08648595,-2.4807630000000005,-96.61755724999999,-0.05368707650000004,-0.7048830239999999,0.005277032500000001,0.03121317899999998,-0.21458135499999997,-0.018258649999999932
08:34:06,-0.3299365550000001,-0.6323409149999999,0.08294779500000002,-0.07089557999999996,-0.17993023499999997,0.07108006000000001,40.315184235,-29.060216265,-2.5026871,-96.639924075,-0.05100599155000002,-0.7116386008,-0.0030233272499999853,0.03584370530000003,-0.2170619975,-0.02538361499999997
08:34:06,-0.32472546000000013,-0.6403423799999999,0.08193274,-0.06455675999999999,-0.18301441999999998,0.07248632,40.30375542,-29.03394658,-2.5246112000000003,-96.6622909,-0.04832490660000005,-0.7183941775999999,-0.011323686999999971,0.040474231599999966,-0.21954264,-0.03250858000000001
08:34:06,-0.3195143650000001,-0.6483438449999999,0.08091768500000002,-0.058217940000000024,-0.18609860499999994,0.07389258,40.292326605,-29.007676895,-2.5465353000000004,-96.684657725,-0.04564382165000003,-0.7251497544,-0.019624046749999957,0.045104757900000014,-0.22202328249999997,-0.03963354499999994
08:34:06,-0.31430327000000013,-0.6563453099999998,0.07990263,-0.051879119999999945,-0.18918278999999996,0.07529884000000002,40.28089779,-28.98140721,-2.5684594,-96.70702455,-0.04296273670000006,-0.7319053311999999,-0.027924406499999943,0.04973528419999995,-0.224503925,-0.046758509999999975
08:34:06,-0.3090921750000001,-0.6643467749999998,0.07888757500000002,-0.04554029999999998,-0.19226697499999998,0.07670510000000001,40.269468974999995,-28.955137525,-2.5903835,-96.72939137499999,-0.040281651750000036,-0.738660908,-0.03622476624999993,0.0543658105,-0.2269845675,-0.053883475000000014
08:34:06,-0.30388108000000014,-0.6723482399999998,0.07787252,-0.03920148000000001,-0.19535116,0.07811136,40.25804016,-28.92886784,-2.6123076000000003,-96.7517582,-0.03760056680000001,-0.7454164847999999,-0.044525125999999915,0.05899633679999994,-0.22946520999999998,-0.06100843999999994
08:34:06,-0.2986699850000001,-0.680349705,0.07685746500000001,-0.03286265999999993,-0.19843534499999996,0.07951762,40.246611345,-28.902598155,-2.6342317000000004,-96.77412502499999,-0.034919481850000045,-0.7521720615999999,-0.05282548575000012,0.06362686309999999,-0.2319458525,-0.06813340499999998
08:34:06,-0.29345889000000014,-0.68835117,0.07584241,-0.026523839999999965,-0.20151952999999997,0.08092388000000002,40.235182529999996,-28.87632847,-2.6561558000000005,-96.79649185,-0.03223839690000002,-0.7589276383999999,-0.06112584550000011,0.06825738940000003,-0.234426495,-0.07525836999999991
08:34:06,-0.2882477950000001,-0.696352635,0.07482735500000001,-0.020185019999999998,-0.204603715,0.08233014000000001,40.223753715,-28.850058785,-2.6780799,-96.818858675,-0.029557311950000054,-0.7656832151999999,-0.0694262052500001,0.07288791569999997,-0.23690713749999998,-0.08238333499999995
08:34:06,-0.28303670000000014,-0.7043541,0.0738123,-0.01384619999999992,-0.20768789999999995,0.0837364,40.2123249,-28.8237891,-2.7000040000000003,-96.8412255,-0.02687622700000003,-0.7724387919999999,-0.07772656500000008,0.07751844200000002,-0.23938778,-0.08950829999999999
08:34:06,-0.2778256050000001,-0.712355565,0.07279724500000001,-0.007507379999999952,-0.21077208499999997,0.08514266000000002,40.200896085,-28.797519415,-2.7219281000000004,-96.863592325,-0.024195142050000007,-0.7791943687999999,-0.08602692475000007,0.08214896829999996,-0.2418684225,-0.09663326499999991
08:34:06,-0.27261451000000014,-0.72035703,0.07178219,-0.0011685599999999852,-0.21385627,0.08654892000000002,40.18946727,-28.77124973,-2.7438522,-96.88595914999999,-0.02151405710000004,-0.7859499455999999,-0.09432728450000005,0.0867794946,-0.24434906499999998,-0.10375822999999995
08:34:06,-0.2674034150000001,-0.7283584949999999,0.07076713500000001,0.005170259999999982,-0.21694045499999995,0.08795518000000001,40.178038455,-28.744980045,-2.7657763,-96.908325975,-0.018832972150000016,-0.7927055223999999,-0.10262764425000004,0.09141002089999994,-0.2468297075,-0.11088319499999999
08:34:06,-0.26219232000000015,-0.7363599599999999,0.06975208,0.01150908000000006,-0.22002463999999997,0.08936144,40.16660964,-28.71871036,-2.7877004000000003,-96.9306928,-0.016151887200000048,-0.7994610991999999,-0.11092800400000002,0.09604054719999999,-0.24931035000000001,-0.11800816000000003
08:34:06,-0.2569812250000001,-0.7443614249999999,0.06873702500000001,0.017847900000000028,-0.22310882499999998,0.09076770000000002,40.155180825,-28.692440675,-2.8096245000000004,-96.953059625,-0.013470802250000025,-0.8062166759999999,-0.11922836375000001,0.10067107350000004,-0.2517909925,-0.12513312500000007
08:34:06,-0.25177013000000015,-0.7523628899999999,0.06772197000000002,0.024186719999999995,-0.22619300999999994,0.09217396000000001,40.14375201,-28.66617099,-2.8315486000000005,-96.97542645,-0.010789717300000057,-0.8129722528,-0.1275287235,0.10530159979999998,-0.254271635,-0.13225808999999988
08:34:06,-0.2465590350000001,-0.7603643549999999,0.066706915,0.030525540000000073,-0.22927719499999996,0.09358022,40.132323195,-28.639901305,-2.8534727,-96.99779327499999,-0.008108632350000033,-0.8197278295999999,-0.13582908324999998,0.10993212610000003,-0.2567522775,-0.13938305499999992
08:34:06,-0.24134794000000015,-0.7683658199999999,0.06569186000000002,0.03686436000000004,-0.23236137999999998,0.09498648,40.120894379999996,-28.61363162,-2.8753968000000003,-97.0201601,-0.00542754740000001,-0.8264834064,-0.14412944299999997,0.11456265239999996,-0.25923292,-0.14650801999999996
08:34:06,-0.2361368450000001,-0.7763672849999999,0.064676805,0.04320318000000001,-0.23544556499999994,0.09639274000000002,40.109465565,-28.587361935,-2.8973209000000004,-97.04252692499999,-0.0027464624500000423,-0.8332389831999999,-0.15242980274999995,0.11919317870000001,-0.2617135625,-0.153632985
08:34:06,-0.23092575000000015,-0.7843687499999998,0.06366175000000002,0.049542000000000086,-0.23852974999999996,0.09779900000000001,40.09803675,-28.56109225,-2.919245,-97.06489375,-6.537750000001896e-05,-0.83999456,-0.16073016249999994,0.12382370499999995,-0.264194205,-0.16075795000000004
08:34:06,-0.2257146550000001,-0.7923702149999998,0.062646695,0.05588082000000005,-0.24161393499999997,0.09920526,40.086607934999996,-28.534822565,-2.9411691,-97.087260575,0.002615707449999949,-0.8467501368,-0.16903052224999993,0.1284542313,-0.2666748475,-0.16788291499999985
08:34:06,-0.22050356000000015,-0.80037168,0.061631640000000015,0.06221964000000002,-0.24469811999999994,0.10061152000000002,40.07517912,-28.50855288,-2.9630932000000003,-97.1096274,0.005296792399999972,-0.8535057135999998,-0.17733088200000013,0.13308475760000005,-0.26915549,-0.1750078799999999
08:34:06,-0.2152924650000001,-0.808373145,0.060616585,0.06855845999999999,-0.24778230499999995,0.10201778000000002,40.063750305,-28.482283195,-2.9850173000000004,-97.131994225,0.00797787734999994,-0.8602612903999999,-0.18563124175000012,0.13771528389999999,-0.2716361325,-0.18213284499999993
08:34:06,-0.21008137000000016,-0.81637461,0.059601530000000014,0.07489728000000007,-0.25086648999999994,0.10342404000000001,40.05232149,-28.45601351,-3.0069414000000005,-97.15436104999999,0.010658962299999963,-0.8670168671999999,-0.1939316015000001,0.14234581020000003,-0.274116775,-0.18925780999999997
08:34:06,-0.2048702750000001,-0.824376075,0.058586475,0.08123610000000003,-0.253950675,0.1048303,40.040892674999995,-28.429743825,-3.0288655,-97.176727875,0.013340047249999987,-0.873772444,-0.2022319612500001,0.14697633649999997,-0.2765974175,-0.196382775
08:34:06,-0.19965918000000016,-0.83237754,0.05757142000000001,0.08757492,-0.25703486,0.10623656000000002,40.02946386,-28.40347414,-3.0507896000000003,-97.19909469999999,0.016021132199999955,-0.8805280207999998,-0.21053232100000008,0.15160686280000002,-0.27907806,-0.20350774000000005
08:34:06,-0.1944480850000001,-0.840379005,0.056556365,0.09391374000000008,-0.26011904499999994,0.10764282000000001,40.018035045,-28.377204455,-3.0727137000000004,-97.221461525,0.018702217149999978,-0.8872835975999999,-0.21883268075000006,0.15623738909999996,-0.2815587025,-0.21063270499999986
08:34:06,-0.18923699000000016,-0.8483804699999999,0.05554131000000001,0.10025255999999994,-0.26320323,0.10904908,40.006606229999996,-28.350934770000002,-3.0946378,-97.24382835,0.021383302099999946,-0.8940391743999999,-0.22713304050000005,0.1608679154,-0.284039345,-0.2177576699999999
08:34:06,-0.1840258950000001,-0.8563819349999999,0.054526254999999996,0.10659138000000001,-0.26628741499999997,0.11045534,39.995177415,-28.324665085,-3.1165619,-97.266195175,0.02406438704999997,-0.9007947512,-0.23543340025000004,0.16549844169999994,-0.2865199875,-0.22488263499999994
08:34:06,-0.17881480000000016,-0.8643833999999999,0.05351120000000001,0.11293020000000009,-0.26937159999999993,0.11186160000000002,39.9837486,-28.2983954,-3.1384860000000003,-97.288562,0.026745471999999937,-0.9075503279999998,-0.24373376000000002,0.170128968,-0.28900063,-0.23200759999999998
08:34:06,-0.1736037050000001,-0.8723848649999999,0.05249614500000002,0.11926901999999995,-0.272455785,0.11326786000000001,39.972319784999996,-28.272125715,-3.1604101000000004,-97.31092882499999,0.02942655694999996,-0.9143059047999998,-0.25203411975,0.17475949430000004,-0.2914812725,-0.23913256500000002
08:34:06,-0.16839261000000016,-0.8803863299999999,0.05148109000000001,0.12560784000000003,-0.27553996999999997,0.11467412,39.96089097,-28.24585603,-3.1823342000000006,-97.33329565,0.032107641899999984,-0.9210614815999999,-0.2603344795,0.17939002059999998,-0.293961915,-0.24625753000000006
08:34:06,-0.1631815150000001,-0.8883877949999999,0.05046603500000002,0.1319466600000001,-0.27862415499999993,0.11608038000000002,39.949462155,-28.219586345,-3.2042583000000002,-97.355662475,0.03478872684999995,-0.9278170584,-0.26863483925,0.18402054690000003,-0.2964425575,-0.2533824949999999
08:34:06,-0.15797042000000017,-0.8963892599999999,0.049450980000000005,0.13828547999999996,-0.2817083399999999,0.11748664000000002,39.93803334,-28.19331666,-3.2261824000000003,-97.3780293,0.037469811799999975,-0.9345726352,-0.27693519899999997,0.18865107319999996,-0.2989232,-0.2605074599999999
08:34:06,-0.1527593250000001,-0.9043907249999998,0.04843592500000002,0.14462430000000004,-0.28479252499999996,0.11889290000000001,39.926604525,-28.167046974999998,-3.2481065000000005,-97.400396125,0.04015089674999994,-0.9413282119999998,-0.28523555874999995,0.1932815995,-0.3014038425,-0.26763242499999995
08:34:06,-0.14754823000000017,-0.9123921899999998,0.047420870000000004,0.15096312000000012,-0.2878767099999999,0.12029916,39.91517571,-28.14077729,-3.2700306,-97.42276294999999,0.042831981699999966,-0.9480837887999999,-0.29353591849999994,0.19791212579999995,-0.303884485,-0.27475739
08:34:06,-0.14233713500000011,-0.9203936549999998,0.04640581500000002,0.15730193999999997,-0.2909608949999999,0.12170542000000002,39.903746895,-28.114507605,-3.2919547000000002,-97.445129775,0.04551306664999999,-0.9548393655999999,-0.3018362782499999,0.2025426521,-0.3063651275,-0.28188235500000003
08:34:06,-0.13712604000000017,-0.9283951199999998,0.04539076,0.16364076000000005,-0.29404507999999996,0.12311168000000001,39.892318079999995,-28.08823792,-3.3138788000000003,-97.46749659999999,0.04819415159999996,-0.9615949424,-0.3101366379999999,0.20717317839999994,-0.30884577,-0.28900731999999985
08:34:06,-0.13191494500000012,-0.936396585,0.044375705000000015,0.16997958000000013,-0.2971292649999999,0.12451794000000001,39.880889265,-28.061968235000002,-3.3358029000000005,-97.489863425,0.05087523654999998,-0.9683505191999998,-0.3184369977500001,0.21180370469999998,-0.3113264125,-0.2961322849999999
08:34:06,-0.12670385000000017,-0.94439805,0.04336065,0.1763184,-0.3002134499999999,0.1259242,39.86946045,-28.03569855,-3.3577270000000006,-97.51223025,0.05355632149999995,-0.9751060959999999,-0.3267373575000001,0.21643423100000003,-0.313807055,-0.3032572499999999
08:34:06,-0.12149275500000012,-0.952399515,0.042345595000000014,0.18265722000000006,-0.30329763499999995,0.12733046000000003,39.858031634999996,-28.009428865,-3.3796511000000002,-97.534597075,0.05623740644999997,-0.9818616727999999,-0.3350377172500001,0.22106475729999997,-0.3162876975,-0.31038221499999996
08:34:06,-0.11628166000000018,-0.96040098,0.04133054,0.18899604000000014,-0.3063818199999999,0.12873672000000003,39.84660282,-27.98315918,-3.4015752000000004,-97.5569639,0.05891849139999994,-0.9886172496,-0.3433380770000001,0.22569528360000002,-0.31876834,-0.31750718
08:34:06,-0.11107056500000012,-0.968402445,0.04031548500000001,0.19533486,-0.3094660049999999,0.13014298000000002,39.835174005,-27.956889495,-3.4234993000000005,-97.57933072499999,0.06159957634999996,-0.9953728263999998,-0.35163843675000006,0.23032580989999996,-0.3212489825,-0.32463214500000004
08:34:06,-0.10585947000000018,-0.9764039099999999,0.03930043,0.20167368000000008,-0.31255018999999995,0.13154924,39.82374519,-27.93061981,-3.4454234,-97.60169755,0.06428066129999999,-1.0021284032,-0.35993879650000005,0.2349563362,-0.323729625,-0.33175710999999986
08:34:06,-0.10064837500000012,-0.9844053749999999,0.03828537500000001,0.20801249999999993,-0.3156343749999999,0.1329555,39.812316374999995,-27.904350125,-3.4673475000000002,-97.62406437499999,0.06696174624999995,-1.00888398,-0.36823915625000003,0.23958686249999994,-0.3262102675,-0.3388820749999999
08:34:06,-0.09543728000000018,-0.9924068399999999,0.03727032000000002,0.21435132,-0.3187185599999999,0.13436176,39.80088756,-27.878080439999998,-3.4892716000000004,-97.6464312,0.06964283119999998,-1.0156395568,-0.376539516,0.2442173888,-0.32869091,-0.34600703999999993
08:34:06,-0.09022618500000013,-1.0004083049999999,0.03625526500000001,0.2206901400000001,-0.32180274499999995,0.13576802,39.789458745,-27.851810755,-3.5111957000000005,-97.668798025,0.07232391614999995,-1.0223951336000001,-0.38483987575,0.24884791510000004,-0.3311715525,-0.35313200499999997
08:34:06,-0.08501509000000018,-1.0084097699999999,0.03524021000000002,0.22702895999999995,-0.3248869299999999,0.13717427999999998,39.778029929999995,-27.82554107,-3.5331198000000006,-97.69116484999999,0.07500500109999997,-1.0291507104,-0.3931402355,0.2534784414,-0.333652195,-0.36025697
08:34:06,-0.07980399500000013,-1.0164112349999999,0.03422515500000001,0.23336778000000002,-0.327971115,0.13858053999999997,39.766601115,-27.799271385,-3.5550439000000003,-97.713531675,0.07768608604999994,-1.0359062872,-0.40144059525,0.2581089677,-0.3361328375,-0.36738193500000005
08:34:06,-0.07459290000000018,-1.0244126999999998,0.03321010000000002,0.2397066000000001,-0.33105529999999994,0.13998680000000002,39.7551723,-27.773001700000002,-3.5769680000000004,-97.73589849999999,0.08036717099999996,-1.042661864,-0.40974095499999996,0.26273949399999996,-0.33861348,-0.37450689999999986
08:34:06,-0.06938180500000013,-1.0324141649999998,0.032195045000000005,0.24604541999999996,-0.3341394849999999,0.14139306000000001,39.743743484999996,-27.746732015,-3.5988921000000005,-97.758265325,0.08304825594999998,-1.0494174408,-0.41804131474999995,0.2673700203,-0.3410941225,-0.3816318649999999
08:34:06,-0.06417071000000019,-1.0404156299999998,0.03117999000000002,0.25238424000000004,-0.33722367,0.14279932,39.73231467,-27.72046233,-3.6208162,-97.78063215,0.08572934089999995,-1.0561730176,-0.42634167449999993,0.27200054659999995,-0.343574765,-0.38875682999999994
08:34:06,-0.05895961500000013,-1.0484170949999998,0.030164935000000004,0.2587230600000001,-0.34030785499999994,0.14420558,39.720885855,-27.694192645,-3.6427403000000007,-97.802998975,0.08841042584999997,-1.0629285944,-0.4346420342499999,0.2766310729,-0.3460554075,-0.395881795
08:34:06,-0.05374852000000019,-1.05641856,0.029149880000000017,0.26506187999999997,-0.3433920399999999,0.14561184,39.70945704,-27.66792296,-3.6646644000000004,-97.8253658,0.09109151079999994,-1.0696841712,-0.44294239400000013,0.28126159920000005,-0.34853605,-0.40300676
08:34:06,-0.048537425000000134,-1.064420025,0.028134825000000002,0.27140070000000005,-0.34647622499999997,0.14701809999999998,39.698028225,-27.641653275,-3.6865885,-97.84773262499999,0.09377259574999997,-1.076439748,-0.4512427537500001,0.2858921255,-0.3510166925,-0.41013172499999984
08:34:06,-0.04332633000000019,-1.07242149,0.027119770000000015,0.27773952000000013,-0.34956040999999993,0.14842435999999998,39.68659941,-27.61538359,-3.7085126000000006,-97.87009945,0.09645368069999999,-1.0831953248,-0.4595431135000001,0.29052265180000003,-0.353497335,-0.4172566899999999
08:34:06,-0.038115235000000136,-1.080422955,0.026104715,0.28407834,-0.3526445949999999,0.14983062000000003,39.675170595,-27.589113904999998,-3.7304367000000003,-97.892466275,0.09913476564999996,-1.0899509016,-0.4678434732500001,0.29515317809999997,-0.3559779775,-0.4243816549999999
08:34:06,-0.03290414000000019,-1.08842442,0.025089660000000014,0.29041716000000006,-0.35572877999999997,0.15123688000000002,39.663741779999995,-27.56284422,-3.7523608,-97.9148331,0.10181585059999992,-1.0967064784,-0.47614383300000007,0.2997837044,-0.35845862,-0.43150661999999995
08:34:06,-0.027693045000000138,-1.096425885,0.024074605,0.29675598000000014,-0.35881296499999993,0.15264314,39.652312965,-27.536574535,-3.7742849000000005,-97.937199925,0.10449693555,-1.1034620552,-0.48444419275000006,0.30441423069999995,-0.3609392625,-0.438631585
08:34:06,-0.022481950000000195,-1.10442735,0.023059550000000012,0.3030948,-0.3618971499999999,0.1540494,39.64088415,-27.51030485,-3.796209,-97.95956675,0.10717802049999997,-1.110217632,-0.49274455250000004,0.309044757,-0.363419905,-0.44575655000000003
08:34:06,-0.01727085500000014,-1.112428815,0.022044494999999997,0.3094336200000001,-0.36498133499999996,0.15545566,39.629455334999996,-27.484035165,-3.8181331000000007,-97.981933575,0.10985910544999994,-1.1169732088,-0.50104491225,0.31367528329999994,-0.3659005475,-0.45288151499999985
08:34:06,-0.012059760000000086,-1.12043028,0.02102944000000001,0.31577243999999993,-0.3680655199999999,0.15686192,39.61802652,-27.45776548,-3.8400572000000004,-98.00430039999999,0.11254019040000002,-1.1237287856,-0.509345272,0.3183058096,-0.36838119,-0.4600064799999999
08:34:06,-0.0068486650000001426,-1.1284317449999999,0.020014385000000023,0.32211126,-0.3711497049999999,0.15826817999999998,39.606597705,-27.431495795,-3.8619813,-98.026667225,0.11522127534999999,-1.1304843624,-0.51764563175,0.32293633590000004,-0.3708618325,-0.4671314449999999
08:34:06,-0.0016375700000001991,-1.1364332099999999,0.01899933000000001,0.3284500800000001,-0.37423388999999996,0.15967444000000003,39.59516889,-27.40522611,-3.8839054000000006,-98.04903405,0.11790236029999995,-1.1372399392,-0.5259459915,0.3275668622,-0.373342475,-0.47425640999999996
08:34:06,0.0035735249999999663,-1.1444346749999998,0.017984275000000022,0.33478889999999994,-0.3773180749999999,0.16108070000000002,39.583740074999994,-27.378956425,-3.9058295000000003,-98.071400875,0.12058344524999992,-1.143995516,-0.53424635125,0.3321973885,-0.37582311749999997,-0.481381375
08:34:06,0.00878461999999991,-1.1524361399999998,0.016969220000000007,0.34112772,-0.3804022599999999,0.16248696,39.57231126,-27.35268674,-3.927753600000001,-98.0937677,0.1232645302,-1.1507510928,-0.542546711,0.33682791479999996,-0.37830376,-0.48850634000000004
08:34:06,0.013995714999999853,-1.1604376049999998,0.01595416500000002,0.3474665400000001,-0.38348644499999995,0.16389322,39.560882445,-27.326417055,-3.9496777000000005,-98.11613452499999,0.12594561514999997,-1.1575066696,-0.55084707075,0.3414584411,-0.3807844025,-0.49563130499999986
08:34:06,0.019206809999999797,-1.1684390699999998,0.014939110000000005,0.35380535999999996,-0.3865706299999999,0.16529948,39.549453629999995,-27.30014737,-3.9716018,-98.13850135,0.12862670009999994,-1.1642622464,-0.5591474304999999,0.34608896739999995,-0.38326504499999997,-0.5027562699999999
08:34:06,0.024417904999999962,-1.1764405349999998,0.013924055000000019,0.36014418000000004,-0.3896548149999999,0.16670574,39.538024815,-27.273877685,-3.9935259000000007,-98.16086817499999,0.13130778505000001,-1.1710178232,-0.5674477902499999,0.3507194937,-0.3857456875,-0.5098812349999999
08:34:07,0.029629,-1.184442,0.012909,0.366483,-0.392739,0.168112,39.526596,-27.247608,-4.01545,-98.183235,0.13398887,-1.1777734,-0.57574815,0.35535002,-0.38822633,-0.5170062
08:34:07,0.029326579999999998,-1.1754716649999999,0.01374092,0.36398476,-0.3919027,0.167174495,39.544574704999995,-27.24958394,-4.051984155,-98.09815802499999,0.13360816851500001,-1.169026224,-0.571517796,0.35340240055,-0.38742452005,-0.5142397605
08:34:07,0.02902416,-1.16650133,0.01457284,0.36148652,-0.3910664,0.16623699,39.56255341,-27.25155988,-4.08851831,-98.01308105,0.13322746703000002,-1.160279048,-0.567287442,0.3514547811,-0.3866227101,-0.511473321
08:34:07,0.02872174,-1.157530995,0.01540476,0.35898828,-0.3902301,0.16529948500000002,39.580532115,-27.25353582,-4.1250524650000004,-97.92800407499999,0.13284676554500002,-1.151531872,-0.563057088,0.34950716165,-0.38582090015000003,-0.5087068815
08:34:07,0.028419319999999998,-1.14856066,0.01623668,0.35649004,-0.3893938,0.16436198000000002,39.59851082,-27.25551176,-4.1615866200000005,-97.8429271,0.13246606406,-1.1427846959999999,-0.558826734,0.3475595422,-0.3850190902,-0.505940442
08:34:07,0.0281169,-1.139590325,0.0170686,0.3539918,-0.3885575,0.163424475,39.616489525,-27.2574877,-4.1981207750000005,-97.75785012499999,0.132085362575,-1.13403752,-0.55459638,0.34561192274999997,-0.38421728025,-0.5031740025
08:34:07,0.02781448,-1.13061999,0.01790052,0.35149356,-0.3877212,0.16248697,39.634468229999996,-27.25946364,-4.2346549300000005,-97.67277315,0.13170466109,-1.125290344,-0.5503660260000001,0.3436643033,-0.3834154703,-0.500407563
08:34:07,0.027512059999999998,-1.121649655,0.01873244,0.34899532,-0.38688490000000003,0.161549465,39.652446935,-27.26143958,-4.2711890850000005,-97.58769617499999,0.131323959605,-1.116543168,-0.546135672,0.34171668385,-0.38261366035,-0.49764112349999995
08:34:07,0.02720964,-1.11267932,0.01956436,0.34649708,-0.3860486,0.16061196,39.67042564,-27.26341552,-4.3077232400000005,-97.5026192,0.13094325812000002,-1.107795992,-0.541905318,0.3397690644,-0.3818118504,-0.49487468399999995
08:34:07,0.02690722,-1.103708985,0.02039628,0.34399884000000003,-0.3852123,0.15967445500000002,39.688404344999995,-27.26539146,-4.3442573950000005,-97.41754222499999,0.13056255663500002,-1.099048816,-0.537674964,0.33782144495,-0.38101004045000003,-0.49210824449999996
08:34:07,0.026604799999999998,-1.09473865,0.021228200000000003,0.3415006,-0.384376,0.15873695000000002,39.70638305,-27.2673674,-4.3807915500000005,-97.33246525,0.13018185515,-1.0903016399999998,-0.53344461,0.3358738255,-0.3802082305,-0.48934180499999996
08:34:07,0.02630238,-1.085768315,0.022060120000000003,0.33900236,-0.3835397,0.157799445,39.724361755,-27.26934334,-4.4173257050000005,-97.24738827499999,0.129801153665,-1.0815544639999999,-0.529214256,0.33392620605,-0.37940642055,-0.48657536549999997
08:34:07,0.02599996,-1.07679798,0.022892040000000002,0.33650412,-0.3827034,0.15686194,39.74234046,-27.27131928,-4.453859860000001,-97.1623113,0.12942045218,-1.072807288,-0.524983902,0.3319785866,-0.3786046106,-0.483808926
08:34:07,0.025697539999999998,-1.067827645,0.023723960000000002,0.33400588,-0.3818671,0.155924435,39.760319165,-27.27329522,-4.490394015000001,-97.07723432499999,0.129039750695,-1.064060112,-0.5207535480000001,0.33003096714999997,-0.37780280065,-0.4810424865
08:34:07,0.02539512,-1.05885731,0.024555880000000002,0.33150764,-0.3810308,0.15498693000000002,39.778297869999996,-27.27527116,-4.526928170000001,-96.99215735,0.12865904921000001,-1.055312936,-0.516523194,0.32808334769999997,-0.3770009907,-0.478276047
08:34:07,0.0250927,-1.049886975,0.025387800000000002,0.3290094,-0.3801945,0.15404942500000002,39.796276575,-27.2772471,-4.563462325000001,-96.90708037499999,0.12827834772500002,-1.04656576,-0.51229284,0.32613572825,-0.37619918075000003,-0.4755096075
08:34:07,0.024790279999999998,-1.04091664,0.026219720000000002,0.32651116,-0.3793582,0.15311192,39.81425528,-27.279223039999998,-4.599996480000001,-96.8220034,0.12789764624,-1.037818584,-0.508062486,0.3241881088,-0.3753973708,-0.472743168
08:34:07,0.02448786,-1.031946305,0.027051640000000002,0.32401292,-0.3785219,0.152174415,39.832233984999995,-27.28119898,-4.636530635000001,-96.736926425,0.127516944755,-1.029071408,-0.503832132,0.32224048935,-0.37459556085,-0.4699767285
08:34:07,0.02418544,-1.02297597,0.02788356,0.32151468,-0.3776856,0.15123691,39.85021269,-27.28317492,-4.673064790000001,-96.65184945,0.12713624327,-1.0203242319999999,-0.499601778,0.3202928699,-0.3737937509,-0.467210289
08:34:07,0.023883019999999998,-1.014005635,0.02871548,0.31901644,-0.3768493,0.150299405,39.868191395,-27.285150859999998,-4.709598945000001,-96.566772475,0.126755541785,-1.011577056,-0.495371424,0.31834525045,-0.37299194095,-0.46444384949999995
08:34:07,0.0235806,-1.0050352999999999,0.0295474,0.31651819999999997,-0.376013,0.14936190000000002,39.8861701,-27.2871268,-4.746133100000001,-96.4816955,0.1263748403,-1.00282988,-0.49114107,0.316397631,-0.372190131,-0.46167740999999995
08:34:07,0.02327818,-0.996064965,0.03037932,0.31401996,-0.37517670000000003,0.14842439500000001,39.904148805,-27.28910274,-4.782667255000001,-96.396618525,0.12599413881500002,-0.994082704,-0.486910716,0.31445001154999996,-0.37138832105,-0.45891097049999996
08:34:07,0.022975759999999998,-0.98709463,0.03121124,0.31152172,-0.3743404,0.14748689,39.922127509999996,-27.29107868,-4.819201410000001,-96.31154155,0.12561343733000002,-0.985335528,-0.482680362,0.31250239209999997,-0.3705865111,-0.45614453099999996
08:34:07,0.02267334,-0.978124295,0.03204316,0.30902348,-0.3735041,0.146549385,39.940106215,-27.29305462,-4.855735565000001,-96.226464575,0.125232735845,-0.9765883519999999,-0.47845000800000004,0.31055477265,-0.36978470115,-0.45337809149999997
08:34:07,0.02237092,-0.96915396,0.03287508,0.30652524000000003,-0.3726678,0.14561188,39.95808492,-27.29503056,-4.892269720000001,-96.1413876,0.12485203436,-0.967841176,-0.474219654,0.3086071532,-0.3689828912,-0.450611652
08:34:07,0.022068499999999998,-0.960183625,0.033707,0.304027,-0.3718315,0.14467437500000002,39.976063624999995,-27.2970065,-4.928803875000001,-96.056310625,0.12447133287500001,-0.9590939999999999,-0.4699893,0.30665953375,-0.36818108125,-0.4478452125
08:34:07,0.02176608,-0.95121329,0.03453892,0.30152876,-0.3709952,0.14373687000000002,39.99404233,-27.29898244,-4.965338030000001,-95.97123365,0.12409063139000001,-0.9503468239999999,-0.465758946,0.3047119143,-0.36737927130000003,-0.445078773
08:34:07,0.021463660000000002,-0.942242955,0.03537084,0.29903051999999997,-0.3701589,0.142799365,40.012021035,-27.30095838,-5.001872185000001,-95.886156675,0.12370992990500002,-0.941599648,-0.461528592,0.30276429485,-0.36657746135,-0.4423123335
08:34:07,0.021161239999999998,-0.9332726199999999,0.03620276,0.29653228,-0.3693226,0.14186186,40.02999974,-27.30293432,-5.03840634,-95.8010797,0.12332922842,-0.932852472,-0.457298238,0.3008166754,-0.3657756514,-0.439545894
08:34:07,0.02085882,-0.924302285,0.03703468,0.29403404,-0.3684863,0.140924355,40.047978445,-27.30491026,-5.074940495,-95.716002725,0.12294852693500001,-0.924105296,-0.453067884,0.29886905595,-0.36497384145,-0.4367794545
08:34:07,0.020556400000000002,-0.9153319499999999,0.0378666,0.2915358,-0.36765000000000003,0.13998685,40.065957149999996,-27.3068862,-5.11147465,-95.63092575,0.12256782545,-0.9153581199999999,-0.44883753000000004,0.29692143649999997,-0.3641720315,-0.434013015
08:34:07,0.020253979999999998,-0.906361615,0.03869852,0.28903756,-0.3668137,0.13904934500000002,40.083935855,-27.30886214,-5.148008805,-95.545848775,0.122187123965,-0.906610944,-0.444607176,0.29497381705,-0.36337022155,-0.4312465755
08:34:07,0.01995156,-0.8973912799999999,0.03953044,0.28653932,-0.3659774,0.13811184,40.10191456,-27.31083808,-5.18454296,-95.4607718,0.12180642248000001,-0.8978637679999999,-0.440376822,0.2930261976,-0.36256841160000003,-0.428480136
08:34:07,0.019649140000000002,-0.888420945,0.04036236,0.28404108,-0.3651411,0.137174335,40.119893265,-27.31281402,-5.221077115,-95.375694825,0.12142572099500001,-0.8891165919999999,-0.436146468,0.29107857815,-0.36176660165,-0.4257136965
08:34:07,0.019346719999999998,-0.8794506099999999,0.04119428,0.28154284,-0.3643048,0.13623683,40.13787197,-27.31478996,-5.25761127,-95.29061784999999,0.12104501951,-0.880369416,-0.43191611399999996,0.2891309587,-0.3609647917,-0.42294725699999997
08:34:07,0.0190443,-0.870480275,0.0420262,0.2790446,-0.3634685,0.13529932500000003,40.155850674999996,-27.3167659,-5.294145425,-95.205540875,0.12066431802500001,-0.87162224,-0.42768576,0.28718333925,-0.36016298175,-0.42018081749999997
08:34:07,0.018741880000000002,-0.8615099399999999,0.04285812,0.27654636,-0.3626322,0.13436182000000002,40.17382938,-27.31874184,-5.33067958,-95.12046389999999,0.12028361654000001,-0.862875064,-0.423455406,0.2852357198,-0.3593611718,-0.417414378
08:34:07,0.018439459999999998,-0.852539605,0.04369004,0.27404812,-0.3617959,0.13342431500000002,40.191808085,-27.32071778,-5.367213735,-95.035386925,0.119902915055,-0.854127888,-0.419225052,0.28328810034999996,-0.35855936185000004,-0.4146479385
08:34:07,0.01813704,-0.8435692699999999,0.04452196,0.27154988,-0.3609596,0.13248681,40.209786789999995,-27.32269372,-5.40374789,-94.95030994999999,0.11952221357000001,-0.8453807119999999,-0.414994698,0.28134048089999997,-0.3577575519,-0.411881499
08:34:07,0.017834620000000002,-0.8345989349999999,0.04535388,0.26905164,-0.36012330000000004,0.131549305,40.227765495,-27.32466966,-5.440282045,-94.865232975,0.11914151208500001,-0.8366335359999999,-0.410764344,0.27939286145,-0.35695574195,-0.4091150595
08:34:07,0.0175322,-0.8256285999999999,0.0461858,0.2665534,-0.359287,0.1306118,40.2457442,-27.3266456,-5.4768162,-94.78015599999999,0.1187608106,-0.8278863599999999,-0.40653399,0.277445242,-0.356153932,-0.40634862
08:34:07,0.01722978,-0.8166582649999999,0.04701772,0.26405516,-0.3584507,0.129674295,40.263722905,-27.32862154,-5.513350355,-94.695079025,0.118380109115,-0.819139184,-0.40230363599999996,0.27549762255,-0.35535212205,-0.4035821805
08:34:07,0.016927360000000002,-0.8076879299999999,0.04784964,0.26155691999999997,-0.3576144,0.12873679000000002,40.28170161,-27.33059748,-5.54988451,-94.61000204999999,0.11799940763000001,-0.810392008,-0.39807328200000003,0.2735500031,-0.3545503121,-0.400815741
08:34:07,0.01662494,-0.798717595,0.04868156,0.25905868,-0.3567781,0.127799285,40.299680314999996,-27.33257342,-5.586418665,-94.524925075,0.117618706145,-0.8016448319999999,-0.393842928,0.27160238365,-0.35374850215,-0.3980493015
08:34:07,0.01632252,-0.78974726,0.04951348,0.25656044,-0.3559418,0.12686178,40.31765902,-27.33454936,-5.62295282,-94.43984809999999,0.11723800466,-0.792897656,-0.389612574,0.2696547642,-0.3529466922,-0.39528286199999996
08:34:07,0.016020100000000002,-0.780776925,0.0503454,0.2540622,-0.3551055,0.125924275,40.335637725,-27.336525299999998,-5.659486975,-94.354771125,0.11685730317500001,-0.7841504799999999,-0.38538222,0.26770714475,-0.35214488225,-0.39251642249999996
08:34:07,0.01571768,-0.77180659,0.05117732,0.25156396000000003,-0.3542692,0.12498677000000001,40.353616429999995,-27.33850124,-5.69602113,-94.26969414999999,0.11647660169000001,-0.7754033039999999,-0.381151866,0.2657595253,-0.3513430723,-0.38974998299999997
08:34:07,0.01541526,-0.762836255,0.05200924,0.24906572,-0.3534329,0.12404926500000002,40.371595135,-27.34047718,-5.732555285,-94.184617175,0.116095900205,-0.7666561279999999,-0.376921512,0.26381190585,-0.35054126235,-0.38698354349999997
08:34:07,0.01511284,-0.75386592,0.05284116,0.24656748,-0.3525966,0.12311176000000001,40.38957384,-27.34245312,-5.76908944,-94.09954019999999,0.11571519872000001,-0.757908952,-0.37269115799999997,0.2618642864,-0.34973945240000004,-0.384217104
08:34:07,0.014810420000000001,-0.7448955849999999,0.05367308,0.24406924,-0.3517603,0.12217425500000001,40.407552545,-27.34442906,-5.805623595,-94.014463225,0.115334497235,-0.749161776,-0.36846080400000003,0.25991666695,-0.34893764245000003,-0.3814506645
08:34:07,0.014508,-0.73592525,0.054505,0.24157099999999998,-0.350924,0.12123675,40.42553125,-27.346405,-5.84215775,-93.92938625,0.11495379575,-0.7404145999999999,-0.36423045,0.2579690475,-0.3481358325,-0.378684225
08:34:07,0.01420558,-0.7269549149999999,0.05533692,0.23907276,-0.3500877,0.120299245,40.443509954999996,-27.34838094,-5.878691905,-93.844309275,0.11457309426500001,-0.731667424,-0.360000096,0.25602142805,-0.34733402255,-0.3759177855
08:34:07,0.013903160000000001,-0.71798458,0.05616884,0.23657452,-0.3492514,0.11936174000000001,40.46148866,-27.35035688,-5.91522606,-93.7592323,0.11419239278000001,-0.7229202479999999,-0.355769742,0.2540738086,-0.3465322126,-0.373151346
08:34:07,0.01360074,-0.7090142449999999,0.05700076,0.23407628,-0.3484151,0.11842423500000002,40.479467365,-27.35233282,-5.951760215,-93.674155325,0.113811691295,-0.7141730719999999,-0.35153938799999995,0.25212618914999996,-0.34573040265,-0.3703849065
08:34:07,0.013298320000000002,-0.70004391,0.05783268,0.23157803999999999,-0.3475788,0.11748673000000001,40.49744607,-27.35430876,-5.98829437,-93.58907835,0.11343098981000001,-0.7054258959999999,-0.347309034,0.25017856969999996,-0.3449285927,-0.367618467
08:34:07,0.012995900000000001,-0.6910735749999999,0.0586646,0.2290798,-0.3467425,0.116549225,40.515424775,-27.3562847,-6.024828525,-93.504001375,0.113050288325,-0.69667872,-0.34307867999999997,0.24823095024999997,-0.34412678275,-0.3648520275
08:34:07,0.01269348,-0.6821032399999999,0.05949652,0.22658156,-0.3459062,0.11561172,40.53340348,-27.35826064,-6.06136268,-93.4189244,0.11266958684,-0.687931544,-0.338848326,0.24628333079999998,-0.3433249728,-0.362085588
08:34:07,0.012391060000000002,-0.6731329049999999,0.06032844,0.22408332,-0.3450699,0.11467421500000001,40.551382185,-27.36023658,-6.097896835,-93.333847425,0.112288885355,-0.6791843679999999,-0.334617972,0.24433571134999998,-0.34252316285,-0.3593191485
08:34:07,0.012088640000000001,-0.6641625699999999,0.06116036,0.22158508,-0.34423360000000003,0.11373671000000002,40.56936089,-27.36221252,-6.13443099,-93.24877045,0.11190818387000001,-0.670437192,-0.330387618,0.2423880919,-0.3417213529,-0.356552709
08:34:07,0.01178622,-0.6551922349999999,0.06199228,0.21908684,-0.3433973,0.11279920500000001,40.587339594999996,-27.36418846,-6.170965145,-93.163693475,0.111527482385,-0.6616900159999999,-0.326157264,0.24044047245,-0.34091954295,-0.35378626950000003
08:34:07,0.011483800000000002,-0.6462218999999999,0.0628242,0.2165886,-0.342561,0.11186170000000001,40.6053183,-27.3661644,-6.2074993,-93.0786165,0.1111467809,-0.6529428399999999,-0.32192691,0.238492853,-0.34011773300000003,-0.35101983000000003
08:34:07,0.011181380000000001,-0.6372515649999999,0.06365612,0.21409036,-0.3417247,0.110924195,40.623297005,-27.36814034,-6.244033455,-92.993539525,0.11076607941500001,-0.644195664,-0.31769655599999996,0.23654523354999998,-0.33931592305,-0.3482533905
08:34:07,0.01087896,-0.6282812299999999,0.06448804,0.21159212,-0.3408884,0.10998669000000001,40.64127571,-27.37011628,-6.28056761,-92.90846255,0.11038537793,-0.635448488,-0.31346620199999997,0.2345976141,-0.3385141131,-0.345486951
08:34:07,0.010576540000000002,-0.6193108949999999,0.06531996,0.20909388,-0.3400521,0.109049185,40.659254415,-27.37209222,-6.317101765,-92.823385575,0.110004676445,-0.6267013119999999,-0.309235848,0.23264999464999997,-0.33771230315,-0.3427205115
08:34:07,0.010274120000000001,-0.6103405599999999,0.06615188,0.20659564,-0.3392158,0.10811168000000002,40.67723312,-27.37406816,-6.35363592,-92.7383086,0.10962397496000001,-0.6179541359999999,-0.305005494,0.23070237519999998,-0.3369104932,-0.339954072
08:34:07,0.0099717,-0.6013702249999999,0.0669838,0.20409739999999998,-0.3383795,0.10717417500000001,40.695211825,-27.3760441,-6.390170075,-92.653231625,0.10924327347500001,-0.60920696,-0.30077514,0.22875475574999998,-0.33610868325,-0.3371876325
08:34:07,0.009669280000000002,-0.5923998899999999,0.06781572,0.20159916,-0.3375432,0.10623667,40.71319053,-27.37802004,-6.42670423,-92.56815465,0.10886257199,-0.6004597839999999,-0.296544786,0.2268071363,-0.33530687330000003,-0.334421193
08:34:07,0.009366860000000001,-0.5834295549999999,0.06864764,0.19910092,-0.33670690000000003,0.10529916500000001,40.731169234999996,-27.37999598,-6.463238385,-92.483077675,0.10848187050500001,-0.5917126079999999,-0.292314432,0.22485951685,-0.33450506335,-0.3316547535
08:34:07,0.00906444,-0.5744592199999999,0.06947956,0.19660268,-0.3358706,0.10436166000000001,40.74914794,-27.38197192,-6.49977254,-92.3980007,0.10810116902,-0.582965432,-0.28808407799999997,0.2229118974,-0.3337032534,-0.32888831399999996
08:34:07,0.008762020000000002,-0.5654888849999999,0.07031148,0.19410444,-0.3350343,0.103424155,40.767126645,-27.38394786,-6.536306695,-92.31292372499999,0.107720467535,-0.574218256,-0.283853724,0.22096427794999998,-0.33290144345,-0.32612187449999996
08:34:07,0.008459600000000001,-0.55651855,0.0711434,0.1916062,-0.334198,0.10248665000000001,40.78510535,-27.3859238,-6.57284085,-92.22784675,0.10733976605000001,-0.5654710799999999,-0.27962337,0.2190166585,-0.3320996335,-0.32335543499999997
08:34:07,0.00815718,-0.547548215,0.07197532,0.18910796,-0.3333617,0.10154914500000001,40.803084055,-27.38789974,-6.609375005,-92.14276977499999,0.10695906456500001,-0.5567239039999999,-0.275393016,0.21706903905,-0.33129782355000004,-0.3205889955
08:34:07,0.007854760000000002,-0.53857788,0.07280724,0.18660972,-0.3325254,0.10061164,40.82106276,-27.38987568,-6.64590916,-92.0576928,0.10657836308,-0.547976728,-0.271162662,0.2151214196,-0.3304960136,-0.317822556
08:34:07,0.007552340000000001,-0.529607545,0.07363916,0.18411148,-0.3316891,0.09967413500000001,40.839041465,-27.39185162,-6.682443315,-91.97261582499999,0.106197661595,-0.5392295519999999,-0.266932308,0.21317380014999998,-0.32969420365,-0.3150561165
08:34:07,0.00724992,-0.52063721,0.07447108,0.18161324,-0.3308528,0.09873663,40.85702017,-27.39382756,-6.7189774700000005,-91.88753885,0.10581696011,-0.5304823759999999,-0.26270195399999996,0.2112261807,-0.3288923937,-0.312289677
08:34:07,0.006947500000000002,-0.5116668749999999,0.075303,0.179115,-0.3300165,0.09779912500000001,40.874998875,-27.3958035,-6.7555116250000005,-91.80246187499999,0.105436258625,-0.5217352,-0.25847159999999997,0.20927856125,-0.32809058375,-0.3095232375
08:34:07,0.006645080000000001,-0.5026965399999999,0.07613492000000001,0.17661675999999998,-0.32918020000000003,0.09686162000000001,40.89297758,-27.39777944,-6.7920457800000005,-91.7173849,0.10505555714,-0.5129880239999999,-0.254241246,0.2073309418,-0.3272887738,-0.306756798
08:34:07,0.00634266,-0.49372620499999986,0.07696684000000001,0.17411852,-0.3283439,0.095924115,40.910956285,-27.39975538,-6.8285799350000005,-91.63230792499999,0.10467485565500001,-0.5042408479999999,-0.250010892,0.20538332234999998,-0.32648696385,-0.3039903585
08:34:07,0.006040240000000002,-0.48475586999999987,0.07779876000000001,0.17162028,-0.3275076,0.09498661000000001,40.92893499,-27.40173132,-6.8651140900000005,-91.54723095,0.10429415417,-0.49549367199999994,-0.245780538,0.2034357029,-0.3256851539,-0.301223919
08:34:07,0.005737820000000001,-0.47578553499999987,0.07863068000000001,0.16912204,-0.3266713,0.09404910500000001,40.946913695,-27.40370726,-6.9016482450000005,-91.46215397499999,0.103913452685,-0.486746496,-0.241550184,0.20148808345,-0.32488334395,-0.2984574795
08:34:07,0.005435400000000003,-0.4668151999999999,0.07946260000000001,0.1666238,-0.325835,0.0931116,40.9648924,-27.4056832,-6.9381824000000005,-91.377077,0.10353275120000001,-0.4779993199999999,-0.23731983,0.199540464,-0.324081534,-0.29569104
08:34:07,0.005132980000000002,-0.4578448649999999,0.08029452000000001,0.16412556,-0.3249987,0.09217409500000001,40.982871105,-27.40765914,-6.9747165550000005,-91.292000025,0.103152049715,-0.4692521439999999,-0.23308947599999996,0.19759284454999998,-0.32327972405,-0.2929246005
08:34:07,0.004830560000000001,-0.4488745299999999,0.08112644000000001,0.16162732,-0.3241624,0.09123659,41.00084981,-27.40963508,-7.0112507100000006,-91.20692305,0.10277134823,-0.46050496799999996,-0.22885912199999997,0.1956452251,-0.32247791410000004,-0.290158161
08:34:07,0.004528140000000003,-0.4399041949999999,0.08195836000000001,0.15912908,-0.3233261,0.090299085,41.018828515,-27.41161102,-7.047784865000001,-91.121846075,0.10239064674500001,-0.4517577919999999,-0.22462876799999998,0.19369760565,-0.32167610415000003,-0.28739172150000003
08:34:07,0.004225720000000002,-0.4309338599999999,0.08279028000000001,0.15663084,-0.3224898,0.08936158000000001,41.03680722,-27.41358696,-7.084319020000001,-91.0367691,0.10200994526000001,-0.4430106159999999,-0.220398414,0.1917499862,-0.3208742942,-0.28462528200000003
08:34:07,0.003923300000000001,-0.4219635249999999,0.08362220000000001,0.1541326,-0.32165350000000004,0.088424075,41.054785925,-27.4155629,-7.120853175000001,-90.951692125,0.101629243775,-0.43426343999999995,-0.21616806,0.18980236674999998,-0.32007248425,-0.28185884250000004
08:34:07,0.0036208800000000034,-0.4129931899999999,0.08445412000000001,0.15163436,-0.3208172,0.08748657000000001,41.07276463,-27.41753884,-7.157387330000001,-90.86661515,0.10124854229000001,-0.42551626399999987,-0.211937706,0.18785474729999999,-0.3192706743,-0.27909240300000004
08:34:07,0.0033184600000000022,-0.4040228549999999,0.08528604000000001,0.14913611999999998,-0.3199809,0.08654906500000001,41.090743335,-27.41951478,-7.193921485000001,-90.781538175,0.100867840805,-0.4167690879999999,-0.20770735199999996,0.18590712785,-0.31846886435,-0.2763259635
08:34:07,0.003016040000000001,-0.3950525199999999,0.08611796000000001,0.14663788,-0.3191446,0.08561156,41.108722039999996,-27.42149072,-7.230455640000001,-90.6964612,0.10048713932,-0.40802191199999993,-0.20347699799999996,0.1839595084,-0.3176670544,-0.273559524
08:34:07,0.0027136200000000034,-0.3860821849999999,0.08694988000000001,0.14413963999999999,-0.3183083,0.08467405500000001,41.126700745,-27.42346666,-7.266989795000001,-90.611384225,0.100106437835,-0.39927473599999996,-0.19924664399999997,0.18201188894999998,-0.31686524445,-0.2707930845
08:34:07,0.0024112000000000022,-0.3771118499999999,0.08778180000000001,0.1416414,-0.317472,0.08373655,41.14467945,-27.4254426,-7.303523950000001,-90.52630725,0.09972573635000001,-0.3905275599999999,-0.19501628999999998,0.18006426949999998,-0.3160634345,-0.268026645
08:34:07,0.002108780000000001,-0.3681415149999999,0.08861372,0.13914316,-0.3166357,0.082799045,41.162658155,-27.42741854,-7.340058105000001,-90.441230275,0.099345034865,-0.3817803839999999,-0.190785936,0.17811665005,-0.31526162455,-0.2652602055
08:34:07,0.0018063600000000034,-0.3591711799999999,0.08944564,0.13664492,-0.3157994,0.08186154000000001,41.18063686,-27.42939448,-7.376592260000001,-90.3561533,0.09896433338,-0.37303320799999995,-0.186555582,0.1761690306,-0.3144598146,-0.262493766
08:34:07,0.0015039400000000022,-0.3502008449999999,0.09027756,0.13414668,-0.3149631,0.080924035,41.198615565,-27.43137042,-7.413126415000001,-90.271076325,0.098583631895,-0.36428603199999987,-0.18232522799999995,0.17422141114999998,-0.31365800465,-0.2597273265
08:34:07,0.001201520000000001,-0.34123050999999993,0.09110948,0.13164844,-0.31412680000000004,0.07998653000000001,41.21659427,-27.43334636,-7.449660570000001,-90.18599935,0.09820293041,-0.3555388559999999,-0.17809487399999996,0.17227379169999998,-0.31285619470000003,-0.256960887
08:34:07,0.0008991000000000034,-0.33226017499999994,0.0919414,0.1291502,-0.3132905,0.07904902500000001,41.234572975,-27.4353223,-7.486194725000001,-90.100922375,0.097822228925,-0.34679167999999994,-0.17386451999999997,0.17032617225,-0.31205438475,-0.25419444750000003
08:34:07,0.0005966800000000022,-0.32328983999999994,0.09277332,0.12665196,-0.3124542,0.07811152,41.252551679999996,-27.43729824,-7.522728880000001,-90.0158454,0.09744152744000001,-0.33804450399999997,-0.16963416599999998,0.1683785528,-0.3112525748,-0.251428008
08:34:07,0.00029426000000000105,-0.31431950499999983,0.09360524,0.12415372,-0.3116179,0.07717401500000001,41.270530385,-27.43927418,-7.559263035000001,-89.930768425,0.09706082595500001,-0.3292973279999999,-0.16540381199999998,0.16643093335,-0.31045076485,-0.24866156849999999
08:34:07,-8.159999999996642e-06,-0.30534916999999984,0.09443716,0.12165547999999998,-0.3107816,0.07623651000000001,41.28850909,-27.44125012,-7.595797190000001,-89.84569145,0.09668012447,-0.3205501519999999,-0.161173458,0.16448331389999998,-0.3096489549,-0.245895129
08:34:07,-0.0003105799999999978,-0.29637883499999984,0.09526908,0.11915724,-0.3099453,0.075299005,41.306487795,-27.44322606,-7.632331345000001,-89.760614475,0.096299422985,-0.31180297599999995,-0.156943104,0.16253569445,-0.30884714495,-0.2431286895
08:34:07,-0.000612999999999999,-0.28740849999999984,0.096101,0.11665899999999998,-0.309109,0.07436150000000001,41.3244665,-27.445202000000002,-7.668865500000001,-89.67553749999999,0.0959187215,-0.3030557999999999,-0.15271274999999995,0.160588075,-0.308045335,-0.24036225
08:34:07,-0.0009154199999999967,-0.27843816499999985,0.09693292,0.11416075999999997,-0.3082727,0.073423995,41.342445205,-27.44717794,-7.705399655000001,-89.590460525,0.095538020015,-0.2943086239999999,-0.14848239599999996,0.15864045555,-0.30724352505,-0.2375958105
08:34:07,-0.0012178399999999978,-0.26946782999999985,0.09776484,0.11166251999999999,-0.3074364,0.07248649,41.36042391,-27.44915388,-7.741933810000001,-89.50538355,0.09515731853,-0.28556144799999994,-0.14425204199999997,0.15669283609999998,-0.3064417151,-0.234829371
08:34:07,-0.001520259999999999,-0.26049749499999986,0.09859676,0.10916428,-0.3066001,0.07154898500000001,41.378402615,-27.45112982,-7.778467965000001,-89.420306575,0.09477661704500001,-0.27681427199999986,-0.14002168799999998,0.15474521665,-0.30563990515,-0.2320629315
08:34:07,-0.0018226799999999967,-0.25152715999999986,0.09942868,0.10666604000000002,-0.30576380000000003,0.07061148,41.39638132,-27.45310576,-7.815002120000001,-89.33522959999999,0.09439591556,-0.2680670959999999,-0.13579133399999999,0.1527975972,-0.3048380952,-0.22929649200000002
08:34:07,-0.0021250999999999944,-0.24255682499999986,0.1002606,0.10416779999999998,-0.3049275,0.06967397500000001,41.414360025,-27.4550817,-7.851536275000001,-89.250152625,0.094015214075,-0.2593199199999999,-0.13156098,0.15084997775,-0.30403628525000004,-0.22653005250000002
08:34:07,-0.002427519999999999,-0.23358648999999987,0.10109252,0.10166955999999999,-0.3040912,0.06873647000000001,41.43233873,-27.45705764,-7.888070430000001,-89.16507565,0.09363451259,-0.25057274399999996,-0.12733062599999995,0.14890235829999998,-0.30323447530000003,-0.22376361300000003
08:34:07,-0.0027299399999999967,-0.22461615499999987,0.10192444,0.09917132000000001,-0.3032549,0.067798965,41.450317435,-27.45903358,-7.924604585000001,-89.079998675,0.093253811105,-0.24182556799999988,-0.12310027199999996,0.14695473885,-0.30243266535,-0.22099717350000003
08:34:07,-0.0030323599999999944,-0.21564581999999988,0.10275636,0.09667307999999997,-0.3024186,0.06686146000000001,41.46829614,-27.46100952,-7.961138740000001,-88.99492169999999,0.09287310962,-0.2330783919999999,-0.11886991799999996,0.1450071194,-0.3016308554,-0.21823073400000004
08:34:07,-0.003334779999999999,-0.20667548499999988,0.10358828,0.09417483999999998,-0.3015823,0.065923955,41.486274845,-27.46298546,-7.997672895000001,-88.909844725,0.09249240813500001,-0.22433121599999994,-0.11463956399999997,0.14305949995,-0.30082904545,-0.2154642945
08:34:07,-0.0036371999999999967,-0.19770514999999989,0.1044202,0.0916766,-0.300746,0.06498645,41.50425355,-27.4649614,-8.03420705,-88.82476774999999,0.09211170665,-0.21558403999999987,-0.11040920999999998,0.14111188049999998,-0.3000272355,-0.212697855
08:34:07,-0.003939619999999994,-0.1887348149999999,0.10525212,0.08917836000000001,-0.2999097,0.06404894500000001,41.522232255,-27.46693734,-8.070741205000001,-88.739690775,0.091731005165,-0.2068368639999999,-0.10617885599999999,0.13916426105,-0.29922542555,-0.2099314155
08:34:07,-0.004242039999999999,-0.17976447999999978,0.10608404,0.08668011999999997,-0.2990734,0.06311144,41.54021096,-27.46891328,-8.10727536,-88.65461379999999,0.09135030368,-0.19808968799999993,-0.10194850199999994,0.1372166416,-0.2984236156,-0.207164976
08:34:07,-0.004544459999999997,-0.1707941449999999,0.10691596,0.08418187999999999,-0.29823710000000003,0.062173935,41.558189665,-27.47088922,-8.143809515000001,-88.569536825,0.090969602195,-0.18934251199999985,-0.09771814799999995,0.13526902215,-0.29762180565,-0.2043985365
08:34:07,-0.004846879999999994,-0.1618238099999998,0.10774788,0.08168364,-0.2974008,0.06123643000000001,41.57616837,-27.47286516,-8.18034367,-88.48445985,0.09058890071,-0.18059533599999988,-0.09348779399999996,0.13332140269999998,-0.2968199957,-0.201632097
08:34:07,-0.005149299999999999,-0.1528534749999999,0.1085798,0.07918540000000002,-0.2965645,0.060298925,41.594147075,-27.4748411,-8.216877825000001,-88.399382875,0.09020819922500001,-0.17184815999999992,-0.08925743999999997,0.13137378325,-0.29601818575,-0.19886565750000001
08:34:07,-0.005451719999999997,-0.1438831399999998,0.10941172,0.07668715999999998,-0.2957282,0.05936142000000001,41.61212578,-27.47681704,-8.25341198,-88.3143059,0.08982749774000001,-0.16310098399999995,-0.08502708599999997,0.1294261638,-0.29521637580000004,-0.19609921800000002
08:34:07,-0.005754139999999994,-0.1349128049999999,0.11024364,0.07418891999999999,-0.2948919,0.05842391500000001,41.630104485,-27.47879298,-8.289946135000001,-88.229228925,0.089446796255,-0.15435380799999998,-0.08079673199999998,0.12747854435,-0.29441456585000003,-0.19333277850000002
08:34:07,-0.006056559999999999,-0.1259424699999998,0.11107556,0.07169068,-0.2940556,0.05748641,41.64808319,-27.48076892,-8.32648029,-88.14415195,0.08906609476999999,-0.1456066319999998,-0.07656637799999999,0.12553092489999998,-0.2936127559,-0.19056633900000003
08:34:07,-0.006358979999999997,-0.11697213499999992,0.11190748,0.06919243999999997,-0.2932193,0.05654890500000001,41.666061895,-27.48274486,-8.363014445000001,-88.059074975,0.088685393285,-0.13685945599999982,-0.07233602399999994,0.12358330544999999,-0.29281094595,-0.18779989950000003
08:34:07,-0.006661399999999994,-0.10800179999999981,0.1127394,0.06669419999999998,-0.292383,0.055611400000000005,41.6840406,-27.4847208,-8.3995486,-87.973998,0.0883046918,-0.12811227999999986,-0.06810567000000001,0.12163568599999999,-0.292009136,-0.18503346000000004
08:34:07,-0.006963819999999999,-0.09903146499999993,0.11357132,0.06419596,-0.2915467,0.054673895,41.702019305,-27.48669674,-8.436082755000001,-87.888921025,0.087923990315,-0.11936510399999989,-0.06387531599999996,0.11968806655,-0.29120732605,-0.18226702050000004
08:34:07,-0.007266239999999997,-0.09006112999999982,0.11440324,0.06169772000000001,-0.29071040000000004,0.05373639000000001,41.71999801,-27.48867268,-8.47261691,-87.80384405,0.08754328883000001,-0.11061792799999992,-0.05964496199999991,0.11774044709999998,-0.2904055161,-0.179500581
08:34:07,-0.007568659999999994,-0.08109079499999994,0.11523516,0.05919947999999997,-0.2898741,0.052798885000000004,41.737976715,-27.49064862,-8.509151065000001,-87.718767075,0.087162587345,-0.10187075199999995,-0.055414607999999976,0.11579282764999999,-0.28960370615,-0.1767341415
08:34:07,-0.007871079999999999,-0.07212045999999983,0.11606708,0.056701239999999986,-0.2890378,0.05186138000000001,41.75595542,-27.49262456,-8.54568522,-87.6336901,0.08678188586,-0.09312357599999999,-0.05118425399999993,0.11384520819999999,-0.2888018962,-0.173967702
08:34:07,-0.008173499999999997,-0.06315012499999995,0.116899,0.054203,-0.2882015,0.05092387500000001,41.773934125,-27.4946005,-8.582219375000001,-87.548613125,0.086401184375,-0.0843763999999998,-0.04695389999999999,0.11189758875,-0.28800008625,-0.1712012625
08:34:07,-0.008475919999999994,-0.05417978999999984,0.11773092,0.051704760000000016,-0.2873652,0.04998637,41.79191283,-27.496576440000002,-8.61875353,-87.46353615,0.08602048289,-0.07562922399999983,-0.042723545999999946,0.10994996929999998,-0.2871982763,-0.168434823
08:34:07,-0.008778339999999999,-0.045209454999999954,0.11856284,0.049206519999999976,-0.2865289,0.04904886500000001,41.809891535,-27.49855238,-8.655287685000001,-87.378459175,0.085639781405,-0.06688204799999986,-0.03849319200000001,0.10800234984999998,-0.28639646635,-0.16566838350000002
08:34:07,-0.009080759999999997,-0.03623911999999985,0.11939476,0.04670827999999999,-0.2856926,0.048111360000000006,41.82787024,-27.50052832,-8.69182184,-87.2933822,0.08525907992000001,-0.05813487199999989,-0.03426283799999996,0.10605473039999999,-0.28559465640000004,-0.16290194400000002
08:34:07,-0.009383179999999994,-0.02726878499999974,0.12022668,0.044210040000000006,-0.2848563,0.047173855,41.845848945,-27.502504260000002,-8.728355995000001,-87.208305225,0.084878378435,-0.049387695999999925,-0.030032483999999915,0.10410711094999997,-0.28479284645,-0.16013550450000003
08:34:07,-0.009685599999999999,-0.018298449999999855,0.1210586,0.041711799999999966,-0.28402,0.04623635000000001,41.86382765,-27.5044802,-8.76489015,-87.12322825,0.08449767695,-0.04064051999999996,-0.02580212999999998,0.10215949149999998,-0.2839910365,-0.15736906500000003
08:34:07,-0.009988019999999997,-0.009328114999999748,0.12189052,0.03921355999999998,-0.28318370000000004,0.045298845000000004,41.881806355,-27.50645614,-8.801424305000001,-87.038151275,0.084116975465,-0.03189334399999999,-0.02157177599999993,0.10021187204999998,-0.28318922655,-0.15460262550000003
08:34:07,-0.010290439999999994,-0.0003577799999998632,0.12272244,0.036715319999999996,-0.2823474,0.04436134,41.89978506,-27.50843208,-8.83795846,-86.9530743,0.08373627398,-0.0231461679999998,-0.017341421999999995,0.09826425259999999,-0.2823874166,-0.15183618600000004
08:34:07,-0.010592859999999999,0.008612555000000244,0.12355436,0.03421708000000001,-0.2815111,0.04342383500000001,41.917763765000004,-27.51040802,-8.874492615000001,-86.867997325,0.083355572495,-0.014398991999999833,-0.013111067999999948,0.09631663315,-0.28158560665,-0.14906974650000004
08:34:07,-0.010895279999999997,0.01758289000000013,0.12438628,0.03171883999999997,-0.2806748,0.04248633000000002,41.93574247,-27.51238396,-8.91102677,-86.78292035,0.08297487101,-0.005651815999999865,-0.008880714000000012,0.0943690137,-0.2807837967,-0.14630330700000005
08:34:07,-0.011197699999999994,0.026553225000000236,0.1252182,0.029220599999999985,-0.2798385,0.04154882500000001,41.953721175,-27.5143599,-8.947560925000001,-86.69784337499999,0.08259416952500001,0.0030953600000001025,-0.0046503599999999645,0.09242139425000001,-0.27998198675,-0.1435368675
08:34:07,-0.011500119999999999,0.03552356000000012,0.12605012,0.02672236,-0.2790022,0.040611320000000006,41.97169988,-27.51633584,-8.98409508,-86.6127664,0.08221346804,0.01184253600000007,-0.0004200059999999173,0.09047377480000002,-0.2791801768,-0.140770428
08:34:07,-0.011802539999999997,0.04449389500000023,0.12688204,0.024224120000000016,-0.2781659,0.039673815,41.989678585,-27.51831178,-9.020629235000001,-86.527689425,0.08183276655499999,0.020589712000000038,0.003810348000000019,0.08852615534999997,-0.27837836685,-0.1380039885
08:34:07,-0.012104959999999994,0.05346423000000011,0.12771396,0.021725879999999975,-0.2773296,0.038736309999999996,42.00765729,-27.52028772,-9.05716339,-86.44261245,0.08145206507,0.029336888000000005,0.008040702000000066,0.08657853589999998,-0.2775765569,-0.135237549
08:34:07,-0.012407379999999999,0.06243456500000022,0.12854588,0.01922763999999999,-0.2764933,0.03779880500000002,42.025635995,-27.52226366,-9.093697545000001,-86.35753547499999,0.081071363585,0.038084064000000195,0.012271056000000002,0.08463091644999998,-0.27677474695000004,-0.13247110950000002
08:34:07,-0.012709799999999997,0.0714049000000001,0.1293778,0.016729400000000005,-0.275657,0.036861300000000013,42.0436147,-27.5242396,-9.1302317,-86.2724585,0.0806906621,0.04683124000000016,0.01650141000000005,0.08268329699999999,-0.27597293700000003,-0.12970467000000002
08:34:07,-0.013012219999999994,0.08037523500000021,0.13020972,0.014231159999999965,-0.27482070000000003,0.03592379500000001,42.061593405,-27.52621554,-9.166765855000001,-86.18738152499999,0.08030996061500001,0.05557841600000013,0.020731764000000097,0.08073567755,-0.27517112705,-0.12693823050000003
08:34:07,-0.013314639999999999,0.0893455700000001,0.13104164,0.01173291999999998,-0.2739844,0.03498629,42.07957211,-27.52819148,-9.20330001,-86.10230455,0.07992925913,0.0643255920000001,0.024962118000000033,0.0787880581,-0.2743693171,-0.12417179100000003
08:34:07,-0.013617059999999997,0.0983159050000002,0.13187356,0.009234679999999995,-0.2731481,0.034048785,42.097550815,-27.53016742,-9.239834165000001,-86.01722757499999,0.079548557645,0.07307276800000007,0.02919247200000008,0.07684043865000001,-0.27356750715,-0.12140535150000004
08:34:07,-0.013919479999999994,0.10728624000000009,0.13270548,0.00673644000000001,-0.2723118,0.03311127999999999,42.11552952,-27.53214336,-9.27636832,-85.9321506,0.07916785616,0.08181994400000003,0.03342282600000002,0.07489281920000002,-0.2727656972,-0.11863891200000004
08:34:07,-0.014221899999999999,0.1162565750000002,0.1335374,0.00423819999999997,-0.2714755,0.032173775000000016,42.133508225,-27.5341193,-9.312902475000001,-85.847073625,0.078787154675,0.09056712000000022,0.037653180000000064,0.07294519974999997,-0.27196388725,-0.11587247250000005
08:34:07,-0.014524319999999997,0.12522691000000008,0.13436932,0.0017399599999999849,-0.2706392,0.03123627000000001,42.15148693,-27.53609524,-9.34943663,-85.76199665,0.07840645319,0.09931429600000019,0.041883534,0.07099758029999997,-0.2711620773,-0.11310603300000005
08:34:07,-0.014826739999999995,0.1341972450000002,0.13520124,-0.0007582800000000001,-0.2698029,0.030298765000000005,42.169465635,-27.53807118,-9.385970785000001,-85.676919675,0.07802575170500001,0.10806147200000016,0.04611388800000005,0.06904996084999998,-0.27036026735,-0.11033959350000005
08:34:07,-0.01512916,0.14316758000000007,0.13603316,-0.003256519999999985,-0.2689666,0.02936126,42.18744434,-27.54004712,-9.42250494,-85.5918427,0.07764505022,0.11680864800000013,0.050344242000000095,0.06710234139999999,-0.2695584574,-0.107573154
08:34:07,-0.015431579999999997,0.15213791500000018,0.13686508,-0.005754760000000025,-0.2681303,0.028423754999999995,42.205423045,-27.542023060000002,-9.459039095000001,-85.506765725,0.077264348735,0.1255558240000001,0.05457459600000003,0.06515472195,-0.26875664745,-0.10480671450000001
08:34:07,-0.015733999999999995,0.16110825000000029,0.13769699999999999,-0.00825300000000001,-0.26729400000000003,0.027486250000000018,42.22340175,-27.543999,-9.49557325,-85.42168875,0.07688364724999999,0.13430300000000006,0.05880495000000008,0.0632071025,-0.2679548375,-0.10204027500000001
08:34:07,-0.01603642,0.17007858500000017,0.13852892,-0.010751239999999995,-0.2664577,0.026548745000000012,42.241380455,-27.54597494,-9.532107405000001,-85.336611775,0.076502945765,0.14305017600000003,0.06303530400000001,0.06125948305000001,-0.26715302755000003,-0.09927383550000002
08:34:07,-0.016338839999999997,0.17904892000000028,0.13936084,-0.013249480000000036,-0.2656214,0.025611240000000007,42.25935916,-27.547950880000002,-9.56864156,-85.2515348,0.07612224428,0.15179735200000022,0.06726565800000006,0.059311863600000014,-0.2663512176,-0.09650739600000002
08:34:07,-0.016641259999999995,0.18801925500000016,0.14019276,-0.01574772000000002,-0.2647851,0.024673735000000002,42.277337865,-27.54992682,-9.605175715000001,-85.166457825,0.075741542795,0.1605445280000002,0.071496012,0.057364244149999966,-0.26554940765,-0.09374095650000003
08:34:07,-0.01694368,0.19698959000000027,0.14102468,-0.018245960000000006,-0.2639488,0.023736229999999997,42.29531657,-27.55190276,-9.64170987,-85.08138085,0.07536084131000001,0.16929170400000015,0.07572636600000004,0.05541662469999997,-0.2647475977,-0.09097451700000003
08:34:07,-0.017246099999999997,0.20595992500000015,0.1418566,-0.02074419999999999,-0.26311249999999997,0.022798724999999992,42.313295275,-27.553878700000002,-9.678244025000001,-84.996303875,0.074980139825,0.17803888000000012,0.07995672000000009,0.05346900524999998,-0.26394578775,-0.08820807750000004
08:34:07,-0.017548519999999995,0.21493026000000026,0.14268852,-0.02324244000000003,-0.2622762,0.021861220000000015,42.33127398,-27.55585464,-9.71477818,-84.9112269,0.07459943833999999,0.1867860560000001,0.08418707400000003,0.051521385799999986,-0.2631439778,-0.08544163800000004
08:34:07,-0.01785094,0.22390059500000015,0.14352044,-0.025740680000000016,-0.2614399,0.02092371500000001,42.349252685,-27.55783058,-9.751312335000001,-84.826149925,0.074218736855,0.19553323200000006,0.08841742800000008,0.04957376634999999,-0.26234216785,-0.08267519850000005
08:34:07,-0.018153359999999997,0.23287093000000025,0.14435236,-0.02823892,-0.26060360000000005,0.019986210000000004,42.36723139,-27.559806520000002,-9.78784649,-84.74107295,0.07383803537,0.20428040800000002,0.09264778200000001,0.0476261469,-0.2615403579,-0.07990875900000005
08:34:07,-0.018455779999999995,0.24184126500000014,0.14518428,-0.030737159999999986,-0.25976730000000003,0.019048705,42.385210095,-27.56178246,-9.824380645000002,-84.655995975,0.073457333885,0.21302758400000021,0.09687813600000006,0.045678527450000006,-0.26073854795,-0.07714231950000006
08:34:07,-0.018758199999999992,0.25081160000000025,0.1460162,-0.033235400000000026,-0.258931,0.018111199999999994,42.4031888,-27.5637584,-9.8609148,-84.570919,0.07307663240000001,0.22177476000000018,0.10110849,0.04373090800000001,-0.259936738,-0.07437588000000006
08:34:07,-0.019060619999999997,0.25978193500000013,0.14684812,-0.03573364000000001,-0.2580947,0.017173695000000017,42.421167505,-27.56573434,-9.897448955,-84.485842025,0.072695930915,0.23052193600000015,0.10533884400000004,0.04178328855000002,-0.25913492805000005,-0.07160944050000001
08:34:07,-0.019363039999999995,0.26875227000000024,0.14768004,-0.038231879999999996,-0.2572584,0.01623619000000001,42.439146210000004,-27.56771028,-9.93398311,-84.40076505,0.07231522942999999,0.23926911200000012,0.10956919800000009,0.03983566909999997,-0.25833311810000004,-0.06884300100000001
08:34:07,-0.019665459999999992,0.2777226050000001,0.14851196,-0.040730120000000036,-0.2564221,0.015298685000000006,42.457124915,-27.56968622,-9.970517265,-84.315688075,0.07193452794499999,0.24801628800000008,0.11379955200000003,0.03788804964999998,-0.25753130815,-0.06607656150000002
08:34:07,-0.019967879999999997,0.28669294000000023,0.14934388,-0.04322836000000002,-0.2555858,0.014361180000000001,42.47510362,-27.57166216,-10.00705142,-84.2306111,0.07155382646,0.25676346400000005,0.11802990600000007,0.035940430199999984,-0.2567294982,-0.06331012200000002
08:34:07,-0.020270299999999995,0.2956632750000001,0.1501758,-0.045726600000000006,-0.2547495,0.013423674999999996,42.493082325,-27.5736381,-10.043585575,-84.145534125,0.071173124975,0.26551064,0.12226026000000001,0.03399281074999999,-0.25592768825,-0.06054368250000003
08:34:07,-0.020572719999999992,0.3046336100000002,0.15100772,-0.04822483999999999,-0.2539132,0.012486169999999991,42.51106103,-27.57561404,-10.08011973,-84.06045715,0.07079242348999999,0.2742578160000002,0.12649061400000006,0.0320451913,-0.2551258783,-0.057777243000000034
08:34:07,-0.020875139999999997,0.3136039450000001,0.15183964,-0.05072308000000003,-0.2530769,0.011548665000000014,42.529039735,-27.57758998,-10.116653885,-83.975380175,0.070411722005,0.2830049920000002,0.1307209680000001,0.030097571850000004,-0.25432406835,-0.05501080350000004
08:34:07,-0.021177559999999995,0.3225742800000002,0.15267156,-0.053221320000000016,-0.25224060000000004,0.010611160000000008,42.54701844,-27.57956592,-10.15318804,-83.8903032,0.07003102052,0.29175216800000014,0.13495132200000004,0.02814995240000001,-0.2535222584,-0.05224436400000004
08:34:07,-0.021479979999999992,0.3315446150000001,0.15350348,-0.05571956,-0.2514043,0.009673655000000003,42.564997145,-27.58154186,-10.189722195,-83.805226225,0.069650319035,0.3004993440000001,0.1391816760000001,0.026202332950000018,-0.25272044844999997,-0.04947792450000005
08:34:07,-0.021782399999999997,0.3405149500000002,0.1543354,-0.058217799999999986,-0.250568,0.008736149999999998,42.582975850000004,-27.5835178,-10.22625635,-83.72014924999999,0.06926961755,0.3092465200000001,0.14341203000000002,0.02425471349999997,-0.2519186385,-0.04671148500000005
08:34:07,-0.022084819999999995,0.3494852850000003,0.15516732,-0.06071604000000003,-0.2497317,0.007798644999999993,42.600954555,-27.58549374,-10.262790505,-83.635072275,0.068888916065,0.31799369600000005,0.14764238400000007,0.022307094049999976,-0.25111682855,-0.04394504550000006
08:34:07,-0.022387239999999992,0.3584556200000002,0.15599924,-0.06321428000000001,-0.24889540000000002,0.0068611400000000156,42.61893326,-27.58746968,-10.29932466,-83.5499953,0.06850821458,0.32674087200000024,0.151872738,0.020359474599999983,-0.2503150186,-0.04117860600000006
08:34:07,-0.022689659999999997,0.3674259550000003,0.15683116,-0.06571252,-0.2480591,0.00592363500000001,42.636911965,-27.58944562,-10.335858815,-83.464918325,0.068127513095,0.3354880480000002,0.15610309200000005,0.01841185514999999,-0.24951320865,-0.03841216650000001
08:34:07,-0.022992079999999995,0.3763962900000002,0.15766308,-0.06821076000000004,-0.2472228,0.004986130000000005,42.65489067,-27.59142156,-10.37239297,-83.37984134999999,0.06774681161,0.3442352240000002,0.1603334460000001,0.016464235699999996,-0.2487113987,-0.035645727000000016
08:34:07,-0.023294499999999992,0.3853666250000003,0.158495,-0.07070900000000002,-0.2463865,0.004048625,42.672869375000005,-27.593397500000002,-10.408927125,-83.294764375,0.067366110125,0.35298240000000014,0.16456380000000004,0.014516616250000003,-0.24790958875000002,-0.03287928750000002
08:34:07,-0.023596919999999997,0.3943369600000002,0.15932692,-0.07320724,-0.2455502,0.003111119999999995,42.69084808,-27.59537344,-10.44546128,-83.20968739999999,0.06698540864,0.3617295760000001,0.16879415400000009,0.01256899680000001,-0.2471077788,-0.030112848000000025
08:34:07,-0.023899339999999995,0.4033072950000003,0.16015884,-0.07570547999999999,-0.2447139,0.00217361499999999,42.708826785,-27.59734938,-10.481995435,-83.124610425,0.066604707155,0.3704767520000001,0.17302450800000002,0.010621377350000016,-0.24630596885,-0.02734640850000003
08:34:07,-0.024201759999999992,0.4122776300000002,0.16099076,-0.07820372000000003,-0.2438776,0.0012361100000000125,42.726805490000004,-27.599325320000002,-10.51852959,-83.03953345,0.06622400567,0.37922392800000004,0.17725486200000007,0.008673757899999968,-0.24550415890000002,-0.024579969000000035
08:34:07,-0.024504179999999997,0.4212479650000003,0.16182268,-0.08070196000000002,-0.24304130000000002,0.00029860500000000734,42.744784195,-27.60130126,-10.555063745,-82.954456475,0.06584330418499999,0.38797110400000023,0.181485216,0.006726138449999974,-0.24470234895,-0.02181352950000004
08:34:07,-0.024806599999999995,0.43021830000000016,0.1626546,-0.0832002,-0.242205,-0.0006388999999999978,42.7627629,-27.6032772,-10.5915979,-82.8693795,0.0654626027,0.3967182800000002,0.18571557000000005,0.004778518999999981,-0.243900539,-0.019047090000000044
08:34:07,-0.025109019999999992,0.43918863500000027,0.16348652,-0.08569843999999999,-0.2413687,-0.001576405000000003,42.780741605,-27.605253140000002,-10.628132055,-82.784302525,0.065081901215,0.40546545600000017,0.1899459240000001,0.002830899549999988,-0.24309872905000002,-0.01628065050000005
08:34:07,-0.025411439999999997,0.44815897000000016,0.16431844,-0.08819668000000003,-0.2405324,-0.002513910000000008,42.79872031,-27.60722908,-10.66466621,-82.69922555,0.06470119972999999,0.41421263200000014,0.19417627800000004,0.0008832800999999946,-0.2422969191,-0.013514211000000054
08:34:07,-0.025713859999999995,0.45712930500000026,0.16515036,-0.09069492000000001,-0.2396961,-0.0034514149999999855,42.816699015,-27.60920502,-10.701200365,-82.614148575,0.064320498245,0.4229598080000001,0.19840663200000008,-0.0010643393499999987,-0.24149510915,-0.010747771500000058
08:34:07,-0.026016279999999992,0.46609964000000015,0.16598228,-0.09319316,-0.2388598,-0.004388919999999991,42.83467772,-27.611180960000002,-10.73773452,-82.5290716,0.06393979676,0.43170698400000007,0.20263698600000002,-0.003011958799999992,-0.24069329920000002,-0.007981332000000063
08:34:07,-0.026318699999999997,0.47506997500000026,0.1668142,-0.09569140000000004,-0.2380235,-0.005326424999999996,42.852656425,-27.6131569,-10.774268675,-82.443994625,0.06355909527499999,0.44045416000000004,0.20686734000000007,-0.004959578249999985,-0.23989148925,-0.005214892500000068
08:34:07,-0.026621119999999995,0.48404031000000014,0.16764612,-0.09818964000000002,-0.23718720000000001,-0.006263930000000001,42.870635130000004,-27.61513284,-10.81080283,-82.35891765,0.06317839379,0.44920133600000023,0.2110976940000001,-0.006907197700000034,-0.2390896793,-0.0024484530000000726
08:34:07,-0.026923539999999992,0.49301064500000025,0.16847804,-0.10068788000000001,-0.2363509,-0.007201435000000006,42.888613835,-27.61710878,-10.847336985,-82.273840675,0.062797692305,0.4579485120000002,0.21532804800000005,-0.008854817150000027,-0.23828786935000001,0.0003179864999999227
08:34:07,-0.027225959999999997,0.5019809800000001,0.16930996,-0.10318611999999999,-0.23551460000000002,-0.008138939999999983,42.90659254,-27.61908472,-10.88387114,-82.1887637,0.062416990820000004,0.46669568800000016,0.2195584020000001,-0.01080243660000002,-0.2374860594,0.003084425999999918
08:34:07,-0.027528379999999995,0.5109513150000002,0.17014188,-0.10568436000000003,-0.2346783,-0.009076444999999989,42.924571245,-27.62106066,-10.920405295,-82.103686725,0.062036289334999994,0.47544286400000013,0.22378875600000003,-0.012750056050000014,-0.23668424945,0.005850865499999913
08:34:07,-0.027830799999999992,0.5199216500000001,0.1709738,-0.10818260000000002,-0.233842,-0.010013949999999994,42.94254995,-27.6230366,-10.95693945,-82.01860975,0.06165558785,0.4841900400000001,0.22801911000000008,-0.014697675500000007,-0.2358824395,0.008617304999999909
08:34:07,-0.028133219999999997,0.5288919850000002,0.17180572,-0.11068084,-0.2330057,-0.010951454999999999,42.960528655000005,-27.62501254,-10.993473605,-81.933532775,0.061274886365,0.49293721600000007,0.23224946400000002,-0.01664529495,-0.23508062955,0.011383744499999904
08:34:07,-0.028435639999999995,0.5378623200000001,0.17263764,-0.11317907999999999,-0.2321694,-0.011888960000000004,42.97850736,-27.62698848,-11.03000776,-81.8484558,0.060894184879999994,0.501684392,0.23647981800000006,-0.018592914399999994,-0.23427881960000002,0.01415018400000001
08:34:07,-0.028738059999999992,0.5468326550000002,0.17346956,-0.11567732000000003,-0.2313331,-0.012826465000000009,42.996486065,-27.62896442,-11.066541915,-81.763378825,0.060513483395,0.5104315680000002,0.2407101720000001,-0.020540533849999987,-0.23347700965,0.016916623500000005
08:34:07,-0.029040479999999997,0.5558029900000003,0.17430148,-0.11817556000000001,-0.2304968,-0.013763969999999986,43.014464770000004,-27.63094036,-11.10307607,-81.67830185,0.06013278191,0.5191787440000002,0.24494052600000005,-0.02248815329999998,-0.2326751997,0.019683063
08:34:07,-0.029342899999999995,0.5647733250000002,0.1751334,-0.1206738,-0.22966050000000002,-0.014701474999999992,43.032443475,-27.6329163,-11.139610225,-81.593224875,0.05975208042499999,0.5279259200000002,0.2491708800000001,-0.02443577275000003,-0.23187338975000002,0.022449502499999996
08:34:07,-0.029645319999999992,0.5737436600000003,0.17596532,-0.12317204000000004,-0.2288242,-0.015638979999999997,43.05042218,-27.63489224,-11.17614438,-81.5081479,0.05937137894,0.5366730960000001,0.25340123400000003,-0.026383392200000022,-0.2310715798,0.02521594199999999
08:34:07,-0.029947739999999997,0.5827139950000002,0.17679724,-0.12567028000000002,-0.2279879,-0.016576485000000002,43.068400885,-27.63686818,-11.212678535,-81.42307092499999,0.058990677455,0.5454202720000001,0.2576315880000001,-0.028331011650000015,-0.23026976985,0.027982381499999986
08:34:07,-0.030250159999999995,0.5916843300000003,0.17762916,-0.12816852,-0.2271516,-0.017513990000000007,43.08637959,-27.63884412,-11.24921269,-81.33799395,0.05860997596999999,0.5541674480000001,0.261861942,-0.03027863110000001,-0.22946795990000002,0.030748820999999982
08:34:07,-0.030552579999999992,0.6006546650000002,0.17846108,-0.13066676,-0.2263153,-0.018451494999999984,43.104358295000004,-27.64082006,-11.285746845,-81.252916975,0.058229274484999996,0.5629146240000003,0.26609229600000006,-0.03222625055,-0.22866614995,0.03351526049999998
08:34:08,-0.030855,0.609625,0.179293,-0.133165,-0.225479,-0.019389,43.122337,-27.642796,-11.322281,-81.16784,0.057848573,0.5716618,0.27032265,-0.03417387,-0.22786434,0.0362817
08:34:08,-0.034635145,0.605566815,0.185344695,-0.134139795,-0.22167038,-0.020203995,43.110259195000005,-27.66774721,-11.3221122,-81.200063775,0.061397669635,0.565644197,0.2719345931,-0.03623799155,-0.2241713193,0.0388867975
08:34:08,-0.038415290000000005,0.60150863,0.19139639,-0.13511459,-0.21786176000000002,-0.02101899,43.09818139,-27.69269842,-11.3219434,-81.23228755,0.06494676627,0.559626594,0.2735465362,-0.0383021131,-0.2204782986,0.041491895
08:34:08,-0.042195435,0.597450445,0.197448085,-0.136089385,-0.21405314,-0.021833985,43.086103585000004,-27.71764963,-11.3217746,-81.264511325,0.068495862905,0.553608991,0.2751584793,-0.04036623465,-0.2167852779,0.0440969925
08:34:08,-0.04597558,0.59339226,0.20349978000000002,-0.13706418,-0.21024452000000002,-0.02264898,43.07402578,-27.74260084,-11.3216058,-81.29673509999999,0.07204495954,0.547591388,0.2767704224,-0.042430356200000005,-0.2130922572,0.04670209
08:34:08,-0.049755725,0.589334075,0.20955147500000001,-0.138038975,-0.2064359,-0.023463974999999998,43.061947975,-27.76755205,-11.321437,-81.328958875,0.07559405617500001,0.541573785,0.2783823655,-0.044494477750000004,-0.2093992365,0.0493071875
08:34:08,-0.05353587,0.58527589,0.21560317,-0.13901377,-0.20262728000000002,-0.02427897,43.04987017,-27.79250326,-11.3212682,-81.36118265,0.07914315281,0.535556182,0.2799943086,-0.0465585993,-0.2057062158,0.051912285
08:34:08,-0.057316015000000005,0.581217705,0.221654865,-0.139988565,-0.19881866,-0.025093965,43.037792365,-27.81745447,-11.3210994,-81.393406425,0.082692249445,0.529538579,0.2816062517,-0.04862272085,-0.2020131951,0.0545173825
08:34:08,-0.061096160000000004,0.5771595199999999,0.22770656,-0.14096336,-0.19501004000000002,-0.02590896,43.025714560000004,-27.84240568,-11.3209306,-81.4256302,0.08624134608,0.523520976,0.2832181948,-0.0506868424,-0.1983201744,0.05712248
08:34:08,-0.064876305,0.5731013349999999,0.23375825500000003,-0.141938155,-0.19120142,-0.026723955,43.013636755,-27.86735689,-11.3207618,-81.45785397499999,0.089790442715,0.517503373,0.2848301379,-0.05275096395000001,-0.1946271537,0.059727577500000004
08:34:08,-0.06865645000000001,0.5690431499999999,0.23980995,-0.14291295,-0.18739280000000003,-0.02753895,43.00155895,-27.8923081,-11.320593,-81.49007775,0.09333953935,0.51148577,0.286442081,-0.054815085500000006,-0.190934133,0.062332675000000004
08:34:08,-0.072436595,0.564984965,0.24586164500000002,-0.143887745,-0.18358418,-0.028353945,42.989481145,-27.917259310000002,-11.3204242,-81.522301525,0.096888635985,0.505468167,0.2880540241,-0.056879207050000005,-0.1872411123,0.0649377725
08:34:08,-0.07621674,0.56092678,0.25191334,-0.14486254,-0.17977556,-0.02916894,42.97740334,-27.94221052,-11.3202554,-81.5545253,0.10043773262,0.499450564,0.2896659672,-0.058943328600000004,-0.18354809160000002,0.06754287
08:34:08,-0.079996885,0.556868595,0.257965035,-0.145837335,-0.17596694000000002,-0.029983935,42.965325535,-27.96716173,-11.3200866,-81.586749075,0.103986829255,0.493432961,0.2912779103,-0.06100745015,-0.1798550709,0.0701479675
08:34:08,-0.08377703,0.55281041,0.26401673000000003,-0.14681213,-0.17215832,-0.030798930000000002,42.95324773,-27.992112940000002,-11.3199178,-81.61897284999999,0.10753592589,0.487415358,0.2928898534,-0.06307157170000001,-0.1761620502,0.072753065
08:34:08,-0.08755717500000001,0.548752225,0.270068425,-0.147786925,-0.16834970000000002,-0.031613925,42.941169925000004,-28.01706415,-11.319749,-81.651196625,0.111085022525,0.481397755,0.2945017965,-0.06513569325000002,-0.1724690295,0.0753581625
08:34:08,-0.09133732,0.54469404,0.27612012,-0.14876172000000001,-0.16454108,-0.03242892,42.92909212,-28.04201536,-11.3195802,-81.6834204,0.11463411915999999,0.475380152,0.2961137396,-0.06719981480000001,-0.1687760088,0.07796326
08:34:08,-0.09511746500000001,0.540635855,0.282171815,-0.14973651500000001,-0.16073246000000002,-0.033243915,42.917014315,-28.06696657,-11.3194114,-81.715644175,0.11818321579499999,0.469362549,0.2977256827,-0.06926393635,-0.1650829881,0.0805683575
08:34:08,-0.09889761,0.53657767,0.28822351,-0.15071131000000001,-0.15692384,-0.03405891,42.90493651,-28.09191778,-11.3192426,-81.74786795,0.12173231243,0.463344946,0.2993376258,-0.0713280579,-0.1613899674,0.08317345500000001
08:34:08,-0.10267775500000001,0.532519485,0.29427520500000004,-0.15168610500000002,-0.15311522,-0.034873905,42.892858705,-28.11686899,-11.3190738,-81.78009172499999,0.12528140906500002,0.457327343,0.3009495689,-0.07339217945000001,-0.1576969467,0.08577855250000001
08:34:08,-0.1064579,0.5284613,0.3003269,-0.15266090000000002,-0.1493066,-0.035688899999999996,42.880780900000005,-28.1418202,-11.318905,-81.8123155,0.1288305057,0.45130974,0.302561512,-0.075456301,-0.154003926,0.08838365000000001
08:34:08,-0.110238045,0.5244031149999999,0.306378595,-0.15363569500000002,-0.14549798000000003,-0.036503895,42.868703095,-28.16677141,-11.3187362,-81.844539275,0.132379602335,0.44529213700000003,0.3041734551,-0.07752042255000001,-0.15031090530000002,0.09098874750000001
08:34:08,-0.11401819000000002,0.52034493,0.31243029,-0.15461049000000002,-0.14168936000000001,-0.03731889,42.856625290000004,-28.19172262,-11.318567400000001,-81.87676305,0.13592869896999998,0.439274534,0.3057853982,-0.07958454410000002,-0.1466178846,0.09359384500000001
08:34:08,-0.117798335,0.5162867449999999,0.318481985,-0.15558528500000002,-0.13788074,-0.038133885,42.844547485,-28.21667383,-11.3183986,-81.908986825,0.139477795605,0.433256931,0.3073973413,-0.08164866565000001,-0.1429248639,0.09619894250000001
08:34:08,-0.12157848000000002,0.5122285599999999,0.32453368000000005,-0.15656008000000002,-0.13407212000000002,-0.038948880000000005,42.83246968,-28.24162504,-11.318229800000001,-81.9412106,0.14302689223999998,0.427239328,0.3090092844,-0.0837127872,-0.1392318432,0.09880404000000001
08:34:08,-0.125358625,0.508170375,0.330585375,-0.15753487500000002,-0.13026350000000003,-0.039763875000000004,42.820391875,-28.26657625,-11.318061,-81.973434375,0.146575988875,0.421221725,0.3106212275,-0.08577690875000002,-0.1355388225,0.10140913750000001
08:34:08,-0.12913877,0.50411219,0.33663707,-0.15850967000000002,-0.12645488000000002,-0.04057887,42.80831407,-28.29152746,-11.3178922,-82.00565815,0.15012508550999998,0.415204122,0.3122331706,-0.08784103030000001,-0.1318458018,0.10401423500000001
08:34:08,-0.132918915,0.500054005,0.342688765,-0.15948446500000002,-0.12264626000000001,-0.041393865,42.796236265000005,-28.31647867,-11.3177234,-82.037881925,0.153674182145,0.409186519,0.3138451137,-0.08990515185,-0.1281527811,0.10661933250000001
08:34:08,-0.13669906,0.49599582,0.34874046000000003,-0.16045926,-0.11883764000000001,-0.04220886,42.78415846,-28.34142988,-11.3175546,-82.0701057,0.15722327878,0.403168916,0.3154570568,-0.09196927340000001,-0.12445976040000001,0.10922443000000001
08:34:08,-0.14047920500000002,0.491937635,0.35479215500000005,-0.16143405500000002,-0.11502902000000001,-0.043023855,42.772080655,-28.36638109,-11.3173858,-82.102329475,0.160772375415,0.397151313,0.3170689999,-0.09403339495000002,-0.1207667397,0.11182952750000001
08:34:08,-0.14425935,0.48787945,0.36084385,-0.16240885,-0.11122040000000001,-0.04383885,42.76000285,-28.391332300000002,-11.317217,-82.13455325,0.16432147205,0.39113370999999997,0.318680943,-0.09609751650000001,-0.117073719,0.11443462500000001
08:34:08,-0.14803949500000002,0.483821265,0.366895545,-0.16338364500000002,-0.10741178000000001,-0.044653845,42.747925045,-28.41628351,-11.3170482,-82.166777025,0.167870568685,0.385116107,0.3202928861,-0.09816163805,-0.1133806983,0.11703972250000001
08:34:08,-0.15181964,0.47976308,0.37294724,-0.16435844,-0.10360316000000001,-0.045468839999999996,42.73584724,-28.44123472,-11.3168794,-82.1990008,0.17141966532,0.379098504,0.3219048292,-0.10022575960000002,-0.1096876776,0.11964482000000001
08:34:08,-0.15559978500000002,0.475704895,0.37899893500000004,-0.16533323500000002,-0.09979454000000001,-0.046283834999999995,42.723769435,-28.46618593,-11.3167106,-82.231224575,0.174968761955,0.373080901,0.3235167723,-0.10228988115000001,-0.10599465690000001,0.12224991750000001
08:34:08,-0.15937993,0.47164670999999997,0.38505063,-0.16630803,-0.09598592,-0.04709883,42.711691630000004,-28.49113714,-11.3165418,-82.26344835,0.17851785859,0.36706329800000004,0.3251287154,-0.1043540027,-0.10230163620000002,0.12485501500000001
08:34:08,-0.16316007500000002,0.467588525,0.391102325,-0.16728282500000002,-0.09217730000000002,-0.047913825,42.699613825,-28.51608835,-11.316373,-82.295672125,0.182066955225,0.361045695,0.3267406585,-0.10641812425000002,-0.0986086155,0.1274601125
08:34:08,-0.16694022,0.46353034,0.39715402,-0.16825762,-0.08836868,-0.04872882,42.68753602,-28.54103956,-11.3162042,-82.3278959,0.18561605186000002,0.355028092,0.3283526016,-0.10848224580000002,-0.0949155948,0.13006521000000001
08:34:08,-0.170720365,0.459472155,0.403205715,-0.16923241500000002,-0.08456006000000002,-0.049543815000000005,42.675458215,-28.56599077,-11.3160354,-82.36011967499999,0.189165148495,0.349010489,0.32996454470000003,-0.11054636735000001,-0.09122257410000001,0.13267030750000003
08:34:08,-0.17450051,0.45541396999999995,0.40925741000000004,-0.17020721,-0.08075144000000001,-0.050358810000000004,42.66338041,-28.59094198,-11.3158666,-82.39234345,0.19271424513000002,0.342992886,0.3315764878,-0.11261048890000003,-0.08752955340000002,0.13527540500000002
08:34:08,-0.178280655,0.45135578499999995,0.415309105,-0.17118200500000003,-0.07694282000000002,-0.051173805,42.651302605,-28.61589319,-11.3156978,-82.424567225,0.196263341765,0.336975283,0.3331884309,-0.11467461045000002,-0.0838365327,0.1378805025
08:34:08,-0.1820608,0.44729759999999996,0.4213608,-0.1721568,-0.07313420000000001,-0.0519888,42.6392248,-28.6408444,-11.315529,-82.456791,0.19981243840000001,0.33095768000000003,0.334800374,-0.11673873200000001,-0.080143512,0.14048560000000002
08:34:08,-0.185840945,0.44323941499999997,0.427412495,-0.173131595,-0.06932558000000003,-0.052803795,42.627146995000004,-28.66579561,-11.3153602,-82.489014775,0.20336153503499999,0.324940077,0.33641231709999997,-0.11880285355,-0.0764504913,0.14309069750000003
08:34:08,-0.18962109000000002,0.43918123,0.43346419,-0.17410639,-0.06551696000000001,-0.05361879,42.61506919,-28.69074682,-11.3151914,-82.52123854999999,0.20691063167,0.318922474,0.3380242602,-0.12086697510000002,-0.07275747060000001,0.14569579500000002
08:34:08,-0.193401235,0.435123045,0.43951588500000005,-0.175081185,-0.06170834,-0.054433785,42.602991385,-28.71569803,-11.3150226,-82.553462325,0.21045972830499998,0.31290487100000003,0.3396362033,-0.12293109665000002,-0.06906444990000002,0.1483008925
08:34:08,-0.19718138000000002,0.43106486,0.44556757999999996,-0.17605598,-0.057899720000000016,-0.05524878,42.59091358,-28.74064924,-11.3148538,-82.5856861,0.21400882494,0.306887268,0.3412481464,-0.12499521820000001,-0.0653714292,0.15090599000000002
08:34:08,-0.200961525,0.427006675,0.451619275,-0.177030775,-0.0540911,-0.056063774999999996,42.578835775,-28.76560045,-11.314685,-82.617909875,0.21755792157499998,0.300869665,0.3428600895,-0.12705933975000003,-0.061678408500000004,0.15351108750000003
08:34:08,-0.20474167000000001,0.42294849,0.45767097,-0.17800557,-0.05028248000000002,-0.056878769999999995,42.56675797,-28.79055166,-11.3145162,-82.65013365,0.22110701821,0.294852062,0.34447203260000003,-0.12912346130000002,-0.05798538780000001,0.15611618500000002
