Timestamp,linacce_x,linacce_y,linacce_z,gyro_x,gyro_y,gyro_z,X-magnetometer,Y-magnetometer,Z-magnetometer,Yaw, worldXAccel,worldYAccel,worldZAccel,worldXgyro,worldYgyro,worldZgyro
03:43:40,-1.368375,-0.121556,1.044061,0.503553,0.225106,0.163611,-3.456722,-31.486465,-4.737068,169.92154,-0.57043093,-0.44501257,-0.09241176,0.48586407,0.28392395,-0.4436038
03:43:40,-1.3550697299999999,-0.12991768,1.0413066249999998,0.498497925,0.22403,0.16324878,-3.433843545,-31.48492783,-4.72153406,168.18559745,-0.56115344235,-0.45218038665,-0.0975294877,0.48140712539999997,0.282807667025,-0.44059848085
03:43:40,-1.3417644599999998,-0.13827936,1.03855225,0.49344285000000004,0.222954,0.16288656,-3.41096509,-31.483390659999998,-4.70600012,166.44965489999998,-0.5518759547,-0.4593482033,-0.10264721539999999,0.47695018079999996,0.28169138405,-0.4375931617
03:43:40,-1.3284591899999998,-0.14664104,1.0357978749999999,0.488387775,0.221878,0.16252434000000002,-3.388086635,-31.48185349,-4.69046618,164.71371234999998,-0.54259846705,-0.46651601994999997,-0.1077649431,0.4724932362,0.280575101075,-0.43458784255
03:43:40,-1.31515392,-0.15500271999999998,1.0330435,0.4833327,0.220802,0.16216212,-3.36520818,-31.48031632,-4.6749322399999995,162.9777698,-0.5333209794,-0.4736838366,-0.1128826708,0.4680362916,0.2794588181,-0.4315825234
03:43:40,-1.30184865,-0.1633644,1.030289125,0.47827762500000004,0.219726,0.1617999,-3.342329725,-31.478779149999998,-4.659398299999999,161.24182725,-0.52404349175,-0.48085165325,-0.11800039849999999,0.463579347,0.27834253512499996,-0.42857720425
03:43:40,-1.28854338,-0.17172608,1.0275347499999998,0.47322255,0.21865,0.16143768,-3.31945127,-31.47724198,-4.64386436,159.5058847,-0.5147660041,-0.4880194699,-0.1231181262,0.45912240239999996,0.27722625214999996,-0.4255718851
03:43:40,-1.2752381099999999,-0.18008775999999999,1.024780375,0.468167475,0.217574,0.16107546,-3.296572815,-31.47570481,-4.62833042,157.76994215,-0.50548851645,-0.49518728655,-0.1282358539,0.4546654578,0.27610996917499997,-0.42256656595
03:43:40,-1.2619328399999998,-0.18844944,1.0220259999999999,0.46311240000000004,0.216498,0.16071324,-3.27369436,-31.474167639999997,-4.61279648,156.0339996,-0.4962110288,-0.5023551032,-0.1333535816,0.4502085132,0.2749936862,-0.4195612468
03:43:40,-1.2486275699999998,-0.19681112,1.019271625,0.458057325,0.215422,0.16035102,-3.250815905,-31.47263047,-4.59726254,154.29805704999998,-0.48693354115,-0.50952291985,-0.13847130929999998,0.4457515686,0.273877403225,-0.41655592765
03:43:40,-1.2353223,-0.2051728,1.01651725,0.45300225000000005,0.214346,0.15998880000000001,-3.22793745,-31.4710933,-4.5817286,152.5621145,-0.4776560535,-0.5166907365,-0.14358903699999997,0.44129462399999997,0.27276112025,-0.41355060849999997
03:43:40,-1.22201703,-0.21353448,1.0137628749999998,0.44794717500000003,0.21327000000000002,0.15962658000000002,-3.205058995,-31.469556129999997,-4.56619466,150.82617195,-0.46837856585,-0.52385855315,-0.1487067647,0.43683767939999996,0.271644837275,-0.41054528935
03:43:40,-1.20871176,-0.22189616,1.0110085,0.4428921,0.212194,0.15926436,-3.18218054,-31.46801896,-4.55066072,149.0902294,-0.4591010782,-0.5310263698,-0.15382449239999998,0.4323807348,0.2705285543,-0.4075399702
03:43:40,-1.1954064899999999,-0.23025784,1.008254125,0.43783702500000005,0.211118,0.15890214,-3.159302085,-31.46648179,-4.53512678,147.35428685,-0.44982359055,-0.53819418645,-0.15894222009999998,0.4279237902,0.269412271325,-0.40453465104999997
03:43:40,-1.1821012199999998,-0.23861952,1.0054997499999998,0.43278195,0.210042,0.15853992,-3.13642363,-31.46494462,-4.51959284,145.6183443,-0.44054610289999996,-0.5453620030999999,-0.1640599478,0.4234668456,0.26829598834999996,-0.4015293319
03:43:40,-1.1687959499999998,-0.24698119999999998,1.002745375,0.42772687500000006,0.208966,0.1581777,-3.113545175,-31.46340745,-4.5040588999999995,143.88240174999999,-0.43126861525,-0.5525298197499999,-0.16917767549999999,0.41900990099999996,0.26717970537499997,-0.39852401275
03:43:40,-1.1554906799999998,-0.25534288,0.999991,0.42267180000000004,0.20789,0.15781548,-3.09066672,-31.46187028,-4.4885249599999995,142.14645919999998,-0.4219911276,-0.5596976364,-0.17429540319999998,0.4145529564,0.26606342239999997,-0.3955186936
03:43:40,-1.14218541,-0.26370456,0.9972366249999999,0.417616725,0.206814,0.15745326,-3.067788265,-31.46033311,-4.47299102,140.41051665,-0.41271363995,-0.56686545305,-0.1794131309,0.4100960118,0.264947139425,-0.39251337445
03:43:40,-1.12888014,-0.27206624,0.9944822499999999,0.41256165,0.205738,0.15709104000000002,-3.04490981,-31.458795939999998,-4.45745708,138.6745741,-0.40343615229999996,-0.5740332697,-0.1845308586,0.4056390672,0.26383085645,-0.3895080553
03:43:40,-1.1155748699999999,-0.28042792,0.9917278749999999,0.40750657500000004,0.204662,0.15672882,-3.022031355,-31.45725877,-4.44192314,136.93863155,-0.39415866465,-0.58120108635,-0.18964858629999998,0.40118212259999997,0.262714573475,-0.38650273614999997
03:43:40,-1.1022695999999998,-0.2887896,0.9889735,0.4024515,0.203586,0.1563666,-2.9991529000000003,-31.4557216,-4.4263892,135.202689,-0.384881177,-0.588368903,-0.194766314,0.39672517799999996,0.2615982905,-0.383497417
03:43:40,-1.0889643299999998,-0.29715128,0.9862191249999999,0.39739642500000005,0.20251,0.15600438,-2.976274445,-31.454184429999998,-4.41085526,133.46674645,-0.37560368935,-0.59553671965,-0.1998840417,0.39226823339999994,0.260482007525,-0.38049209785
03:43:40,-1.07565906,-0.30551296,0.9834647499999999,0.39234135000000003,0.201434,0.15564216,-2.95339599,-31.45264726,-4.39532132,131.7308039,-0.36632620169999996,-0.6027045363,-0.20500176939999998,0.3878112888,0.25936572454999995,-0.3774867787
03:43:40,-1.06235379,-0.31387464,0.9807103749999999,0.387286275,0.200358,0.15527994,-2.930517535,-31.45111009,-4.37978738,129.99486135,-0.35704871405,-0.60987235295,-0.2101194971,0.3833543442,0.25824944157499996,-0.37448145955
03:43:40,-1.04904852,-0.32223632,0.9779559999999999,0.3822312,0.19928200000000001,0.15491772,-2.90763908,-31.449572919999998,-4.36425344,128.2589188,-0.34777122639999997,-0.6170401696,-0.2152372248,0.37889739959999996,0.25713315859999997,-0.3714761404
03:43:40,-1.03574325,-0.330598,0.975201625,0.37717612500000003,0.198206,0.1545555,-2.884760625,-31.44803575,-4.3487195,126.52297625,-0.33849373875,-0.62420798625,-0.22035495249999998,0.374440455,0.256016875625,-0.36847082124999997
03:43:40,-1.0224379799999999,-0.33895968,0.9724472499999999,0.37212105000000006,0.19713,0.15419328000000002,-2.8618821700000003,-31.44649858,-4.3331855599999995,124.7870337,-0.32921625109999997,-0.6313758029,-0.2254726802,0.3699835104,0.25490059265,-0.3654655021
03:43:40,-1.0091327099999998,-0.34732136,0.9696928749999999,0.36706597500000004,0.196054,0.15383106,-2.839003715,-31.444961409999998,-4.3176516199999995,123.05109114999999,-0.31993876345,-0.63854361955,-0.23059040789999996,0.3655265658,0.253784309675,-0.36246018295
03:43:40,-0.9958274399999999,-0.35568304,0.9669384999999999,0.3620109,0.194978,0.15346884,-2.81612526,-31.44342424,-4.30211768,121.3151486,-0.31066127579999997,-0.6457114362,-0.23570813559999998,0.36106962119999997,0.2526680267,-0.3594548638
03:43:40,-0.9825221699999999,-0.36404472,0.964184125,0.356955825,0.193902,0.15310662,-2.793246805,-31.44188707,-4.28658374,119.57920605,-0.30138378815,-0.65287925285,-0.2408258633,0.35661267659999996,0.251551743725,-0.35644954465
03:43:40,-0.9692168999999999,-0.37240639999999997,0.96142975,0.35190075000000004,0.192826,0.1527444,-2.77036835,-31.440349899999998,-4.2710498,117.8432635,-0.29210630049999997,-0.6600470695,-0.24594359099999996,0.35215573199999994,0.25043546075,-0.3534442255
03:43:40,-0.9559116299999999,-0.38076808,0.9586753749999999,0.346845675,0.19175,0.15238218,-2.747489895,-31.43881273,-4.25551586,116.10732095,-0.28282881285,-0.66721488615,-0.2510613187,0.3476987874,0.24931917777499998,-0.35043890635
03:43:40,-0.9426063599999999,-0.38912976,0.9559209999999999,0.34179060000000006,0.190674,0.15201996,-2.7246114400000003,-31.43727556,-4.23998192,114.3713784,-0.2735513252,-0.6743827028,-0.2561790464,0.3432418428,0.2482028948,-0.3474335872
03:43:40,-0.9293010899999998,-0.39749144,0.9531666249999999,0.33673552500000004,0.189598,0.15165774,-2.701732985,-31.435738389999997,-4.22444798,112.63543585,-0.26427383754999995,-0.68155051945,-0.26129677409999996,0.33878489819999996,0.24708661182499997,-0.34442826805
03:43:40,-0.9159958199999998,-0.40585312,0.95041225,0.33168045,0.188522,0.15129552000000002,-2.67885453,-31.43420122,-4.20891404,110.89949329999999,-0.2549963499,-0.6887183361,-0.2664145018,0.3343279536,0.24597032884999998,-0.3414229489
03:43:40,-0.9026905499999999,-0.4142148,0.947657875,0.326625375,0.187446,0.1509333,-2.655976075,-31.43266405,-4.1933801,109.16355075,-0.24571886224999995,-0.69588615275,-0.2715322295,0.329871009,0.24485404587499998,-0.33841762975
03:43:40,-0.8893852799999998,-0.42257648,0.9449034999999999,0.32157030000000003,0.18637,0.15057108,-2.63309762,-31.431126879999997,-4.17784616,107.4276082,-0.23644137459999998,-0.7030539694,-0.27664995719999996,0.3254140644,0.2437377629,-0.3354123106
03:43:40,-0.8760800099999999,-0.43093816,0.9421491249999999,0.31651522500000007,0.18529400000000001,0.15020886,-2.610219165,-31.42958971,-4.16231222,105.69166565,-0.22716388694999995,-0.71022178605,-0.2817676849,0.32095711979999997,0.242621479925,-0.33240699145
03:43:40,-0.8627747399999999,-0.43929984,0.93939475,0.31146015000000005,0.184218,0.14984664,-2.5873407100000003,-31.42805254,-4.1467782799999995,103.9557231,-0.21788639929999998,-0.7173896027,-0.2868854126,0.31650017519999996,0.24150519695,-0.3294016723
03:43:40,-0.8494694699999998,-0.44766152,0.936640375,0.306405075,0.183142,0.14948442,-2.564462255,-31.42651537,-4.13124434,102.21978055,-0.20860891164999995,-0.72455741935,-0.29200314029999996,0.31204323059999994,0.24038891397499998,-0.32639635315000004
03:43:40,-0.8361641999999998,-0.45602319999999996,0.9338859999999999,0.30135,0.182066,0.1491222,-2.5415838,-31.424978199999998,-4.1157104,100.48383799999999,-0.19933142399999998,-0.731725236,-0.297120868,0.307586286,0.23927263099999999,-0.323391034
03:43:40,-0.8228589299999999,-0.46438488,0.9311316249999999,0.296294925,0.18099,0.14875998,-2.518705345,-31.42344103,-4.10017646,98.74789545,-0.19005393634999995,-0.7388930526499999,-0.3022385957,0.3031293414,0.238156348025,-0.32038571485
03:43:40,-0.8095536599999998,-0.47274656,0.9283772499999999,0.29123985,0.17991400000000002,0.14839776,-2.49582689,-31.42190386,-4.08464252,97.0119529,-0.18077644869999998,-0.7460608692999999,-0.30735632339999996,0.29867239679999996,0.23704006504999997,-0.3173803957
03:43:40,-0.7962483899999998,-0.48110823999999996,0.925622875,0.28618477500000006,0.178838,0.14803554,-2.472948435,-31.420366689999998,-4.06910858,95.27601034999999,-0.17149896104999995,-0.7532286859499999,-0.3124740511,0.2942154522,0.23592378207499998,-0.31437507655
03:43:40,-0.7829431199999999,-0.48946992,0.9228684999999999,0.28112970000000004,0.177762,0.14767332,-2.4500699800000003,-31.41882952,-4.05357464,93.5400678,-0.16222147339999998,-0.7603965025999999,-0.3175917788,0.2897585076,0.23480749909999998,-0.3113697574
03:43:40,-0.7696378499999998,-0.4978316,0.9201141249999999,0.276074625,0.176686,0.1473111,-2.427191525,-31.41729235,-4.0380407,91.80412525,-0.15294398574999996,-0.7675643192499999,-0.32270950649999997,0.285301563,0.233691216125,-0.30836443825000004
03:43:40,-0.7563325799999998,-0.50619328,0.9173597499999999,0.27101955,0.17561,0.14694888,-2.40431307,-31.415755179999998,-4.02250676,90.0681827,-0.14366649809999998,-0.7747321358999999,-0.3278272342,0.28084461839999997,0.23257493315,-0.3053591191
03:43:40,-0.7430273099999999,-0.51455496,0.9146053749999999,0.26596447500000003,0.174534,0.14658666,-2.381434615,-31.41421801,-4.00697282,88.33224015,-0.13438901044999996,-0.78189995255,-0.3329449619,0.27638767379999996,0.23145865017499997,-0.30235379995
03:43:40,-0.7297220399999998,-0.52291664,0.911851,0.2609094,0.173458,0.14622444,-2.35855616,-31.41268084,-3.9914388799999996,86.5962976,-0.12511152279999993,-0.7890677692,-0.33806268959999997,0.27193072919999994,0.23034236719999998,-0.2993484808
03:43:40,-0.7164167699999998,-0.53127832,0.9090966249999999,0.25585432500000005,0.172382,0.14586222000000001,-2.335677705,-31.411143669999998,-3.97590494,84.86035505,-0.11583403514999996,-0.79623558585,-0.3431804173,0.26747378459999993,0.229226084225,-0.29634316165
03:43:40,-0.7031114999999999,-0.53964,0.9063422499999999,0.25079925000000003,0.171306,0.14550000000000002,-2.3127992500000003,-31.4096065,-3.960371,83.1244125,-0.10655654749999993,-0.8034034025,-0.348298145,0.26301684,0.22810980125,-0.2933378425
03:43:40,-0.6898062299999999,-0.54800168,0.9035878749999999,0.245744175,0.17023,0.14513778,-2.2899207950000005,-31.40806933,-3.94483706,81.38846995,-0.09727905984999996,-0.81057121915,-0.35341587269999997,0.25855989539999996,0.22699351827499997,-0.29033252335000004
03:43:40,-0.6765009599999998,-0.55636336,0.9008335,0.24068910000000004,0.169154,0.14477556,-2.26704234,-31.406532159999998,-3.9293031199999997,79.6525274,-0.08800157219999993,-0.8177390358,-0.3585336004,0.2541029508,0.22587723529999998,-0.2873272042
03:43:40,-0.6631956899999999,-0.56472504,0.898079125,0.23563402500000002,0.168078,0.14441334,-2.244163885,-31.40499499,-3.91376918,77.91658485,-0.07872408454999996,-0.82490685245,-0.3636513281,0.24964600619999996,0.22476095232499999,-0.28432188505
03:43:40,-0.6498904199999999,-0.57308672,0.8953247499999999,0.23057895,0.167002,0.14405112,-2.22128543,-31.40345782,-3.89823524,76.1806423,-0.06944659689999999,-0.8320746691,-0.36876905579999997,0.24518906159999998,0.22364466935,-0.2813165659
03:43:40,-0.6365851499999998,-0.5814484,0.8925703749999999,0.22552387500000004,0.16592600000000002,0.1436889,-2.198406975,-31.401920649999997,-3.8827013,74.44469975,-0.060169109249999964,-0.83924248575,-0.3738867835,0.24073211699999997,0.222528386375,-0.27831124675
03:43:40,-0.6232798799999999,-0.58981008,0.8898159999999999,0.22046880000000002,0.16485,0.14332668,-2.1755285200000003,-31.40038348,-3.86716736,72.70875720000001,-0.05089162159999994,-0.8464103024,-0.3790045112,0.23627517239999996,0.2214121034,-0.2753059276
03:43:40,-0.6099746099999999,-0.59817176,0.887061625,0.215413725,0.163774,0.14296446000000002,-2.1526500650000004,-31.39884631,-3.8516334199999998,70.97281465,-0.04161413394999991,-0.85357811905,-0.38412223889999997,0.23181822779999994,0.22029582042499998,-0.27230060845000004
03:43:40,-0.5966693399999998,-0.60653344,0.88430725,0.21035865000000004,0.162698,0.14260224,-2.12977161,-31.397309139999997,-3.8360994799999997,69.2368721,-0.032336646299999994,-0.8607459357,-0.3892399666,0.2273612832,0.21917953745,-0.2692952893
03:43:40,-0.5833640699999998,-0.6148951199999999,0.8815528749999999,0.20530357500000002,0.161622,0.14224002,-2.106893155,-31.39577197,-3.8205655399999996,67.50092955,-0.023059158649999967,-0.86791375235,-0.3943576943,0.22290433859999997,0.21806325447499997,-0.26628997015
03:43:40,-0.5700587999999999,-0.6232567999999999,0.8787984999999999,0.20024850000000005,0.16054600000000002,0.1418778,-2.0840147,-31.3942348,-3.8050316,65.764987,-0.01378167099999994,-0.875081569,-0.39947542199999997,0.21844739399999996,0.21694697149999997,-0.263284651
03:43:40,-0.5567535299999998,-0.63161848,0.876044125,0.19519342500000003,0.15947,0.14151558,-2.061136245,-31.392697629999997,-3.78949766,64.02904445,-0.004504183349999913,-0.88224938565,-0.4045931497,0.21399044939999995,0.21583068852499998,-0.26027933185
03:43:40,-0.5434482599999998,-0.63998016,0.87328975,0.19013835,0.158394,0.14115336,-2.0382577900000003,-31.39116046,-3.77396372,62.293101899999996,0.004773304300000003,-0.8894172023,-0.4097108774,0.2095335048,0.21471440555,-0.25727401270000005
03:43:40,-0.5301429899999999,-0.64834184,0.870535375,0.18508327500000005,0.157318,0.14079114,-2.0153793350000004,-31.38962329,-3.7584297799999997,60.557159350000006,0.01405079195000003,-0.89658501895,-0.41482860509999997,0.20507656019999998,0.213598122575,-0.25426869355000004
03:43:40,-0.5168377199999998,-0.65670352,0.8677809999999999,0.18002820000000003,0.156242,0.14042892,-1.9925008800000001,-31.38808612,-3.74289584,58.8212168,0.023328279600000057,-0.9037528356,-0.4199463328,0.20061961559999997,0.2124818396,-0.2512633744
03:43:40,-0.5035324499999998,-0.6650652,0.8650266249999999,0.174973125,0.15516600000000003,0.1400667,-1.969622425,-31.386548949999998,-3.7273619,57.08527425,0.032605767250000084,-0.91092065225,-0.4250640605,0.19616267099999996,0.211365556625,-0.24825805525000003
03:43:40,-0.4902271799999999,-0.67342688,0.86227225,0.16991805000000004,0.15409,0.13970448,-1.9467439700000002,-31.38501178,-3.71182796,55.34933170000001,0.04188325490000011,-0.9180884689,-0.43018178819999997,0.19170572639999994,0.21024927364999998,-0.2452527361
03:43:40,-0.47692190999999984,-0.68178856,0.8595178749999999,0.16486297500000002,0.153014,0.13934226,-1.9238655150000001,-31.38347461,-3.69629402,53.61338915,0.05116074255000003,-0.92525628555,-0.4352995159,0.18724878179999999,0.209132990675,-0.24224741695000002
03:43:40,-0.4636166399999998,-0.69015024,0.8567635,0.1598079,0.15193800000000002,0.13898004,-1.90098706,-31.381937439999998,-3.6807600799999998,51.8774466,0.060438230200000054,-0.9324241021999999,-0.4404172436,0.18279183719999997,0.20801670769999997,-0.23924209780000003
03:43:40,-0.4503113699999999,-0.69851192,0.8540091249999999,0.15475282500000004,0.150862,0.13861782,-1.8781086050000002,-31.38040027,-3.6652261399999997,50.14150405000001,0.06971571785000008,-0.9395919188499999,-0.44553497129999997,0.17833489259999996,0.20690042472499998,-0.23623677865
03:43:40,-0.43700609999999984,-0.7068736,0.85125475,0.14969775000000002,0.149786,0.1382556,-1.8552301500000001,-31.3788631,-3.6496921999999996,48.405561500000005,0.07899320550000011,-0.9467597354999999,-0.450652699,0.17387794799999995,0.20578414174999998,-0.23323145950000002
03:43:40,-0.4237008299999998,-0.71523528,0.848500375,0.14464267500000005,0.14871,0.13789338,-1.832351695,-31.377325929999998,-3.63415826,46.66961895,0.08827069315000002,-0.9539275521499999,-0.4557704267,0.1694210034,0.204667858775,-0.23022614035000002
03:43:40,-0.41039555999999977,-0.72359696,0.8457459999999999,0.13958760000000003,0.147634,0.13753116,-1.8094732400000002,-31.37578876,-3.61862432,44.933676399999996,0.09754818080000005,-0.9610953687999999,-0.46088815439999997,0.16496405879999998,0.2035515758,-0.22722082120000003
03:43:40,-0.39709028999999985,-0.73195864,0.8429916249999999,0.13453252500000001,0.14655800000000002,0.13716894000000002,-1.7865947850000001,-31.37425159,-3.60309038,43.197733850000006,0.10682566845000008,-0.9682631854499999,-0.4660058821,0.16050711419999997,0.202435292825,-0.22421550205000002
03:43:40,-0.3837850199999998,-0.74032032,0.8402372499999999,0.12947745000000005,0.145482,0.13680672,-1.76371633,-31.372714419999998,-3.58755644,41.461791300000016,0.1161031561000001,-0.9754310020999999,-0.4711236098,0.15605016959999995,0.20131900984999998,-0.22121018290000002
03:43:40,-0.3704797499999998,-0.748682,0.837482875,0.12442237500000003,0.144406,0.1364445,-1.7408378750000002,-31.37117725,-3.5720225,39.72584875000001,0.12538064375000002,-0.9825988187499999,-0.4762413375,0.15159322499999994,0.200202726875,-0.21820486375000003
03:43:40,-0.35717447999999985,-0.75704368,0.8347285,0.11936730000000001,0.14333,0.13608228,-1.7179594200000001,-31.36964008,-3.55648856,37.98990620000001,0.13465813140000005,-0.9897666353999999,-0.4813590652,0.14713628039999999,0.1990864439,-0.21519954460000001
03:43:40,-0.3438692099999998,-0.76540536,0.8319741249999999,0.11431222500000005,0.142254,0.13572006,-1.695080965,-31.368102909999998,-3.54095462,36.25396365,0.14393561905000007,-0.9969344520499999,-0.4864767929,0.14267933579999997,0.19797016092499997,-0.21219422545000002
03:43:40,-0.3305639399999998,-0.77376704,0.8292197499999999,0.10925715000000003,0.14117800000000003,0.13535784,-1.6722025100000002,-31.36656574,-3.52542068,34.5180211,0.1532131067000001,-1.0041022686999999,-0.4915945206,0.13822239119999996,0.19685387794999998,-0.20918890630000003
03:43:40,-0.31725866999999974,-0.78212872,0.826465375,0.104202075,0.140102,0.13499562,-1.6493240550000001,-31.36502857,-3.50988674,32.782078549999994,0.16249059435000002,-1.01127008535,-0.4967122483,0.13376544659999995,0.19573759497499998,-0.20618358715000001
03:43:40,-0.3039533999999997,-0.7904903999999999,0.823711,0.09914700000000004,0.139026,0.13463340000000001,-1.6264456000000003,-31.363491399999997,-3.4943527999999997,31.04613599999999,0.17176808200000004,-1.018437902,-0.5018299759999999,0.129308502,0.194621312,-0.20317826800000002
03:43:40,-0.2906481299999999,-0.79885208,0.820956625,0.09409192500000002,0.13795000000000002,0.13427118,-1.6035671450000002,-31.36195423,-3.4788188599999996,29.310193450000014,0.18104556965000007,-1.02560571865,-0.5069477037,0.12485155739999998,0.193505029025,-0.20017294885000003
03:43:40,-0.27734285999999986,-0.80721376,0.8182022499999999,0.08903685,0.136874,0.13390896,-1.5806886900000001,-31.36041706,-3.4632849199999995,27.57425090000001,0.1903230573000001,-1.0327735353,-0.5120654313999999,0.12039461279999997,0.19238874605,-0.1971676297
03:43:40,-0.2640375899999998,-0.8155754399999999,0.8154478749999999,0.08398177500000004,0.135798,0.13354674,-1.5578102350000003,-31.358879889999997,-3.44775098,25.838308350000005,0.19960054495000012,-1.03994135195,-0.5171831590999999,0.11593766819999995,0.19127246307499998,-0.19416231055000002
03:43:40,-0.2507323199999998,-0.82393712,0.8126935,0.07892670000000002,0.134722,0.13318452,-1.5349317800000002,-31.35734272,-3.43221704,24.1023658,0.20887803260000004,-1.0471091686,-0.5223008868,0.11148072359999994,0.1901561801,-0.19115699140000003
03:43:40,-0.23742704999999975,-0.8322988,0.809939125,0.07387162500000005,0.133646,0.1328223,-1.5120533250000001,-31.35580555,-3.4166831,22.366423249999997,0.21815552025000007,-1.05427698525,-0.5274186144999999,0.10702377899999999,0.18903989712499997,-0.18815167225
03:43:40,-0.22412177999999972,-0.8406604799999999,0.80718475,0.06881655000000003,0.13257000000000002,0.13246008,-1.4891748700000003,-31.354268379999997,-3.40114916,20.630480699999993,0.2274330079000001,-1.0614448019,-0.5325363421999999,0.10256683439999997,0.18792361414999997,-0.18514635310000005
03:43:40,-0.2108165099999999,-0.84902216,0.8044303749999999,0.06376147500000001,0.131494,0.13209786,-1.4662964150000002,-31.352731209999998,-3.38561522,18.894538150000017,0.23671049555000012,-1.06861261855,-0.5376540699,0.09810988979999996,0.18680733117499998,-0.18214103395000003
03:43:40,-0.19751123999999987,-0.85738384,0.8016759999999999,0.05870640000000005,0.130418,0.13173564,-1.44341796,-31.35119404,-3.37008128,17.158595600000012,0.24598798320000004,-1.0757804352,-0.5427717975999999,0.09365294519999995,0.1856910482,-0.1791357148
03:43:40,-0.18420596999999983,-0.8657455199999999,0.798921625,0.05365132500000003,0.129342,0.13137342,-1.4205395050000003,-31.34965687,-3.35454734,15.422653050000008,0.25526547085000006,-1.08294825185,-0.5478895252999999,0.08919600059999994,0.184574765225,-0.17613039565000005
03:43:40,-0.1709006999999998,-0.8741072,0.79616725,0.04859625000000001,0.128266,0.1310112,-1.39766105,-31.348119699999998,-3.3390134,13.686710500000004,0.2645429585000001,-1.0901160685,-0.553007253,0.08473905599999998,0.18345848225,-0.17312507650000003
03:43:40,-0.15759542999999976,-0.88246888,0.793412875,0.04354117500000004,0.12719000000000003,0.13064898,-1.374782595,-31.34658253,-3.3234794599999997,11.95076795,0.2738204461500001,-1.09728388515,-0.5581249806999999,0.08028211139999997,0.182342199275,-0.17011975735
03:43:40,-0.14429015999999972,-0.8908305599999999,0.7906584999999999,0.03848610000000002,0.126114,0.13028676,-1.3519041400000003,-31.34504536,-3.3079455199999996,10.214825399999995,0.28309793380000003,-1.1044517018,-0.5632427083999999,0.07582516679999995,0.18122591629999998,-0.16711443820000005
03:43:40,-0.1309848899999999,-0.89919224,0.787904125,0.033431025,0.125038,0.12992454,-1.329025685,-31.343508189999998,-3.2924115799999996,8.47888285000002,0.29237542145000006,-1.11161951845,-0.5683604361,0.07136822219999994,0.180109633325,-0.16410911905000003
03:43:40,-0.11767961999999987,-0.90755392,0.78514975,0.02837595000000004,0.123962,0.12956232,-1.30614723,-31.34197102,-3.27687764,6.742940300000015,0.3016529091000001,-1.1187873351,-0.5734781637999999,0.06691127759999999,0.17899335034999997,-0.1611037999
03:43:40,-0.10437434999999984,-0.9159155999999999,0.7823953749999999,0.02332087500000002,0.12288600000000001,0.12920009999999998,-1.2832687750000003,-31.34043385,-3.2613437,5.006997750000011,0.3109303967500001,-1.12595515175,-0.5785958914999999,0.06245433299999997,0.17787706737499998,-0.15809848075000005
03:43:40,-0.0910690799999998,-0.92427728,0.779641,0.0182658,0.12181,0.12883788000000002,-1.26039032,-31.338896679999998,-3.2458097599999998,3.2710552000000064,0.32020788440000014,-1.1331229684,-0.5837136192,0.05799738839999996,0.17676078439999998,-0.15509316160000003
03:43:40,-0.07776380999999977,-0.93263896,0.7768866249999999,0.013210725000000034,0.12073400000000001,0.12847566,-1.237511865,-31.33735951,-3.23027582,1.535112650000002,0.32948537205000006,-1.14029078505,-0.5888313468999999,0.05354044379999995,0.175644501425,-0.15208784245
03:43:40,-0.06445853999999973,-0.9410006399999999,0.77413225,0.008155650000000014,0.11965800000000001,0.12811344,-1.2146334100000002,-31.33582234,-3.21474188,-0.20082990000000223,0.3387628597000001,-1.1474586017,-0.5939490745999999,0.049083499199999936,0.17452821845,-0.14908252330000005
03:43:40,-0.051153269999999695,-0.94936232,0.771377875,0.00310057500000005,0.118582,0.12775122,-1.1917549550000004,-31.334285169999998,-3.19920794,-1.9367724500000065,0.3480403473500001,-1.15462641835,-0.5990668022999999,0.04462655459999998,0.173411935475,-0.14607720415000003
03:43:40,-0.03784799999999988,-0.957724,0.7686234999999999,-0.00195449999999997,0.11750600000000001,0.127389,-1.1688765,-31.332748,-3.183674,-3.6727149999999824,0.35731783500000014,-1.161794235,-0.6041845299999999,0.04016960999999997,0.1722956525,-0.143071885
03:43:40,-0.024542729999999846,-0.96608568,0.765869125,-0.00700957499999999,0.11643,0.12702678,-1.1459980450000002,-31.33121083,-3.16814006,-5.408657549999987,0.36659532265000006,-1.16896205165,-0.6093022576999999,0.035712665399999954,0.17117936952499999,-0.14006656585000005
03:43:40,-0.01123745999999981,-0.97444736,0.76311475,-0.01206465000000001,0.11535400000000001,0.12666456,-1.1231195900000004,-31.329673659999997,-3.1526061199999997,-7.144600099999991,0.3758728103000001,-1.1761298682999999,-0.6144199853999999,0.03125572079999994,0.17006308655,-0.13706124670000003
03:43:40,0.0020678100000002253,-0.98280904,0.760360375,-0.01711972499999992,0.114278,0.12630234,-1.100241135,-31.32813649,-3.1370721799999997,-8.880542649999995,0.3851502979500001,-1.1832976849499999,-0.6195377130999999,0.026798776199999985,0.16894680357499997,-0.13405592755
03:43:40,0.015373080000000261,-0.99117072,0.757606,-0.02217479999999994,0.11320200000000001,0.12594012,-1.0773626800000002,-31.32659932,-3.1215382399999996,-10.6164852,0.39442778560000014,-1.1904655015999999,-0.6246554407999999,0.022341831599999973,0.16783052059999998,-0.13105060840000005
03:43:40,0.028678350000000297,-0.9995324,0.7548516249999999,-0.02722987499999996,0.112126,0.1255779,-1.0544842250000004,-31.325062149999997,-3.1060043,-12.352427750000004,0.40370527325000005,-1.1976333182499999,-0.6297731684999999,0.01788488699999996,0.16671423762499998,-0.12804528925000003
03:43:40,0.04198362000000011,-1.00789408,0.7520972499999999,-0.03228494999999998,0.11105000000000001,0.12521568,-1.03160577,-31.32352498,-3.09047036,-14.08837029999998,0.4129827609000001,-1.2048011348999998,-0.6348908961999999,0.013427942399999948,0.16559795465,-0.1250399701
03:43:40,0.055288890000000146,-1.01625576,0.749342875,-0.037340025,0.10997400000000002,0.12485346,-1.0087273150000002,-31.32198781,-3.07493642,-15.824312849999984,0.4222602485500001,-1.21196895155,-0.6400086238999999,0.008970997799999936,0.164481671675,-0.12203465095000005
03:43:40,0.06859416000000018,-1.02461744,0.7465885,-0.04239510000000002,0.10889800000000001,0.12449124,-0.9858488600000004,-31.320450639999997,-3.05940248,-17.56025539999999,0.4315377362,-1.2191367682,-0.6451263515999999,0.004514053199999979,0.1633653887,-0.11902933180000003
03:43:40,0.08189943000000022,-1.03297912,0.743834125,-0.04745017499999993,0.10782200000000002,0.12412902,-0.9629704050000001,-31.31891347,-3.04386854,-19.296197949999993,0.44081522385000016,-1.22630458485,-0.6502440792999999,5.7108599999966536e-05,0.162249105725,-0.11602401265000001
03:43:40,0.09520470000000025,-1.0413408,0.7410797499999999,-0.05250524999999995,0.10674600000000001,0.1237668,-0.9400919500000002,-31.3173763,-3.0283346,-21.032140499999997,0.4500927115000001,-1.2334724015,-0.6553618069999999,-0.004399836000000046,0.16113282275,-0.11301869350000004
03:43:40,0.10850997000000029,-1.04970248,0.738325375,-0.05756032499999997,0.10567000000000001,0.12340458,-0.9172134950000004,-31.315839129999997,-3.01280066,-22.76808305,0.45937019915,-1.24064021815,-0.6604795346999999,-0.008856780600000058,0.160016539775,-0.11001337435000003
03:43:40,0.1218152400000001,-1.05806416,0.735571,-0.06261539999999999,0.104594,0.12304235999999999,-0.8943350400000001,-31.314301959999998,-2.99726672,-24.504025599999977,0.46864768680000013,-1.2478080348,-0.6655972624,-0.01331372520000007,0.1589002568,-0.10700805520000001
03:43:40,0.13512051000000014,-1.06642584,0.7328166249999999,-0.06767047500000001,0.10351800000000001,0.12268014,-0.8714565850000002,-31.31276479,-2.9817327799999997,-26.23996814999998,0.47792517445000005,-1.25497585145,-0.6707149900999999,-0.017770669800000083,0.15778397382499998,-0.10400273605000004
03:43:40,0.14842578000000017,-1.07478752,0.73006225,-0.07272555000000003,0.102442,0.12231792,-0.8485781300000004,-31.31122762,-2.9661988399999997,-27.975910699999986,0.4872026621000002,-1.2621436681,-0.6758327177999999,-0.022227614400000095,0.15666769084999999,-0.10099741690000003
03:43:40,0.1617310500000002,-1.0831491999999998,0.7273078749999999,-0.07778062499999994,0.10136600000000001,0.1219557,-0.8256996750000001,-31.309690449999998,-2.9506648999999996,-29.71185324999999,0.4964801497500001,-1.26931148475,-0.6809504455,-0.026684558999999997,0.155551407875,-0.09799209775000006
03:43:40,0.17503632000000025,-1.09151088,0.7245535,-0.08283569999999996,0.10029,0.12159348,-0.8028212200000002,-31.30815328,-2.93513096,-31.447795799999994,0.5057576374,-1.2764793014,-0.6860681731999999,-0.03114150360000001,0.1544351249,-0.09498677860000004
03:43:40,0.18834159000000028,-1.09987256,0.721799125,-0.08789077499999998,0.099214,0.12123126000000001,-0.7799427650000004,-31.30661611,-2.91959702,-33.18373835,0.5150351250500002,-1.28364711805,-0.6911859008999999,-0.03559844820000002,0.15331884192499998,-0.09198145945000002
03:43:40,0.20164686000000032,-1.1082342399999998,0.7190447499999999,-0.09294585,0.098138,0.12086904,-0.7570643100000001,-31.305078939999998,-2.90406308,-34.9196809,0.5243126127000001,-1.2908149347,-0.6963036286,-0.040055392800000034,0.15220255894999998,-0.08897614030000006
03:43:40,0.21495213000000013,-1.11659592,0.716290375,-0.09800092500000002,0.09706200000000001,0.12050682,-0.7341858550000002,-31.30354177,-2.88852914,-36.65562344999998,0.5335901003500002,-1.29798275135,-0.7014213562999999,-0.044512337400000046,0.151086275975,-0.08597082115000004
03:43:40,0.22825740000000017,-1.1249576,0.713536,-0.10305599999999993,0.09598600000000002,0.12014459999999999,-0.7113074000000004,-31.3020046,-2.8729952,-38.39156599999998,0.5428675880000001,-1.305150568,-0.7065390839999999,-0.04896928200000006,0.149969993,-0.08296550200000002
03:43:40,0.2415626700000002,-1.13331928,0.710781625,-0.10811107499999995,0.09491000000000002,0.11978238,-0.6884289450000001,-31.300467429999998,-2.85746126,-40.12750854999999,0.55214507565,-1.31231838465,-0.7116568117,-0.05342622660000007,0.148853710025,-0.07996018285000006
03:43:40,0.25486794000000024,-1.14168096,0.70802725,-0.11316614999999997,0.093834,0.11942016,-0.6655504900000002,-31.29893026,-2.84192732,-41.86345109999999,0.5614225633000002,-1.3194862013,-0.7167745393999999,-0.05788317120000008,0.14773742704999998,-0.07695486370000004
03:43:40,0.2681732100000003,-1.15004264,0.7052728749999999,-0.11822122499999999,0.09275800000000001,0.11905794,-0.6426720350000004,-31.29739309,-2.82639338,-43.599393649999996,0.5707000509500001,-1.32665401795,-0.7218922670999999,-0.062340115800000095,0.146621144075,-0.07394954455000002
03:43:40,0.2814784800000003,-1.15840432,0.7025185,-0.1232763,0.09168200000000001,0.11869572,-0.6197935800000001,-31.295855919999997,-2.8108594399999998,-45.3353362,0.5799775386,-1.3338218346,-0.7270099948,-0.0667970604,0.1455048611,-0.07094422540000006
03:43:40,0.2947837500000001,-1.166766,0.699764125,-0.12833137500000003,0.09060600000000002,0.11833350000000001,-0.5969151250000002,-31.29431875,-2.7953254999999997,-47.071278749999976,0.5892550262500001,-1.34098965125,-0.7321277224999999,-0.07125400500000001,0.144388578125,-0.06793890625000004
03:43:40,0.30808902000000016,-1.17512768,0.69700975,-0.13338644999999993,0.08953,0.11797128,-0.5740366700000004,-31.29278158,-2.7797915599999996,-48.80722129999998,0.5985325139000001,-1.3481574679,-0.7372454501999999,-0.07571094960000002,0.14327229514999998,-0.06493358710000002
03:43:40,0.3213942900000002,-1.18348936,0.694255375,-0.13844152499999995,0.088454,0.11760906,-0.5511582150000001,-31.291244409999997,-2.76425762,-50.543163849999985,0.6078100015500002,-1.35532528455,-0.7423631779,-0.08016789420000003,0.14215601217499998,-0.06192826795000006
03:43:40,0.33469956000000023,-1.19185104,0.6915009999999999,-0.14349659999999997,0.08737800000000001,0.11724683999999999,-0.5282797600000002,-31.28970724,-2.74872368,-52.27910639999999,0.6170874892000001,-1.3624931012,-0.7474809055999999,-0.08462483880000005,0.1410397292,-0.05892294880000004
03:43:40,0.34800483000000026,-1.20021272,0.6887466250000001,-0.148551675,0.08630200000000002,0.11688462,-0.5054013050000004,-31.28817007,-2.73318974,-54.01504894999999,0.62636497685,-1.3696609178499999,-0.7525986332999999,-0.08908178340000006,0.139923446225,-0.05591762965000002
03:43:40,0.3613101000000003,-1.2085744,0.68599225,-0.15360675000000001,0.08522600000000002,0.1165224,-0.48252285000000006,-31.286632899999997,-2.7176557999999997,-55.7509915,0.6356424645000002,-1.3768287344999999,-0.757716361,-0.09353872800000007,0.13880716325,-0.05291231050000006
03:43:40,0.37461537000000034,-1.21693608,0.683237875,-0.15866182499999992,0.08415,0.11616018,-0.4596443950000002,-31.28509573,-2.70212186,-57.48693405,0.6449199521500001,-1.3839965511499999,-0.7628340886999999,-0.09799567260000008,0.13769088027499998,-0.04990699135000004
03:43:40,0.38792064000000015,-1.22529776,0.6804835,-0.16371689999999994,0.08307400000000001,0.11579796,-0.43676594000000035,-31.28355856,-2.68658792,-59.22287659999998,0.6541974398000002,-1.3911643677999999,-0.7679518163999999,-0.1024526172000001,0.1365745973,-0.04690167220000002
03:43:40,0.4012259100000002,-1.23365944,0.6777291249999999,-0.16877197499999996,0.08199800000000002,0.11543574,-0.41388748500000005,-31.282021389999997,-2.67105398,-60.95881914999998,0.6634749274500001,-1.3983321844499998,-0.7730695441,-0.1069095618,0.135458314325,-0.04389635305000006
03:43:40,0.4145311800000002,-1.24202112,0.67497475,-0.17382704999999998,0.08092200000000002,0.11507352,-0.3910090300000002,-31.280484219999998,-2.65552004,-62.69476169999999,0.6727524151000001,-1.4055000010999998,-0.7781872717999999,-0.11136650640000001,0.13434203135,-0.04089103390000004
03:43:40,0.42783645000000026,-1.2503828,0.672220375,-0.178882125,0.079846,0.11471129999999999,-0.36813057500000035,-31.27894705,-2.6399861,-64.43070424999999,0.6820299027500002,-1.4126678177499998,-0.7833049994999999,-0.11582345100000002,0.13322574837499998,-0.03788571475000002
03:43:40,0.4411417200000003,-1.25874448,0.669466,-0.18393720000000002,0.07877,0.11434907999999999,-0.34525212000000005,-31.277409879999997,-2.6244521599999997,-66.1666468,0.6913073904000001,-1.4198356344,-0.7884227272,-0.12028039560000003,0.1321094654,-0.03488039560000006
03:43:40,0.45444699000000033,-1.26710616,0.666711625,-0.18899227499999993,0.07769400000000001,0.11398686,-0.3223736650000002,-31.275872709999998,-2.60891822,-67.90258935,0.70058487805,-1.42700345105,-0.7935404548999999,-0.12473734020000005,0.130993182425,-0.03187507645000004
03:43:40,0.46775226000000014,-1.27546784,0.6639572499999999,-0.19404734999999995,0.07661800000000002,0.11362464,-0.29949521000000034,-31.27433554,-2.59338428,-69.63853189999998,0.7098623657000002,-1.4341712677,-0.7986581825999999,-0.12919428480000006,0.12987689945,-0.02886975730000002
03:43:40,0.4810575300000002,-1.28382952,0.661202875,-0.19910242499999997,0.07554200000000003,0.11326242,-0.27661675500000005,-31.27279837,-2.57785034,-71.37447444999998,0.7191398533500001,-1.44133908435,-0.8037759103,-0.13365122940000007,0.128760616475,-0.025864438150000058
03:43:40,0.4943628000000002,-1.2921912,0.6584485,-0.2041575,0.074466,0.1129002,-0.2537383000000002,-31.271261199999998,-2.5623164,-73.11041699999998,0.7284173410000002,-1.448506901,-0.8088936379999999,-0.13810817400000008,0.12764433349999998,-0.02285911900000004
03:43:40,0.5076680700000002,-1.30055288,0.6556941249999999,-0.209212575,0.07339000000000001,0.11253798,-0.23085984500000034,-31.26972403,-2.5467824599999997,-74.84635954999999,0.7376948286500001,-1.45567471765,-0.8140113656999999,-0.1425651186000001,0.126528050525,-0.01985379985000002
03:43:40,0.5209733400000003,-1.30891456,0.65293975,-0.21426764999999992,0.07231400000000002,0.11217576,-0.20798139000000004,-31.26818686,-2.53124852,-76.58230209999999,0.7469723163,-1.4628425343,-0.8191290934,-0.1470220632,0.12541176755,-0.016848480700000057
03:43:40,0.5342786100000003,-1.31727624,0.650185375,-0.21932272499999994,0.07123800000000002,0.11181353999999999,-0.1851029350000002,-31.266649689999998,-2.51571458,-78.31824465,0.7562498039500002,-1.47001035095,-0.8242468210999999,-0.1514790078,0.124295484575,-0.013843161550000038
03:43:40,0.5475838800000004,-1.32563792,0.647431,-0.22437779999999996,0.070162,0.11145131999999999,-0.16222448000000034,-31.26511252,-2.50018064,-80.0541872,0.7655272916000001,-1.4771781676,-0.8293645487999999,-0.15593595240000002,0.12317920159999998,-0.010837842400000075
03:43:40,0.5608891500000002,-1.3339996,0.644676625,-0.22943287499999998,0.06908600000000001,0.1110891,-0.13934602500000004,-31.26357535,-2.4846467,-81.79012974999998,0.7748047792500002,-1.48434598425,-0.8344822765,-0.16039289700000003,0.12206291862499999,-0.007832523250000056
03:43:40,0.5741944200000002,-1.34236128,0.6419222499999999,-0.23448795,0.06801000000000001,0.11072688,-0.11646757000000019,-31.262038179999998,-2.46911276,-83.52607229999998,0.7840822669000002,-1.4915138009,-0.8396000041999999,-0.16484984160000005,0.12094663565,-0.004827204100000038
03:43:40,0.5874996900000002,-1.35072296,0.639167875,-0.23954302500000002,0.06693400000000002,0.11036466,-0.09358911500000033,-31.26050101,-2.4535788199999997,-85.26201484999999,0.7933597545500001,-1.49868161755,-0.8447177318999999,-0.16930678620000006,0.119830352675,-0.0018218849500000744
03:43:40,0.6008049600000003,-1.35908464,0.6364135,-0.24459809999999993,0.065858,0.11000244,-0.07071066000000004,-31.25896384,-2.43804488,-86.99795739999996,0.8026372422000002,-1.5058494342,-0.8498354596,-0.17376373080000007,0.11871406969999998,0.0011834341999999443
03:43:40,0.6141102300000003,-1.36744632,0.633659125,-0.24965317499999995,0.064782,0.10964022,-0.04783220500000018,-31.257426669999997,-2.42251094,-88.73389994999997,0.8119147298500001,-1.51301725085,-0.8549531872999999,-0.17822067540000008,0.11759778672499999,0.004188753349999963
03:43:40,0.6274155000000003,-1.375808,0.63090475,-0.25470824999999997,0.06370600000000001,0.10927799999999999,-0.02495375000000033,-31.2558895,-2.406977,-90.46984249999997,0.8211922175,-1.5201850675,-0.8600709149999999,-0.1826776200000001,0.11648150374999999,0.007194072499999926
03:43:40,0.6407207700000002,-1.38416968,0.6281503749999999,-0.259763325,0.06263000000000002,0.10891577999999999,-0.0020752950000000325,-31.25435233,-2.39144306,-92.20578504999997,0.8304697051500002,-1.52735288415,-0.8651886427,-0.1871345646,0.115365220775,0.010199391649999945
03:43:40,0.6540260400000002,-1.39253136,0.6253960000000001,-0.2648184,0.061554000000000025,0.10855356,0.02080315999999982,-31.252815159999997,-2.3759091199999998,-93.94172759999998,0.8397471928000001,-1.5345207008,-0.8703063703999999,-0.1915915092,0.1142489378,0.013204710799999964
03:43:40,0.6673313100000002,-1.40089304,0.622641625,-0.26987347500000003,0.060478000000000004,0.10819134,0.043681614999999674,-31.25127799,-2.3603751799999997,-95.67767014999998,0.8490246804500002,-1.54168851745,-0.8754240980999999,-0.19604845380000002,0.11313265482499998,0.016210029949999927
03:43:40,0.6806365800000003,-1.40925472,0.61988725,-0.27492854999999994,0.05940200000000001,0.10782912,0.06656006999999997,-31.24974082,-2.34484124,-97.41361269999999,0.8583021681000002,-1.5488563341,-0.8805418258,-0.20050539840000003,0.11201637184999999,0.019215349099999945
03:43:40,0.6939418500000003,-1.4176164,0.617132875,-0.27998362499999996,0.05832600000000002,0.1074669,0.08943852499999982,-31.248203649999997,-2.3293073,-99.14955524999999,0.8675796557500001,-1.55602415075,-0.8856595534999999,-0.20496234300000005,0.110900088875,0.022220668249999964
03:43:40,0.7072471200000003,-1.42597808,0.6143784999999999,-0.2850387,0.05725000000000002,0.10710468,0.11231697999999968,-31.24666648,-2.31377336,-100.8854978,0.8768571434000002,-1.5631919673999999,-0.8907772811999999,-0.20941928760000006,0.1097838059,0.025225987399999927
03:43:40,0.7205523900000004,-1.43433976,0.6116241250000001,-0.290093775,0.056174,0.10674246,0.13519543499999997,-31.24512931,-2.29823942,-102.62144035,0.8861346310500001,-1.57035978405,-0.8958950089,-0.21387623220000007,0.10866752292499998,0.028231306549999946
03:43:40,0.7338576600000004,-1.44270144,0.60886975,-0.29514885,0.05509800000000001,0.10638023999999999,0.15807388999999983,-31.243592139999997,-2.2827054799999997,-104.3573829,0.8954121187,-1.5775276007,-0.9010127365999999,-0.21833317680000008,0.10755123994999999,0.031236625699999965
03:43:40,0.7471629300000004,-1.45106312,0.606115375,-0.3002039249999999,0.054022000000000014,0.10601801999999999,0.18095234499999968,-31.242054969999998,-2.26717154,-106.09332545000001,0.9046896063500002,-1.58469541735,-0.9061304642999999,-0.2227901214000001,0.106434956975,0.03424194484999993
03:43:40,0.7604682000000005,-1.4594247999999999,0.603361,-0.30525899999999995,0.05294600000000002,0.1056558,0.20383079999999953,-31.2405178,-2.2516376,-107.82926800000001,0.9139670940000001,-1.591863234,-0.9112481919999998,-0.227247066,0.105318674,0.03724726399999995
03:43:40,0.7737734700000001,-1.46778648,0.600606625,-0.31031407499999997,0.05187000000000003,0.10529358,0.22670925499999983,-31.238980629999997,-2.23610366,-109.56521054999996,0.9232445816500002,-1.59903105065,-0.9163659196999999,-0.2317040106,0.10420239102500001,0.040252583149999965
03:43:40,0.7870787400000001,-1.47614816,0.59785225,-0.31536915,0.050794000000000006,0.10493136,0.24958770999999969,-31.237443459999998,-2.22056972,-111.30115309999996,0.9325220693000001,-1.6061988673,-0.9214836473999999,-0.23616095520000002,0.10308610804999999,0.04325790229999993
03:43:40,0.8003840100000001,-1.4845098399999999,0.595097875,-0.320424225,0.04971800000000001,0.10456914,0.27246616499999954,-31.23590629,-2.20503578,-113.03709564999997,0.9417995569500001,-1.61336668395,-0.9266013750999998,-0.24061789980000003,0.10196982507499999,0.04626322144999995
03:43:40,0.8136892800000002,-1.49287152,0.5923435,-0.3254793,0.04864200000000002,0.10420692,0.29534461999999984,-31.23436912,-2.1895018399999997,-114.77303819999997,0.9510770446000002,-1.6205345006,-0.9317191027999999,-0.24507484440000005,0.1008535421,0.049268540599999966
03:43:40,0.8269945500000002,-1.5012332,0.589589125,-0.33053437499999994,0.047566000000000025,0.1038447,0.3182230749999997,-31.232831949999998,-2.1739679,-116.50898074999998,0.9603545322500001,-1.62770231725,-0.9368368304999999,-0.24953178900000006,0.099737259125,0.05227385974999993
03:43:40,0.8402998200000003,-1.5095948799999999,0.58683475,-0.33558944999999996,0.046490000000000004,0.10348247999999999,0.34110152999999954,-31.23129478,-2.15843396,-118.24492329999998,0.9696320199000003,-1.6348701339,-0.9419545581999998,-0.25398873360000007,0.09862097614999998,0.05527917889999995
03:43:40,0.8536050900000003,-1.51795656,0.584080375,-0.340644525,0.04541400000000001,0.10312025999999999,0.36397998499999984,-31.22975761,-2.14290002,-119.98086584999999,0.9789095075500002,-1.64203795055,-0.9470722858999999,-0.2584456782000001,0.09750469317499999,0.05828449804999991
03:43:40,0.8669103600000003,-1.52631824,0.581326,-0.3456996,0.044338000000000016,0.10275804,0.3868584399999997,-31.228220439999998,-2.12736608,-121.71680839999999,0.9881869952000001,-1.6492057672,-0.9521900135999999,-0.2629026228000001,0.0963884102,0.06128981719999993
03:43:40,0.8802156300000004,-1.5346799199999999,0.5785716249999999,-0.350754675,0.04326200000000002,0.10239582,0.40973689499999955,-31.22668327,-2.1118321399999997,-123.45275095,0.9974644828500002,-1.65637358385,-0.9573077412999998,-0.2673595674000001,0.095272127225,0.06429513634999995
03:43:40,0.8935209000000004,-1.5430416,0.5758172500000001,-0.3558097499999999,0.042186,0.1020336,0.43261534999999984,-31.2251461,-2.0962982,-125.1886935,1.0067419705000002,-1.6635414005,-0.9624254689999999,-0.271816512,0.09415584424999998,0.06730045549999997
03:43:40,0.9068261700000004,-1.55140328,0.573062875,-0.36086482499999994,0.04111000000000001,0.10167137999999999,0.4554938049999997,-31.223608929999997,-2.08076426,-126.92463605,1.0160194581500002,-1.67070921715,-0.9675431966999999,-0.2762734566,0.09303956127499999,0.07030577464999999
03:43:40,0.9201314400000005,-1.5597649599999999,0.5703085,-0.36591989999999996,0.040034000000000014,0.10130916,0.47837225999999955,-31.22207176,-2.06523032,-128.6605786,1.0252969458,-1.6778770338,-0.9726609243999998,-0.28073040120000003,0.0919232783,0.0733110937999999
03:43:40,0.9334367100000001,-1.56812664,0.567554125,-0.370974975,0.03895800000000002,0.10094694,0.5012507149999998,-31.22053459,-2.04969638,-130.39652114999996,1.03457443345,-1.68504485045,-0.9777786520999999,-0.28518734580000005,0.090806995325,0.07631641294999991
03:43:40,0.9467419800000001,-1.57648832,0.5647997499999999,-0.37603005,0.03788200000000003,0.10058471999999999,0.5241291699999997,-31.218997419999997,-2.03416244,-132.13246369999996,1.0438519211000004,-1.6922126671,-0.9828963797999999,-0.28964429040000006,0.08969071235000001,0.07932173209999993
03:43:40,0.9600472500000001,-1.5848499999999999,0.5620453750000001,-0.381085125,0.036806000000000005,0.10022249999999999,0.547007625,-31.21746025,-2.0186284999999997,-133.86840624999996,1.0531294087500003,-1.69938048375,-0.9880141074999998,-0.29410123500000007,0.08857442937499999,0.08232705124999995
03:43:40,0.9733525200000002,-1.59321168,0.559291,-0.38614019999999993,0.03573000000000001,0.09986028,0.5698860799999999,-31.21592308,-2.00309456,-135.60434879999997,1.0624068964000002,-1.7065483004,-0.9931318351999999,-0.2985581796000001,0.08745814639999999,0.08533237039999997
03:43:40,0.9866577900000002,-1.60157336,0.556536625,-0.39119527499999995,0.03465400000000002,0.09949806,0.5927645349999997,-31.214385909999997,-1.98756062,-137.34029134999997,1.07168438405,-1.71371611705,-0.9982495628999999,-0.3030151242000001,0.086341863425,0.08833768954999999
03:43:40,0.9999630600000002,-1.6099350399999999,0.55378225,-0.39625035,0.033578000000000024,0.09913583999999999,0.6156429899999996,-31.21284874,-1.97202668,-139.07623389999998,1.0809618717,-1.7208839337,-1.0033672906,-0.3074720688000001,0.08522558045,0.0913430086999999
03:43:40,1.0132683300000003,-1.61829672,0.551027875,-0.401305425,0.032502,0.09877361999999999,0.6385214449999994,-31.21131157,-1.9564927399999998,-140.81217644999998,1.0902393593500004,-1.72805175035,-1.0084850183,-0.3119290134,0.08410929747499998,0.09434832784999991
03:43:40,1.0265736000000003,-1.6266584,0.5482735000000001,-0.4063605,0.03142600000000001,0.0984114,0.6613999000000002,-31.209774399999997,-1.9409587999999998,-142.54811899999999,1.0995168470000003,-1.735219567,-1.0136027459999999,-0.316385958,0.08299301449999999,0.09735364699999993
03:43:40,1.0398788700000003,-1.6350200799999999,0.545519125,-0.4114155749999999,0.030350000000000016,0.09804918,0.684278355,-31.208237229999998,-1.9254248600000001,-144.28406155,1.1087943346500002,-1.74238738365,-1.0187204737,-0.32084290260000004,0.081876731525,0.10035896614999995
03:43:40,1.0531841400000004,-1.64338176,0.54276475,-0.41647064999999994,0.029274000000000022,0.09768695999999999,0.7071568099999999,-31.20670006,-1.90989092,-146.0200041,1.1180718223000001,-1.7495552003,-1.0238382014,-0.32529984720000005,0.08076044855,0.10336428529999997
03:43:40,1.0664894100000004,-1.65174344,0.540010375,-0.42152572499999996,0.02819800000000003,0.09732473999999999,0.7300352649999997,-31.205162889999997,-1.89435698,-147.75594665,1.12734930995,-1.7567230169499999,-1.0289559290999999,-0.32975679180000006,0.07964416557500001,0.10636960444999999
03:43:40,1.0797946800000005,-1.6601051199999999,0.537256,-0.4265808,0.027122000000000007,0.09696252,0.7529137199999996,-31.203625719999998,-1.8788230399999999,-149.4918892,1.1366267976,-1.7638908335999999,-1.0340736568,-0.33421373640000007,0.07852788259999999,0.1093749235999999
03:43:40,1.0930999500000005,-1.6684668,0.534501625,-0.431635875,0.026046000000000014,0.0966003,0.7757921749999994,-31.20208855,-1.8632890999999998,-151.22783175,1.1459042852500003,-1.77105865025,-1.0391913845,-0.3386706810000001,0.077411599625,0.11238024274999991
03:43:40,1.10640522,-1.67682848,0.53174725,-0.43669095,0.02497000000000002,0.09623807999999999,0.7986706300000002,-31.200551379999997,-1.8477551599999997,-152.96377429999995,1.1551817729000002,-1.7782264669,-1.0443091122,-0.3431276256000001,0.07629531665,0.11538556189999993
03:43:40,1.1197104900000001,-1.6851901599999999,0.528992875,-0.44174602499999993,0.023894000000000026,0.09587586,0.821549085,-31.199014209999998,-1.83222122,-154.69971684999996,1.1644592605500002,-1.78539428355,-1.0494268399,-0.3475845702000001,0.075179033675,0.11839088104999995
03:43:40,1.1330157600000001,-1.69355184,0.5262385,-0.44680109999999995,0.022818000000000005,0.09551364,0.8444275399999999,-31.19747704,-1.81668728,-156.43565939999996,1.1737367482,-1.7925621002,-1.0545445676,-0.3520415148,0.07406275069999999,0.12139620019999997
03:43:40,1.1463210300000002,-1.70191352,0.523484125,-0.45185617499999997,0.02174200000000001,0.09515142,0.8673059949999997,-31.19593987,-1.80115334,-158.17160194999997,1.18301423585,-1.79972991685,-1.0596622953,-0.3564984594,0.07294646772499999,0.12440151934999999
03:43:40,1.1596263000000002,-1.7102751999999999,0.52072975,-0.45691125,0.020666000000000018,0.09478919999999999,0.8901844499999996,-31.194402699999998,-1.7856193999999999,-159.90754449999997,1.1922917235000003,-1.8068977335,-1.064780023,-0.36095540400000004,0.07183018475,0.1274068384999999
03:43:40,1.1729315700000003,-1.71863688,0.517975375,-0.461966325,0.019590000000000024,0.09442698,0.9130629049999994,-31.19286553,-1.7700854599999998,-161.64348704999998,1.2015692111500003,-1.81406555015,-1.0698977507,-0.36541234860000005,0.070713901775,0.13041215764999992
03:43:40,1.1862368400000003,-1.72699856,0.515221,-0.46702140000000003,0.018514000000000003,0.09406476,0.9359413600000002,-31.19132836,-1.7545515199999997,-163.37942959999998,1.2108466988000002,-1.8212333668,-1.0750154784,-0.36986929320000006,0.06959761879999998,0.13341747679999993
03:43:40,1.1995421100000003,-1.7353602399999999,0.5124666250000001,-0.47207647499999994,0.01743800000000001,0.09370253999999999,0.958819815,-31.189791189999998,-1.73901758,-165.11537214999998,1.22012418645,-1.82840118345,-1.0801332061,-0.3743262378000001,0.06848133582499999,0.13642279594999995
03:43:40,1.2128473800000004,-1.74372192,0.50971225,-0.47713154999999996,0.016362000000000015,0.09334031999999999,0.9816982699999999,-31.18825402,-1.72348364,-166.8513147,1.2294016741,-1.8355690001,-1.0852509338,-0.3787831824000001,0.06736505285,0.13942811509999997
03:43:40,1.2261526500000004,-1.7520836,0.506957875,-0.482186625,0.015286000000000022,0.0929781,1.0045767249999997,-31.18671685,-1.7079497,-168.58725725,1.2386791617500004,-1.84273681675,-1.0903686615,-0.3832401270000001,0.066248769875,0.14243343424999988
03:43:40,1.2394579200000004,-1.76044528,0.5042035,-0.4872417,0.014210000000000028,0.09261588,1.0274551799999996,-31.185179679999997,-1.6924157599999998,-170.3231998,1.2479566494000003,-1.8499046334,-1.0954863892,-0.3876970716000001,0.06513248690000001,0.1454387533999999
03:43:40,1.2527631900000005,-1.76880696,0.501449125,-0.492296775,0.013134000000000007,0.09225365999999999,1.0503336349999994,-31.18364251,-1.6768818199999997,-172.05914235,1.2572341370500002,-1.85707245005,-1.1006041169,-0.3921540162,0.06401620392499999,0.14844407254999992
03:43:40,1.2660684600000005,-1.77716864,0.49869474999999996,-0.49735184999999993,0.012058000000000013,0.09189143999999999,1.0732120899999993,-31.18210534,-1.66134788,-173.7950849,1.2665116247000001,-1.8642402667,-1.1057218446,-0.3966109608,0.06289992095,0.15144939169999994
03:43:40,1.27937373,-1.78553032,0.495940375,-0.502406925,0.01098200000000002,0.09152922,1.096090545,-31.180568169999997,-1.64581394,-175.53102744999995,1.27578911235,-1.87140808335,-1.1108395723,-0.40106790540000004,0.061783637975,0.15445471084999995
03:43:41,1.292679,-1.793892,0.493186,-0.507462,0.009906,0.091167,1.118969,-31.179031,-1.63028,-177.26697,1.2850666,-1.8785759,-1.1159573,-0.40552485,0.060667355,0.15746003
03:43:41,1.288070275,-1.78480905,0.480780975,-0.5054484899999999,0.009080355,0.091438665,1.1029365150000001,-31.180319035,-1.62365692,-175.50999025,1.2723259494999999,-1.86907895235,-1.1053325245,-0.40328902829,0.059588867225,0.1566486116875
03:43:41,1.28346155,-1.7757261,0.46837595,-0.50343498,0.00825471,0.09171032999999999,1.0869040300000001,-31.18160707,-1.61703384,-173.7530105,1.259585299,-1.8595820047,-1.0947077490000001,-0.40105320658,0.05851037945,0.155837193375
03:43:41,1.278852825,-1.76664315,0.455970925,-0.5014214699999999,0.007429065,0.091981995,1.0708715450000001,-31.182895105,-1.61041076,-171.99603075,1.2468446485,-1.85008505705,-1.0840829735,-0.39881738487,0.057431891675,0.1550257750625
03:43:41,1.2742441,-1.7575602000000001,0.4435659,-0.49940796,0.0066034200000000005,0.09225366,1.0548390600000002,-31.18418314,-1.60378768,-170.239051,1.234103998,-1.8405881094,-1.073458198,-0.39658156316,0.0563534039,0.15421435675
03:43:41,1.269635375,-1.74847725,0.431160875,-0.49739445,0.005777775,0.09252532499999999,1.0388065750000002,-31.185471175,-1.5971646,-168.48207125,1.2213633474999999,-1.8310911617499999,-1.0628334225,-0.39434574145,0.055274916125,0.1534029384375
03:43:41,1.2650266499999998,-1.7393943,0.41875585000000004,-0.49538094,0.00495213,0.09279699,1.0227740900000002,-31.186759209999998,-1.59054152,-166.7250915,1.208622697,-1.8215942140999999,-1.052208647,-0.39210991974,0.05419642835,0.152591520125
03:43:41,1.2604179249999998,-1.73031135,0.406350825,-0.49336743,0.004126485,0.093068655,1.0067416050000002,-31.188047245,-1.58391844,-164.96811175,1.1958820465,-1.81209726645,-1.0415838715,-0.38987409803,0.053117940575,0.1517801018125
03:43:41,1.2558091999999998,-1.7212284,0.3939458,-0.49135392,0.00330084,0.09334032,0.9907091200000001,-31.189335279999998,-1.57729536,-163.211132,1.183141396,-1.8026003188,-1.0309590960000001,-0.38763827632,0.0520394528,0.1509686835
03:43:41,1.2512004749999999,-1.71214545,0.381540775,-0.48934040999999995,0.0024751950000000003,0.093611985,0.9746766350000001,-31.190623315,-1.57067228,-161.45415225,1.1704007454999998,-1.79310337115,-1.0203343205,-0.38540245461,0.050960965025,0.1501572651875
03:43:41,1.2465917499999999,-1.7030625000000001,0.36913575,-0.48732689999999995,0.0016495499999999996,0.09388365,0.9586441500000001,-31.191911349999998,-1.5640492,-159.6971725,1.157660095,-1.7836064235,-1.009709545,-0.38316663289999997,0.04988247725,0.149345846875
03:43:41,1.241983025,-1.6939795500000001,0.356730725,-0.48531338999999996,0.0008239049999999998,0.094155315,0.942611665,-31.193199385,-1.55742612,-157.94019275,1.1449194445,-1.77410947585,-0.9990847695,-0.38093081119,0.048803989475,0.1485344285625
03:43:41,1.2373743,-1.6848966,0.3443257,-0.48329987999999996,-1.7400000000000748e-06,0.09442698,0.9265791800000001,-31.194487419999998,-1.55080304,-156.183213,1.1321787939999999,-1.7646125282,-0.9884599940000001,-0.37869498948,0.0477255017,0.14772301025
03:43:41,1.232765575,-1.67581365,0.331920675,-0.48128636999999996,-0.0008273849999999999,0.094698645,0.9105466950000001,-31.195775455,-1.54417996,-154.42623325,1.1194381435,-1.75511558055,-0.9778352185,-0.37645916777,0.046647013924999994,0.1469115919375
03:43:41,1.22815685,-1.6667307,0.31951565000000004,-0.47927285999999997,-0.0016530299999999998,0.09497031,0.8945142100000001,-31.197063489999998,-1.53755688,-152.6692535,1.106697493,-1.7456186329,-0.967210443,-0.37422334605999996,0.04556852615,0.146100173625
03:43:41,1.223548125,-1.65764775,0.307110625,-0.47725934999999997,-0.0024786749999999996,0.09524197499999999,0.8784817250000001,-31.198351525,-1.5309338,-150.91227375,1.0939568425,-1.73612168525,-0.9565856675,-0.37198752435,0.044490038375,0.1452887553125
03:43:41,1.2189394,-1.6485648,0.2947056,-0.47524584,-0.0033043199999999995,0.09551364,0.8624492400000001,-31.199639559999998,-1.52431072,-149.155294,1.0812161919999999,-1.7266247376,-0.945960892,-0.36975170264,0.0434115506,0.144477337
03:43:41,1.214330675,-1.6394818500000001,0.282300575,-0.47323233,-0.004129964999999999,0.095785305,0.8464167550000001,-31.200927595,-1.51768764,-147.39831425,1.0684755415,-1.71712778995,-0.9353361165,-0.36751588093,0.042333062825,0.1436659186875
03:43:41,1.2097219499999998,-1.6303989,0.26989555,-0.47121882,-0.004955609999999999,0.09605696999999999,0.8303842700000001,-31.202215629999998,-1.51106456,-145.6413345,1.055734891,-1.7076308423,-0.9247113410000001,-0.36528005922,0.04125457505,0.142854500375
03:43:41,1.2051132249999998,-1.62131595,0.257490525,-0.46920531,-0.005781255000000001,0.096328635,0.8143517850000002,-31.203503665,-1.5044414799999999,-143.88435475,1.0429942405,-1.69813389465,-0.9140865655,-0.36304423751,0.040176087274999994,0.1420430820625
03:43:41,1.2005044999999999,-1.612233,0.2450855,-0.4671918,-0.006606900000000001,0.0966003,0.7983193000000002,-31.204791699999998,-1.4978183999999999,-142.12737499999997,1.03025359,-1.688636947,-0.90346179,-0.3608084158,0.039097599499999997,0.14123166375
03:43:41,1.1958957749999999,-1.60315005,0.232680475,-0.46517829,-0.0074325450000000005,0.096871965,0.7822868150000002,-31.206079735,-1.4911953199999999,-140.37039525,1.0175129395,-1.67913999935,-0.8928370145,-0.35857259409,0.038019111725,0.1404202454375
03:43:41,1.19128705,-1.5940671,0.22027545000000004,-0.46316478,-0.00825819,0.09714363,0.7662543300000001,-31.207367769999998,-1.4845722399999999,-138.61341549999997,1.004772289,-1.6696430517,-0.882212239,-0.35633677238,0.03694062395,0.139608827125
03:43:41,1.186678325,-1.58498415,0.20787042500000003,-0.46115127,-0.009083835,0.097415295,0.7502218450000001,-31.208655805,-1.4779491599999999,-136.85643575,0.9920316385,-1.66014610405,-0.8715874635,-0.35410095066999997,0.035862136174999996,0.1387974088125
03:43:41,1.1820696,-1.5759012000000001,0.1954654,-0.45913775999999995,-0.00990948,0.09768696,0.7341893600000001,-31.209943839999998,-1.4713260799999999,-135.09945599999998,0.979290988,-1.6506491564,-0.8609626880000001,-0.35186512896,0.0347836484,0.1379859905
03:43:41,1.177460875,-1.56681825,0.183060375,-0.45712425,-0.010735125,0.097958625,0.7181568750000001,-31.211231875,-1.4647029999999999,-133.34247625,0.9665503375,-1.64115220875,-0.8503379125,-0.34962930724999997,0.033705160624999994,0.1371745721875
03:43:41,1.17285215,-1.5577353,0.17065534999999998,-0.45511073999999996,-0.01156077,0.09823029,0.7021243900000002,-31.212519909999997,-1.4580799199999999,-131.58549649999998,0.9538096869999999,-1.6316552611,-0.8397131369999999,-0.34739348554,0.032626672849999996,0.136363153875
03:43:41,1.168243425,-1.54865235,0.15825032500000002,-0.45309722999999996,-0.012386415,0.098501955,0.6860919050000001,-31.213807945,-1.4514568399999999,-129.82851674999998,0.9410690365,-1.62215831345,-0.8290883615,-0.34515766383,0.031548185075,0.1355517355625
03:43:41,1.1636347,-1.5395694,0.1458453,-0.45108371999999997,-0.01321206,0.09877361999999999,0.6700594200000001,-31.215095979999997,-1.4448337599999999,-128.07153699999998,0.928328386,-1.6126613658,-0.818463586,-0.34292184212,0.030469697299999998,0.13474031725
03:43:41,1.159025975,-1.53048645,0.133440275,-0.44907020999999997,-0.014037705,0.099045285,0.6540269350000001,-31.216384015,-1.43821068,-126.31455724999998,0.9155877354999999,-1.60316441815,-0.8078388105000001,-0.34068602041,0.029391209524999996,0.1339288989375
03:43:41,1.1544172499999998,-1.5214035,0.12103525000000004,-0.4470567,-0.014863349999999999,0.09931695,0.6379944500000001,-31.217672049999997,-1.4315875999999998,-124.55757749999998,0.902847085,-1.5936674705,-0.797214035,-0.3384501987,0.02831272175,0.133117480625
03:43:41,1.1498085249999999,-1.51232055,0.10863022500000002,-0.44504319,-0.015688994999999997,0.09958861499999999,0.6219619650000001,-31.218960085,-1.42496452,-122.80059774999998,0.8901064345,-1.58417052285,-0.7865892595,-0.33621437699,0.027234233974999994,0.1323060623125
03:43:41,1.1451997999999999,-1.5032376,0.09622520000000001,-0.44302968,-0.016514639999999997,0.09986028,0.6059294800000001,-31.220248119999997,-1.4183414399999998,-121.04361799999998,0.877365784,-1.5746735752,-0.775964484,-0.33397855528,0.026155746199999996,0.131494644
03:43:41,1.140591075,-1.49415465,0.083820175,-0.44101617,-0.017340284999999997,0.100131945,0.5898969950000001,-31.221536155,-1.41171836,-119.28663824999998,0.8646251334999999,-1.56517662755,-0.7653397085,-0.33174273357,0.025077258425,0.13068322568750002
03:43:41,1.13598235,-1.4850717,0.07141514999999998,-0.43900266,-0.018165929999999997,0.10040361,0.5738645100000002,-31.222824189999997,-1.4050952799999998,-117.52965849999998,0.851884483,-1.5556796799,-0.754714933,-0.32950691186,0.023998770649999994,0.129871807375
03:43:41,1.131373625,-1.47598875,0.059010125000000024,-0.43698915,-0.018991574999999997,0.100675275,0.5578320250000002,-31.224112225,-1.3984722,-115.77267874999998,0.8391438325,-1.5461827322500001,-0.7440901575000001,-0.32727109015,0.022920282874999996,0.1290603890625
03:43:41,1.1267649,-1.4669058,0.04660510000000001,-0.43497564,-0.019817219999999997,0.10094694,0.5417995400000002,-31.225400259999997,-1.3918491199999998,-114.01569899999998,0.826403182,-1.5366857846,-0.733465382,-0.32503526843999997,0.0218417951,0.12824897075
03:43:41,1.122156175,-1.45782285,0.034200074999999996,-0.43296213,-0.020642864999999996,0.101218605,0.5257670550000001,-31.226688295,-1.38522604,-112.25871924999998,0.8136625315,-1.52718883695,-0.7228406064999999,-0.32279944673,0.020763307324999994,0.1274375524375
03:43:41,1.11754745,-1.4487399,0.021795050000000038,-0.43094862,-0.021468510000000003,0.10149027,0.5097345700000001,-31.227976329999997,-1.3786029599999998,-110.50173949999999,0.8009218810000001,-1.5176918893,-0.712215831,-0.32056362502,0.019684819549999996,0.126626134125
03:43:41,1.112938725,-1.43965695,0.009390025000000024,-0.42893510999999995,-0.022294155000000003,0.101761935,0.4937020850000001,-31.229264365,-1.37197988,-108.74475974999999,0.7881812305,-1.50819494165,-0.7015910555,-0.31832780331,0.018606331775,0.1258147158125
03:43:41,1.10833,-1.430574,-0.00301499999999999,-0.4269216,-0.023119800000000003,0.1020336,0.47766960000000014,-31.230552399999997,-1.3653567999999998,-106.98777999999999,0.7754405799999999,-1.498697994,-0.69096628,-0.31609198159999996,0.017527843999999994,0.1250032975
03:43:41,1.1037212749999998,-1.42149105,-0.015420024999999948,-0.42490808999999996,-0.023945445000000003,0.10230526499999999,0.46163711500000015,-31.231840435,-1.35873372,-105.23080024999999,0.7626999295,-1.48920104635,-0.6803415045000001,-0.31385615989,0.016449356224999996,0.12419187918749999
03:43:41,1.0991125499999999,-1.4124081,-0.027825050000000018,-0.42289458,-0.024771090000000003,0.10257693,0.44560463000000017,-31.233128469999997,-1.35211064,-103.47382049999999,0.749959279,-1.4797040987,-0.669716729,-0.31162033818,0.015370868449999998,0.123380460875
03:43:41,1.0945038249999999,-1.4033251500000001,-0.040230074999999976,-0.42088106999999997,-0.025596735000000002,0.102848595,0.4295721450000002,-31.234416505,-1.34548756,-101.71684074999999,0.7372186285,-1.47020715105,-0.6590919534999999,-0.30938451647,0.014292380674999994,0.12256904256250001
03:43:41,1.0898951,-1.3942421999999999,-0.052635099999999935,-0.41886755999999997,-0.026422380000000002,0.10312025999999999,0.4135396600000001,-31.235704539999997,-1.33886448,-99.95986099999999,0.724477978,-1.4607102034000001,-0.648467178,-0.30714869476,0.013213892899999996,0.12175762425
03:43:41,1.085286375,-1.38515925,-0.065040125,-0.41685405,-0.027248025000000002,0.103391925,0.3975071750000001,-31.236992575,-1.3322414,-98.20288124999999,0.7117373275,-1.45121325575,-0.6378424025,-0.30491287305,0.012135405124999998,0.1209462059375
03:43:41,1.08067765,-1.3760763,-0.07744514999999996,-0.41484054,-0.028073670000000002,0.10366359,0.3814746900000001,-31.238280609999997,-1.32561832,-96.44590149999999,0.698996677,-1.4417163081,-0.627217627,-0.30267705134,0.011056917349999994,0.120134787625
03:43:41,1.076068925,-1.36699335,-0.08985017500000003,-0.41282703,-0.028899315000000002,0.103935255,0.36544220500000013,-31.239568645,-1.31899524,-94.68892174999999,0.6862560265,-1.43221936045,-0.6165928515,-0.30044122963,0.009978429574999996,0.11932336931250001
03:43:41,1.0714602,-1.3579104,-0.10225519999999999,-0.41081352,-0.02972496,0.10420692,0.34940972000000015,-31.240856679999997,-1.31237216,-92.93194199999999,0.673515376,-1.4227224128,-0.605968076,-0.29820540792,0.008899941799999998,0.118511951
03:43:41,1.066851475,-1.34882745,-0.11466022499999995,-0.40880001,-0.030550605,0.104478585,0.33337723500000016,-31.242144715,-1.30574908,-91.17496225,0.6607747255,-1.41322546515,-0.5953433005,-0.29596958621,0.007821454024999994,0.1177005326875
03:43:41,1.06224275,-1.3397445000000001,-0.12706525000000002,-0.4067865,-0.03137625,0.10475025,0.3173447500000002,-31.243432749999997,-1.299126,-89.4179825,0.648034075,-1.4037285175,-0.584718525,-0.2937337645,0.006742966249999996,0.11688911437499999
03:43:41,1.057634025,-1.3306615499999999,-0.13947027499999998,-0.40477299,-0.032201895,0.105021915,0.3013122650000002,-31.244720785,-1.29250292,-87.66100275,0.6352934245,-1.39423156985,-0.5740937495,-0.29149794278999996,0.005664478474999991,0.1160776960625
03:43:41,1.0530252999999998,-1.3215786,-0.15187530000000005,-0.40275948,-0.03302754,0.10529358,0.2852797800000002,-31.24600882,-1.28587984,-85.904023,0.622552774,-1.3847346222,-0.563468974,-0.28926212108,0.004585990699999994,0.11526627775
03:43:41,1.048416575,-1.31249565,-0.164280325,-0.40074597,-0.033853185,0.105565245,0.2692472950000001,-31.247296855,-1.27925676,-84.14704325,0.6098121235,-1.3752376745500001,-0.5528441985,-0.28702629937,0.003507502924999996,0.1144548594375
03:43:41,1.0438078499999999,-1.3034127,-0.17668534999999996,-0.39873245999999996,-0.03467883,0.10583690999999999,0.2532148100000001,-31.24858489,-1.27263368,-82.39006349999998,0.597071473,-1.3657407269,-0.542219423,-0.28479047766,0.0024290151499999912,0.113643441125
03:43:41,1.039199125,-1.29432975,-0.18909037500000003,-0.39671895,-0.035504475,0.106108575,0.23718232500000014,-31.249872925,-1.2660106,-80.63308374999998,0.5843308225,-1.3562437792500002,-0.5315946475,-0.28255465595,0.0013505273749999935,0.1128320228125
03:43:41,1.0345904,-1.2852468,-0.2014954,-0.39470543999999996,-0.03633012,0.10638024,0.22114984000000015,-31.25116096,-1.25938752,-78.87610399999998,0.5715901720000001,-1.3467468316,-0.520969872,-0.28031883424,0.00027203959999999583,0.11202060450000001
03:43:41,1.029981675,-1.27616385,-0.21390042499999995,-0.39269193,-0.037155765,0.10665190499999999,0.20511735500000017,-31.252448994999998,-1.25276444,-77.11912424999998,0.5588495215,-1.33724988395,-0.5103450965,-0.27808301253,-0.0008064481750000088,0.1112091861875
03:43:41,1.02537295,-1.2670808999999998,-0.22630545000000002,-0.39067841999999997,-0.03798141,0.10692357,0.18908487000000018,-31.25373703,-1.24614136,-75.36214449999999,0.546108871,-1.3277529363,-0.49972032099999997,-0.27584719082,-0.0018849359500000065,0.110397767875
03:43:41,1.020764225,-1.25799795,-0.23871047499999998,-0.38866491,-0.038807055,0.107195235,0.1730523850000002,-31.255025064999998,-1.23951828,-73.60516474999999,0.5333682205,-1.31825598865,-0.4890955455,-0.27361136911,-0.0029634237250000042,0.10958634956249999
03:43:41,1.0161555,-1.248915,-0.25111549999999994,-0.3866514,-0.0396327,0.1074669,0.1570199000000001,-31.2563131,-1.2328952,-71.84818499999999,0.52062757,-1.308759041,-0.47847076999999993,-0.27137554740000003,-0.004041911500000002,0.10877493125
03:43:41,1.011546775,-1.23983205,-0.263520525,-0.38463789,-0.040458345,0.107738565,0.14098741500000012,-31.257601134999998,-1.22627212,-70.09120524999999,0.5078869195,-1.29926209335,-0.4678459945,-0.26913972569,-0.005120399275,0.1079635129375
03:43:41,1.00693805,-1.2307491,-0.27592554999999996,-0.38262438,-0.04128399,0.10801023,0.12495493000000013,-31.25888917,-1.21964904,-68.33422549999999,0.495146269,-1.2897651457000001,-0.457221219,-0.26690390397999997,-0.006198887050000011,0.107152094625
03:43:41,1.0023293249999998,-1.22166615,-0.28833057500000003,-0.38061087,-0.042109635,0.10828189499999999,0.10892244500000015,-31.260177204999998,-1.21302596,-66.57724574999999,0.48240561849999997,-1.28026819805,-0.44659644349999994,-0.26466808227,-0.007277374825000009,0.1063406763125
03:43:41,0.9977206,-1.2125832,-0.3007356,-0.37859736,-0.04293528,0.10855356,0.09288996000000016,-31.26146524,-1.20640288,-64.82026599999999,0.469664968,-1.2707712504000002,-0.435971668,-0.26243226056,-0.008355862600000007,0.105529258
03:43:41,0.993111875,-1.2035002499999998,-0.31314062499999995,-0.37658385,-0.043760925,0.108825225,0.07685747500000017,-31.262753274999998,-1.1997798,-63.06328624999999,0.45692431750000007,-1.26127430275,-0.4253468925,-0.26019643885,-0.009434350375000004,0.10471783968750001
03:43:41,0.9885031499999999,-1.1944173,-0.32554565,-0.37457034,-0.04458657,0.10909689,0.06082499000000019,-31.26404131,-1.19315672,-61.30630649999999,0.444183667,-1.2517773551000002,-0.41472211699999995,-0.25796061713999996,-0.010512838150000002,0.103906421375
03:43:41,0.9838944249999999,-1.18533435,-0.337950675,-0.37255683,-0.045412215,0.10936855499999999,0.044792505000000205,-31.265329344999998,-1.18653364,-59.54932674999999,0.43144301650000005,-1.24228040745,-0.4040973415,-0.25572479543,-0.011591325925000014,0.1030950030625
03:43:41,0.9792856999999999,-1.1762514,-0.35035570000000005,-0.37054332,-0.04623786,0.10964022,0.02876002000000022,-31.26661738,-1.17991056,-57.79234699999999,0.418702366,-1.2327834598,-0.393472566,-0.25348897372,-0.012669813700000011,0.10228358475
03:43:41,0.974676975,-1.16716845,-0.362760725,-0.36852980999999996,-0.047063505,0.109911885,0.012727535000000234,-31.267905414999998,-1.17328748,-56.03536724999999,0.40596171550000004,-1.22328651215,-0.38284779049999995,-0.25125315201,-0.013748301475000009,0.10147216643750001
03:43:41,0.97006825,-1.1580854999999999,-0.37516574999999996,-0.3665163,-0.04788915,0.11018354999999999,-0.003304949999999751,-31.26919345,-1.1666644,-54.278387499999994,0.393221065,-1.2137895645,-0.372223015,-0.24901733029999998,-0.014826789250000007,0.100660748125
03:43:41,0.965459525,-1.14900255,-0.38757077500000003,-0.36450278999999997,-0.048714795,0.110455215,-0.019337434999999736,-31.270481484999998,-1.16004132,-52.521407749999995,0.38048041450000003,-1.20429261685,-0.3615982394999999,-0.24678150859,-0.015905277025000004,0.0998493298125
03:43:41,0.9608508,-1.1399195999999998,-0.3999758,-0.36248928,-0.04954044,0.11072688,-0.03536991999999972,-31.27176952,-1.15341824,-50.764427999999995,0.36773976399999997,-1.1947956692,-0.35097346399999996,-0.24454568688,-0.016983764800000002,0.09903791149999999
03:43:41,0.956242075,-1.13083665,-0.41238082499999995,-0.36047577,-0.050366085,0.110998545,-0.05140240499999993,-31.273057554999998,-1.14679516,-49.00744824999998,0.3549991135,-1.1852987215500002,-0.3403486885,-0.24230986517,-0.018062252575000014,0.0982264931875
03:43:41,0.95163335,-1.1217537,-0.42478585,-0.35846226000000003,-0.05119173,0.11127021,-0.06743488999999991,-31.27434559,-1.14017208,-47.25046849999998,0.34225846300000007,-1.1758017739,-0.3297239129999999,-0.24007404346,-0.01914074035000001,0.09741507487500001
03:43:41,0.947024625,-1.11267075,-0.437190875,-0.35644875,-0.052017375,0.111541875,-0.0834673749999999,-31.275633624999998,-1.133549,-45.49348874999998,0.3295178125,-1.1663048262500002,-0.31909913749999996,-0.23783822175,-0.02021922812500001,0.0966036565625
03:43:41,0.9424159,-1.1035878000000001,-0.44959589999999994,-0.35443524,-0.052843020000000004,0.11181353999999999,-0.09949985999999988,-31.27692166,-1.12692592,-43.736508999999984,0.31677716200000006,-1.1568078786,-0.308474362,-0.23560240004,-0.021297715900000007,0.09579223825
03:43:41,0.937807175,-1.0945048499999999,-0.462000925,-0.35242173,-0.053668665000000004,0.112085205,-0.11553234499999987,-31.278209694999997,-1.12030284,-41.979529249999985,0.3040365115,-1.14731093095,-0.29784958649999993,-0.23336657833,-0.022376203675000005,0.0949808199375
03:43:41,0.9331984499999999,-1.0854219,-0.47440594999999997,-0.35040822,-0.054494310000000004,0.11235687,-0.13156482999999985,-31.27949773,-1.11367976,-40.222549499999985,0.29129586100000004,-1.1378139833,-0.28722481099999997,-0.23113075662,-0.023454691450000002,0.094169401625
03:43:41,0.9285897249999999,-1.0763389499999998,-0.48681097500000003,-0.34839471,-0.055319955000000004,0.112628535,-0.14759731499999984,-31.280785764999997,-1.10705668,-38.465569749999986,0.2785552105,-1.12831703565,-0.2766000355,-0.22889493491,-0.024533179225000014,0.0933579833125
03:43:41,0.9239809999999999,-1.067256,-0.499216,-0.3463812,-0.056145600000000004,0.11290019999999999,-0.16362979999999983,-31.2820738,-1.1004336,-36.70858999999999,0.2658145599999999,-1.118820088,-0.26597525999999994,-0.22665911319999998,-0.02561166700000001,0.092546565
03:43:41,0.919372275,-1.05817305,-0.5116210250000001,-0.34436769,-0.056971245000000004,0.113171865,-0.1796622849999998,-31.283361834999997,-1.09381052,-34.95161024999999,0.2530739095000001,-1.1093231403500001,-0.2553504845,-0.22442329148999998,-0.02669015477500001,0.0917351466875
03:43:41,0.91476355,-1.0490901,-0.5240260499999999,-0.34235418,-0.057796890000000004,0.11344353,-0.1956947699999998,-31.28464987,-1.0871874400000001,-33.19463049999999,0.24033325900000002,-1.0998261927000001,-0.244725709,-0.22218746977999998,-0.027768642550000007,0.090923728375
03:43:41,0.910154825,-1.04000715,-0.536431075,-0.34034067,-0.058622535,0.11371519499999999,-0.21172725499999978,-31.285937904999997,-1.08056436,-31.43765074999999,0.22759260849999996,-1.09032924505,-0.23410093349999994,-0.21995164806999998,-0.028847130325000005,0.0901123100625
03:43:41,0.9055461,-1.0309241999999998,-0.5488361,-0.33832716,-0.05944818,0.11398686,-0.22775973999999977,-31.28722594,-1.07394128,-29.68067099999999,0.21485195800000012,-1.0808322974000002,-0.22347615799999998,-0.21771582636,-0.029925618100000002,0.08930089175
03:43:41,0.900937375,-1.02184125,-0.5612411249999999,-0.33631365,-0.060273825,0.114258525,-0.24379222499999975,-31.288513974999997,-1.0673181999999999,-27.92369124999999,0.20211130750000006,-1.07133534975,-0.2128513824999999,-0.21548000465,-0.031004105875000014,0.08848947343750001
03:43:41,0.89632865,-1.0127583,-0.57364615,-0.33430013999999997,-0.06109947,0.11453019,-0.25982470999999974,-31.28980201,-1.06069512,-26.16671149999999,0.189370657,-1.0618384021000002,-0.20222660699999995,-0.21324418294,-0.03208259365000001,0.087678055125
03:43:41,0.891719925,-1.00367535,-0.586051175,-0.33228663,-0.061925115,0.114801855,-0.2758571949999997,-31.291090044999997,-1.0540720399999999,-24.40973174999999,0.17663000649999994,-1.05234145445,-0.19160183149999999,-0.21100836123,-0.03316108142500001,0.0868666368125
03:43:41,0.8871112,-0.9945923999999999,-0.5984561999999999,-0.33027312,-0.06275076,0.11507352,-0.29188967999999993,-31.29237808,-1.04744896,-22.652751999999992,0.1638893560000001,-1.0428445068,-0.18097705599999991,-0.20877253952,-0.03423956920000001,0.0860552185
03:43:41,0.8825024749999999,-0.9855094499999999,-0.610861225,-0.32825961000000003,-0.063576405,0.11534518499999999,-0.3079221649999999,-31.293666114999997,-1.0408258799999999,-20.895772249999993,0.15114870550000004,-1.03334755915,-0.17035228049999995,-0.20653671781,-0.035318056975000005,0.0852438001875
03:43:41,0.8778937499999999,-0.9764265,-0.62326625,-0.3262461,-0.06440205,0.11561685,-0.3239546499999999,-31.29495415,-1.0342028,-19.138792499999994,0.13840805499999997,-1.0238506115000001,-0.159727505,-0.2043008961,-0.03639654475,0.084432381875
03:43:41,0.8732850249999999,-0.9673435499999999,-0.6356712750000001,-0.32423259000000004,-0.065227695,0.115888515,-0.3399871349999999,-31.296242184999997,-1.0275797199999999,-17.381812749999995,0.12566740450000013,-1.0143536638500001,-0.14910272949999992,-0.20206507439,-0.037475032525000014,0.0836209635625
03:43:41,0.8686763,-0.9582605999999999,-0.6480762999999999,-0.32221908,-0.06605334,0.11616018,-0.35601961999999987,-31.29753022,-1.02095664,-15.624832999999995,0.11292675400000007,-1.0048567162,-0.13847795399999996,-0.19982925267999999,-0.03855352030000001,0.08280954525
03:43:41,0.864067575,-0.94917765,-0.660481325,-0.32020557,-0.066878985,0.11643184499999999,-0.37205210499999986,-31.298818254999997,-1.0143335599999999,-13.867853249999996,0.10018610350000001,-0.9953597685500001,-0.1278531785,-0.19759343096999998,-0.03963200807500001,0.0819981269375
03:43:41,0.85945885,-0.9400947,-0.6728863500000001,-0.31819206,-0.06770463,0.11670351,-0.38808458999999984,-31.30010629,-1.00771048,-12.110873499999997,0.08744545299999995,-0.9858628209000001,-0.11722840299999993,-0.19535760925999998,-0.04071049585000001,0.081186708625
03:43:41,0.854850125,-0.9310117499999999,-0.6852913749999999,-0.31617855,-0.068530275,0.116975175,-0.4041170749999998,-31.301394324999997,-1.0010873999999998,-10.353893749999997,0.07470480250000011,-0.9763658732500001,-0.10660362749999996,-0.19312178754999998,-0.041788983625000005,0.0803752903125
03:43:41,0.8502414,-0.9219287999999999,-0.6976964,-0.31416504,-0.06935592,0.11724683999999999,-0.4201495599999998,-31.30268236,-0.99446432,-8.596913999999998,0.06196415200000005,-0.9668689256,-0.095978852,-0.19088596584,-0.0428674714,0.07956387200000001
03:43:41,0.8456326750000001,-0.91284585,-0.7101014250000001,-0.31215153,-0.070181565,0.117518505,-0.4361820449999998,-31.303970394999997,-0.98784124,-6.839934249999999,0.04922350149999999,-0.9573719779500001,-0.08535407650000004,-0.18865014413,-0.043945959175000014,0.0787524536875
03:43:41,0.84102395,-0.9037628999999999,-0.7225064499999999,-0.31013802,-0.07100721,0.11779017,-0.4522145299999998,-31.30525843,-0.98121816,-5.0829545,0.03648285100000015,-0.9478750303000001,-0.07472930099999986,-0.18641432242,-0.04502444695000001,0.077941035375
03:43:41,0.836415225,-0.8946799499999999,-0.734911475,-0.30812451,-0.071832855,0.118061835,-0.46824701499999977,-31.306546464999997,-0.97459508,-3.3259747500000003,0.023742200500000088,-0.9383780826500001,-0.0641045254999999,-0.18417850071,-0.04610293472500001,0.0771296170625
03:43:41,0.8318065,-0.885597,-0.7473165,-0.306111,-0.0726585,0.1183335,-0.48427949999999975,-31.3078345,-0.9679719999999999,-1.568995000000001,0.011001550000000027,-0.9288811350000001,-0.05347974999999994,-0.181942679,-0.04718142250000001,0.07631819875
03:43:41,0.8271977749999999,-0.8765140499999999,-0.7597215249999999,-0.30409748999999997,-0.073484145,0.118605165,-0.5003119849999997,-31.309122535,-0.9613489199999999,0.18798474999999826,-0.0017391005000000348,-0.91938418735,-0.042854974499999976,-0.17970685729,-0.048259910275000005,0.0755067804375
03:43:41,0.8225890499999999,-0.8674310999999999,-0.77212655,-0.30208398000000003,-0.07430979,0.11887682999999999,-0.5163444699999997,-31.31041057,-0.9547258399999999,1.9449644999999975,-0.014479750999999874,-0.9098872397000001,-0.032230199000000015,-0.17747103558,-0.04933839805000002,0.074695362125
03:43:41,0.817980325,-0.85834815,-0.784531575,-0.30007047,-0.075135435,0.119148495,-0.5323769549999997,-31.311698605,-0.9481027599999999,3.701944249999997,-0.027220401499999936,-0.9003902920500001,-0.021605423499999832,-0.17523521387,-0.050416885825000014,0.0738839438125
03:43:41,0.8133716,-0.8492651999999999,-0.7969366000000001,-0.29805696000000004,-0.07596108,0.11942016,-0.5484094399999997,-31.31298664,-0.9414796799999999,5.458923999999996,-0.039961052,-0.8908933444000001,-0.01098064799999987,-0.17299939216,-0.05149537360000001,0.0730725255
03:43:41,0.808762875,-0.8401822499999999,-0.809341625,-0.29604345,-0.076786725,0.119691825,-0.5644419249999999,-31.314274675,-0.9348565999999999,7.215903749999995,-0.052701702499999836,-0.8813963967500001,-0.00035587249999990966,-0.17076357044999999,-0.05257386137500001,0.0722611071875
03:43:41,0.80415415,-0.8310992999999999,-0.82174665,-0.29402994000000005,-0.07761237,0.11996348999999999,-0.5804744099999999,-31.31556271,-0.9282335199999999,8.972883499999995,-0.0654423529999999,-0.8718994491000001,0.010268903000000051,-0.16852774873999998,-0.05365234915000001,0.071449688875
03:43:41,0.799545425,-0.82201635,-0.8341516750000001,-0.29201643,-0.078438015,0.120235155,-0.5965068949999999,-31.316850745,-0.9216104399999999,10.729863250000022,-0.07818300349999996,-0.8624025014500001,0.020893678500000012,-0.16629192702999998,-0.054730836925000005,0.0706382705625
03:43:41,0.7949367,-0.8129333999999999,-0.8465566999999999,-0.29000292,-0.07926366,0.12050682,-0.6125393799999999,-31.318138779999998,-0.9149873599999999,12.486843000000022,-0.09092365400000002,-0.8529055538000001,0.031518453999999974,-0.16405610531999998,-0.05580932470000002,0.06982685225
03:43:41,0.790327975,-0.8038504499999999,-0.858961725,-0.28798941,-0.080089305,0.12077848499999999,-0.6285718649999998,-31.319426815,-0.9083642799999999,14.243822750000021,-0.10366430449999986,-0.8434086061500001,0.04214322950000016,-0.16182028361,-0.056887812475000014,0.0690154339375
03:43:41,0.78571925,-0.7947675,-0.8713667500000001,-0.2859759,-0.08091495,0.12105015,-0.6446043499999998,-31.320714849999998,-0.9017411999999999,16.00080250000002,-0.11640495499999992,-0.8339116585000002,0.05276800500000012,-0.1595844619,-0.05796630025000001,0.068204015625
03:43:41,0.781110525,-0.7856845499999998,-0.8837717749999999,-0.28396239,-0.081740595,0.121321815,-0.6606368349999998,-31.322002885,-0.8951181199999999,17.75778225000002,-0.12914560549999998,-0.8244147108500002,0.06339278050000008,-0.15734864019,-0.05904478802500001,0.0673925973125
03:43:41,0.7765018,-0.7766016,-0.8961768,-0.28194888,-0.08256624,0.12159348,-0.6766693199999998,-31.323290919999998,-0.88849504,19.51476200000002,-0.14188625599999982,-0.8149177632000002,0.07401755600000004,-0.15511281847999997,-0.06012327580000001,0.066581179
03:43:41,0.771893075,-0.76751865,-0.9085818250000001,-0.27993537,-0.083391885,0.121865145,-0.6927018049999998,-31.324578955,-0.88187196,21.271741750000018,-0.15462690649999988,-0.8054208155500002,0.0846423315,-0.15287699677,-0.061201763575000005,0.0657697606875
03:43:41,0.76728435,-0.7584356999999999,-0.9209868499999999,-0.27792186,-0.08421753,0.12213681,-0.7087342899999998,-31.325866989999998,-0.87524888,23.028721500000017,-0.16736755699999994,-0.7959238679,0.09526710699999996,-0.15064117505999997,-0.06228025135000002,0.064958342375
03:43:41,0.762675625,-0.7493527499999999,-0.933391875,-0.27590835,-0.085043175,0.12240847499999999,-0.7247667749999998,-31.327155025,-0.8686258,24.785701250000017,-0.1801082075,-0.78642692025,0.10589188250000015,-0.14840535335,-0.06335873912500001,0.0641469240625
03:43:41,0.7580669,-0.7402697999999999,-0.9457969,-0.27389484000000003,-0.08586882,0.12268014,-0.7407992599999997,-31.328443059999998,-0.86200272,26.542681000000016,-0.19284885799999985,-0.7769299726000001,0.1165166580000001,-0.14616953164000002,-0.0644372269,0.06333550575
03:43:41,0.753458175,-0.7311868499999998,-0.9582019249999999,-0.27188133000000003,-0.086694465,0.122951805,-0.7568317449999997,-31.329731095,-0.85537964,28.299660750000015,-0.2055895084999999,-0.7674330249500001,0.12714143350000007,-0.14393370993,-0.065515714675,0.0625240874375
03:43:41,0.74884945,-0.7221039,-0.97060695,-0.26986782,-0.08752011,0.12322347,-0.7728642299999997,-31.331019129999998,-0.84875656,30.056640500000015,-0.21833015899999997,-0.7579360773000001,0.13776620900000003,-0.14169788822,-0.06659420245,0.061712669124999994
03:43:41,0.744240725,-0.71302095,-0.983011975,-0.26785431000000004,-0.088345755,0.123495135,-0.7888967149999997,-31.332307165,-0.84213348,31.813620250000014,-0.23107080950000003,-0.7484391296500001,0.1483909845,-0.13946206650999998,-0.067672690225,0.0609012508125
03:43:41,0.739632,-0.703938,-0.9954169999999999,-0.2658408,-0.0891714,0.1237668,-0.8049291999999999,-31.333595199999998,-0.8355104,33.57060000000001,-0.24381145999999987,-0.7389421820000002,0.15901576000000017,-0.1372262448,-0.068751178,0.060089832499999996
03:43:41,0.735023275,-0.6948550499999999,-1.0078220249999998,-0.26382729000000005,-0.089997045,0.12403846499999999,-0.8209616849999999,-31.334883235,-0.82888732,35.32757975000001,-0.25655211049999993,-0.7294452343500002,0.16964053550000013,-0.13499042308999998,-0.069829665775,0.0592784141875
03:43:41,0.73041455,-0.6857720999999999,-1.02022705,-0.26181378,-0.09082269,0.12431012999999999,-0.8369941699999999,-31.336171269999998,-0.82226424,37.08455950000001,-0.269292761,-0.7199482867000002,0.1802653110000001,-0.13275460138,-0.07090815354999999,0.058466995875
03:43:41,0.725805825,-0.6766891499999999,-1.032632075,-0.25980027000000006,-0.091648335,0.124581795,-0.8530266549999999,-31.337459305,-0.81564116,38.84153925000001,-0.28203341149999983,-0.7104513390500002,0.19089008650000006,-0.13051877966999997,-0.07198664132500002,0.057655577562500004
03:43:41,0.7211971,-0.6676061999999998,-1.0450371,-0.25778676,-0.09247398,0.12485346,-0.8690591399999998,-31.338747339999998,-0.80901808,40.59851900000001,-0.2947740619999999,-0.7009543914,0.20151486200000002,-0.12828295796,-0.07306512910000001,0.05684415925
03:43:41,0.716588375,-0.65852325,-1.0574421250000001,-0.25577325,-0.093299625,0.125125125,-0.8850916249999996,-31.340035375,-0.802395,42.35549875000001,-0.30751471249999995,-0.6914574437500001,0.21213963749999998,-0.12604713624999997,-0.07414361687500001,0.056032740937500006
03:43:41,0.71197965,-0.6494403,-1.0698471500000002,-0.25375974,-0.09412527,0.12539678999999998,-0.9011241099999998,-31.341323409999998,-0.79577192,44.11247850000001,-0.320255363,-0.6819604961000001,0.22276441300000016,-0.12381131454,-0.07522210465000001,0.055221322625
03:43:41,0.707370925,-0.6403573499999999,-1.0822521749999998,-0.25174623,-0.094950915,0.125668455,-0.9171565949999996,-31.342611445,-0.78914884,45.86945825000001,-0.33299601349999985,-0.6724635484500001,0.23338918850000012,-0.12157549282999996,-0.07630059242500001,0.05440990431250001
03:43:41,0.7027622,-0.6312743999999999,-1.0946571999999999,-0.24973272000000002,-0.09577656,0.12594012,-0.9331890799999998,-31.343899479999997,-0.78252576,47.62643800000001,-0.3457366639999999,-0.6629666008000001,0.24401396400000008,-0.11933967111999999,-0.0773790802,0.053598486
03:43:41,0.698153475,-0.6221914499999999,-1.107062225,-0.24771921000000002,-0.096602205,0.126211785,-0.949221565,-31.345187515,-0.77590268,49.38341775000001,-0.3584773145,-0.6534696531500002,0.25463873950000004,-0.11710384941000002,-0.078457567975,0.052787067687499994
03:43:41,0.69354475,-0.6131084999999998,-1.11946725,-0.24570570000000003,-0.09742785,0.12648345,-0.9652540499999998,-31.346475549999997,-0.7692796,51.140397500000006,-0.3712179649999998,-0.6439727055000002,0.265263515,-0.11486802769999999,-0.07953605575,0.051975649375
03:43:41,0.688936025,-0.6040255499999998,-1.131872275,-0.24369219000000003,-0.098253495,0.126755115,-0.981286535,-31.347763585,-0.76265652,52.897377250000005,-0.3839586154999999,-0.6344757578500002,0.2758882905000002,-0.11263220599000001,-0.080614543525,0.051164231062499996
03:43:41,0.6843273,-0.5949426,-1.1442773000000002,-0.24167868000000003,-0.09907914,0.12702678,-0.9973190199999997,-31.349051619999997,-0.75603344,54.654357000000005,-0.39669926599999994,-0.6249788102000002,0.28651306600000015,-0.11039638427999998,-0.0816930313,0.05035281275
03:43:41,0.679718575,-0.58585965,-1.1566823249999998,-0.23966517000000004,-0.099904785,0.12729844499999998,-1.013351505,-31.350339655,-0.7494103599999999,56.411336750000004,-0.4094399165,-0.61548186255,0.2971378415000001,-0.10816056257000001,-0.082771519075,0.0495413944375
03:43:41,0.67510985,-0.5767766999999999,-1.1690873499999999,-0.23765166000000004,-0.10073043,0.12757011,-1.0293839899999997,-31.351627689999997,-0.7427872799999999,58.1683165,-0.42218056699999984,-0.6059849149000001,0.30776261700000007,-0.10592474085999998,-0.08385000685000002,0.048729976125000005
03:43:41,0.670501125,-0.5676937499999999,-1.181492375,-0.23563815000000005,-0.101556075,0.127841775,-1.045416475,-31.352915725,-0.7361641999999999,59.92529625,-0.4349212174999999,-0.5964879672500001,0.31838739250000003,-0.10368891915,-0.08492849462500002,0.0479185578125
03:43:41,0.6658924,-0.5586107999999999,-1.1938974,-0.23362464000000005,-0.10238172,0.12811344,-1.0614489599999997,-31.354203759999997,-0.7295411199999999,61.682276,-0.44766186799999996,-0.5869910196000001,0.329012168,-0.10145309743999997,-0.08600698240000001,0.047107139500000006
03:43:41,0.661283675,-0.5495278499999998,-1.206302425,-0.23161113,-0.103207365,0.128385105,-1.0774814449999999,-31.355491795,-0.7229180399999999,63.43925575,-0.4604025184999998,-0.5774940719500001,0.3396369435000002,-0.09921727573,-0.08708547017500001,0.0462957211875
03:43:41,0.65667495,-0.5404448999999998,-1.2187074500000001,-0.22959762,-0.10403301,0.12865677,-1.0935139299999996,-31.356779829999997,-0.7162949599999999,65.1962355,-0.47314316899999986,-0.5679971243000002,0.35026171900000014,-0.09698145401999997,-0.08816395795000001,0.04548430287500001
03:43:41,0.652066225,-0.53136195,-1.2311124750000002,-0.22758411,-0.104858655,0.128928435,-1.1095464149999998,-31.358067865,-0.7096718799999999,66.95321525,-0.4858838194999999,-0.5585001766500002,0.3608864945000001,-0.09474563231,-0.08924244572500001,0.0446728845625
03:43:41,0.6474575,-0.5222789999999999,-1.2435174999999998,-0.2255706,-0.1056843,0.12920009999999998,-1.1255788999999996,-31.359355899999997,-0.7030487999999999,68.710195,-0.49862447,-0.5490032290000002,0.37151127000000006,-0.09250981059999996,-0.0903209335,0.043861466249999995
03:43:41,0.642848775,-0.5131960499999999,-1.255922525,-0.22355709,-0.106509945,0.129471765,-1.1416113849999998,-31.360643935,-0.6964257199999999,70.46717475,-0.5113651204999998,-0.5395062813500002,0.3821360455,-0.09027398888999999,-0.091399421275,0.0430500479375
03:43:41,0.6382400500000001,-0.5041130999999999,-1.26832755,-0.22154358000000002,-0.10733559,0.12974343,-1.1576438699999996,-31.361931969999997,-0.6898026399999999,72.2241545,-0.5241057709999999,-0.5300093337000003,0.3927608210000002,-0.08803816718000002,-0.09247790905,0.042238629624999996
03:43:41,0.633631325,-0.49503014999999984,-1.280732575,-0.21953007000000002,-0.108161235,0.130015095,-1.1736763549999998,-31.363220005,-0.6831795599999999,73.98113425,-0.5368464215,-0.52051238605,0.40338559650000017,-0.08580234546999999,-0.093556396825,0.041427211312500004
03:43:41,0.6290226,-0.4859471999999998,-1.2931376,-0.21751656000000003,-0.10898688,0.13028676,-1.1897088399999995,-31.364508039999997,-0.6765564799999999,75.738114,-0.549587072,-0.5110154384000001,0.4140103720000001,-0.08356652376000001,-0.0946348846,0.040615793
03:43:41,0.624413875,-0.47686425,-1.3055426250000002,-0.21550305000000003,-0.109812525,0.130558425,-1.2057413249999998,-31.365796075,-0.6699334,77.49509375,-0.5623277224999998,-0.5015184907500001,0.4246351475000001,-0.08133070204999998,-0.095713372375,0.039804374687500005
03:43:41,0.61980515,-0.46778129999999996,-1.3179476499999998,-0.21348954000000003,-0.11063817,0.13083009,-1.22177381,-31.367084109999997,-0.66331032,79.25207350000002,-0.5750683729999999,-0.4920215431000001,0.43525992300000005,-0.07909488034,-0.09679186015000002,0.038992956375
03:43:41,0.615196425,-0.4586983499999999,-1.3303526749999999,-0.21147603000000004,-0.111463815,0.131101755,-1.2378062949999997,-31.368372145,-0.65668724,81.00905325,-0.5878090235,-0.48252459545000015,0.4458846985,-0.07685905862999998,-0.09787034792500002,0.038181538062500006
03:43:41,0.6105877000000001,-0.4496153999999999,-1.3427577,-0.20946252000000004,-0.11228946,0.13137342,-1.25383878,-31.369660179999997,-0.65006416,82.76603300000002,-0.6005496739999998,-0.4730276478000002,0.4565094740000002,-0.07462323692,-0.09894883570000002,0.03737011975
03:43:41,0.605978975,-0.44053244999999985,-1.355162725,-0.20744901000000004,-0.113115105,0.131645085,-1.2698712649999997,-31.370948215,-0.64344108,84.52301274999999,-0.6132903244999999,-0.4635307001500002,0.46713424950000015,-0.07238741520999997,-0.10002732347500001,0.03655870143750001
03:43:41,0.60137025,-0.4314494999999998,-1.36756775,-0.20543550000000005,-0.11394075,0.13191675,-1.28590375,-31.37223625,-0.636818,86.27999250000002,-0.6260309749999999,-0.4540337525000002,0.4777590250000001,-0.0701515935,-0.10110581125000001,0.035747283125
03:43:41,0.596761525,-0.4223665499999998,-1.3799727750000002,-0.20342199000000005,-0.114766395,0.132188415,-1.3019362349999997,-31.373524285,-0.6301949199999999,88.03697224999999,-0.6387716255,-0.44453680485000024,0.4883838005000001,-0.06791577178999997,-0.10218429902500001,0.034935864812499995
03:43:41,0.5921528,-0.4132836,-1.3923777999999998,-0.20140848,-0.11559204000000001,0.13246007999999998,-1.3179687199999999,-31.37481232,-0.6235718399999999,89.79395200000002,-0.6515122759999998,-0.43503985720000027,0.49900857600000004,-0.06567995008,-0.1032627868,0.0341244465
03:43:41,0.587544075,-0.40420064999999994,-1.4047828249999998,-0.19939497,-0.11641768499999999,0.132731745,-1.3340012049999996,-31.376100355,-0.6169487599999999,91.55093174999999,-0.6642529264999999,-0.42554290955000007,0.5096333515,-0.06344412836999996,-0.104341274575,0.033313028187499996
03:43:41,0.5829353500000001,-0.3951176999999999,-1.41718785,-0.19738146,-0.11724333,0.13300341,-1.3500336899999998,-31.37738839,-0.6103256799999999,93.30791150000002,-0.676993577,-0.4160459619000001,0.5202581270000002,-0.06120830665999999,-0.10541976235,0.032501609875000004
03:43:41,0.578326625,-0.38603474999999987,-1.429592875,-0.19536795,-0.11806897499999999,0.133275075,-1.3660661749999996,-31.378676425,-0.6037025999999999,95.06489124999999,-0.6897342274999998,-0.4065490142500001,0.5308829025000001,-0.058972484950000015,-0.106498250125,0.0316901915625
03:43:41,0.5737179,-0.37695179999999984,-1.4419979,-0.19335444000000002,-0.11889462,0.13354674,-1.3820986599999998,-31.37996446,-0.5970795199999999,96.82187100000002,-0.7024748779999999,-0.39705206660000014,0.5415076780000001,-0.056736663239999985,-0.1075767379,0.03087877324999999
03:43:41,0.569109175,-0.3678688499999998,-1.4544029250000001,-0.19134093000000002,-0.11972026499999999,0.133818405,-1.3981311449999996,-31.381252495,-0.5904564399999999,98.57885074999999,-0.7152155284999999,-0.38755511895000017,0.5521324535000001,-0.05450084153000001,-0.108655225675,0.030067354937500013
03:43:41,0.56450045,-0.35878589999999977,-1.4668079500000002,-0.18932742000000002,-0.12054591,0.13409007,-1.4141636299999998,-31.38254053,-0.5838333599999999,100.33583050000001,-0.727956179,-0.3780581713000002,0.562757229,-0.05226501981999998,-0.10973371345000002,0.029255936625000006
03:43:41,0.5598917250000001,-0.34970294999999996,-1.4792129749999998,-0.18731391000000003,-0.12137155499999999,0.13436173499999998,-1.4301961149999995,-31.383828564999998,-0.5772102799999999,102.09281024999999,-0.7406968295,-0.3685612236500002,0.5733820045000002,-0.050029198110000006,-0.11081220122500002,0.0284445183125
03:43:41,0.555283,-0.3406199999999999,-1.4916179999999999,-0.18530040000000003,-0.1221972,0.1346334,-1.4462285999999998,-31.3851166,-0.5705871999999999,103.84979000000001,-0.7534374800000001,-0.35906427600000024,0.5840067800000002,-0.047793376399999976,-0.11189068900000002,0.027633099999999994
03:43:41,0.550674275,-0.3315370499999999,-1.504023025,-0.18328689000000004,-0.12302284499999999,0.134905065,-1.462261085,-31.386404634999998,-0.5639641200000001,105.60676974999998,-0.7661781304999997,-0.34956732835000026,0.5946315555000001,-0.04555755469,-0.11296917677500001,0.026821681687499987
03:43:41,0.54606555,-0.32245409999999985,-1.51642805,-0.18127338000000004,-0.12384849,0.13517673,-1.4782935699999997,-31.38769267,-0.5573410400000001,107.36374950000001,-0.7789187809999998,-0.3400703807000003,0.6052563310000001,-0.04332173297999997,-0.11404766455000001,0.02601026337500001
03:43:41,0.541456825,-0.3133711499999998,-1.528833075,-0.17925987000000004,-0.12467413499999999,0.135448395,-1.494326055,-31.388980704999998,-0.5507179600000001,109.12072924999998,-0.7916594314999998,-0.3305734330500001,0.6158811065,-0.04108591127,-0.11512615232500001,0.025198845062500003
03:43:41,0.5368481,-0.3042881999999998,-1.5412380999999997,-0.17724636000000005,-0.12549978,0.13572006,-1.5103585399999997,-31.39026874,-0.5440948800000001,110.87770900000001,-0.8044000819999999,-0.3210764854000001,0.626505882,-0.03885008955999997,-0.1162046401,0.024387426749999996
03:43:41,0.5322393750000001,-0.29520524999999975,-1.5536431249999998,-0.17523285000000005,-0.126325425,0.135991725,-1.526391025,-31.391556774999998,-0.5374718,112.63468874999998,-0.8171407325,-0.31157953775000014,0.6371306575000002,-0.03661426784999999,-0.117283127875,0.02357600843749999
03:43:41,0.52763065,-0.28612229999999994,-1.5660481499999999,-0.17321934000000005,-0.12715107,0.13626338999999998,-1.5424235099999997,-31.39284481,-0.53084872,114.39166850000001,-0.829881383,-0.30208259010000016,0.6477554330000002,-0.03437844613999996,-0.11836161565,0.02276459012500001
03:43:41,0.523021925,-0.2770393499999999,-1.578453175,-0.17120583000000006,-0.127976715,0.136535055,-1.5584559949999999,-31.394132844999998,-0.52422564,116.14864824999998,-0.8426220335000001,-0.2925856424500002,0.6583802085000001,-0.03214262442999999,-0.119440103425,0.021953171812500005
03:43:41,0.5184132,-0.2679563999999999,-1.5908582,-0.16919232000000006,-0.12880236,0.13680672,-1.5744884799999996,-31.39542088,-0.51760256,117.90562800000001,-0.8553626839999997,-0.2830886948000002,0.6690049840000001,-0.029906802720000014,-0.1205185912,0.0211417535
03:43:41,0.513804475,-0.25887344999999984,-1.603263225,-0.16717881,-0.129628005,0.137078385,-1.5905209649999998,-31.396708914999998,-0.51097948,119.66260774999998,-0.8681033344999998,-0.27359174715000023,0.6796297595,-0.027670981009999984,-0.12159707897500002,0.020330335187499993
03:43:41,0.5091957500000001,-0.2497904999999998,-1.6156682499999997,-0.16516530000000001,-0.13045365,0.13735005,-1.6065534499999996,-31.39799695,-0.5043564,121.4195875,-0.8808439849999998,-0.26409479950000025,0.6902545350000002,-0.02543515930000001,-0.12267556675000002,0.019518916875000014
03:43:41,0.5045870250000001,-0.24070754999999977,-1.6280732749999998,-0.16315179000000002,-0.131279295,0.13762171499999998,-1.6225859349999998,-31.399284984999998,-0.49773332000000003,123.17656725000003,-0.8935846354999999,-0.2545978518500003,0.7008793105000002,-0.02319933758999998,-0.12375405452500002,0.018707498562500008
03:43:41,0.4999783,-0.23162459999999996,-1.6404782999999998,-0.16113828000000002,-0.13210494,0.13789338,-1.6386184199999996,-31.40057302,-0.49111024000000003,124.933547,-0.906325286,-0.2451009042000003,0.7115040860000001,-0.020963515880000005,-0.12483254230000002,0.01789608025
03:43:41,0.495369575,-0.22254164999999992,-1.652883325,-0.15912477000000003,-0.132930585,0.138165045,-1.6546509049999998,-31.401861054999998,-0.48448716000000003,126.69052675000003,-0.9190659365,-0.2356039565500001,0.7221288615000001,-0.018727694169999975,-0.125911030075,0.017084661937499995
03:43:41,0.49076085,-0.2134586999999999,-1.66528835,-0.15711126000000003,-0.13375623,0.13843671,-1.6706833899999995,-31.40314909,-0.47786408,128.4475065,-0.9318065870000001,-0.22610700890000013,0.7327536370000001,-0.01649187246,-0.12698951785,0.01627324362499999
03:43:41,0.48615212500000005,-0.20437574999999986,-1.677693375,-0.15509775000000003,-0.134581875,0.138708375,-1.6867158749999998,-31.404437124999998,-0.471241,130.20448625000003,-0.9445472374999997,-0.21661006125000015,0.7433784125,-0.014256050749999971,-0.128068005625,0.01546182531250001
03:43:41,0.48154340000000007,-0.19529279999999982,-1.6900983999999997,-0.15308424000000004,-0.13540752,0.13898004,-1.70274836,-31.40572516,-0.46461792,131.961466,-0.9572878879999998,-0.20711311360000018,0.7540031880000002,-0.012020229039999997,-0.1291464934,0.014650407000000004
03:43:41,0.4769346750000001,-0.1862098499999998,-1.7025034249999997,-0.15107073000000004,-0.136233165,0.139251705,-1.7187808449999997,-31.407013194999998,-0.45799484,133.71844575000003,-0.9700285384999998,-0.1976161659500002,0.7646279635000002,-0.009784407329999967,-0.130224981175,0.013838988687499998
03:43:41,0.47232595,-0.17712689999999975,-1.7149084499999998,-0.14905722000000005,-0.13705881,0.13952336999999998,-1.73481333,-31.40830123,-0.45137176,135.4754255,-0.9827691889999999,-0.18811921830000022,0.7752527390000001,-0.007548585619999992,-0.13130346895,0.013027570374999992
03:43:41,0.467717225,-0.16804394999999994,-1.7273134749999999,-0.14704371000000005,-0.137884455,0.139795035,-1.7508458149999997,-31.409589264999997,-0.44474868,137.23240525000003,-0.9955098394999999,-0.17862227065000025,0.7858775145000001,-0.005312763909999962,-0.132381956725,0.012216152062500013
03:43:41,0.46310850000000003,-0.1589609999999999,-1.7397185,-0.14503020000000005,-0.1387101,0.1400667,-1.7668783,-31.4108773,-0.4381256,138.989385,-1.00825049,-0.16912532300000027,0.7965022900000001,-0.003076942199999988,-0.1334604445,0.011404733750000007
03:43:41,0.45849977500000005,-0.14987804999999987,-1.752123525,-0.14301669000000006,-0.139535745,0.140338365,-1.7829107849999997,-31.412165334999997,-0.43150252,140.74636475000003,-1.0209911405,-0.1596283753500003,0.8071270655000002,-0.0008411204900000135,-0.13453893227500002,0.0105933154375
03:43:41,0.4538910500000001,-0.14079509999999984,-1.76452855,-0.14100318000000006,-0.14036139,0.14061003,-1.7989432699999999,-31.41345337,-0.42487944,142.5033445,-1.0337317909999997,-0.15013142770000032,0.8177518410000002,0.0013947012200000164,-0.13561742005000002,0.009781897124999994
03:43:41,0.4492823250000001,-0.1317121499999998,-1.7769335749999997,-0.13898967000000007,-0.141187035,0.140881695,-1.8149757549999996,-31.414741404999997,-0.41825636,144.26032425000002,-1.0464724414999997,-0.14063448005000012,0.8283766165000002,0.003630522929999991,-0.13669590782500002,0.008970478812499988
03:43:41,0.4446736,-0.12262919999999977,-1.7893385999999998,-0.13697616,-0.14201268,0.14115336,-1.8310082399999998,-31.41602944,-0.41163328,146.017304,-1.0592130919999998,-0.13113753240000015,0.8390013920000001,0.005866344640000021,-0.13777439560000002,0.00815906050000001
03:43:41,0.440064875,-0.11354624999999974,-1.8017436249999998,-0.13496265000000002,-0.142838325,0.14142502499999998,-1.8470407249999996,-31.417317474999997,-0.4050102,147.77428375000002,-1.0719537424999999,-0.12164058475000017,0.8496261675000001,0.008102166349999995,-0.138852883375,0.007347642187500003
03:43:41,0.43545615000000004,-0.10446329999999993,-1.81414865,-0.13294914000000002,-0.14366397,0.14169669,-1.8630732099999998,-31.41860551,-0.39838712,149.5312635,-1.084694393,-0.11214363710000019,0.860250943,0.010337988060000025,-0.13993137115,0.006536223874999997
03:43:41,0.43084742500000006,-0.09538034999999989,-1.826553675,-0.13093563000000003,-0.144489615,0.141968355,-1.8791056949999996,-31.419893544999997,-0.39176404,151.28824325000002,-1.0974350435,-0.10264668945000022,0.8708757185000002,0.01257380977,-0.141009858925,0.0057248055624999905
03:43:41,0.4262387000000001,-0.08629739999999986,-1.8389587,-0.12892212000000003,-0.14531526,0.14224002,-1.8951381799999998,-31.42118158,-0.38514096,153.045223,-1.110175694,-0.09314974180000024,0.8815004940000002,0.01480963148000003,-0.1420883467,0.004913387250000012
03:43:41,0.4216299750000001,-0.07721444999999982,-1.8513637249999997,-0.12690861000000003,-0.146140905,0.142511685,-1.9111706649999995,-31.422469614999997,-0.37851788,154.80220275000002,-1.1229163444999997,-0.08365279415000026,0.8921252694999999,0.017045453190000004,-0.143166834475,0.004101968937500006
03:43:41,0.41702125,-0.06813149999999979,-1.8637687499999998,-0.12489510000000004,-0.14696655,0.14278335,-1.9272031499999998,-31.42375765,-0.37189479999999997,156.5591825,-1.1356569949999997,-0.07415584650000029,0.9027500450000001,0.019281274900000034,-0.14424532225,0.0032905506249999994
03:43:41,0.41241252500000003,-0.059048549999999755,-1.8761737749999998,-0.12288159000000004,-0.147792195,0.143055015,-1.9432356349999995,-31.425045684999997,-0.36527171999999997,158.31616225000002,-1.1483976454999998,-0.06465889885000031,0.9133748205000003,0.02151709661000001,-0.145323810025,0.002479132312499993
03:43:41,0.40780380000000005,-0.04996559999999972,-1.8885788,-0.12086808000000004,-0.14861784,0.14332667999999998,-1.9592681199999997,-31.42633372,-0.35864863999999996,160.073142,-1.1611382959999998,-0.055161951200000114,0.923999596,0.023752918319999983,-0.1464022978,0.0016677140000000146
03:43:41,0.40319507500000007,-0.04088264999999991,-1.900983825,-0.11885457000000005,-0.149443485,0.143598345,-1.975300605,-31.427621754999997,-0.35202555999999996,161.83012175000002,-1.1738789465,-0.04566500355000014,0.9346243715000002,0.025988740030000013,-0.14748078557500002,0.0008562956875000083
03:43:41,0.3985863500000001,-0.031799699999999875,-1.91338885,-0.11684106000000005,-0.15026913,0.14387001,-1.9913330899999997,-31.42890979,-0.34540247999999996,163.5871015,-1.186619597,-0.03616805590000016,0.945249147,0.028224561739999987,-0.14855927335000002,4.4877375000001996e-05
03:43:41,0.393977625,-0.02271674999999984,-1.925793875,-0.11482755000000006,-0.151094775,0.144141675,-2.0073655749999997,-31.430197824999997,-0.33877939999999995,165.34408125000002,-1.1993602475,-0.026671108250000186,0.9558739225000001,0.030460383450000017,-0.14963776112500002,-0.0007665409375000043
03:43:41,0.3893689,-0.013633799999999807,-1.9381988999999997,-0.11281404000000006,-0.15192042,0.14441334,-2.02339806,-31.43148586,-0.33215631999999995,167.101061,-1.2121008979999996,-0.01717416060000021,0.9664986980000003,0.03269620515999999,-0.15071624890000002,-0.0015779592500000106
03:43:41,0.38476017500000004,-0.004550849999999773,-1.9506039249999998,-0.11080053000000006,-0.152746065,0.14468500499999998,-2.039430545,-31.432773894999997,-0.32553323999999995,168.85804075000001,-1.2248415484999997,-0.007677212950000234,0.9771234735000001,0.03493202687000002,-0.151794736675,-0.002389377562499989
03:43:41,0.38015145000000006,0.004532100000000261,-1.9630089499999999,-0.10878702000000007,-0.15357171,0.14495667,-2.0554630299999994,-31.43406193,-0.31891015999999994,170.61502049999999,-1.2375821989999998,0.0018197346999997421,0.9877482490000002,0.037167848579999996,-0.15287322445,-0.0032007958749999954
03:43:41,0.3755427250000001,0.013615050000000073,-1.975413975,-0.10677351000000007,-0.154397355,0.145228335,-2.0714955149999996,-31.435349964999997,-0.31228707999999994,172.37200025,-1.2503228494999998,0.011316682349999718,0.9983730245,0.039403670290000026,-0.153951712225,-0.004012214187500002
03:43:42,0.370934,0.022698,-1.987819,-0.10476,-0.155223,0.1455,-2.087528,-31.436638,-0.305664,174.12898,-1.2630635,0.02081363,1.0089978,0.041639492,-0.1550302,-0.0048236325
03:43:42,0.374909395,0.016725354999999997,-1.98467291,-0.10603842000000001,-0.154147,0.14398720499999998,-2.0723612599999996,-31.40903546,-0.27181253,172.37575825000002,-1.25743405135,0.01544219085,1.0040884804099999,0.03961324529,-0.15399846855000002,-0.0029357910875000004
03:43:42,0.37888478999999997,0.010752709999999997,-1.98152682,-0.10731684000000001,-0.153071,0.14247441,-2.05719452,-31.381432919999998,-0.23796106,170.62253650000002,-1.2518046026999998,0.010070751700000002,0.9991791608199999,0.03758699858,-0.1529667371,-0.0010479496750000002
03:43:42,0.38286018499999996,0.0047800649999999965,-1.97838073,-0.10859526,-0.151995,0.14096161499999998,-2.0420277799999997,-31.353830379999998,-0.20410958999999998,168.86931475,-1.24617515405,0.004699312550000001,0.99426984123,0.035560751870000004,-0.15193500565,0.0008398917375
03:43:42,0.38683557999999996,-0.0011925800000000056,-1.97523464,-0.10987368,-0.150919,0.13944882,-2.02686104,-31.326227839999998,-0.17025811999999999,167.116093,-1.2405457054,-0.0006721265999999962,0.98936052164,0.03353450516,-0.1509032742,0.00272773315
03:43:42,0.390810975,-0.007165225000000008,-1.97208855,-0.1111521,-0.149843,0.137936025,-2.0116943,-31.298625299999998,-0.13640665,165.36287125,-1.2349162567499998,-0.006043565749999993,0.9844512020499999,0.03150825845,-0.14987154275,0.0046155745625
03:43:42,0.39478637,-0.013137870000000006,-1.96894246,-0.11243052,-0.148767,0.13642322999999998,-1.9965275599999999,-31.271022759999997,-0.10255517999999997,163.60964950000002,-1.2292868081,-0.011415004899999998,0.97954188246,0.02948201174,-0.1488398113,0.006503415975
03:43:42,0.398761765,-0.019110515000000012,-1.96579637,-0.11370894000000001,-0.147691,0.134910435,-1.98136082,-31.243420219999997,-0.06870370999999997,161.85642775000002,-1.22365735945,-0.016786444049999995,0.97463256287,0.027455765030000003,-0.14780807985,0.0083912573875
03:43:42,0.40273716,-0.02508316000000001,-1.96265028,-0.11498736000000001,-0.146615,0.13339763999999998,-1.9661940799999997,-31.215817679999997,-0.03485223999999998,160.103206,-1.2180279107999998,-0.022157883199999992,0.9697232432799999,0.02542951832,-0.1467763484,0.0102790988
03:43:42,0.406712555,-0.03105580500000001,-1.95950419,-0.11626578,-0.145539,0.131884845,-1.9510273399999998,-31.188215139999997,-0.0010007699999999842,158.34998425,-1.21239846215,-0.02752932234999999,0.96481392369,0.02340327161,-0.14574461695000002,0.012166940212499998
03:43:42,0.41068794999999997,-0.03702845000000002,-1.9563581,-0.1175442,-0.144463,0.13037205,-1.9358605999999998,-31.1606126,0.03285070000000001,156.5967625,-1.2067690135,-0.032900761499999986,0.9599046040999999,0.0213770249,-0.1447128855,0.014054781624999999
03:43:42,0.41466334499999996,-0.04300109500000002,-1.95321201,-0.11882262,-0.143387,0.12885925499999998,-1.9206938599999999,-31.13301006,0.06670217,154.84354075000002,-1.2011395648499998,-0.03827220064999999,0.9549952845099999,0.01935077819,-0.14368115405,0.0159426230375
03:43:42,0.41863874,-0.048973740000000016,-1.95006592,-0.12010104,-0.142311,0.12734646,-1.90552712,-31.10540752,0.10055364000000006,153.09031900000002,-1.1955101162,-0.043643639799999995,0.95008596492,0.017324531480000002,-0.14264942260000002,0.01783046445
03:43:42,0.422614135,-0.054946385000000014,-1.94691983,-0.12137946,-0.141235,0.12583366499999998,-1.8903603799999997,-31.07780498,0.13440511000000005,151.33709725,-1.18988066755,-0.049015078949999985,0.9451766453299999,0.01529828477,-0.14161769115,0.0197183058625
03:43:42,0.42658953,-0.06091903000000003,-1.94377374,-0.12265788,-0.140159,0.12432086999999999,-1.8751936399999998,-31.05020244,0.16825658000000004,149.5838755,-1.1842512188999998,-0.05438651809999999,0.9402673257399999,0.013272038060000001,-0.1405859597,0.021606147274999998
03:43:42,0.430564925,-0.06689167500000003,-1.94062765,-0.1239363,-0.139083,0.12280807499999999,-1.8600268999999998,-31.0225999,0.20210805000000004,147.83065375,-1.17862177025,-0.05975795724999998,0.93535800615,0.01124579135,-0.13955422825,0.0234939886875
03:43:42,0.43454032,-0.07286432000000002,-1.93748156,-0.12521472,-0.138007,0.12129527999999999,-1.8448601599999999,-30.99499736,0.23595952000000003,146.07743200000002,-1.1729923216,-0.06512939639999998,0.9304486865599999,0.00921954464,-0.1385224968,0.0253818301
03:43:42,0.438515715,-0.07883696500000002,-1.93433547,-0.12649314,-0.136931,0.119782485,-1.82969342,-30.96739482,0.26981099000000003,144.32421025000002,-1.1673628729499999,-0.07050083554999999,0.9255393669699999,0.007193297930000002,-0.13749076535000002,0.027269671512499996
03:43:42,0.44249110999999997,-0.08480961000000002,-1.93118938,-0.12777156,-0.135855,0.11826968999999998,-1.8145266799999997,-30.93979228,0.30366246,142.5709885,-1.1617334243,-0.07587227469999998,0.92063004738,0.005167051220000003,-0.1364590339,0.029157512924999997
03:43:42,0.44646650499999996,-0.09078225500000003,-1.92804329,-0.12904998,-0.134779,0.11675689499999999,-1.79935994,-30.91218974,0.33751393,140.81776675,-1.15610397565,-0.08124371384999998,0.9157207277899999,0.0031408045099999976,-0.13542730245,0.031045354337499997
03:43:42,0.45044189999999995,-0.09675490000000003,-1.9248972,-0.1303284,-0.13370300000000002,0.11524409999999999,-1.7841931999999998,-30.8845872,0.3713654,139.064545,-1.1504745269999999,-0.08661515299999997,0.9108114082,0.001114557799999999,-0.134395571,0.03293319575
03:43:42,0.45441729499999994,-0.10272754500000003,-1.92175111,-0.13160682,-0.132627,0.11373130499999998,-1.7690264599999999,-30.85698466,0.40521687,137.31132325000002,-1.14484507835,-0.09198659214999998,0.90590208861,-0.0009116889099999997,-0.13336383955,0.0348210371625
03:43:42,0.45839269,-0.10870019000000003,-1.91860502,-0.13288524000000002,-0.131551,0.11221851,-1.75385972,-30.82938212,0.43906834,135.55810150000002,-1.1392156296999998,-0.09735803129999998,0.9009927690199999,-0.0029379356199999984,-0.1323321081,0.036708878575
03:43:42,0.462368085,-0.11467283500000003,-1.91545893,-0.13416366,-0.130475,0.11070571499999998,-1.73869298,-30.801779579999998,0.47291981,133.80487975,-1.1335861810499999,-0.10272947044999997,0.89608344943,-0.004964182329999997,-0.13130037665,0.0385967199875
03:43:42,0.46634348,-0.12064548000000003,-1.91231284,-0.13544208,-0.129399,0.10919291999999998,-1.72352624,-30.774177039999998,0.5067712800000002,132.051658,-1.1279567324,-0.10810090959999999,0.89117412984,-0.006990429039999996,-0.1302686452,0.0404845614
03:43:42,0.47031887499999997,-0.12661812500000003,-1.90916675,-0.1367205,-0.128323,0.10768012499999999,-1.7083594999999998,-30.746574499999998,0.54062275,130.29843625,-1.1223272837499998,-0.11347234874999998,0.8862648102499999,-0.009016675750000001,-0.12923691375000002,0.0423724028125
03:43:42,0.47429426999999996,-0.13259077000000002,-1.90602066,-0.13799892,-0.127247,0.10616732999999998,-1.6931927599999999,-30.718971959999998,0.5744742200000001,128.54521450000001,-1.1166978350999999,-0.11884378789999997,0.88135549066,-0.01104292246,-0.1282051823,0.044260244225
03:43:42,0.478269665,-0.13856341500000005,-1.90287457,-0.13927734,-0.126171,0.10465453499999999,-1.67802602,-30.691369419999997,0.60832569,126.79199275,-1.11106838645,-0.12421522704999996,0.87644617107,-0.013069169169999999,-0.12717345085,0.046148085637499996
03:43:42,0.48224506,-0.14453606000000005,-1.89972848,-0.14055576,-0.125095,0.10314173999999998,-1.66285928,-30.663766879999997,0.6421771600000001,125.038771,-1.1054389377999998,-0.12958666619999998,0.8715368514799999,-0.015095415879999997,-0.12614171940000002,0.048035927049999996
03:43:42,0.486220455,-0.15050870500000005,-1.89658239,-0.14183418,-0.124019,0.10162894499999998,-1.64769254,-30.636164339999997,0.67602863,123.28554925,-1.0998094891499999,-0.13495810534999997,0.86662753189,-0.017121662589999996,-0.12510998795,0.0499237684625
03:43:42,0.49019585,-0.15648135000000005,-1.8934363,-0.1431126,-0.122943,0.10011614999999999,-1.6325257999999998,-30.608561799999997,0.7098801000000001,121.53232750000001,-1.0941800405,-0.14032954449999996,0.8617182123,-0.0191479093,-0.12407825650000001,0.051811609875
03:43:42,0.494171245,-0.16245399500000005,-1.89029021,-0.14439101999999998,-0.121867,0.09860335499999998,-1.6173590599999998,-30.58095926,0.74373157,119.77910575000001,-1.0885505918499998,-0.14570098364999998,0.8568088927099999,-0.02117415601,-0.12304652505000001,0.0536994512875
03:43:42,0.49814664,-0.16842664000000004,-1.88714412,-0.14566943999999998,-0.12079100000000001,0.09709055999999999,-1.60219232,-30.55335672,0.7775830400000001,118.025884,-1.0829211431999999,-0.15107242279999997,0.85189957312,-0.02320040272,-0.1220147936,0.0555872927
03:43:42,0.502122035,-0.17439928500000004,-1.8839980299999999,-0.14694785999999999,-0.119715,0.09557776499999998,-1.58702558,-30.52575418,0.8114345100000002,116.27266225,-1.07729169455,-0.15644386194999996,0.84699025353,-0.025226649429999998,-0.12098306215,0.0574751341125
03:43:42,0.50609743,-0.18037193000000004,-1.8808519399999999,-0.14822628,-0.118639,0.09406496999999998,-1.57185884,-30.49815164,0.8452859800000001,114.5194405,-1.0716622458999998,-0.16181530109999998,0.8420809339399999,-0.027252896139999996,-0.1199513307,0.05936297552499999
03:43:42,0.510072825,-0.18634457500000004,-1.87770585,-0.1495047,-0.117563,0.09255217499999999,-1.5566920999999998,-30.4705491,0.8791374500000002,112.76621875000001,-1.0660327972499999,-0.16718674024999997,0.83717161435,-0.029279142849999995,-0.11891959925000001,0.0612508169375
03:43:42,0.51404822,-0.19231722000000004,-1.87455976,-0.15078312,-0.11648700000000001,0.09103937999999998,-1.5415253599999998,-30.44294656,0.9129889200000001,111.01299700000001,-1.0604033486,-0.17255817939999996,0.8322622947599999,-0.031305389559999994,-0.1178878678,0.06313865835
03:43:42,0.5180236149999999,-0.19828986500000004,-1.87141367,-0.15206154,-0.115411,0.08952658499999999,-1.5263586199999999,-30.41534402,0.9468403900000002,109.25977525,-1.0547738999499998,-0.17792961854999997,0.82735297517,-0.03333163626999999,-0.11685613635,0.06502649976250001
03:43:42,0.52199901,-0.20426251000000006,-1.86826758,-0.15333996,-0.114335,0.08801378999999998,-1.51119188,-30.38774148,0.9806918600000001,107.50655350000001,-1.0491444513,-0.18330105769999996,0.82244365558,-0.035357882980000005,-0.11582440490000001,0.066914341175
03:43:42,0.5259744049999999,-0.21023515500000006,-1.86512149,-0.15461838,-0.113259,0.08650099499999998,-1.49602514,-30.36013894,1.0145433300000002,105.75333175,-1.04351500265,-0.18867249684999995,0.8175343359899999,-0.037384129690000004,-0.11479267345000001,0.06880218258750001
03:43:42,0.5299498,-0.21620780000000006,-1.8619754,-0.1558968,-0.112183,0.08498819999999999,-1.4808583999999998,-30.3325364,1.0483948,104.00011,-1.0378855539999998,-0.19404393599999994,0.8126250164,-0.0394103764,-0.113760942,0.070690024
03:43:42,0.5339251949999999,-0.22218044500000006,-1.85882931,-0.15717522,-0.11110700000000001,0.08347540499999997,-1.46569166,-30.30493386,1.0822462700000002,102.24688825,-1.03225610535,-0.19941537514999996,0.8077156968099999,-0.04143662311,-0.11272921055,0.07257786541250001
03:43:42,0.53790059,-0.22815309000000006,-1.85568322,-0.15845364,-0.110031,0.08196260999999998,-1.4505249199999999,-30.27733132,1.11609774,100.4936665,-1.0266266567,-0.20478681429999995,0.8028063772199999,-0.04346286982,-0.1116974791,0.074465706825
03:43:42,0.541875985,-0.23412573500000006,-1.85253713,-0.15973206,-0.108955,0.08044981499999998,-1.43535818,-30.249728779999998,1.1499492100000002,98.74044475000001,-1.0209972080499998,-0.21015825344999994,0.79789705763,-0.04548911653,-0.11066574765000001,0.0763535482375
