Timestamp,linacce_x,linacce_y,linacce_z,gyro_x,gyro_y,gyro_z,X-magnetometer,Y-magnetometer,Z-magnetometer,Yaw, worldXAccel,worldYAccel,worldZAccel,worldXgyro,worldYgyro,worldZgyro
03:37:40,-0.136907,-0.717234,-1.180296,0.660294,0.06306,-0.573913,-4.683872,30.808811,-26.633781,10.206335,-0.7902554,-0.6531786,-0.7288023,0.16241962,0.14798509,-0.860886
03:37:40,-0.145413315,-0.697639145,-1.176488445,0.652399775,0.063448855,-0.57520207,-4.685189695,30.808687574999997,-26.63177653,10.259308879999999,-0.7983523950000001,-0.636858628,-0.723919674,0.15544812289999999,0.1478135592,-0.8561851594750001
03:37:40,-0.15391963,-0.67804429,-1.17268089,0.6445055500000001,0.06383771,-0.57649114,-4.68650739,30.80856415,-26.62977206,10.312282759999999,-0.80644939,-0.620538656,-0.719037048,0.14847662579999998,0.1476420284,-0.85148431895
03:37:40,-0.16242594500000002,-0.6584494350000001,-1.168873335,0.6366113250000001,0.064226565,-0.57778021,-4.687825085,30.808440724999997,-26.627767589999998,10.36525664,-0.8145463850000001,-0.604218684,-0.714154422,0.14150512869999998,0.1474704976,-0.846783478425
03:37:40,-0.17093226,-0.6388545800000001,-1.16506578,0.6287171,0.06461542,-0.57906928,-4.68914278,30.8083173,-26.62576312,10.41823052,-0.82264338,-0.5878987120000001,-0.709271796,0.13453363159999998,0.14729896680000001,-0.8420826379
03:37:40,-0.179438575,-0.619259725,-1.161258225,0.620822875,0.065004275,-0.58035835,-4.690460475,30.808193874999997,-26.62375865,10.4712044,-0.8307403750000001,-0.5715787400000001,-0.70438917,0.12756213449999998,0.147127436,-0.8373817973750001
03:37:40,-0.18794489,-0.59966487,-1.15745067,0.6129286500000001,0.06539313000000001,-0.58164742,-4.69177817,30.80807045,-26.62175418,10.52417828,-0.83883737,-0.5552587680000001,-0.699506544,0.12059063739999999,0.14695590520000001,-0.83268095685
03:37:40,-0.19645120500000002,-0.580070015,-1.153643115,0.605034425,0.065781985,-0.58293649,-4.693095865,30.807947024999997,-26.61974971,10.577152159999999,-0.8469343650000001,-0.538938796,-0.694623918,0.1136191403,0.1467843744,-0.827980116325
03:37:40,-0.20495752,-0.56047516,-1.14983556,0.5971402,0.06617084000000001,-0.58422556,-4.69441356,30.8078236,-26.617745239999998,10.630126039999999,-0.85503136,-0.522618824,-0.689741292,0.1066476432,0.14661284360000001,-0.8232792758
03:37:40,-0.213463835,-0.5408803050000001,-1.146028005,0.5892459750000001,0.066559695,-0.58551463,-4.695731255,30.807700174999997,-26.61574077,10.68309992,-0.8631283550000001,-0.506298852,-0.684858666,0.0996761461,0.1464413128,-0.8185784352750001
03:37:40,-0.22197015,-0.52128545,-1.14222045,0.5813517500000001,0.06694855000000001,-0.5868037,-4.69704895,30.80757675,-26.6137363,10.7360738,-0.87122535,-0.48997888,-0.67997604,0.092704649,0.14626978200000001,-0.81387759475
03:37:40,-0.23047646500000002,-0.501690595,-1.138412895,0.573457525,0.067337405,-0.58809277,-4.698366645,30.807453324999997,-26.61173183,10.78904768,-0.8793223450000001,-0.47365890800000005,-0.675093414,0.0857331519,0.1460982512,-0.809176754225
03:37:40,-0.23898278,-0.48209574,-1.13460534,0.5655633,0.06772626000000001,-0.58938184,-4.69968434,30.8073299,-26.60972736,10.84202156,-0.8874193400000001,-0.45733893600000003,-0.670210788,0.0787616548,0.14592672040000002,-0.8044759137
03:37:40,-0.247489095,-0.46250088500000003,-1.130797785,0.5576690750000001,0.068115115,-0.59067091,-4.701002035,30.807206474999997,-26.607722889999998,10.894995439999999,-0.895516335,-0.441018964,-0.665328162,0.0717901577,0.1457551896,-0.7997750731750001
03:37:40,-0.25599541000000003,-0.44290603,-1.12699023,0.54977485,0.06850397000000001,-0.59195998,-4.70231973,30.80708305,-26.60571842,10.947969319999999,-0.9036133300000001,-0.42469899200000005,-0.660445536,0.06481866060000001,0.14558365880000002,-0.79507423265
03:37:40,-0.264501725,-0.42331117500000004,-1.123182675,0.5418806250000001,0.068892825,-0.59324905,-4.703637425,30.806959624999998,-26.60371395,11.0009432,-0.911710325,-0.40837902000000004,-0.65556291,0.05784716350000001,0.145412128,-0.790373392125
03:37:40,-0.27300804,-0.40371632,-1.11937512,0.5339864000000001,0.06928168000000001,-0.5945381200000001,-4.70495512,30.8068362,-26.60170948,11.05391708,-0.9198073200000001,-0.392059048,-0.650680284,0.050875666400000005,0.14524059720000002,-0.7856725516
03:37:40,-0.281514355,-0.384121465,-1.115567565,0.526092175,0.069670535,-0.5958271900000001,-4.706272815,30.806712774999998,-26.59970501,11.10689096,-0.927904315,-0.375739076,-0.645797658,0.043904169300000004,0.1450690664,-0.7809717110750001
03:37:40,-0.29002067,-0.36452661000000003,-1.11176001,0.51819795,0.07005939,-0.59711626,-4.70759051,30.80658935,-26.597700539999998,11.15986484,-0.9360013100000001,-0.359419104,-0.640915032,0.036932672200000016,0.14489753560000002,-0.77627087055
03:37:40,-0.298526985,-0.344931755,-1.107952455,0.5103037250000001,0.070448245,-0.59840533,-4.708908205,30.806465924999998,-26.59569607,11.212838719999999,-0.944098305,-0.34309913200000003,-0.636032406,0.029961175100000015,0.1447260048,-0.771570030025
03:37:40,-0.3070333,-0.32533690000000004,-1.1041449,0.5024095000000001,0.0708371,-0.5996944,-4.7102259,30.8063425,-26.5936916,11.2658126,-0.9521953000000001,-0.32677916,-0.63114978,0.022989678000000013,0.14455447400000002,-0.7668691895
03:37:40,-0.315539615,-0.305742045,-1.100337345,0.49451527500000003,0.07122595500000001,-0.60098347,-4.711543595,30.806219074999998,-26.59168713,11.31878648,-0.9602922950000001,-0.310459188,-0.626267154,0.016018180900000012,0.1443829432,-0.7621683489750001
03:37:40,-0.32404593000000004,-0.28614719,-1.09652979,0.48662105000000005,0.07161481,-0.60227254,-4.71286129,30.80609565,-26.589682659999998,11.37176036,-0.9683892900000001,-0.29413921600000004,-0.621384528,0.00904668380000001,0.14421141240000002,-0.75746750845
03:37:40,-0.332552245,-0.26655233500000003,-1.092722235,0.4787268250000001,0.07200366500000001,-0.60356161,-4.714178985,30.805972224999998,-26.58767819,11.42473424,-0.976486285,-0.277819244,-0.616501902,0.002075186700000009,0.1440398816,-0.752766667925
03:37:40,-0.34105856,-0.24695748,-1.08891468,0.47083260000000005,0.07239252,-0.60485068,-4.71549668,30.8058488,-26.58567372,11.477708119999999,-0.9845832800000001,-0.261499272,-0.611619276,-0.004896310399999992,0.14386835080000002,-0.7480658274
03:37:40,-0.349564875,-0.22736262499999998,-1.085107125,0.46293837500000007,0.07278137500000001,-0.60613975,-4.716814375,30.805725374999998,-26.58366925,11.530681999999999,-0.9926802750000001,-0.2451793,-0.60673665,-0.011867807499999994,0.14369682,-0.7433649868750001
03:37:40,-0.35807119,-0.20776777000000002,-1.08129957,0.4550441500000001,0.07317023,-0.60742882,-4.71813207,30.80560195,-26.58166478,11.583655879999998,-1.0007772700000002,-0.22885932799999997,-0.601854024,-0.018839304599999995,0.14352528920000002,-0.73866414635
03:37:40,-0.366577505,-0.188172915,-1.077492015,0.44714992500000006,0.07355908500000001,-0.60871789,-4.719449765,30.805478524999998,-26.579660309999998,11.63662976,-1.008874265,-0.212539356,-0.596971398,-0.02581080169999997,0.1433537584,-0.733963305825
03:37:40,-0.37508382,-0.16857805999999997,-1.07368446,0.4392557,0.07394794,-0.61000696,-4.72076746,30.8053551,-26.57765584,11.68960364,-1.01697126,-0.196219384,-0.592088772,-0.03278229879999997,0.14318222760000002,-0.7292624653
03:37:40,-0.383590135,-0.14898320499999995,-1.069876905,0.43136147500000005,0.07433679500000001,-0.61129603,-4.722085155,30.805231674999998,-26.57565137,11.74257752,-1.025068255,-0.17989941199999998,-0.587206146,-0.03975379589999997,0.1430106968,-0.724561624775
03:37:40,-0.39209645000000004,-0.12938835000000004,-1.06606935,0.4234672500000001,0.07472565,-0.6125851,-4.72340285,30.80510825,-26.5736469,11.795551399999999,-1.0331652500000001,-0.16357944000000002,-0.58232352,-0.04672529299999997,0.14283916600000002,-0.71986078425
03:37:40,-0.400602765,-0.10979349500000002,-1.062261795,0.41557302500000004,0.075114505,-0.61387417,-4.724720545,30.804984825,-26.57164243,11.848525279999999,-1.041262245,-0.147259468,-0.577440894,-0.053696790099999975,0.1426676352,-0.715159943725
03:37:40,-0.40910908,-0.09019864,-1.05845424,0.40767880000000006,0.07550336,-0.61516324,-4.72603824,30.8048614,-26.569637959999998,11.90149916,-1.04935924,-0.130939496,-0.572558268,-0.060668287199999976,0.14249610440000002,-0.7104591032
03:37:40,-0.417615395,-0.07060378499999997,-1.054646685,0.3997845750000001,0.07589221500000001,-0.61645231,-4.727355935,30.804737975,-26.56763349,11.95447304,-1.057456235,-0.11461952399999997,-0.567675642,-0.06763978429999998,0.1423245736,-0.7057582626750001
03:37:40,-0.42612171,-0.05100892999999995,-1.05083913,0.39189035000000005,0.07628107,-0.61774138,-4.72867363,30.80461455,-26.56562902,12.00744692,-1.0655532300000001,-0.09829955199999996,-0.562793016,-0.07461128139999998,0.14215304280000002,-0.70105742215
03:37:40,-0.43462802500000003,-0.03141407500000004,-1.047031575,0.3839961250000001,0.076669925,-0.61903045,-4.729991325,30.804491125,-26.56362455,12.0604208,-1.0736502250000002,-0.08197957999999994,-0.55791039,-0.08158277849999998,0.141981512,-0.696356581625
03:37:40,-0.44313434,-0.01181922000000002,-1.04322402,0.37610190000000004,0.07705878000000001,-0.62031952,-4.73130902,30.8043677,-26.56162008,12.113394679999999,-1.08174722,-0.06565960799999992,-0.553027764,-0.08855427559999995,0.14180998120000002,-0.6916557411
03:37:40,-0.451640655,0.007775635000000003,-1.039416465,0.36820767500000007,0.077447635,-0.62160859,-4.732626715,30.804244275,-26.559615609999998,12.166368559999999,-1.089844215,-0.04933963600000002,-0.548145138,-0.09552577269999996,0.1416384504,-0.686954900575
03:37:40,-0.46014697000000004,0.027370490000000025,-1.03560891,0.3603134500000001,0.07783649000000001,-0.62289766,-4.73394441,30.80412085,-26.55761114,12.219342439999998,-1.0979412100000001,-0.033019664000000004,-0.543262512,-0.10249726979999996,0.14146691960000002,-0.68225406005
03:37:40,-0.46865328500000003,0.04696534500000005,-1.031801355,0.35241922500000006,0.078225345,-0.62418673,-4.735262105,30.803997425,-26.55560667,12.27231632,-1.1060382050000002,-0.016699691999999988,-0.538379886,-0.10946876689999996,0.1412953888,-0.677553219525
03:37:40,-0.4771596,0.06656019999999996,-1.0279938,0.3445250000000001,0.07861420000000001,-0.6254758,-4.7365798,30.803874,-26.5536022,12.3252902,-1.1141352000000002,-0.0003797199999999723,-0.53349726,-0.11644026399999996,0.14112385800000002,-0.6728523790000001
03:37:40,-0.485665915,0.08615505499999998,-1.024186245,0.33663077500000005,0.079003055,-0.62676487,-4.737897495,30.803750575,-26.55159773,12.37826408,-1.122232195,0.015940252000000044,-0.528614634,-0.12341176109999996,0.1409523272,-0.6681515384750001
03:37:40,-0.49417223,0.10574991,-1.02037869,0.32873655000000007,0.07939191000000001,-0.62805394,-4.73921519,30.80362715,-26.549593259999998,12.431237959999999,-1.13032919,0.03226022400000006,-0.523732008,-0.13038325819999996,0.14078079640000002,-0.66345069795
03:37:40,-0.502678545,0.12534476500000002,-1.016571135,0.3208423250000001,0.079780765,-0.62934301,-4.740532885,30.803503725,-26.54758879,12.48421184,-1.1384261850000001,0.048580196000000075,-0.518849382,-0.13735475529999996,0.1406092656,-0.658749857425
03:37:40,-0.51118486,0.14493962000000005,-1.01276358,0.31294810000000006,0.08016962,-0.63063208,-4.74185058,30.8033803,-26.54558432,12.53718572,-1.14652318,0.06490016799999998,-0.513966756,-0.14432625239999997,0.14043773480000002,-0.6540490169000001
03:37:40,-0.519691175,0.16453447500000007,-1.008956025,0.3050538750000001,0.080558475,-0.63192115,-4.743168275,30.803256875,-26.54357985,12.5901596,-1.154620175,0.08122014,-0.50908413,-0.15129774949999997,0.140266204,-0.649348176375
03:37:40,-0.52819749,0.18412932999999998,-1.00514847,0.29715965000000005,0.08094733000000001,-0.63321022,-4.74448597,30.80313345,-26.54157538,12.64313348,-1.16271717,0.09754011200000001,-0.504201504,-0.15826924659999997,0.14009467320000002,-0.64464733585
03:37:40,-0.536703805,0.203724185,-1.001340915,0.2892654250000001,0.081336185,-0.63449929,-4.745803665,30.803010025,-26.53957091,12.69610736,-1.1708141650000001,0.11386008400000003,-0.49931887799999997,-0.16524074369999997,0.1399231424,-0.639946495325
03:37:40,-0.54521012,0.22331904000000002,-0.99753336,0.28137120000000004,0.08172504,-0.63578836,-4.74712136,30.8028866,-26.53756644,12.749081239999999,-1.1789111600000002,0.13018005600000004,-0.494436252,-0.17221224079999997,0.13975161160000002,-0.6352456548000001
03:37:40,-0.553716435,0.24291389500000005,-0.993725805,0.27347697500000007,0.082113895,-0.6370774300000001,-4.748439055,30.802763175,-26.53556197,12.802055119999999,-1.187008155,0.14650002800000006,-0.489553626,-0.17918373789999997,0.1395800808,-0.630544814275
03:37:40,-0.56222275,0.26250875000000007,-0.98991825,0.2655827500000001,0.08250275000000001,-0.6383665000000001,-4.7497567499999995,30.802639749999997,-26.5335575,12.855028999999998,-1.19510515,0.16282000000000008,-0.484671,-0.18615523499999997,0.13940855000000002,-0.62584397375
03:37:40,-0.5707290650000001,0.282103605,-0.986110695,0.25768852500000006,0.08289160500000001,-0.63965557,-4.7510744449999995,30.802516325,-26.53155303,12.90800288,-1.2032021450000001,0.1791399720000001,-0.479788374,-0.19312673209999998,0.1392370192,-0.621143133225
03:37:40,-0.5792353800000001,0.30169846,-0.98230314,0.24979430000000008,0.08328046,-0.6409446400000001,-4.7523921399999995,30.802392899999997,-26.52954856,12.96097676,-1.2112991400000002,0.1954599440000001,-0.474905748,-0.20009822919999998,0.13906548840000002,-0.6164422927
03:37:40,-0.5877416950000001,0.321293315,-0.978495585,0.24190007500000005,0.08366931500000001,-0.64223371,-4.7537098349999996,30.802269475,-26.52754409,13.01395064,-1.2193961350000002,0.211779916,-0.470023122,-0.20706972629999998,0.1388939576,-0.611741452175
03:37:40,-0.59624801,0.34088817000000005,-0.97468803,0.23400585000000007,0.08405817,-0.64352278,-4.75502753,30.802146049999998,-26.52553962,13.066924519999999,-1.22749313,0.22809988800000003,-0.465140496,-0.21404122339999992,0.13872242680000002,-0.60704061165
03:37:40,-0.604754325,0.36048302500000007,-0.970880475,0.2261116250000001,0.08444702500000001,-0.64481185,-4.756345225,30.802022625,-26.52353515,13.1198984,-1.235590125,0.24441986000000004,-0.46025787,-0.22101272049999993,0.138550896,-0.602339771125
03:37:40,-0.61326064,0.3800778800000001,-0.96707292,0.21821740000000006,0.08483588,-0.64610092,-4.75766292,30.801899199999998,-26.52153068,13.17287228,-1.2436871200000001,0.26073983200000006,-0.455375244,-0.22798421759999993,0.13837936520000002,-0.5976389306000001
03:37:40,-0.621766955,0.3996727350000001,-0.963265365,0.21032317500000008,0.08522473500000001,-0.64738999,-4.758980615,30.801775775,-26.51952621,13.22584616,-1.251784115,0.2770598040000001,-0.450492618,-0.23495571469999993,0.1382078344,-0.5929380900750001
03:37:40,-0.63027327,0.41926759000000013,-0.95945781,0.20242895000000005,0.08561359,-0.64867906,-4.76029831,30.801652349999998,-26.51752174,13.27882004,-1.25988111,0.2933797760000001,-0.445609992,-0.24192721179999993,0.13803630360000002,-0.58823724955
03:37:40,-0.638779585,0.43886244499999993,-0.955650255,0.19453472500000007,0.08600244500000001,-0.64996813,-4.761616005,30.801528925,-26.51551727,13.331793919999999,-1.267978105,0.3096997480000001,-0.440727366,-0.24889870889999993,0.1378647728,-0.583536409025
03:37:40,-0.6472859000000001,0.45845729999999996,-0.9518427,0.1866405000000001,0.0863913,-0.6512572,-4.7629337,30.801405499999998,-26.5135128,13.384767799999999,-1.2760751000000001,0.32601972,-0.43584474,-0.25587020599999993,0.137693242,-0.5788355685
03:37:40,-0.6557922150000001,0.478052155,-0.948035145,0.17874627500000007,0.086780155,-0.65254627,-4.764251395,30.801282075,-26.511508329999998,13.437741679999998,-1.2841720950000002,0.34233969200000003,-0.430962114,-0.26284170309999993,0.1375217112,-0.574134727975
03:37:40,-0.66429853,0.49764701,-0.94422759,0.1708520500000001,0.08716901,-0.65383534,-4.76556909,30.801158649999998,-26.50950386,13.49071556,-1.29226909,0.35865966400000004,-0.426079488,-0.26981320019999994,0.13735018040000002,-0.56943388745
03:37:40,-0.672804845,0.517241865,-0.940420035,0.16295782500000006,0.08755786500000001,-0.65512441,-4.766886785,30.801035225,-26.50749939,13.54368944,-1.300366085,0.37497963600000006,-0.421196862,-0.27678469729999994,0.1371786496,-0.564733046925
03:37:40,-0.68131116,0.53683672,-0.93661248,0.15506360000000008,0.08794672,-0.65641348,-4.76820448,30.800911799999998,-26.50549492,13.59666332,-1.3084630800000001,0.3912996080000001,-0.416314236,-0.28375619439999994,0.1370071188,-0.5600322064000001
03:37:40,-0.689817475,0.5564315750000001,-0.932804925,0.14716937500000005,0.088335575,-0.65770255,-4.769522175,30.800788375,-26.50349045,13.649637199999999,-1.3165600750000002,0.4076195800000001,-0.41143161,-0.29072769149999994,0.136835588,-0.555331365875
03:37:40,-0.69832379,0.5760264300000001,-0.92899737,0.13927515000000013,0.08872443,-0.65899162,-4.77083987,30.800664949999998,-26.501485979999998,13.702611079999999,-1.3246570700000002,0.4239395520000001,-0.406548984,-0.29769918859999994,0.13666405720000002,-0.55063052535
03:37:40,-0.706830105,0.5956212850000001,-0.925189815,0.1313809250000001,0.08911328500000001,-0.66028069,-4.772157565,30.800541525,-26.49948151,13.75558496,-1.332754065,0.4402595240000001,-0.401666358,-0.30467068569999994,0.1364925264,-0.5459296848249999
03:37:40,-0.71533642,0.6152161400000001,-0.92138226,0.12348670000000006,0.08950214000000001,-0.66156976,-4.77347526,30.800418099999998,-26.49747704,13.80855884,-1.34085106,0.45657949600000014,-0.396783732,-0.31164218279999994,0.1363209956,-0.5412288443
03:37:40,-0.7238427350000001,0.6348109950000002,-0.917574705,0.11559247500000003,0.089890995,-0.66285883,-4.774792955,30.800294675,-26.49547257,13.86153272,-1.3489480550000001,0.47289946800000016,-0.391901106,-0.31861367989999995,0.1361494648,-0.536528003775
03:37:40,-0.7323490500000001,0.65440585,-0.91376715,0.1076982500000001,0.09027985000000001,-0.6641479,-4.77611065,30.80017125,-26.4934681,13.9145066,-1.35704505,0.48921944000000017,-0.38701848,-0.32558517699999995,0.135977934,-0.53182716325
03:37:40,-0.740855365,0.674000705,-0.909959595,0.09980402500000007,0.090668705,-0.66543697,-4.777428345,30.800047825,-26.49146363,13.967480479999999,-1.3651420450000002,0.5055394120000002,-0.382135854,-0.33255667409999995,0.1358064032,-0.527126322725
03:37:40,-0.74936168,0.69359556,-0.90615204,0.09190980000000004,0.09105756000000001,-0.66672604,-4.77874604,30.7999244,-26.48945916,14.020454359999999,-1.37323904,0.5218593840000002,-0.377253228,-0.3395281711999999,0.1356348724,-0.5224254822000001
03:37:40,-0.757867995,0.713190415,-0.902344485,0.08401557500000012,0.091446415,-0.66801511,-4.780063735,30.799800975,-26.48745469,14.073428239999998,-1.3813360350000001,0.538179356,-0.372370602,-0.3464996682999999,0.1354633416,-0.517724641675
03:37:40,-0.76637431,0.73278527,-0.89853693,0.07612135000000009,0.09183527000000001,-0.66930418,-4.78138143,30.79967755,-26.48545022,14.12640212,-1.3894330300000002,0.554499328,-0.367487976,-0.3534711653999999,0.1352918108,-0.51302380115
03:37:40,-0.774880625,0.7523801250000001,-0.894729375,0.06822712500000006,0.092224125,-0.67059325,-4.782699125,30.799554125,-26.48344575,14.179376,-1.397530025,0.5708193,-0.36260535,-0.3604426624999999,0.13512028,-0.5083229606249999
03:37:40,-0.7833869400000001,0.7719749800000001,-0.89092182,0.060332900000000134,0.09261298000000001,-0.67188232,-4.78401682,30.7994307,-26.48144128,14.23234988,-1.4056270200000003,0.587139272,-0.357722724,-0.3674141595999999,0.1349487492,-0.5036221201
03:37:40,-0.7918932550000001,0.7915698350000001,-0.887114265,0.0524386750000001,0.093001835,-0.67317139,-4.785334515,30.799307275,-26.47943681,14.285323759999999,-1.4137240150000001,0.6034592440000001,-0.352840098,-0.3743856566999999,0.1347772184,-0.498921279575
03:37:40,-0.8003995700000001,0.8111646900000001,-0.88330671,0.04454445000000007,0.09339069,-0.67446046,-4.78665221,30.79918385,-26.47743234,14.33829764,-1.4218210100000002,0.6197792160000001,-0.347957472,-0.3813571537999999,0.1346056876,-0.49422043905
03:37:40,-0.808905885,0.8307595450000002,-0.879499155,0.036650225000000036,0.093779545,-0.67574953,-4.787969905,30.799060425,-26.47542787,14.39127152,-1.4299180050000002,0.6360991880000001,-0.343074846,-0.3883286508999999,0.1344341568,-0.489519598525
03:37:40,-0.8174122,0.8503544,-0.8756916,0.028756000000000115,0.09416840000000001,-0.6770386,-4.7892876,30.798937,-26.4734234,14.4442454,-1.438015,0.6524191600000001,-0.33819222,-0.3953001479999999,0.134262626,-0.484818758
03:37:40,-0.825918515,0.869949255,-0.871884045,0.020861775000000082,0.094557255,-0.67832767,-4.790605295,30.798813575,-26.47141893,14.49721928,-1.446111995,0.6687391320000001,-0.333309594,-0.4022716450999999,0.1340910952,-0.480117917475
03:37:40,-0.83442483,0.88954411,-0.86807649,0.01296755000000005,0.09494611,-0.67961674,-4.79192299,30.79869015,-26.46941446,14.55019316,-1.4542089900000001,0.6850591040000001,-0.328426968,-0.4092431421999999,0.1339195644,-0.47541707695
03:37:40,-0.842931145,0.909138965,-0.864268935,0.005073325000000128,0.09533496500000001,-0.6809058100000001,-4.793240685,30.798566725,-26.46740999,14.603167039999999,-1.462305985,0.7013790760000002,-0.323544342,-0.4162146392999999,0.1337480336,-0.470716236425
03:37:40,-0.85143746,0.92873382,-0.86046138,-0.002820899999999904,0.09572382000000002,-0.68219488,-4.79455838,30.7984433,-26.46540552,14.656140919999999,-1.4704029800000002,0.7176990480000002,-0.318661716,-0.4231861363999999,0.1335765028,-0.4660153959
03:37:40,-0.8599437750000001,0.9483286750000001,-0.856653825,-0.010715124999999937,0.09611267500000001,-0.6834839500000001,-4.795876075,30.798319875,-26.46340105,14.709114799999998,-1.478499975,0.7340190200000002,-0.31377909,-0.4301576334999999,0.133404972,-0.461314555375
03:37:40,-0.8684500900000001,0.9679235300000001,-0.85284627,-0.018609349999999858,0.09650153,-0.68477302,-4.79719377,30.79819645,-26.46139658,14.76208868,-1.4865969700000001,0.7503389920000002,-0.308896464,-0.4371291305999999,0.1332334412,-0.45661371485
03:37:40,-0.876956405,0.9875183850000001,-0.849038715,-0.02650357499999989,0.09689038500000001,-0.6860620900000001,-4.798511465,30.798073025,-26.45939211,14.81506256,-1.4946939650000002,0.7666589640000002,-0.304013838,-0.4441006276999999,0.1330619104,-0.451912874325
03:37:40,-0.88546272,1.0071132400000002,-0.84523116,-0.03439779999999992,0.09727924,-0.68735116,-4.79982916,30.7979496,-26.45738764,14.86803644,-1.50279096,0.782978936,-0.299131212,-0.4510721247999999,0.1328903796,-0.4472120338
03:37:40,-0.893969035,1.026708095,-0.841423605,-0.042292024999999955,0.09766809500000001,-0.68864023,-4.801146855,30.797826175,-26.45538317,14.92101032,-1.5108879550000003,0.799298908,-0.294248586,-0.4580436218999999,0.1327188488,-0.442511193275
03:37:40,-0.90247535,1.0463029500000003,-0.8376160500000001,-0.05018624999999988,0.09805695,-0.6899293,-4.80246455,30.79770275,-26.453378700000002,14.9739842,-1.5189849500000001,0.81561888,-0.28936596,-0.4650151189999999,0.132547318,-0.43781035275
03:37:40,-0.910981665,1.065897805,-0.833808495,-0.05808047499999991,0.098445805,-0.69121837,-4.803782245,30.797579325,-26.45137423,15.02695808,-1.5270819450000002,0.8319388520000001,-0.284483334,-0.4719866160999999,0.1323757872,-0.433109512225
03:37:40,-0.9194879800000001,1.0854926599999999,-0.8300009399999999,-0.06597469999999994,0.09883466,-0.69250744,-4.80509994,30.7974559,-26.44936976,15.07993196,-1.5351789400000002,0.8482588240000001,-0.279600708,-0.4789581131999999,0.1322042564,-0.4284086717
03:37:40,-0.9279942950000001,1.1050875150000001,-0.8261933850000001,-0.07386892499999986,0.09922351500000001,-0.69379651,-4.806417635,30.797332475,-26.44736529,15.13290584,-1.543275935,0.8645787960000001,-0.274718082,-0.4859296102999999,0.1320327256,-0.423707831175
03:37:40,-0.9365006100000001,1.12468237,-0.82238583,-0.0817631499999999,0.09961237,-0.69508558,-4.80773533,30.79720905,-26.44536082,15.185879719999999,-1.55137293,0.8808987680000001,-0.269835456,-0.4929011073999999,0.1318611948,-0.41900699065
03:37:40,-0.945006925,1.1442772250000002,-0.8185782749999999,-0.08965737499999993,0.100001225,-0.69637465,-4.809053025,30.797085625,-26.443356350000002,15.238853599999999,-1.5594699250000001,0.8972187400000001,-0.26495283,-0.49987260449999993,0.131689664,-0.414306150125
03:37:40,-0.95351324,1.16387208,-0.8147707200000001,-0.09755159999999996,0.10039008,-0.69766372,-4.81037072,30.7969622,-26.44135188,15.291827479999998,-1.56756692,0.9135387120000001,-0.260070204,-0.5068441015999999,0.1315181332,-0.40960530959999997
03:37:40,-0.962019555,1.1834669350000002,-0.810963165,-0.10544582499999988,0.10077893500000001,-0.69895279,-4.811688415,30.796838775,-26.43934741,15.344801359999998,-1.5756639150000002,0.9298586840000002,-0.255187578,-0.5138155986999999,0.1313466024,-0.404904469075
03:37:40,-0.97052587,1.20306179,-0.8071556099999999,-0.11334004999999991,0.10116779000000001,-0.70024186,-4.81300611,30.79671535,-26.43734294,15.39777524,-1.58376091,0.9461786560000002,-0.250304952,-0.5207870957999999,0.1311750716,-0.40020362854999997
03:37:40,-0.979032185,1.2226566450000003,-0.8033480550000001,-0.12123427499999995,0.101556645,-0.70153093,-4.814323805,30.796591925,-26.43533847,15.45074912,-1.5918579050000001,0.9624986280000002,-0.24542232600000002,-0.5277585928999999,0.1310035408,-0.395502788025
03:37:40,-0.9875385,1.2422515,-0.7995405,-0.12912849999999987,0.10194550000000001,-0.70282,-4.8156415,30.7964685,-26.433334000000002,15.503722999999999,-1.5999549000000002,0.9788186000000002,-0.24053970000000002,-0.5347300899999999,0.13083201,-0.39080194749999997
03:37:40,-0.9960448150000001,1.2618463550000003,-0.7957329449999999,-0.1370227249999999,0.10233435500000002,-0.70410907,-4.816959195,30.796345074999998,-26.43132953,15.55669688,-1.608051895,0.9951385720000002,-0.23565707400000002,-0.5417015870999999,0.1306604792,-0.386101106975
03:37:40,-1.00455113,1.28144121,-0.7919253900000001,-0.14491694999999993,0.10272321000000001,-0.70539814,-4.81827689,30.79622165,-26.42932506,15.60967076,-1.6161488900000003,1.0114585440000003,-0.23077444800000002,-0.5486730841999999,0.1304889484,-0.38140026644999997
03:37:40,-1.013057445,1.3010360650000004,-0.788117835,-0.15281117499999985,0.103112065,-0.70668721,-4.819594585,30.796098224999998,-26.42732059,15.66264464,-1.6242458850000001,1.0277785160000001,-0.22589182200000002,-0.5556445812999999,0.1303174176,-0.376699425925
03:37:40,-1.02156376,1.3206309200000002,-0.7843102799999999,-0.1607053999999999,0.10350092000000001,-0.70797628,-4.82091228,30.7959748,-26.42531612,15.71561852,-1.6323428800000002,1.0440984880000004,-0.22100919600000002,-0.5626160783999999,0.1301458868,-0.37199858539999997
03:37:40,-1.030070075,1.3402257750000004,-0.7805027250000001,-0.16859962499999992,0.103889775,-0.70926535,-4.822229975,30.795851374999998,-26.42331165,15.7685924,-1.6404398750000002,1.0604184600000002,-0.21612657000000002,-0.5695875754999999,0.129974356,-0.367297744875
03:37:40,-1.03857639,1.3598206300000002,-0.77669517,-0.17649384999999995,0.10427863000000001,-0.71055442,-4.82354767,30.79572795,-26.42130718,15.821566279999999,-1.64853687,1.076738432,-0.21124394400000002,-0.5765590725999999,0.1298028252,-0.36259690434999997
03:37:40,-1.047082705,1.379415485,-0.7728876149999999,-0.18438807499999987,0.104667485,-0.71184349,-4.824865365,30.795604524999998,-26.41930271,15.874540159999999,-1.6566338650000003,1.0930584040000002,-0.20636131800000002,-0.5835305696999998,0.1296312944,-0.35789606382499994
03:37:40,-1.0555890200000002,1.3990103400000002,-0.7690800600000001,-0.1922822999999999,0.10505634,-0.71313256,-4.82618306,30.7954811,-26.41729824,15.927514039999998,-1.6647308600000001,1.109378376,-0.20147869200000001,-0.5905020667999998,0.1294597636,-0.35319522329999997
03:37:40,-1.0640953350000002,1.418605195,-0.765272505,-0.20017652499999994,0.105445195,-0.71442163,-4.827500755,30.795357674999998,-26.41529377,15.980487919999998,-1.6728278550000002,1.1256983480000002,-0.196596066,-0.5974735638999998,0.1292882328,-0.348494382775
03:37:40,-1.0726016500000002,1.4382000500000003,-0.7614649499999999,-0.20807074999999986,0.10583405000000001,-0.7157107,-4.82881845,30.79523425,-26.4132893,16.033461799999998,-1.6809248500000002,1.14201832,-0.19171344,-0.6044450609999998,0.129116702,-0.34379354225000003
03:37:40,-1.0811079650000002,1.457794905,-0.7576573950000001,-0.2159649749999999,0.106222905,-0.71699977,-4.830136145,30.795110825,-26.41128483,16.08643568,-1.689021845,1.1583382920000003,-0.186830814,-0.6114165580999998,0.1289451712,-0.33909270172499995
03:37:40,-1.0896142800000002,1.4773897600000003,-0.75384984,-0.22385919999999992,0.10661176,-0.71828884,-4.83145384,30.7949874,-26.40928036,16.139409559999997,-1.6971188400000001,1.174658264,-0.181948188,-0.6183880551999998,0.1287736404,-0.3343918612
03:37:40,-1.0981205950000001,1.4969846150000001,-0.7500422849999999,-0.23175342499999985,0.10700061500000001,-0.71957791,-4.832771535,30.794863975,-26.40727589,16.19238344,-1.7052158350000002,1.1909782360000003,-0.177065562,-0.6253595522999998,0.12860210960000001,-0.329691020675
03:37:40,-1.1066269100000001,1.5165794700000004,-0.7462347300000001,-0.23964764999999988,0.10738947000000001,-0.72086698,-4.83408923,30.79474055,-26.405271420000002,16.24535732,-1.71331283,1.207298208,-0.172182936,-0.6323310493999998,0.1284305788,-0.32499018015000003
03:37:40,-1.1151332250000001,1.5361743250000002,-0.742427175,-0.2475418749999999,0.10777832500000001,-0.72215605,-4.835406925,30.794617125,-26.40326695,16.2983312,-1.7214098250000003,1.2236181800000003,-0.16730031,-0.6393025464999998,0.12825904800000001,-0.32028933962499995
03:37:40,-1.12363954,1.5557691800000004,-0.7386196199999999,-0.25543609999999994,0.10816718,-0.72344512,-4.83672462,30.7944937,-26.40126248,16.35130508,-1.7295068200000001,1.2399381520000001,-0.162417684,-0.6462740435999998,0.1280875172,-0.3155884991
03:37:40,-1.132145855,1.5753640350000002,-0.734812065,-0.26333032499999987,0.10855603500000001,-0.72473419,-4.838042315,30.794370275,-26.39925801,16.40427896,-1.7376038150000002,1.2562581240000004,-0.157535058,-0.6532455406999998,0.12791598640000001,-0.310887658575
03:37:40,-1.14065217,1.59495889,-0.73100451,-0.2712245499999999,0.10894489000000002,-0.7260232600000001,-4.83936001,30.79424685,-26.39725354,16.45725284,-1.7457008100000002,1.2725780960000002,-0.152652432,-0.6602170377999999,0.1277444556,-0.30618681805000003
03:37:40,-1.149158485,1.6145537450000003,-0.7271969549999999,-0.27911877499999993,0.10933374500000001,-0.72731233,-4.840677705,30.794123425,-26.395249070000002,16.51022672,-1.753797805,1.2888980680000004,-0.147769806,-0.6671885348999999,0.12757292480000001,-0.30148597752499995
03:37:40,-1.1576648,1.6341486,-0.7233894,-0.28701299999999985,0.1097226,-0.7286014000000001,-4.8419954,30.794,-26.3932446,16.5632006,-1.7618948000000003,1.3052180400000002,-0.14288718,-0.6741600319999999,0.127401394,-0.296785137
03:37:40,-1.166171115,1.6537434550000003,-0.719581845,-0.2949072249999999,0.110111455,-0.72989047,-4.843313095,30.793876575,-26.39124013,16.616174479999998,-1.7699917950000001,1.321538012,-0.138004554,-0.6811315290999999,0.12722986320000002,-0.292084296475
03:37:40,-1.17467743,1.67333831,-0.7157742899999999,-0.3028014499999999,0.11050031,-0.7311795400000001,-4.84463079,30.79375315,-26.38923566,16.66914836,-1.7780887900000002,1.3378579840000002,-0.133121928,-0.6881030261999999,0.1270583324,-0.28738345595000003
03:37:40,-1.183183745,1.6929331650000004,-0.711966735,-0.31069567499999984,0.11088916500000001,-0.73246861,-4.845948485,30.793629725,-26.38723119,16.722122239999997,-1.7861857850000002,1.3541779560000005,-0.128239302,-0.6950745232999999,0.1268868016,-0.28268261542499995
03:37:40,-1.19169006,1.7125280200000002,-0.70815918,-0.31858989999999987,0.11127802,-0.73375768,-4.84726618,30.7935063,-26.385226720000002,16.77509612,-1.79428278,1.3704979280000003,-0.123356676,-0.7020460203999999,0.1267152708,-0.2779817749
03:37:40,-1.200196375,1.7321228750000004,-0.7043516249999999,-0.3264841249999999,0.111666875,-0.73504675,-4.848583875,30.793382875,-26.38322225,16.82807,-1.8023797750000004,1.3868179000000005,-0.11847405,-0.7090175174999999,0.12654374000000002,-0.273280934375
03:37:40,-1.20870269,1.7517177300000002,-0.70054407,-0.33437834999999994,0.11205573,-0.73633582,-4.84990157,30.79325945,-26.38121778,16.88104388,-1.8104767700000002,1.4031378720000003,-0.113591424,-0.7159890145999999,0.1263722092,-0.26858009385000003
03:37:40,-1.217209005,1.7713125850000004,-0.696736515,-0.34227257499999986,0.11244458500000001,-0.73762489,-4.851219265,30.793136025,-26.37921331,16.93401776,-1.818573765,1.4194578440000005,-0.108708798,-0.7229605116999999,0.1262006784,-0.26387925332499995
03:37:40,-1.22571532,1.7909074400000002,-0.6929289599999999,-0.3501667999999999,0.11283344000000001,-0.73891396,-4.85253696,30.7930126,-26.37720884,16.98699164,-1.8266707600000003,1.4357778160000003,-0.103826172,-0.7299320087999999,0.1260291476,-0.2591784128
03:37:40,-1.234221635,1.810502295,-0.689121405,-0.3580610249999999,0.113222295,-0.74020303,-4.853854655,30.792889175,-26.375204370000002,17.03996552,-1.8347677550000001,1.4520977880000001,-0.098943546,-0.7369035058999999,0.12585761680000002,-0.254477572275
03:37:40,-1.24272795,1.8300971500000003,-0.68531385,-0.36595524999999995,0.11361115000000001,-0.7414921,-4.85517235,30.79276575,-26.3731999,17.0929394,-1.8428647500000004,1.4684177600000003,-0.09406091999999999,-0.7438750029999999,0.125686086,-0.24977673174999993
03:37:40,-1.251234265,1.849692005,-0.6815062949999999,-0.373849475,0.11400000500000002,-0.74278117,-4.856490045,30.792642325,-26.37119543,17.14591328,-1.8509617450000002,1.4847377320000001,-0.08917829399999999,-0.7508465000999999,0.1255145552,-0.24507589122499995
03:37:40,-1.2597405799999999,1.8692868600000003,-0.67769874,-0.3817436999999998,0.11438886000000001,-0.74407024,-4.85780774,30.7925189,-26.36919096,17.198887159999998,-1.85905874,1.5010577040000004,-0.08429566799999999,-0.7578179971999999,0.1253430244,-0.24037505069999998
03:37:40,-1.2682468949999999,1.8888817150000001,-0.673891185,-0.38963792499999983,0.114777715,-0.74535931,-4.859125435,30.792395475,-26.36718649,17.25186104,-1.8671557350000003,1.5173776760000002,-0.07941304199999999,-0.7647894942999999,0.12517149360000002,-0.235674210175
03:37:40,-1.2767532099999999,1.9084765700000004,-0.6700836299999999,-0.39753214999999986,0.11516657000000001,-0.74664838,-4.86044313,30.79227205,-26.365182020000002,17.304834919999998,-1.8752527300000001,1.5336976480000004,-0.07453041599999999,-0.7717609913999999,0.1249999628,-0.23097336964999993
03:37:40,-1.2852595249999998,1.9280714250000002,-0.666276075,-0.4054263749999999,0.11555542500000002,-0.74793745,-4.861760825,30.792148625,-26.36317755,17.3578088,-1.883349725,1.5500176200000002,-0.06964778999999999,-0.7787324884999999,0.124828432,-0.22627252912499995
03:37:40,-1.2937658399999998,1.9476662800000004,-0.66246852,-0.4133205999999999,0.11594428000000001,-0.74922652,-4.86307852,30.7920252,-26.36117308,17.41078268,-1.8914467200000002,1.5663375920000004,-0.06476516399999999,-0.7857039855999999,0.1246569012,-0.22157168859999998
03:37:40,-1.3022721550000003,1.9672611350000002,-0.6586609649999999,-0.42121482499999996,0.116333135,-0.75051559,-4.864396215,30.791901775,-26.35916861,17.46375656,-1.899543715,1.5826575640000002,-0.059882537999999985,-0.7926754826999999,0.1244853704,-0.216870848075
03:37:40,-1.3107784700000003,1.9868559900000005,-0.65485341,-0.42910905,0.11672199,-0.75180466,-4.86571391,30.79177835,-26.357164140000002,17.51673044,-1.9076407100000004,1.5989775360000005,-0.054999911999999984,-0.7996469797999999,0.1243138396,-0.21217000754999993
03:37:40,-1.3192847850000002,2.0064508450000003,-0.651045855,-0.4370032749999998,0.117110845,-0.75309373,-4.867031605,30.791654925,-26.355159670000003,17.56970432,-1.9157377050000002,1.6152975080000003,-0.05011728599999998,-0.8066184768999999,0.1241423088,-0.20746916702499996
03:37:40,-1.3277911000000002,2.0260457,-0.6472382999999999,-0.44489749999999983,0.11749970000000001,-0.7543828,-4.8683493,30.7915315,-26.3531552,17.6226782,-1.9238347,1.6316174800000005,-0.04523465999999998,-0.8135899739999999,0.123970778,-0.20276832649999998
03:37:40,-1.3362974150000002,2.0456405550000003,-0.643430745,-0.45279172499999987,0.117888555,-0.75567187,-4.869666995,30.791408075,-26.35115073,17.67565208,-1.9319316950000003,1.6479374520000003,-0.04035203399999998,-0.8205614710999999,0.1237992472,-0.198067485975
03:37:40,-1.3448037300000002,2.06523541,-0.63962319,-0.4606859499999999,0.11827741,-0.75696094,-4.87098469,30.79128465,-26.34914626,17.72862596,-1.9400286900000001,1.6642574240000005,-0.03546940799999998,-0.8275329681999999,0.1236277164,-0.19336664544999993
03:37:40,-1.3533100450000002,2.0848302650000003,-0.6358156349999999,-0.46858017499999993,0.118666265,-0.75825001,-4.872302385,30.791161225,-26.347141790000002,17.78159984,-1.9481256850000004,1.6805773960000003,-0.03058678199999998,-0.8345044652999999,0.1234561856,-0.18866580492499996
03:37:40,-1.3618163600000002,2.10442512,-0.63200808,-0.47647439999999996,0.11905512000000001,-0.75953908,-4.87362008,30.7910378,-26.34513732,17.83457372,-1.9562226800000002,1.6968973680000006,-0.025704155999999978,-0.8414759623999998,0.1232846548,-0.1839649644
03:37:40,-1.3703226750000002,2.1240199750000004,-0.628200525,-0.4843686249999998,0.11944397500000001,-0.76082815,-4.874937775,30.790914375,-26.34313285,17.887547599999998,-1.964319675,1.7132173400000004,-0.020821529999999977,-0.8484474594999999,0.123113124,-0.17926412387500001
03:37:40,-1.3788289900000001,2.14361483,-0.6243929699999999,-0.4922628499999998,0.11983283,-0.76211722,-4.87625547,30.79079095,-26.34112838,17.94052148,-1.9724166700000003,1.7295373120000002,-0.015938903999999976,-0.8554189565999998,0.1229415932,-0.17456328334999993
03:37:40,-1.3873353050000001,2.1632096850000004,-0.620585415,-0.5001570749999998,0.12022168500000001,-0.76340629,-4.877573165,30.790667525,-26.33912391,17.99349536,-1.9805136650000001,1.7458572840000004,-0.011056277999999975,-0.8623904536999999,0.1227700624,-0.16986244282499996
03:37:40,-1.3958416200000001,2.1828045400000002,-0.61677786,-0.5080512999999999,0.12061054000000002,-0.76469536,-4.87889086,30.7905441,-26.337119440000002,18.04646924,-1.98861066,1.7621772560000002,-0.006173651999999974,-0.8693619507999998,0.1225985316,-0.1651616023
03:37:40,-1.404347935,2.2023993950000005,-0.6129703049999999,-0.5159455249999999,0.12099939500000001,-0.76598443,-4.880208554999999,30.790420675,-26.33511497,18.09944312,-1.9967076550000002,1.7784972280000004,-0.001291025999999973,-0.8763334478999999,0.1224270008,-0.16046076177500002
03:37:40,-1.41285425,2.2219942500000003,-0.60916275,-0.5238397499999999,0.12138825,-0.7672734999999999,-4.88152625,30.790297250000002,-26.3331105,18.152417,-2.00480465,1.7948172000000002,0.003591600000000028,-0.8833049449999998,0.12225547,-0.15575992124999993
03:37:40,-1.421360565,2.241589105,-0.605355195,-0.531733975,0.12177710500000001,-0.7685625700000001,-4.882843944999999,30.790173825,-26.33110603,18.20539088,-2.0129016450000004,1.8111371720000005,0.008474226000000029,-0.8902764420999999,0.1220839392,-0.15105908072499996
03:37:40,-1.42986688,2.2611839600000003,-0.6015476399999999,-0.5396281999999998,0.12216596,-0.76985164,-4.884161639999999,30.7900504,-26.32910156,18.25836476,-2.02099864,1.8274571440000003,0.01335685200000003,-0.8972479391999998,0.1219124084,-0.1463582402
03:37:40,-1.438373195,2.280778815,-0.597740085,-0.5475224249999998,0.12255481500000001,-0.7711407100000001,-4.885479334999999,30.789926975,-26.327097090000002,18.31133864,-2.029095635,1.8437771160000005,0.01823947800000003,-0.9042194362999999,0.12174087759999999,-0.14165739967500002
03:37:40,-1.44687951,2.3003736700000004,-0.59393253,-0.5554166499999998,0.12294367,-0.77242978,-4.886797029999999,30.78980355,-26.32509262,18.36431252,-2.0371926300000003,1.8600970880000003,0.023122104000000032,-0.9111909333999998,0.1215693468,-0.13695655914999993
03:37:40,-1.455385825,2.319968525,-0.5901249749999999,-0.5633108749999999,0.123332525,-0.7737188500000001,-4.888114724999999,30.789680125,-26.32308815,18.417286400000002,-2.045289625,1.8764170600000005,0.028004730000000033,-0.9181624304999999,0.12139781599999999,-0.13225571862499996
03:37:40,-1.46389214,2.3395633800000004,-0.58631742,-0.5712050999999999,0.12372138,-0.77500792,-4.8894324199999994,30.7895567,-26.32108368,18.470260279999998,-2.0533866200000004,1.8927370320000003,0.032887356000000034,-0.9251339275999998,0.1212262852,-0.1275548781
03:37:40,-1.472398455,2.359158235,-0.582509865,-0.5790993249999999,0.12411023500000001,-0.7762969900000001,-4.8907501149999995,30.789433275,-26.31907921,18.52323416,-2.061483615,1.9090570040000006,0.037769982000000035,-0.9321054246999999,0.12105475439999999,-0.12285403757500002
03:37:40,-1.48090477,2.3787530900000005,-0.5787023099999999,-0.58699355,0.12449909,-0.77758606,-4.8920678099999995,30.78930985,-26.317074740000002,18.576208039999997,-2.06958061,1.9253769760000004,0.042652608000000036,-0.9390769217999998,0.1208832236,-0.11815319704999994
03:37:40,-1.489411085,2.3983479450000003,-0.574894755,-0.5948877749999998,0.124887945,-0.77887513,-4.8933855049999995,30.789186425,-26.31507027,18.62918192,-2.0776776050000003,1.9416969480000006,0.04753523400000004,-0.9460484188999999,0.12071169279999999,-0.11345235652499996
03:37:40,-1.4979174,2.4179428,-0.5710872,-0.6027819999999998,0.12527680000000002,-0.7801642,-4.8947031999999995,30.789063,-26.3130658,18.6821558,-2.0857746,1.9580169200000004,0.05241786000000004,-0.9530199159999998,0.120540162,-0.10875151599999999
03:37:40,-1.506423715,2.4375376550000003,-0.5672796449999999,-0.6106762249999999,0.125665655,-0.78145327,-4.8960208949999995,30.788939575,-26.31106133,18.73512968,-2.0938715950000004,1.9743368920000002,0.05730048600000004,-0.9599914130999999,0.12036863119999999,-0.10405067547499991
03:37:40,-1.51493003,2.45713251,-0.56347209,-0.6185704499999999,0.12605451,-0.78274234,-4.8973385899999995,30.78881615,-26.309056860000002,18.78810356,-2.1019685900000002,1.9906568640000004,0.06218311200000004,-0.9669629101999998,0.1201971004,-0.09934983494999994
03:37:40,-1.523436345,2.4767273650000003,-0.559664535,-0.6264646749999999,0.126443365,-0.78403141,-4.8986562849999995,30.788692725,-26.307052390000003,18.84107744,-2.110065585,2.006976836,0.06706573800000004,-0.9739344072999999,0.12002556959999999,-0.09464899442499997
03:37:40,-1.53194266,2.49632222,-0.55585698,-0.6343589,0.12683222,-0.78532048,-4.8999739799999995,30.7885693,-26.30504792,18.89405132,-2.1181625800000004,2.0232968080000004,0.07194836400000004,-0.9809059043999998,0.1198540388,-0.0899481539
03:37:40,-1.5404489749999999,2.5159170750000004,-0.552049425,-0.642253125,0.12722107500000002,-0.78660955,-4.9012916749999995,30.788445875,-26.30304345,18.9470252,-2.126259575,2.0396167800000002,0.07683099000000004,-0.9878774014999999,0.11968250799999999,-0.08524731337499991
03:37:40,-1.5489552899999999,2.53551193,-0.54824187,-0.6501473499999998,0.12760993,-0.78789862,-4.9026093699999995,30.78832245,-26.30103898,18.999999080000002,-2.13435657,2.0559367520000005,0.08171361600000004,-0.9948488985999998,0.11951097720000001,-0.08054647284999994
03:37:40,-1.5574616049999999,2.5551067850000004,-0.544434315,-0.6580415749999998,0.127998785,-0.78918769,-4.9039270649999995,30.788199025,-26.299034510000002,19.052972959999998,-2.1424535650000003,2.0722567240000003,0.08659624200000005,-1.0018203956999998,0.1193394464,-0.07584563232499997
03:37:40,-1.5659679199999998,2.5747016400000002,-0.54062676,-0.6659357999999999,0.12838764000000003,-0.79047676,-4.9052447599999995,30.7880756,-26.297030040000003,19.10594684,-2.15055056,2.0885766960000005,0.09147886800000005,-1.0087918927999997,0.11916791560000001,-0.0711447918
03:37:40,-1.5744742350000003,2.5942964950000005,-0.536819205,-0.6738300249999999,0.128776495,-0.79176583,-4.9065624549999995,30.787952175,-26.29502557,19.158920719999998,-2.1586475550000004,2.1048966680000003,0.09636149400000005,-1.0157633899,0.1189963848,-0.06644395127499991
03:37:40,-1.5829805500000003,2.6138913500000003,-0.53301165,-0.6817242499999999,0.12916535,-0.7930549,-4.9078801499999996,30.78782875,-26.2930211,19.2118946,-2.16674455,2.1212166400000005,0.10124412000000005,-1.022734887,0.118824854,-0.06174311074999994
03:37:40,-1.5914868650000003,2.633486205,-0.529204095,-0.689618475,0.129554205,-0.79434397,-4.909197845,30.787705325,-26.29101663,19.264868479999997,-2.174841545,2.1375366120000003,0.10612674600000005,-1.0297063840999998,0.1186533232,-0.05704227022499997
03:37:40,-1.5999931800000002,2.6530810600000003,-0.52539654,-0.6975126999999998,0.12994306,-0.79563304,-4.91051554,30.7875819,-26.289012160000002,19.31784236,-2.1829385400000003,2.1538565840000006,0.11100937200000005,-1.0366778811999997,0.1184817924,-0.0523414297
03:37:40,-1.6084994950000002,2.672675915,-0.521588985,-0.7054069249999998,0.13033191500000002,-0.79692211,-4.911833235,30.787458475,-26.287007690000003,19.37081624,-2.191035535,2.1701765560000004,0.11589199800000005,-1.0436493782999996,0.1183102616,-0.047640589174999914
03:37:40,-1.6170058100000002,2.6922707700000004,-0.51778143,-0.7133011499999998,0.13072077000000001,-0.79821118,-4.91315093,30.78733505,-26.28500322,19.42379012,-2.1991325300000004,2.1864965280000006,0.12077462400000005,-1.0506208754,0.1181387308,-0.04293974864999994
03:37:40,-1.6255121250000002,2.711865625,-0.513973875,-0.7211953749999999,0.131109625,-0.79950025,-4.914468625,30.787211625,-26.28299875,19.476764,-2.2072295250000002,2.2028165000000004,0.12565725000000005,-1.0575923724999998,0.1179672,-0.03823890812499997
03:37:40,-1.6340184400000002,2.7314604800000004,-0.51016632,-0.7290895999999999,0.13149848,-0.80078932,-4.91578632,30.7870882,-26.28099428,19.52973788,-2.21532652,2.219136472,0.13053987600000005,-1.0645638695999997,0.1177956692,-0.0335380676
03:37:40,-1.6425247550000002,2.751055335,-0.506358765,-0.7369838249999999,0.131887335,-0.80207839,-4.917104015,30.786964775,-26.278989810000002,19.58271176,-2.2234235150000004,2.2354564440000004,0.13542250200000006,-1.0715353666999996,0.1176241384,-0.028837227074999916
03:37:40,-1.6510310700000002,2.7706501900000005,-0.50255121,-0.74487805,0.13227619000000002,-0.80336746,-4.91842171,30.78684135,-26.276985340000003,19.63568564,-2.23152051,2.2517764160000002,0.14030512800000006,-1.0785068638,0.1174526076,-0.024136386549999944
03:37:40,-1.6595373850000001,2.7902450450000003,-0.49874365499999995,-0.7527722749999998,0.132665045,-0.80465653,-4.919739405,30.786717925,-26.27498087,19.68865952,-2.239617505,2.2680963880000005,0.14518775400000006,-1.0854783608999998,0.1172810768,-0.019435546024999972
03:37:40,-1.6680437000000001,2.8098399000000005,-0.4949361,-0.7606664999999998,0.1330539,-0.8059456,-4.9210571,30.7865945,-26.2729764,19.741633399999998,-2.2477145000000003,2.2844163600000003,0.15007038000000006,-1.0924498579999997,0.117109546,-0.0147347055
03:37:40,-1.6765500150000001,2.8294347550000003,-0.4911285449999999,-0.7685607249999998,0.13344275500000002,-0.80723467,-4.922374795,30.786471075,-26.27097193,19.79460728,-2.255811495,2.3007363320000005,0.15495300600000006,-1.0994213550999996,0.1169380152,-0.010033864974999918
03:37:40,-1.68505633,2.84902961,-0.48732098999999995,-0.7764549499999999,0.13383161,-0.80852374,-4.92369249,30.78634765,-26.268967460000002,19.847581159999997,-2.2639084900000004,2.3170563040000003,0.15983563200000006,-1.1063928522,0.1167664844,-0.005333024449999946
03:37:40,-1.693562645,2.8686244650000003,-0.483513435,-0.7843491749999999,0.134220465,-0.80981281,-4.925010185,30.786224225,-26.266962990000003,19.90055504,-2.272005485,2.3333762760000005,0.16471825800000006,-1.1133643492999998,0.1165949536,-0.0006321839249999739
03:37:40,-1.70206896,2.88821932,-0.4797058799999999,-0.7922433999999999,0.13460932,-0.81110188,-4.92632788,30.7861008,-26.26495852,19.95352892,-2.28010248,2.3496962480000003,0.16960088400000006,-1.1203358463999997,0.1164234228,0.004068656599999998
03:37:40,-1.710575275,2.9078141750000004,-0.47589832499999996,-0.800137625,0.134998175,-0.81239095,-4.927645575,30.785977375,-26.26295405,20.0065028,-2.2881994750000003,2.3660162200000006,0.17448351000000006,-1.1273073434999996,0.116251892,0.00876949712500008
03:37:40,-1.71908159,2.92740903,-0.47209077,-0.8080318499999998,0.13538703000000002,-0.8136800200000001,-4.92896327,30.78585395,-26.260949580000002,20.05947668,-2.29629647,2.3823361920000004,0.17936613600000006,-1.1342788406,0.1160803612,0.013470337650000053
03:37:40,-1.727587905,2.9470038850000004,-0.4682832149999999,-0.8159260749999998,0.135775885,-0.81496909,-4.930280965,30.785730525,-26.258945110000003,20.11245056,-2.3043934650000004,2.3986561640000006,0.18424876200000007,-1.1412503376999998,0.1159088304,0.018171178175000025
03:37:40,-1.73609422,2.9665987400000002,-0.46447565999999996,-0.8238202999999998,0.13616474,-0.8162581600000001,-4.93159866,30.7856071,-26.25694064,20.16542444,-2.3124904600000002,2.4149761360000004,0.18913138800000007,-1.1482218347999997,0.1157372996,0.022872018699999996
03:37:40,-1.744600535,2.9861935950000005,-0.460668105,-0.8317145249999999,0.13655359500000003,-0.81754723,-4.932916355,30.785483675000002,-26.25493617,20.21839832,-2.320587455,2.4312961080000006,0.19401401400000007,-1.1551933318999996,0.1155657688,0.02757285922500008
03:37:40,-1.75310685,3.0057884500000003,-0.4568605499999999,-0.8396087499999999,0.13694245,-0.8188363000000001,-4.93423405,30.78536025,-26.2529317,20.271372200000002,-2.3286844500000003,2.4476160800000004,0.19889664000000007,-1.162164829,0.115394238,0.03227369975000005
03:37:40,-1.761613165,3.0253833050000005,-0.45305299499999996,-0.8475029749999999,0.13733130500000001,-0.82012537,-4.935551745,30.785236825000002,-26.250927230000002,20.324346079999998,-2.336781445,2.4639360520000007,0.20377926600000007,-1.1691363260999998,0.1152227072,0.03697454027500002
03:37:40,-1.77011948,3.0449781600000003,-0.44924544,-0.8553972,0.13772016,-0.8214144400000001,-4.93686944,30.7851134,-26.248922760000003,20.37731996,-2.34487844,2.4802560240000004,0.20866189199999996,-1.1761078231999997,0.1150511764,0.041675380800000106
03:37:40,-1.778625795,3.064573015,-0.4454378849999999,-0.8632914249999998,0.138109015,-0.82270351,-4.938187135,30.784989975000002,-26.24691829,20.430293839999997,-2.3529754350000003,2.4965759960000002,0.21354451799999996,-1.1830793202999996,0.1148796456,0.04637622132500008
03:37:40,-1.78713211,3.0841678700000004,-0.44163032999999996,-0.8711856499999998,0.13849787000000002,-0.8239925800000001,-4.93950483,30.78486655,-26.24491382,20.48326772,-2.36107243,2.5128959680000005,0.21842714399999996,-1.1900508174,0.1147081148,0.05107706185000005
03:37:40,-1.795638425,3.103762725,-0.437822775,-0.8790798749999998,0.138886725,-0.82528165,-4.940822525,30.784743125000002,-26.24290935,20.5362416,-2.3691694250000004,2.5292159400000003,0.22330976999999996,-1.1970223144999999,0.114536584,0.05577790237500002
03:37:40,-1.80414474,3.1233575800000004,-0.4340152199999999,-0.8869740999999999,0.13927558,-0.8265707200000001,-4.94214022,30.7846197,-26.240904880000002,20.58921548,-2.37726642,2.5455359120000005,0.22819239599999996,-1.2039938115999997,0.1143650532,0.060478742900000104
03:37:40,-1.812651055,3.142952435,-0.43020766499999996,-0.8948683249999999,0.139664435,-0.82785979,-4.943457915,30.784496275000002,-26.238900410000003,20.64218936,-2.385363415,2.5618558840000003,0.23307502199999997,-1.2109653086999996,0.1141935224,0.06517958342500008
03:37:40,-1.8211573699999999,3.1625472900000005,-0.42640011,-0.9027625499999999,0.14005329,-0.82914886,-4.94477561,30.78437285,-26.23689594,20.69516324,-2.3934604100000003,2.5781758560000005,0.23795764799999997,-1.2179368058,0.1140219916,0.06988042395000005
03:37:40,-1.8296636849999999,3.1821421450000003,-0.4225925549999999,-0.9106567749999998,0.14044214500000002,-0.83043793,-4.946093305,30.784249425000002,-26.23489147,20.74813712,-2.401557405,2.5944958280000003,0.24284027399999997,-1.2249083028999999,0.1138504608,0.07458126447500002
03:37:41,-1.83817,3.201737,-0.418785,-0.918551,0.140831,-0.831727,-4.947411,30.784126,-26.232887,20.801111,-2.4096544,2.6108158,0.2477229,-1.2318798,0.11367893,0.079282105
03:37:41,-1.8279674650000002,3.185934015,-0.420887925,-0.91245721,0.141635335,-0.825771705,-4.979928965,30.769638485,-26.251020775,20.778623274999998,-2.39998010275,2.598025473565,0.24295315,-1.22340015935,0.11461443,0.07867919835500001
03:37:41,-1.81776493,3.17013103,-0.42299085000000003,-0.90636342,0.14243967000000002,-0.8198164099999999,-5.012446929999999,30.75515097,-26.269154550000003,20.75613555,-2.3903058055,2.58523514713,0.2381834,-1.2149205187,0.11554993,0.07807629171000001
03:37:41,-1.8075623950000002,3.154328045,-0.425093775,-0.90026963,0.143244005,-0.813861115,-5.044964895,30.740663455,-26.287288325000002,20.733647825,-2.38063150825,2.572444820695,0.23341365,-1.20644087805,0.11648543,0.07747338506500001
03:37:41,-1.79735986,3.13852506,-0.42719670000000004,-0.89417584,0.14404834000000002,-0.80790582,-5.07748286,30.72617594,-26.3054221,20.711160099999997,-2.370957211,2.55965449426,0.2286439,-1.1979612374,0.11742092999999999,0.07687047842
03:37:41,-1.7871573250000001,3.122722075,-0.429299625,-0.88808205,0.14485267500000001,-0.801950525,-5.110000825,30.711688425000002,-26.323555875,20.688672375,-2.3612829137499998,2.546864167825,0.22387415,-1.1894815967499999,0.11835643,0.076267571775
03:37:41,-1.77695479,3.10691909,-0.43140255,-0.88198826,0.14565701,-0.7959952299999999,-5.14251879,30.69720091,-26.341689650000003,20.666184649999998,-2.3516086165,2.53407384139,0.2191044,-1.1810019561,0.11929192999999999,0.07566466513
03:37:41,-1.766752255,3.0911161050000002,-0.43350547500000003,-0.87589447,0.14646134500000002,-0.790039935,-5.175036755,30.682713395,-26.359823425000002,20.643696925,-2.34193431925,2.521283514955,0.21433465000000002,-1.17252231545,0.12022743,0.075061758485
03:37:41,-1.7565497200000002,3.07531312,-0.4356084,-0.86980068,0.14726568,-0.78408464,-5.20755472,30.66822588,-26.3779572,20.6212092,-2.332260022,2.50849318852,0.2095649,-1.1640426748,0.12116293,0.07445885184
03:37:41,-1.746347185,3.059510135,-0.43771132500000004,-0.86370689,0.148070015,-0.778129345,-5.2400726849999995,30.653738365,-26.396090975,20.598721474999998,-2.32258572475,2.495702862085,0.20479514999999998,-1.15556303415,0.12209843,0.07385594519500001
03:37:41,-1.7361446500000002,3.04370715,-0.43981425,-0.8576131,0.14887435000000002,-0.77217405,-5.27259065,30.63925085,-26.414224750000002,20.57623375,-2.3129114275,2.48291253565,0.2000254,-1.1470833935,0.12303393,0.07325303855000001
03:37:41,-1.725942115,3.027904165,-0.441917175,-0.85151931,0.149678685,-0.766218755,-5.305108615,30.624763335,-26.432358525,20.553746025,-2.30323713025,2.470122209215,0.19525565,-1.13860375285,0.12396942999999999,0.072650131905
03:37:41,-1.7157395800000002,3.01210118,-0.44402010000000003,-0.84542552,0.15048302000000002,-0.76026346,-5.337626579999999,30.610275820000002,-26.4504923,20.531258299999998,-2.293562833,2.45733188278,0.19048589999999999,-1.1301241121999999,0.12490493,0.07204722526
03:37:41,-1.705537045,2.996298195,-0.446123025,-0.83933173,0.151287355,-0.754308165,-5.370144545,30.595788305,-26.468626075000003,20.508770575,-2.28388853575,2.444541556345,0.18571615,-1.12164447155,0.12584043,0.071444318615
03:37:41,-1.6953345100000001,2.98049521,-0.44822595000000004,-0.8332379400000001,0.15209169,-0.74835287,-5.40266251,30.58130079,-26.486759850000002,20.48628285,-2.2742142385,2.43175122991,0.1809464,-1.1131648309,0.12677593,0.07084141197
03:37:41,-1.685131975,2.964692225,-0.450328875,-0.82714415,0.15289602500000002,-0.742397575,-5.435180475,30.566813275,-26.504893625,20.463795124999997,-2.26453994125,2.418960903475,0.17617665,-1.10468519025,0.12771143,0.070238505325
03:37:41,-1.67492944,2.94888924,-0.4524318,-0.82105036,0.15370036,-0.73644228,-5.4676984399999995,30.552325760000002,-26.5230274,20.4413074,-2.254865644,2.40617057704,0.1714069,-1.0962055496,0.12864693,0.06963559868000001
03:37:41,-1.6647269050000002,2.933086255,-0.45453472500000003,-0.81495657,0.15450469500000003,-0.730486985,-5.500216405,30.537838245,-26.541161175000003,20.418819674999998,-2.24519134675,2.393380250605,0.16663715,-1.08772590895,0.12958243,0.06903269203500001
03:37:41,-1.65452437,2.91728327,-0.45663765,-0.80886278,0.15530903000000001,-0.72453169,-5.53273437,30.52335073,-26.55929495,20.39633195,-2.2355170495,2.38058992417,0.1618674,-1.0792462683,0.13051793,0.06842978539
03:37:41,-1.6443218350000002,2.901480285,-0.45874057500000004,-0.80276899,0.156113365,-0.718576395,-5.565252334999999,30.508863215,-26.577428725,20.373844225,-2.22584275225,2.367799597735,0.15709765,-1.0707666276499999,0.13145342999999998,0.067826878745
03:37:41,-1.6341193,2.8856773000000002,-0.4608435,-0.7966752,0.15691770000000002,-0.7126211,-5.5977703,30.4943757,-26.5955625,20.351356499999998,-2.216168455,2.3550092713,0.15232790000000002,-1.062286987,0.13238893,0.0672239721
03:37:41,-1.6239167650000002,2.869874315,-0.462946425,-0.79058141,0.157722035,-0.706665805,-5.630288265,30.479888185,-26.613696275000002,20.328868775,-2.20649415775,2.342218944865,0.14755815,-1.05380734635,0.13332443,0.066621065455
03:37:41,-1.61371423,2.85407133,-0.46504935000000003,-0.7844876199999999,0.15852637000000003,-0.70071051,-5.662806229999999,30.46540067,-26.63183005,20.30638105,-2.1968198604999998,2.32942861843,0.1427884,-1.0453277056999999,0.13425993,0.06601815881
03:37:41,-1.6035116950000001,2.838268345,-0.467152275,-0.77839383,0.15933070500000002,-0.694755215,-5.6953241949999995,30.450913155000002,-26.649963825,20.283893324999998,-2.18714556325,2.316638291995,0.13801865000000002,-1.03684806505,0.13519543,0.065415252165
03:37:41,-1.59330916,2.82246536,-0.4692552,-0.77230004,0.16013504,-0.68879992,-5.72784216,30.43642564,-26.668097600000003,20.2614056,-2.177471266,2.30384796556,0.1332489,-1.0283684244,0.13613092999999998,0.06481234552000001
03:37:41,-1.583106625,2.806662375,-0.471358125,-0.76620625,0.16093937500000002,-0.682844625,-5.760360125,30.421938125,-26.686231375000002,20.238917875,-2.16779696875,2.291057639125,0.12847915,-1.01988878375,0.13706643,0.064209438875
03:37:41,-1.5729040900000002,2.79085939,-0.47346105,-0.76011246,0.16174371,-0.67688933,-5.792878089999999,30.40745061,-26.70436515,20.21643015,-2.1581226715,2.27826731269,0.1237094,-1.0114091430999999,0.13800193,0.06360653223
03:37:41,-1.562701555,2.775056405,-0.475563975,-0.75401867,0.16254804500000003,-0.6709340349999999,-5.825396055,30.392963095,-26.722498925,20.193942425,-2.14844837425,2.265476986255,0.11893965000000001,-1.00292950245,0.13893743,0.063003625585
03:37:41,-1.5524990200000002,2.75925342,-0.4776669,-0.74792488,0.16335238000000002,-0.66497874,-5.85791402,30.37847558,-26.740632700000003,20.171454699999998,-2.138774077,2.25268665982,0.11416990000000002,-0.9944498618,0.13987293,0.06240071894
03:37:41,-1.542296485,2.743450435,-0.479769825,-0.74183109,0.164156715,-0.659023445,-5.890431984999999,30.363988065,-26.758766475,20.148966975,-2.1290997797499998,2.239896333385,0.10940015,-0.98597022115,0.14080842999999998,0.061797812295000004
03:37:41,-1.5320939500000001,2.72764745,-0.48187275,-0.7357373,0.16496105000000003,-0.65306815,-5.92294995,30.349500550000002,-26.77690025,20.12647925,-2.1194254825,2.22710600695,0.10463040000000001,-0.9774905805,0.14174393,0.061194905650000006
03:37:41,-1.5218914150000002,2.711844465,-0.483975675,-0.72964351,0.16576538500000002,-0.647112855,-5.955467915,30.335013035,-26.795034025000003,20.103991524999998,-2.10975118525,2.214315680515,0.09986065,-0.96901093985,0.14267943,0.06059199900500001
03:37:41,-1.5116888800000001,2.69604148,-0.4860786,-0.7235497200000001,0.16656972,-0.64115756,-5.98798588,30.32052552,-26.813167800000002,20.0815038,-2.100076888,2.20152535408,0.0950909,-0.9605312991999999,0.14361493,0.05998909236
03:37:41,-1.501486345,2.680238495,-0.488181525,-0.7174559300000001,0.16737405500000002,-0.635202265,-6.0205038449999995,30.306038005,-26.831301575,20.059016075,-2.09040259075,2.188735027645,0.09032115000000002,-0.95205165855,0.14455043,0.059386185715
03:37:41,-1.49128381,2.66443551,-0.49028445,-0.71136214,0.16817839,-0.62924697,-6.05302181,30.29155049,-26.84943535,20.036528349999998,-2.0807282935,2.17594470121,0.0855514,-0.9435720179,0.14548592999999999,0.05878327907
03:37:41,-1.4810812750000002,2.648632525,-0.492387375,-0.70526835,0.168982725,-0.6232916749999999,-6.085539774999999,30.277062975,-26.867569125000003,20.014040625,-2.07105399625,2.163154374775,0.08078165000000001,-0.9350923772499999,0.14642143,0.058180372425
03:37:41,-1.47087874,2.63282954,-0.4944903,-0.69917456,0.16978706000000002,-0.61733638,-6.118057739999999,30.26257546,-26.885702900000002,19.9915529,-2.0613796989999997,2.15036404834,0.0760119,-0.9266127366,0.14735693,0.05757746578
03:37:41,-1.4606762050000002,2.617026555,-0.496593225,-0.69308077,0.170591395,-0.611381085,-6.150575705,30.248087945,-26.903836675,19.969065174999997,-2.05170540175,2.137573721905,0.07124215,-0.91813309595,0.14829243,0.056974559135000005
03:37:41,-1.45047367,2.60122357,-0.49869615,-0.68698698,0.17139573000000002,-0.60542579,-6.18309367,30.23360043,-26.92197045,19.94657745,-2.0420311045,2.12478339547,0.06647240000000001,-0.9096534553,0.14922793,0.05637165249000001
03:37:41,-1.4402711350000001,2.585420585,-0.500799075,-0.68089319,0.172200065,-0.599470495,-6.215611635,30.219112915,-26.940104225000002,19.924089724999998,-2.03235680725,2.111993069035,0.06170265,-0.9011738146499999,0.15016343,0.055768745845
03:37:41,-1.4300686000000002,2.5696176,-0.502902,-0.6747993999999999,0.1730044,-0.5935152,-6.2481295999999995,30.2046254,-26.958238,19.901602,-2.02268251,2.0992027426,0.05693290000000001,-0.892694174,0.15109893,0.055165839200000004
03:37:41,-1.4198660650000001,2.553814615,-0.505004925,-0.66870561,0.17380873500000002,-0.587559905,-6.280647565,30.190137885000002,-26.976371775,19.879114275,-2.01300821275,2.086412416165,0.05216315000000002,-0.88421453335,0.15203443,0.054562932555
03:37:41,-1.40966353,2.5380116299999997,-0.50710785,-0.66261182,0.17461307,-0.58160461,-6.313165529999999,30.17565037,-26.994505550000003,19.856626549999998,-2.0033339155,2.07362208973,0.0473934,-0.8757348926999999,0.15296993,0.05396002591
03:37:41,-1.399460995,2.522208645,-0.509210775,-0.65651803,0.17541740500000003,-0.5756493149999999,-6.345683494999999,30.161162855,-27.012639325000002,19.834138825,-1.99365961825,2.060831763295,0.04262365000000001,-0.86725525205,0.15390543,0.053357119265
03:37:41,-1.3892584600000002,2.50640566,-0.5113137,-0.65042424,0.17622174000000002,-0.56969402,-6.37820146,30.14667534,-27.0307731,19.8116511,-1.983985321,2.04804143686,0.037853900000000024,-0.8587756114,0.15484093,0.052754212620000004
03:37:41,-1.379055925,2.490602675,-0.5134166250000001,-0.64433045,0.177026075,-0.563738725,-6.410719425,30.132187825,-27.048906875,19.789163374999998,-1.97431102375,2.035251110425,0.03308415000000001,-0.85029597075,0.15577643,0.052151305975000006
03:37:41,-1.3688533900000002,2.47479969,-0.51551955,-0.63823666,0.17783041000000002,-0.55778343,-6.443237389999999,30.11770031,-27.067040650000003,19.76667565,-1.9646367265,2.02246078399,0.028314400000000017,-0.8418163300999999,0.15671193,0.05154839933
03:37:41,-1.358650855,2.458996705,-0.517622475,-0.63214287,0.178634745,-0.551828135,-6.4757553549999995,30.103212795,-27.085174425,19.744187925,-1.95496242925,2.009670457555,0.02354465,-0.83333668945,0.15764742999999998,0.050945492685
03:37:41,-1.3484483200000001,2.44319372,-0.5197254,-0.62604908,0.17943908000000003,-0.5458728399999999,-6.50827332,30.088725280000002,-27.1033082,19.7217002,-1.945288132,1.9968801311200002,0.01877490000000001,-0.8248570488,0.15858293,0.05034258604
03:37:41,-1.3382457850000002,2.427390735,-0.521828325,-0.61995529,0.18024341500000002,-0.539917545,-6.540791284999999,30.074237765,-27.121441975000003,19.699212475,-1.93561383475,1.984089804685,0.014005150000000022,-0.8163774081499999,0.15951843,0.049739679395
03:37:41,-1.3280432500000001,2.41158775,-0.52393125,-0.6138615000000001,0.18104775,-0.53396225,-6.573309249999999,30.05975025,-27.139575750000002,19.676724749999998,-1.9259395375,1.9712994782500002,0.009235400000000005,-0.8078977675,0.16045393,0.04913677275
03:37:41,-1.317840715,2.395784765,-0.526034175,-0.6077677100000001,0.18185208500000002,-0.528006955,-6.605827215,30.045262735,-27.157709525,19.654237025,-1.91626524025,1.958509151815,0.0044656500000000154,-0.79941812685,0.16138943,0.048533866105000004
03:37:41,-1.30763818,2.37998178,-0.5281371,-0.6016739200000001,0.18265642,-0.52205166,-6.63834518,30.03077522,-27.1758433,19.6317493,-1.9065909429999999,1.9457188253800002,-0.0003041000000000016,-0.7909384862,0.16232492999999998,0.04793095946
03:37:41,-1.2974356450000002,2.364178795,-0.530240025,-0.59558013,0.18346075500000003,-0.516096365,-6.670863144999999,30.016287705,-27.193977075000003,19.609261574999998,-1.89691664575,1.932928498945,-0.005073849999999963,-0.7824588455499999,0.16326042999999998,0.047328052815
03:37:41,-1.2872331100000003,2.34837581,-0.53234295,-0.58948634,0.18426509000000002,-0.51014107,-6.70338111,30.00180019,-27.212110850000002,19.58677385,-1.8872423485,1.9201381725100002,-0.00984359999999998,-0.7739792048999999,0.16419593,0.04672514617
03:37:41,-1.2770305750000002,2.3325728249999997,-0.5344458750000001,-0.58339255,0.185069425,-0.5041857750000001,-6.735899075,29.987312675000002,-27.230244625,19.564286125,-1.87756805125,1.907347846075,-0.014613349999999997,-0.76549956425,0.16513143,0.046122239525000004
03:37:41,-1.26682804,2.31676984,-0.5365488,-0.57729876,0.18587376000000003,-0.49823048,-6.768417039999999,29.97282516,-27.2483784,19.541798399999998,-1.867893754,1.8945575196400002,-0.01938309999999996,-0.7570199235999999,0.16606693,0.04551933288
03:37:41,-1.2566255050000001,2.300966855,-0.538651725,-0.57120497,0.18667809500000002,-0.492275185,-6.8009350049999995,29.958337645,-27.266512175000003,19.519310675,-1.85821945675,1.881767193205,-0.024152849999999976,-0.74854028295,0.16700242999999998,0.044916426235
03:37:41,-1.2464229700000002,2.28516387,-0.54075465,-0.5651111799999999,0.18748243000000003,-0.48631989,-6.83345297,29.94385013,-27.28464595,19.49682295,-1.8485451595,1.8689768667700002,-0.028922599999999993,-0.7400606423,0.16793792999999999,0.04431351959
03:37:41,-1.2362204350000001,2.2693608849999998,-0.542857575,-0.55901739,0.18828676500000002,-0.480364595,-6.865970935,29.929362615000002,-27.302779725,19.474335225,-1.8388708622499998,1.856186540335,-0.03369235000000001,-0.73158100165,0.16887343,0.043710612945
03:37:41,-1.2260179000000002,2.2535578999999997,-0.5449605,-0.5529236,0.1890911,-0.4744093,-6.898488899999999,29.9148751,-27.320913500000003,19.4518475,-1.829196565,1.8433962139000002,-0.03846209999999997,-0.723101361,0.16980893,0.0431077063
03:37:41,-1.215815365,2.237754915,-0.547063425,-0.54682981,0.189895435,-0.468454005,-6.931006865,29.900387585,-27.339047275000002,19.429359774999998,-1.81952226775,1.830605887465,-0.04323184999999999,-0.7146217203499999,0.17074443,0.042504799655
03:37:41,-1.2056128300000002,2.22195193,-0.54916635,-0.54073602,0.19069977000000002,-0.46249871,-6.963524829999999,29.88590007,-27.35718105,19.40687205,-1.8098479705,1.8178155610300002,-0.048001600000000005,-0.7061420797,0.17167992999999998,0.04190189301
03:37:41,-1.1954102950000003,2.206148945,-0.551269275,-0.53464223,0.191504105,-0.456543415,-6.996042794999999,29.871412555,-27.375314825,19.384384325,-1.80017367325,1.805025234595,-0.05277134999999997,-0.6976624390499999,0.17261543,0.041298986365
03:37:41,-1.1852077600000002,2.19034596,-0.5533722,-0.52854844,0.19230844000000002,-0.45058812,-7.0285607599999995,29.85692504,-27.393448600000003,19.361896599999998,-1.790499376,1.7922349081600002,-0.057541099999999984,-0.6891827984,0.17355093,0.04069607972
03:37:41,-1.175005225,2.1745429749999996,-0.5554751250000001,-0.52245465,0.19311277500000001,-0.44463282499999995,-7.061078725,29.842437525,-27.411582375000002,19.339408875,-1.78082507875,1.779444581725,-0.06231085,-0.68070315775,0.17448643,0.040093173075
03:37:41,-1.1648026900000001,2.15873999,-0.55757805,-0.51636086,0.19391711,-0.43867753,-7.09359669,29.827950010000002,-27.42971615,19.31692115,-1.7711507814999998,1.7666542552900002,-0.06708059999999996,-0.6722235171,0.17542193,0.03949026643
03:37:41,-1.1546001550000002,2.142937005,-0.559680975,-0.51026707,0.19472144500000002,-0.43272223499999996,-7.126114654999999,29.813462495,-27.447849925,19.294433425,-1.7614764842500001,1.753863928855,-0.07185034999999998,-0.66374387645,0.17635742999999998,0.038887359785
03:37:41,-1.1443976200000001,2.1271340199999997,-0.5617839,-0.5041732800000001,0.19552578,-0.42676694,-7.15863262,29.79897498,-27.465983700000002,19.2719457,-1.751802187,1.7410736024200002,-0.0766201,-0.6552642357999999,0.17729293,0.03828445314
03:37:41,-1.1341950850000002,2.111331035,-0.563886825,-0.49807949,0.19633011500000003,-0.42081164499999996,-7.191150584999999,29.784487465,-27.484117475,19.249457975,-1.7421278897499999,1.728283275985,-0.08138984999999996,-0.64678459515,0.17822843,0.037681546495
03:37:41,-1.12399255,2.09552805,-0.56598975,-0.4919857,0.19713445000000002,-0.41485635,-7.223668549999999,29.76999995,-27.50225125,19.22697025,-1.7324535925,1.7154929495500002,-0.08615959999999998,-0.6383049544999999,0.17916392999999997,0.03707863985
03:37:41,-1.1137900150000002,2.079725065,-0.568092675,-0.48589191,0.197938785,-0.40890105499999996,-7.256186515,29.755512435,-27.520385025000003,19.204482525,-1.72277929525,1.702702623115,-0.09092934999999999,-0.62982531385,0.18009943,0.036475733205
03:37:41,-1.1035874800000003,2.06392208,-0.5701956,-0.47979812,0.19874312000000002,-0.40294576,-7.28870448,29.74102492,-27.538518800000002,19.1819948,-1.713104998,1.6899122966800002,-0.09569910000000001,-0.6213456732,0.18103492999999998,0.03587282656
03:37:41,-1.0933849450000002,2.0481190949999997,-0.572298525,-0.47370433,0.199547455,-0.39699046499999996,-7.321222445,29.726537405000002,-27.556652575,19.159507075,-1.70343070075,1.677121970245,-0.10046884999999997,-0.6128660325499999,0.18197043,0.035269919914999996
03:37:41,-1.08318241,2.03231611,-0.57440145,-0.46761054,0.20035179000000003,-0.39103517,-7.3537404099999995,29.71204989,-27.57478635,19.13701935,-1.6937564035000001,1.6643316438100002,-0.10523859999999999,-0.6043863919,0.18290593,0.03466701327
03:37:41,-1.0729798750000001,2.016513125,-0.5765043750000001,-0.46151675000000003,0.20115612500000002,-0.38507987499999996,-7.386258374999999,29.697562375,-27.592920125000003,19.114531624999998,-1.68408210625,1.651541317375,-0.11000835,-0.5959067512499999,0.18384142999999997,0.034064106625
03:37:41,-1.0627773400000002,2.00071014,-0.5786073,-0.45542296,0.20196046,-0.37912458,-7.418776339999999,29.68307486,-27.6110539,19.0920439,-1.6744078089999999,1.6387509909400002,-0.11477809999999997,-0.5874271106,0.18477693,0.03346119998
03:37:41,-1.0525748050000003,1.984907155,-0.580710225,-0.44932917,0.20276479500000003,-0.37316928499999996,-7.451294304999999,29.668587345,-27.629187675,19.069556175,-1.66473351175,1.625960664505,-0.11954784999999998,-0.57894746995,0.18571242999999998,0.032858293335
03:37:41,-1.0423722700000002,1.9691041699999998,-0.58281315,-0.44323538,0.20356913000000001,-0.36721399,-7.48381227,29.65409983,-27.64732145,19.047068449999998,-1.6550592145,1.6131703380700002,-0.1243176,-0.5704678293,0.18664793,0.03225538669
03:37:41,-1.032169735,1.953301185,-0.584916075,-0.43714159,0.20437346500000003,-0.36125869499999996,-7.516330235,29.639612315,-27.665455225000002,19.024580725,-1.64538491725,1.600380011635,-0.12908734999999996,-0.56198818865,0.18758343,0.031652480045
03:37:41,-1.0219672000000002,1.9374981999999998,-0.587019,-0.4310478,0.20517780000000002,-0.3553034,-7.548848199999999,29.625124800000002,-27.683589,19.002093,-1.63571062,1.5875896852,-0.13385709999999998,-0.5535085479999999,0.18851892999999997,0.031049573400000002
03:37:41,-1.0117646650000003,1.921695215,-0.589121925,-0.42495401,0.205982135,-0.34934810499999996,-7.5813661649999995,29.610637285,-27.701722775,18.979605275,-1.62603632275,1.574799358765,-0.13862685,-0.54502890735,0.18945443,0.030446666754999997
03:37:41,-1.0015621300000002,1.9058922299999999,-0.59122485,-0.41886022,0.20678647,-0.34339281,-7.613884129999999,29.59614977,-27.719856550000003,18.95711755,-1.6163620255,1.56200903233,-0.14339659999999996,-0.5365492666999999,0.19038992999999999,0.02984376011
03:37:41,-0.9913595950000001,1.890089245,-0.593327775,-0.41276643,0.20759080500000002,-0.33743751499999997,-7.646402094999999,29.581662255,-27.737990325000002,18.934629825,-1.6066877282499998,1.549218705895,-0.14816634999999997,-0.52806962605,0.19132543,0.029240853465
03:37:41,-0.9811570600000001,1.8742862599999999,-0.5954307,-0.40667264000000003,0.20839514000000003,-0.33148221999999994,-7.678920059999999,29.56717474,-27.7561241,18.9121421,-1.597013431,1.53642837946,-0.1529361,-0.5195899854,0.19226093,0.028637946819999996
03:37:41,-0.9709545250000002,1.858483275,-0.5975336250000001,-0.40057885000000004,0.20919947500000002,-0.325526925,-7.711438025,29.552687225,-27.774257875,18.889654375,-1.58733913375,1.523638053025,-0.15770584999999995,-0.51111034475,0.19319642999999997,0.028035040174999998
03:37:41,-0.9607519900000002,1.8426802899999999,-0.59963655,-0.39448506000000005,0.21000381,-0.31957163,-7.74395599,29.53819971,-27.792391650000003,18.867166649999998,-1.5776648365,1.51084772659,-0.16247559999999997,-0.5026307041,0.19413193,0.02743213353
03:37:41,-0.9505494550000002,1.8268773049999998,-0.601739475,-0.38839126999999996,0.210808145,-0.31361633499999997,-7.776473954999999,29.523712195,-27.810525425,18.844678925,-1.56799053925,1.498057400155,-0.16724535,-0.4941510634499999,0.19506742999999999,0.026829226885
03:37:41,-0.9403469200000002,1.81107432,-0.6038424,-0.38229747999999997,0.21161248000000002,-0.30766103999999994,-7.8089919199999995,29.50922468,-27.8286592,18.8221912,-1.558316242,1.48526707372,-0.17201509999999995,-0.4856714228,0.19600293,0.026226320239999996
03:37:41,-0.9301443850000002,1.7952713349999998,-0.605945325,-0.37620369,0.21241681500000004,-0.301705745,-7.841509884999999,29.494737165,-27.846792975,18.799703475,-1.54864194475,1.472476747285,-0.17678484999999997,-0.4771917821499999,0.19693843,0.025623413595
03:37:41,-0.9199418500000002,1.77946835,-0.60804825,-0.3701099,0.21322115000000003,-0.29575045,-7.874027849999999,29.48024965,-27.864926750000002,18.77721575,-1.5389676474999998,1.45968642085,-0.18155459999999998,-0.46871214149999996,0.19787392999999998,0.02502050695
03:37:41,-0.9097393150000002,1.7636653649999998,-0.610151175,-0.36401611,0.21402548500000002,-0.28979515499999997,-7.906545814999999,29.465762135000002,-27.883060525,18.754728025,-1.5292933502500001,1.446896094415,-0.18632435,-0.46023250085,0.19880943,0.024417600304999995
03:37:41,-0.8995367800000003,1.74786238,-0.6122541,-0.35792232,0.21482982,-0.28383985999999994,-7.93906378,29.45127462,-27.9011943,18.7322403,-1.519619053,1.43410576798,-0.19109409999999996,-0.45175286019999994,0.19974493,0.023814693659999997
03:37:41,-0.8893342450000002,1.7320593949999998,-0.614357025,-0.35182853000000003,0.21563415500000002,-0.27788456500000003,-7.971581745,29.436787105,-27.919328075000003,18.709752575,-1.5099447557499999,1.421315441545,-0.19586384999999998,-0.44327321955,0.20068043,0.023211787015
03:37:41,-0.8791317100000002,1.71625641,-0.61645995,-0.34573474000000004,0.21643849000000004,-0.27192927,-8.004099709999998,29.42229959,-27.937461850000002,18.68726485,-1.5002704585,1.40852511511,-0.2006336,-0.4347935788999999,0.20161593,0.02260888037
03:37:41,-0.8689291750000002,1.7004534249999999,-0.6185628750000001,-0.33964095000000005,0.21724282500000003,-0.265973975,-8.036617674999999,29.407812075,-27.955595625,18.664777125,-1.49059616125,1.395734788675,-0.20540334999999996,-0.42631393824999997,0.20255142999999998,0.022005973724999996
03:37:41,-0.8587266400000002,1.68465044,-0.6206658,-0.33354716000000006,0.21804716000000002,-0.26001867999999995,-8.069135639999999,29.39332456,-27.9737294,18.6422894,-1.480921864,1.38294446224,-0.21017309999999997,-0.4178342976,0.20348693,0.021403067079999998
03:37:41,-0.8485241050000002,1.6688474549999999,-0.622768725,-0.32745336999999997,0.218851495,-0.2540633849999999,-8.101653605,29.378837045,-27.991863175000002,18.619801674999998,-1.47124756675,1.370154135805,-0.21494285,-0.40935465694999995,0.20442243,0.020800160435
03:37:41,-0.8383215700000002,1.6530444699999998,-0.62487165,-0.32135958,0.21965583000000002,-0.24810809,-8.13417157,29.364349530000002,-28.00999695,18.59731395,-1.4615732695,1.35736380937,-0.21971259999999995,-0.4008750163,0.20535793,0.020197253789999994
03:37:41,-0.8281190350000003,1.6372414849999999,-0.626974575,-0.31526579,0.22046016500000004,-0.24215279499999998,-8.166689535,29.349862015,-28.028130725,18.574826225,-1.45189897225,1.344573482935,-0.22448234999999997,-0.39239537564999993,0.20629343,0.019594347144999996
03:37:41,-0.8179165000000002,1.6214384999999998,-0.6290775,-0.309172,0.22126450000000003,-0.23619749999999995,-8.1992075,29.3353745,-28.046264500000003,18.552338499999998,-1.4422246749999998,1.3317831565,-0.2292521,-0.383915735,0.20722892999999998,0.018991440499999998
03:37:41,-0.8077139650000003,1.605635515,-0.6311804249999999,-0.30307821,0.22206883500000002,-0.23024220499999992,-8.231725465,29.320886985,-28.064398275000002,18.529850775,-1.43255037775,1.318992830065,-0.23402184999999995,-0.3754360943499999,0.20816442999999998,0.018388533855
03:37:41,-0.7975114300000001,1.5898325299999998,-0.63328335,-0.29698442,0.22287317,-0.22428691,-8.264243429999999,29.30639947,-28.08253205,18.50736305,-1.4228760805,1.30620250363,-0.23879159999999996,-0.36695645369999996,0.20909993,0.017785627209999995
03:37:41,-0.7873088950000002,1.574029545,-0.635386275,-0.29089063000000004,0.22367750500000003,-0.21833161499999998,-8.296761394999999,29.291911955,-28.100665825,18.484875325,-1.41320178325,1.293412177195,-0.24356134999999998,-0.35847681305,0.21003543,0.017182720564999997
03:37:41,-0.7771063600000001,1.5582265599999998,-0.6374892,-0.28479684000000005,0.22448184000000002,-0.21237631999999995,-8.32927936,29.27742444,-28.118799600000003,18.4623876,-1.403527486,1.28062185076,-0.2483311,-0.34999717239999995,0.21097093,0.01657981391999999
03:37:41,-0.7669038250000002,1.542423575,-0.6395921250000001,-0.27870305000000006,0.22528617500000003,-0.20642102499999992,-8.361797325,29.262936925,-28.136933375,18.439899875,-1.39385318875,1.267831524325,-0.25310085000000004,-0.34151753175,0.21190642999999998,0.015976907274999994
03:37:41,-0.7567012900000003,1.5266205899999998,-0.64169505,-0.27260925999999996,0.22609051000000002,-0.20046573,-8.39431529,29.24844941,-28.15506715,18.41741215,-1.3841788915,1.25504119789,-0.25787059999999995,-0.3330378910999999,0.21284192999999998,0.015374000629999995
03:37:41,-0.7464987550000002,1.5108176049999997,-0.643797975,-0.26651547,0.226894845,-0.19451043499999998,-8.426833254999998,29.233961895,-28.173200925,18.394924425,-1.37450459425,1.242250871455,-0.26264034999999997,-0.32455825045,0.21377743,0.014771093984999997
03:37:41,-0.7362962200000003,1.4950146199999998,-0.6459009,-0.26042168,0.22769918000000003,-0.18855513999999995,-8.459351219999999,29.21947438,-28.191334700000002,18.3724367,-1.364830297,1.22946054502,-0.2674101,-0.3160786097999999,0.21471292999999997,0.014168187339999999
03:37:41,-0.7260936850000002,1.4792116349999997,-0.648003825,-0.25432789,0.22850351500000002,-0.18259984499999993,-8.491869184999999,29.204986865000002,-28.209468475,18.349948975,-1.35515599975,1.216670218585,-0.27217985,-0.30759896914999996,0.21564843,0.013565280695000001
03:37:41,-0.7158911500000003,1.4634086499999999,-0.65010675,-0.2482341,0.22930785000000004,-0.17664455,-8.524387149999999,29.19049935,-28.22760225,18.32746125,-1.3454817024999999,1.20387989215,-0.2769496,-0.2991193285,0.21658392999999998,0.012962374050000003
03:37:41,-0.7056886150000001,1.4476056649999998,-0.6522096749999999,-0.24214031000000003,0.23011218500000002,-0.17068925499999998,-8.556905115,29.176011835,-28.245736025000003,18.304973525,-1.33580740525,1.191089565715,-0.28171935000000004,-0.29063968784999994,0.21751942999999999,0.01235946740499999
03:37:41,-0.6954860800000002,1.4318026799999999,-0.6543126,-0.23604652000000004,0.23091652000000001,-0.16473395999999996,-8.58942308,29.16152432,-28.263869800000002,18.2824858,-1.326133108,1.17829923928,-0.28648909999999994,-0.2821600472,0.21845493,0.011756560759999993
03:37:41,-0.6852835450000003,1.4159996949999998,-0.656415525,-0.22995273000000005,0.231720855,-0.15877866499999993,-8.621941045,29.147036805,-28.282003575,18.259998075,-1.31645881075,1.165508912845,-0.29125884999999996,-0.2736804065499999,0.21939042999999997,0.011153654114999995
03:37:41,-0.6750810100000002,1.40019671,-0.65851845,-0.22385894000000006,0.23252519000000002,-0.15282337000000001,-8.65445901,29.13254929,-28.30013735,18.23751035,-1.3067845135,1.15271858641,-0.2960286,-0.26520076589999997,0.22032593,0.010550747469999996
03:37:41,-0.6648784750000003,1.3843937249999998,-0.6606213750000001,-0.21776514999999996,0.23332952500000004,-0.146868075,-8.686976975,29.118061775,-28.318271125000003,18.215022625,-1.29711021625,1.139928259975,-0.30079835,-0.2567211252499999,0.22126142999999998,0.009947840824999998
03:37:41,-0.6546759400000002,1.36859074,-0.6627243,-0.21167135999999998,0.23413386000000003,-0.14091277999999996,-8.719494939999999,29.103574260000002,-28.3364049,18.1925349,-1.287435919,1.12713793354,-0.3055681,-0.24824148459999995,0.22219693,0.00934493418
03:37:41,-0.6444734050000003,1.3527877549999998,-0.664827225,-0.20557757,0.23493819500000002,-0.13495748499999993,-8.752012904999999,29.089086745,-28.354538675,18.170047175,-1.27776162175,1.114347607105,-0.31033785,-0.23976184395,0.22313243,0.008742027535000002
03:37:41,-0.6342708700000002,1.3369847699999997,-0.66693015,-0.19948378,0.23574253,-0.12900219000000002,-8.78453087,29.07459923,-28.372672450000003,18.14755945,-1.2680873245,1.10155728067,-0.31510760000000004,-0.23128220329999993,0.22406792999999997,0.00813912088999999
03:37:41,-0.6240683350000003,1.3211817849999998,-0.669033075,-0.19338999,0.23654686500000002,-0.12304689499999999,-8.817048835,29.060111715,-28.390806225000002,18.125071724999998,-1.25841302725,1.088766954235,-0.31987734999999995,-0.22280256264999987,0.22500343,0.007536214244999992
03:37:41,-0.6138658000000004,1.3053787999999997,-0.671136,-0.18729620000000002,0.23735120000000004,-0.11709159999999996,-8.8495668,29.0456242,-28.40894,18.102584,-1.24873873,1.0759766278,-0.32464709999999997,-0.21432292200000003,0.22593892999999998,0.006933307599999994
03:37:41,-0.6036632650000002,1.2895758149999998,-0.6732389249999999,-0.18120241000000004,0.23815553500000003,-0.11113630499999994,-8.882084764999998,29.031136685,-28.427073775,18.080096275,-1.23906443275,1.063186301365,-0.32941685,-0.20584328134999996,0.22687443,0.006330400954999996
03:37:41,-0.5934607300000003,1.2737728299999997,-0.67534185,-0.17510862000000005,0.23895987000000002,-0.10518101000000002,-8.914602729999999,29.01664917,-28.445207550000003,18.057608549999998,-1.2293901354999999,1.05039597493,-0.3341866,-0.1973636406999999,0.22780993,0.0057274943099999975
03:37:41,-0.5832581950000002,1.2579698449999999,-0.677444775,-0.16901483000000006,0.239764205,-0.09922571499999999,-8.947120694999999,29.002161655000002,-28.463341325000002,18.035120825,-1.21971583825,1.037605648495,-0.33895635,-0.18888400005000006,0.22874542999999997,0.005124587664999999
03:37:41,-0.5730556600000003,1.2421668599999998,-0.6795477,-0.16292103999999996,0.24056854000000003,-0.09327041999999997,-8.979638659999999,28.98767414,-28.4814751,18.0126331,-1.210041541,1.02481532206,-0.34372610000000003,-0.1804043594,0.22968093,0.004521681020000001
03:37:41,-0.5628531250000002,1.2263638749999999,-0.6816506250000001,-0.15682724999999997,0.24137287500000004,-0.08731512499999994,-9.012156625,28.973186625,-28.499608875,17.990145375,-1.20036724375,1.012024995625,-0.34849584999999994,-0.17192471874999993,0.23061642999999998,0.003918774374999989
03:37:41,-0.5526505900000003,1.2105608899999998,-0.68375355,-0.15073345999999999,0.24217721000000003,-0.08135983000000002,-9.04467459,28.95869911,-28.517742650000002,17.96765765,-1.1906929465,0.99923466919,-0.35326559999999996,-0.16344507809999986,0.23155193,0.003315867729999991
03:37:41,-0.5424480550000002,1.194757905,-0.685856475,-0.14463967,0.24298154500000002,-0.075404535,-9.077192555,28.944211595,-28.535876425,17.945169925,-1.1810186492499999,0.986444342755,-0.35803535,-0.15496543745000002,0.23248743,0.002712961084999993
03:37:41,-0.5322455200000002,1.1789549199999998,-0.6879594,-0.13854588,0.24378588,-0.06944923999999997,-9.10971052,28.92972408,-28.5540102,17.9226822,-1.171344352,0.97365401632,-0.3628051,-0.14648579679999996,0.23342292999999997,0.002110054439999995
03:37:41,-0.5220429850000003,1.1631519349999997,-0.690062325,-0.13245209000000002,0.24459021500000003,-0.06349394499999994,-9.142228485,28.915236565,-28.572143975000003,17.900194475,-1.16167005475,0.960863689885,-0.36757485,-0.1380061561499999,0.23435843,0.0015071477949999967
03:37:41,-0.5118404500000002,1.1473489499999996,-0.69216525,-0.12635830000000003,0.24539455000000004,-0.057538649999999913,-9.174746449999999,28.90074905,-28.590277750000002,17.87770675,-1.1519957575,0.94807336345,-0.3723446,-0.12952651550000005,0.23529392999999998,0.0009042411499999986
03:37:41,-0.5016379150000003,1.131545965,-0.6942681749999999,-0.12026451000000005,0.24619888500000003,-0.051583355,-9.207264415,28.886261535,-28.608411525,17.855219025,-1.14232146025,0.935283037015,-0.37711435000000004,-0.12104687484999999,0.23622943,0.0003013345050000005
03:37:41,-0.4914353800000002,1.1157429799999998,-0.6963711,-0.11417072000000006,0.24700322000000002,-0.04562805999999997,-9.23978238,28.87177402,-28.6265453,17.8327313,-1.132647163,0.92249271058,-0.38188409999999995,-0.11256723419999992,0.23716493,-0.00030157214000001153
03:37:41,-0.4812328450000003,1.0999399949999997,-0.698474025,-0.10807692999999996,0.247807555,-0.03967276499999994,-9.272300345,28.857286505,-28.644679075000003,17.810243575,-1.12297286575,0.909702384145,-0.38665384999999997,-0.10408759354999986,0.23810042999999997,-0.0009044787850000097
03:37:41,-0.4710303100000002,1.0841370099999996,-0.70057695,-0.10198313999999997,0.24861189000000003,-0.033717469999999916,-9.304818309999998,28.84279899,-28.66281285,17.78775585,-1.1132985685,0.89691205771,-0.3914236,-0.09560795290000002,0.23903593,-0.0015073854300000078
03:37:41,-0.4608277750000003,1.068334025,-0.7026798750000001,-0.09588934999999998,0.24941622500000002,-0.027762175,-9.337336274999998,28.828311475,-28.680946625,17.765268125,-1.10362427125,0.884121731275,-0.39619335,-0.08712831224999995,0.23997142999999999,-0.002110292075000006
03:37:41,-0.45062524000000015,1.0525310399999999,-0.7047828,-0.08979556,0.25022056000000004,-0.021806879999999973,-9.369854239999999,28.81382396,-28.6990804,17.7427804,-1.093949974,0.87133140484,-0.4009631,-0.07864867159999989,0.24090692999999996,-0.002713198720000004
03:37:41,-0.44042270500000025,1.0367280549999998,-0.706885725,-0.08370177000000001,0.251024895,-0.015851584999999946,-9.402372204999999,28.799336445,-28.717214175000002,17.720292675,-1.08427567675,0.858541078405,-0.40573285000000003,-0.07016903095000004,0.24184243,-0.003316105365000002
03:37:41,-0.43022017000000035,1.0209250699999997,-0.70898865,-0.07760798000000002,0.25182923,-0.009896289999999919,-9.43489017,28.78484893,-28.73534795,17.69780495,-1.0746013795,0.84575075197,-0.41050259999999994,-0.06168939029999998,0.24277792999999998,-0.00391901201
03:37:41,-0.4200176350000002,1.0051220849999996,-0.711091575,-0.07151419000000003,0.252633565,-0.003940995000000003,-9.467408135,28.770361415,-28.753481725,17.675317225,-1.0649270822499999,0.832960425535,-0.41527234999999996,-0.053209749649999916,0.24371343,-0.004521918655000012
03:37:41,-0.4098151000000003,0.9893190999999999,-0.7131945,-0.06542040000000005,0.2534379,0.0020143000000000244,-9.4999261,28.7558739,-28.771615500000003,17.6528295,-1.055252785,0.8201700991,-0.4200421,-0.04473010899999985,0.24464893,-0.0051248253000000105
03:37:41,-0.3996125650000002,0.9735161149999998,-0.7152974249999999,-0.05932661000000006,0.25424223500000004,0.007969595000000051,-9.532444065,28.741386385,-28.789749275000002,17.630341774999998,-1.04557848775,0.807379772665,-0.42481185,-0.03625046835000001,0.24558442999999996,-0.005727731945000009
03:37:41,-0.3894100300000003,0.9577131299999997,-0.71740035,-0.05323281999999996,0.25504657000000003,0.013924890000000079,-9.56496203,28.72689887,-28.80788305,17.60785405,-1.0359041905,0.79458944623,-0.4295816,-0.027770827699999945,0.24651993,-0.006330638590000007
03:37:41,-0.37920749500000017,0.9419101449999996,-0.719503275,-0.04713902999999997,0.255850905,0.019880184999999995,-9.597479995,28.712411355,-28.826016825,17.585366325,-1.02622989325,0.781799119795,-0.43435135,-0.01929118704999988,0.24745542999999998,-0.006933545235000005
03:37:41,-0.36900496000000027,0.9261071599999999,-0.7216062,-0.04104523999999998,0.25665524,0.025835480000000022,-9.629997959999999,28.69792384,-28.844150600000003,17.5628786,-1.016555596,0.76900879336,-0.43912110000000004,-0.010811546400000038,0.24839093,-0.007536451880000003
03:37:41,-0.35880242500000037,0.9103041749999998,-0.7237091250000001,-0.034951449999999995,0.25745957500000005,0.03179077500000005,-9.662515925,28.683436325,-28.862284375,17.540390875,-1.00688129875,0.756218466925,-0.44389084999999995,-0.002331905749999974,0.24932643,-0.008139358525000001
03:37:41,-0.34859989000000025,0.8945011899999997,-0.72581205,-0.028857660000000007,0.25826391000000004,0.037746070000000076,-9.69503389,28.66894881,-28.88041815,17.51790315,-0.9972070015000001,0.7434281404900001,-0.44866059999999996,0.00614773490000009,0.25026192999999997,-0.008742265170000013
03:37:41,-0.33839735500000034,0.8786982049999996,-0.727914975,-0.02276387000000002,0.25906824500000003,0.04370136499999999,-9.727551854999998,28.654461295,-28.898551925,17.495415425,-0.98753270425,0.7306378140550001,-0.45343035,0.014627375550000155,0.25119743,-0.009345171815000011
03:37:41,-0.3281948200000002,0.86289522,-0.7300179,-0.01667008000000003,0.25987258,0.04965666000000002,-9.760069819999998,28.639973780000002,-28.916685700000002,17.4729277,-0.977858407,0.7178474876200001,-0.4582001,0.023107016199999997,0.25213293,-0.00994807846000001
03:37:41,-0.3179922850000003,0.8470922349999999,-0.732120825,-0.010576290000000044,0.260676915,0.055611955000000046,-9.792587784999998,28.625486265,-28.934819475,17.450439975,-0.9681841097499999,0.7050571611850001,-0.46296985,0.03158665685000006,0.25306843,-0.010550985105000008
03:37:41,-0.3077897500000002,0.8312892499999998,-0.73422375,-0.004482500000000056,0.26148125,0.06156725000000007,-9.825105749999999,28.61099875,-28.95295325,17.42795225,-0.9585098125,0.6922668347500001,-0.46773960000000003,0.040066297500000125,0.25400393,-0.011153891750000006
03:37:41,-0.2975872150000003,0.8154862649999997,-0.7363266749999999,0.001611290000000043,0.26228558500000004,0.06752254499999999,-9.857623714999999,28.596511235,-28.971087025000003,17.405464525,-0.9488355152499999,0.6794765083150001,-0.47250934999999994,0.04854593814999997,0.25493942999999997,-0.011756798395000004
03:37:41,-0.2873846800000004,0.7996832799999996,-0.7384296,0.007705080000000031,0.26308992000000003,0.07347784000000002,-9.89014168,28.582023720000002,-28.989220800000002,17.3829768,-0.939161218,0.6666861818800001,-0.47727909999999996,0.05702557880000003,0.25587493,-0.012359705040000002
03:37:41,-0.27718214500000027,0.7838802949999999,-0.740532525,0.013798870000000019,0.263894255,0.07943313500000004,-9.922659645,28.567536205,-29.007354575,17.360489075,-0.9294869207500001,0.6538958554450001,-0.48204885,0.0655052194500001,0.25681043,-0.012962611685000014
03:37:41,-0.26697961000000037,0.7680773099999998,-0.74263545,0.019892660000000006,0.26469859,0.08538843000000007,-9.95517761,28.55304869,-29.02548835,17.33800135,-0.9198126234999999,0.6411055290100001,-0.4868186,0.07398486009999994,0.25774593,-0.013565518330000012
03:37:41,-0.25677707500000024,0.7522743249999997,-0.7447383750000001,0.025986449999999994,0.26550292500000006,0.09134372499999999,-9.987695575,28.538561175,-29.043622125000002,17.315513625,-0.91013832625,0.6283152025750001,-0.49158835,0.08246450075,0.25868143,-0.01416842497500001
03:37:41,-0.24657454000000034,0.7364713399999996,-0.7468413,0.03208023999999998,0.26630726000000005,0.09729902000000001,-10.02021354,28.52407366,-29.0617559,17.2930259,-0.9004640289999999,0.6155248761400001,-0.4963581,0.09094414140000007,0.25961692999999997,-0.014771331620000008
03:37:41,-0.23637200500000022,0.7206683549999999,-0.748944225,0.03817402999999997,0.26711159500000003,0.10325431500000004,-10.052731504999999,28.509586145,-29.079889675,17.270538175,-0.89078973175,0.6027345497050001,-0.5011278499999999,0.09942378205000013,0.26055243,-0.015374238265000006
03:37:41,-0.22616947000000032,0.7048653699999998,-0.75104715,0.04426781999999996,0.26791593,0.10920961000000007,-10.085249469999999,28.49509863,-29.09802345,17.24805045,-0.8811154345000001,0.5899442232699998,-0.5058976,0.10790342269999997,0.26148793,-0.015977144910000005
03:37:41,-0.2159669350000002,0.6890623849999997,-0.753150075,0.050361609999999946,0.268720265,0.11516490499999998,-10.117767435,28.480611115000002,-29.116157225000002,17.225562725,-0.8714411372499999,0.5771538968350001,-0.51066735,0.11638306335000004,0.26242342999999996,-0.016580051555000003
03:37:41,-0.2057644000000003,0.6732593999999996,-0.755253,0.056455400000000044,0.2695246,0.12112020000000001,-10.150285399999998,28.4661236,-29.134291,17.203075,-0.86176684,0.5643635703999998,-0.5154371,0.1248627040000001,0.26335893,-0.0171829582
03:37:41,-0.1955618650000004,0.6574564149999995,-0.7573559249999999,0.06254919000000003,0.270328935,0.12707549500000004,-10.182803364999998,28.451636085,-29.152424775,17.180587275,-0.8520925427499999,0.5515732439650001,-0.52020685,0.13334234464999994,0.26429442999999997,-0.017785864845000013
03:37:41,-0.18535933000000027,0.6416534299999999,-0.75945885,0.06864298000000002,0.27113327000000004,0.13303079000000007,-10.215321329999998,28.43714857,-29.170558550000003,17.15809955,-0.8424182455,0.5387829175299998,-0.5249766,0.1418219853,0.26522993,-0.01838877149000001
03:37:41,-0.17515679500000036,0.6258504449999998,-0.761561775,0.07473677000000001,0.271937605,0.1389860850000001,-10.247839294999999,28.422661055,-29.188692325,17.135611824999998,-0.8327439482500001,0.5259925910950001,-0.52974635,0.15030162595000007,0.26616543,-0.01899167813500001
03:37:41,-0.16495426000000024,0.6100474599999997,-0.7636647,0.08083056,0.27274194,0.14494138,-10.280357259999999,28.40817354,-29.2068261,17.1131241,-0.823069651,0.5132022646599999,-0.5345160999999999,0.15878126660000014,0.26710092999999996,-0.019594584780000007
03:37:41,-0.15475172500000034,0.5942444749999996,-0.7657676250000001,0.08692434999999998,0.27354627500000006,0.15089667500000004,-10.312875224999999,28.393686025,-29.224959875000003,17.090636375,-0.81339535375,0.5004119382250001,-0.53928585,0.16726090724999998,0.26803643,-0.020197491425000005
03:37:41,-0.14454919000000022,0.5784414899999999,-0.76787055,0.09301813999999997,0.27435061000000005,0.15685197000000006,-10.34539319,28.379198510000002,-29.243093650000002,17.06814865,-0.8037210564999999,0.48762161178999985,-0.5440556,0.17574054790000004,0.26897192999999997,-0.020800398070000004
03:37:41,-0.13434665500000031,0.5626385049999998,-0.769973475,0.09911192999999996,0.27515494500000004,0.1628072650000001,-10.377911155,28.364710995,-29.261227425,17.045660925,-0.79404675925,0.4748312853550001,-0.54882535,0.1842201885500001,0.26990743,-0.021403304715
03:37:41,-0.12414412000000019,0.5468355199999997,-0.7720764,0.10520571999999995,0.27595928000000003,0.16876256000000012,-10.41042912,28.35022348,-29.2793612,17.0231732,-0.7843724619999999,0.46204095891999986,-0.5535951,0.19269982919999995,0.27084293,-0.022006211360000014
03:37:41,-0.11394158500000029,0.5310325349999996,-0.774179325,0.11129950999999993,0.276763615,0.17471785500000003,-10.442947085,28.335735965,-29.297494975,17.000685475,-0.77469816475,0.4492506324850001,-0.55836485,0.20117946985000001,0.27177842999999996,-0.022609118005000012
03:37:41,-0.10373905000000039,0.5152295499999999,-0.77628225,0.11739329999999992,0.27756795,0.18067314999999995,-10.47546505,28.32124845,-29.315628750000002,16.97819775,-0.7650238675000001,0.43646030604999986,-0.5631345999999999,0.20965911050000008,0.27271393,-0.02321202465000001
03:37:41,-0.09353651500000026,0.4994265649999998,-0.7783851749999999,0.12348708999999991,0.278372285,0.1866284450000001,-10.507983014999999,28.306760935,-29.333762525,16.955710025000002,-0.7553495702499999,0.4236699796150001,-0.56790435,0.21813875115000014,0.27364942999999997,-0.023814931295000008
03:37:41,-0.08333398000000036,0.4836235799999997,-0.7804881,0.1295808799999999,0.27917662000000004,0.19258374,-10.54050098,28.29227342,-29.3518963,16.9332223,-0.745675273,0.41087965317999986,-0.5726741,0.22661839179999999,0.27458493,-0.024417837940000006
03:37:41,-0.07313144500000024,0.4678205949999996,-0.782591025,0.1356746699999999,0.27998095500000003,0.19853903500000014,-10.573018945,28.277785905,-29.370030075000003,16.910734575,-0.7360009757499999,0.3980893267450001,-0.57744385,0.23509803245000005,0.27552043,-0.025020744585000004
03:37:41,-0.06292891000000034,0.4520176099999995,-0.78469395,0.1417684600000001,0.28078529,0.20449433000000006,-10.605536909999998,28.26329839,-29.38816385,16.88824685,-0.7263266785,0.38529900030999986,-0.5822136,0.2435776731000001,0.27645592999999996,-0.025623651230000002
03:37:41,-0.052726375000000214,0.43621462499999986,-0.7867968750000001,0.14786225000000008,0.28158962500000007,0.21044962499999997,-10.638054874999998,28.248810875,-29.406297625,16.865759125,-0.7166523812500001,0.3725086738750001,-0.58698335,0.25205731374999996,0.27739143,-0.026226557875000014
03:37:41,-0.04252384000000031,0.42041163999999975,-0.7888998,0.15395604000000007,0.28239396000000005,0.2164049200000001,-10.670572839999998,28.23432336,-29.424431400000003,16.8432714,-0.706978084,0.35971834743999986,-0.5917530999999999,0.2605369544,0.27832693,-0.026829464520000013
03:37:41,-0.03232130500000041,0.40460865499999965,-0.791002725,0.16004983000000006,0.28319829500000004,0.22236021500000003,-10.703090804999999,28.219835845,-29.442565175000002,16.820783675,-0.69730378675,0.3469280210050001,-0.5965228499999999,0.2690165950500001,0.27926243,-0.02743237116500001
03:37:41,-0.022118770000000287,0.38880566999999955,-0.79310565,0.16614362000000005,0.28400263000000003,0.22831550999999994,-10.735608769999999,28.20534833,-29.46069895,16.79829595,-0.6876294894999999,0.33413769456999987,-0.6012926,0.27749623570000015,0.28019793,-0.02803527781000001
03:37:41,-0.011916235000000386,0.3730026849999999,-0.795208575,0.17223741000000004,0.284806965,0.23427080500000008,-10.768126735,28.190860815,-29.478832725,16.775808225,-0.67795519225,0.3213473681350001,-0.60606235,0.28597587635,0.28113342999999996,-0.028638184455000007
03:37:41,-0.0017137000000002622,0.3571996999999998,-0.7973115,0.17833120000000002,0.2856113,0.2402261,-10.8006447,28.1763733,-29.496966500000003,16.7533205,-0.6682808949999999,0.30855704169999987,-0.6108321,0.29445551700000006,0.28206893,-0.029241091100000005
03:37:41,0.00848883499999964,0.3413967149999997,-0.7994144249999999,0.18442499,0.286415635,0.24618139500000014,-10.833162665,28.161885785,-29.515100275,16.730832775,-0.65860659775,0.2957667152650001,-0.61560185,0.3029351576500001,0.28300443,-0.029843997745000003
03:37:41,0.018691369999999763,0.3255937299999996,-0.80151735,0.19051878,0.28721997,0.25213669000000005,-10.86568063,28.14739827,-29.53323405,16.70834505,-0.6489323005000001,0.28297638882999987,-0.6203716,0.31141479829999996,0.28393993,-0.030446904390000015
03:37:41,0.028893904999999664,0.3097907449999995,-0.803620275,0.19661257,0.28802430500000004,0.25809198499999997,-10.898198595,28.132910755,-29.551367825,16.685857325,-0.6392580032499999,0.2701860623950001,-0.6251413499999999,0.31989443895,0.28487543,-0.031049811035000013
03:37:41,0.039096439999999566,0.2939877599999998,-0.8057232,0.20270635999999997,0.28882864,0.2640472800000001,-10.930716559999999,28.11842324,-29.569501600000002,16.6633696,-0.629583706,0.25739573595999987,-0.6299111,0.3283740796000001,0.28581092999999996,-0.03165271768000001
03:37:41,0.04929897499999969,0.2781847749999997,-0.8078261250000001,0.20880014999999996,0.28963297500000007,0.270002575,-10.963234524999999,28.103935725,-29.587635375,16.640881874999998,-0.6199094087499999,0.2446054095250001,-0.63468085,0.33685372025000015,0.28674643,-0.03225562432500001
03:37:41,0.05950150999999959,0.2623817899999996,-0.80992905,0.21489393999999995,0.29043731000000006,0.27595786999999994,-10.99575249,28.08944821,-29.60576915,16.61839415,-0.6102351115,0.23181508308999987,-0.6394506,0.3453333609,0.28768193,-0.03285853097000001
03:37:41,0.06970404499999971,0.2465788049999995,-0.812031975,0.22098772999999994,0.29124164500000005,0.2819131650000001,-11.028270454999998,28.074960695,-29.623902925000003,16.595906425,-0.6005608142500001,0.2190247566550001,-0.64422035,0.35381300155000006,0.28861743,-0.033461437615000006
03:37:41,0.07990657999999962,0.23077581999999985,-0.8141349,0.22708151999999993,0.29204598000000004,0.28786846,-11.060788419999998,28.06047318,-29.642036700000002,16.5734187,-0.5908865169999999,0.20623443021999988,-0.6489901,0.3622926422000001,0.28955293,-0.034064344260000004
03:37:41,0.09010911499999974,0.21497283499999975,-0.816237825,0.2331753099999999,0.292850315,0.29382375500000013,-11.093306384999998,28.045985665,-29.660170475,16.550930975,-0.58121221975,0.1934441037850001,-0.6537598499999999,0.37077228284999997,0.29048842999999996,-0.034667250905000016
03:37:41,0.10031164999999964,0.19916984999999965,-0.81834075,0.2392690999999999,0.29365465,0.29977905000000005,-11.125824349999998,28.03149815,-29.67830425,16.528443250000002,-0.5715379224999999,0.18065377734999988,-0.6585295999999999,0.37925192350000003,0.29142393,-0.035270157550000014
03:37:41,0.11051418499999976,0.18336686499999955,-0.8204436749999999,0.2453628899999999,0.294458985,0.30573434499999996,-11.158342314999999,28.017010635,-29.696438025000003,16.505955525,-0.56186362525,0.1678634509150001,-0.66329935,0.3877315641500001,0.29235943,-0.03587306419500001
03:37:41,0.12071671999999967,0.1675638799999999,-0.8225465999999999,0.2514566799999999,0.29526332,0.3116896400000001,-11.190860279999999,28.00252312,-29.7145718,16.4834678,-0.5521893279999999,0.15507312447999988,-0.6680691,0.39621120479999994,0.29329493,-0.03647597084000001
03:37:41,0.13091925499999957,0.15176089499999978,-0.824649525,0.2575504700000001,0.29606765500000004,0.317644935,-11.223378245,27.988035605,-29.732705575,16.460980075000002,-0.54251503075,0.1422827980450001,-0.67283885,0.40469084545,0.29423043,-0.03707887748500001
03:37:41,0.1411217899999997,0.13595790999999968,-0.82675245,0.2636442600000001,0.29687199000000003,0.32360023000000016,-11.25589621,27.97354809,-29.75083935,16.43849235,-0.5328407335,0.12949247160999988,-0.6776086,0.41317048610000007,0.29516592999999997,-0.03768178413000001
03:37:41,0.1513243249999996,0.12015492499999958,-0.8288553750000001,0.26973805000000006,0.297676325,0.32955552500000007,-11.288414175,27.959060575000002,-29.768973125000002,16.416004625,-0.5231664362499999,0.1167021451750001,-0.68237835,0.42165012675000013,0.29610143,-0.038284690775000005
03:37:41,0.16152685999999972,0.10435193999999948,-0.8309583,0.27583184000000005,0.29848066000000006,0.33551082,-11.32093214,27.94457306,-29.7871069,16.3935169,-0.513492139,0.10391181873999988,-0.6871480999999999,0.4301297674,0.29703693,-0.03888759742000002
03:37:41,0.17172939499999962,0.08854895499999982,-0.833061225,0.28192563000000004,0.29928499500000005,0.3414661150000001,-11.353450105,27.930085545,-29.805240675,16.371029175,-0.5038178417499999,0.0911214923050001,-0.69191785,0.43860940805000004,0.29797242999999995,-0.039490504065000015
03:37:41,0.18193192999999952,0.07274596999999972,-0.83516415,0.28801942,0.30008933000000004,0.34742141000000004,-11.385968069999999,27.91559803,-29.823374450000003,16.34854145,-0.4941435445,0.07833116586999989,-0.6966876,0.4470890487000001,0.29890793,-0.04009341071000001
03:37:41,0.19213446499999987,0.05694298499999961,-0.837267075,0.29411321,0.30089366500000003,0.35337670499999996,-11.418486034999999,27.901110515,-29.841508225000002,16.326053725,-0.48446924725000007,0.06554083943500011,-0.70145735,0.45556868934999994,0.29984342999999997,-0.04069631735500001
03:37:42,0.202337,0.04114,-0.83937,0.300207,0.301698,0.359332,-11.451004,27.886623,-29.859642,16.303566,-0.47479495,0.052750513,-0.7062271,0.46404833,0.30077893,-0.041299224
03:37:42,0.206006745,0.041939785,-0.8380545699999999,0.296733965,0.29797461000000003,0.35487352,-11.446710444999999,27.881374455,-29.86662511,16.28870861,-0.47119905245,0.053355327685,-0.708167491,0.45840535885,0.29704726765,-0.04113117824
03:37:42,0.20967649,0.042739570000000005,-0.8367391399999999,0.29326093,0.29425122000000004,0.35041504,-11.442416889999999,27.87612591,-29.87360822,16.27385122,-0.4676031549,0.05396014237,-0.710107882,0.4527623877,0.2933156053,-0.040963132480000004
03:37:42,0.213346235,0.043539355,-0.8354237099999999,0.289787895,0.29052783000000004,0.34595655999999997,-11.438123334999998,27.870877365000002,-29.88059133,16.25899383,-0.46400725735,0.054564957055,-0.712048273,0.44711941655,0.28958394295,-0.040795086720000005
03:37:42,0.21701598,0.04433914,-0.8341082799999999,0.28631486,0.28680444000000005,0.34149808,-11.43382978,27.86562882,-29.88757444,16.24413644,-0.4604113598,0.05516977174,-0.713988664,0.44147644540000003,0.2858522806,-0.04062704096
03:37:42,0.220685725,0.045138925,-0.8327928499999999,0.282841825,0.28308105,0.3370396,-11.429536225,27.860380275,-29.894557550000002,16.22927905,-0.45681546224999997,0.055774586425,-0.715929055,0.43583347425,0.28212061825,-0.0404589952
03:37:42,0.22435547,0.04593871,-0.8314774199999999,0.27936879,0.27935766,0.33258112,-11.42524267,27.85513173,-29.901540660000002,16.21442166,-0.4532195647,0.05637940111,-0.717869446,0.4301905031,0.2783889559,-0.04029094944
03:37:42,0.228025215,0.046738495000000005,-0.8301619899999999,0.275895755,0.27563427,0.32812263999999997,-11.420949114999999,27.849883185,-29.908523770000002,16.19956427,-0.44962366715,0.056984215795,-0.719809837,0.42454753195,0.27465729355,-0.04012290368
03:37:42,0.23169495999999998,0.04753828,-0.8288465599999999,0.27242272,0.27191088,0.32366416,-11.416655559999999,27.84463464,-29.915506880000002,16.18470688,-0.4460277696,0.05758903048,-0.721750228,0.4189045608,0.2709256312,-0.03995485792
03:37:42,0.23536470499999998,0.048338065,-0.82753113,0.268949685,0.26818749000000003,0.31920568,-11.412362004999999,27.839386095000002,-29.922489990000003,16.16984949,-0.44243187205,0.058193845165,-0.723690619,0.41326158965,0.26719396885,-0.039786812160000004
03:37:42,0.23903444999999998,0.049137850000000004,-0.8262157,0.26547665,0.26446410000000004,0.3147472,-11.40806845,27.83413755,-29.929473100000003,16.1549921,-0.4388359745,0.05879865985,-0.72563101,0.40761861850000003,0.2634623065,-0.039618766400000005
03:37:42,0.24270419499999998,0.049937635,-0.82490027,0.262003615,0.26074071000000004,0.31028871999999996,-11.403774895,27.828889005,-29.93645621,16.14013471,-0.43524007695,0.059403474535,-0.727571401,0.40197564735,0.25973064415,-0.03945072064
03:37:42,0.24637393999999999,0.050737420000000005,-0.82358484,0.25853058,0.25701732000000005,0.30583024,-11.39948134,27.82364046,-29.94343932,16.12527732,-0.4316441794,0.06000828922,-0.729511792,0.3963326762,0.2559989818,-0.03928267488
03:37:42,0.25004368499999996,0.051537205,-0.82226941,0.255057545,0.25329393,0.30137176,-11.395187785,27.818391915,-29.95042243,16.11041993,-0.42804828185,0.060613103905,-0.731452183,0.39068970505,0.25226731945,-0.03911462912
03:37:42,0.25371343,0.05233699,-0.82095398,0.25158451,0.24957054000000004,0.29691328,-11.390894229999999,27.81314337,-29.95740554,16.09556254,-0.4244523843,0.061217918589999996,-0.733392574,0.3850467339,0.2485356571,-0.03894658336
03:37:42,0.25738317499999996,0.053136775,-0.81963855,0.248111475,0.24584715000000001,0.2924548,-11.386600674999999,27.807894825,-29.96438865,16.08070515,-0.42085648675,0.061822733275,-0.735332965,0.37940376275,0.24480399475,-0.0387785376
03:37:42,0.26105291999999997,0.05393656,-0.81832312,0.24463844,0.24212376000000002,0.28799632,-11.38230712,27.80264628,-29.97137176,16.06584776,-0.4172605892,0.062427547959999996,-0.737273356,0.3737607916,0.2410723324,-0.038610491840000004
03:37:42,0.26472266499999997,0.054736345000000006,-0.81700769,0.241165405,0.23840037000000003,0.28353784,-11.378013565,27.797397735,-29.97835487,16.05099037,-0.41366469164999997,0.06303236264499999,-0.739213747,0.36811782045,0.23734067004999998,-0.038442446080000005
03:37:42,0.26839240999999997,0.05553613,-0.81569226,0.23769237,0.23467698000000003,0.27907936,-11.37372001,27.79214919,-29.98533798,16.03613298,-0.41006879409999997,0.06363717733,-0.741154138,0.3624748493,0.23360900769999998,-0.03827440032
03:37:42,0.27206215499999997,0.056335915,-0.8143768299999999,0.234219335,0.23095359000000004,0.27462087999999996,-11.369426455,27.786900645,-29.99232109,16.02127559,-0.40647289654999996,0.064241992015,-0.743094529,0.35683187815,0.22987734534999998,-0.03810635456
03:37:42,0.2757319,0.0571357,-0.8130613999999999,0.23074630000000002,0.22723020000000005,0.27016239999999997,-11.365132899999999,27.7816521,-29.9993042,16.0064182,-0.40287699899999996,0.0648468067,-0.74503492,0.351188907,0.226145683,-0.0379383088
03:37:42,0.279401645,0.057935485,-0.8117459699999999,0.227273265,0.22350681000000003,0.26570392,-11.360839344999999,27.776403555,-30.00628731,15.99156081,-0.39928110145,0.06545162138499999,-0.746975311,0.34554593585,0.22241402065,-0.03777026304
03:37:42,0.28307139,0.05873527,-0.8104305399999999,0.22380023,0.21978342000000003,0.26124544,-11.35654579,27.77115501,-30.01327042,15.97670342,-0.3956852039,0.06605643607,-0.748915702,0.33990296470000003,0.2186823583,-0.03760221728
03:37:42,0.286741135,0.059535055,-0.8091151099999999,0.220327195,0.21606003000000001,0.25678696,-11.352252235,27.765906465,-30.02025353,15.96184603,-0.39208930635,0.066661250755,-0.750856093,0.33425999355,0.21495069595,-0.037434171520000004
03:37:42,0.29041088,0.06033484,-0.8077996799999999,0.21685416000000002,0.21233664000000002,0.25232847999999997,-11.34795868,27.76065792,-30.02723664,15.94698864,-0.3884934088,0.06726606544,-0.752796484,0.3286170224,0.2112190336,-0.037266125760000005
03:37:42,0.294080625,0.061134625,-0.80648425,0.213381125,0.20861325000000003,0.24786999999999998,-11.343665125,27.755409375,-30.034219750000002,15.93213125,-0.38489751125,0.067870880125,-0.754736875,0.32297405125,0.20748737125,-0.037098080000000005
03:37:42,0.29775037,0.06193441,-0.80516882,0.20990809,0.20488986000000003,0.24341152,-11.339371569999999,27.75016083,-30.041202860000002,15.91727386,-0.3813016137,0.06847569481,-0.756677266,0.3173310801,0.2037557089,-0.03693003424
03:37:42,0.301420115,0.06273419499999999,-0.80385339,0.206435055,0.20116647000000004,0.23895304,-11.335078014999999,27.744912285,-30.048185970000002,15.90241647,-0.37770571615,0.069080509495,-0.7586176570000001,0.31168810895,0.20002404655,-0.03676198848
03:37:42,0.30508986,0.06353398,-0.80253796,0.20296202000000002,0.19744308000000005,0.23449456,-11.330784459999999,27.73966374,-30.055169080000002,15.88755908,-0.3741098186,0.06968532418,-0.760558048,0.3060451378,0.1962923842,-0.03659394272
03:37:42,0.308759605,0.064333765,-0.80122253,0.199488985,0.19371969000000003,0.23003607999999998,-11.326490905,27.734415195,-30.062152190000003,15.87270169,-0.37051392105,0.07029013886499999,-0.762498439,0.30040216664999997,0.19256072185,-0.03642589696
03:37:42,0.31242935,0.06513355,-0.7999071,0.19601595,0.18999630000000003,0.2255776,-11.32219735,27.72916665,-30.0691353,15.8578443,-0.36691802349999997,0.07089495355,-0.76443883,0.29475919549999996,0.1888290595,-0.0362578512
03:37:42,0.316099095,0.065933335,-0.79859167,0.192542915,0.18627291,0.22111911999999997,-11.317903795,27.723918105,-30.07611841,15.84298691,-0.36332212595,0.071499768235,-0.766379221,0.28911622435,0.18509739715,-0.036089805440000004
03:37:42,0.31976884,0.06673312,-0.79727624,0.18906988000000002,0.18254952000000002,0.21666064,-11.31361024,27.71866956,-30.08310152,15.828129520000001,-0.3597262284,0.07210458292,-0.768319612,0.2834732532,0.1813657348,-0.03592175968
03:37:42,0.323438585,0.067532905,-0.79596081,0.185596845,0.17882613000000003,0.21220216,-11.309316684999999,27.713421015,-30.09008463,15.81327213,-0.35613033085,0.072709397605,-0.770260003,0.27783028205,0.17763407245,-0.03575371392
03:37:42,0.32710833,0.06833269,-0.79464538,0.18212381,0.17510274000000003,0.20774368,-11.305023129999999,27.70817247,-30.09706774,15.79841474,-0.3525344333,0.07331421229,-0.772200394,0.27218731090000003,0.1739024101,-0.03558566816
03:37:42,0.330778075,0.069132475,-0.79332995,0.178650775,0.17137935000000004,0.2032852,-11.300729575,27.702923925,-30.10405085,15.78355735,-0.34893853575,0.073919026975,-0.774140785,0.26654433975,0.17017074775,-0.0354176224
03:37:42,0.33444781999999995,0.06993226,-0.7920145199999999,0.17517774,0.16765596000000005,0.19882671999999998,-11.29643602,27.69767538,-30.11103396,15.76869996,-0.3453426382,0.07452384165999999,-0.776081176,0.2609013686,0.1664390854,-0.03524957664
03:37:42,0.338117565,0.070732045,-0.7906990899999999,0.171704705,0.16393257000000003,0.19436824,-11.292142465,27.692426835,-30.11801707,15.75384257,-0.34174674065,0.07512865634499999,-0.778021567,0.25525839745,0.16270742305,-0.03508153088
03:37:42,0.34178730999999996,0.07153182999999999,-0.7893836599999999,0.16823167,0.16020918000000003,0.18990975999999998,-11.28784891,27.68717829,-30.12500018,15.73898518,-0.3381508431,0.07573347103,-0.779961958,0.2496154263,0.1589757607,-0.034913485120000004
03:37:42,0.345457055,0.072331615,-0.7880682299999999,0.16475863500000001,0.15648579000000004,0.18545128,-11.283555354999999,27.681929745,-30.13198329,15.72412779,-0.33455494555,0.076338285715,-0.781902349,0.24397245515,0.15524409835,-0.034745439360000005
03:37:42,0.34912679999999996,0.0731314,-0.7867527999999999,0.1612856,0.15276240000000005,0.18099279999999998,-11.279261799999999,27.6766812,-30.1389664,15.7092704,-0.330959048,0.07694310039999999,-0.78384274,0.23832948399999998,0.151512436,-0.0345773936
03:37:42,0.352796545,0.073931185,-0.7854373699999999,0.15781256500000002,0.14903901000000003,0.17653432,-11.274968245,27.671432655,-30.14594951,15.69441301,-0.32736315045,0.077547915085,-0.785783131,0.23268651285,0.14778077365,-0.03440934784
03:37:42,0.35646628999999996,0.07473097000000001,-0.78412194,0.15433953,0.14531562000000003,0.17207583999999998,-11.27067469,27.66618411,-30.15293262,15.67955562,-0.32376725289999997,0.07815272977,-0.7877235220000001,0.2270435417,0.1440491113,-0.03424130208
03:37:42,0.360136035,0.075530755,-0.78280651,0.15086649500000002,0.14159223000000004,0.16761736,-11.266381135,27.660935565,-30.15991573,15.66469823,-0.32017135534999996,0.078757544455,-0.789663913,0.22140057054999998,0.14031744895,-0.03407325632
03:37:42,0.36380577999999997,0.07633054,-0.78149108,0.14739346,0.13786884000000005,0.16315887999999998,-11.26208758,27.65568702,-30.16689884,15.64984084,-0.31657545779999996,0.07936235913999999,-0.791604304,0.2157575994,0.1365857866,-0.03390521056
03:37:42,0.36747552499999997,0.077130325,-0.78017565,0.14392042500000002,0.13414545000000003,0.1587004,-11.257794024999999,27.650438475,-30.173881950000002,15.63498345,-0.31297956024999996,0.07996717382499999,-0.793544695,0.21011462825,0.13285412424999998,-0.033737164800000004
03:37:42,0.37114526999999997,0.07793011,-0.77886022,0.14044739,0.13042206000000003,0.15424191999999998,-11.253500469999999,27.64518993,-30.180865060000002,15.62012606,-0.30938366269999995,0.08057198851,-0.795485086,0.20447165709999998,0.12912246189999999,-0.03356911904
03:37:42,0.374815015,0.078729895,-0.77754479,0.13697435500000002,0.12669867000000004,0.14978344,-11.249206915,27.639941385,-30.187848170000002,15.605268670000001,-0.30578776514999995,0.081176803195,-0.797425477,0.19882868594999997,0.12539079955,-0.03340107328
03:37:42,0.37848476,0.07952967999999999,-0.77622936,0.13350132,0.12297528000000005,0.14532496,-11.24491336,27.63469284,-30.194831280000002,15.59041128,-0.3021918676,0.08178161787999999,-0.799365868,0.19318571480000002,0.12165913719999999,-0.03323302752
03:37:42,0.382154505,0.08032946499999999,-0.77491393,0.13002828500000002,0.11925189000000005,0.14086648,-11.240619805,27.629444295,-30.201814390000003,15.57555389,-0.29859597005,0.082386432565,-0.801306259,0.18754274365,0.11792747484999999,-0.03306498176
03:37:42,0.38582425,0.08112925,-0.7735985,0.12655525,0.11552850000000003,0.136408,-11.23632625,27.62419575,-30.208797500000003,15.5606965,-0.2950000725,0.08299124725,-0.80324665,0.1818997725,0.1141958125,-0.032896936
03:37:42,0.389493995,0.081929035,-0.77228307,0.12308221500000002,0.11180511000000004,0.13194952,-11.232032695,27.618947205,-30.21578061,15.54583911,-0.29140417495,0.083596061935,-0.805187041,0.17625680135,0.11046415015,-0.03272889024
03:37:42,0.39316374,0.08272882000000001,-0.77096764,0.11960918000000001,0.10808172000000005,0.12749104,-11.227739139999999,27.61369866,-30.22276372,15.53098172,-0.2878082774,0.08420087662,-0.807127432,0.17061383019999998,0.1067324878,-0.032560844480000004
03:37:42,0.396833485,0.083528605,-0.76965221,0.11613614500000002,0.10435833000000005,0.12303255999999999,-11.223445584999999,27.608450115,-30.22974683,15.51612433,-0.28421237985,0.08480569130499999,-0.809067823,0.16497085904999997,0.10300082545,-0.032392798720000004
03:37:42,0.40050323,0.08432839,-0.7683367799999999,0.11266311000000001,0.10063494000000003,0.11857408,-11.21915203,27.60320157,-30.23672994,15.50126694,-0.28061648229999997,0.08541050599,-0.811008214,0.15932788789999996,0.0992691631,-0.032224752960000005
03:37:42,0.404172975,0.085128175,-0.7670213499999999,0.10919007500000003,0.09691155000000004,0.11411559999999998,-11.214858475,27.597953025,-30.24371305,15.48640955,-0.27702058475,0.08601532067499999,-0.812948605,0.15368491675,0.09553750075,-0.0320567072
03:37:42,0.40784272,0.08592796,-0.7657059199999999,0.10571704000000001,0.09318816000000005,0.10965712,-11.21056492,27.592704480000002,-30.25069616,15.47155216,-0.2734246872,0.08662013535999999,-0.814888996,0.1480419456,0.0918058384,-0.03188866144
03:37:42,0.411512465,0.086727745,-0.76439049,0.10224400500000003,0.08946477000000005,0.10519864000000001,-11.206271365,27.587455935,-30.25767927,15.45669477,-0.26982878965,0.087224950045,-0.8168293870000001,0.14239897445,0.08807417605000001,-0.03172061568
03:37:42,0.41518221,0.08752752999999999,-0.76307506,0.09877097000000001,0.08574138000000003,0.10074015999999997,-11.201977809999999,27.58220739,-30.26466238,15.44183738,-0.2662328921,0.08782976473,-0.8187697780000001,0.13675600329999998,0.08434251369999998,-0.03155256992
03:37:42,0.41885195499999994,0.08832731499999999,-0.76175963,0.09529793500000003,0.08201799000000004,0.09628167999999998,-11.197684254999999,27.576958845,-30.27164549,15.42697999,-0.26263699455,0.08843457941499999,-0.820710169,0.13111303214999998,0.08061085134999998,-0.03138452416
03:37:42,0.4225217,0.08912709999999999,-0.7604442,0.09182490000000001,0.07829460000000005,0.0918232,-11.1933907,27.5717103,-30.2786286,15.4121226,-0.259041097,0.0890393941,-0.82265056,0.12547006099999997,0.07687918899999999,-0.0312164784
03:37:42,0.42619144499999995,0.089926885,-0.75912877,0.08835186500000003,0.07457121000000005,0.08736472,-11.189097145,27.566461755,-30.28561171,15.39726521,-0.25544519945,0.08964420878499998,-0.824590951,0.11982708985000001,0.07314752664999999,-0.03104843264
