Timestamp,linacce_x,linacce_y,linacce_z,gyro_x,gyro_y,gyro_z,X-magnetometer,Y-magnetometer,Z-magnetometer,Yaw, worldXAccel,worldYAccel,worldZAccel,worldXgyro,worldYgyro,worldZgyro
03:38:19,-0.67681,0.129142,-0.118241,0.373716,0.391188,-0.236198,-1.95219,-31.398994,-2.584274,174.30238,-0.6154996,0.059003785,0.5019085,0.1120093,0.45273018,-0.07779737
03:38:19,-0.675787625,0.12483899000000001,-0.10903965,0.37126037,0.389179815,-0.23524984,-1.931711315,-31.396597229999998,-2.5768582700000002,172.55313745,-0.6099509015000001,0.054450657075000006,0.49293969,0.11082812210000001,0.45037691051,-0.07691493155000001
03:38:19,-0.67476525,0.12053598000000001,-0.09983829999999999,0.36880474,0.38717163,-0.23430167999999998,-1.91123263,-31.394200459999997,-2.5694425400000003,170.8038949,-0.604402203,0.04989752915,0.48397088,0.10964694420000001,0.44802364102,-0.0760324931
03:38:19,-0.6737428750000001,0.11623297,-0.09063695,0.36634911,0.385163445,-0.23335351999999998,-1.8907539450000002,-31.39180369,-2.5620268100000003,169.05465235,-0.5988535045000001,0.045344401225000004,0.47500207,0.1084657663,0.44567037153,-0.07515005465
03:38:19,-0.6727205,0.11192996000000001,-0.0814356,0.36389348,0.38315526,-0.23240536,-1.87027526,-31.38940692,-2.5546110800000004,167.3054098,-0.593304806,0.0407912733,0.46603326,0.1072845884,0.44331710203999997,-0.07426761620000001
03:38:19,-0.671698125,0.10762695000000001,-0.07223425,0.36143785,0.381147075,-0.2314572,-1.849796575,-31.38701015,-2.54719535,165.55616725,-0.5877561075000001,0.036238145375,0.45706444999999996,0.10610341050000001,0.44096383255,-0.07338517775
03:38:19,-0.67067575,0.10332394,-0.0630329,0.35898222,0.37913889,-0.23050904,-1.82931789,-31.384613379999998,-2.53977962,163.8069247,-0.582207409,0.031685017450000005,0.44809563999999996,0.10492223260000001,0.43861056305999996,-0.07250273930000001
03:38:19,-0.669653375,0.09902093000000001,-0.05383154999999999,0.35652659,0.37713070499999995,-0.22956088,-1.8088392050000002,-31.382216609999997,-2.53236389,162.05768215,-0.5766587105000001,0.027131889525,0.43912682999999997,0.1037410547,0.43625729357,-0.07162030085
03:38:19,-0.668631,0.09471792000000001,-0.044630199999999995,0.35407096,0.37512251999999996,-0.22861272,-1.7883605200000001,-31.37981984,-2.52494816,160.30843959999999,-0.571110012,0.022578761600000004,0.43015802,0.1025598768,0.43390402408,-0.0707378624
03:38:19,-0.6676086250000001,0.09041491000000001,-0.03542885,0.35161533,0.37311433499999996,-0.22766456,-1.767881835,-31.37742307,-2.51753243,158.55919705,-0.5655613135,0.018025633675000007,0.42118921,0.10137869890000001,0.43155075459,-0.06985542395000001
03:38:19,-0.66658625,0.08611190000000002,-0.0262275,0.3491597,0.37110614999999997,-0.22671639999999998,-1.74740315,-31.3750263,-2.5101167,156.8099545,-0.560012615,0.013472505750000002,0.4122204,0.10019752100000001,0.4291974851,-0.0689729855
03:38:19,-0.665563875,0.08180889000000001,-0.01702614999999999,0.34670407,0.369097965,-0.22576823999999998,-1.7269244650000002,-31.372629529999998,-2.5027009700000002,155.06071194999998,-0.5544639165,0.008919377825000005,0.40325159,0.0990163431,0.42684421560999997,-0.06809054705
03:38:19,-0.6645415,0.07750588000000001,-0.007824799999999993,0.34424844,0.36708978,-0.22482007999999998,-1.7064457800000001,-31.370232759999997,-2.4952852400000003,153.3114694,-0.5489152180000001,0.004366249900000008,0.39428277999999994,0.0978351652,0.42449094612,-0.06720810860000001
03:38:19,-0.663519125,0.07320287000000002,0.0013765500000000042,0.34179281,0.365081595,-0.22387192,-1.685967095,-31.36783599,-2.4878695100000003,151.56222685,-0.5433665195,-0.00018687802499999656,0.38531397,0.09665398730000001,0.42213767663,-0.06632567015
03:38:19,-0.66249675,0.06889986000000001,0.010577900000000015,0.33933718,0.36307341,-0.22292376,-1.66548841,-31.36543922,-2.4804537800000004,149.81298429999998,-0.537817821,-0.004740005950000001,0.37634515999999996,0.09547280940000001,0.41978440714,-0.0654432317
03:38:19,-0.6614743750000001,0.06459685000000001,0.019779250000000012,0.33688155,0.361065225,-0.2219756,-1.645009725,-31.36304245,-2.47303805,148.06374175,-0.5322691225,-0.009293133874999998,0.36737634999999996,0.0942916315,0.41743113765,-0.06456079325
03:38:19,-0.660452,0.060293840000000015,0.02898060000000001,0.33442592,0.35905704,-0.22102744,-1.6245310400000001,-31.360645679999998,-2.46562232,146.3144992,-0.5267204240000001,-0.013846261799999995,0.35840753999999997,0.0931104536,0.41507786816,-0.0636783548
03:38:19,-0.659429625,0.05599083000000002,0.038181950000000006,0.33197029,0.357048855,-0.22007928,-1.604052355,-31.358248909999997,-2.45820659,144.56525664999998,-0.5211717255,-0.018399389724999993,0.34943873,0.09192927570000001,0.41272459867,-0.06279591635000001
03:38:19,-0.65840725,0.05168782000000002,0.0473833,0.32951466,0.35504067,-0.21913111999999998,-1.58357367,-31.35585214,-2.45079086,142.8160141,-0.5156230270000001,-0.02295251764999999,0.34046992,0.09074809780000001,0.41037132917999997,-0.06191347790000001
03:38:19,-0.657384875,0.04738481000000001,0.05658465,0.32705903,0.35303248499999995,-0.21818295999999998,-1.5630949850000002,-31.35345537,-2.44337513,141.06677155,-0.5100743285,-0.027505645575,0.33150110999999993,0.08956691990000001,0.40801805969,-0.061031039450000005
03:38:19,-0.6563625000000001,0.04308180000000002,0.065786,0.3246034,0.35102429999999996,-0.2172348,-1.5426163000000002,-31.351058599999998,-2.4359594,139.31752899999998,-0.5045256300000001,-0.0320587735,0.3225323,0.088385742,0.4056647902,-0.06014860100000001
03:38:19,-0.655340125,0.03877879000000002,0.07498735000000002,0.32214777,0.34901611499999996,-0.21628664,-1.522137615,-31.348661829999998,-2.4285436700000003,137.56828645,-0.49897693150000005,-0.036611901424999996,0.31356348999999994,0.0872045641,0.40331152071,-0.05926616255
03:38:19,-0.65431775,0.03447578000000001,0.08418870000000002,0.31969214,0.34700792999999996,-0.21533848,-1.50165893,-31.34626506,-2.4211279400000003,135.8190439,-0.49342823300000005,-0.04116502934999999,0.30459467999999995,0.08602338620000001,0.40095825122,-0.058383724100000006
03:38:19,-0.653295375,0.030172770000000015,0.09339005000000002,0.31723650999999997,0.34499974499999997,-0.21439032,-1.481180245,-31.34386829,-2.4137122100000004,134.06980135,-0.48787953450000004,-0.04571815727499999,0.29562586999999996,0.0848422083,0.39860498173,-0.057501285650000004
03:38:19,-0.652273,0.02586976000000002,0.10259140000000001,0.31478088,0.34299156,-0.21344216,-1.46070156,-31.34147152,-2.40629648,132.3205588,-0.48233083600000004,-0.05027128519999999,0.28665705999999996,0.0836610304,0.39625171224,-0.0566188472
03:38:19,-0.651250625,0.021566750000000023,0.11179275000000001,0.31232525,0.340983375,-0.212494,-1.4402228750000001,-31.339074749999998,-2.39888075,130.57131625,-0.47678213750000004,-0.054824413125,0.27768824999999997,0.0824798525,0.39389844274999997,-0.05573640875000001
03:38:19,-0.6502282500000001,0.017263740000000027,0.12099410000000001,0.30986962,0.33897519,-0.21154583999999999,-1.41974419,-31.336677979999997,-2.39146502,128.8220737,-0.47123343900000003,-0.059377541049999996,0.26871944,0.08129867460000001,0.39154517326,-0.054853970300000006
03:38:19,-0.649205875,0.012960730000000018,0.13019545,0.30741399,0.336967005,-0.21059767999999998,-1.3992655050000002,-31.33428121,-2.38404929,127.07283114999998,-0.4656847405,-0.063930668975,0.25975063,0.08011749670000001,0.38919190377,-0.053971531850000004
03:38:19,-0.6481835,0.008657720000000022,0.13939680000000004,0.30495836,0.33495882,-0.20964951999999998,-1.3787868200000002,-31.33188444,-2.37663356,125.3235886,-0.460136042,-0.0684837969,0.25078181999999993,0.07893631880000002,0.38683863428,-0.05308909340000001
03:38:19,-0.647161125,0.0043547100000000255,0.14859815000000004,0.30250273,0.332950635,-0.20870136,-1.3583081350000001,-31.32948767,-2.36921783,123.57434605,-0.4545873435000001,-0.07303692482499999,0.24181300999999994,0.0777551409,0.38448536479,-0.05220665495
03:38:19,-0.64613875,5.170000000001562e-05,0.15779950000000004,0.3000471,0.33094245,-0.2077532,-1.33782945,-31.327090899999998,-2.3618021000000002,121.8251035,-0.449038645,-0.07759005275,0.23284419999999995,0.07657396300000001,0.3821320953,-0.051324216500000006
03:38:19,-0.645116375,-0.00425130999999998,0.16700085000000003,0.29759146999999997,0.328934265,-0.20680504,-1.317350765,-31.324694129999997,-2.3543863700000003,120.07586094999999,-0.44348994650000007,-0.08214318067499998,0.22387538999999995,0.0753927851,0.37977882581,-0.050441778050000004
03:38:19,-0.644094,-0.008554319999999976,0.17620220000000003,0.29513584,0.32692608,-0.20585688,-1.29687208,-31.32229736,-2.3469706400000003,118.3266184,-0.437941248,-0.0866963086,0.21490657999999996,0.0742116072,0.37742555631999997,-0.0495593396
03:38:19,-0.643071625,-0.012857329999999972,0.18540355000000003,0.29268021,0.324917895,-0.20490872,-1.276393395,-31.31990059,-2.3395549100000004,116.57737585,-0.43239254950000006,-0.091249436525,0.20593776999999996,0.0730304293,0.37507228683,-0.04867690115000001
03:38:19,-0.64204925,-0.01716033999999997,0.19460490000000003,0.29022458,0.32290970999999996,-0.20396055999999999,-1.25591471,-31.31750382,-2.33213918,114.82813329999999,-0.426843851,-0.09580256444999999,0.19696895999999997,0.07184925140000001,0.37271901734,-0.047794462700000005
03:38:19,-0.641026875,-0.021463349999999964,0.20380625000000002,0.28776895,0.32090152499999997,-0.20301239999999998,-1.235436025,-31.315107049999998,-2.32472345,113.07889075,-0.42129515250000005,-0.100355692375,0.18800014999999998,0.07066807350000001,0.37036574785,-0.04691202425
03:38:19,-0.6400045,-0.02576635999999996,0.21300760000000002,0.28531332,0.31889333999999997,-0.20206424,-1.2149573400000002,-31.312710279999997,-2.31730772,111.3296482,-0.41574645400000004,-0.10490882029999998,0.17903133999999998,0.06948689560000001,0.36801247836,-0.04602958580000001
03:38:19,-0.6389821250000001,-0.030069369999999984,0.22220895000000002,0.28285769,0.316885155,-0.20111607999999997,-1.1944786550000002,-31.31031351,-2.30989199,109.58040564999999,-0.41019775550000004,-0.109461948225,0.17006252999999993,0.06830571770000002,0.36565920887000003,-0.04514714735000001
03:38:19,-0.63795975,-0.03437237999999998,0.2314103,0.28040206,0.31487697,-0.20016792,-1.1739999700000001,-31.30791674,-2.30247626,107.8311631,-0.40464905700000003,-0.11401507615,0.16109371999999994,0.06712453980000001,0.36330593938,-0.044264708900000005
03:38:19,-0.636937375,-0.038675389999999976,0.24061165,0.27794642999999997,0.312868785,-0.19921976,-1.153521285,-31.30551997,-2.29506053,106.08192054999999,-0.39910035850000003,-0.11856820407499999,0.15212490999999995,0.06594336190000001,0.36095266988999997,-0.04338227045
03:38:19,-0.635915,-0.04297839999999997,0.249813,0.2754908,0.3108606,-0.1982716,-1.1330426,-31.303123199999998,-2.2876448000000003,104.33267799999999,-0.39355166,-0.123121332,0.14315609999999995,0.064762184,0.3585994004,-0.04249983200000001
03:38:19,-0.634892625,-0.04728140999999997,0.25901435000000006,0.27303517,0.308852415,-0.19732344,-1.112563915,-31.300726429999997,-2.2802290700000003,102.58343545,-0.3880029615,-0.12767445992499998,0.13418728999999996,0.0635810061,0.35624613091,-0.041617393550000006
03:38:19,-0.63387025,-0.051584419999999964,0.26821570000000006,0.27057954,0.30684423,-0.19637527999999999,-1.0920852300000001,-31.29832966,-2.2728133400000003,100.83419289999999,-0.38245426300000007,-0.13222758785,0.12521847999999997,0.06239982820000001,0.35389286142,-0.040734955100000005
03:38:19,-0.6328478750000001,-0.05588742999999996,0.27741705000000005,0.26812391,0.304836045,-0.19542712,-1.071606545,-31.29593289,-2.26539761,99.08495034999999,-0.3769055645,-0.136780715775,0.11624966999999997,0.06121865030000001,0.35153959193,-0.03985251665
03:38:19,-0.6318255,-0.060190439999999984,0.28661840000000005,0.26566828,0.30282785999999995,-0.19447895999999998,-1.0511278600000002,-31.29353612,-2.25798188,97.3357078,-0.37135686600000006,-0.1413338437,0.10728085999999992,0.06003747240000001,0.34918632244000003,-0.03897007820000001
03:38:19,-0.630803125,-0.06449344999999998,0.29581975000000005,0.26321265,0.30081967499999995,-0.1935308,-1.0306491750000002,-31.291139349999998,-2.25056615,95.58646524999999,-0.3658081675,-0.145886971625,0.09831204999999993,0.05885629450000001,0.34683305295,-0.038087639750000006
03:38:19,-0.62978075,-0.06879645999999998,0.30502110000000004,0.26075702,0.29881148999999996,-0.19258264,-1.0101704900000001,-31.288742579999997,-2.24315042,93.8372227,-0.36025946900000005,-0.15044009954999998,0.08934323999999993,0.057675116600000007,0.34447978345999997,-0.037205201300000004
03:38:19,-0.628758375,-0.07309946999999997,0.31422245000000004,0.25830138999999996,0.29680330499999996,-0.19163448,-0.9896918050000001,-31.28634581,-2.23573469,92.08798014999999,-0.35471077050000005,-0.154993227475,0.08037442999999994,0.05649393870000001,0.34212651397,-0.03632276285
03:38:19,-0.6277360000000001,-0.07740247999999997,0.32342380000000004,0.25584576000000003,0.29479511999999997,-0.19068632,-0.96921312,-31.28394904,-2.22831896,90.33873759999999,-0.34916207200000005,-0.15954635539999998,0.07140561999999995,0.05531276080000001,0.33977324448,-0.03544032440000001
03:38:19,-0.626713625,-0.08170548999999996,0.33262515000000004,0.25339013,0.29278693499999997,-0.18973816,-0.948734435,-31.28155227,-2.2209032300000002,88.58949505,-0.34361337350000004,-0.164099483325,0.062436809999999954,0.05413158290000001,0.33741997499,-0.034557885950000006
03:38:19,-0.62569125,-0.08600849999999996,0.34182650000000003,0.2509345,0.29077875,-0.18878999999999999,-0.9282557500000002,-31.279155499999998,-2.2134875000000003,86.84025249999999,-0.33806467500000004,-0.16865261125,0.05346799999999996,0.05295040500000001,0.3350667055,-0.033675447500000004
03:38:19,-0.624668875,-0.09031150999999996,0.35102785000000003,0.24847887,0.288770565,-0.18784183999999998,-0.9077770650000001,-31.276758729999997,-2.2060717700000003,85.09100994999999,-0.33251597650000003,-0.17320573917499998,0.044499189999999966,0.05176922710000001,0.33271343601000003,-0.03279300905000001
03:38:19,-0.6236465,-0.09461451999999995,0.3602292,0.24602324,0.28676238,-0.18689368,-0.88729838,-31.27436196,-2.1986560400000004,83.3417674,-0.32696727800000003,-0.1777588671,0.03553037999999997,0.05058804920000001,0.33036016652,-0.03191057060000001
03:38:19,-0.622624125,-0.09891752999999998,0.36943055,0.24356761,0.284754195,-0.18594551999999998,-0.866819695,-31.27196519,-2.19124031,81.59252484999999,-0.3214185795,-0.18231199502499998,0.026561569999999923,0.049406871300000016,0.32800689703,-0.031028132150000005
03:38:19,-0.6216017500000001,-0.10322053999999997,0.3786319,0.24111198,0.28274601,-0.18499736,-0.8463410100000002,-31.26956842,-2.18382458,79.84328229999998,-0.315869881,-0.18686512295,0.01759275999999993,0.048225693400000005,0.32565362754,-0.030145693700000004
03:38:19,-0.620579375,-0.10752354999999997,0.3878332500000001,0.23865635,0.280737825,-0.1840492,-0.8258623250000001,-31.267171649999998,-2.17640885,78.09403975,-0.3103211825,-0.191418250875,0.008623949999999936,0.04704451550000001,0.32330035805,-0.02926325525000001
03:38:19,-0.619557,-0.11182655999999996,0.39703460000000007,0.23620072,0.27872964,-0.18310104,-0.8053836400000001,-31.264774879999997,-2.16899312,76.34479719999999,-0.304772484,-0.1959713788,-0.0003448600000001134,0.04586333760000001,0.32094708856,-0.028380816800000007
03:38:19,-0.618534625,-0.11612956999999996,0.40623595000000007,0.23374509,0.276721455,-0.18215288,-0.784904955,-31.26237811,-2.16157739,74.59555464999998,-0.2992237855,-0.20052450672499997,-0.009313670000000052,0.044682159700000015,0.31859381907,-0.027498378350000005
03:38:19,-0.61751225,-0.12043257999999996,0.41543730000000006,0.23128946,0.27471327,-0.18120471999999999,-0.7644262700000002,-31.25998134,-2.15416166,72.84631209999999,-0.29367508700000006,-0.20507763464999998,-0.0182824800000001,0.043500981800000005,0.31624054958000003,-0.026615939900000003
03:38:19,-0.6164898750000001,-0.12473558999999998,0.42463865000000006,0.22883383,0.272705085,-0.18025656,-0.7439475850000001,-31.25758457,-2.1467459300000002,71.09706954999999,-0.28812638850000005,-0.209630762575,-0.02725129000000004,0.04231980390000001,0.31388728009,-0.02573350145000001
03:38:19,-0.6154675000000001,-0.12903859999999998,0.43384000000000006,0.2263782,0.27069689999999996,-0.17930839999999998,-0.7234689000000001,-31.255187799999998,-2.1393302000000003,69.347827,-0.28257769000000005,-0.2141838905,-0.03622010000000009,0.04113862600000001,0.31153401059999997,-0.024851063000000007
03:38:19,-0.614445125,-0.13334160999999997,0.44304135000000006,0.22392257,0.26868871499999997,-0.17836024,-0.702990215,-31.252791029999997,-2.1319144700000003,67.59858444999999,-0.27702899150000004,-0.218737018425,-0.04518891000000003,0.039957448100000015,0.30918074111000005,-0.023968624550000005
03:38:19,-0.61342275,-0.13764461999999997,0.45224270000000005,0.22146694,0.26668052999999997,-0.17741208,-0.6825115300000002,-31.25039426,-2.12449874,65.84934189999998,-0.27148029300000004,-0.22329014634999997,-0.054157720000000076,0.038776270200000004,0.30682747162,-0.023086186100000003
03:38:19,-0.612400375,-0.14194762999999996,0.46144405000000005,0.21901131,0.264672345,-0.17646392,-0.6620328450000001,-31.24799749,-2.11708301,64.10009935,-0.26593159450000003,-0.22784327427499998,-0.06312653000000001,0.03759509230000001,0.30447420213,-0.022203747650000008
03:38:19,-0.611378,-0.14625063999999996,0.47064540000000005,0.21655568,0.26266416,-0.17551576,-0.6415541600000001,-31.24560072,-2.10966728,62.35085679999999,-0.26038289600000003,-0.2323964022,-0.07209534000000006,0.03641391440000001,0.30212093264,-0.021321309200000006
03:38:19,-0.610355625,-0.15055364999999996,0.47984675000000004,0.21410005000000001,0.260655975,-0.1745676,-0.621075475,-31.243203949999998,-2.10225155,60.60161424999998,-0.2548341975,-0.236949530125,-0.08106415000000011,0.035232736500000014,0.29976766315000003,-0.020438870750000004
03:38:19,-0.60933325,-0.15485665999999995,0.48904810000000004,0.21164442,0.25864779,-0.17361943999999999,-0.60059679,-31.24080718,-2.09483582,58.85237169999999,-0.24928549900000002,-0.24150265805,-0.09003296000000005,0.03405155860000002,0.29741439366,-0.01955643230000001
03:38:19,-0.608310875,-0.15915966999999995,0.49824945000000004,0.20918879,0.256639605,-0.17267127999999998,-0.5801181050000002,-31.23841041,-2.08742009,57.10312914999999,-0.24373680050000002,-0.24605578597499997,-0.0990017700000001,0.03287038070000001,0.29506112416999997,-0.018673993850000008
03:38:19,-0.6072885,-0.16346267999999994,0.5074508,0.20673316,0.25463141999999994,-0.17172312,-0.5596394200000001,-31.23601364,-2.08000436,55.35388659999998,-0.238188102,-0.25060891389999995,-0.10797058000000004,0.03168920280000001,0.29270785468000005,-0.017791555400000006
03:38:19,-0.606266125,-0.16776568999999994,0.51665215,0.20427753,0.25262323499999995,-0.17077495999999998,-0.5391607350000001,-31.23361687,-2.0725886300000003,53.60464404999999,-0.2326394035,-0.255162041825,-0.11693939000000009,0.030508024900000014,0.29035458519,-0.016909116950000004
03:38:19,-0.6052437500000001,-0.17206869999999994,0.5258535,0.2018219,0.25061504999999995,-0.1698268,-0.51868205,-31.231220099999998,-2.0651729000000003,51.855401499999985,-0.227090705,-0.25971516975,-0.12590820000000003,0.029326847000000017,0.2880013157,-0.01602667850000001
03:38:19,-0.6042213750000001,-0.17637170999999993,0.53505485,0.19936627,0.24860686499999998,-0.16887864,-0.4982033650000002,-31.22882333,-2.0577571700000004,50.106158949999994,-0.22154200650000005,-0.26426829767500004,-0.13487701000000007,0.028145669100000006,0.28564804621,-0.015144240050000007
03:38:19,-0.603199,-0.18067471999999993,0.5442562,0.19691064,0.24659868,-0.16793048,-0.4777246800000001,-31.22642656,-2.0503414400000004,48.35691639999999,-0.21599330800000005,-0.2688214256,-0.14384582,0.02696449120000001,0.28329477672000003,-0.014261801600000013
03:38:19,-0.602176625,-0.18497772999999998,0.55345755,0.19445501,0.244590495,-0.16698232,-0.45724599500000007,-31.22402979,-2.04292571,46.60767384999998,-0.21044460950000005,-0.27337455352499995,-0.15281463000000006,0.025783313300000013,0.28094150723,-0.013379363150000004
03:38:19,-0.60115425,-0.18928073999999998,0.5626589,0.19199938,0.24258230999999997,-0.16603416,-0.43676731,-31.22163302,-2.03550998,44.85843129999998,-0.20489591100000004,-0.27792768145,-0.1617834400000001,0.024602135400000016,0.27858823774,-0.012496924700000009
03:38:19,-0.600131875,-0.19358374999999997,0.57186025,0.18954375,0.24057412499999997,-0.165086,-0.4162886250000002,-31.219236249999998,-2.02809425,43.10918874999999,-0.19934721250000004,-0.282480809375,-0.17075225000000005,0.023420957500000006,0.27623496825000005,-0.01161448625
03:38:19,-0.5991095,-0.19788675999999997,0.5810616,0.18708812,0.23856593999999998,-0.16413783999999998,-0.39580994000000014,-31.21683948,-2.02067852,41.359946199999996,-0.19379851400000003,-0.28703393730000004,-0.1797210600000001,0.02223977960000001,0.27388169876,-0.010732047800000005
03:38:19,-0.598087125,-0.20218976999999996,0.59026295,0.18463249,0.23655775499999998,-0.16318968,-0.3753312550000001,-31.21444271,-2.01326279,39.61070364999998,-0.18824981550000003,-0.291587065225,-0.18868987000000004,0.021058601700000013,0.27152842927,-0.00984960935000001
03:38:19,-0.59706475,-0.20649277999999996,0.5994643,0.18217686,0.23454956999999999,-0.16224152,-0.35485257000000003,-31.21204594,-2.0058470600000002,37.861461099999985,-0.18270111700000002,-0.29614019314999995,-0.1976586800000001,0.019877423800000016,0.26917515978,-0.008967170900000002
03:38:19,-0.596042375,-0.21079578999999996,0.60866565,0.17972123,0.232541385,-0.16129336,-0.3343738850000002,-31.20964917,-1.9984313300000003,36.112218549999994,-0.17715241850000002,-0.300693321075,-0.20662749000000002,0.018696245900000005,0.26682189029000003,-0.008084732450000007
03:38:19,-0.59502,-0.21509879999999995,0.6178669999999999,0.1772656,0.2305332,-0.1603452,-0.31389520000000015,-31.207252399999998,-1.9910156,34.362975999999975,-0.17160372000000002,-0.305246449,-0.21559630000000007,0.01751506800000001,0.2644686208,-0.007202294000000012
03:38:19,-0.593997625,-0.21940180999999995,0.62706835,0.17480997,0.22852501499999997,-0.15939704,-0.2934165150000001,-31.20485563,-1.9835998700000002,32.613733449999984,-0.1660550215,-0.30979957692500004,-0.22456511000000012,0.016333890100000012,0.26211535131,-0.006319855550000003
03:38:19,-0.5929752500000001,-0.22370481999999994,0.6362697,0.17235434,0.22651682999999997,-0.15844888,-0.27293783000000005,-31.20245886,-1.97618414,30.864490899999993,-0.160506323,-0.31435270485,-0.23353392000000006,0.015152712200000015,0.25976208182000005,-0.005437417100000008
03:38:19,-0.591952875,-0.22800782999999994,0.64547105,0.16989871,0.22450864499999998,-0.15750071999999998,-0.252459145,-31.20006209,-1.96876841,29.115248349999973,-0.1549576245,-0.31890583277499995,-0.2425027300000001,0.013971534300000019,0.25740881233,-0.004554978650000013
03:38:19,-0.5909305,-0.23231083999999994,0.6546724,0.16744308,0.22250045999999998,-0.15655256,-0.23198046000000017,-31.19766532,-1.96135268,27.366005799999982,-0.14940892600000005,-0.3234589607,-0.25147154000000005,0.012790356400000008,0.25505554284,-0.0036725402000000046
03:38:19,-0.589908125,-0.23661384999999993,0.66387375,0.16498745,0.220492275,-0.15560439999999998,-0.21150177500000011,-31.195268549999998,-1.9539369500000001,25.61676324999999,-0.14386022750000005,-0.328012088625,-0.2604403500000001,0.011609178500000011,0.25270227335,-0.0027901017500000097
03:38:19,-0.58888575,-0.24091685999999993,0.6730751,0.16253182,0.21848409,-0.15465624,-0.19102309000000006,-31.19287178,-1.9465212200000002,23.86752069999997,-0.13831152900000004,-0.33256521655000004,-0.26940916000000004,0.010428000600000015,0.25034900386000003,-0.001907663300000001
03:38:19,-0.587863375,-0.24521986999999992,0.68227645,0.16007619,0.21647590499999997,-0.15370808,-0.170544405,-31.19047501,-1.9391054900000002,22.11827814999998,-0.13276283050000004,-0.337118344475,-0.2783779700000001,0.009246822700000018,0.24799573437000003,-0.001025224850000006
03:38:19,-0.5868410000000001,-0.24952287999999997,0.6914778,0.15762056,0.21446771999999997,-0.15275992,-0.15006572000000018,-31.18807824,-1.9316897600000003,20.36903559999999,-0.12721413200000004,-0.34167147239999995,-0.28734678000000013,0.008065644800000007,0.24564246488000002,-0.0001427864000000112
03:38:19,-0.585818625,-0.25382589,0.70067915,0.15516493,0.21245953499999998,-0.15181176,-0.12958703500000013,-31.18568147,-1.92427403,18.61979304999997,-0.12166543350000003,-0.346224600325,-0.2963155900000001,0.006884466900000011,0.24328919539000002,0.0007396520499999976
03:38:19,-0.58479625,-0.2581289,0.7098805,0.1527093,0.21045134999999998,-0.1508636,-0.10910835000000008,-31.183284699999998,-1.9168583000000001,16.87055049999998,-0.11611673500000003,-0.35077772825,-0.3052844000000001,0.005703289000000014,0.24093592590000001,0.0016220904999999924
03:38:19,-0.583773875,-0.26243191,0.71908185,0.15025367,0.20844316499999999,-0.14991544,-0.08862966500000002,-31.18088793,-1.9094425700000002,15.121307949999988,-0.11056803650000002,-0.35533085617500004,-0.31425321000000006,0.0045221111000000175,0.23858265641,0.0025045289499999873
03:38:19,-0.5827515,-0.26673492,0.7282832,0.14779804,0.20643498,-0.14896727999999998,-0.0681509800000002,-31.17849116,-1.90202684,13.372065399999997,-0.10501933800000007,-0.3598839841,-0.3232220200000001,0.003340933200000007,0.23622938692,0.003386967399999996
03:38:19,-0.5817291250000001,-0.27103793,0.73748455,0.14534241,0.20442679499999997,-0.14801912,-0.04767229500000014,-31.17609439,-1.89461111,11.622822849999977,-0.09947063950000001,-0.36443711202499995,-0.33219083000000005,0.0021597553000000103,0.23387611743000003,0.004269405849999991
03:38:19,-0.58070675,-0.27534094,0.7466859,0.14288678,0.20241860999999997,-0.14707096,-0.02719361000000009,-31.17369762,-1.88719538,9.873580299999986,-0.09392194100000006,-0.36899023995,-0.3411596400000001,0.0009785774000000136,0.23152284794000003,0.0051518443
03:38:19,-0.579684375,-0.27964395,0.75588725,0.14043115,0.20041042499999998,-0.1461228,-0.006714925000000038,-31.171300849999998,-1.8797796500000001,8.124337749999995,-0.0883732425,-0.373543367875,-0.35012845000000004,-0.00020260049999998309,0.22916957845000002,0.006034282749999995
03:38:19,-0.578662,-0.28394695999999997,0.7650886,0.13797552000000002,0.19840223999999998,-0.14517464,0.013763760000000014,-31.16890408,-1.8723639200000002,6.375095199999976,-0.08282454400000006,-0.37809649579999993,-0.3590972600000001,-0.0013837783999999798,0.22681630896000002,0.0069167211999999895
03:38:19,-0.577639625,-0.28824996999999997,0.77428995,0.13551989,0.19639405499999998,-0.14422648,0.034242444999999844,-31.16650731,-1.8649481900000002,4.625852649999985,-0.0772758455,-0.382649623725,-0.36806607000000013,-0.0025649562999999903,0.22446303947000001,0.007799159649999998
03:38:19,-0.57661725,-0.29255297999999996,0.7834913,0.13306426000000002,0.19438587,-0.14327832,0.05472113000000012,-31.16411054,-1.8575324600000003,2.8766100999999935,-0.07172714700000005,-0.38720275164999995,-0.37703488000000007,-0.003746134199999987,0.22210976998,0.008681598099999993
03:38:19,-0.5755948750000001,-0.29685598999999996,0.79269265,0.13060863,0.192377685,-0.14233015999999998,0.07519981499999973,-31.16171377,-1.85011673,1.127367549999974,-0.06617844849999999,-0.391755879575,-0.3860036900000001,-0.004927312099999984,0.21975650049,0.009564036549999988
03:38:19,-0.5745725,-0.30115899999999995,0.801894,0.12815300000000002,0.19036949999999997,-0.141382,0.09567849999999978,-31.159316999999998,-1.8427010000000001,-0.621875000000017,-0.06062975000000004,-0.3963090075,-0.39497250000000006,-0.00610848999999998,0.21740323100000003,0.010446474999999997
03:38:19,-0.573550125,-0.30546200999999995,0.81109535,0.12569737,0.18836131499999997,-0.14043383999999998,0.11615718499999983,-31.15692023,-1.83528527,-2.371117550000008,-0.05508105149999998,-0.40086213542499993,-0.4039413100000001,-0.007289667899999991,0.21504996151000003,0.011328913449999992
03:38:19,-0.57252775,-0.30976501999999995,0.8202967,0.12324173999999999,0.18635312999999998,-0.13948568,0.13663586999999988,-31.15452346,-1.82786954,-4.120360100000028,-0.04953235300000003,-0.40541526335,-0.41291012000000005,-0.008470845799999988,0.21269669202000002,0.012211351899999986
03:38:19,-0.571505375,-0.31406802999999994,0.82949805,0.12078611,0.18434494499999998,-0.13853752,0.15711455499999993,-31.15212669,-1.82045381,-5.869602650000019,-0.04398365450000008,-0.40996839127499995,-0.4218789300000001,-0.009652023699999984,0.21034342253000002,0.013093790349999995
03:38:19,-0.5704830000000001,-0.31837103999999994,0.8386994,0.11833048000000002,0.18233676,-0.13758936,0.17759323999999999,-31.14972992,-1.81303808,-7.61884520000001,-0.03843495600000002,-0.4145215192,-0.43084774000000003,-0.010833201599999981,0.20799015304000001,0.01397622879999999
03:38:19,-0.569460625,-0.32267404999999993,0.84790075,0.11587485000000003,0.180328575,-0.1366412,0.19807192500000004,-31.14733315,-1.8056223500000002,-9.36808775000003,-0.03288625750000007,-0.419074647125,-0.4398165500000001,-0.012014379499999991,0.20563688355,0.014858667249999999
03:38:19,-0.56843825,-0.32697705999999993,0.8571021,0.11341921999999999,0.17832038999999997,-0.13569304,0.2185506100000001,-31.14493638,-1.7982066200000002,-11.11733030000002,-0.02733755900000001,-0.42362777504999993,-0.44878536000000013,-0.013195557399999974,0.20328361406000003,0.015741105699999994
03:38:19,-0.567415875,-0.3312800699999999,0.86630345,0.11096359,0.17631220499999997,-0.13474488,0.2390292949999997,-31.14253961,-1.7907908900000002,-12.866572850000011,-0.021788860500000062,-0.428180902975,-0.45775417000000007,-0.014376735299999999,0.20093034457000003,0.01662354414999999
03:38:19,-0.5663935,-0.3355830799999999,0.8755048,0.10850796000000001,0.17430401999999998,-0.13379671999999998,0.25950797999999975,-31.14014284,-1.78337516,-14.61581540000003,-0.016240162000000002,-0.43273403089999996,-0.4667229800000001,-0.015557913199999995,0.19857707508,0.017505982599999997
03:38:19,-0.565371125,-0.3398860899999999,0.88470615,0.10605233000000003,0.17229583499999998,-0.13284856,0.2799866649999998,-31.13774607,-1.7759594300000001,-16.365057950000022,-0.010691463500000054,-0.437287158825,-0.47569179000000006,-0.016739091099999992,0.19622380559000002,0.018388421049999992
03:38:19,-0.56434875,-0.3441890999999999,0.8939075000000001,0.10359669999999999,0.17028764999999998,-0.1319004,0.30046534999999985,-31.1353493,-1.7685437000000002,-18.114300500000013,-0.005142764999999994,-0.44184028675,-0.4846606000000001,-0.01792026899999999,0.19387053610000005,0.019270859499999987
03:38:19,-0.563326375,-0.3484921099999999,0.90310885,0.10114107,0.168279465,-0.13095224,0.3209440349999999,-31.13295253,-1.76112797,-19.863543050000033,0.0004059334999999553,-0.44639341467499993,-0.49362941000000005,-0.019101446899999985,0.19151726661000001,0.020153297949999996
03:38:19,-0.562304,-0.3527951199999999,0.9123102000000001,0.09868544000000001,0.16627127999999997,-0.13000408,0.34142271999999996,-31.13055576,-1.75371224,-21.612785600000024,0.005954632000000015,-0.4509465426,-0.5025982200000002,-0.020282624799999982,0.18916399712000004,0.02103573639999999
03:38:19,-0.561281625,-0.3570981299999999,0.92151155,0.09622981000000003,0.16426309499999997,-0.12905592,0.361901405,-31.12815899,-1.74629651,-23.362028150000015,0.011503330499999964,-0.45549967052499996,-0.51156703,-0.02146380269999998,0.18681072763,0.021918174849999986
03:38:19,-0.56025925,-0.3614011399999999,0.9307129000000001,0.09377417999999998,0.16225490999999997,-0.12810776,0.38238009000000006,-31.12576222,-1.7388807800000001,-25.111270700000034,0.017052029000000024,-0.4600527984499999,-0.5205358400000001,-0.022644980599999975,0.18445745814000003,0.022800613299999994
03:38:19,-0.5592368750000001,-0.3657041499999999,0.93991425,0.09131855,0.16024672499999998,-0.12715959999999998,0.4028587750000001,-31.12336545,-1.7314650500000002,-26.860513250000025,0.022600727499999973,-0.464605926375,-0.5295046500000001,-0.023826158499999972,0.18210418865,0.02368305174999999
03:38:19,-0.5582145000000001,-0.3700071599999999,0.9491156000000001,0.08886292000000001,0.15823853999999998,-0.12621144,0.4233374599999997,-31.12096868,-1.7240493200000002,-28.609755800000016,0.028149425999999922,-0.46915905429999993,-0.5384734600000002,-0.025007336399999996,0.17975091916000002,0.024565490199999998
03:38:19,-0.557192125,-0.37431017,0.95831695,0.08640729000000003,0.156230355,-0.12526327999999998,0.4438161449999998,-31.11857191,-1.7166335900000003,-30.358998350000007,0.03369812449999998,-0.473712182225,-0.54744227,-0.026188514299999993,0.17739764967000005,0.025447928649999993
03:38:19,-0.55616975,-0.37861318,0.9675183,0.08395165999999998,0.15422217,-0.12431512,0.4642948299999998,-31.11617514,-1.70921786,-32.10824090000003,0.03924682299999993,-0.47826531014999996,-0.5564110800000001,-0.02736969219999999,0.17504438018000001,0.026330367099999988
03:38:19,-0.555147375,-0.38291619,0.9767196499999999,0.08149603,0.15221398499999997,-0.12336696,0.4847735149999999,-31.11377837,-1.7018021300000001,-33.85748345000002,0.04479552149999999,-0.4828184380749999,-0.5653798900000001,-0.028550870099999986,0.17269111069000004,0.027212805549999997
03:38:19,-0.554125,-0.3872192,0.985921,0.07904040000000001,0.15020579999999997,-0.1224188,0.5052521999999999,-31.1113816,-1.6943864,-35.60672600000001,0.05034421999999994,-0.487371566,-0.5743487000000002,-0.029732047999999983,0.1703378412,0.02809524399999999
03:38:19,-0.553102625,-0.39152221,0.9951223499999999,0.07658477000000002,0.14819761499999998,-0.12147063999999999,0.525730885,-31.10898483,-1.68697067,-37.35596855000003,0.0558929185,-0.49192469392499993,-0.5833175100000002,-0.03091322589999998,0.16798457171000003,0.028977682449999986
03:38:19,-0.55208025,-0.39582522,1.0043237,0.07412913999999998,0.14618942999999998,-0.12052247999999999,0.54620957,-31.10658806,-1.67955494,-39.10521110000002,0.06144161699999995,-0.49647782185,-0.59228632,-0.032094403799999977,0.16563130222000005,0.029860120899999995
03:38:19,-0.551057875,-0.40012823,1.01352505,0.07167351,0.14418124499999999,-0.11957432,0.5666882550000001,-31.10419129,-1.67213921,-40.85445365000001,0.06699031550000001,-0.501030949775,-0.6012551300000001,-0.03327558169999997,0.16327803273000002,0.03074255934999999
03:38:19,-0.5500355,-0.40443123999999997,1.0227264,0.06921788000000001,0.14217306,-0.11862616,0.5871669399999997,-31.10179452,-1.6647234800000001,-42.60369620000003,0.07253901399999996,-0.5055840776999999,-0.6102239400000001,-0.0344567596,0.16092476324000005,0.0316249978
03:38:19,-0.549013125,-0.40873424999999997,1.03192775,0.06676225000000002,0.14016487499999997,-0.11767799999999999,0.6076456249999997,-31.09939775,-1.6573077500000002,-44.35293875000002,0.07808771250000002,-0.510137205625,-0.6191927500000002,-0.035637937499999994,0.15857149375000001,0.032507436249999994
03:38:19,-0.5479907500000001,-0.41303725999999996,1.0411291,0.06430661999999998,0.13815668999999997,-0.11672984,0.6281243099999998,-31.09700098,-1.6498920200000002,-46.10218130000001,0.08363641099999997,-0.5146903335499999,-0.62816156,-0.03681911539999999,0.15621822426000004,0.03338987469999999
03:38:19,-0.5469683750000001,-0.41734026999999996,1.05033045,0.061850989999999995,0.13614850499999998,-0.11578168,0.6486029949999998,-31.09460421,-1.64247629,-47.85142385000003,0.08918510950000003,-0.519243461475,-0.6371303700000001,-0.03800029329999999,0.15386495477,0.03427231315
03:38:19,-0.545946,-0.42164327999999995,1.0595318,0.05939536000000001,0.13414031999999998,-0.11483352,0.6690816799999999,-31.09220744,-1.63506056,-49.60066640000002,0.09473380799999997,-0.5237965894,-0.6460991800000001,-0.039181471199999984,0.15151168528000003,0.03515475159999999
03:38:19,-0.544923625,-0.42594628999999995,1.0687331500000001,0.05693973000000002,0.13213213499999998,-0.11388535999999999,0.689560365,-31.08981067,-1.6276448300000002,-51.349908950000014,0.10028250649999992,-0.5283497173249999,-0.6550679900000002,-0.04036264909999998,0.14915841579000005,0.03603719004999999
03:38:19,-0.54390125,-0.43024929999999995,1.0779345,0.054484100000000035,0.13012395,-0.11293719999999999,0.71003905,-31.0874139,-1.6202291,-53.09915150000003,0.10583120499999998,-0.53290284525,-0.6640368000000002,-0.04154382699999998,0.14680514630000002,0.036919628499999996
03:38:19,-0.542878875,-0.43455230999999994,1.0871358500000001,0.05202846999999999,0.128115765,-0.11198904,0.7305177350000001,-31.08501713,-1.61281337,-54.848394050000024,0.11137990349999993,-0.5374559731749999,-0.67300561,-0.042725004899999974,0.14445187681000005,0.03780206694999999
03:38:19,-0.5418565,-0.43885531999999994,1.0963372,0.04957284000000001,0.12610758,-0.11104087999999998,0.7509964200000001,-31.08262036,-1.60539764,-56.597636600000016,0.11692860199999999,-0.5420091011,-0.6819744200000001,-0.04390618279999997,0.14209860732000001,0.038684505399999985
03:38:19,-0.540834125,-0.44315832999999993,1.1055385500000001,0.04711721000000002,0.124099395,-0.11009272,0.7714751049999997,-31.08022359,-1.5979819100000001,-58.346879150000035,0.12247730049999994,-0.546562229025,-0.6909432300000001,-0.045087360699999995,0.13974533783000004,0.039566943849999994
03:38:19,-0.53981175,-0.44746133999999993,1.1147399,0.044661580000000034,0.12209121,-0.10914456,0.7919537899999998,-31.07782682,-1.5905661800000002,-60.096121700000026,0.128025999,-0.5511153569499999,-0.6999120400000002,-0.04626853859999999,0.13739206834,0.04044938229999999
03:38:19,-0.538789375,-0.4517643499999999,1.1239412500000001,0.04220594999999999,0.12008302499999995,-0.1081964,0.8124324749999998,-31.07543005,-1.5831504500000002,-61.84536425000002,0.13357469749999995,-0.555668484875,-0.70888085,-0.04744971649999999,0.13503879885000003,0.04133182075
03:38:19,-0.537767,-0.4560673599999999,1.1331426,0.039750320000000006,0.11807483999999996,-0.10724824,0.8329111599999999,-31.07303328,-1.57573472,-63.59460680000004,0.139123396,-0.5602216127999999,-0.7178496600000001,-0.048630894399999985,0.13268552936000005,0.04221425919999999
03:38:19,-0.536744625,-0.4603703699999999,1.14234395,0.03729469000000002,0.11606665499999996,-0.10630007999999999,0.8533898449999999,-31.07063651,-1.56831899,-65.34384935000003,0.14467209449999996,-0.564774740725,-0.7268184700000001,-0.04981207229999998,0.13033225987000002,0.04309669764999999
03:38:19,-0.5357222500000001,-0.4646733799999999,1.1515453,0.03483906000000003,0.11405846999999997,-0.10535191999999999,0.87386853,-31.06823974,-1.5609032600000001,-67.09309190000002,0.15022079300000002,-0.56932786865,-0.7357872800000002,-0.05099325019999998,0.12797899038000005,0.043979136099999996
03:38:19,-0.534699875,-0.4689763899999999,1.16074665,0.03238342999999999,0.11205028499999997,-0.10440375999999998,0.894347215,-31.06584297,-1.5534875300000002,-68.84233445000004,0.15576949149999997,-0.5738809965749999,-0.7447560900000002,-0.052174428099999975,0.12562572089000001,0.04486157454999999
03:38:19,-0.5336775,-0.4732793999999999,1.169948,0.029927800000000004,0.11004209999999998,-0.10345560000000001,0.9148259000000001,-31.0634462,-1.5460718,-70.59157700000003,0.16131819000000003,-0.5784341245,-0.7537249,-0.05335560599999997,0.12327245140000004,0.045744012999999986
03:38:19,-0.532655125,-0.4775824099999999,1.17914935,0.027472170000000018,0.10803391499999998,-0.10250744,0.9353045849999997,-31.06104943,-1.53865607,-72.34081955000002,0.16686688849999998,-0.5829872524249999,-0.7626937100000001,-0.0545367839,0.12091918191000006,0.046626451449999995
03:38:19,-0.53163275,-0.4818854199999999,1.1883507,0.02501654000000003,0.10602572999999998,-0.10155928,0.9557832699999997,-31.05865266,-1.53124034,-74.09006210000001,0.17241558699999993,-0.58754038035,-0.7716625200000001,-0.05571796179999999,0.11856591242000003,0.04750888989999999
03:38:19,-0.530610375,-0.4861884299999999,1.19755205,0.02256090999999999,0.10401754499999999,-0.10061112,0.9762619549999998,-31.05625589,-1.5238246100000001,-75.83930465000003,0.17796428549999999,-0.592093508275,-0.7806313300000002,-0.05689913969999999,0.11621264293000005,0.048391328349999985
03:38:19,-0.529588,-0.4904914399999999,1.2067534,0.020105280000000003,0.10200936,-0.09966296,0.9967406399999998,-31.053859120000002,-1.5164088800000002,-77.58854720000002,0.18351298399999993,-0.5966466361999999,-0.78960014,-0.05808031759999999,0.11385937344000002,0.04927376679999998
03:38:19,-0.528565625,-0.49479445,1.21595475,0.017649650000000017,0.100001175,-0.09871479999999999,1.017219325,-31.05146235,-1.50899315,-79.33778975000001,0.1890616825,-0.601199764125,-0.79856895,-0.05926149549999998,0.11150610395000005,0.05015620525
03:38:19,-0.52754325,-0.49909746,1.2251561,0.01519402000000003,0.09799299,-0.09776663999999999,1.03769801,-31.04906558,-1.50157742,-81.08703230000003,0.19461038099999994,-0.6057528920499999,-0.8075377600000001,-0.06044267339999998,0.10915283446000001,0.0510386437
03:38:19,-0.526520875,-0.50340047,1.23435745,0.012738389999999988,0.095984805,-0.09681847999999998,1.058176695,-31.04666881,-1.49416169,-82.83627485000002,0.2001590795,-0.610306019975,-0.8165065700000002,-0.06162385129999998,0.10679956497000004,0.05192108214999999
03:38:19,-0.5254985,-0.50770348,1.2435588,0.010282760000000002,0.09397661999999996,-0.09587031999999998,1.07865538,-31.04427204,-1.4867459600000001,-84.58551740000004,0.20570777799999995,-0.6148591479,-0.8254753800000002,-0.06280502919999997,0.10444629548000006,0.05280352059999999
03:38:19,-0.5244761250000001,-0.51200649,1.25276015,0.007827130000000015,0.09196843499999996,-0.09492216,1.099134065,-31.041875270000002,-1.4793302300000002,-86.33475995,0.2112564765,-0.6194122758249999,-0.83444419,-0.06398620709999997,0.10209302599000003,0.05368595904999998
03:38:19,-0.52345375,-0.5163095,1.2619615,0.005371500000000029,0.08996024999999996,-0.093974,1.1196127499999997,-31.0394785,-1.4719145,-88.08400250000003,0.21680517499999996,-0.62396540375,-0.8434130000000001,-0.065167385,0.09973975650000005,0.054568397500000004
03:38:19,-0.522431375,-0.52061251,1.27116285,0.002915869999999987,0.08795206499999997,-0.09302584,1.1400914349999998,-31.03708173,-1.46449877,-89.83324505000004,0.22235387350000002,-0.6285185316749999,-0.8523818100000001,-0.06634856289999999,0.09738648701000002,0.05545083595
03:38:19,-0.521409,-0.52491552,1.2803642,0.00046024000000000065,0.08594387999999997,-0.09207768,1.1605701199999998,-31.03468496,-1.45708304,-91.58248760000001,0.22790257199999997,-0.6330716596,-0.8613506200000002,-0.06752974079999999,0.09503321752000005,0.056333274399999994
03:38:19,-0.520386625,-0.52921853,1.28956555,-0.001995389999999986,0.08393569499999998,-0.09112951999999999,1.1810488049999999,-31.03228819,-1.4496673100000002,-93.33173015000003,0.23345127050000003,-0.637624787525,-0.8703194300000002,-0.06871091869999998,0.09267994803000001,0.05721571284999999
03:38:19,-0.51936425,-0.53352154,1.2987669,-0.004451019999999972,0.08192750999999998,-0.09018135999999999,1.20152749,-31.029891420000002,-1.4422515800000002,-95.08097270000005,0.23899996899999998,-0.6421779154499999,-0.87928824,-0.06989209659999998,0.09032667854000004,0.058098151299999984
03:38:19,-0.518341875,-0.53782455,1.30796825,-0.006906650000000014,0.07991932499999999,-0.08923319999999998,1.222006175,-31.02749465,-1.43483585,-96.83021525000001,0.24454866749999993,-0.646731043375,-0.8882570500000001,-0.07107327449999998,0.08797340905000006,0.05898058974999998
03:38:19,-0.5173195,-0.54212756,1.3171696,-0.00936228,0.07791113999999999,-0.08828504000000001,1.24248486,-31.02509788,-1.42742012,-98.57945780000003,0.250097366,-0.6512841712999999,-0.8972258600000002,-0.07225445239999997,0.08562013956000003,0.0598630282
03:38:19,-0.516297125,-0.54643057,1.32637095,-0.011817909999999987,0.075902955,-0.08733688,1.262963545,-31.02270111,-1.4200043900000001,-100.32870035000005,0.25564606449999994,-0.655837299225,-0.9061946700000002,-0.07343563029999997,0.08326687007000005,0.060745466649999996
03:38:19,-0.51527475,-0.55073358,1.3355723,-0.014273539999999973,0.07389477,-0.08638872,1.2834422299999997,-31.02030434,-1.4125886600000002,-102.07794290000001,0.261194763,-0.66039042715,-0.91516348,-0.0746168082,0.08091360058000002,0.06162790509999999
03:38:19,-0.514252375,-0.5550365899999999,1.34477365,-0.016729170000000015,0.071886585,-0.08544056,1.3039209149999997,-31.017907570000002,-1.40517293,-103.82718545000003,0.26674346149999995,-0.6649435550749999,-0.9241322900000001,-0.07579798609999999,0.07856033109000005,0.06251034354999999
03:38:19,-0.5132300000000001,-0.5593395999999999,1.353975,-0.019184800000000002,0.06987840000000001,-0.0844924,1.3243995999999998,-31.0155108,-1.3977572,-105.57642800000005,0.27229216,-0.669496683,-0.9331011000000001,-0.07697916399999999,0.07620706160000001,0.06339278199999998
03:38:19,-0.512207625,-0.5636426099999999,1.36317635,-0.02164042999999999,0.06787021499999996,-0.08354423999999999,1.3448782849999998,-31.01311403,-1.39034147,-107.32567055000001,0.27784085849999995,-0.6740498109249999,-0.9420699100000002,-0.07816034189999999,0.07385379211000004,0.06427522045
03:38:19,-0.51118525,-0.5679456199999999,1.3723777000000001,-0.024096059999999975,0.06586202999999996,-0.08259607999999999,1.36535697,-31.01071726,-1.3829257400000001,-109.07491310000003,0.283389557,-0.67860293885,-0.9510387200000002,-0.07934151979999998,0.07150052262000006,0.0651576589
03:38:19,-0.510162875,-0.5722486299999999,1.38157905,-0.02655168999999996,0.06385384499999996,-0.08164791999999998,1.385835655,-31.00832049,-1.3755100100000002,-110.82415565000005,0.28893825549999996,-0.683156066775,-0.96000753,-0.08052269769999998,0.06914725313000003,0.06604009735
03:38:19,-0.5091405,-0.5765516399999999,1.3907804000000001,-0.029007320000000003,0.06184565999999997,-0.08069975999999998,1.40631434,-31.005923720000002,-1.36809428,-112.57339820000001,0.294486954,-0.6877091946999999,-0.9689763400000001,-0.08170387559999998,0.06679398364000005,0.06692253579999999
03:38:19,-0.508118125,-0.5808546499999999,1.39998175,-0.03146294999999999,0.05983747499999997,-0.0797516,1.426793025,-31.00352695,-1.36067855,-114.32264075000003,0.30003565249999997,-0.692262322625,-0.9779451500000002,-0.08288505349999997,0.06444071415000002,0.06780497424999998
03:38:19,-0.50709575,-0.5851576599999999,1.4091831000000001,-0.033918579999999976,0.05782928999999998,-0.07880344,1.44727171,-31.00113018,-1.35326282,-116.07188330000005,0.30558435100000003,-0.6968154505499999,-0.9869139600000002,-0.08406623139999997,0.062087444660000046,0.06868741269999998
03:38:19,-0.506073375,-0.5894606699999999,1.41838445,-0.03637420999999996,0.05582110499999998,-0.07785528,1.4677503949999997,-30.99873341,-1.3458470900000001,-117.82112585000002,0.3111330495,-0.701368578475,-0.99588277,-0.0852474093,0.05973417517000007,0.06956985115
03:38:19,-0.505051,-0.5937636799999999,1.4275858000000001,-0.038829840000000004,0.053812919999999986,-0.07690712,1.4882290799999998,-30.99633664,-1.3384313600000002,-119.57036840000004,0.31668174799999993,-0.7059217064,-1.00485158,-0.08642858719999999,0.05738090568000004,0.0704522896
03:38:19,-0.504028625,-0.5980666899999999,1.43678715,-0.04128546999999999,0.05180473499999999,-0.07595895999999999,1.5087077649999998,-30.993939870000002,-1.33101563,-121.31961095000005,0.3222304465,-0.7104748343249999,-1.0138203900000002,-0.08760976509999999,0.05502763619000006,0.07133472804999999
03:38:19,-0.50300625,-0.6023696999999999,1.4459885000000001,-0.04374109999999998,0.049796549999999995,-0.07501079999999999,1.5291864499999999,-30.9915431,-1.3235999,-123.06885350000002,0.32777914499999994,-0.71502796225,-1.0227892,-0.08879094299999998,0.05267436670000003,0.07221716649999999
03:38:19,-0.5019838750000001,-0.6066727099999999,1.45518985,-0.046196729999999964,0.047788365,-0.07406263999999999,1.549665135,-30.98914633,-1.31618417,-124.81809605000004,0.3333278435,-0.7195810901749999,-1.0317580100000003,-0.08997212089999998,0.050321097210000054,0.07309960494999998
03:38:19,-0.5009615000000001,-0.6109757199999999,1.4643912000000001,-0.048652360000000006,0.045780180000000004,-0.07311448000000001,1.57014382,-30.98674956,-1.3087684400000001,-126.56733860000006,0.33887654199999995,-0.7241342181,-1.0407268200000002,-0.09115329879999998,0.04796782772000002,0.0739820434
03:38:19,-0.49993912500000004,-0.6152787299999999,1.47359255,-0.05110798999999999,0.04377199499999995,-0.07216632,1.590622505,-30.98435279,-1.3013527100000002,-128.31658115000002,0.3444252405,-0.728687346025,-1.04969563,-0.09233447669999997,0.045614558230000046,0.07486448185
03:38:19,-0.49891675,-0.6195817399999999,1.4827939,-0.05356361999999998,0.04176380999999996,-0.07121816,1.61110119,-30.981956020000002,-1.29393698,-130.06582370000004,0.34997393899999996,-0.7332404739499999,-1.0586644400000003,-0.09351565459999997,0.04326128874000007,0.07574692029999999
03:38:19,-0.497894375,-0.6238847499999999,1.49199525,-0.056019249999999965,0.03975562499999996,-0.07027,1.6315798749999997,-30.97955925,-1.28652125,-131.81506625000006,0.3555226375,-0.737793601875,-1.06763325,-0.0946968325,0.04090801925000004,0.07662935874999999
03:38:19,-0.496872,-0.62818776,1.5011966,-0.05847488000000001,0.037747439999999965,-0.06932184,1.6520585599999997,-30.97716248,-1.27910552,-133.56430880000002,0.36107133599999996,-0.7423467297999999,-1.0766020600000004,-0.09587801039999999,0.03855474976000006,0.07751179719999998
03:38:19,-0.495849625,-0.63249077,1.51039795,-0.06093050999999999,0.03573925499999997,-0.06837367999999999,1.6725372449999998,-30.97476571,-1.2716897900000002,-135.31355135000004,0.3666200345,-0.746899857725,-1.0855708700000002,-0.09705918829999999,0.03620148027000003,0.07839423564999998
03:38:19,-0.49482725000000005,-0.63679378,1.5195993,-0.06338613999999998,0.033731069999999974,-0.06742551999999999,1.6930159299999998,-30.97236894,-1.26427406,-137.06279390000006,0.372168733,-0.75145298565,-1.09453968,-0.09824036619999998,0.033848210780000054,0.0792766741
03:38:19,-0.49380487500000003,-0.64109679,1.52880065,-0.06584176999999997,0.03172288499999998,-0.06647735999999999,1.7134946149999999,-30.969972170000002,-1.25685833,-138.81203645000002,0.37771743150000003,-0.7560061135749999,-1.1035084900000003,-0.09942154409999998,0.03149494129000002,0.08015911255
03:38:19,-0.4927825,-0.6453998,1.538002,-0.06829740000000001,0.029714699999999983,-0.06552919999999998,1.7339733,-30.9675754,-1.2494426,-140.56127900000004,0.38326613,-0.7605592415,-1.1124773000000001,-0.10060272199999998,0.029141671800000046,0.08104155099999999
03:38:19,-0.491760125,-0.64970281,1.54720335,-0.07075303,0.027706514999999987,-0.06458104,1.754451985,-30.96517863,-1.2420268700000001,-142.31052155,0.38881482850000004,-0.7651123694249999,-1.12144611,-0.10178389989999997,0.02678840231000007,0.08192398944999998
03:38:19,-0.49073775,-0.65400582,1.5564047,-0.07320865999999998,0.02569832999999999,-0.06363288,1.77493067,-30.96278186,-1.2346111400000002,-144.05976410000002,0.394363527,-0.76966549735,-1.1304149200000002,-0.10296507779999997,0.02443513282000004,0.08280642789999998
03:38:19,-0.489715375,-0.65830883,1.56560605,-0.07566428999999997,0.023690144999999996,-0.06268472,1.795409355,-30.960385090000003,-1.22719541,-145.80900665000004,0.39991222549999994,-0.774218625275,-1.13938373,-0.10414625569999997,0.022081863330000062,0.08368886635
03:38:19,-0.48869300000000004,-0.66261184,1.5748074,-0.07811992000000001,0.02168196,-0.061736559999999996,1.8158880399999997,-30.957988320000002,-1.21977968,-147.5582492,0.4054609239999999,-0.7787717531999999,-1.1483525400000003,-0.10532743359999999,0.01972859384000003,0.0845713048
03:38:19,-0.487670625,-0.66691485,1.58400875,-0.08057555,0.019673775000000004,-0.06078839999999999,1.8363667249999998,-30.95559155,-1.21236395,-149.30749175000003,0.41100962250000006,-0.783324881125,-1.1573213500000001,-0.10650861149999999,0.017375324350000054,0.08545374324999999
03:38:19,-0.48664825,-0.6712178599999999,1.5932101,-0.08303117999999998,0.017665589999999953,-0.05984023999999999,1.8568454099999998,-30.95319478,-1.2049482200000001,-151.05673430000004,0.416558321,-0.7878780090499999,-1.16629016,-0.10768978939999999,0.015022054860000078,0.08633618169999999
03:38:19,-0.485625875,-0.6755208699999999,1.60241145,-0.08548680999999997,0.015657404999999958,-0.058892079999999986,1.8773240949999999,-30.95079801,-1.1975324900000002,-152.80597685,0.42210701949999996,-0.792431136975,-1.1752589700000002,-0.10887096729999998,0.012668785370000046,0.08721862014999998
03:38:19,-0.4846035,-0.6798238799999999,1.6116128,-0.08794244000000001,0.013649219999999962,-0.05794392000000001,1.89780278,-30.948401240000003,-1.19011676,-154.55521940000003,0.4276557179999999,-0.7969842649,-1.18422778,-0.11005214519999998,0.01031551588000007,0.0881010586
03:38:19,-0.483581125,-0.6841268899999999,1.62081415,-0.09039807,0.011641034999999966,-0.056995760000000006,1.918281465,-30.946004470000002,-1.18270103,-156.30446195000005,0.4332044165000001,-0.8015373928249999,-1.1931965900000003,-0.11123332309999998,0.007962246390000038,0.08898349705
03:38:19,-0.48255875000000004,-0.6884298999999999,1.6300155,-0.09285369999999998,0.00963284999999997,-0.0560476,1.93876015,-30.9436077,-1.1752853,-158.0537045,0.438753115,-0.80609052075,-1.2021654000000002,-0.11241450099999997,0.005608976900000062,0.0898659355
03:38:19,-0.481536375,-0.6927329099999999,1.63921685,-0.09530932999999997,0.007624664999999975,-0.05509944,1.959238835,-30.94121093,-1.1678695700000001,-159.80294705000003,0.4443018135,-0.8106436486749999,-1.21113421,-0.11359567889999997,0.0032557074100000305,0.09074837394999999
03:38:19,-0.480514,-0.6970359199999999,1.6484182,-0.09776495999999996,0.005616479999999979,-0.054151279999999996,1.9797175200000001,-30.93881416,-1.1604538400000002,-161.55218960000005,0.4498505119999999,-0.8151967765999999,-1.2201030200000003,-0.11477685679999997,0.0009024379200000543,0.09163081239999998
03:38:19,-0.479491625,-0.7013389299999999,1.6576195500000002,-0.10022059,0.0036082949999999836,-0.05320311999999999,2.000196205,-30.936417390000003,-1.15303811,-163.30143215,0.4553992104999999,-0.819749904525,-1.22907183,-0.11595803469999999,-0.001450831569999922,0.09251325084999998
03:38:19,-0.47846925,-0.7056419399999999,1.6668209,-0.10267621999999998,0.001600109999999988,-0.05225495999999999,2.0206748899999996,-30.934020620000002,-1.14562238,-165.05067470000003,0.46094790900000004,-0.8243030324499999,-1.2380406400000004,-0.11713921259999999,-0.0038041010599999536,0.0933956893
03:38:19,-0.47744687500000005,-0.7099449499999999,1.6760222500000002,-0.10513184999999997,-0.00040807500000000774,-0.051306799999999986,2.041153575,-30.93162385,-1.13820665,-166.79991725000005,0.4664966075,-0.828856160375,-1.2470094500000002,-0.11832039049999998,-0.00615737054999993,0.09427812775
03:38:19,-0.47642450000000003,-0.7142479599999999,1.6852236,-0.10758747999999996,-0.0024162600000000034,-0.05035863999999998,2.0616322600000005,-30.92922708,-1.1307909200000001,-168.5491598,0.47204530599999994,-0.8334092882999999,-1.25597826,-0.11950156839999998,-0.008510640039999962,0.09516056619999999
03:38:19,-0.475402125,-0.7185509699999999,1.6944249500000002,-0.11004311,-0.004424444999999999,-0.04941048000000001,2.082110945,-30.92683031,-1.12337519,-170.29840235000003,0.4775940044999999,-0.8379624162249999,-1.2649470700000003,-0.12068274629999998,-0.010863909529999938,0.09604300464999999
03:38:19,-0.47437975,-0.7228539799999999,1.7036263,-0.11249873999999999,-0.006432629999999995,-0.04846232,2.1025896299999998,-30.924433540000003,-1.11595946,-172.04764490000005,0.48314270300000006,-0.84251554415,-1.2739158800000001,-0.12186392419999997,-0.01321717901999997,0.09692544309999998
03:38:19,-0.47335737499999997,-0.7271569899999999,1.7128276500000001,-0.11495436999999997,-0.008440815000000046,-0.04751416,2.1230683150000003,-30.922036770000002,-1.10854373,-173.79688745,0.4886914015,-0.8470686720749999,-1.28288469,-0.12304510209999997,-0.015570448509999946,0.09780788155
03:38:20,-0.472335,-0.73146,1.722029,-0.11741,-0.010449,-0.046566,2.143547,-30.91964,-1.101128,-175.54613,0.4942401,-0.8516218,-1.2918535,-0.12422628,-0.017923718,0.09869032
03:38:20,-0.47279668,-0.72765909,1.7103215950000001,-0.11688798,-0.01071001,-0.04651273,2.1262231249999997,-30.924976645,-1.07951667,-173.77612135,0.4876041102,-0.84718650416,-1.2812110105,-0.12373298078999999,-0.018125915535000002,0.098375856735
03:38:20,-0.47325836,-0.72385818,1.69861419,-0.11636596,-0.01097102,-0.04645946,2.10889925,-30.93031329,-1.05790534,-172.00611270000002,0.48096812040000003,-0.84275120832,-1.270568521,-0.12323968158,-0.018328113070000002,0.09806139347
03:38:20,-0.47372004,-0.72005727,1.6869067850000001,-0.11584394,-0.01123203,-0.04640619,2.0915753749999997,-30.935649935,-1.0362940100000002,-170.23610405,0.4743321306,-0.83831591248,-1.2599260315,-0.12274638236999999,-0.018530310605000003,0.097746930205
03:38:20,-0.47418172000000003,-0.71625636,1.67519938,-0.11532192,-0.01149304,-0.046352920000000006,2.0742515,-30.94098658,-1.0146826800000002,-168.4660954,0.4676961408,-0.83388061664,-1.249283542,-0.12225308316,-0.018732508140000003,0.09743246694
03:38:20,-0.4746434,-0.71245545,1.6634919750000001,-0.1147999,-0.01175405,-0.046299650000000005,2.0569276249999997,-30.946323225,-0.9930713500000001,-166.69608675,0.46106015100000003,-0.8294453208,-1.2386410525,-0.12175978394999999,-0.018934705675000003,0.097118003675
03:38:20,-0.47510508,-0.7086545399999999,1.65178457,-0.11427788,-0.01201506,-0.046246380000000004,2.03960375,-30.95165987,-0.9714600200000001,-164.9260781,0.4544241612,-0.82501002496,-1.2279985629999999,-0.12126648474,-0.01913690321,0.09680354041
03:38:20,-0.47556676000000003,-0.70485363,1.6400771650000001,-0.11375586,-0.01227607,-0.04619311,2.0222798749999997,-30.956996515,-0.94984869,-163.15606945000002,0.4477881714,-0.82057472912,-1.2173560735,-0.12077318553,-0.019339100745,0.096489077145
03:38:20,-0.47602844,-0.70105272,1.62836976,-0.11323384,-0.012537079999999999,-0.04613984,2.004956,-30.96233316,-0.9282373600000001,-161.3860608,0.4411521816,-0.8161394332799999,-1.206713584,-0.12027988632,-0.01954129828,0.09617461388
03:38:20,-0.47649012,-0.69725181,1.616662355,-0.11271182,-0.01279809,-0.04608657,1.987632125,-30.967669805,-0.9066260300000002,-159.61605215,0.4345161918,-0.81170413744,-1.1960710945,-0.11978658711,-0.019743495815,0.095860150615
03:38:20,-0.4769518,-0.6934509,1.60495495,-0.1121898,-0.0130591,-0.046033300000000006,1.97030825,-30.97300645,-0.8850147000000002,-157.8460435,0.427880202,-0.8072688416,-1.185428605,-0.11929328789999999,-0.01994569335,0.09554568734999999
03:38:20,-0.47741348,-0.68964999,1.593247545,-0.11166778,-0.01332011,-0.045980030000000005,1.9529843749999998,-30.978343095,-0.8634033700000001,-156.07603485,0.4212442122,-0.80283354576,-1.1747861155,-0.11879998869,-0.020147890885000002,0.095231224085
03:38:20,-0.47787516,-0.68584908,1.58154014,-0.11114576,-0.01358112,-0.045926760000000004,1.9356605,-30.98367974,-0.8417920400000001,-154.30602620000002,0.4146082224,-0.79839824992,-1.164143626,-0.11830668947999999,-0.020350088420000002,0.09491676082
03:38:20,-0.47833684,-0.68204817,1.569832735,-0.11062374,-0.01384213,-0.04587349,1.9183366249999998,-30.989016385,-0.8201807100000001,-152.53601755,0.40797223260000004,-0.79396295408,-1.1535011365,-0.11781339027,-0.020552285955000003,0.09460229755499999
03:38:20,-0.47879852,-0.67824726,1.55812533,-0.11010172,-0.01410314,-0.04582022,1.9010127499999998,-30.99435303,-0.7985693800000001,-150.7660089,0.4013362428,-0.7895276582399999,-1.142858647,-0.11732009105999999,-0.020754483490000003,0.09428783429
03:38:20,-0.4792602,-0.67444635,1.546417925,-0.1095797,-0.01436415,-0.04576695,1.8836888749999998,-30.999689675000003,-0.7769580500000002,-148.99600025,0.394700253,-0.7850923624,-1.1322161575,-0.11682679185,-0.020956681025,0.093973371025
03:38:20,-0.47972188,-0.67064544,1.53471052,-0.10905768,-0.01462516,-0.04571368,1.8663649999999998,-31.005026320000002,-0.7553467200000001,-147.22599160000001,0.3880642632,-0.78065706656,-1.121573668,-0.11633349264,-0.02115887856,0.09365890776
03:38:20,-0.48018356,-0.66684453,1.523003115,-0.10853566,-0.01488617,-0.045660410000000005,1.8490411249999998,-31.010362965000002,-0.7337353900000001,-145.45598295,0.3814282734,-0.77622177072,-1.1109311785,-0.11584019342999999,-0.021361076095,0.093344444495
03:38:20,-0.48064524000000003,-0.6630436200000001,1.51129571,-0.10801364,-0.01514718,-0.045607140000000004,1.8317172499999999,-31.015699610000002,-0.7121240600000002,-143.6859743,0.3747922836,-0.77178647488,-1.1002886889999999,-0.11534689422,-0.02156327363,0.09302998123
03:38:20,-0.48110692,-0.65924271,1.499588305,-0.10749162,-0.015408189999999999,-0.04555387,1.8143933749999999,-31.021036255000002,-0.6905127300000001,-141.91596565,0.36815629380000003,-0.7673511790399999,-1.0896461995,-0.11485359500999999,-0.021765471165,0.092715517965
03:38:20,-0.4815686,-0.6554418,1.4878809,-0.1069696,-0.0156692,-0.0455006,1.7970694999999999,-31.026372900000002,-0.6689014000000002,-140.145957,0.361520304,-0.7629158832,-1.0790037099999998,-0.1143602958,-0.0219676687,0.0924010547
03:38:20,-0.48203028000000003,-0.65164089,1.476173495,-0.10644758,-0.01593021,-0.04544733,1.7797456249999999,-31.031709545000002,-0.6472900700000002,-138.37594835,0.3548843142,-0.75848058736,-1.0683612205,-0.11386699658999999,-0.022169866235000002,0.092086591435
03:38:20,-0.48249196,-0.64783998,1.4644660900000002,-0.10592556,-0.01619122,-0.04539406,1.76242175,-31.03704619,-0.6256787400000001,-136.6059397,0.3482483244,-0.75404529152,-1.057718731,-0.11337369738,-0.022372063770000002,0.09177212817
03:38:20,-0.48295364,-0.64403907,1.452758685,-0.10540354,-0.016452229999999998,-0.045340790000000006,1.745097875,-31.042382835,-0.6040674100000001,-134.83593105,0.3416123346,-0.74960999568,-1.0470762415,-0.11288039817,-0.022574261305000003,0.091457664905
03:38:20,-0.48341532,-0.64023816,1.44105128,-0.10488152,-0.01671324,-0.045287520000000005,1.727774,-31.04771948,-0.5824560800000002,-133.0659224,0.3349763448,-0.74517469984,-1.036433752,-0.11238709895999999,-0.02277645884,0.09114320164
03:38:20,-0.483877,-0.63643725,1.429343875,-0.1043595,-0.01697425,-0.045234250000000004,1.710450125,-31.053056125,-0.5608447500000001,-131.29591375,0.32834035500000003,-0.7407394039999999,-1.0257912624999999,-0.11189379975,-0.022978656375000003,0.090828738375
03:38:20,-0.48433868,-0.63263634,1.4176364700000001,-0.10383748,-0.01723526,-0.04518098,1.69312625,-31.05839277,-0.5392334200000002,-129.5259051,0.3217043652,-0.73630410816,-1.015148773,-0.11140050053999999,-0.02318085391,0.09051427511
03:38:20,-0.48480036,-0.62883543,1.405929065,-0.10331546,-0.01749627,-0.04512771,1.675802375,-31.063729415,-0.5176220900000001,-127.75589645,0.3150683754,-0.73186881232,-1.0045062835,-0.11090720133,-0.023383051445,0.090199811845
03:38:20,-0.48526204,-0.62503452,1.3942216600000001,-0.10279344,-0.01775728,-0.04507444,1.6584785,-31.06906606,-0.4960107600000001,-125.9858878,0.30843238559999997,-0.72743351648,-0.9938637939999999,-0.11041390211999999,-0.02358524898,0.08988534858
03:38:20,-0.48572372,-0.62123361,1.382514255,-0.10227142,-0.01801829,-0.04502117,1.641154625,-31.074402705,-0.4743994300000002,-124.21587915,0.3017963958,-0.72299822064,-0.9832213045,-0.10992060291,-0.023787446515,0.089570885315
03:38:20,-0.4861854,-0.6174327,1.3708068500000001,-0.1017494,-0.0182793,-0.044967900000000005,1.6238307499999998,-31.07973935,-0.45278810000000014,-122.44587050000001,0.29516040600000004,-0.7185629248000001,-0.9725788149999999,-0.10942730369999999,-0.02398964405,0.08925642205
03:38:20,-0.48664708,-0.61363179,1.359099445,-0.10122738,-0.018540309999999997,-0.044914630000000004,1.606506875,-31.085075995,-0.4311767700000002,-120.67586185,0.2885244162,-0.71412762896,-0.9619363255,-0.10893400448999999,-0.024191841585000002,0.088941958785
03:38:20,-0.48710876000000003,-0.60983088,1.3473920400000001,-0.10070536,-0.01880132,-0.04486136,1.5891829999999998,-31.09041264,-0.40956544000000017,-118.9058532,0.2818884264,-0.70969233312,-0.951293836,-0.10844070528,-0.024394039120000002,0.08862749552
03:38:20,-0.48757044,-0.60602997,1.335684635,-0.10018334,-0.019062330000000002,-0.04480809,1.571859125,-31.095749285,-0.38795411000000013,-117.13584455,0.2752524366,-0.70525703728,-0.9406513464999999,-0.10794740607,-0.024596236655000003,0.08831303225499999
03:38:20,-0.48803212,-0.60222906,1.3239772300000001,-0.09966132,-0.01932334,-0.04475482,1.5545352499999998,-31.10108593,-0.3663427800000002,-115.36583590000001,0.26861644679999996,-0.70082174144,-0.930008857,-0.10745410686,-0.024798434190000003,0.08799856899
03:38:20,-0.48849380000000003,-0.5984281499999999,1.312269825,-0.0991393,-0.01958435,-0.04470155,1.537211375,-31.106422575,-0.34473145000000016,-113.59582725,0.261980457,-0.6963864456,-0.9193663674999999,-0.10696080764999999,-0.025000631725,0.087684105725
03:38:20,-0.48895548,-0.59462724,1.30056242,-0.09861728,-0.01984536,-0.044648280000000005,1.5198874999999998,-31.11175922,-0.32312012000000023,-111.8258186,0.25534446720000004,-0.6919511497599999,-0.908723878,-0.10646750844,-0.02520282926,0.08736964246
03:38:20,-0.48941716,-0.59082633,1.288855015,-0.09809526,-0.02010637,-0.044595010000000004,1.502563625,-31.117095865,-0.3015087900000002,-110.05580995,0.2487084774,-0.68751585392,-0.8980813885,-0.10597420922999999,-0.025405026795,0.087055179195
03:38:20,-0.48987884000000004,-0.58702542,1.27714761,-0.09757324,-0.020367379999999997,-0.04454174,1.4852397499999999,-31.12243251,-0.27989746000000015,-108.2858013,0.2420724876,-0.68308055808,-0.887438899,-0.10548091001999998,-0.02560722433,0.08674071593
03:38:20,-0.49034052,-0.58322451,1.265440205,-0.09705122,-0.02062839,-0.04448847,1.4679158749999999,-31.127769155,-0.2582861300000002,-106.51579265000001,0.23543649779999998,-0.67864526224,-0.8767964094999999,-0.10498761080999999,-0.025809421865,0.086426252665
03:38:20,-0.4908022,-0.5794235999999999,1.2537328,-0.09652920000000001,-0.0208894,-0.0444352,1.4505919999999999,-31.1331058,-0.23667480000000019,-104.745784,0.228800508,-0.6742099664,-0.8661539199999999,-0.1044943116,-0.0260116194,0.0861117894
03:38:20,-0.49126388,-0.57562269,1.2420253950000002,-0.09600718,-0.02115041,-0.04438193,1.433268125,-31.138442445,-0.21506347000000015,-102.97577535,0.2221645182,-0.66977467056,-0.8555114305,-0.10400101239,-0.026213816935000002,0.085797326135
03:38:20,-0.49172556,-0.5718217800000001,1.23031799,-0.09548516,-0.02141142,-0.044328660000000006,1.41594425,-31.14377909,-0.19345214000000022,-101.2057667,0.21552852839999997,-0.66533937472,-0.8448689409999999,-0.10350771317999999,-0.02641601447,0.08548286287
03:38:20,-0.49218724,-0.56802087,1.218610585,-0.09496314,-0.02167243,-0.044275390000000005,1.398620375,-31.149115735000002,-0.17184081000000018,-99.43575805,0.2088925386,-0.66090407888,-0.8342264515,-0.10301441397,-0.026618212005000003,0.085168399605
03:38:20,-0.49264892,-0.56421996,1.20690318,-0.09444112,-0.02193344,-0.044222120000000004,1.3812965,-31.154452380000002,-0.15022948000000014,-97.6657494,0.2022565488,-0.65646878304,-0.823583962,-0.10252111475999999,-0.02682040954,0.08485393633999999
03:38:20,-0.4931106,-0.56041905,1.1951957750000002,-0.0939191,-0.022194449999999998,-0.04416885,1.363972625,-31.159789025000002,-0.1286181500000002,-95.89574075,0.19562055899999997,-0.6520334872,-0.8129414724999999,-0.10202781555,-0.027022607075000003,0.084539473075
03:38:20,-0.49357228000000003,-0.55661814,1.18348837,-0.09339708,-0.02245546,-0.04411558,1.34664875,-31.165125670000002,-0.10700682000000017,-94.12573210000001,0.1889845692,-0.64759819136,-0.8022989829999999,-0.10153451633999999,-0.02722480461,0.08422500981
03:38:20,-0.49403396,-0.55281723,1.171780965,-0.09287506000000001,-0.02271647,-0.04406231,1.329324875,-31.170462315,-0.08539549000000024,-92.35572345,0.1823485794,-0.6431628955199999,-0.7916564934999999,-0.10104121713,-0.027427002145,0.08391054654499999
03:38:20,-0.49449564,-0.54901632,1.16007356,-0.09235304,-0.02297748,-0.04400904,1.312001,-31.17579896,-0.0637841600000002,-90.5857148,0.17571258959999997,-0.6387275996799999,-0.781014004,-0.10054791792,-0.02762919968,0.08359608328
03:38:20,-0.49495732000000003,-0.54521541,1.1483661550000002,-0.09183102,-0.02323849,-0.043955770000000005,1.2946771249999998,-31.181135605,-0.04217283000000016,-88.81570615,0.1690765998,-0.63429230384,-0.7703715145,-0.10005461870999999,-0.027831397215,0.083281620015
03:38:20,-0.495419,-0.5414145,1.13665875,-0.091309,-0.0234995,-0.043902500000000004,1.27735325,-31.18647225,-0.02056150000000012,-87.0456975,0.16244060999999999,-0.629857008,-0.759729025,-0.0995613195,-0.02803359475,0.08296715674999999
03:38:20,-0.49588068,-0.53761359,1.124951345,-0.09078698,-0.02376051,-0.04384923,1.2600293749999998,-31.191808895,0.0010498299999996963,-85.27568885,0.15580462020000002,-0.62542171216,-0.7490865354999999,-0.09906802028999999,-0.028235792285000002,0.082652693485
03:38:20,-0.49634236,-0.53381268,1.11324394,-0.09026496,-0.024021519999999998,-0.04379596,1.2427055,-31.19714554,0.022661159999999736,-83.5056802,0.1491686304,-0.62098641632,-0.7384440459999999,-0.09857472108,-0.028437989820000002,0.08233823022
03:38:20,-0.49680404,-0.53001177,1.1015365350000001,-0.08974294,-0.02428253,-0.04374269,1.2253816249999998,-31.202482185,0.044272489999999776,-81.73567155,0.14253264059999998,-0.61655112048,-0.7278015564999999,-0.09808142186999999,-0.028640187355,0.082023766955
03:38:20,-0.49726572,-0.52621086,1.08982913,-0.08922092000000001,-0.02454354,-0.04368942,1.20805775,-31.20781883,0.06588381999999982,-79.9656629,0.13589665080000002,-0.61211582464,-0.7171590669999999,-0.09758812266,-0.028842384890000003,0.08170930369
03:38:20,-0.4977274,-0.52240995,1.0781217250000001,-0.0886989,-0.02480455,-0.043636150000000005,1.1907338749999998,-31.213155475,0.08749514999999985,-78.19565425,0.129260661,-0.6076805288,-0.7065165775,-0.09709482344999999,-0.029044582425,0.081394840425
03:38:20,-0.49818908,-0.51860904,1.0664143200000002,-0.08817688,-0.02506556,-0.043582880000000004,1.17341,-31.21849212,0.1091064799999999,-76.4256456,0.12262467119999998,-0.60324523296,-0.695874088,-0.09660152423999999,-0.029246779960000004,0.08108037716
03:38:20,-0.49865076,-0.51480813,1.0547069150000001,-0.08765486,-0.02532657,-0.04352961,1.1560861249999999,-31.223828765,0.1307178099999997,-74.65563695,0.11598868140000002,-0.59880993712,-0.6852315984999999,-0.09610822503,-0.029448977495,0.080765913895
03:38:20,-0.49911244,-0.51100722,1.04299951,-0.08713284,-0.02558758,-0.04347634,1.1387622499999999,-31.22916541,0.15232913999999975,-72.88562830000001,0.1093526916,-0.59437464128,-0.6745891089999999,-0.09561492582,-0.02965117503,0.08045145063
03:38:20,-0.49957412,-0.5072063099999999,1.0312921050000001,-0.08661082,-0.025848589999999998,-0.04342307,1.1214383749999999,-31.234502055,0.1739404699999998,-71.11561965,0.10271670179999998,-0.5899393454399999,-0.6639466194999999,-0.09512162661,-0.029853372565,0.080136987365
03:38:20,-0.5000358,-0.5034054,1.0195847000000002,-0.0860888,-0.0261096,-0.0433698,1.1041144999999999,-31.2398387,0.19555179999999983,-69.345611,0.09608071200000001,-0.5855040496,-0.6533041299999999,-0.09462832739999999,-0.0300555701,0.0798225241
03:38:20,-0.50049748,-0.49960448999999996,1.0078772950000001,-0.08556678000000001,-0.02637061,-0.043316530000000006,1.086790625,-31.245175345,0.21716312999999987,-67.57560235,0.0894447222,-0.58106875376,-0.6426616405,-0.09413502819,-0.030257767635000002,0.079508060835
03:38:20,-0.50095916,-0.49580358,0.9961698900000001,-0.08504476,-0.026631619999999998,-0.043263260000000005,1.06946675,-31.25051199,0.2387744599999997,-65.8055937,0.08280873239999997,-0.57663345792,-0.632019151,-0.09364172897999999,-0.03045996517,0.07919359757
03:38:20,-0.50142084,-0.49200267,0.9844624850000001,-0.08452274,-0.02689263,-0.043209990000000004,1.052142875,-31.255848635,0.26038578999999973,-64.03558505,0.07617274260000001,-0.5721981620800001,-0.6213766614999999,-0.09314842976999999,-0.030662162705000003,0.078879134305
03:38:20,-0.50188252,-0.48820176,0.9727550800000001,-0.08400072,-0.02715364,-0.04315672,1.034819,-31.26118528,0.28199711999999977,-62.2655764,0.06953675279999999,-0.56776286624,-0.6107341719999999,-0.09265513055999999,-0.03086436024,0.07856467104
03:38:20,-0.5023442,-0.48440085,0.9610476750000001,-0.0834787,-0.02741465,-0.04310345,1.017495125,-31.266521925,0.3036084499999998,-60.495567750000006,0.06290076299999997,-0.5633275704,-0.6000916824999999,-0.09216183135,-0.031066557775000003,0.078250207775
03:38:20,-0.50280588,-0.48059994,0.9493402700000001,-0.08295668,-0.02767566,-0.04305018,1.00017125,-31.27185857,0.32521977999999985,-58.7255591,0.05626477320000001,-0.55889227456,-0.5894491929999999,-0.09166853214,-0.03126875531,0.07793574451
03:38:20,-0.5032675600000001,-0.47679902999999996,0.9376328650000001,-0.08243465999999999,-0.02793667,-0.04299691,0.982847375,-31.277195215,0.34683110999999966,-56.955550450000004,0.04962878339999999,-0.55445697872,-0.5788067034999999,-0.09117523292999999,-0.031470952845,0.077621281245
03:38:20,-0.50372924,-0.47299811999999997,0.9259254600000001,-0.08191264000000001,-0.02819768,-0.042943640000000005,0.9655235,-31.28253186,0.3684424399999997,-55.185541799999996,0.04299279359999997,-0.55002168288,-0.568164214,-0.09068193372,-0.03167315038,0.07730681798
03:38:20,-0.50419092,-0.46919721,0.9142180550000001,-0.08139062,-0.02845869,-0.042890370000000004,0.948199625,-31.287868505,0.39005376999999974,-53.41553315,0.036356803800000004,-0.54558638704,-0.5575217244999999,-0.09018863450999999,-0.031875347915000005,0.076992354715
03:38:20,-0.5046526,-0.4653963,0.9025106500000001,-0.0808686,-0.0287197,-0.0428371,0.93087575,-31.29320515,0.4116650999999998,-51.64552449999999,0.029720813999999984,-0.5411510911999999,-0.5468792349999999,-0.08969533529999998,-0.03207754545,0.07667789145000001
03:38:20,-0.50511428,-0.46159539,0.8908032450000001,-0.08034658,-0.02898071,-0.04278383,0.913551875,-31.298541795,0.4332764299999998,-49.87551585,0.023084824199999965,-0.53671579536,-0.5362367454999999,-0.08920203608999999,-0.032279742985,0.076363428185
03:38:20,-0.50557596,-0.45779448,0.8790958400000001,-0.07982456,-0.02924172,-0.04273056,0.896228,-31.303878440000002,0.45488775999999964,-48.105507200000005,0.0164488344,-0.53228049952,-0.5255942559999999,-0.08870873688,-0.03248194052,0.07604896492
03:38:20,-0.50603764,-0.45399356999999996,0.8673884350000001,-0.07930254,-0.02950273,-0.04267729,0.878904125,-31.309215085,0.4764990899999997,-46.33549855000001,0.009812844599999981,-0.52784520368,-0.5149517664999999,-0.08821543767,-0.032684138055,0.075734501655
03:38:20,-0.50649932,-0.45019265999999997,0.8556810300000001,-0.07878051999999999,-0.02976374,-0.04262402,0.86158025,-31.31455173,0.4981104199999997,-44.56548989999999,0.003176854799999962,-0.5234099078400001,-0.504309277,-0.08772213845999999,-0.03288633559,0.07542003839
03:38:20,-0.506961,-0.44639175,0.8439736250000002,-0.07825850000000001,-0.03002475,-0.042570750000000004,0.8442563749999998,-31.319888375,0.5197217499999998,-42.795481249999995,-0.003459135000000002,-0.5189746120000001,-0.4936667874999999,-0.08722883925,-0.033088533125,0.075105575125
03:38:20,-0.50742268,-0.44259084,0.8322662200000002,-0.07773648,-0.03028576,-0.04251748,0.8269324999999998,-31.32522502,0.5413330799999998,-41.0254726,-0.010095124800000022,-0.51453931616,-0.4830242979999999,-0.08673554003999999,-0.033290730660000004,0.07479111186
03:38:20,-0.50788436,-0.43878993,0.8205588150000002,-0.07721446,-0.03054677,-0.04246421,0.8096086249999999,-31.330561665,0.5629444099999998,-39.255463950000006,-0.01673111460000004,-0.51010402032,-0.4723818084999999,-0.08624224082999998,-0.033492928195,0.074476648595
03:38:20,-0.50834604,-0.43498902,0.8088514100000002,-0.07669244,-0.03080778,-0.04241094,0.7922847499999999,-31.33589831,0.5845557399999997,-37.48545530000001,-0.02336710440000006,-0.50566872448,-0.46173931899999987,-0.08574894161999999,-0.03369512573,0.07416218532999999
03:38:20,-0.50880772,-0.43118810999999996,0.7971440050000002,-0.07617042,-0.03106879,-0.04235767,0.7749608749999999,-31.341234955,0.6061670699999997,-35.71544664999999,-0.03000309419999997,-0.50123342864,-0.45109682949999985,-0.08525564241,-0.033897323265,0.073847722065
03:38:20,-0.5092694,-0.42738719999999997,0.7854366000000002,-0.0756484,-0.0313298,-0.0423044,0.7576369999999999,-31.3465716,0.6277783999999997,-33.945437999999996,-0.03663908399999999,-0.4967981328,-0.44045433999999983,-0.08476234319999999,-0.034099520800000005,0.0735332588
03:38:20,-0.50973108,-0.42358629,0.7737291950000001,-0.07512637999999999,-0.03159081,-0.042251130000000005,0.7403131249999999,-31.351908245,0.6493897299999998,-32.17542935,-0.04327507380000001,-0.49236283696,-0.4298118504999999,-0.08426904398999999,-0.034301718335,0.07321879553499999
03:38:20,-0.51019276,-0.41978538,0.7620217900000001,-0.07460436000000001,-0.03185182,-0.042197860000000004,0.7229892499999999,-31.35724489,0.6710010599999998,-30.405420700000008,-0.04991106360000003,-0.48792754112,-0.4191693609999999,-0.08377574478,-0.03450391587,0.07290433227
03:38:20,-0.51065444,-0.41598447,0.7503143850000001,-0.07408234,-0.032112829999999995,-0.04214459,0.7056653749999999,-31.362581535,0.6926123899999996,-28.635412049999985,-0.05654705340000005,-0.48349224528,-0.4085268714999999,-0.08328244557,-0.034706113405,0.072589869005
03:38:20,-0.5111161200000001,-0.41218356,0.7386069800000001,-0.07356032,-0.03237384,-0.04209132,0.6883414999999999,-31.36791818,0.7142237199999997,-26.86540339999999,-0.06318304320000007,-0.47905694944,-0.39788438199999987,-0.08278914636,-0.03490831094,0.07227540573999999
03:38:20,-0.5115778,-0.40838264999999996,0.7268995750000001,-0.0730383,-0.03263485,-0.04203805,0.671017625,-31.373254825,0.7358350499999997,-25.095394749999997,-0.06981903299999997,-0.4746216536,-0.38724189249999985,-0.08229584714999999,-0.035110508474999996,0.071960942475
03:38:20,-0.51203948,-0.40458173999999997,0.7151921700000001,-0.07251628,-0.03289586,-0.04198478,0.65369375,-31.37859147,0.7574463799999998,-23.325386100000003,-0.0764550228,-0.47018635776,-0.37659940299999983,-0.08180254794,-0.03531270601,0.07164647921
03:38:20,-0.51250116,-0.40078083,0.7034847650000002,-0.07199426,-0.03315687,-0.041931510000000005,0.636369875,-31.383928115,0.7790577099999998,-21.55537745000001,-0.08309101260000001,-0.46575106192,-0.3659569134999999,-0.08130924872999999,-0.035514903545000004,0.071332015945
03:38:20,-0.51296284,-0.39697992,0.6917773600000001,-0.07147223999999999,-0.03341788,-0.041878240000000004,0.619046,-31.38926476,0.8006690399999998,-19.785368799999986,-0.08972700240000003,-0.46131576608,-0.3553144239999999,-0.08081594951999999,-0.03571710108,0.07101755268
03:38:20,-0.51342452,-0.39317901,0.6800699550000002,-0.07095022000000001,-0.03367889,-0.04182497,0.601722125,-31.394601405,0.8222803699999996,-18.015360149999992,-0.09636299220000005,-0.45688047024,-0.3446719344999999,-0.08032265031,-0.035919298615,0.070703089415
03:38:20,-0.5138862,-0.3893781,0.6683625500000001,-0.0704282,-0.033939899999999995,-0.0417717,0.58439825,-31.39993805,0.8438916999999997,-16.245351499999998,-0.10299898200000007,-0.4524451744,-0.33402944499999987,-0.0798293511,-0.03612149615,0.07038862615
03:38:20,-0.51434788,-0.38557718999999996,0.6566551450000002,-0.06990618,-0.03420091,-0.04171843,0.567074375,-31.405274695,0.8655030299999997,-14.475342850000004,-0.10963497179999998,-0.44800987856,-0.32338695549999985,-0.07933605189,-0.036323693685000005,0.070074162885
03:38:20,-0.51480956,-0.38177627999999997,0.6449477400000001,-0.06938416,-0.03446192,-0.04166516,0.5497505,-31.41061134,0.8871143599999998,-12.70533420000001,-0.1162709616,-0.44357458272,-0.31274446599999983,-0.07884275267999999,-0.03652589122,0.06975969962
03:38:20,-0.51527124,-0.37797537,0.6332403350000002,-0.06886214,-0.03472293,-0.04161189,0.532426625,-31.415947985,0.9087256899999998,-10.935325549999988,-0.12290695140000002,-0.43913928688,-0.3021019764999999,-0.07834945347,-0.036728088755,0.069445236355
03:38:20,-0.51573292,-0.37417446,0.6215329300000001,-0.06834012,-0.03498394,-0.041558620000000004,0.51510275,-31.42128463,0.9303370199999996,-9.165316899999993,-0.12954294120000004,-0.43470399104,-0.2914594869999998,-0.07785615425999999,-0.03693028629,0.06913077309
03:38:20,-0.5161946000000001,-0.37037355,0.6098255250000002,-0.06781809999999999,-0.03524495,-0.04150535,0.49777887500000007,-31.426621275,0.9519483499999999,-7.395308249999999,-0.13617893100000006,-0.4302686952,-0.2808169974999999,-0.07736285504999998,-0.037132483825,0.068816309825
03:38:20,-0.51665628,-0.36657264,0.5981181200000001,-0.06729608000000001,-0.03550596,-0.04145208,0.4804550000000001,-31.43195792,0.9735596799999997,-5.625299600000005,-0.14281492080000008,-0.42583339936,-0.270174508,-0.07686955583999999,-0.03733468136,0.06850184656
03:38:20,-0.51711796,-0.36277172999999996,0.5864107150000002,-0.06677406,-0.035766969999999995,-0.04139881,0.46313112499999987,-31.437294565,0.9951710099999995,-3.855290950000011,-0.1494509106,-0.42139810352,-0.25953201849999985,-0.07637625663,-0.037536878895,0.068187383295
03:38:20,-0.51757964,-0.35897081999999997,0.5747033100000001,-0.06625204,-0.03602798,-0.04134554,0.4458072499999999,-31.44263121,1.0167823399999998,-2.0852822999999887,-0.1560869004,-0.41696280768,-0.24888952899999994,-0.07588295742,-0.037739076430000004,0.06787292003
03:38:20,-0.51804132,-0.35516991,0.5629959050000002,-0.06573002,-0.03628899,-0.04129227,0.4284833749999999,-31.447967854999998,1.0383936699999996,-0.31527364999999463,-0.16272289020000003,-0.41252751184,-0.2382470394999998,-0.07538965820999999,-0.037941273965,0.067558456765
03:38:20,-0.518503,-0.351369,0.5512885000000001,-0.065208,-0.03655,-0.041239,0.4111594999999999,-31.4533045,1.0600049999999999,1.4547349999999994,-0.16935888000000004,-0.408092216,-0.2276045499999999,-0.074896359,-0.0381434715,0.0672439935
03:38:20,-0.5189646800000001,-0.34756809,0.5395810950000002,-0.06468598,-0.03681101,-0.041185730000000004,0.3938356249999999,-31.458641145,1.0816163299999997,3.2247436499999935,-0.17599486980000006,-0.40365692016,-0.21696206049999978,-0.07440305978999999,-0.038345669035,0.066929530235
03:38:20,-0.51942636,-0.34376717999999995,0.5278736900000001,-0.06416395999999999,-0.03707202,-0.04113246,0.3765117499999999,-31.46397779,1.1032276599999995,4.994752300000016,-0.18263085959999997,-0.39922162432,-0.20631957099999987,-0.07390976057999998,-0.038547866570000006,0.06661506697
03:38:20,-0.51988804,-0.33996626999999996,0.5161662850000002,-0.06364194000000001,-0.03733303,-0.04107919,0.35918787499999993,-31.469314435,1.1248389899999998,6.76476095000001,-0.1892668494,-0.39478632848,-0.19567708149999996,-0.07341646136999999,-0.038750064105,0.066300603705
03:38:20,-0.52034972,-0.33616535999999997,0.50445888,-0.06311992,-0.037594039999999995,-0.04102592,0.34186399999999995,-31.47465108,1.1464503199999996,8.534769600000004,-0.1959028392,-0.39035103264,-0.18503459199999983,-0.07292316216,-0.03895226164,0.06598614044000001
03:38:20,-0.5208114,-0.33236445,0.49275147500000016,-0.0625979,-0.03785505,-0.04097265,0.32454012499999996,-31.479987725,1.1680616499999998,10.304778249999998,-0.20253882900000003,-0.3859157368,-0.17439210249999992,-0.07242986294999999,-0.039154459175,0.065671677175
03:38:20,-0.52127308,-0.32856354,0.48104407000000005,-0.06207588,-0.03811606,-0.040919380000000005,0.30721624999999997,-31.48532437,1.1896729799999997,12.074786899999992,-0.20917481880000005,-0.38148044096,-0.1637496129999998,-0.07193656373999999,-0.03935665671,0.06535721390999999
03:38:20,-0.52173476,-0.32476263,0.46933666500000015,-0.06155386,-0.03837707,-0.040866110000000004,0.289892375,-31.490661015,1.2112843099999995,13.844795550000015,-0.21581080860000007,-0.37704514512,-0.1531071234999999,-0.07144326453,-0.039558854245,0.06504275064500001
03:38:20,-0.52219644,-0.32096171999999995,0.45762926000000026,-0.061031840000000004,-0.03863808,-0.04081284,0.2725685,-31.49599766,1.2328956399999997,15.614804200000009,-0.22244679839999998,-0.37260984928,-0.14246463399999976,-0.07094996531999999,-0.03976105178,0.06472828738
03:38:20,-0.52265812,-0.31716080999999996,0.44592185500000014,-0.06050982,-0.03889909,-0.04075957,0.255244625,-31.501334305,1.2545069699999996,17.384812850000003,-0.2290827882,-0.36817455344,-0.13182214449999985,-0.07045666610999998,-0.039963249315000005,0.06441382411499999
03:38:20,-0.5231198,-0.31335989999999997,0.43421445000000025,-0.0599878,-0.0391601,-0.0407063,0.23792075000000001,-31.50667095,1.2761182999999998,19.154821499999997,-0.23571877800000002,-0.36373925760000003,-0.12117965499999994,-0.06996336689999999,-0.04016544685,0.06409936085000001
03:38:20,-0.52358148,-0.30955899,0.42250704500000014,-0.05946578,-0.039421109999999995,-0.04065303,0.22059687500000003,-31.512007595,1.2977296299999996,20.92483014999999,-0.24235476780000004,-0.35930396176,-0.11053716549999981,-0.06947006769,-0.040367644385,0.063784897585
03:38:20,-0.5240431600000001,-0.30575808,0.41079964000000024,-0.05894376,-0.03968212,-0.04059976,0.20327300000000004,-31.51734424,1.31934096,22.694838800000014,-0.24899075760000006,-0.35486866592,-0.0998946759999999,-0.06897676847999999,-0.04056984192,0.06347043431999999
03:38:20,-0.52450484,-0.30195717,0.39909223500000013,-0.05842174,-0.03994313,-0.040546490000000004,0.18594912500000005,-31.522680885,1.3409522899999997,24.464847450000008,-0.2556267474000001,-0.35043337008,-0.08925218649999977,-0.06848346926999999,-0.040772039455000006,0.06315597105500001
03:38:20,-0.52496652,-0.29815625999999995,0.38738483000000024,-0.05789972,-0.04020414,-0.04049322,0.16862525000000006,-31.52801753,1.3625636199999995,26.234856100000002,-0.2622627372,-0.34599807423999995,-0.07860969699999987,-0.06799017006,-0.040974236989999996,0.06284150779
03:38:20,-0.5254282,-0.29435534999999996,0.3756774250000001,-0.057377700000000004,-0.04046515,-0.04043995,0.15130137500000007,-31.533354175,1.3841749499999998,28.004864749999996,-0.268898727,-0.34156277840000004,-0.06796720749999974,-0.06749687085,-0.041176434525,0.06252704452499999
03:38:20,-0.52588988,-0.29055443999999997,0.3639700200000002,-0.05685568,-0.04072616,-0.04038668,0.13397749999999986,-31.53869082,1.4057862799999996,29.77487339999999,-0.2755347168,-0.33712748256,-0.05732471799999983,-0.06700357164,-0.041378632060000003,0.06221258126
03:38:20,-0.52635156,-0.28675353,0.3522626150000001,-0.05633366,-0.04098717,-0.04033341,0.1166536250000001,-31.544027465,1.4273976099999999,31.544882050000012,-0.28217070660000004,-0.33269218672,-0.04668222849999992,-0.06651027242999999,-0.041580829595,0.061898117995
03:38:20,-0.5268132400000001,-0.28295262,0.3405552100000002,-0.05581164,-0.041248179999999995,-0.04028014,0.09932974999999988,-31.54936411,1.4490089399999997,33.31489070000001,-0.28880669640000006,-0.32825689088,-0.03603973899999979,-0.06601697322,-0.04178302713,0.06158365473
03:38:20,-0.52727492,-0.27915171,0.3288478050000001,-0.055289620000000005,-0.04150919,-0.04022687,0.08200587500000012,-31.554700755,1.4706202699999995,35.08489935,-0.2954426862000001,-0.32382159503999997,-0.025397249499999885,-0.06552367400999999,-0.041985224665,0.061269191465
03:38:20,-0.5277366,-0.27535079999999995,0.3171404000000002,-0.0547676,-0.0417702,-0.040173600000000004,0.0646819999999999,-31.5600374,1.4922315999999998,36.854907999999995,-0.302078676,-0.31938629920000006,-0.014754759999999756,-0.06503037479999998,-0.042187422200000005,0.0609547282
03:38:20,-0.52819828,-0.27154988999999996,0.3054329950000001,-0.05424558,-0.04203121,-0.04012033,0.04735812500000014,-31.565374045,1.5138429299999996,38.62491665000002,-0.3087146658,-0.31495100336000004,-0.004112270499999848,-0.06453707558999999,-0.042389619735,0.060640264935
03:38:20,-0.52865996,-0.26774897999999997,0.2937255900000002,-0.053723560000000004,-0.04229222,-0.04006706,0.03003424999999993,-31.57071069,1.5354542599999998,40.39492530000001,-0.31535065560000003,-0.31051570752,0.006530219000000059,-0.06404377638,-0.04259181727,0.06032580167
03:38:20,-0.5291216400000001,-0.26394807,0.2820181850000001,-0.053201540000000005,-0.04255323,-0.04001379,0.012710375000000163,-31.576047335,1.5570655899999997,42.164933950000005,-0.32198664540000005,-0.30608041168,0.01717270850000019,-0.06355047717,-0.042794014805,0.060011338405
03:38:20,-0.52958332,-0.26014716,0.2703107800000002,-0.05267952000000001,-0.042814239999999996,-0.03996052,-0.004613500000000048,-31.58138398,1.5786769199999995,43.9349426,-0.32862263520000007,-0.30164511584,0.027815198000000096,-0.06305717795999999,-0.04299621234,0.05969687514
03:38:20,-0.530045,-0.25634625,0.2586033750000001,-0.052157499999999996,-0.04307525,-0.03990725,-0.021937374999999815,-31.586720624999998,1.6002882499999997,45.70495124999999,-0.3352586250000001,-0.29720981999999996,0.038457687500000226,-0.06256387875,-0.043198409874999996,0.059382411875
03:38:20,-0.53050668,-0.25254533999999995,0.2468959700000002,-0.05163548,-0.04333626,-0.039853980000000004,-0.039261250000000025,-31.592057269999998,1.6218995799999996,47.474959900000016,-0.3418946148,-0.29277452416000005,0.049100177000000134,-0.06207057953999999,-0.04340060741,0.05906794861
03:38:20,-0.53096836,-0.24874442999999996,0.23518856500000007,-0.05111346,-0.04359727,-0.03980071,-0.05658512499999979,-31.597393914999998,1.6435109099999998,49.24496855000001,-0.3485306046,-0.28833922832000003,0.05974266650000026,-0.06157728033,-0.043602804945000004,0.058753485345
03:38:20,-0.53143004,-0.24494351999999997,0.22348116000000018,-0.05059144,-0.04385828,-0.03974744,-0.073909,-31.602730559999998,1.6651222399999996,51.014977200000004,-0.35516659440000004,-0.28390393248,0.07038515600000017,-0.06108398111999999,-0.04380500248,0.05843902208
03:38:20,-0.5318917200000001,-0.24114260999999998,0.21177375500000029,-0.05006942,-0.04411929,-0.03969417,-0.09123287500000021,-31.608067204999998,1.6867335699999995,52.78498585,-0.36180258420000005,-0.27946863664,0.08102764550000008,-0.060590681909999985,-0.044007200015,0.058124558815
03:38:20,-0.5323534,-0.2373417,0.20006635000000017,-0.049547400000000005,-0.0443803,-0.0396409,-0.10855674999999998,-31.61340385,1.7083448999999997,54.55499449999999,-0.3684385740000001,-0.27503334079999997,0.09167013500000021,-0.06009738269999999,-0.04420939755,0.05781009555
03:38:20,-0.53281508,-0.23354078999999994,0.18835894500000028,-0.04902538000000001,-0.04464131,-0.03958763,-0.1258806250000002,-31.618740495,1.7299562299999995,56.325003150000015,-0.3750745638,-0.27059804496000006,0.10231262450000012,-0.05960408348999999,-0.044411595085000005,0.057495632285
03:38:20,-0.53327676,-0.22973988,0.17665154000000016,-0.048503359999999995,-0.04490232,-0.039534360000000004,-0.14320449999999996,-31.62407714,1.7515675599999998,58.09501180000001,-0.3817105536,-0.26616274912000004,0.11295511400000025,-0.059110784279999995,-0.04461379262,0.05718116902
03:38:20,-0.53373844,-0.22593896999999996,0.16494413500000027,-0.04798134,-0.04516333,-0.03948109,-0.16052837500000017,-31.629413785,1.7731788899999996,59.86502045,-0.3883465434,-0.26172745328,0.12359760350000015,-0.05861748506999999,-0.044815990155,0.056866705755
03:38:20,-0.5342001200000001,-0.22213805999999992,0.15323673000000015,-0.04745932,-0.04542434,-0.03942782,-0.17785224999999993,-31.63475043,1.7947902199999994,61.6350291,-0.39498253320000004,-0.25729215744,0.13424009300000028,-0.05812418586,-0.04501818769,0.05655224249
03:38:20,-0.5346618000000001,-0.21833714999999998,0.14152932500000026,-0.0469373,-0.04568535,-0.03937455,-0.19517612500000014,-31.640087075,1.8164015499999997,63.40503774999999,-0.40161852300000006,-0.2528568616,0.1448825825000002,-0.05763088664999999,-0.045220385225,0.056237779225
03:38:20,-0.53512348,-0.21453623999999993,0.12982192000000015,-0.04641528,-0.04594636,-0.03932128,-0.2124999999999999,-31.64542372,1.8380128799999995,65.17504640000001,-0.4082545128000001,-0.24842156575999996,0.1555250720000001,-0.05713758744,-0.045422582759999997,0.05592331596
03:38:20,-0.53558516,-0.21073533,0.11811451500000025,-0.045893260000000005,-0.04620737,-0.03926801,-0.22982387500000012,-31.650760365,1.8596242099999998,66.94505505000001,-0.4148905026,-0.24398626992000005,0.16616756150000023,-0.05664428822999999,-0.045624780295,0.055608852695
03:38:20,-0.53604684,-0.20693441999999995,0.10640711000000014,-0.04537124000000001,-0.04646838,-0.03921474,-0.2471477499999999,-31.65609701,1.8812355399999996,68.7150637,-0.4215264924,-0.23955097408000003,0.17681005100000013,-0.056150989019999986,-0.045826977830000004,0.05529438943
03:38:20,-0.53650852,-0.20313351000000002,0.09469970500000024,-0.044849219999999995,-0.04672939,-0.039161470000000004,-0.2644716250000001,-31.661433655,1.9028468699999994,70.48507235,-0.4281624822,-0.23511567824000001,0.18745254050000026,-0.055657689809999994,-0.046029175365,0.054979926165
03:38:20,-0.5369702000000001,-0.19933259999999997,0.08299230000000013,-0.0443272,-0.0469904,-0.0391082,-0.28179549999999987,-31.6667703,1.9244581999999997,72.25508100000002,-0.43479847200000005,-0.2306803824,0.19809503000000017,-0.05516439059999999,-0.0462313729,0.0546654629
03:38:20,-0.53743188,-0.19553168999999992,0.07128489500000024,-0.04380518,-0.04725141,-0.03905493,-0.2991193750000001,-31.672106945,1.9460695299999995,74.02508965000001,-0.44143446180000007,-0.22624508655999997,0.20873751950000008,-0.054671091389999996,-0.046433570435,0.054350999635
03:38:20,-0.53789356,-0.19173078,0.05957749000000012,-0.04328316,-0.04751242,-0.03900166,-0.31644324999999984,-31.67744359,1.9676808599999998,75.7950983,-0.4480704516000001,-0.22180979072000007,0.2193800090000002,-0.05417779217999999,-0.046635767970000006,0.05403653637
03:38:20,-0.53835524,-0.18792986999999994,0.04787008500000023,-0.04276114,-0.04777343,-0.03894839,-0.33376712500000005,-31.682780235,1.9892921899999996,77.56510695,-0.4547064414,-0.21737449488000005,0.23002249850000012,-0.05368449297,-0.046837965504999995,0.053722073105
03:38:20,-0.53881692,-0.18412896,0.036162680000000114,-0.042239120000000005,-0.04803444,-0.03889512,-0.3510909999999998,-31.68811688,2.0109035199999994,79.3351156,-0.4613424312,-0.21293919904000003,0.24066498800000025,-0.05319119375999999,-0.04704016304,0.05340760984
03:38:20,-0.5392786,-0.18032804999999996,0.02445527500000022,-0.04171710000000001,-0.04829545,-0.03884185,-0.36841487500000003,-31.693453525,2.0325148499999997,81.10512425000002,-0.46797842100000003,-0.2085039032,0.25130747750000015,-0.052697894549999985,-0.047242360575,0.053093146575
03:38:20,-0.53974028,-0.17652713999999992,0.012747870000000106,-0.041195079999999995,-0.04855646,-0.03878858,-0.3857387499999998,-31.69879017,2.0541261799999995,82.87513289999998,-0.47461441080000005,-0.20406860736,0.2619499670000003,-0.05220459533999999,-0.04744455811,0.05277868331
03:38:20,-0.54020196,-0.17272622999999998,0.0010404650000002125,-0.04067306,-0.04881747,-0.03873531,-0.403062625,-31.704126815,2.0757375099999997,84.64514155,-0.4812504006000001,-0.19963331151999997,0.2725924565000002,-0.05171129612999999,-0.047646755645,0.052464220045
03:38:20,-0.54066364,-0.16892531999999993,-0.010666939999999903,-0.04015104,-0.04907848,-0.03868204,-0.4203864999999998,-31.70946346,2.0973488399999995,86.41515020000003,-0.4878863904000001,-0.19519801568000006,0.2832349460000001,-0.051217996919999995,-0.04784895318,0.05214975678
03:38:20,-0.54112532,-0.16512441,-0.022374344999999796,-0.03962902,-0.04933949,-0.03862877,-0.437710375,-31.714800105,2.11896017,88.18515885,-0.4945223802,-0.19076271984000004,0.29387743550000023,-0.05072469770999999,-0.048051150715000004,0.051835293515
03:38:20,-0.541587,-0.16132349999999995,-0.03408174999999969,-0.039107,-0.0496005,-0.0385755,-0.4550342500000002,-31.720136749999998,2.1405714999999996,89.95516750000002,-0.50115837,-0.18632742400000002,0.30451992500000014,-0.050231398499999996,-0.04825334825,0.05152083025
03:38:20,-0.5420486800000001,-0.15752259000000002,-0.045789154999999804,-0.038584980000000005,-0.04986151,-0.038522230000000005,-0.47235812499999996,-31.725473394999998,2.1621828299999994,91.72517614999998,-0.5077943598000001,-0.18189212816,0.31516241450000027,-0.04973809928999999,-0.048455545785,0.051206366985
03:38:20,-0.5425103600000001,-0.15372167999999997,-0.0574965599999997,-0.03806296000000001,-0.05012252,-0.038468959999999996,-0.4896820000000002,-31.730810039999998,2.1837941599999997,93.4951848,-0.5144303496,-0.17745683231999998,0.3258049040000002,-0.049244800079999984,-0.04865774332,0.05089190372
03:38:20,-0.54297204,-0.14992076999999993,-0.06920396499999981,-0.037540939999999995,-0.05038353,-0.03841569,-0.5070058749999999,-31.736146684999998,2.2054054899999995,95.26519345000003,-0.5210663393999999,-0.17302153647999996,0.3364473935000003,-0.04875150086999999,-0.048859940855,0.050577440455
03:38:20,-0.54343372,-0.14611986,-0.0809113699999997,-0.03701892,-0.05064454,-0.03836242,-0.5243297500000001,-31.741483329999998,2.22701682,97.03520209999999,-0.5277023292,-0.16858624064000005,0.3470898830000002,-0.048258201659999986,-0.049062138389999996,0.05026297719
03:38:20,-0.5438954,-0.14231894999999994,-0.09261877499999982,-0.0364969,-0.05090555,-0.03830915,-0.5416536249999999,-31.746819974999998,2.2486281499999996,98.80521075000001,-0.534338319,-0.16415094480000003,0.3577323725000001,-0.047764902449999994,-0.049264335925,0.049948513925
03:38:20,-0.54435708,-0.13851804,-0.10432617999999971,-0.03597488,-0.05116656,-0.03825588,-0.5589775000000001,-31.752156619999997,2.2702394799999994,100.57521939999998,-0.5409743088000001,-0.15971564896,0.36837486200000025,-0.04727160323999999,-0.04946653346,0.04963405066
03:38:20,-0.5448187600000001,-0.13471712999999996,-0.11603358499999983,-0.03545286,-0.05142757,-0.03820261,-0.5763013749999999,-31.757493264999997,2.2918508099999997,102.34522805,-0.5476102986,-0.15528035312,0.37901735150000015,-0.046778304029999995,-0.04966873099500001,0.049319587395
03:38:20,-0.54528044,-0.13091621999999992,-0.12774098999999972,-0.034930840000000005,-0.05168858,-0.038149340000000004,-0.5936252500000001,-31.76282991,2.3134621399999995,104.11523670000003,-0.5542462883999999,-0.15084505727999997,0.3896598410000003,-0.04628500481999999,-0.04987092853,0.04900512413
03:38:20,-0.54574212,-0.12711530999999998,-0.13944839499999984,-0.03440882000000001,-0.05194959,-0.03809607,-0.6109491249999999,-31.768166555,2.3350734699999998,105.88524534999999,-0.5608822782,-0.14640976144000006,0.4003023305000002,-0.04579170561,-0.050073126065,0.048690660865
03:38:20,-0.5462038,-0.12331439999999994,-0.15115579999999973,-0.03388680000000001,-0.052210599999999996,-0.0380428,-0.6282730000000001,-31.7735032,2.3566847999999996,107.65525400000001,-0.5675182679999999,-0.14197446560000004,0.4109448200000003,-0.04529840639999999,-0.050275323600000005,0.048376197600000004
03:38:20,-0.54666548,-0.11951349,-0.16286320499999984,-0.03336478,-0.05247161,-0.03798953,-0.6455968749999998,-31.778839845,2.3782961299999994,109.42526264999998,-0.5741542578000001,-0.13753916976000002,0.42158730950000023,-0.044805107189999985,-0.050477521134999995,0.048061734335
03:38:20,-0.5471271600000001,-0.11571257999999995,-0.17457060999999974,-0.03284276,-0.05273262,-0.03793626,-0.6629207500000001,-31.78417649,2.3999074599999997,111.1952713,-0.5807902476,-0.13310387392,0.43222979900000014,-0.04431180797999999,-0.05067971867,0.04774727107
03:38:20,-0.54758884,-0.11191166999999991,-0.18627801499999985,-0.03232074,-0.05299363,-0.03788299,-0.6802446249999998,-31.789513135,2.4215187899999995,112.96527995000002,-0.5874262373999999,-0.12866857807999998,0.44287228850000027,-0.043818508769999986,-0.050881916205,0.047432807805
03:38:20,-0.54805052,-0.10811075999999997,-0.19798541999999975,-0.03179872,-0.05325464,-0.03782972,-0.6975685,-31.79484978,2.4431301199999997,114.73528859999999,-0.5940622272,-0.12423328223999996,0.4535147780000002,-0.043325209559999994,-0.051084113740000006,0.04711834454
03:38:20,-0.5485122,-0.10430984999999993,-0.20969282499999986,-0.031276700000000004,-0.05351565,-0.03777645,-0.7148923749999998,-31.800186425,2.4647414499999996,116.50529725000001,-0.6006982169999999,-0.11979798640000006,0.4641572675000003,-0.04283191034999999,-0.051286311274999996,0.046803881275
03:38:20,-0.54897388,-0.10050893999999999,-0.22140022999999975,-0.030754680000000006,-0.05377666,-0.03772318,-0.73221625,-31.80552307,2.4863527799999994,118.27530590000003,-0.6073342068,-0.11536269056000004,0.4747997570000002,-0.042338611139999996,-0.05148850881,0.04648941801
03:38:20,-0.54943556,-0.09670802999999994,-0.23310763499999987,-0.03023266000000001,-0.054037669999999996,-0.03766991,-0.7495401249999998,-31.810859715,2.5079641099999996,120.04531455,-0.6139701966,-0.11092739472000002,0.4854422465000001,-0.04184531192999999,-0.051690706345000004,0.046174954745
03:38:20,-0.5498972400000001,-0.09290712000000001,-0.24481503999999976,-0.029710639999999996,-0.05429868,-0.03761664,-0.766864,-31.81619636,2.5295754399999995,121.81532320000002,-0.6206061864000001,-0.10649209888,0.49608473600000025,-0.04135201272,-0.051892903879999994,0.04586049148
03:38:20,-0.5503589200000001,-0.08910620999999996,-0.2565224449999999,-0.02918862,-0.05455969,-0.03756337,-0.7841878749999998,-31.821533005,2.5511867699999997,123.58533184999999,-0.6272421762,-0.10205680303999998,0.5067272255000002,-0.04085871350999999,-0.052095101415,0.045546028215
03:38:20,-0.5508206,-0.08530529999999992,-0.26822984999999977,-0.0286666,-0.0548207,-0.037510100000000005,-0.80151175,-31.82686965,2.5727980999999995,125.35534050000001,-0.6338781659999999,-0.09762150720000007,0.5173697150000003,-0.040365414299999985,-0.05229729895,0.04523156495
03:38:20,-0.55128228,-0.08150438999999998,-0.27993725499999966,-0.028144580000000002,-0.05508171,-0.037456829999999997,-0.8188356250000002,-31.832206295,2.5944094299999994,127.12534915000003,-0.6405141558,-0.09318621136000005,0.5280122045000002,-0.03987211508999999,-0.052499496485000005,0.044917101685
03:38:20,-0.55174396,-0.07770347999999994,-0.2916446599999998,-0.027622560000000004,-0.05534272,-0.03740356,-0.8361594999999999,-31.83754294,2.6160207599999996,128.8953578,-0.6471501456,-0.08875091552000003,0.5386546940000003,-0.03937881587999999,-0.052701694019999995,0.04460263842
03:38:20,-0.55220564,-0.07390257,-0.3033520649999999,-0.027100540000000006,-0.05560373,-0.03735029,-0.8534833750000002,-31.842879585,2.6376320899999994,130.66536645000002,-0.6537861354000001,-0.08431561968000001,0.5492971835000002,-0.038885516669999995,-0.052903891555,0.044288175155
03:38:20,-0.5526673200000001,-0.07010165999999995,-0.31505946999999956,-0.026578520000000008,-0.055864739999999996,-0.03729702,-0.8708072499999999,-31.84821623,2.6592434199999997,132.4353751,-0.6604221252,-0.07988032383999999,0.5599396730000001,-0.03839221745999999,-0.05310608909,0.04397371189
03:38:20,-0.553129,-0.06630074999999991,-0.3267668749999997,-0.026056499999999996,-0.05612575,-0.03724375,-0.8881311250000001,-31.853552875,2.6808547499999995,134.20538375,-0.6670581149999999,-0.07544502799999997,0.5705821625000003,-0.03789891825,-0.053308286625000006,0.043659248625
03:38:20,-0.55359068,-0.06249983999999997,-0.3384742799999998,-0.02553448,-0.05638676,-0.03719048,-0.9054549999999999,-31.858889519999998,2.7024660799999998,135.97539240000003,-0.6736941048,-0.07100973216000006,0.5812246520000002,-0.03740561903999999,-0.053510484159999996,0.04334478536
03:38:20,-0.55405236,-0.05869892999999993,-0.3501816849999999,-0.02501246,-0.05664777,-0.037137210000000004,-0.9227788750000001,-31.864226164999998,2.7240774099999996,137.74540105,-0.6803300945999999,-0.06657443632000004,0.5918671415000003,-0.036912319829999984,-0.053712681695,0.043030322095000004
03:38:20,-0.55451404,-0.05489801999999999,-0.3618890899999996,-0.024490440000000002,-0.05690878,-0.03708394,-0.9401027499999999,-31.869562809999998,2.7456887399999994,139.51540970000002,-0.6869660844000001,-0.06213914048000002,0.6025096310000002,-0.03641902061999999,-0.053914879230000004,0.04271585883
03:38:20,-0.5549757200000001,-0.051097109999999946,-0.3735964949999997,-0.023968420000000004,-0.05716979,-0.03703067,-0.9574266250000001,-31.874899454999998,2.7673000699999997,141.28541835,-0.6936020742,-0.05770384464,0.6131521205000003,-0.035925721409999986,-0.054117076764999994,0.042401395565
03:38:20,-0.5554374,-0.04729620000000001,-0.3853038999999998,-0.023446400000000006,-0.0574308,-0.0369774,-0.9747504999999999,-31.880236099999998,2.7889113999999995,143.055427,-0.7002380640000001,-0.05326854879999998,0.6237946100000002,-0.035432422199999994,-0.0543192743,0.0420869323
03:38:20,-0.55589908,-0.043495289999999964,-0.3970113049999999,-0.022924380000000008,-0.057691809999999996,-0.03692413,-0.9920743750000001,-31.885572744999997,2.8105227299999997,144.82543565000003,-0.7068740538,-0.04883325296000007,0.6344370995000002,-0.03493912298999999,-0.054521471835,0.041772469035
03:38:20,-0.55636076,-0.03969437999999992,-0.4087187099999996,-0.022402359999999996,-0.05795282,-0.03687086,-1.0093982499999998,-31.890909389999997,2.8321340599999996,146.5954443,-0.7135100435999999,-0.04439795712000005,0.6450795890000003,-0.034445823779999996,-0.054723669370000005,0.04145800577
03:38:20,-0.55682244,-0.03589346999999998,-0.4204261149999997,-0.021880339999999998,-0.05821383,-0.03681759,-1.026722125,-31.896246034999997,2.8537453899999994,148.36545295000002,-0.7201460334,-0.039962661280000034,0.6557220785000002,-0.03395252456999999,-0.054925866904999995,0.041143542505
03:38:20,-0.55728412,-0.03209255999999994,-0.4321335199999998,-0.02135832,-0.05847484,-0.03676432,-1.0440459999999998,-31.901582679999997,2.8753567199999996,150.13546159999999,-0.7267820232,-0.035527365440000014,0.6663645680000003,-0.03345922535999998,-0.05512806444,0.04082907924
03:38:20,-0.5577458000000001,-0.02829165,-0.44384092499999994,-0.020836300000000002,-0.05873585,-0.03671105,-1.061369875,-31.906919324999997,2.8969680499999995,151.90547025,-0.7334180130000001,-0.031092069599999994,0.6770070575000002,-0.03296592614999999,-0.055330261975,0.040514615975
03:38:20,-0.5582074800000001,-0.024490739999999955,-0.4555483299999996,-0.020314280000000004,-0.05899686,-0.03665778,-1.0786937499999998,-31.912255969999997,2.9185793799999997,153.67547890000003,-0.7400540028,-0.026656773759999974,0.6876495470000001,-0.032472626939999985,-0.05553245951000001,0.04020015271
03:38:20,-0.55866916,-0.02068982999999991,-0.46725573499999973,-0.019792260000000006,-0.05925787,-0.03660451,-1.096017625,-31.917592615,2.9401907099999995,155.44548755,-0.7466899925999999,-0.022221477920000066,0.6982920365000003,-0.03197932772999999,-0.055734657045,0.039885689445000004
03:38:20,-0.55913084,-0.016888919999999974,-0.47896313999999984,-0.019270240000000008,-0.059518879999999996,-0.03655124,-1.1133414999999998,-31.92292926,2.9618020399999994,157.21549620000002,-0.7533259824,-0.017786182080000046,0.7089345260000004,-0.03148602851999999,-0.05593685458,0.03957122618
03:38:20,-0.55959252,-0.013088009999999928,-0.49067054499999996,-0.018748219999999996,-0.05977989,-0.03649797,-1.130665375,-31.928265905,2.983413369999999,158.98550484999998,-0.7599619722,-0.013350886240000026,0.7195770155000003,-0.030992729309999995,-0.056139052115000004,0.039256762915
03:38:20,-0.5600542000000001,-0.009287099999999993,-0.5023779499999996,-0.018226199999999998,-0.0600409,-0.0364447,-1.1479892499999997,-31.93360255,3.0050247,160.7555135,-0.7665979620000001,-0.008915590400000006,0.7302195050000002,-0.03049943009999999,-0.056341249649999994,0.03894229965
03:38:20,-0.5605158800000001,-0.005486189999999946,-0.5140853549999997,-0.01770418,-0.06030191,-0.03639143,-1.165313125,-31.938939195,3.0266360299999997,162.52552215000003,-0.7732339518,-0.004480294559999987,0.7408619945000001,-0.030006130889999996,-0.056543447185,0.038627836385
03:38:20,-0.56097756,-0.0016852800000000112,-0.5257927599999999,-0.017182160000000002,-0.06056292,-0.03633816,-1.1826369999999997,-31.94427584,3.0482473599999995,164.2955308,-0.7798699416000001,-4.499871999996685e-05,0.751504484,-0.02951283167999999,-0.05674564472,0.03831337312
03:38:20,-0.56143924,0.002115630000000035,-0.5375001649999995,-0.016660140000000004,-0.06082393,-0.03628489,-1.199960875,-31.949612485,3.0698586899999993,166.06553945000002,-0.7865059314,0.004390297119999942,0.7621469735000004,-0.029019532469999984,-0.056947842255000006,0.037998909855
03:38:20,-0.56190092,0.005916540000000081,-0.5492075699999996,-0.016138120000000006,-0.06108494,-0.03623162,-1.2172847500000001,-31.95494913,3.091470019999999,167.83554809999998,-0.7931419211999999,0.008825592959999962,0.7727894630000003,-0.028526233259999992,-0.057150039789999996,0.037684446590000004
03:38:20,-0.5623626,0.009717450000000016,-0.5609149749999998,-0.015616100000000008,-0.061345949999999996,-0.03617835,-1.234608625,-31.960285775,3.11308135,169.60555675,-0.7997779110000001,0.013260888799999981,0.7834319525000002,-0.028032934049999986,-0.057352237325,0.037369983325
03:38:20,-0.5628242800000001,0.013518360000000063,-0.5726223799999999,-0.015094079999999996,-0.06160696,-0.036125080000000004,-1.2519325000000001,-31.96562242,3.1346926799999997,171.37556540000003,-0.8064139008,0.01769618464,0.7940744420000001,-0.027539634839999994,-0.05755443486,0.03705552006
03:38:20,-0.56328596,0.017319269999999998,-0.5843297849999995,-0.014572059999999998,-0.06186797,-0.036071809999999996,-1.2692563749999999,-31.970959065,3.1563040099999995,173.14557405,-0.8130498906000001,0.02213148048000002,0.8047169315000005,-0.027046335629999987,-0.05775663239499999,0.036741056795
03:38:20,-0.56374764,0.021120180000000044,-0.5960371899999997,-0.01405004,-0.06212898,-0.03601854,-1.28658025,-31.97629571,3.1779153399999993,174.91558270000002,-0.8196858804,0.02656677631999993,0.8153594210000004,-0.026553036419999995,-0.05795882993,0.03642659353
03:38:20,-0.56420932,0.02492109000000009,-0.6077445949999998,-0.013528020000000002,-0.06238999,-0.03596527,-1.3039041249999999,-31.981632355,3.199526669999999,176.68559134999998,-0.8263218701999999,0.03100207215999995,0.8260019105000003,-0.02605973720999999,-0.058161027465,0.036112130265
03:38:21,-0.564671,0.028722,-0.619452,-0.013006,-0.062651,-0.035912,-1.321228,-31.986969,3.221138,178.4556,-0.83295786,0.035437368,0.8366444,-0.025566438,-0.058363225,0.035797667
03:38:21,-0.5560399,0.03113905,-0.619466195,-0.012521265,-0.061873295,-0.035757525,-1.31882352,-31.976180465,3.2405533199999996,178.4465549,-0.8272363822000001,0.03728870826,0.8299420812499999,-0.025156085885000002,-0.057633432374999995,0.035297125015
03:38:21,-0.5474088,0.0335561,-0.61948039,-0.01203653,-0.06109559,-0.03560305,-1.31641904,-31.96539193,3.25996864,178.43750980000002,-0.8215149044000001,0.03914004852,0.8232397625,-0.02474573377,-0.05690363975,0.03479658303
03:38:21,-0.5387777,0.03597315,-0.619494585,-0.011551795,-0.060317885,-0.035448574999999996,-1.3140145600000002,-31.954603395,3.2793839599999997,178.4284647,-0.8157934266000001,0.04099138878,0.8165374437499999,-0.024335381655000002,-0.056173847124999995,0.034296041044999996
03:38:21,-0.5301466,0.0383902,-0.61950878,-0.01106706,-0.05954018,-0.0352941,-1.3116100800000001,-31.94381486,3.29879928,178.4194196,-0.8100719488,0.04284272904,0.809835125,-0.02392502954,-0.0554440545,0.03379549906
03:38:21,-0.5215155,0.04080725,-0.619522975,-0.010582325,-0.058762475,-0.035139625,-1.3092056,-31.933026325,3.3182145999999997,178.41037450000002,-0.804350471,0.0446940693,0.8031328062499999,-0.023514677425,-0.054714261874999996,0.033294957075
03:38:21,-0.5128844,0.0432243,-0.61953717,-0.01009759,-0.05798477,-0.03498515,-1.30680112,-31.922237789999997,3.33762992,178.4013294,-0.7986289932,0.04654540956,0.7964304874999999,-0.02310432531,-0.05398446925,0.03279441509
03:38:21,-0.5042533,0.04564135,-0.619551365,-0.009612855,-0.057207065,-0.034830675,-1.30439664,-31.911449254999997,3.3570452399999997,178.3922843,-0.7929075154,0.048396749819999994,0.78972816875,-0.022693973195,-0.053254676625,0.032293873104999996
03:38:21,-0.4956222,0.0480584,-0.61956556,-0.00912812,-0.05642936,-0.0346762,-1.3019921600000002,-31.900660719999998,3.37646056,178.3832392,-0.7871860376,0.050248090079999995,0.7830258499999999,-0.02228362108,-0.052524883999999994,0.03179333112
03:38:21,-0.4869911,0.050475450000000005,-0.619579755,-0.008643385,-0.055651655,-0.034521724999999996,-1.2995876800000001,-31.889872184999998,3.3958758799999997,178.3741941,-0.7814645598000001,0.052099430339999996,0.77632353125,-0.021873268965,-0.051795091375,0.031292789135
03:38:21,-0.47836,0.0528925,-0.6195939500000001,-0.00815865,-0.05487395,-0.03436725,-1.2971832,-31.87908365,3.4152912,178.365149,-0.7757430820000001,0.053950770599999996,0.7696212124999999,-0.02146291685,-0.051065298749999995,0.03079224715
03:38:21,-0.4697289,0.05530955,-0.619608145,-0.007673915,-0.054096245,-0.034212775,-1.29477872,-31.868295115,3.4347065199999998,178.3561039,-0.7700216042000001,0.05580211086,0.76291889375,-0.021052564735,-0.050335506125,0.030291705165
03:38:21,-0.4610978,0.0577266,-0.61962234,-0.00718918,-0.05331854,-0.0340583,-1.29237424,-31.85750658,3.45412184,178.3470588,-0.7643001264,0.05765345112,0.756216575,-0.02064221262,-0.049605713499999995,0.02979116318
03:38:21,-0.4524667,0.06014365000000001,-0.619636535,-0.006704445,-0.052540835,-0.033903825,-1.28996976,-31.846718045,3.47353716,178.3380137,-0.7585786486,0.05950479138,0.7495142562499999,-0.020231860505,-0.048875920875,0.029290621194999998
03:38:21,-0.4438356,0.0625607,-0.61965073,-0.00621971,-0.05176313,-0.03374935,-1.2875652800000001,-31.83592951,3.4929524799999996,178.3289686,-0.7528571708,0.06135613163999999,0.7428119375,-0.01982150839,-0.048146128249999996,0.02879007921
03:38:21,-0.4352045,0.06497775,-0.619664925,-0.005734975,-0.050985425,-0.033594874999999996,-1.2851608,-31.825140975,3.5123678,178.31992350000002,-0.747135693,0.06320747189999999,0.7361096187499999,-0.019411156275,-0.047416335625,0.028289537225
03:38:21,-0.4265734,0.0673948,-0.61967912,-0.00525024,-0.05020772,-0.0334404,-1.28275632,-31.814352439999997,3.53178312,178.3108784,-0.7414142152000001,0.06505881215999999,0.7294073,-0.01900080416,-0.046686543,0.02778899524
03:38:21,-0.4179423,0.06981185,-0.619693315,-0.004765505,-0.049430015,-0.033285925,-1.28035184,-31.803563904999997,3.55119844,178.3018333,-0.7356927374000001,0.06691015242,0.7227049812499999,-0.018590452045,-0.045956750374999994,0.027288453254999998
03:38:21,-0.4093112,0.0722289,-0.61970751,-0.00428077,-0.04865231,-0.03313145,-1.27794736,-31.792775369999998,3.5706137599999996,178.2927882,-0.7299712596000001,0.06876149268,0.7160026625,-0.01818009993,-0.04522695775,0.02678791127
03:38:21,-0.4006801,0.07464595,-0.619721705,-0.0037960349999999997,-0.047874605,-0.032976975,-1.2755428800000002,-31.781986834999998,3.59002908,178.2837431,-0.7242497818,0.07061283294,0.70930034375,-0.017769747815,-0.044497165124999995,0.026287369285
03:38:21,-0.392049,0.077063,-0.6197359,-0.0033112999999999997,-0.0470969,-0.0328225,-1.2731384000000001,-31.7711983,3.6094443999999997,178.274698,-0.718528304,0.0724641732,0.7025980249999999,-0.017359395700000002,-0.0437673725,0.0257868273
03:38:21,-0.3834179,0.07948005,-0.619750095,-0.0028265649999999996,-0.046319195,-0.032668024999999996,-1.27073392,-31.760409765,3.62885972,178.2656529,-0.7128068262,0.07431551346,0.69589570625,-0.016949043585,-0.043037579874999995,0.025286285315
03:38:21,-0.3747868,0.0818971,-0.61976429,-0.0023418299999999996,-0.045541490000000004,-0.03251355,-1.26832944,-31.74962123,3.6482750399999997,178.2566078,-0.7070853484,0.07616685372,0.6891933874999999,-0.01653869147,-0.04230778724999999,0.02478574333
03:38:21,-0.3661557,0.08431415,-0.619778485,-0.0018570949999999996,-0.044763785,-0.032359075,-1.26592496,-31.738832695,3.66769036,178.2475627,-0.7013638706,0.07801819398,0.68249106875,-0.016128339355,-0.041577994624999996,0.024285201345
03:38:21,-0.3575246,0.0867312,-0.61979268,-0.0013723599999999996,-0.04398608,-0.0322046,-1.26352048,-31.72804416,3.6871056799999997,178.2385176,-0.6956423928000001,0.07986953424,0.6757887499999999,-0.015717987240000002,-0.040848202,0.02378465936
03:38:21,-0.3488935,0.08914825,-0.619806875,-0.0008876249999999995,-0.043208375,-0.032050125,-1.2611160000000001,-31.717255625,3.706521,178.2294725,-0.6899209150000001,0.0817208745,0.66908643125,-0.015307635125,-0.040118409375,0.023284117375
03:38:21,-0.3402624,0.0915653,-0.61982107,-0.0004028899999999995,-0.042430670000000004,-0.03189565,-1.25871152,-31.70646709,3.7259363199999997,178.2204274,-0.6841994372,0.08357221476,0.6623841125,-0.01489728301,-0.039388616749999994,0.022783575389999998
03:38:21,-0.3316313,0.09398234999999999,-0.619835265,8.184500000000053e-05,-0.041652965,-0.031741174999999996,-1.25630704,-31.695678554999997,3.74535164,178.2113823,-0.6784779594000001,0.08542355501999999,0.6556817937499999,-0.014486930895,-0.038658824125,0.022283033405
03:38:21,-0.3230002,0.0963994,-0.61984946,0.0005665800000000006,-0.04087526,-0.0315867,-1.25390256,-31.684890019999997,3.7647669599999998,178.20233720000002,-0.6727564816,0.08727489527999999,0.648979475,-0.01407657878,-0.037929031499999995,0.02178249142
03:38:21,-0.3143691,0.09881645,-0.619863655,0.0010513150000000006,-0.040097555,-0.031432225,-1.25149808,-31.674101484999998,3.7841822799999996,178.1932921,-0.6670350038,0.08912623553999999,0.6422771562499999,-0.013666226665,-0.037199238875,0.021281949435000003
03:38:21,-0.305738,0.1012335,-0.61987785,0.0015360500000000006,-0.03931985,-0.03127775,-1.2490936000000001,-31.663312949999998,3.8035976,178.184247,-0.661313526,0.09097757579999999,0.6355748375,-0.01325587455,-0.036469446249999996,0.02078140745
03:38:21,-0.2971069,0.10365055,-0.6198920450000001,0.0020207850000000006,-0.038542145,-0.031123275,-1.24668912,-31.652524415,3.82301292,178.1752019,-0.6555920482,0.09282891605999999,0.6288725187499999,-0.012845522435,-0.03573965362499999,0.020280865465
03:38:21,-0.2884758,0.1060676,-0.61990624,0.0025055200000000007,-0.037764439999999996,-0.030968799999999998,-1.24428464,-31.64173588,3.84242824,178.1661568,-0.6498705704000001,0.09468025631999999,0.6221702,-0.01243517032,-0.035009860999999996,0.01978032348
03:38:21,-0.2798447,0.10848465,-0.619920435,0.0029902550000000007,-0.036986735,-0.030814325,-1.24188016,-31.630947345,3.8618435599999996,178.1571117,-0.6441490926,0.09653159657999999,0.61546788125,-0.012024818205,-0.034280068375,0.019279781495000002
03:38:21,-0.2712136,0.11090169999999999,-0.61993463,0.0034749900000000007,-0.03620903,-0.03065985,-1.23947568,-31.62015881,3.88125888,178.1480666,-0.6384276148000001,0.09838293683999999,0.6087655624999999,-0.01161446609,-0.03355027575,0.01877923951
03:38:21,-0.2625825,0.11331875,-0.619948825,0.003959725000000001,-0.035431325,-0.030505375,-1.2370712000000001,-31.609370275,3.9006742,178.1390215,-0.632706137,0.10023427709999999,0.60206324375,-0.011204113974999999,-0.032820483124999994,0.018278697525000002
03:38:21,-0.2539514,0.1157358,-0.61996302,0.004444460000000001,-0.034653619999999996,-0.0303509,-1.23466672,-31.59858174,3.92008952,178.1299764,-0.6269846592,0.10208561735999999,0.5953609249999999,-0.010793761859999999,-0.0320906905,0.01777815554
03:38:21,-0.2453203,0.11815285,-0.619977215,0.004929195000000001,-0.033875915,-0.030196425,-1.23226224,-31.587793204999997,3.9395048399999997,178.1209313,-0.6212631814,0.10393695761999999,0.5886586062499999,-0.010383409744999999,-0.031360897874999995,0.017277613555
03:38:21,-0.2366892,0.1205699,-0.61999141,0.005413930000000001,-0.03309821,-0.030041949999999998,-1.22985776,-31.577004669999997,3.95892016,178.11188620000001,-0.6155417036,0.10578829787999999,0.5819562875,-0.009973057629999999,-0.030631105249999995,0.01677707157
03:38:21,-0.22805809999999999,0.12298695,-0.620005605,0.005898665000000001,-0.032320505,-0.029887475,-1.22745328,-31.566216134999998,3.9783354799999997,178.1028411,-0.6098202258000001,0.10763963814,0.57525396875,-0.009562705514999999,-0.029901312624999996,0.016276529585
03:38:21,-0.21942699999999998,0.12540400000000002,-0.6200198,0.006383400000000001,-0.031542799999999996,-0.029733,-1.2250488000000002,-31.555427599999998,3.9977508,178.093796,-0.6040987480000001,0.1094909784,0.56855165,-0.0091523534,-0.029171519999999996,0.0157759876
