Timestamp,linacce_x,linacce_y,linacce_z,gyro_x,gyro_y,gyro_z,X-magnetometer,Y-magnetometer,Z-magnetometer,Yaw, worldXAccel,worldYAccel,worldZAccel,worldXgyro,worldYgyro,worldZgyro
03:37:28,0.075022,1.716325,-0.734038,-0.48602,0.117393,-0.651683,-3.115177,-30.160912,-3.078575,169.79356,-0.6221715,1.7765055,0.2416822,-0.8117403,0.13199691,0.78218734
03:37:28,0.08262108500000001,1.701453925,-0.7351451499999999,-0.48224867,0.117931,-0.64775187,-3.09529955,-30.1690917,-3.0577476299999997,168.05194945000002,-0.61628207335,1.7598700645,0.2392445678,-0.8060991681999999,0.1323366018,0.7769466963
03:37:28,0.09022017,1.6865828500000002,-0.7362523,-0.47847734000000003,0.11846899999999999,-0.64382074,-3.0754221,-30.1772714,-3.03692026,166.3103389,-0.6103926467,1.743234629,0.23680693560000002,-0.8004580364,0.1326762936,0.7717060526
03:37:28,0.09781925500000001,1.6717117750000001,-0.7373594499999999,-0.47470601,0.119007,-0.63988961,-3.05554465,-30.185451099999998,-3.01609289,164.56872835000001,-0.60450322005,1.7265991935,0.2343693034,-0.7948169046,0.1330159854,0.7664654089
03:37:28,0.10541834,1.6568407,-0.7384666,-0.47093468,0.119545,-0.63595848,-3.0356672000000002,-30.1936308,-2.99526552,162.82711780000002,-0.5986137934,1.709963758,0.23193167120000002,-0.7891757728,0.1333556772,0.7612247652
03:37:28,0.113017425,1.6419696250000002,-0.7395737499999999,-0.46716335000000003,0.120083,-0.63202735,-3.01578975,-30.2018105,-2.9744381499999997,161.08550725,-0.59272436675,1.6933283225,0.229494039,-0.7835346409999999,0.133695369,0.7559841215
03:37:28,0.12061651000000001,1.6270985500000001,-0.7406809,-0.46339202,0.12062099999999999,-0.62809622,-2.9959123,-30.2099902,-2.95361078,159.34389670000002,-0.5868349401,1.6766928870000002,0.2270564068,-0.7778935092,0.1340350608,0.7507434778
03:37:28,0.12821559500000002,1.612227475,-0.7417880499999999,-0.45962069,0.121159,-0.62416509,-2.97603485,-30.2181699,-2.93278341,157.60228615000003,-0.58094551345,1.6600574515000002,0.22461877460000002,-0.7722523774,0.1343747526,0.7455028341
03:37:28,0.13581468000000002,1.5973564,-0.7428952,-0.45584936,0.121697,-0.62023396,-2.9561574,-30.2263496,-2.9119560399999997,155.8606756,-0.5750560868,1.6434220160000002,0.2221811424,-0.7666112455999999,0.1347144444,0.7402621904
03:37:28,0.14341376500000003,1.5824853250000002,-0.7440023499999999,-0.45207803,0.122235,-0.61630283,-2.9362799500000003,-30.2345293,-2.8911286699999996,154.11906505000002,-0.56916666015,1.6267865805000001,0.21974351020000002,-0.7609701138,0.1350541362,0.7350215467
03:37:28,0.15101285,1.56761425,-0.7451095,-0.4483067,0.122773,-0.6123717,-2.9164025000000002,-30.242709,-2.8703013,152.3774545,-0.5632772335,1.6101511450000001,0.217305878,-0.755328982,0.135393828,0.729780903
03:37:28,0.158611935,1.552743175,-0.7462166499999999,-0.44453537,0.123311,-0.60844057,-2.89652505,-30.2508887,-2.84947393,150.63584395,-0.55738780685,1.5935157095,0.21486824580000002,-0.7496878502,0.1357335198,0.7245402593
03:37:28,0.16621102000000001,1.5378721,-0.7473238,-0.44076404,0.123849,-0.6045094400000001,-2.8766476,-30.2590684,-2.8286465599999997,148.89423340000002,-0.5514983802,1.576880274,0.2124306136,-0.7440467183999999,0.1360732116,0.7192996156
03:37:28,0.173810105,1.5230010250000001,-0.7484309499999999,-0.43699271,0.124387,-0.6005783100000001,-2.85677015,-30.2672481,-2.80781919,147.15262285,-0.5456089535499999,1.5602448385,0.2099929814,-0.7384055866,0.1364129034,0.7140589719
03:37:28,0.18140919,1.50812995,-0.7495381,-0.43322138,0.124925,-0.59664718,-2.8368927,-30.2754278,-2.78699182,145.4110123,-0.5397195269,1.543609403,0.20755534920000002,-0.7327644548,0.1367525952,0.7088183282
03:37:28,0.189008275,1.493258875,-0.7506452499999999,-0.42945005,0.125463,-0.59271605,-2.81701525,-30.2836075,-2.7661644499999998,143.66940175000002,-0.53383010025,1.5269739675,0.205117717,-0.7271233229999999,0.137092287,0.7035776845
03:37:28,0.19660736,1.4783878000000001,-0.7517524,-0.42567872,0.126001,-0.58878492,-2.7971378000000002,-30.291787199999998,-2.7453370799999997,141.9277912,-0.5279406736,1.510338532,0.20268008480000002,-0.7214821912,0.1374319788,0.6983370408
03:37:28,0.20420644500000001,1.463516725,-0.7528595499999999,-0.42190739,0.12653899999999998,-0.58485379,-2.77726035,-30.2999669,-2.72450971,140.18618065,-0.5220512469499999,1.4937030965,0.2002424526,-0.7158410594,0.1377716706,0.6930963971
03:37:28,0.21180553000000002,1.44864565,-0.7539667,-0.41813606000000003,0.127077,-0.58092266,-2.7573829,-30.3081466,-2.70368234,138.44457010000002,-0.5161618203,1.477067661,0.19780482040000003,-0.7101999276,0.1381113624,0.6878557534
03:37:28,0.219404615,1.4337745750000002,-0.7550738499999999,-0.41436473,0.127615,-0.57699153,-2.73750545,-30.3163263,-2.6828549699999997,136.70295955,-0.51027239365,1.4604322255,0.1953671882,-0.7045587957999999,0.1384510542,0.6826151097
03:37:28,0.2270037,1.4189035,-0.756181,-0.4105934,0.128153,-0.5730604,-2.717628,-30.324506,-2.6620276,134.961349,-0.504382967,1.44379679,0.192929556,-0.698917664,0.138790746,0.6773744660000001
03:37:28,0.234602785,1.404032425,-0.7572881499999999,-0.40682207000000004,0.128691,-0.56912927,-2.6977505500000003,-30.3326857,-2.64120023,133.21973845000002,-0.49849354035,1.4271613545000001,0.19049192380000002,-0.6932765322,0.1391304378,0.6721338223
03:37:28,0.24220187,1.3891613500000002,-0.7583953,-0.40305074,0.12922899999999998,-0.56519814,-2.6778731000000002,-30.3408654,-2.62037286,131.4781279,-0.4926041137,1.4105259190000001,0.1880542916,-0.6876354003999999,0.1394701296,0.6668931786
03:37:28,0.24980095500000002,1.3742902750000001,-0.7595024499999999,-0.39927941,0.129767,-0.56126701,-2.65799565,-30.3490451,-2.5995454899999997,129.73651735,-0.48671468705,1.3938904835,0.18561665940000002,-0.6819942686,0.1398098214,0.6616525349
03:37:28,0.25740004000000005,1.3594192,-0.7606096,-0.39550808000000004,0.130305,-0.55733588,-2.6381182,-30.3572248,-2.57871812,127.99490680000001,-0.48082526039999995,1.377255048,0.1831790272,-0.6763531368,0.1401495132,0.6564118912
03:37:28,0.264999125,1.3445481250000002,-0.7617167499999999,-0.39173675,0.130843,-0.55340475,-2.61824075,-30.3654045,-2.55789075,126.25329625,-0.47493583375,1.3606196125,0.18074139500000003,-0.6707120049999999,0.140489205,0.6511712475
03:37:28,0.27259821,1.3296770500000001,-0.7628239,-0.38796542,0.131381,-0.54947362,-2.5983633,-30.3735842,-2.5370633799999998,124.51168570000002,-0.4690464071,1.343984177,0.17830376280000002,-0.6650708731999999,0.1408288968,0.6459306038
03:37:28,0.280197295,1.314805975,-0.76393105,-0.38419409000000004,0.131919,-0.54554249,-2.57848585,-30.3817639,-2.51623601,122.77007515000001,-0.46315698045,1.3273487415,0.1758661306,-0.6594297414,0.1411685886,0.6406899601
03:37:28,0.28779638,1.2999349,-0.7650382,-0.38042276,0.132457,-0.54161136,-2.5586084,-30.3899436,-2.49540864,121.0284646,-0.45726755379999995,1.310713306,0.17342849840000002,-0.6537886096,0.1415082804,0.6354493164
03:37:28,0.295395465,1.285063825,-0.76614535,-0.37665143,0.132995,-0.53768023,-2.53873095,-30.398123299999998,-2.47458127,119.28685405000002,-0.45137812715,1.2940778705,0.1709908662,-0.6481474778,0.1418479722,0.6302086727
03:37:28,0.30299455,1.27019275,-0.7672525,-0.37288010000000005,0.13353299999999999,-0.5337491,-2.5188535,-30.406303,-2.4537538999999997,117.54524350000001,-0.4454887005,1.277442435,0.168553234,-0.642506346,0.142187664,0.624968029
03:37:28,0.31059363500000003,1.255321675,-0.76835965,-0.36910877000000003,0.134071,-0.5298179700000001,-2.49897605,-30.4144827,-2.43292653,115.80363295000001,-0.43959927384999997,1.2608069995000002,0.1661156018,-0.6368652142,0.1425273558,0.6197273853
03:37:28,0.31819272,1.2404506,-0.7694668,-0.36533744,0.134609,-0.5258868400000001,-2.4790986,-30.4226624,-2.41209916,114.06202240000002,-0.43370984719999994,1.2441715640000002,0.16367796960000003,-0.6312240823999999,0.1428670476,0.6144867415999999
03:37:28,0.32579180500000005,1.2255795250000001,-0.77057395,-0.36156611,0.135147,-0.5219557100000001,-2.4592211500000003,-30.4308421,-2.39127179,112.32041185000001,-0.42782042054999997,1.2275361285000002,0.16124033740000002,-0.6255829505999999,0.1432067394,0.6092460979000001
03:37:28,0.33339089,1.21070845,-0.7716811,-0.35779478,0.135685,-0.5180245800000001,-2.4393437000000002,-30.4390218,-2.37044442,110.57880130000001,-0.4219309939,1.2109006930000001,0.1588027052,-0.6199418188,0.1435464312,0.6040054542
03:37:28,0.34098997500000006,1.195837375,-0.77278825,-0.35402345,0.13622299999999998,-0.5140934500000001,-2.41946625,-30.4472015,-2.34961705,108.83719075000002,-0.41604156724999997,1.1942652575000001,0.15636507300000002,-0.614300687,0.143886123,0.5987648105
03:37:28,0.34858906,1.1809663000000001,-0.7738954,-0.35025212,0.136761,-0.5101623200000001,-2.3995888,-30.4553812,-2.32878968,107.0955802,-0.41015214059999994,1.177629822,0.1539274408,-0.6086595552,0.1442258148,0.5935241668
03:37:28,0.35618814500000007,1.166095225,-0.77500255,-0.34648079,0.137299,-0.50623119,-2.37971135,-30.4635609,-2.3079623099999997,105.35396965000001,-0.40426271394999996,1.1609943865,0.1514898086,-0.6030184234,0.1445655066,0.5882835231
03:37:28,0.36378723,1.15122415,-0.7761097,-0.34270946,0.137837,-0.50230006,-2.3598339,-30.4717406,-2.28713494,103.6123591,-0.3983732873,1.144358951,0.1490521764,-0.5973772916,0.1449051984,0.5830428794
03:37:28,0.37138631499999997,1.1363530750000002,-0.77721685,-0.33893813,0.138375,-0.49836893000000004,-2.33995645,-30.4799203,-2.26630757,101.87074855000002,-0.39248386064999996,1.1277235155,0.14661454420000003,-0.5917361597999999,0.1452448902,0.5778022357
03:37:28,0.37898540000000003,1.121482,-0.778324,-0.3351668,0.138913,-0.49443780000000004,-2.320079,-30.4881,-2.2454802,100.12913800000001,-0.38659443399999993,1.11108808,0.14417691200000002,-0.5860950279999999,0.145584582,0.572561592
03:37:28,0.386584485,1.106610925,-0.77943115,-0.33139547,0.139451,-0.49050667000000003,-2.30020155,-30.4962797,-2.22465283,98.38752745000001,-0.38070500734999996,1.0944526445,0.1417392798,-0.5804538962,0.1459242738,0.5673209483
03:37:28,0.39418357000000004,1.0917398500000002,-0.7805383,-0.32762414,0.139989,-0.48657554000000003,-2.2803241,-30.504459400000002,-2.20382546,96.6459169,-0.3748155807,1.077817209,0.13930164760000002,-0.5748127644,0.1462639656,0.5620803046
03:37:28,0.401782655,1.0768687750000001,-0.78164545,-0.32385281,0.14052699999999999,-0.48264441,-2.26044665,-30.5126391,-2.18299809,94.90430635000001,-0.36892615404999995,1.0611817735,0.1368640154,-0.5691716326,0.1466036574,0.5568396609
03:37:28,0.40938174000000005,1.0619977,-0.7827526,-0.32008148000000003,0.141065,-0.47871328,-2.2405692,-30.5208188,-2.1621707199999998,93.16269580000001,-0.3630367274,1.044546338,0.1344263832,-0.5635305008,0.1469433492,0.5515990172
03:37:28,0.416980825,1.0471266250000002,-0.78385975,-0.31631015,0.141603,-0.47478215,-2.2206917500000003,-30.5289985,-2.14134335,91.42108525,-0.35714730074999995,1.0279109025,0.13198875100000002,-0.557889369,0.147283041,0.5463583734999999
03:37:28,0.42457991000000006,1.03225555,-0.7849669,-0.31253882,0.142141,-0.47085102,-2.2008143000000002,-30.5371782,-2.12051598,89.67947470000001,-0.3512578741,1.011275467,0.12955111880000003,-0.5522482371999999,0.1476227328,0.5411177298000001
03:37:28,0.432178995,1.017384475,-0.78607405,-0.30876749000000003,0.142679,-0.46691989,-2.18093685,-30.5453579,-2.09968861,87.93786415000001,-0.34536844744999995,0.9946400315,0.12711348660000002,-0.5466071053999999,0.1479624246,0.5358770861
03:37:28,0.43977808000000007,1.0025134,-0.7871812,-0.30499616,0.14321699999999998,-0.46298876,-2.1610594,-30.5535376,-2.07886124,86.1962536,-0.3394790208,0.9780045960000001,0.12467585440000001,-0.5409659736,0.1483021164,0.5306364424
03:37:28,0.447377165,0.987642325,-0.78828835,-0.30122483,0.143755,-0.45905763,-2.14118195,-30.5617173,-2.05803387,84.45464305000002,-0.33358959414999995,0.9613691605000001,0.12223822220000001,-0.5353248418,0.1486418082,0.5253957987
03:37:28,0.45497624999999997,0.9727712500000001,-0.7893954999999999,-0.29745350000000004,0.144293,-0.4551265,-2.1213045,-30.569897,-2.0372065,82.71303250000001,-0.3277001675,0.9447337250000001,0.11980059000000001,-0.52968371,0.1489815,0.520155155
03:37:28,0.46257533500000003,0.957900175,-0.79050265,-0.29368217,0.144831,-0.45119537000000004,-2.10142705,-30.5780767,-2.01637913,80.97142195,-0.32181074084999994,0.9280982895000001,0.11736295780000001,-0.5240425782,0.1493211918,0.5149145113
03:37:28,0.47017442,0.9430291000000001,-0.7916098,-0.28991084,0.145369,-0.44726424000000004,-2.0815495999999998,-30.5862564,-1.99555176,79.2298114,-0.31592131419999997,0.911462854,0.11492532560000002,-0.5184014464,0.1496608836,0.5096738676
03:37:28,0.47777350500000004,0.928158025,-0.79271695,-0.28613951000000004,0.145907,-0.44333311000000003,-2.0616721499999997,-30.5944361,-1.97472439,77.48820085000001,-0.31003188754999994,0.8948274185,0.1124876934,-0.5127603145999999,0.1500005754,0.5044332239
03:37:28,0.48537259,0.91328695,-0.7938240999999999,-0.28236818,0.146445,-0.43940198,-2.0417947,-30.6026158,-1.9538970199999999,75.74659030000001,-0.30414246089999997,0.878191983,0.11005006120000002,-0.5071191827999999,0.1503402672,0.4991925802
03:37:28,0.49297167500000005,0.8984158750000001,-0.79493125,-0.27859685,0.146983,-0.43547085,-2.02191725,-30.610795500000002,-1.93306965,74.00497975,-0.29825303424999994,0.8615565475000001,0.10761242900000001,-0.501478051,0.150679959,0.49395193649999997
03:37:28,0.50057076,0.8835448,-0.7960383999999999,-0.27482552000000005,0.14752099999999999,-0.43153972,-2.0020398,-30.6189752,-1.91224228,72.26336920000001,-0.29236360759999996,0.8449211120000001,0.10517479680000003,-0.49583691919999995,0.1510196508,0.4887112928
03:37:28,0.5081698450000001,0.8686737250000001,-0.79714555,-0.27105419000000003,0.148059,-0.42760859000000007,-1.98216235,-30.6271549,-1.89141491,70.52175865000001,-0.28647418094999993,0.8282856765000001,0.10273716460000001,-0.49019578739999997,0.1513593426,0.4834706491
03:37:28,0.51576893,0.85380265,-0.7982526999999999,-0.26728286,0.148597,-0.42367746000000006,-1.9622849,-30.6353346,-1.87058754,68.7801481,-0.28058475429999996,0.811650241,0.1002995324,-0.4845546556,0.1516990344,0.4782300054
03:37:28,0.523368015,0.838931575,-0.79935985,-0.26351153000000005,0.149135,-0.41974633000000006,-1.94240745,-30.6435143,-1.84976017,67.03853755000002,-0.27469532764999993,0.7950148055,0.09786190020000002,-0.47891352379999996,0.1520387262,0.4729893617
03:37:28,0.5309671,0.8240605000000001,-0.8004669999999999,-0.25974020000000003,0.149673,-0.41581520000000005,-1.92253,-30.651694,-1.8289328,65.29692700000001,-0.26880590099999996,0.77837937,0.095424268,-0.473272392,0.152378418,0.467748718
03:37:28,0.538566185,0.809189425,-0.80157415,-0.25596887,0.15021099999999998,-0.41188407000000005,-1.90265255,-30.6598737,-1.80810543,63.55531645000001,-0.26291647434999993,0.7617439345000001,0.09298663580000002,-0.46763126019999995,0.1527181098,0.46250807429999996
03:37:28,0.54616527,0.7943183500000001,-0.8026812999999999,-0.25219754000000005,0.150749,-0.40795294000000004,-1.8827751,-30.6680534,-1.78727806,61.8137059,-0.25702704769999996,0.7451084990000001,0.09054900360000001,-0.4619901284,0.1530578016,0.45726743059999997
03:37:28,0.553764355,0.779447275,-0.80378845,-0.24842621,0.151287,-0.40402181000000004,-1.86289765,-30.6762331,-1.7664506899999999,60.07209535000001,-0.2511376210499999,0.7284730635000001,0.08811137140000003,-0.45634899659999995,0.1533974934,0.4520267869
03:37:28,0.56136344,0.7645762,-0.8048955999999999,-0.24465488000000002,0.151825,-0.40009068000000003,-1.8430202,-30.6844128,-1.74562332,58.33048480000001,-0.24524819439999995,0.7118376280000001,0.08567373920000002,-0.45070786479999997,0.1537371852,0.4467861432
03:37:28,0.568962525,0.7497051250000001,-0.80600275,-0.24088355000000003,0.152363,-0.39615955,-1.82314275,-30.6925925,-1.72479595,56.58887425,-0.23935876774999998,0.6952021925,0.083236107,-0.445066733,0.154076877,0.4415454995
03:37:28,0.5765616100000001,0.73483405,-0.8071098999999999,-0.23711222,0.152901,-0.39222842,-1.8032653,-30.7007722,-1.70396858,54.84726370000001,-0.23346934109999995,0.678566757,0.08079847480000002,-0.43942560119999996,0.1544165688,0.4363048558
03:37:28,0.584160695,0.7199629750000001,-0.80821705,-0.23334089000000002,0.153439,-0.38829729,-1.78338785,-30.7089519,-1.68314121,53.10565315000001,-0.22757991444999998,0.6619313215,0.07836084260000001,-0.4337844694,0.1547562606,0.4310642121
03:37:28,0.5917597800000001,0.7050919,-0.8093241999999999,-0.22956956,0.153977,-0.38436616,-1.7635104,-30.717131600000002,-1.66231384,51.364042600000005,-0.22169048779999995,0.645295886,0.07592321040000002,-0.42814333759999995,0.1550959524,0.42582356839999996
03:37:28,0.599358865,0.6902208249999999,-0.81043135,-0.22579823000000004,0.15451499999999999,-0.38043503,-1.74363295,-30.7253113,-1.64148647,49.62243205,-0.21580106114999997,0.6286604505,0.07348557820000001,-0.4225022058,0.1554356442,0.42058292469999997
03:37:28,0.6069579500000001,0.6753497500000001,-0.8115384999999999,-0.22202690000000003,0.155053,-0.37650390000000006,-1.7237555,-30.733491,-1.6206591,47.88082150000001,-0.20991163449999994,0.612025015,0.07104794600000003,-0.41686107399999994,0.155775336,0.415342281
03:37:28,0.614557035,0.660478675,-0.81264565,-0.21825557,0.15559099999999998,-0.37257277000000005,-1.70387805,-30.7416707,-1.59983173,46.139210950000006,-0.20402220784999997,0.5953895795000002,0.06861031380000002,-0.41121994219999997,0.1561150278,0.4101016373
03:37:28,0.6221561200000001,0.6456076,-0.8137527999999999,-0.21448424,0.156129,-0.36864164000000005,-1.6840006,-30.7498504,-1.5790043599999999,44.3976004,-0.19813278119999994,0.5787541440000001,0.0661726816,-0.4055788104,0.1564547196,0.4048609936
03:37:28,0.629755205,0.6307365250000001,-0.81485995,-0.21071291000000003,0.156667,-0.36471051000000004,-1.66412315,-30.7580301,-1.55817699,42.65598985000001,-0.19224335454999997,0.5621187085000001,0.06373504940000002,-0.39993767859999996,0.1567944114,0.3996203499
03:37:28,0.6373542900000001,0.61586545,-0.8159671,-0.20694158,0.15720499999999998,-0.36077938000000004,-1.6442457,-30.7662098,-1.53734962,40.91437930000001,-0.18635392789999994,0.5454832730000001,0.06129741720000001,-0.3942965468,0.15713410319999999,0.39437970619999996
03:37:28,0.644953375,0.600994375,-0.81707425,-0.20317025,0.157743,-0.35684825000000003,-1.62436825,-30.7743895,-1.51652225,39.17276875000002,-0.18046450124999996,0.5288478375000001,0.058859785000000026,-0.38865541499999995,0.157473795,0.38913906249999997
03:37:28,0.65255246,0.5861233000000001,-0.8181814,-0.19939892000000004,0.158281,-0.35291712000000003,-1.6044908,-30.7825692,-1.49569488,37.4311582,-0.17457507459999994,0.5122124020000001,0.056422152800000014,-0.38301428319999997,0.1578134868,0.3838984188
03:37:28,0.6601515450000001,0.5712522250000001,-0.81928855,-0.19562759000000002,0.158819,-0.34898599,-1.58461335,-30.7907489,-1.47486751,35.68954765000001,-0.16868564794999996,0.49557696650000005,0.0539845206,-0.3773731514,0.1581531786,0.3786577751
03:37:28,0.66775063,0.55638115,-0.8203957,-0.19185626,0.159357,-0.34505486,-1.5647359,-30.7989286,-1.45404014,33.94793710000002,-0.16279622129999993,0.47894153100000003,0.05154688840000002,-0.37173201959999996,0.15849287039999999,0.3734171314
03:37:28,0.6753497150000001,0.5415100749999999,-0.82150285,-0.18808493000000004,0.159895,-0.34112373,-1.54485845,-30.8071083,-1.43321277,32.20632655,-0.15690679464999996,0.4623060955,0.04910925620000001,-0.3660908878,0.1588325622,0.3681764877
03:37:28,0.6829488,0.5266390000000001,-0.82261,-0.18431360000000002,0.160433,-0.33719260000000006,-1.524981,-30.815288,-1.4123854,30.46471600000001,-0.15101736799999993,0.44567066,0.04667162400000002,-0.36044975599999995,0.159172254,0.362935844
03:37:28,0.6905478850000001,0.511767925,-0.82371715,-0.18054227,0.160971,-0.33326147000000006,-1.50510355,-30.823467700000002,-1.3915580300000001,28.72310545000002,-0.14512794134999996,0.4290352245,0.04423399180000001,-0.3548086242,0.1595119458,0.35769520029999996
03:37:28,0.69814697,0.49689684999999995,-0.8248243,-0.17677094000000004,0.16150899999999999,-0.32933034000000005,-1.4852261,-30.8316474,-1.37073066,26.9814949,-0.13923851469999993,0.41239978899999996,0.04179635960000003,-0.34916749239999995,0.15985163759999999,0.35245455659999997
03:37:28,0.7057460550000001,0.4820257750000001,-0.82593145,-0.17299961000000003,0.162047,-0.32539921000000005,-1.46534865,-30.8398271,-1.34990329,25.23988435000001,-0.13334908804999995,0.39576435349999994,0.039358727400000015,-0.34352636059999997,0.1601913294,0.3472139129
03:37:28,0.71334514,0.46715470000000003,-0.8270386,-0.16922828,0.16258499999999998,-0.32146808000000004,-1.4454712,-30.8480068,-1.32907592,23.498273799999993,-0.12745966139999992,0.37912891800000015,0.036921095200000004,-0.3378852288,0.1605310212,0.3419732692
03:37:28,0.7209442250000001,0.45228362499999997,-0.82814575,-0.16545695000000005,0.163123,-0.31753695000000004,-1.42559375,-30.8561865,-1.30824855,21.756663250000003,-0.12157023474999995,0.36249348250000013,0.03448346300000002,-0.33224409699999996,0.160870713,0.3367326255
03:37:28,0.72854331,0.4374125500000001,-0.8292529,-0.16168562000000003,0.163661,-0.31360582000000004,-1.4057163,-30.8643662,-1.28742118,20.015052700000012,-0.11568080809999992,0.3458580470000001,0.03204583080000001,-0.3266029652,0.16121040479999998,0.3314919818
03:37:28,0.736142395,0.42254147500000006,-0.83036005,-0.15791429,0.16419899999999998,-0.30967469000000003,-1.38583885,-30.8725459,-1.26659381,18.273442149999994,-0.10979138144999989,0.3292226115000001,0.029608198600000024,-0.32096183339999995,0.1615500966,0.32625133809999995
03:37:28,0.7437414800000001,0.4076704,-0.8314672,-0.15414296000000005,0.164737,-0.30574356,-1.3659614,-30.8807256,-1.2457664400000001,16.531831600000004,-0.10390195479999997,0.3125871760000001,0.027170566400000012,-0.3153207016,0.1618897884,0.32101069439999996
03:37:28,0.751340565,0.3927993249999999,-0.83257435,-0.15037163000000003,0.165275,-0.30181243,-1.34608395,-30.8889053,-1.22493907,14.790221050000014,-0.09801252814999994,0.29595174050000006,0.02473293420000003,-0.3096795698,0.1622294802,0.31577005069999997
03:37:28,0.7589396500000001,0.3779282500000001,-0.8336815,-0.14660030000000002,0.165813,-0.2978813,-1.3262065,-30.897085,-1.2041117000000001,13.048610499999995,-0.09212310149999992,0.27931630500000004,0.022295302000000017,-0.30403843799999997,0.16256917199999998,0.310529407
03:37:28,0.766538735,0.363057175,-0.83478865,-0.14282897,0.166351,-0.29395017000000007,-1.30632905,-30.9052647,-1.18328433,11.306999950000005,-0.08623367484999989,0.2626808695,0.019857669800000005,-0.29839730619999993,0.1629088638,0.3052887633
03:37:28,0.7741378200000001,0.34818609999999994,-0.8358958,-0.13905764000000004,0.166889,-0.29001904000000006,-1.2864516,-30.9134444,-1.16245696,9.565389400000015,-0.08034424819999997,0.246045434,0.01742003760000002,-0.2927561744,0.1632485556,0.3000481196
03:37:28,0.781736905,0.3333150250000001,-0.83700295,-0.13528631000000002,0.167427,-0.28608791000000006,-1.26657415,-30.9216241,-1.14162959,7.8237788499999965,-0.07445482154999994,0.2294099985,0.01498240540000001,-0.2871150426,0.1635882474,0.29480747589999995
03:37:28,0.7893359900000001,0.31844395000000003,-0.8381101,-0.13151498,0.167965,-0.28215678000000005,-1.2466967,-30.929803800000002,-1.12080222,6.082168300000006,-0.06856539489999991,0.21277456299999997,0.012544773200000026,-0.28147391079999995,0.16392793919999998,0.28956683219999996
03:37:28,0.796935075,0.30357287499999996,-0.83921725,-0.12774365000000004,0.168503,-0.27822565000000005,-1.22681925,-30.9379835,-1.09997485,4.340557750000016,-0.06267596824999988,0.19613912749999995,0.010107141000000014,-0.2758327789999999,0.164267631,0.28432618849999997
03:37:28,0.8045341600000001,0.2887017999999999,-0.8403244,-0.12397232000000002,0.169041,-0.27429452000000004,-1.2069418,-30.9461632,-1.07914748,2.598947199999998,-0.05678654159999996,0.17950369200000016,0.007669508800000002,-0.2701916472,0.1646073228,0.2790855447999999
03:37:28,0.8121332450000001,0.27383072500000005,-0.84143155,-0.12020099000000001,0.16957899999999998,-0.27036339000000004,-1.18706435,-30.9543429,-1.05832011,0.8573366500000077,-0.05089711494999993,0.16286825650000014,0.005231876600000018,-0.26455051539999996,0.1649470146,0.2738449010999999
03:37:28,0.81973233,0.25895965,-0.8425387,-0.11642966000000005,0.170117,-0.26643226000000003,-1.1671869,-30.9625226,-1.0374927400000002,-0.8842738999999824,-0.045007688299999904,0.14623282100000012,0.0027942444000000066,-0.25890938359999993,0.16528670639999998,0.26860425739999993
03:37:28,0.8273314150000001,0.24408857499999992,-0.8436458499999999,-0.11265833000000003,0.170655,-0.26250113,-1.1473094499999998,-30.9707023,-1.0166653700000001,-2.625884450000001,-0.039118261649999986,0.1295973855000001,0.0003566122000000227,-0.2532682518,0.1656263982,0.26336361369999994
03:37:28,0.8349305,0.22921750000000007,-0.844753,-0.10888700000000001,0.17119299999999998,-0.25857,-1.127432,-30.978882,-0.995838,-4.367494999999991,-0.03322883499999996,0.11296195000000009,-0.002081019999999989,-0.24762711999999998,0.16596609,0.25812296999999995
03:37:28,0.8425295850000001,0.214346425,-0.84586015,-0.10511567000000005,0.171731,-0.25463887,-1.1075545500000001,-30.9870617,-0.9750106299999999,-6.1091055500000095,-0.027339408349999927,0.09632651450000007,-0.004518652199999973,-0.24198598819999995,0.1663057818,0.25288232629999996
03:37:28,0.85012867,0.19947534999999994,-0.8469673,-0.10134434000000003,0.172269,-0.25070774000000007,-1.0876771,-30.9952414,-0.9541832600000002,-7.8507161,-0.021449981699999898,0.07969107900000005,-0.006956284399999985,-0.23634485639999991,0.16664547359999998,0.24764168259999997
03:37:28,0.8577277550000001,0.1846042750000001,-0.8480744499999999,-0.09757301000000002,0.172807,-0.24677661000000006,-1.06779965,-31.0034211,-0.9333558900000001,-9.59232664999999,-0.01556055504999998,0.06305564350000004,-0.009393916599999996,-0.2307037246,0.1669851654,0.24240103889999998
03:37:28,0.86532684,0.16973320000000003,-0.8491816,-0.09380168,0.173345,-0.24284548000000006,-1.0479222,-31.0116008,-0.91252852,-11.333937200000008,-0.009671128399999951,0.04642020800000002,-0.01183154879999998,-0.22506259279999996,0.1673248572,0.23716039519999998
03:37:28,0.8729259250000001,0.15486212499999996,-0.85028875,-0.09003035000000004,0.173883,-0.23891435000000005,-1.0280447499999998,-31.0197805,-0.8917011500000003,-13.075547749999998,-0.0037817017499999217,0.0297847725,-0.014269180999999964,-0.21942146099999993,0.167664549,0.2319197515
03:37:28,0.88052501,0.1399910499999999,-0.8513959,-0.08625902000000002,0.174421,-0.23498322000000005,-1.0081672999999998,-31.0279602,-0.8708737800000002,-14.817158299999988,0.0021077249000001075,0.013149336999999983,-0.016706813200000004,-0.2137803292,0.16800424079999998,0.2266791078
03:37:28,0.888124095,0.12511997500000005,-0.8525030499999999,-0.08248769,0.17495899999999998,-0.23105209000000004,-0.9882898500000001,-31.036139900000002,-0.85004641,-16.558768850000007,0.007997151550000026,-0.0034860985000000344,-0.019144445399999988,-0.20813919739999998,0.1683439326,0.2214384641
03:37:28,0.8957231800000001,0.11024889999999998,-0.8536102,-0.07871636000000004,0.175497,-0.22712096000000004,-0.9684124000000001,-31.0443196,-0.8292190399999999,-18.300379399999997,0.013886578200000055,-0.020121534000000052,-0.02158207759999997,-0.20249806559999994,0.1686836244,0.21619782040000002
03:37:28,0.903322265,0.09537782499999992,-0.8547173499999999,-0.07494503000000002,0.176035,-0.22318983000000003,-0.94853495,-31.0524993,-0.8083916700000002,-20.041989949999987,0.019776004850000084,-0.03675696949999985,-0.02401970980000001,-0.19685693380000002,0.1690233162,0.21095717669999992
03:37:28,0.9109213500000001,0.08050675000000007,-0.8558245,-0.0711737,0.17657299999999998,-0.21925870000000003,-0.9286574999999999,-31.060679,-0.7875643000000001,-21.783600500000006,0.025665431500000113,-0.053392404999999865,-0.026457341999999995,-0.191215802,0.169363008,0.20571653299999992
03:37:28,0.918520435,0.065635675,-0.8569316499999999,-0.06740237000000004,0.177111,-0.21532757000000002,-0.9087800499999998,-31.0688587,-0.76673693,-23.525211049999996,0.03155485815000003,-0.07002784049999988,-0.02889497419999998,-0.18557467019999996,0.1697026998,0.20047588929999993
03:37:28,0.9261195200000001,0.05076459999999994,-0.8580388,-0.06363104000000003,0.177649,-0.21139644000000002,-0.8889025999999998,-31.0770384,-0.7459095600000003,-25.266821599999986,0.03744428480000006,-0.0866632759999999,-0.03133260639999996,-0.17993353839999993,0.1700423916,0.19523524559999994
03:37:28,0.933718605,0.03589352500000009,-0.85914595,-0.05985971000000001,0.17818699999999998,-0.20746531000000007,-0.8690251500000001,-31.0852181,-0.7250821900000002,-27.008432150000004,0.04333371145000009,-0.10329871149999992,-0.0337702386,-0.1742924066,0.1703820834,0.18999460189999995
03:37:28,0.9413176900000001,0.021022450000000026,-0.8602531,-0.05608838000000005,0.178725,-0.20353418000000006,-0.8491477000000001,-31.0933978,-0.7042548200000001,-28.750042699999995,0.04922313810000012,-0.11993414699999994,-0.036207870799999986,-0.16865127479999997,0.1707217752,0.18475395819999996
03:37:28,0.948916775,0.006151374999999959,-0.8613602499999999,-0.05231705000000003,0.179263,-0.19960305000000006,-0.82927025,-31.1015775,-0.6834274499999999,-30.491653249999985,0.05511256475000004,-0.13656958249999995,-0.03864550299999997,-0.16301014299999994,0.171061467,0.17951331449999997
03:37:28,0.9565158600000001,-0.008719700000000108,-0.8624674,-0.048545720000000014,0.179801,-0.19567192000000005,-0.8093927999999999,-31.1097572,-0.6626000800000003,-32.2332638,0.061001991400000066,-0.15320501799999997,-0.04108313520000001,-0.15736901120000002,0.1714011588,0.17427267079999997
03:37:28,0.9641149450000001,-0.023590774999999953,-0.8635745499999999,-0.04477439000000005,0.180339,-0.19174079000000005,-0.7895153499999998,-31.1179369,-0.6417727100000001,-33.97487434999999,0.0668914180500001,-0.1698404535,-0.04352076739999999,-0.1517278794,0.1717408506,0.16903202709999998
03:37:28,0.97171403,-0.03846185000000002,-0.8646817,-0.041003060000000036,0.180877,-0.18780966000000004,-0.7696378999999998,-31.1261166,-0.62094534,-35.71648489999998,0.07278084470000012,-0.186475889,-0.04595839959999998,-0.14608674759999996,0.1720805424,0.1637913834
03:37:28,0.9793131150000001,-0.053332925000000087,-0.8657888499999999,-0.03723173000000002,0.181415,-0.18387853000000004,-0.7497604500000001,-31.1342963,-0.6001179699999999,-37.45809545,0.07867027135000004,-0.20311132450000002,-0.04839603179999996,-0.14044561579999992,0.1724202342,0.1585507397
03:37:28,0.9869122,-0.06820399999999993,-0.866896,-0.03346040000000006,0.18195299999999998,-0.17994740000000004,-0.7298830000000001,-31.142476000000002,-0.5792906000000002,-39.19970599999999,0.08455969800000007,-0.21974676000000004,-0.050833664,-0.134804484,0.172759926,0.153310096
03:37:28,0.9945112850000001,-0.083075075,-0.86800315,-0.02968907000000004,0.182491,-0.17601627000000003,-0.71000555,-31.1506557,-0.5584632300000001,-40.94131655000001,0.0904491246500001,-0.23638219549999984,-0.053271296199999985,-0.12916335219999997,0.1730996178,0.14806945230000002
03:37:28,1.00211037,-0.09794615000000007,-0.8691103,-0.025917740000000022,0.183029,-0.17208514000000003,-0.6901280999999999,-31.1588354,-0.53763586,-42.6829271,0.09633855130000013,-0.25301763099999985,-0.05570892839999997,-0.12352222039999994,0.1734393096,0.1428288085999999
03:37:28,1.009709455,-0.11281722499999991,-0.87021745,-0.022146410000000005,0.18356699999999998,-0.16815401000000008,-0.6702506499999998,-31.1670151,-0.5168084900000003,-44.42453764999999,0.10222797795000005,-0.26965306649999987,-0.05814656060000001,-0.11788108860000002,0.1737790014,0.13758816489999992
03:37:28,1.01730854,-0.12768829999999998,-0.8713246,-0.018375080000000044,0.184105,-0.16422288000000007,-0.6503731999999998,-31.1751948,-0.49598112000000016,-46.16614820000001,0.10811740460000008,-0.2862885019999999,-0.06058419279999999,-0.11223995679999998,0.1741186932,0.13234752119999993
03:37:28,1.024907625,-0.14255937500000004,-0.87243175,-0.014603750000000026,0.184643,-0.16029175000000007,-0.6304957500000001,-31.1833745,-0.47515375000000004,-47.90775875,0.1140068312500001,-0.3029239374999999,-0.06302182499999998,-0.10659882499999995,0.174458385,0.12710687749999994
03:37:28,1.03250671,-0.1574304500000001,-0.8735389,-0.01083242000000001,0.18518099999999998,-0.15636062000000006,-0.6106183000000001,-31.1915542,-0.4543263799999999,-49.64936929999999,0.11989625790000014,-0.3195593729999999,-0.06545945719999996,-0.10095769319999992,0.1747980768,0.12186623379999995
03:37:28,1.040105795,-0.17230152499999996,-0.87464605,-0.007061090000000048,0.185719,-0.15242949000000006,-0.59074085,-31.199733900000002,-0.43349901000000024,-51.39097985000001,0.12578568455000005,-0.33619480849999994,-0.0678970894,-0.0953165614,0.1751377686,0.11662559009999995
03:37:28,1.04770488,-0.18717260000000002,-0.8757532,-0.0032897600000000304,0.186257,-0.14849836000000005,-0.5708633999999999,-31.2079136,-0.4126716400000001,-53.1325904,0.13167511120000008,-0.35283024399999996,-0.07033472159999998,-0.08967542959999997,0.1754774604,0.11138494639999996
03:37:28,1.055303965,-0.2020436750000001,-0.87686035,0.00048156999999998673,0.186795,-0.14456723000000005,-0.5509859499999998,-31.2160933,-0.39184427,-54.87420094999999,0.1375645378500001,-0.3694656795,-0.07277235379999997,-0.08403429779999994,0.1758171522,0.10614430269999997
03:37:28,1.06290305,-0.21691474999999993,-0.8779675,0.004252899999999948,0.18733299999999997,-0.14063610000000004,-0.5311084999999998,-31.224273,-0.3710169000000003,-56.61581150000001,0.14345396450000003,-0.386101115,-0.075209986,-0.07839316600000001,0.176156844,0.10090365899999998
03:37:28,1.070502135,-0.231785825,-0.87907465,0.008024229999999966,0.187871,-0.13670497000000004,-0.5112310499999997,-31.2324527,-0.3501895300000002,-58.35742205,0.14934339115000006,-0.4027365505,-0.07764761819999999,-0.07275203419999998,0.1764965358,0.09566301529999999
03:37:28,1.07810122,-0.24665690000000007,-0.8801818,0.011795559999999983,0.188409,-0.13277384000000003,-0.49135360000000006,-31.2406324,-0.32936216000000007,-60.09903259999999,0.1552328178000001,-0.41937198600000003,-0.08008525039999997,-0.06711090239999995,0.1768362276,0.0904223716
03:37:28,1.085700305,-0.26152797500000013,-0.88128895,0.01556689,0.18894699999999998,-0.12884271000000003,-0.47147615,-31.248812100000002,-0.30853478999999995,-61.840643150000005,0.16112224445000012,-0.43600742150000005,-0.08252288259999996,-0.06146977059999992,0.1771759194,0.0851817279
03:37:28,1.0932993899999999,-0.27639905,-0.8823961,0.01933821999999996,0.189485,-0.12491158000000002,-0.4515986999999999,-31.2569918,-0.28770742000000027,-63.582253699999995,0.16701167110000004,-0.45264285700000007,-0.0849605148,-0.0558286388,0.1775156112,0.07994108420000001
03:37:28,1.100898475,-0.2912701249999998,-0.88350325,0.023109549999999923,0.190023,-0.12098045000000002,-0.43172124999999983,-31.2651715,-0.26688005000000015,-65.32386424999999,0.17290109775000007,-0.4692782925000001,-0.08739814699999998,-0.050187506999999965,0.177855303,0.07470044049999991
03:37:28,1.10849756,-0.3061412000000001,-0.8846104,0.026880879999999996,0.19056099999999998,-0.11704932000000001,-0.41184379999999976,-31.2733512,-0.24605268000000002,-67.0654748,0.1787905244000001,-0.4859137280000001,-0.08983577919999997,-0.04454637519999993,0.1781949948,0.06945979679999992
03:37:28,1.116096645,-0.32101227499999996,-0.88571755,0.030652209999999958,0.191099,-0.11311819000000001,-0.3919663499999997,-31.2815309,-0.22522531000000034,-68.80708535,0.18467995105000012,-0.5025491635000001,-0.0922734114,-0.03890524340000001,0.1785346866,0.06421915309999993
03:37:28,1.12369573,-0.33588335000000025,-0.8868247,0.03442353999999992,0.191637,-0.10918706,-0.37208890000000006,-31.2897106,-0.20439794000000022,-70.54869590000001,0.19056937770000004,-0.5191845990000001,-0.09471104359999999,-0.03326411159999998,0.1788743784,0.058978509399999934
03:37:28,1.131294815,-0.3507544250000001,-0.88793185,0.03819486999999999,0.19217499999999998,-0.10525593000000011,-0.35221145,-31.2978903,-0.1835705700000001,-72.29030645,0.19645880435000007,-0.5358200345000002,-0.09714867579999997,-0.027622979799999947,0.1792140702,0.05373786569999994
03:37:28,1.1388939,-0.36562549999999994,-0.889039,0.041966199999999954,0.192713,-0.1013248000000001,-0.3323339999999999,-31.306070000000002,-0.16274319999999998,-74.03191699999999,0.2023482310000001,-0.5524554700000002,-0.09958630799999996,-0.021981847999999915,0.179553762,0.04849722199999995
03:37:28,1.1464929849999999,-0.3804965750000002,-0.89014615,0.045737529999999915,0.193251,-0.0973936700000001,-0.31245654999999983,-31.3142497,-0.1419158300000003,-75.77352755000001,0.20823765765000013,-0.5690909054999997,-0.1020239402,-0.016340716199999994,0.1798934538,0.04325657829999996
03:37:28,1.15409207,-0.39536765000000007,-0.8912533,0.04950885999999999,0.193789,-0.0934625400000001,-0.29257909999999976,-31.3224294,-0.12108846000000018,-77.5151381,0.21412708430000005,-0.5857263409999998,-0.10446157239999998,-0.010699584399999962,0.1802331456,0.03801593459999997
03:37:28,1.161691155,-0.4102387249999999,-0.89236045,0.05328018999999995,0.19432699999999997,-0.08953141000000009,-0.2727016499999997,-31.3306091,-0.10026109000000005,-79.25674864999999,0.22001651095000008,-0.6023617764999998,-0.10689920459999996,-0.00505845259999993,0.1805728374,0.032775290899999976
03:37:28,1.16929024,-0.4251098000000002,-0.8934675999999999,0.05705152000000002,0.194865,-0.08560028000000008,-0.25282420000000005,-31.3387888,-0.07943371999999993,-80.99835920000001,0.2259059376000001,-0.6189972119999998,-0.1093368368,0.0005826791999999914,0.1809125292,0.027534647199999984
03:37:28,1.1768893249999999,-0.43998087500000005,-0.89457475,0.060822849999999984,0.195403,-0.08166915000000008,-0.23294674999999998,-31.3469685,-0.05860635000000025,-82.73996975,0.23179536425000014,-0.6356326474999998,-0.11177446899999999,0.0062238110000000235,0.181252221,0.022294003499999993
03:37:28,1.18448841,-0.4548519499999999,-0.8956819,0.06459417999999995,0.19594099999999998,-0.07773802000000007,-0.2130692999999999,-31.355148200000002,-0.03777898000000013,-84.48158029999999,0.23768479090000005,-0.6522680829999998,-0.11421210119999997,0.011864942800000056,0.1815919128,0.0170533598
03:37:28,1.192087495,-0.4697230250000002,-0.89678905,0.06836551000000002,0.196479,-0.07380689000000007,-0.19319184999999983,-31.3633279,-0.016951610000000006,-86.22319084999998,0.24357421755000008,-0.6689035184999998,-0.11664973339999996,0.017506074600000088,0.1819316046,0.01181271610000001
03:37:28,1.19968658,-0.4845941,-0.8978961999999999,0.07213683999999998,0.197017,-0.06987576000000006,-0.17331439999999976,-31.3715076,0.003875759999999673,-87.9648014,0.2494636442000001,-0.6855389539999999,-0.1190873656,0.02314720640000001,0.1822712964,0.0065720723999999064
03:37:28,1.207285665,-0.4994651749999999,-0.89900335,0.07590816999999994,0.19755499999999998,-0.06594463000000006,-0.15343694999999968,-31.3796873,0.024703129999999796,-89.70641195000002,0.25535307085000014,-0.7021743894999999,-0.12152499779999998,0.02878833820000004,0.1826109882,0.0013314286999999148
03:37:28,1.21488475,-0.5143362500000002,-0.9001105,0.07967950000000001,0.198093,-0.062013500000000055,-0.13355950000000005,-31.387867,0.04553049999999992,-91.44802249999998,0.26124249750000006,-0.7188098249999999,-0.12396262999999996,0.03442947000000007,0.18295068,-0.003909215000000077
03:37:28,1.222483835,-0.529207325,-0.90121765,0.08345082999999998,0.198631,-0.05808237000000005,-0.11368204999999998,-31.3960467,0.06635787000000004,-93.18963305,0.2671319241500001,-0.7354452604999999,-0.1264002622,0.040070601799999994,0.18329037180000002,-0.009149858700000069
03:37:28,1.2300829199999999,-0.5440783999999999,-0.9023247999999999,0.08722215999999994,0.19916899999999998,-0.054151240000000045,-0.0938045999999999,-31.4042264,0.08718523999999972,-94.93124360000002,0.2730213508000001,-0.7520806959999999,-0.12883789439999999,0.045711733600000026,0.1836300636,-0.01439050240000006
03:37:28,1.237682005,-0.5589494750000001,-0.90343195,0.09099349000000001,0.199707,-0.05022011000000004,-0.07392714999999983,-31.412406100000002,0.10801260999999984,-96.67285414999998,0.27891077745000015,-0.7687161315,-0.13127552659999997,0.05135286540000006,0.1839697554,-0.019631146100000052
03:37:28,1.24528109,-0.57382055,-0.9045391,0.09476481999999997,0.200245,-0.046288980000000035,-0.054049699999999756,-31.4205858,0.12883997999999997,-98.4144647,0.28480020410000007,-0.785351567,-0.1337131588,0.05699399719999998,0.1843094472,-0.024871789800000044
03:37:28,1.252880175,-0.5886916249999998,-0.90564625,0.09853614999999993,0.200783,-0.04235785000000003,-0.03417224999999968,-31.4287655,0.14966734999999964,-100.15607525000001,0.2906896307500001,-0.8019870025,-0.136150791,0.06263512900000001,0.18464913900000002,-0.030112433500000035
03:37:28,1.2604792599999999,-0.6035627000000001,-0.9067533999999999,0.10230748,0.20132099999999997,-0.038426720000000025,-0.014294800000000052,-31.4369452,0.17049471999999977,-101.89768579999998,0.2965790574000001,-0.818622438,-0.13858842319999998,0.06827626080000004,0.1849888308,-0.03535307720000003
03:37:28,1.268078345,-0.618433775,-0.90786055,0.10607880999999997,0.201859,-0.03449559000000002,0.005582650000000022,-31.4451249,0.1913220899999999,-103.63929635,0.30246848405000015,-0.8352578735,-0.14102605539999996,0.07391739260000008,0.1853285226,-0.04059372090000002
03:37:28,1.27567743,-0.6333048500000003,-0.9089677,0.10985013999999993,0.202397,-0.030564460000000016,0.025460100000000097,-31.4533046,0.21214946,-105.38090690000001,0.30835791070000007,-0.851893309,-0.1434636876,0.0795585244,0.1856682144,-0.04583436460000001
03:37:28,1.283276515,-0.6481759250000001,-0.91007485,0.11362147,0.20293499999999998,-0.02663333000000001,0.04533755000000017,-31.461484300000002,0.2329768299999997,-107.12251744999998,0.3142473373500001,-0.8685287445000001,-0.14590131979999998,0.08519965620000003,0.18600790620000002,-0.0510750083
03:37:28,1.2908756,-0.6630469999999999,-0.9111819999999999,0.11739279999999996,0.203473,-0.022702200000000117,0.06521500000000024,-31.469664,0.2538041999999998,-108.864128,0.32013676400000013,-0.8851641800000001,-0.14833895199999997,0.09084078800000006,0.186347598,-0.056315651999999994
03:37:28,1.298474685,-0.6779180750000002,-0.91228915,0.12116412999999993,0.204011,-0.018771070000000112,0.08509245000000032,-31.4778437,0.27463156999999994,-110.60573855000001,0.32602619065000005,-0.9017996155000001,-0.1507765842,0.09648191979999998,0.1866872898,-0.0615562957000001
03:37:28,1.30607377,-0.6927891500000001,-0.9133963,0.12493546,0.20454899999999998,-0.014839940000000107,0.10496989999999995,-31.4860234,0.2954589399999996,-112.34734909999997,0.3319156173000001,-0.9184350510000001,-0.1532142164,0.10212305160000001,0.1870269816,-0.06679693940000009
03:37:28,1.3136728549999999,-0.7076602249999999,-0.91450345,0.12870678999999996,0.205087,-0.010908810000000102,0.12484735000000002,-31.4942031,0.31628630999999974,-114.08895964999999,0.3378050439500001,-0.9350704865000001,-0.15565184859999998,0.10776418340000005,0.18736667340000002,-0.07203758310000008
03:37:28,1.32127194,-0.7225313000000002,-0.9156105999999999,0.13247811999999992,0.205625,-0.006977680000000097,0.1447248000000001,-31.5023828,0.33711367999999986,-115.83057020000001,0.34369447060000013,-0.9517059220000001,-0.15808948079999996,0.11340531520000008,0.1877063652,-0.07727822680000007
03:37:28,1.328871025,-0.737402375,-0.91671775,0.13624945,0.20616299999999999,-0.0030465500000000922,0.16460225000000017,-31.510562500000002,0.35794105,-117.57218075000003,0.34958389725000005,-0.9683413575000002,-0.160527113,0.119046447,0.188046057,-0.08251887050000006
03:37:28,1.33647011,-0.7522734499999999,-0.9178249,0.14002077999999996,0.206701,0.0008845799999999127,0.18447970000000025,-31.518742200000002,0.37876841999999966,-119.31379129999999,0.3554733239000001,-0.9849767930000002,-0.16296474519999998,0.12468757880000003,0.1883857488,-0.08775951420000005
03:37:28,1.3440691949999999,-0.7671445250000002,-0.91893205,0.14379210999999992,0.207239,0.0048157099999999176,0.20435715000000032,-31.5269219,0.3995957899999998,-121.05540185000001,0.3613627505500001,-1.0016122284999998,-0.16540237739999997,0.13032871060000006,0.18872544060000002,-0.09300015790000005
03:37:28,1.35166828,-0.7820156,-0.9200392,0.14756344,0.207777,0.008746839999999922,0.22423459999999995,-31.5351016,0.4204231599999999,-122.79701240000003,0.36725217720000014,-1.0182476639999998,-0.1678400096,0.13596984239999999,0.1890651324,-0.09824080160000004
03:37:28,1.359267365,-0.7968866749999999,-0.92114635,0.15133476999999995,0.20831499999999997,0.012677969999999927,0.24411205000000002,-31.5432813,0.4412505299999996,-124.53862294999999,0.37314160385000006,-1.0348830994999998,-0.1702776418,0.14161097420000002,0.1894048242,-0.10348144530000003
03:37:28,1.36686645,-0.8117577500000002,-0.9222535,0.1551060999999999,0.208853,0.016609099999999932,0.2639895000000001,-31.551461,0.4620778999999997,-126.28023350000001,0.3790310305000001,-1.0515185349999998,-0.17271527399999997,0.14725210600000005,0.189744516,-0.10872208900000002
03:37:28,1.374465535,-0.826628825,-0.92336065,0.15887743,0.209391,0.020540229999999937,0.2838669500000002,-31.5596407,0.48290526999999983,-128.02184405000003,0.3849204571500001,-1.0681539704999998,-0.17515290619999996,0.15289323780000008,0.19008420780000002,-0.11396273270000001
03:37:28,1.38206462,-0.8414998999999999,-0.9244678,0.16264875999999995,0.20992899999999998,0.024471359999999942,0.30374440000000025,-31.567820400000002,0.50373264,-129.7634546,0.39080988380000015,-1.0847894059999998,-0.1775905384,0.1585343696,0.1904238996,-0.1192033764
03:37:28,1.389663705,-0.8563709750000001,-0.92557495,0.1664200899999999,0.210467,0.028402489999999947,0.3236218500000003,-31.5760001,0.5245600099999996,-131.50506515,0.3966993104500002,-1.1014248414999999,-0.18002817059999998,0.16417550140000003,0.1907635914,-0.12444402010000011
03:37:28,1.3972627899999999,-0.87124205,-0.9266821,0.17019141999999998,0.211005,0.03233361999999995,0.34349929999999995,-31.5841798,0.5453873799999998,-133.24667570000003,0.4025887371000002,-1.1180602769999999,-0.18246580279999997,0.16981663320000007,0.1911032832,-0.1296846638000001
03:37:28,1.404861875,-0.8861131250000003,-0.92778925,0.17396274999999994,0.21154299999999998,0.03626474999999996,0.36337675,-31.5923595,0.5662147499999999,-134.98828625,0.40847816375,-1.1346957125,-0.184903435,0.175457765,0.19144297500000002,-0.1349253075000001
03:37:28,1.41246096,-0.9009842000000001,-0.9288964,0.1777340799999999,0.212081,0.04019587999999996,0.3832542000000001,-31.6005392,0.5870421199999996,-136.7298968,0.41436759040000004,-1.151331148,-0.1873410672,0.18109889680000002,0.1917826668,-0.14016595120000008
03:37:28,1.420060045,-0.915855275,-0.93000355,0.18150540999999998,0.212619,0.04412700999999997,0.4031316500000002,-31.6087189,0.6078694899999997,-138.47150735000002,0.42025701705000007,-1.1679665835,-0.18977869939999997,0.18674002860000005,0.1921223586,-0.14540659490000007
03:37:28,1.4276591299999999,-0.9307263500000003,-0.9311107,0.18527673999999994,0.21315699999999999,0.04805813999999997,0.42300910000000025,-31.616898600000003,0.6286968599999998,-140.2131179,0.4261464437000001,-1.184602019,-0.19221633159999996,0.19238116039999997,0.1924620504,-0.15064723860000007
03:37:28,1.435258215,-0.9455974250000001,-0.93221785,0.18904807,0.213695,0.051989269999999976,0.4428865500000003,-31.625078300000002,0.6495242299999999,-141.95472845,0.43203587035000013,-1.2012374545,-0.1946539638,0.1980222922,0.19280174220000001,-0.15588788230000006
03:37:28,1.4428573,-0.9604685,-0.933325,0.19281939999999997,0.214233,0.05592039999999998,0.46276399999999995,-31.633258,0.6703515999999996,-143.69633900000002,0.43792529700000016,-1.21787289,-0.19709159599999998,0.20366342400000004,0.193141434,-0.16112852600000005
03:37:28,1.450456385,-0.9753395750000002,-0.93443215,0.19659072999999994,0.214771,0.059851529999999986,0.48264145,-31.6414377,0.6911789699999997,-145.43794954999998,0.4438147236500002,-1.2345083255,-0.19952922819999996,0.20930455580000007,0.1934811258,-0.16636916970000004
03:37:28,1.45805547,-0.9902106500000001,-0.9355393,0.20036206,0.21530899999999997,0.06378265999999988,0.5025189000000001,-31.6496174,0.7120063399999998,-147.1795601,0.4497041503000002,-1.251143761,-0.2019668604,0.2149456876000001,0.1938208176,-0.17160981340000003
03:37:28,1.465654555,-1.005081725,-0.93664645,0.20413338999999997,0.21584699999999998,0.06771378999999988,0.5223963500000002,-31.6577971,0.73283371,-148.92117065000002,0.45559357695,-1.2677791965,-0.2044044926,0.22058681940000013,0.19416050940000001,-0.17685045710000002
03:37:28,1.47325364,-1.0199528000000002,-0.9377536,0.20790471999999993,0.216385,0.07164491999999989,0.5422738000000003,-31.665976800000003,0.7536610799999997,-150.66278119999998,0.46148300360000005,-1.284414632,-0.20684212479999997,0.22622795119999994,0.1945002012,-0.18209110080000002
03:37:28,1.4808527249999999,-1.034823875,-0.93886075,0.21167605,0.21692299999999998,0.0755760499999999,0.5621512500000003,-31.674156500000002,0.7744884499999998,-152.40439175,0.4673724302500001,-1.3010500675,-0.20927975699999996,0.23186908299999998,0.194839893,-0.1873317445
03:37:28,1.48845181,-1.04969495,-0.9399679,0.21544737999999997,0.217461,0.0795071799999999,0.5820287,-31.6823362,0.7953158199999999,-154.14600230000002,0.4732618569000001,-1.317685503,-0.2117173892,0.2375102148,0.1951795848,-0.1925723882000001
03:37:28,1.496050895,-1.0645660250000002,-0.94107505,0.21921870999999993,0.217999,0.0834383099999999,0.60190615,-31.6905159,0.8161431899999996,-155.88761284999998,0.47915128355000014,-1.3343209385,-0.21415502139999998,0.24315134660000004,0.1955192766,-0.1978130319000001
03:37:28,1.50364998,-1.0794371,-0.9421822,0.22299004,0.21853699999999998,0.08736943999999991,0.6217836000000001,-31.6986956,0.8369705599999997,-157.6292234,0.48504071020000017,-1.3509563740000001,-0.21659265359999996,0.24879247840000007,0.1958589684,-0.2030536756000001
03:37:28,1.511249065,-1.0943081749999999,-0.94328935,0.22676136999999996,0.219075,0.09130056999999991,0.6416610500000002,-31.7068753,0.8577979299999998,-159.37083395000002,0.4909301368500002,-1.3675918095000001,-0.2190302858,0.2544336102000001,0.19619866019999999,-0.20829431930000009
03:37:28,1.51884815,-1.1091792500000002,-0.9443965,0.23053269999999992,0.219613,0.09523169999999992,0.6615385000000003,-31.715055,0.8786252999999999,-161.11244449999998,0.4968195635000002,-1.3842272450000002,-0.22146791799999999,0.26007474200000014,0.196538352,-0.21353496300000008
03:37:28,1.526447235,-1.124050325,-0.94550365,0.23430403,0.22015099999999999,0.09916282999999992,0.6814159500000003,-31.723234700000003,0.8994526699999996,-162.85405505,0.50270899015,-1.4008626805000002,-0.22390555019999997,0.26571587379999995,0.1968780438,-0.21877560670000007
03:37:28,1.53404632,-1.1389214000000003,-0.9466108,0.23807535999999996,0.220689,0.10309395999999993,0.7012934,-31.731414400000002,0.9202800399999997,-164.59566560000002,0.5085984168000001,-1.4174981159999998,-0.2263431824,0.2713570056,0.1972177356,-0.22401625040000017
03:37:28,1.541645405,-1.1537924750000002,-0.9477179499999999,0.24184668999999992,0.221227,0.10702508999999993,0.72117085,-31.7395941,0.9411074099999999,-166.33727614999998,0.5144878434500001,-1.4341335514999998,-0.2287808146,0.2769981374,0.19755742739999999,-0.22925689410000005
03:37:28,1.54924449,-1.16866355,-0.9488251,0.24561802,0.221765,0.11095621999999994,0.7410483000000001,-31.7477738,0.96193478,-168.0788867,0.5203772701000001,-1.4507689869999998,-0.23121844679999998,0.28263926920000004,0.1978971192,-0.23449753780000016
03:37:28,1.556843575,-1.1835346250000003,-0.94993225,0.24938934999999995,0.22230299999999997,0.11488734999999994,0.7609257500000002,-31.7559535,0.9827621500000001,-169.82049725000002,0.5262666967500002,-1.4674044224999998,-0.23365607899999996,0.2882804010000001,0.198236811,-0.23973818150000004
03:37:28,1.5644426599999999,-1.1984057000000001,-0.9510394,0.2531606799999999,0.22284099999999998,0.11881847999999995,0.7808032000000003,-31.7641332,1.0035895199999993,-171.56210779999998,0.5321561234000002,-1.4840398579999998,-0.2360937112,0.2939215328000001,0.1985765028,-0.24497882520000014
03:37:28,1.572041745,-1.213276775,-0.9521465499999999,0.25693201,0.223379,0.12274960999999995,0.8006806500000003,-31.772312900000003,1.0244168899999995,-173.30371835,0.5380455500500002,-1.5006752934999998,-0.23853134339999998,0.29956266460000014,0.19891619459999998,-0.2502194689
03:37:28,1.57964083,-1.2281478500000003,-0.9532537,0.26070333999999995,0.22391699999999998,0.12668073999999996,0.8205581000000004,-31.780492600000002,1.0452442599999996,-175.04532890000002,0.5439349767,-1.5173107289999999,-0.24096897559999997,0.30520379639999995,0.1992558864,-0.2554601126000001
03:37:28,1.587239915,-1.243018925,-0.95436085,0.2644746699999999,0.224455,0.13061186999999996,0.84043555,-31.7886723,1.0660716299999997,-176.78693944999998,0.54982440335,-1.5339461644999999,-0.2434066078,0.3108449282,0.1995955782,-0.2607007563
03:37:29,1.594839,-1.25789,-0.955468,0.268246,0.224993,0.134543,0.860313,-31.796852,1.086899,-178.52855,0.55571383,-1.5505816,-0.24584424,0.31648606,0.19993527,-0.2659414
03:37:29,1.586519125,-1.251211775,-0.952459535,0.266967585,0.2226226,0.13423405,0.85775969,-31.796798595000002,1.105626035,-178.5250529,0.55143240035,-1.5423125327249998,-0.24309315455,0.315314818825,0.19767359315,-0.26495065865
03:37:29,1.57819925,-1.2445335499999999,-0.94945107,0.26568917,0.2202522,0.1339251,0.85520638,-31.796745190000003,1.12435307,-178.5215558,0.5471509707,-1.53404346545,-0.2403420691,0.31414357765,0.1954119163,-0.2639599173
03:37:29,1.569879375,-1.237855325,-0.946442605,0.264410755,0.2178818,0.13361615,0.85265307,-31.796691785,1.1430801050000001,-178.51805869999998,0.54286954105,-1.5257743981749998,-0.23759098365,0.312972336475,0.19315023945,-0.26296917594999997
03:37:29,1.5615595,-1.2311771,-0.94343414,0.26313233999999996,0.2155114,0.1333072,0.85009976,-31.79663838,1.16180714,-178.5145616,0.5385881114,-1.5175053309,-0.23483989819999998,0.3118010953,0.1908885626,-0.2619784346
03:37:29,1.5532396249999998,-1.2244988749999999,-0.940425675,0.261853925,0.213141,0.13299824999999998,0.84754645,-31.796584975000002,1.180534175,-178.5110645,0.53430668175,-1.5092362636249999,-0.23208881274999998,0.310629854125,0.18862688575,-0.26098769325
03:37:29,1.5449197499999998,-1.21782065,-0.93741721,0.26057551,0.2107706,0.13268929999999998,0.84499314,-31.796531570000003,1.19926121,-178.5075674,0.5300252521,-1.50096719635,-0.2293377273,0.30945861295,0.1863652089,-0.2599969519
03:37:29,1.5365998749999998,-1.211142425,-0.934408745,0.259297095,0.2084002,0.13238035,0.84243983,-31.796478165,1.2179882450000001,-178.5040703,0.52574382245,-1.4926981290749999,-0.22658664185,0.308287371775,0.18410353205,-0.25900621055
03:37:29,1.5282799999999999,-1.2044641999999999,-0.93140028,0.25801868,0.20602979999999999,0.1320714,0.83988652,-31.79642476,1.23671528,-178.5005732,0.5214623928,-1.4844290617999998,-0.2238355564,0.30711613060000004,0.1818418552,-0.2580154692
03:37:29,1.5199601249999999,-1.197785975,-0.928391815,0.25674026499999997,0.2036594,0.13176245,0.83733321,-31.796371355,1.255442315,-178.4970761,0.51718096315,-1.476159994525,-0.22108447095,0.30594488942500003,0.17958017835,-0.25702472784999997
03:37:29,1.51164025,-1.19110775,-0.9253833499999999,0.25546185,0.201289,0.1314535,0.8347799,-31.796317950000002,1.27416935,-178.49357899999998,0.5128995335,-1.4678909272499998,-0.2183333855,0.30477364825000003,0.1773185015,-0.2560339865
03:37:29,1.503320375,-1.1844295249999999,-0.922374885,0.25418343499999996,0.1989186,0.13114455,0.83222659,-31.796264545,1.2928963850000001,-178.4900819,0.50861810385,-1.459621859975,-0.21558230005,0.303602407075,0.17505682465,-0.25504324515
03:37:29,1.4950005,-1.1777513,-0.91936642,0.25290502,0.1965482,0.1308356,0.82967328,-31.79621114,1.31162342,-178.4865848,0.5043366742,-1.4513527926999998,-0.21283121459999998,0.3024311659,0.1727951478,-0.2540525038
03:37:29,1.486680625,-1.171073075,-0.916357955,0.251626605,0.1941778,0.13052665,0.82711997,-31.796157735,1.330350455,-178.4830877,0.5000552445499999,-1.443083725425,-0.21008012915,0.301259924725,0.17053347095,-0.25306176245
03:37:29,1.47836075,-1.1643948499999999,-0.91334949,0.25034818999999997,0.19180740000000002,0.1302177,0.82456666,-31.796104330000002,1.34907749,-178.4795906,0.49577381489999994,-1.4348146581499999,-0.2073290437,0.30008868355,0.16827179409999998,-0.2520710211
03:37:29,1.470040875,-1.157716625,-0.910341025,0.249069775,0.189437,0.12990875,0.82201335,-31.796050925,1.367804525,-178.4760935,0.49149238524999994,-1.426545590875,-0.20457795825,0.298917442375,0.16601011725,-0.25108027974999997
03:37:29,1.4617209999999998,-1.1510384,-0.90733256,0.24779136,0.1870666,0.1295998,0.8194600400000001,-31.79599752,1.38653156,-178.4725964,0.48721095559999994,-1.4182765236,-0.2018268728,0.2977462012,0.1637484404,-0.2500895384
03:37:29,1.4534011249999998,-1.1443601749999999,-0.904324095,0.24651294499999998,0.1846962,0.12929084999999998,0.81690673,-31.795944115,1.405258595,-178.46909929999998,0.48292952594999994,-1.4100074563249998,-0.19907578734999998,0.296574960025,0.16148676355,-0.24909879705
03:37:29,1.4450812499999999,-1.13768195,-0.90131563,0.24523452999999998,0.18232579999999998,0.12898189999999998,0.81435342,-31.795890710000002,1.42398563,-178.4656022,0.47864809629999994,-1.40173838905,-0.1963247019,0.29540371885,0.15922508670000002,-0.2481080557
03:37:29,1.436761375,-1.131003725,-0.898307165,0.24395611499999997,0.1799554,0.12867295,0.81180011,-31.795837305000003,1.4427126650000002,-178.4621051,0.47436666664999994,-1.3934693217749998,-0.19357361644999999,0.294232477675,0.15696340985,-0.24711731435
03:37:29,1.4284415,-1.1243254999999999,-0.8952987,0.2426777,0.177585,0.128364,0.8092468,-31.7957839,1.4614397000000001,-178.458608,0.47008523699999993,-1.3852002545,-0.190822531,0.2930612365,0.154701733,-0.246126573
03:37:29,1.420121625,-1.117647275,-0.8922902349999999,0.241399285,0.1752146,0.12805505,0.80669349,-31.795730495,1.480166735,-178.4551109,0.46580380735,-1.3769311872249999,-0.18807144555,0.29188999532500004,0.15244005615,-0.24513583165
03:37:29,1.41180175,-1.11096905,-0.88928177,0.24012087,0.1728442,0.1277461,0.80414018,-31.79567709,1.49889377,-178.4516138,0.4615223777,-1.36866211995,-0.1853203601,0.29071875415000004,0.1501783793,-0.24414509029999998
03:37:29,1.403481875,-1.104290825,-0.886273305,0.23884245499999998,0.1704738,0.12743715,0.80158687,-31.795623685000002,1.517620805,-178.44811669999999,0.45724094805,-1.3603930526749999,-0.18256927465,0.28954751297500003,0.14791670245,-0.24315434895
03:37:29,1.395162,-1.0976126,-0.8832648399999999,0.23756403999999998,0.16810340000000001,0.1271282,0.79903356,-31.79557028,1.53634784,-178.44461959999998,0.4529595184,-1.3521239854,-0.17981818919999998,0.28837627180000003,0.1456550256,-0.2421636076
03:37:29,1.3868421249999998,-1.090934375,-0.880256375,0.236285625,0.165733,0.12681925,0.79648025,-31.795516875,1.555074875,-178.4411225,0.44867808875,-1.343854918125,-0.17706710375,0.287205030625,0.14339334875,-0.24117286624999998
03:37:29,1.3785222499999998,-1.0842561499999999,-0.87724791,0.23500721,0.1633626,0.1265103,0.79392694,-31.79546347,1.57380191,-178.4376254,0.4443966591,-1.3355858508499998,-0.1743160183,0.28603378945,0.1411316719,-0.2401821249
03:37:29,1.3702023749999999,-1.077577925,-0.874239445,0.233728795,0.1609922,0.12620135,0.79137363,-31.795410065000002,1.5925289450000002,-178.4341283,0.44011522945,-1.327316783575,-0.17156493285,0.284862548275,0.13886999505,-0.23919138355
03:37:29,1.3618824999999999,-1.0708997,-0.87123098,0.23245037999999998,0.1586218,0.1258924,0.78882032,-31.79535666,1.6112559800000001,-178.4306312,0.4358337998,-1.3190477162999998,-0.1688138474,0.2836913071,0.1366083182,-0.23820064219999998
03:37:29,1.353562625,-1.064221475,-0.868222515,0.23117196499999998,0.15625139999999998,0.12558344999999999,0.78626701,-31.795303255,1.629983015,-178.4271341,0.43155237015,-1.310778649025,-0.16606276195,0.282520065925,0.13434664135000002,-0.23720990085
03:37:29,1.34524275,-1.05754325,-0.86521405,0.22989355,0.153881,0.12527449999999998,0.7837137000000001,-31.79524985,1.64871005,-178.42363699999999,0.4272709405,-1.3025095817499999,-0.1633116765,0.28134882475,0.1320849645,-0.2362191595
03:37:29,1.336922875,-1.050865025,-0.862205585,0.22861513499999997,0.1515106,0.12496555,0.78116039,-31.795196445000002,1.667437085,-178.42013989999998,0.42298951085,-1.2942405144749998,-0.16056059104999998,0.280177583575,0.12982328765,-0.23522841814999998
03:37:29,1.328603,-1.0441867999999999,-0.8591971199999999,0.22733672,0.1491402,0.12465659999999999,0.77860708,-31.79514304,1.68616412,-178.4166428,0.41870808119999997,-1.2859714472,-0.1578095056,0.2790063424,0.1275616108,-0.2342376768
03:37:29,1.320283125,-1.037508575,-0.856188655,0.226058305,0.1467698,0.12434764999999999,0.77605377,-31.795089635,1.7048911549999999,-178.4131457,0.41442665154999997,-1.277702379925,-0.15505842015,0.277835101225,0.12529993395,-0.23324693545
03:37:29,1.3119632499999998,-1.03083035,-0.85318019,0.22477988999999998,0.1443994,0.1240387,0.77350046,-31.79503623,1.72361819,-178.4096486,0.41014522189999997,-1.26943331265,-0.1523073347,0.27666386005,0.1230382571,-0.23225619409999998
03:37:29,1.303643375,-1.024152125,-0.8501717249999999,0.22350147499999998,0.14202900000000002,0.12372975,0.77094715,-31.794982825,1.742345225,-178.4061515,0.40586379224999997,-1.2611642453749998,-0.14955624925,0.275492618875,0.12077658025,-0.23126545275
03:37:29,1.2953234999999999,-1.0174739,-0.84716326,0.22222305999999997,0.1396586,0.1234208,0.76839384,-31.794929420000003,1.7610722600000002,-178.4026544,0.40158236259999996,-1.2528951781,-0.1468051638,0.2743213777,0.11851490340000001,-0.2302747114
03:37:29,1.2870036249999999,-1.010795675,-0.844154795,0.220944645,0.1372882,0.12311185,0.76584053,-31.794876015,1.7797992950000001,-178.39915729999998,0.39730093294999996,-1.2446261108249999,-0.14405407835,0.27315013652500003,0.11625322655,-0.22928397004999998
03:37:29,1.27868375,-1.0041174499999999,-0.8411463299999999,0.21966623,0.1349178,0.12280289999999999,0.76328722,-31.79482261,1.79852633,-178.3956602,0.39301950329999996,-1.23635704355,-0.14130299289999998,0.27197889535,0.1139915497,-0.2282932287
03:37:29,1.270363875,-0.9974392249999999,-0.838137865,0.21838781499999999,0.13254739999999998,0.12249394999999999,0.76073391,-31.794769205,1.817253365,-178.3921631,0.38873807364999996,-1.2280879762749999,-0.13855190745,0.270807654175,0.11172987285000001,-0.22730248734999997
03:37:29,1.262044,-0.990761,-0.8351294,0.21710939999999998,0.130177,0.12218499999999999,0.7581806,-31.794715800000002,1.8359804,-178.388666,0.38445664399999996,-1.2198189089999998,-0.135800822,0.269636413,0.109468196,-0.22631174599999998
03:37:29,1.253724125,-0.984082775,-0.832120935,0.21583098499999998,0.1278066,0.12187605,0.7556272900000001,-31.794662395,1.854707435,-178.3851689,0.38017521435,-1.211549841725,-0.13304973655,0.268465171825,0.10720651915,-0.22532100465
03:37:29,1.24540425,-0.9774045499999999,-0.82911247,0.21455257,0.1254362,0.1215671,0.75307398,-31.79460899,1.87343447,-178.3816718,0.3758937847,-1.20328077445,-0.1302986511,0.26729393065,0.10494484230000001,-0.2243302633
03:37:29,1.237084375,-0.970726325,-0.8261040049999999,0.213274155,0.1230658,0.12125815,0.75052067,-31.794555585,1.892161505,-178.3781747,0.37161235505,-1.195011707175,-0.12754756565,0.266122689475,0.10268316545,-0.22333952194999998
03:37:29,1.2287645,-0.9640481,-0.82309554,0.21199574,0.12069540000000001,0.12094919999999999,0.74796736,-31.794502180000002,1.9108885400000002,-178.37467759999998,0.3673309254,-1.1867426398999998,-0.1247964802,0.2649514483,0.1004214886,-0.2223487806
03:37:29,1.2204446249999998,-0.9573698749999999,-0.820087075,0.21071732499999998,0.118325,0.12064024999999999,0.74541405,-31.794448775,1.9296155750000001,-178.3711805,0.36304949575,-1.178473572625,-0.12204539475,0.263780207125,0.09815981175,-0.22135803924999997
03:37:29,1.2121247499999999,-0.95069165,-0.81707861,0.20943890999999998,0.1159546,0.1203313,0.74286074,-31.79439537,1.94834261,-178.3676834,0.3587680661,-1.1702045053499999,-0.11929430930000001,0.26260896595,0.0958981349,-0.22036729789999998
03:37:29,1.2038048749999999,-0.944013425,-0.814070145,0.208160495,0.1135842,0.12002235,0.74030743,-31.794341965,1.967069645,-178.3641863,0.35448663645,-1.161935438075,-0.11654322384999999,0.261437724775,0.09363645805000001,-0.21937655655
03:37:29,1.195485,-0.9373351999999999,-0.81106168,0.20688207999999997,0.1112138,0.1197134,0.73775412,-31.794288560000002,1.98579668,-178.3606892,0.3502052068,-1.1536663708,-0.11379213839999999,0.2602664836,0.0913747812,-0.2183858152
03:37:29,1.187165125,-0.930656975,-0.8080532149999999,0.205603665,0.1088434,0.11940445,0.73520081,-31.794235155,2.004523715,-178.3571921,0.34592377715,-1.1453973035249998,-0.11104105295,0.25909524242500004,0.08911310435,-0.21739507384999998
03:37:29,1.17884525,-0.92397875,-0.80504475,0.20432524999999999,0.106473,0.11909549999999999,0.7326475,-31.79418175,2.02325075,-178.353695,0.3416423475,-1.13712823625,-0.1082899675,0.25792400125000003,0.08685142750000001,-0.2164043325
03:37:29,1.170525375,-0.9173005249999999,-0.802036285,0.20304683499999998,0.1041026,0.11878654999999999,0.73009419,-31.794128345,2.0419777850000003,-178.35019789999998,0.33736091785,-1.1288591689749998,-0.10553888205,0.25675276007500003,0.08458975065,-0.21541359114999997
03:37:29,1.1622055,-0.9106223,-0.7990278199999999,0.20176842,0.1017322,0.11847759999999999,0.7275408800000001,-31.79407494,2.0607048199999998,-178.3467008,0.3330794882,-1.1205901017,-0.10278779660000001,0.2555815189,0.08232807380000001,-0.21442284979999998
03:37:29,1.153885625,-0.903944075,-0.796019355,0.20049000499999997,0.0993618,0.11816865,0.72498757,-31.794021535000002,2.079431855,-178.3432037,0.32879805855,-1.1123210344249999,-0.10003671115000001,0.254410277725,0.08006639695000001,-0.21343210845
03:37:29,1.1455657499999998,-0.8972658499999999,-0.7930108899999999,0.19921159,0.0969914,0.1178597,0.72243426,-31.79396813,2.09815889,-178.3397066,0.3245166289,-1.1040519671499998,-0.09728562569999999,0.25323903655,0.0778047201,-0.2124413671
03:37:29,1.137245875,-0.890587625,-0.790002425,0.197933175,0.09462100000000001,0.11755075,0.7198809500000001,-31.793914725,2.116885925,-178.3362095,0.32023519925,-1.0957828998749999,-0.09453454025,0.252067795375,0.07554304325000001,-0.21145062574999998
03:37:29,1.1289259999999999,-0.8839094,-0.78699396,0.19665475999999998,0.09225060000000002,0.1172418,0.71732764,-31.79386132,2.13561296,-178.3327124,0.3159537696,-1.0875138326,-0.0917834548,0.2508965542,0.07328136639999999,-0.2104598844
03:37:29,1.120606125,-0.8772311749999999,-0.783985495,0.19537634499999998,0.0898802,0.11693284999999999,0.71477433,-31.793807915000002,2.154339995,-178.3292153,0.31167233995,-1.079244765325,-0.08903236935,0.249725313025,0.07101968955000001,-0.20946914304999997
03:37:29,1.11228625,-0.87055295,-0.78097703,0.19409792999999997,0.0875098,0.1166239,0.71222102,-31.79375451,2.1730670300000003,-178.32571819999998,0.3073909103,-1.0709756980499998,-0.0862812839,0.24855407185,0.06875801270000001,-0.20847840169999998
03:37:29,1.103966375,-0.8638747250000001,-0.777968565,0.192819515,0.0851394,0.11631495,0.70966771,-31.793701105,2.191794065,-178.3222211,0.30310948065,-1.062706630775,-0.08353019845000001,0.247382830675,0.06649633585,-0.20748766035
03:37:29,1.0956465,-0.8571964999999999,-0.7749600999999999,0.1915411,0.08276900000000001,0.116006,0.7071144,-31.7936477,2.2105211000000002,-178.318724,0.298828051,-1.0544375634999998,-0.08077911300000001,0.2462115895,0.064234659,-0.206496919
03:37:29,1.087326625,-0.850518275,-0.771951635,0.190262685,0.08039860000000001,0.11569705,0.70456109,-31.793594295000002,2.2292481349999997,-178.3152269,0.29454662135,-1.046168496225,-0.07802802754999999,0.245040348325,0.061972982149999994,-0.20550617764999998
03:37:29,1.07900675,-0.8438400500000001,-0.76894317,0.18898426999999998,0.07802819999999999,0.1153881,0.70200778,-31.79354089,2.24797517,-178.3117298,0.2902651917,-1.0378994289499999,-0.0752769421,0.24386910715,0.05971130530000002,-0.2045154363
03:37:29,1.0706868749999998,-0.8371618249999999,-0.7659347049999999,0.18770585499999998,0.0756578,0.11507914999999999,0.69945447,-31.793487485,2.266702205,-178.3082327,0.28598376205,-1.0296303616749998,-0.07252585665,0.242697865975,0.05744962845000001,-0.20352469494999997
03:37:29,1.062367,-0.8304836,-0.76292624,0.18642744,0.0732874,0.11477019999999999,0.69690116,-31.79343408,2.28542924,-178.3047356,0.2817023324,-1.0213612944,-0.0697747712,0.2415266248,0.05518795160000001,-0.20253395359999998
03:37:29,1.0540471249999999,-0.8238053750000001,-0.759917775,0.18514902499999997,0.07091700000000001,0.11446125,0.69434785,-31.793380675,2.304156275,-178.30123849999998,0.27742090275,-1.013092227125,-0.06702368575,0.240355383625,0.05292627475,-0.20154321225
03:37:29,1.04572725,-0.8171271499999999,-0.75690931,0.18387061,0.06854660000000001,0.1141523,0.6917945400000001,-31.79332727,2.32288331,-178.2977414,0.2731394731,-1.00482315985,-0.06427260030000001,0.23918414245000003,0.0506645979,-0.2005524709
03:37:29,1.037407375,-0.810448925,-0.753900845,0.18259219499999998,0.06617619999999999,0.11384335,0.68924123,-31.793273865,2.3416103450000003,-178.2942443,0.26885804345,-0.9965540925749999,-0.061521514850000014,0.23801290127500002,0.04840292105000002,-0.19956172954999998
03:37:29,1.0290875,-0.8037707000000001,-0.75089238,0.18131377999999998,0.0638058,0.1135344,0.68668792,-31.79322046,2.36033738,-178.2907472,0.26457661379999997,-0.9882850253,-0.05877042939999999,0.23684166010000002,0.046141244200000014,-0.19857098819999996
03:37:29,1.020767625,-0.7970924749999999,-0.747883915,0.180035365,0.0614354,0.11322544999999999,0.6841346100000001,-31.793167055,2.379064415,-178.2872501,0.26029518414999997,-0.9800159580249999,-0.056019343949999995,0.235670418925,0.04387956735000001,-0.19758024684999997
03:37:29,1.01244775,-0.79041425,-0.74487545,0.17875694999999997,0.059065000000000006,0.1129165,0.6815813000000001,-31.793113650000002,2.3977914499999997,-178.283753,0.25601375449999997,-0.9717468907499999,-0.0532682585,0.23449917775,0.041617890500000004,-0.19658950549999998
03:37:29,1.004127875,-0.7837360250000001,-0.7418669849999999,0.177478535,0.05669460000000001,0.11260755,0.67902799,-31.793060245,2.416518485,-178.2802559,0.25173232484999997,-0.9634778234749999,-0.05051717305,0.233327936575,0.03935621365,-0.19559876415
03:37:29,0.9958079999999999,-0.7770578,-0.73885852,0.17620012,0.05432419999999999,0.1122986,0.67647468,-31.79300684,2.43524552,-178.27675879999998,0.24745089519999997,-0.9552087561999999,-0.04776608760000001,0.2321566954,0.03709453680000002,-0.19460802279999997
03:37:29,0.9874881249999999,-0.770379575,-0.735850055,0.17492170499999998,0.051953799999999994,0.11198965,0.67392137,-31.792953435,2.453972555,-178.2732617,0.24316946554999996,-0.9469396889249999,-0.04501500215000001,0.230985454225,0.03483285995000002,-0.19361728144999998
03:37:29,0.97916825,-0.7637013500000001,-0.73284159,0.17364329,0.0495834,0.1116807,0.67136806,-31.792900030000002,2.47269959,-178.2697646,0.23888803589999996,-0.9386706216499999,-0.042263916700000015,0.22981421305,0.03257118310000001,-0.19262654009999997
03:37:29,0.970848375,-0.757023125,-0.729833125,0.17236487499999997,0.047213000000000005,0.11137174999999999,0.66881475,-31.792846625,2.491426625,-178.2662675,0.23460660624999996,-0.9304015543749999,-0.03951283124999999,0.228642971875,0.030309506250000007,-0.19163579874999997
03:37:29,0.9625285,-0.7503449,-0.72682466,0.17108646,0.04484260000000001,0.11106279999999999,0.66626144,-31.79279322,2.5101536600000003,-178.2627704,0.23032517659999996,-0.9221324870999998,-0.036761745799999995,0.22747173069999999,0.0280478294,-0.19064505739999998
03:37:29,0.9542086249999999,-0.7436666749999999,-0.7238161949999999,0.169808045,0.042472200000000015,0.11075385,0.6637081300000001,-31.792739815,2.528880695,-178.2592733,0.22604374694999996,-0.9138634198249999,-0.03401066035,0.226300489525,0.025786152549999997,-0.18965431605
03:37:29,0.94588875,-0.73698845,-0.72080773,0.16852962999999999,0.04010179999999999,0.1104449,0.66115482,-31.79268641,2.54760773,-178.25577619999999,0.22176231729999996,-0.9055943525499999,-0.0312595749,0.22512924835,0.02352447570000002,-0.18866357469999998
03:37:29,0.937568875,-0.730310225,-0.717799265,0.16725121499999998,0.0377314,0.11013595,0.65860151,-31.792633005,2.566334765,-178.25227909999998,0.21748088764999995,-0.8973252852749999,-0.028508489450000007,0.223958007175,0.021262798850000014,-0.18767283334999998
03:37:29,0.929249,-0.723632,-0.7147908,0.16597279999999998,0.035361000000000004,0.109827,0.6560482000000001,-31.7925796,2.5850618,-178.248782,0.21319945799999995,-0.8890562179999999,-0.02575740400000001,0.222786766,0.01900112200000001,-0.18668209199999997
03:37:29,0.920929125,-0.716953775,-0.711782335,0.164694385,0.03299060000000001,0.10951804999999999,0.65349489,-31.792526195,2.603788835,-178.2452849,0.20891802835,-0.8807871507249999,-0.023006318550000016,0.22161552482500002,0.016739445150000004,-0.18569135064999998
03:37:29,0.9126092499999999,-0.71027555,-0.7087738699999999,0.16341596999999997,0.030620200000000014,0.1092091,0.65094158,-31.79247279,2.62251587,-178.2417878,0.2046365987,-0.8725180834499999,-0.020255233099999992,0.22044428365000002,0.014477768299999999,-0.18470060929999998
03:37:29,0.904289375,-0.703597325,-0.705765405,0.162137555,0.02824979999999999,0.10890015,0.64838827,-31.792419385,2.641242905,-178.2382907,0.20035516905,-0.8642490161749999,-0.017504147649999996,0.219273042475,0.012216091450000022,-0.18370986795
03:37:29,0.8959695,-0.6969191,-0.70275694,0.16085913999999998,0.025879399999999997,0.1085912,0.64583496,-31.79236598,2.65996994,-178.2347936,0.1960737394,-0.8559799489,-0.0147530622,0.2181018013,0.009954414600000017,-0.18271912659999998
03:37:29,0.887649625,-0.690240875,-0.699748475,0.15958072499999998,0.023509000000000002,0.10828225,0.64328165,-31.792312575,2.6786969750000003,-178.23129649999998,0.19179230975,-0.8477108816249999,-0.012001976750000004,0.216930560125,0.007692737750000012,-0.18172838524999999
03:37:29,0.87932975,-0.68356265,-0.69674001,0.15830231,0.021138600000000007,0.1079733,0.64072834,-31.79225917,2.6974240099999998,-178.22779939999998,0.1875108801,-0.8394418143499999,-0.009250891300000008,0.21575931895,0.0054310609000000065,-0.18073764389999997
03:37:29,0.8710098749999999,-0.676884425,-0.6937315449999999,0.15702389499999997,0.018768200000000013,0.10766434999999999,0.63817503,-31.792205765000002,2.716151045,-178.2243023,0.18322945045,-0.8311727470749999,-0.006499805850000012,0.214588077775,0.0031693840500000015,-0.17974690254999998
03:37:29,0.86269,-0.6702062,-0.6907230799999999,0.15574548,0.016397800000000018,0.10735539999999999,0.6356217200000001,-31.79215236,2.73487808,-178.2208052,0.1789480208,-0.8229036797999999,-0.0037487204000000163,0.2134168366,0.0009077071999999964,-0.17875616119999999
03:37:29,0.854370125,-0.663527975,-0.687714615,0.154467065,0.014027399999999995,0.10704644999999999,0.63306841,-31.792098955,2.753605115,-178.2173081,0.17466659115,-0.8146346125249999,-0.0009976349499999926,0.212245595425,-0.001353969649999981,-0.17776541985
03:37:29,0.84605025,-0.65684975,-0.68470615,0.15318864999999998,0.011657,0.1067375,0.6305151,-31.79204555,2.77233215,-178.213811,0.1703851615,-0.8063655452499999,0.0017534505000000034,0.21107435424999998,-0.003615646499999986,-0.17677467849999998
03:37:29,0.837730375,-0.650171525,-0.681697685,0.151910235,0.009286600000000006,0.10642855,0.6279617900000001,-31.791992145000002,2.791059185,-178.2103139,0.16610373185,-0.7980964779749999,0.004504535949999999,0.209903113075,-0.005877323349999991,-0.17578393714999996
03:37:29,0.8294104999999999,-0.6434933,-0.67868922,0.15063181999999997,0.006916200000000011,0.1061196,0.62540848,-31.79193874,2.8097862200000003,-178.20681679999998,0.1618223022,-0.7898274106999998,0.0072556213999999675,0.2087318719,-0.008139000199999996,-0.17479319579999997
03:37:29,0.821090625,-0.636815075,-0.6756807549999999,0.149353405,0.0045458000000000165,0.10581064999999999,0.62285517,-31.791885335,2.828513255,-178.20331969999998,0.15754087255,-0.7815583434249999,0.010006706849999991,0.207560630725,-0.010400677050000001,-0.17380245444999998
03:37:29,0.81277075,-0.63013685,-0.67267229,0.14807499,0.002175399999999994,0.1055017,0.6203018600000001,-31.79183193,2.8472402900000002,-178.1998226,0.1532594429,-0.7732892761499999,0.012757792300000015,0.20638938955,-0.012662353899999979,-0.1728117131
03:37:29,0.804450875,-0.623458625,-0.669663825,0.14679657499999998,-0.00019500000000000073,0.10519275,0.6177485500000001,-31.791778525,2.8659673249999997,-178.1963255,0.14897801324999999,-0.7650202088749999,0.015508877749999983,0.20521814837500002,-0.014924030749999984,-0.17182097175
03:37:29,0.7961309999999999,-0.6167804,-0.66665536,0.14551815999999998,-0.0025653999999999955,0.1048838,0.61519524,-31.79172512,2.88469436,-178.1928284,0.14469658359999998,-0.7567511415999999,0.018259963200000007,0.20404690720000002,-0.01718570759999999,-0.17083023039999998
03:37:29,0.787811125,-0.610102175,-0.663646895,0.14423974499999997,-0.00493579999999999,0.10457485,0.61264193,-31.791671715,2.903421395,-178.1893313,0.14041515394999998,-0.7484820743249999,0.021011048649999975,0.202875666025,-0.019447384449999994,-0.16983948904999996
03:37:29,0.77949125,-0.60342395,-0.66063843,0.14296133,-0.007306199999999985,0.1042659,0.61008862,-31.79161831,2.92214843,-178.1858342,0.13613372429999998,-0.7402130070499999,0.0237621341,0.20170442485,-0.0217090613,-0.16884874769999997
03:37:29,0.771171375,-0.596745725,-0.6576299649999999,0.141682915,-0.009676600000000007,0.10395694999999999,0.60753531,-31.791564905,2.940875465,-178.18233709999998,0.13185229464999998,-0.7319439397749999,0.026513219549999967,0.200533183675,-0.023970738149999976,-0.16785800634999998
03:37:29,0.7628515,-0.5900675,-0.6546215,0.1404045,-0.012047000000000002,0.10364799999999999,0.604982,-31.7915115,2.9596025,-178.17883999999998,0.12757086499999998,-0.7236748725,0.02926430499999999,0.1993619425,-0.02623241499999998,-0.166867265
03:37:29,0.7545316249999999,-0.583389275,-0.651613035,0.13912608499999998,-0.014417399999999997,0.10333904999999999,0.60242869,-31.791458095,2.9783295350000003,-178.1753429,0.12328943534999998,-0.7154058052249999,0.032015390450000014,0.198190701325,-0.028494091849999986,-0.16587652365
03:37:29,0.74621175,-0.57671105,-0.64860457,0.13784766999999998,-0.01678779999999999,0.10303009999999999,0.5998753800000001,-31.79140469,2.99705657,-178.1718458,0.11900800569999997,-0.7071367379499999,0.03476647589999998,0.19701946015,-0.03075576869999999,-0.16488578229999998
03:37:29,0.737891875,-0.570032825,-0.645596105,0.136569255,-0.019158199999999986,0.10272115,0.59732207,-31.791351285,3.015783605,-178.1683487,0.11472657604999997,-0.6988676706749999,0.037517561350000006,0.195848218975,-0.033017445549999996,-0.16389504094999996
03:37:29,0.729572,-0.5633546,-0.6425876399999999,0.13529084,-0.02152860000000001,0.1024122,0.59476876,-31.791297880000002,3.0345106399999997,-178.1648516,0.11044514639999997,-0.6905986033999999,0.040268646799999974,0.19467697779999998,-0.035279122399999974,-0.16290429959999997
03:37:29,0.721252125,-0.556676375,-0.6395791749999999,0.134012425,-0.023899000000000004,0.10210324999999999,0.5922154500000001,-31.791244475,3.053237675,-178.1613545,0.10616371674999997,-0.6823295361249999,0.04301973225,0.193505736625,-0.03754079924999998,-0.16191355824999998
03:37:29,0.7129322499999999,-0.54999815,-0.63657071,0.13273400999999999,-0.0262694,0.1017943,0.5896621400000001,-31.79119107,3.07196471,-178.15785739999998,0.10188228709999997,-0.6740604688499999,0.045770817699999966,0.19233449545,-0.039802476099999984,-0.1609228169
03:37:29,0.704612375,-0.543319925,-0.633562245,0.13145559499999998,-0.028639799999999993,0.10148535,0.58710883,-31.791137665,3.090691745,-178.1543603,0.09760085744999997,-0.6657914015749999,0.04852190314999999,0.191163254275,-0.04206415294999999,-0.15993207554999997
03:37:29,0.6962925,-0.5366417,-0.63055378,0.13017717999999998,-0.031010199999999988,0.1011764,0.5845555200000001,-31.79108426,3.1094187800000004,-178.1508632,0.09331942779999997,-0.6575223342999998,0.05127298860000001,0.1899920131,-0.044325829799999994,-0.15894133419999998
03:37:29,0.687972625,-0.529963475,-0.627545315,0.128898765,-0.03338059999999998,0.10086745,0.58200221,-31.791030855,3.128145815,-178.1473661,0.08903799814999996,-0.6492532670249999,0.05402407404999998,0.188820771925,-0.04658750665,-0.15795059284999996
03:37:29,0.67965275,-0.52328525,-0.6245368499999999,0.12762035,-0.03575099999999998,0.1005585,0.5794489,-31.79097745,3.1468728500000003,-178.143869,0.08475656849999996,-0.6409841997499999,0.056775159500000005,0.18764953075,-0.048849183499999976,-0.15695985149999997
03:37:29,0.6713328749999999,-0.516607025,-0.621528385,0.126341935,-0.03812139999999997,0.10024954999999999,0.57689559,-31.790924045,3.165599885,-178.1403719,0.08047513884999996,-0.6327151324749999,0.059526244949999974,0.186478289575,-0.05111086035000001,-0.15596911014999998
03:37:29,0.663013,-0.5099288,-0.61851992,0.12506351999999998,-0.04049179999999997,0.09994059999999999,0.57434228,-31.79087064,3.18432692,-178.1368748,0.07619370920000001,-0.6244460651999999,0.0622773304,0.1853070484,-0.053372537200000014,-0.1549783688
03:37:29,0.654693125,-0.503250575,-0.615511455,0.12378510499999998,-0.04286220000000002,0.09963164999999999,0.5717889700000001,-31.790817235,3.2030539549999997,-178.13337769999998,0.07191227955000001,-0.6161769979249999,0.06502841584999997,0.184135807225,-0.055634214049999964,-0.15398762744999997
03:37:29,0.64637325,-0.49657235,-0.61250299,0.12250668999999997,-0.04523260000000001,0.09932269999999999,0.56923566,-31.79076383,3.22178099,-178.1298806,0.06763084990000001,-0.6079079306499999,0.06777950129999999,0.18296456605,-0.05789589089999997,-0.15299688609999998
03:37:29,0.638053375,-0.48989412500000007,-0.6094945249999999,0.121228275,-0.047603000000000006,0.09901375,0.56668235,-31.790710425,3.2405080249999996,-178.1263835,0.06334942025000001,-0.5996388633749999,0.07053058675000001,0.181793324875,-0.060157567749999974,-0.15200614474999996
03:37:29,0.6297335,-0.48321590000000003,-0.6064860599999999,0.11994985999999999,-0.0499734,0.0987048,0.5641290400000001,-31.79065702,3.25923506,-178.1228864,0.05906799060000001,-0.5913697961,0.07328167219999998,0.1806220837,-0.06241924459999998,-0.15101540339999997
03:37:29,0.621413625,-0.476537675,-0.603477595,0.11867144499999999,-0.052343799999999996,0.09839584999999999,0.56157573,-31.790603615000002,3.2779620950000004,-178.1193893,0.05478656095000001,-0.5831007288249999,0.07603275765,0.179450842525,-0.06468092144999998,-0.15002466204999998
03:37:29,0.61309375,-0.46985945000000007,-0.60046913,0.11739302999999998,-0.05471419999999999,0.0980869,0.55902242,-31.79055021,3.29668913,-178.1158922,0.050505131300000006,-0.5748316615499999,0.07878384309999997,0.17827960135,-0.06694259829999999,-0.1490339207
03:37:29,0.604773875,-0.46318122500000003,-0.597460665,0.11611461499999998,-0.057084599999999985,0.09777795,0.5564691100000001,-31.790496805,3.3154161650000002,-178.1123951,0.046223701650000004,-0.5665625942749999,0.08153492855,0.177108360175,-0.06920427515,-0.14804317934999997
03:37:29,0.596454,-0.456503,-0.5944522,0.1148362,-0.05945499999999998,0.097469,0.5539158000000001,-31.7904434,3.3341431999999998,-178.10889799999998,0.041942272,-0.5582935269999999,0.08428601399999996,0.175937119,-0.071465952,-0.14705243799999998
03:37:29,0.5881341250000001,-0.44982477500000007,-0.5914437349999999,0.113557785,-0.061825399999999975,0.09716005,0.55136249,-31.790389995,3.352870235,-178.1054009,0.03766084235,-0.5500244597249999,0.08703709944999999,0.174765877825,-0.07372762885,-0.14606169664999996
03:37:29,0.5798142500000001,-0.44314655000000003,-0.58843527,0.11227936999999999,-0.06419579999999997,0.0968511,0.5488091800000001,-31.79033659,3.3715972699999996,-178.1019038,0.0333794127,-0.5417553924499998,0.08978818490000001,0.17359463665,-0.07598930570000001,-0.14507095529999997
03:37:29,0.5714943750000001,-0.436468325,-0.585426805,0.11100095499999998,-0.06656620000000002,0.09654215,0.54625587,-31.790283185,3.390324305,-178.0984067,0.029097983049999998,-0.5334863251749999,0.09253927034999998,0.172423395475,-0.07825098254999996,-0.14408021394999998
03:37:29,0.5631744999999999,-0.42979010000000006,-0.58241834,0.10972253999999998,-0.06893660000000001,0.09623319999999999,0.5437025600000001,-31.79022978,3.4090513400000004,-178.0949096,0.024816553399999997,-0.5252172578999998,0.0952903558,0.1712521543,-0.08051265939999996,-0.1430894726
03:37:29,0.5548546249999999,-0.423111875,-0.579409875,0.10844412499999997,-0.07130700000000001,0.09592424999999999,0.54114925,-31.790176375,3.427778375,-178.0914125,0.020535123749999995,-0.516948190625,0.09804144124999997,0.170080913125,-0.08277433624999997,-0.14209873124999997
03:37:29,0.54653475,-0.41643365,-0.5764014099999999,0.10716571,-0.0736774,0.09561529999999999,0.53859594,-31.79012297,3.4465054100000003,-178.08791539999999,0.016253694099999993,-0.5086791233499999,0.1007925267,0.16890967195,-0.08503601309999997,-0.14110798989999995
03:37:29,0.538214875,-0.40975542500000006,-0.5733929449999999,0.10588729499999999,-0.0760478,0.09530635,0.5360426300000001,-31.790069565,3.465232445,-178.08441829999998,0.011972264449999992,-0.500410056075,0.10354361214999996,0.167738430775,-0.08729768994999998,-0.14011724854999996
03:37:29,0.529895,-0.4030772,-0.57038448,0.10460887999999999,-0.0784182,0.0949974,0.53348932,-31.79001616,3.48395948,-178.0809212,0.00769083479999999,-0.4921409887999999,0.10629469759999999,0.1665671896,-0.08955936679999998,-0.13912650719999997
03:37:29,0.521575125,-0.396398975,-0.567376015,0.10333046499999998,-0.08078859999999999,0.09468845,0.53093601,-31.789962755,3.5026865149999997,-178.0774241,0.003409405149999989,-0.4838719215249998,0.10904578305000001,0.165395948425,-0.09182104364999999,-0.13813576584999998
03:37:29,0.51325525,-0.38972075000000006,-0.56436755,0.10205204999999998,-0.08315899999999998,0.0943795,0.5283827000000001,-31.78990935,3.52141355,-178.073927,-0.0008720245000000126,-0.47560285424999993,0.11179686849999998,0.16422470725,-0.0940827205,-0.13714502449999996
03:37:29,0.5049353750000001,-0.383042525,-0.561359085,0.100773635,-0.08552939999999998,0.09407055,0.5258293900000001,-31.789855945,3.5401405849999996,-178.0704299,-0.005153454150000014,-0.46733378697499983,0.11454795395,0.163053466075,-0.09634439735,-0.13615428314999997
03:37:29,0.4966155000000001,-0.3763643,-0.5583506199999999,0.09949522,-0.08789979999999997,0.0937616,0.52327608,-31.78980254,3.55886762,-178.0669328,-0.009434883800000016,-0.45906471969999996,0.11729903939999997,0.1618822249,-0.0986060742,-0.13516354179999998
03:37:29,0.4882956249999999,-0.36968607500000006,-0.555342155,0.09821680499999999,-0.09027019999999997,0.09345265,0.5207227700000001,-31.789749135,3.5775946550000004,-178.06343569999999,-0.013716313450000017,-0.45079565242499986,0.12005012485,0.160710983725,-0.10086775105000001,-0.13417280044999996
03:37:29,0.4799757499999999,-0.36300785,-0.55233369,0.09693838999999999,-0.09264060000000002,0.0931437,0.51816946,-31.789695730000002,3.59632169,-178.05993859999998,-0.01799774310000002,-0.44252658515,0.12280121029999996,0.15953974255,-0.10312942789999996,-0.13318205909999997
03:37:29,0.47165587499999995,-0.356329625,-0.549325225,0.09565997499999998,-0.09501100000000001,0.09283475,0.51561615,-31.789642325,3.6150487250000003,-178.0564415,-0.02227917275000002,-0.4342575178749999,0.12555229575,0.158368501375,-0.10539110474999996,-0.13219131774999998
03:37:29,0.46333599999999997,-0.34965140000000006,-0.54631676,0.09438155999999998,-0.0973814,0.09252579999999999,0.51306284,-31.78958892,3.63377576,-178.0529444,-0.026560602400000022,-0.4259884506,0.1283033812,0.1571972602,-0.10765278159999997,-0.13120057639999996
03:37:29,0.455016125,-0.342973175,-0.543308295,0.093103145,-0.0997518,0.09221684999999999,0.51050953,-31.789535515,3.652502795,-178.0494473,-0.030842032050000023,-0.4177193833249999,0.13105446664999998,0.156026019025,-0.10991445844999997,-0.13020983504999997
03:37:29,0.44669625,-0.33629495,-0.5402998299999999,0.09182473,-0.1021222,0.09190789999999999,0.5079562200000001,-31.78948211,3.6712298299999997,-178.0459502,-0.035123461700000025,-0.4094503160499998,0.1338055521,0.15485477784999999,-0.11217613529999998,-0.12921909369999998
03:37:29,0.43837637500000004,-0.32961672500000005,-0.537291365,0.09054631499999999,-0.10449259999999999,0.09159895,0.50540291,-31.789428705,3.689956865,-178.0424531,-0.039404891350000026,-0.40118124877499994,0.13655663754999997,0.153683536675,-0.11443781214999998,-0.12822835234999996
03:37:29,0.43005650000000006,-0.3229385,-0.5342829,0.08926789999999998,-0.10686299999999999,0.09129,0.5028496,-31.7893753,3.7086838999999996,-178.03895599999998,-0.04368632100000003,-0.39291218149999985,0.139307723,0.1525122955,-0.11669948899999999,-0.12723761099999997
03:37:29,0.4217366250000001,-0.316260275,-0.531274435,0.08798948499999998,-0.10923339999999998,0.09098105,0.5002962900000001,-31.789321895,3.727410935,-178.03545889999998,-0.04796775065000003,-0.38464311422499997,0.14205880844999996,0.151341054325,-0.11896116585,-0.12624686964999998
03:37:29,0.4134167500000001,-0.30958205000000005,-0.52826597,0.08671107,-0.11160379999999998,0.0906721,0.49774298000000006,-31.78926849,3.7461379700000004,-178.0319618,-0.05224918030000003,-0.3763740469499999,0.1448098939,0.15016981315,-0.1212228427,-0.12525612829999996
03:37:29,0.4050968749999999,-0.302903825,-0.5252575049999999,0.085432655,-0.11397419999999997,0.09036315,0.49518967,-31.789215085,3.764865005,-178.0284647,-0.05653060995000003,-0.368104979675,0.14756097935,0.148998571975,-0.12348451955,-0.12426538694999997
03:37:29,0.39677699999999994,-0.2962256000000001,-0.5222490399999999,0.08415423999999999,-0.11634460000000002,0.0900542,0.49263636000000005,-31.78916168,3.7835920400000003,-178.0249676,-0.060812039600000034,-0.3598359123999999,0.15031206479999998,0.1478273308,-0.12574619639999995,-0.12327464559999995
03:37:29,0.38845712499999996,-0.28954737500000005,-0.519240575,0.08287582499999999,-0.11871500000000001,0.08974525,0.4900830500000001,-31.789108275,3.8023190749999998,-178.0214705,-0.06509346925000004,-0.3515668451249998,0.15306315025,0.14665608962499999,-0.12800787324999996,-0.12228390424999996
03:37:29,0.38013725,-0.28286915,-0.51623211,0.08159740999999998,-0.12108540000000001,0.0894363,0.48752974000000004,-31.78905487,3.82104611,-178.0179734,-0.06937489890000004,-0.34329777784999993,0.15581423569999997,0.14548484845,-0.13026955009999996,-0.12129316289999997
03:37:29,0.371817375,-0.2761909250000001,-0.513223645,0.08031899499999998,-0.1234558,0.08912735,0.48497643000000007,-31.789001465,3.8397731449999997,-178.01447629999998,-0.07365632855000004,-0.33502871057499983,0.15856532115,0.144313607275,-0.13253122694999997,-0.12030242154999995
03:37:29,0.36349750000000003,-0.26951270000000005,-0.51021518,0.07904058,-0.1258262,0.08881839999999999,0.48242312000000004,-31.78894806,3.85850018,-178.01097919999998,-0.07793775820000004,-0.32675964329999996,0.16131640659999996,0.1431423661,-0.13479290379999997,-0.11931168019999996
03:37:29,0.35517762500000005,-0.262834475,-0.5072067149999999,0.077762165,-0.1281966,0.08850944999999999,0.47986981000000006,-31.788894655,3.8772272149999996,-178.0074821,-0.08221918785000004,-0.31849057602499986,0.16406749204999999,0.141971124925,-0.13705458064999998,-0.11832093884999997
03:37:29,0.3468577500000001,-0.2561562500000001,-0.50419825,0.07648374999999999,-0.130567,0.08820049999999999,0.47731650000000003,-31.78884125,3.89595425,-178.003985,-0.08650061750000004,-0.31022150875,0.1668185775,0.14079988375,-0.13931625749999998,-0.11733019749999996
03:37:29,0.3385378750000001,-0.24947802499999994,-0.501189785,0.07520533499999998,-0.13293739999999998,0.08789155,0.47476319000000006,-31.788787845,3.9146812850000003,-178.0004879,-0.09078204715000004,-0.3019524414749999,0.16956966294999998,0.139628642575,-0.14157793435,-0.11633945614999996
03:37:29,0.3302180000000001,-0.2427998,-0.49818132,0.07392691999999998,-0.13530779999999998,0.0875826,0.4722098800000001,-31.78873444,3.93340832,-177.9969908,-0.09506347680000005,-0.2936833741999998,0.1723207484,0.13845740139999999,-0.1438396112,-0.11534871479999997
03:37:29,0.3218981249999999,-0.23612157500000008,-0.49517285499999997,0.07264850499999997,-0.13767819999999997,0.08727365,0.46965657000000005,-31.788681035,3.9521353550000002,-177.9934937,-0.09934490645000005,-0.2854143069249999,0.17507183384999997,0.137286160225,-0.14610128805,-0.11435797344999996
03:37:29,0.31357824999999995,-0.22944334999999993,-0.49216438999999995,0.07137009,-0.14004859999999997,0.0869647,0.4671032600000001,-31.78862763,3.9708623899999997,-177.98999659999998,-0.10362633610000005,-0.2771452396499998,0.1778229193,0.13611491905,-0.1483629649,-0.11336723209999996
03:37:29,0.30525837499999997,-0.222765125,-0.489155925,0.07009167499999999,-0.14241900000000002,0.08665575,0.46454995000000004,-31.788574225,3.989589425,-177.98649949999998,-0.10790776575000005,-0.26887617237499994,0.18057400474999996,0.134943677875,-0.15062464174999995,-0.11237649074999997
03:37:29,0.2969385,-0.21608690000000008,-0.48614746,0.06881325999999999,-0.1447894,0.0863468,0.46199664000000007,-31.78852082,4.00831646,-177.9830024,-0.11218919540000005,-0.26060710509999985,0.18332509019999998,0.1337724367,-0.15288631859999996,-0.11138574939999996
03:37:29,0.288618625,-0.20940867499999993,-0.48313899499999996,0.06753484499999998,-0.1471598,0.08603785,0.45944333000000004,-31.788467415,4.027043495,-177.9795053,-0.11647062505000005,-0.252338037825,0.18607617565,0.132601195525,-0.15514799544999996,-0.11039500804999997
03:37:29,0.28029875000000004,-0.20273045,-0.48013052999999994,0.06625642999999998,-0.1495302,0.0857289,0.45689002000000006,-31.78841401,4.04577053,-177.9760082,-0.12075205470000006,-0.24406897054999988,0.18882726109999998,0.13142995435,-0.15740967229999997,-0.10940426669999997
03:37:29,0.27197887500000006,-0.19605222500000008,-0.477122065,0.064978015,-0.1519006,0.08541995,0.45433671000000003,-31.788360605,4.064497565,-177.9725111,-0.12503348435000006,-0.235799903275,0.19157834655,0.13025871317499998,-0.15967134914999997,-0.10841352534999996
03:37:29,0.2636590000000001,-0.18937400000000015,-0.47411359999999997,0.0636996,-0.154271,0.08511099999999999,0.45178340000000006,-31.7883072,4.0832246,-177.969014,-0.12931491400000006,-0.2275308359999999,0.19432943199999997,0.12908747199999998,-0.16193302599999998,-0.10742278399999997
03:37:29,0.2553391250000001,-0.182695775,-0.47110513499999995,0.06242118499999999,-0.1566414,0.08480204999999999,0.4492300900000001,-31.788253795,4.101951635,-177.96551689999998,-0.13359634364999995,-0.2192617687249998,0.19708051745,0.127916230825,-0.16419470284999998,-0.10643204264999997
03:37:29,0.24701925000000013,-0.17601755000000008,-0.46809667,0.061142769999999985,-0.15901179999999998,0.08449309999999999,0.44667678000000005,-31.78820039,4.12067867,-177.96201979999998,-0.13787777329999995,-0.21099270144999993,0.19983160289999996,0.12674498965,-0.1664563797,-0.10544130129999996
03:37:29,0.23869937499999994,-0.16933932500000015,-0.465088205,0.05986435499999998,-0.16138219999999998,0.08418414999999999,0.4441234700000001,-31.788146985,4.139405705,-177.9585227,-0.14215920294999995,-0.20272363417499983,0.20258268834999998,0.125573748475,-0.16871805655,-0.10445055994999997
03:37:29,0.23037949999999996,-0.1626611,-0.46207973999999996,0.058585939999999975,-0.16375259999999997,0.0838752,0.44157016000000004,-31.788093579999998,4.15813274,-177.9550256,-0.14644063259999995,-0.19445456689999996,0.2053337738,0.12440250729999999,-0.1709797334,-0.10345981859999998
03:37:29,0.22205962499999998,-0.15598287500000008,-0.45907127499999995,0.057307525,-0.16612299999999997,0.08356625,0.43901685000000007,-31.788040175,4.176859775,-177.9515285,-0.15072206224999996,-0.18618549962499986,0.20808485924999998,0.12323126612499999,-0.17324141025,-0.10246907724999996
03:37:29,0.21373975,-0.14930465000000015,-0.45606281,0.05602910999999999,-0.16849340000000002,0.08325729999999999,0.43646354000000004,-31.78798677,4.19558681,-177.9480314,-0.15500349189999996,-0.17791643235,0.2108359447,0.12206002494999998,-0.17550308709999995,-0.10147833589999997
03:37:29,0.20541987500000003,-0.142626425,-0.45305434499999997,0.05475069499999999,-0.1708638,0.08294835,0.43391023000000006,-31.787933365,4.214313845,-177.9445343,-0.15928492154999996,-0.1696473650749999,0.21358703014999997,0.12088878377499998,-0.17776476394999996,-0.10048759454999998
03:37:29,0.19710000000000005,-0.13594820000000007,-0.45004588,0.05347227999999998,-0.1732342,0.0826394,0.43135692000000003,-31.78787996,4.23304088,-177.94103719999998,-0.16356635119999996,-0.16137829780000001,0.2163381156,0.1197175426,-0.18002644079999996,-0.09949685319999996
03:37:29,0.18878012500000008,-0.12926997500000015,-0.44703741499999994,0.05219386499999998,-0.1756046,0.08233045,0.42880361000000006,-31.787826555,4.251767915,-177.9375401,-0.16784778084999996,-0.15310923052499992,0.21908920104999996,0.118546301425,-0.18228811764999997,-0.09850611184999997
03:37:29,0.1804602500000001,-0.12259175,-0.44402895,0.05091545,-0.177975,0.0820215,0.4262503000000001,-31.78777315,4.27049495,-177.934043,-0.17212921049999996,-0.14484016324999982,0.22184028649999998,0.11737506025,-0.18454979449999998,-0.09751537049999998
03:37:29,0.17214037500000012,-0.11591352500000007,-0.441020485,0.049637034999999996,-0.1803454,0.08171255,0.42369699000000005,-31.787719745,4.289221985,-177.9305459,-0.17641064014999996,-0.13657109597499995,0.22459137195,0.11620381907499999,-0.18681147134999998,-0.09652462914999996
03:37:29,0.16382050000000015,-0.10923530000000015,-0.43801201999999995,0.04835861999999999,-0.18271579999999998,0.08140359999999999,0.4211436800000001,-31.78766634,4.30794902,-177.9270488,-0.18069206979999997,-0.12830202869999985,0.22734245739999998,0.11503257789999999,-0.18907314819999999,-0.09553388779999997
03:37:29,0.15550062499999995,-0.102557075,-0.435003555,0.047080204999999986,-0.18508619999999998,0.08109464999999999,0.41859037000000004,-31.787612935,4.326676055,-177.9235517,-0.18497349944999997,-0.12003296142499997,0.23009354285,0.11386133672499998,-0.19133482505,-0.09454314644999998
03:37:29,0.14718074999999997,-0.09587885000000007,-0.4319950899999999,0.04580178999999998,-0.18745659999999997,0.08078569999999999,0.41603706000000007,-31.78755953,4.34540309,-177.9200546,-0.18925492909999997,-0.11176389414999988,0.23284462829999997,0.11269009554999998,-0.1935965019,-0.09355240509999996
03:37:29,0.138860875,-0.08920062500000014,-0.42898662499999995,0.044523374999999976,-0.18982699999999997,0.08047674999999999,0.41348375000000004,-31.787506125,4.364130125,-177.91655749999998,-0.19353635874999997,-0.103494826875,0.23559571375,0.111518854375,-0.19585817875,-0.09256166374999997
03:37:29,0.13054100000000002,-0.0825224,-0.42597816,0.04324496,-0.19219739999999996,0.0801678,0.41093044000000006,-31.78745272,4.38285716,-177.9130604,-0.19781778839999997,-0.0952257595999999,0.23834679919999996,0.1103476132,-0.1981198556,-0.09157092239999998
03:37:29,0.12222112500000004,-0.07584417500000007,-0.4229696949999999,0.041966544999999994,-0.1945678,0.07985885,0.4083771300000001,-31.787399315,4.401584195,-177.9095633,-0.20209921804999997,-0.08695669232499981,0.24109788464999998,0.109176372025,-0.20038153244999996,-0.09058018104999996
03:37:29,0.11390125000000006,-0.06916595000000014,-0.41996122999999996,0.04068812999999999,-0.1969382,0.07954989999999999,0.40582382000000006,-31.78734591,4.42031123,-177.9060662,-0.20638064769999998,-0.07868762504999993,0.2438489701,0.10800513084999999,-0.20264320929999996,-0.08958943969999997
03:37:29,0.10558137500000009,-0.062487724999999994,-0.416952765,0.039409714999999984,-0.1993086,0.07924095,0.4032705100000001,-31.787292505,4.439038265,-177.9025691,-0.21066207734999998,-0.07041855777499983,0.24660005554999997,0.10683388967499999,-0.20490488614999997,-0.08859869834999995
03:37:29,0.09726150000000011,-0.05580950000000007,-0.41394429999999993,0.03813129999999998,-0.201679,0.078932,0.40071720000000005,-31.7872391,4.4577653,-177.899072,-0.21494350699999998,-0.06214949049999996,0.249351141,0.10566264849999998,-0.20716656299999997,-0.08760795699999996
03:37:29,0.08894162500000014,-0.04913127500000014,-0.41093583499999997,0.036852885,-0.2040494,0.07862305,0.3981638900000001,-31.787185694999998,4.476492335,-177.89557489999999,-0.21922493664999998,-0.05388042322499986,0.25210222644999997,0.10449140732499998,-0.20942823984999998,-0.08661721564999997
03:37:29,0.08062175000000016,-0.04245304999999999,-0.40792737,0.03557447,-0.2064198,0.0783141,0.39561058000000004,-31.78713229,4.49521937,-177.89207779999998,-0.22350636629999998,-0.04561135594999999,0.2548533119,0.10332016615,-0.21168991669999998,-0.08562647429999995
03:37:29,0.07230187499999996,-0.035774825000000066,-0.40491890499999994,0.03429605499999999,-0.20879019999999998,0.07800515,0.39305727000000007,-31.787078885,4.5139464049999996,-177.8885807,-0.22778779594999998,-0.03734228867499989,0.25760439735,0.102148924975,-0.21395159354999999,-0.08463573294999996
03:37:29,0.06398199999999998,-0.02909660000000014,-0.40191044,0.03301763999999999,-0.21116059999999998,0.07769619999999999,0.3905039600000001,-31.78702548,4.53267344,-177.8850836,-0.23206922559999998,-0.029073221399999793,0.2603554827999999,0.1009776838,-0.2162132704,-0.08364499159999997
03:37:29,0.05566212500000001,-0.02241837499999999,-0.398901975,0.03173922499999998,-0.21353099999999997,0.07738724999999999,0.38795065000000006,-31.786972075,4.551400475,-177.8815865,-0.23635065524999999,-0.02080415412499992,0.26310656824999995,0.09980644262499999,-0.21847494725,-0.08265425024999995
03:37:29,0.04734225000000003,-0.015740150000000064,-0.39589350999999995,0.030460809999999977,-0.21590139999999997,0.07707829999999999,0.3853973400000001,-31.78691867,4.57012751,-177.8780894,-0.2406320849,-0.012535086849999821,0.2658576537,0.09863520144999999,-0.2207366241,-0.08166350889999996
03:37:29,0.039022375000000054,-0.009061925000000137,-0.392885045,0.029182395,-0.21827180000000002,0.07676934999999999,0.38284403000000006,-31.786865265,4.588854545,-177.8745923,-0.24491351455,-0.004266019574999946,0.26860873915,0.09746396027499998,-0.22299830094999995,-0.08067276754999997
03:37:29,0.030702500000000077,-0.0023836999999999886,-0.3898765799999999,0.027903979999999995,-0.2206422,0.0764604,0.3802907200000001,-31.78681186,4.60758158,-177.87109519999998,-0.2491949442,0.004003047700000151,0.2713598246,0.09629271909999998,-0.22525997779999996,-0.07968202619999995
03:37:29,0.0223826250000001,0.004294524999999938,-0.38686811499999996,0.02662556499999999,-0.2230126,0.07615145,0.37773741000000005,-31.786758455,4.626308615,-177.86759809999998,-0.25347637385,0.012272114975000026,0.27411091004999993,0.095121477925,-0.22752165464999996,-0.07869128484999996
03:37:29,0.014062750000000124,0.010972749999999865,-0.38385965,0.025347149999999985,-0.225383,0.0758425,0.3751841000000001,-31.78670505,4.64503565,-177.864101,-0.2577578035,0.020541182250000123,0.27686199549999996,0.09395023675,-0.22978333149999997,-0.07770054349999997
03:37:29,0.005742875000000147,0.017650975000000013,-0.3808511849999999,0.02406873499999998,-0.2277534,0.07553355,0.37263079000000005,-31.786651645,4.663762685,-177.8606039,-0.26203923315,0.028810249524999998,0.27961308095,0.092778995575,-0.23204500834999997,-0.07670980214999995
03:37:29,-0.0025770000000000515,0.02432919999999994,-0.37784271999999997,0.022790319999999975,-0.2301238,0.0752246,0.37007748000000007,-31.78659824,4.6824897199999995,-177.8571068,-0.2663206628,0.037079316800000095,0.2823641664,0.09160775439999999,-0.23430668519999998,-0.07571906079999996
03:37:29,-0.010896875000000028,0.031007424999999866,-0.374834255,0.021511904999999998,-0.23249419999999998,0.07491565,0.3675241700000001,-31.786544835,4.701216755,-177.8536097,-0.27060209245,0.04534838407500019,0.28511525185000003,0.09043651322499999,-0.23656836204999998,-0.07472831944999997
03:37:29,-0.019216750000000005,0.037685650000000015,-0.37182578999999993,0.020233489999999993,-0.23486459999999998,0.0746067,0.36497086000000006,-31.786491429999998,4.71994379,-177.8501126,-0.2748835221,0.05361745135000007,0.28786633729999994,0.08926527204999998,-0.23883003889999999,-0.07373757809999995
03:37:29,-0.02753662499999998,0.04436387499999994,-0.368817325,0.018955074999999988,-0.23723499999999997,0.07429775,0.3624175500000001,-31.786438025,4.738670825,-177.84661549999998,-0.27916495175,0.061886518625000164,0.29061742274999997,0.08809403087499998,-0.24109171575,-0.07274683674999996
03:37:29,-0.03585649999999996,0.05104209999999987,-0.36580886,0.01767666000000001,-0.23960539999999997,0.0739888,0.35986424000000006,-31.78638462,4.75739786,-177.84311839999998,-0.2834463814,0.07015558590000004,0.2933685082,0.0869227897,-0.2433533926,-0.07175609539999997
03:37:29,-0.044176374999999934,0.05772032500000002,-0.36280039499999994,0.016398244999999978,-0.24197579999999996,0.07367984999999999,0.35731093,-31.786331215,4.776124895,-177.8396213,-0.28772781105,0.07842465317500014,0.29611959365,0.085751548525,-0.24561506945,-0.07076535404999995
03:37:29,-0.05249624999999991,0.06439854999999994,-0.35979193,0.01511983,-0.2443462,0.07337089999999999,0.3547576200000001,-31.786277809999998,4.79485193,-177.8361242,-0.2920092407,0.08669372045000001,0.2988706790999999,0.08458030735,-0.24787674629999995,-0.06977461269999996
03:37:29,-0.06081612499999989,0.07107677499999987,-0.3567834649999999,0.013841414999999968,-0.2467166,0.07306194999999999,0.3522043100000001,-31.786224405,4.813578965,-177.8326271,-0.29629067035,0.09496278772500011,0.30162176454999995,0.08340906617499999,-0.25013842314999996,-0.06878387134999997
03:37:30,-0.069136,0.077755,-0.353775,0.012563,-0.249087,0.072753,0.349651,-31.786171,4.832306,-177.82913,-0.3005721,0.103231855,0.30437285,0.082237825,-0.2524001,-0.06779313
03:37:30,-0.06387623,0.0790084,-0.35636260000000003,0.01032577,-0.247164045,0.07196997,0.360886755,-31.77504387,4.839729705,-177.8113105,-0.29891278655000003,0.104241090225,0.3022940024,0.080052126775,-0.2504398695,-0.06552793909999999
03:37:30,-0.05861646,0.08026180000000001,-0.3589502,0.008088539999999998,-0.24524109,0.07118694,0.37212250999999996,-31.76391674,4.84715341,-177.793491,-0.2972534731,0.10525032545,0.3002151548,0.07786642855,-0.24847963900000003,-0.0632627482
03:37:30,-0.05335669,0.08151520000000001,-0.3615378,0.0058513099999999985,-0.243318135,0.07040391,0.383358265,-31.75278961,4.854577115,-177.7756715,-0.29559415965,0.106259560675,0.29813630719999995,0.075680730325,-0.2465194085,-0.06099755729999999
03:37:30,-0.04809692,0.0827686,-0.3641254,0.0036140799999999987,-0.24139518000000001,0.06962088,0.39459402,-31.74166248,4.86200082,-177.75785199999999,-0.2939348462,0.10726879589999999,0.29605745959999996,0.0734950321,-0.24455917800000002,-0.05873236639999999
03:37:30,-0.042837150000000004,0.084022,-0.366713,0.001376849999999999,-0.239472225,0.06883784999999999,0.405829775,-31.73053535,4.869424525,-177.74003249999998,-0.29227553275,0.108278031125,0.293978612,0.071309333875,-0.24259894750000002,-0.056467175499999994
03:37:30,-0.03757738,0.0852754,-0.3693006,-0.0008603800000000026,-0.23754927,0.06805482,0.41706552999999996,-31.71940822,4.87684823,-177.72221299999998,-0.29061621930000003,0.10928726635,0.2918997644,0.06912363565,-0.240638717,-0.054201984599999996
03:37:30,-0.03231761,0.0865288,-0.3718882,-0.0030976100000000024,-0.235626315,0.06727179,0.428301285,-31.70828109,4.884271935,-177.70439349999998,-0.28895690585,0.110296501575,0.2898209168,0.066937937425,-0.2386784865,-0.0519367937
03:37:30,-0.02705784,0.0877822,-0.3744758,-0.005334840000000002,-0.23370336,0.06648876,0.43953704,-31.697153959999998,4.89169564,-177.68657399999998,-0.2872975924,0.1113057368,0.28774206919999995,0.0647522392,-0.23671825600000002,-0.04967160279999999
03:37:30,-0.021798070000000003,0.0890356,-0.3770634,-0.007572070000000002,-0.231780405,0.06570573,0.450772795,-31.68602683,4.899119345,-177.6687545,-0.28563827895,0.112314972025,0.28566322159999996,0.062566540975,-0.23475802550000002,-0.0474064119
03:37:30,-0.0165383,0.09028900000000001,-0.379651,-0.009809300000000002,-0.22985745,0.0649227,0.46200854999999996,-31.6748997,4.90654305,-177.650935,-0.2839789655,0.11332420725,0.283584374,0.060380842750000004,-0.23279779500000003,-0.045141220999999995
03:37:30,-0.011278529999999995,0.0915424,-0.3822386,-0.012046530000000001,-0.22793449500000001,0.06413967,0.473244305,-31.66377257,4.913966755,-177.6331155,-0.28231965205,0.11433344247499999,0.2815055264,0.058195144525000006,-0.2308375645,-0.0428760301
03:37:30,-0.006018759999999998,0.0927958,-0.3848262,-0.014283760000000005,-0.22601154,0.06335663999999999,0.48448006,-31.65264544,4.92139046,-177.615296,-0.2806603386,0.1153426777,0.2794266788,0.0560094463,-0.22887733400000002,-0.0406108392
03:37:30,-0.000758990000000001,0.0940492,-0.38741380000000003,-0.016520990000000006,-0.224088585,0.06257361,0.49571581499999995,-31.64151831,4.928814165,-177.5974765,-0.27900102515,0.116351912925,0.27734783119999995,0.053823748075000004,-0.22691710350000002,-0.03834564829999999
03:37:30,0.00450078000000001,0.0953026,-0.3900014,-0.018758220000000006,-0.22216563,0.06179058,0.50695157,-31.63039118,4.93623787,-177.579657,-0.2773417117,0.11736114815,0.27526898359999996,0.051638049850000006,-0.224956873,-0.036080457399999995
03:37:30,0.009760550000000007,0.096556,-0.392589,-0.020995450000000006,-0.220242675,0.06100755,0.518187325,-31.619264049999998,4.943661575,-177.5618375,-0.27568239825,0.118370383375,0.273190136,0.049452351625,-0.2229966425,-0.033815266499999996
03:37:30,0.015020320000000004,0.0978094,-0.3951766,-0.023232680000000006,-0.21831972,0.06022452,0.5294230799999999,-31.60813692,4.95108528,-177.544018,-0.2740230848,0.1193796186,0.2711112884,0.047266653400000004,-0.22103641200000002,-0.0315500756
03:37:30,0.02028009,0.0990628,-0.3977642,-0.025469910000000005,-0.216396765,0.05944149,0.5406588349999999,-31.59700979,4.958508985,-177.5261985,-0.27236377135,0.120388853825,0.2690324408,0.045080955175000006,-0.21907618150000002,-0.0292848847
03:37:30,0.025539859999999998,0.1003162,-0.4003518,-0.027707140000000005,-0.21447381,0.058658459999999996,0.55189459,-31.58588266,4.96593269,-177.508379,-0.27070445790000003,0.12139808904999999,0.26695359319999995,0.04289525695,-0.21711595100000003,-0.0270196938
03:37:30,0.03079963000000001,0.1015696,-0.4029394,-0.029944370000000005,-0.212550855,0.05787543,0.5631303449999999,-31.57475553,4.973356395,-177.4905595,-0.26904514445,0.12240732427499999,0.26487474559999996,0.040709558725000004,-0.2151557205,-0.024754502899999996
03:37:30,0.036059400000000005,0.102823,-0.40552699999999997,-0.032181600000000005,-0.2106279,0.0570924,0.5743661,-31.5636284,4.9807801,-177.47274,-0.267385831,0.1234165595,0.26279589799999997,0.03852386050000001,-0.21319549000000002,-0.022489311999999997
03:37:30,0.04131917,0.1040764,-0.4081146,-0.034418830000000004,-0.208704945,0.05630937,0.585601855,-31.55250127,4.988203805,-177.4549205,-0.26572651755,0.124425794725,0.2607170504,0.036338162275,-0.21123525950000002,-0.0202241211
03:37:30,0.04657894000000001,0.1053298,-0.4107022,-0.036656060000000004,-0.20678199,0.055526339999999993,0.5968376099999999,-31.54137414,4.99562751,-177.43710099999998,-0.2640672041,0.12543502995,0.25863820279999994,0.034152464050000005,-0.209275029,-0.0179589302
03:37:30,0.05183871000000001,0.1065832,-0.4132898,-0.038893290000000004,-0.204859035,0.05474331,0.608073365,-31.53024701,5.003051215,-177.41928149999998,-0.26240789065000003,0.126444265175,0.25655935519999995,0.03196676582500001,-0.2073147985,-0.015693739300000002
03:37:30,0.05709848000000001,0.1078366,-0.4158774,-0.04113052000000001,-0.20293608000000002,0.05396028,0.6193091199999999,-31.519119879999998,5.01047492,-177.40146199999998,-0.2607485772,0.1274535004,0.25448050759999996,0.029781067600000002,-0.20535456800000002,-0.013428548400000004
03:37:30,0.062358250000000004,0.10908999999999999,-0.418465,-0.04336775000000001,-0.20101312500000001,0.053177249999999995,0.630544875,-31.50799275,5.017898625,-177.3836425,-0.25908926375,0.128462735625,0.25240165999999997,0.027595369375000005,-0.20339433750000002,-0.011163357499999998
03:37:30,0.06761802,0.11034340000000001,-0.4210526,-0.04560498000000001,-0.19909017,0.05239422,0.64178063,-31.49686562,5.02532233,-177.365823,-0.2574299503,0.12947197085,0.2503228124,0.025409671150000007,-0.20143410700000003,-0.0088981666
03:37:30,0.07287779,0.1115968,-0.4236402,-0.04784221000000001,-0.197167215,0.05161119,0.6530163849999999,-31.48573849,5.032746035,-177.3480035,-0.25577063685,0.130481206075,0.24824396479999997,0.02322397292500001,-0.1994738765,-0.006632975700000002
03:37:30,0.07813756000000002,0.1128502,-0.4262278,-0.05007944000000001,-0.19524426,0.05082816,0.6642521399999999,-31.47461136,5.04016974,-177.330184,-0.2541113234,0.13149044129999998,0.24616511719999995,0.021038274700000005,-0.19751364600000001,-0.004367784799999996
03:37:30,0.08339733000000002,0.1141036,-0.4288154,-0.05231667,-0.193321305,0.05004513,0.675487895,-31.46348423,5.0475934449999995,-177.3123645,-0.25245200995,0.132499676525,0.24408626959999996,0.018852576475000007,-0.19555341550000002,-0.002102593900000005
03:37:30,0.08865710000000002,0.115357,-0.431403,-0.05455390000000001,-0.19139835,0.0492621,0.68672365,-31.4523571,5.05501715,-177.294545,-0.2507926965,0.13350891175,0.24200742199999997,0.016666878250000003,-0.193593185,0.00016259700000000044
03:37:30,0.09391687000000001,0.1166104,-0.4339906,-0.05679113,-0.189475395,0.04847907,0.697959405,-31.44122997,5.062440855,-177.2767255,-0.24913338305,0.134518146975,0.23992857439999998,0.014481180025000012,-0.1916329545,0.002427787899999992
03:37:30,0.09917664000000001,0.11786379999999999,-0.4365782,-0.05902836000000001,-0.18755244,0.047696039999999995,0.7091951599999999,-31.43010284,5.06986456,-177.258906,-0.2474740696,0.1355273822,0.23784972679999997,0.012295481800000008,-0.18967272400000001,0.004692978799999997
03:37:30,0.10443641000000001,0.1191172,-0.4391658,-0.061265590000000016,-0.18562948499999998,0.04691301,0.7204309149999999,-31.418975709999998,5.077288265,-177.2410865,-0.24581475615,0.136536617425,0.23577087919999995,0.010109783575000003,-0.18771249350000002,0.006958169700000003
03:37:30,0.10969618,0.1203706,-0.4417534,-0.06350282,-0.18370653,0.04612998,0.7316666699999999,-31.40784858,5.08471197,-177.223267,-0.2441554427,0.13754585265,0.23369203159999996,0.007924085350000012,-0.18575226300000003,0.009223360599999994
03:37:30,0.11495595,0.121624,-0.444341,-0.06574005000000001,-0.181783575,0.04534695,0.7429024249999999,-31.39672145,5.092135675,-177.2054475,-0.24249612925,0.13855508787499998,0.23161318399999997,0.005738387125000008,-0.1837920325,0.0114885515
03:37:30,0.12021572,0.1228774,-0.4469286,-0.06797728,-0.17986062,0.04456392,0.75413818,-31.38559432,5.09955938,-177.187628,-0.2408368158,0.1395643231,0.22953433639999998,0.0035526889000000034,-0.18183180200000001,0.01375374239999999
03:37:30,0.12547549000000002,0.1241308,-0.44951620000000003,-0.07021451000000001,-0.177937665,0.04378089,0.765373935,-31.37446719,5.1069830849999995,-177.1698085,-0.23917750235000002,0.14057355832500001,0.22745548879999997,0.0013669906750000127,-0.17987157150000002,0.016018933299999996
03:37:30,0.13073526000000002,0.1253842,-0.4521038,-0.07245174,-0.17601471000000002,0.04299786,0.7766096899999999,-31.36334006,5.11440679,-177.151989,-0.2375181889,0.14158279355,0.22537664119999995,-0.0008187075499999918,-0.177911341,0.0182841242
03:37:30,0.13599503000000002,0.1266376,-0.45469139999999997,-0.07468897000000001,-0.17409175500000001,0.042214829999999995,0.7878454449999999,-31.35221293,5.121830495,-177.13416949999998,-0.23585887545,0.142592028775,0.22329779359999996,-0.0030044057749999964,-0.1759511105,0.020549315099999993
03:37:30,0.1412548,0.127891,-0.457279,-0.0769262,-0.1721688,0.0414318,0.7990811999999999,-31.3410858,5.1292542,-177.11634999999998,-0.234199562,0.143601264,0.22121894599999997,-0.005190103999999987,-0.17399088000000001,0.022814506
03:37:30,0.14651457,0.1291444,-0.4598666,-0.07916343,-0.170245845,0.04064877,0.8103169549999999,-31.32995867,5.136677905,-177.09853049999998,-0.23254024855,0.144610499225,0.21914009839999998,-0.007375802224999992,-0.17203064950000002,0.02507969689999999
03:37:30,0.15177434,0.1303978,-0.4624542,-0.08140066,-0.16832289,0.03986574,0.82155271,-31.31883154,5.14410161,-177.080711,-0.23088093510000002,0.14561973444999998,0.21706125079999997,-0.009561500449999996,-0.17007041900000003,0.027344887799999995
03:37:30,0.15703411,0.1316512,-0.4650418,-0.08363789,-0.166399935,0.03908271,0.8327884649999999,-31.30770441,5.151525315,-177.0628915,-0.22922162164999998,0.146628969675,0.21498240319999995,-0.011747198674999987,-0.1681101885,0.0296100787
03:37:30,0.16229388000000003,0.13290459999999998,-0.4676294,-0.08587512,-0.16447698,0.038299679999999996,0.8440242199999999,-31.29657728,5.15894902,-177.045072,-0.2275623082,0.14763820490000001,0.21290355559999996,-0.013932896899999991,-0.16614995800000001,0.03187526959999999
03:37:30,0.16755365000000003,0.134158,-0.470217,-0.08811235,-0.162554025,0.03751665,0.8552599749999998,-31.28545015,5.1663727249999996,-177.0272525,-0.22590299475,0.148647440125,0.21082470799999997,-0.016118595124999996,-0.16418972750000002,0.0341404605
03:37:30,0.17281342000000002,0.1354114,-0.4728046,-0.09034958,-0.16063107,0.03673362,0.86649573,-31.27432302,5.1737964299999994,-177.009433,-0.2242436813,0.14965667535,0.20874586039999998,-0.018304293349999987,-0.162229497,0.03640565139999999
03:37:30,0.17807319000000002,0.1366648,-0.4753922,-0.09258681,-0.15870811499999998,0.03595059,0.877731485,-31.26319589,5.181220135,-176.9916135,-0.22258436785000002,0.150665910575,0.20666701279999997,-0.02048999157499999,-0.1602692665,0.038670842299999994
03:37:30,0.18333296000000002,0.1379182,-0.4779798,-0.09482404000000001,-0.15678516,0.03516756,0.8889672399999999,-31.25206876,5.18864384,-176.973794,-0.2209250544,0.1516751458,0.20458816519999995,-0.022675689799999996,-0.15830903600000001,0.040936033199999985
03:37:30,0.18859273000000001,0.1391716,-0.4805674,-0.09706127,-0.154862205,0.034384529999999996,0.9002029949999999,-31.24094163,5.196067545,-176.9559745,-0.21926574095,0.15268438102499998,0.20250931759999996,-0.024861388024999986,-0.15634880550000002,0.04320122409999999
03:37:30,0.1938525,0.140425,-0.483155,-0.09929850000000001,-0.15293925,0.0336015,0.9114387499999999,-31.2298145,5.20349125,-176.938155,-0.2176064275,0.15369361625,0.20043046999999997,-0.02704708624999999,-0.15438857500000003,0.045466414999999996
03:37:30,0.19911227,0.14167839999999998,-0.4857426,-0.10153573,-0.151016295,0.032818469999999995,0.9226745049999998,-31.21868737,5.210914955,-176.9203355,-0.21594711405,0.15470285147500001,0.19835162239999998,-0.02923278447499998,-0.1524283445,0.04773160589999999
03:37:30,0.20437204,0.1429318,-0.4883302,-0.10377296000000001,-0.14909334000000002,0.03203544,0.93391026,-31.20756024,5.21833866,-176.902516,-0.21428780060000002,0.1557120867,0.19627277479999997,-0.031418482699999986,-0.15046811400000001,0.04999679679999999
03:37:30,0.20963181,0.1441852,-0.49091779999999996,-0.10601019,-0.14717038500000001,0.03125241,0.945146015,-31.19643311,5.225762365,-176.8846965,-0.21262848715,0.156721321925,0.19419392719999995,-0.03360418092499999,-0.14850788350000002,0.052261987699999984
