Timestamp,linacce_x,linacce_y,linacce_z,gyro_x,gyro_y,gyro_z,X-magnetometer,Y-magnetometer,Z-magnetometer,Yaw, worldXAccel,worldYAccel,worldZAccel,worldXgyro,worldYgyro,worldZgyro
03:39:35,-0.378739,-0.96239,-0.781673,-0.044966,0.273999,0.156916,-4.111992,-31.522896,-5.812981,169.08641,-0.6950823,-0.95120883,1.0049602,0.033816207,0.26318488,-0.14989832
03:39:35,-0.38358273,-0.95353829,-0.77934193,-0.046334969999999996,0.27086155,0.15374126,-4.0834202799999995,-31.521695935,-5.81210518,169.1387717,-0.698522857,-0.94384582735,1.0054300315,0.031301357465,0.26027245995000003,-0.14628145605
03:39:35,-0.38842646,-0.9446865799999999,-0.77701086,-0.04770394,0.2677241,0.15056652,-4.05484856,-31.520495869999998,-5.81122936,169.1911334,-0.7019634140000001,-0.9364828247,1.005899863,0.02878650793,0.2573600399,-0.14266459210000002
03:39:35,-0.39327019,-0.93583487,-0.77467979,-0.04907291,0.26458665,0.14739178,-4.0262768399999995,-31.519295805,-5.8103535399999995,169.2434951,-0.7054039710000001,-0.92911982205,1.0063696945,0.026271658395,0.25444761985000003,-0.13904772815
03:39:35,-0.39811392,-0.92698316,-0.77234872,-0.05044188,0.2614492,0.14421704,-3.99770512,-31.51809574,-5.809477719999999,169.2958568,-0.7088445280000001,-0.9217568194,1.006839526,0.02375680886,0.2515351998,-0.1354308642
03:39:35,-0.40295765,-0.91813145,-0.77001765,-0.05181085,0.25831175,0.1410423,-3.9691334,-31.516895675,-5.808601899999999,169.3482185,-0.7122850850000001,-0.91439381675,1.0073093575,0.021241959325,0.24862277975000002,-0.13181400025
03:39:35,-0.40780138,-0.90927974,-0.7676865799999999,-0.05317982,0.25517429999999997,0.13786756,-3.94056168,-31.515695609999998,-5.80772608,169.4005802,-0.715725642,-0.9070308141,1.007779189,0.01872710979,0.24571035970000002,-0.12819713630000001
03:39:35,-0.41264511,-0.9004280299999999,-0.7653555099999999,-0.05454879,0.25203685,0.13469282,-3.9119899599999997,-31.514495545,-5.80685026,169.4529419,-0.719166199,-0.89966781145,1.0082490204999999,0.016212260255,0.24279793965000002,-0.12458027235000001
03:39:35,-0.41748883999999997,-0.89157632,-0.7630244399999999,-0.05591776,0.2488994,0.13151807999999998,-3.8834182399999997,-31.51329548,-5.80597444,169.5053036,-0.722606756,-0.8923048088,1.0087188519999999,0.01369741072,0.2398855196,-0.1209634084
03:39:35,-0.42233257,-0.88272461,-0.7606933699999999,-0.05728673,0.24576195,0.12834334,-3.8548465199999997,-31.512095415,-5.80509862,169.5576653,-0.726047313,-0.88494180615,1.0091886835,0.011182561185000002,0.23697309955,-0.11734654445
03:39:35,-0.4271763,-0.8738729,-0.7583622999999999,-0.0586557,0.2426245,0.1251686,-3.8262747999999998,-31.51089535,-5.8042228,169.610027,-0.72948787,-0.8775788035000001,1.009658515,0.00866771165,0.2340606795,-0.11372968050000001
03:39:35,-0.43202003,-0.86502119,-0.7560312299999999,-0.06002467,0.23948704999999998,0.12199386,-3.79770308,-31.509695285,-5.80334698,169.6623887,-0.732928427,-0.87021580085,1.0101283465,0.006152862115000001,0.23114825945,-0.11011281655
03:39:35,-0.43686376,-0.8561694799999999,-0.75370016,-0.06139364,0.2363496,0.11881912,-3.76913136,-31.50849522,-5.80247116,169.7147504,-0.7363689840000001,-0.8628527982,1.010598178,0.0036380125800000024,0.22823583940000003,-0.1064959526
03:39:35,-0.44170749,-0.84731777,-0.75136909,-0.06276261,0.23321215,0.11564437999999999,-3.74055964,-31.507295154999998,-5.8015953399999995,169.7671121,-0.7398095410000001,-0.85548979555,1.0110680095,0.0011231630450000002,0.22532341935,-0.10287908865
03:39:35,-0.44655122,-0.83846606,-0.74903802,-0.06413158,0.2300747,0.11246964,-3.71198792,-31.50609509,-5.8007195199999995,169.8194738,-0.7432500980000001,-0.8481267929,1.011537841,-0.001391686490000002,0.22241099930000002,-0.09926222470000001
03:39:35,-0.45139495,-0.82961435,-0.74670695,-0.06550054999999999,0.22693724999999998,0.1092949,-3.6834162,-31.504895025,-5.799843699999999,169.8718355,-0.7466906550000001,-0.84076379025,1.0120076725,-0.003906536024999997,0.21949857925000002,-0.09564536075
03:39:35,-0.45623868,-0.82076264,-0.74437588,-0.06686952,0.2237998,0.10612015999999999,-3.65484448,-31.50369496,-5.79896788,169.9241972,-0.7501312120000001,-0.8334007876,1.012477504,-0.0064213855599999994,0.21658615920000002,-0.0920284968
03:39:35,-0.46108241,-0.81191093,-0.74204481,-0.06823849,0.22066235,0.10294541999999998,-3.62627276,-31.502494894999998,-5.79809206,169.97655890000001,-0.753571769,-0.82603778495,1.0129473355,-0.008936235095000002,0.21367373915,-0.08841163285
03:39:35,-0.46592614,-0.80305922,-0.73971374,-0.06960746,0.2175249,0.09977067999999999,-3.59770104,-31.50129483,-5.79721624,170.0289206,-0.757012326,-0.8186747823,1.013417167,-0.011451084629999997,0.2107613191,-0.08479476890000001
03:39:35,-0.47076987000000003,-0.79420751,-0.7373826699999999,-0.07097643,0.21438744999999998,0.09659593999999999,-3.56912932,-31.500094765,-5.79634042,170.0812823,-0.760452883,-0.81131177965,1.0138869984999999,-0.013965934164999999,0.20784889905000004,-0.08117790495
03:39:35,-0.4756136,-0.7853558,-0.7350515999999999,-0.0723454,0.21125,0.09342119999999998,-3.5405575999999996,-31.4988947,-5.7954646,170.133644,-0.76389344,-0.803948777,1.0143568299999999,-0.0164807837,0.204936479,-0.07756104100000001
03:39:35,-0.48045733,-0.77650409,-0.7327205299999999,-0.07371437,0.20811255,0.09024645999999999,-3.51198588,-31.497694635,-5.79458878,170.1860057,-0.767333997,-0.79658577435,1.0148266615,-0.018995633234999997,0.20202405895000003,-0.07394417705
03:39:35,-0.48530106,-0.76765238,-0.7303894599999999,-0.07508334,0.2049751,0.08707171999999999,-3.4834141599999997,-31.49649457,-5.79371296,170.2383674,-0.7707745540000001,-0.7892227717,1.015296493,-0.02151048277,0.19911163890000003,-0.07032731310000001
03:39:35,-0.49014479,-0.7588006700000001,-0.7280583899999999,-0.07645231,0.20183764999999998,0.08389697999999998,-3.45484244,-31.495294505,-5.79283714,170.2907291,-0.7742151110000001,-0.78185976905,1.0157663245,-0.024025332305,0.19619921885000002,-0.06671044915
03:39:35,-0.49498852000000004,-0.74994896,-0.72572732,-0.07782127999999999,0.1987002,0.08072223999999999,-3.4262707199999998,-31.49409444,-5.7919613199999995,170.3430908,-0.7776556680000001,-0.7744967664,1.016236156,-0.026540181839999996,0.19328679880000002,-0.06309358520000001
03:39:35,-0.49983225000000003,-0.7410972499999999,-0.72339625,-0.07919024999999999,0.19556275,0.07754749999999999,-3.397699,-31.492894375,-5.791085499999999,170.3954525,-0.7810962250000001,-0.76713376375,1.0167059875,-0.029055031375,0.19037437875000002,-0.05947672125
03:39:35,-0.50467598,-0.73224554,-0.72106518,-0.08055922,0.1924253,0.07437275999999998,-3.36912728,-31.49169431,-5.790209679999999,170.4478142,-0.784536782,-0.7597707611,1.017175819,-0.03156988091,0.18746195870000001,-0.05585985730000001
03:39:35,-0.50951971,-0.72339383,-0.71873411,-0.08192819,0.18928784999999998,0.07119801999999999,-3.34055556,-31.490494245,-5.78933386,170.5001759,-0.787977339,-0.75240775845,1.0176456505,-0.034084730445,0.18454953865,-0.05224299335
03:39:35,-0.51436344,-0.71454212,-0.71640304,-0.08329716,0.1861504,0.06802327999999999,-3.31198384,-31.489294179999998,-5.78845804,170.5525376,-0.791417896,-0.7450447558,1.018115482,-0.036599579980000005,0.18163711860000004,-0.04862612940000001
03:39:35,-0.51920717,-0.70569041,-0.71407197,-0.08466613,0.18301295,0.06484853999999998,-3.28341212,-31.488094115,-5.78758222,170.6048993,-0.794858453,-0.73768175315,1.0185853135,-0.03911442951499999,0.17872469855,-0.04500926545
03:39:35,-0.5240509,-0.6968387,-0.7117408999999999,-0.0860351,0.1798755,0.06167379999999999,-3.2548404,-31.48689405,-5.7867064,170.657261,-0.79829901,-0.7303187505,1.019055145,-0.041629279049999995,0.17581227850000003,-0.04139240150000001
03:39:35,-0.52889463,-0.68798699,-0.70940983,-0.08740407,0.17673804999999998,0.05849905999999998,-3.22626868,-31.485693985,-5.78583058,170.7096227,-0.801739567,-0.7229557478499999,1.0195249765,-0.044144128585,0.17289985845000003,-0.03777553755
03:39:35,-0.5337383600000001,-0.67913528,-0.7070787599999999,-0.08877304,0.1736006,0.05532431999999998,-3.19769696,-31.48449392,-5.78495476,170.7619844,-0.805180124,-0.7155927451999999,1.0199948079999999,-0.04665897812,0.16998743840000002,-0.03415867360000001
03:39:35,-0.53858209,-0.67028357,-0.7047476899999999,-0.09014201,0.17046315,0.05214957999999999,-3.16912524,-31.483293855,-5.78407894,170.8143461,-0.8086206810000001,-0.7082297425499999,1.0204646394999999,-0.049173827655,0.16707501835000002,-0.030541809650000015
03:39:35,-0.5434258200000001,-0.66143186,-0.7024166199999999,-0.09151097999999999,0.1673257,0.04897483999999998,-3.14055352,-31.48209379,-5.78320312,170.8667078,-0.8120612380000001,-0.7008667398999999,1.020934471,-0.051688677190000004,0.16416259830000002,-0.026924945700000008
03:39:35,-0.54826955,-0.65258015,-0.70008555,-0.09287994999999999,0.16418824999999998,0.04580009999999998,-3.1119817999999997,-31.480893725,-5.7823272999999995,170.9190695,-0.8155017950000001,-0.6935037372499999,1.0214043025,-0.054203526725000006,0.16125017825000004,-0.023308081750000015
03:39:35,-0.55311328,-0.6437284400000001,-0.69775448,-0.09424892,0.1610508,0.04262535999999997,-3.08341008,-31.47969366,-5.781451479999999,170.9714312,-0.8189423520000001,-0.6861407345999999,1.021874134,-0.056718376259999995,0.1583377582,-0.01969121780000002
03:39:35,-0.55795701,-0.63487673,-0.69542341,-0.09561789,0.15791335,0.03945061999999998,-3.0548383599999998,-31.478493595,-5.78057566,171.0237929,-0.8223829090000001,-0.6787777319499999,1.0223439655,-0.059233225795,0.15542533815000004,-0.01607435385
03:39:35,-0.56280074,-0.62602502,-0.69309234,-0.09698686,0.1547759,0.03627587999999998,-3.0262666400000002,-31.47729353,-5.77969984,171.0761546,-0.8258234660000001,-0.6714147293,1.022813797,-0.06174807533,0.15251291810000003,-0.012457489900000007
03:39:35,-0.5676444700000001,-0.6171733100000001,-0.69076127,-0.09835583,0.15163844999999998,0.03310113999999997,-2.99769492,-31.476093464999998,-5.77882402,171.1285163,-0.829264023,-0.66405172665,1.0232836285,-0.064262924865,0.14960049805000003,-0.008840625950000014
03:39:35,-0.5724882,-0.6083216,-0.6884302,-0.0997248,0.148501,0.029926399999999964,-2.9691232,-31.4748934,-5.7779482,171.180878,-0.83270458,-0.656688724,1.02375346,-0.0667777744,0.14668807800000003,-0.005223762000000021
03:39:35,-0.57733193,-0.59946989,-0.68609913,-0.10109377,0.14536355,0.026751659999999983,-2.94055148,-31.473693335,-5.77707238,171.2332397,-0.836145137,-0.64932572135,1.0242232915,-0.069292623935,0.14377565795000002,-0.0016068980499999996
03:39:35,-0.5821756600000001,-0.59061818,-0.68376806,-0.10246274,0.1422261,0.023576919999999973,-2.91197976,-31.47249327,-5.77619656,171.2856014,-0.839585694,-0.6419627187,1.024693123,-0.07180747347,0.14086323790000002,0.0020099658999999936
03:39:35,-0.58701939,-0.58176647,-0.6814369899999999,-0.10383171,0.13908864999999998,0.020402179999999964,-2.88340804,-31.471293205,-5.77532074,171.3379631,-0.8430262510000001,-0.63459971605,1.0251629545,-0.074322323005,0.13795081785000002,0.005626829849999987
03:39:35,-0.59186312,-0.57291476,-0.6791059199999999,-0.10520067999999999,0.1359512,0.017227439999999983,-2.85483632,-31.47009314,-5.77444492,171.3903248,-0.8464668080000001,-0.6272367134,1.0256327859999999,-0.07683717254,0.13503839780000004,0.00924369379999998
03:39:35,-0.59670685,-0.56406305,-0.6767748499999999,-0.10656964999999999,0.13281375,0.014052699999999974,-2.8262646,-31.468893075,-5.7735691,171.4426865,-0.8499073650000001,-0.61987371075,1.0261026174999999,-0.079352022075,0.13212597775000004,0.012860557750000001
03:39:35,-0.6015505800000001,-0.55521134,-0.6744437799999999,-0.10793861999999999,0.1296763,0.010877959999999964,-2.79769288,-31.46769301,-5.7726932799999995,171.4950482,-0.8533479220000001,-0.6125107081,1.0265724489999999,-0.08186687161,0.12921355770000004,0.016477421699999995
03:39:35,-0.60639431,-0.54635963,-0.67211271,-0.10930759000000001,0.12653884999999998,0.007703219999999983,-2.76912116,-31.466492945,-5.771817459999999,171.5474099,-0.856788479,-0.60514770545,1.0270422805,-0.084381721145,0.12630113765000003,0.020094285649999988
03:39:35,-0.61123804,-0.53750792,-0.66978164,-0.11067656000000001,0.1234014,0.004528479999999974,-2.7405494399999997,-31.46529288,-5.77094164,171.5997716,-0.860229036,-0.5977847028,1.027512112,-0.08689657068,0.12338871760000003,0.02371114959999998
03:39:35,-0.6160817700000001,-0.5286562100000001,-0.66745057,-0.11204553,0.12026395000000001,0.0013537399999999644,-2.71197772,-31.464092815,-5.77006582,171.6521333,-0.863669593,-0.5904217001500001,1.0279819435,-0.089411420215,0.12047629755000003,0.027328013549999974
03:39:35,-0.6209255,-0.5198045,-0.6651195,-0.1134145,0.1171265,-0.001821000000000017,-2.6834059999999997,-31.46289275,-5.76919,171.704495,-0.86711015,-0.5830586975000001,1.028451775,-0.09192626975,0.11756387750000002,0.030944877499999995
03:39:35,-0.6257692300000001,-0.51095279,-0.66278843,-0.11478347,0.11398904999999998,-0.004995740000000026,-2.65483428,-31.461692685,-5.76831418,171.75685670000001,-0.870550707,-0.57569569485,1.0289216065,-0.094441119285,0.11465145745000002,0.03456174144999999
03:39:35,-0.6306129600000001,-0.5021010800000001,-0.66045736,-0.11615244,0.1108516,-0.008170480000000035,-2.62626256,-31.46049262,-5.76743836,171.8092184,-0.873991264,-0.5683326922,1.029391438,-0.09695596882,0.11173903740000002,0.03817860539999998
03:39:35,-0.63545669,-0.49324937,-0.65812629,-0.11752140999999999,0.10771415000000001,-0.011345220000000017,-2.5976908400000003,-31.459292555,-5.76656254,171.8615801,-0.8774318210000001,-0.56096968955,1.0298612695,-0.099470818355,0.10882661735000004,0.041795469349999975
03:39:35,-0.64030042,-0.48439766000000006,-0.6557952199999999,-0.11889037999999999,0.1045767,-0.014519960000000026,-2.56911912,-31.45809249,-5.76568672,171.9139418,-0.8808723780000001,-0.5536066869,1.030331101,-0.10198566789,0.10591419730000004,0.045412333299999996
03:39:35,-0.64514415,-0.47554595000000005,-0.65346415,-0.12025934999999999,0.10143924999999998,-0.017694700000000035,-2.5405474,-31.456892425,-5.7648109,171.9663035,-0.8843129350000001,-0.54624368425,1.0308009325,-0.10450051742500001,0.10300177725000004,0.04902919724999999
03:39:35,-0.6499878800000001,-0.46669424000000004,-0.6511330799999999,-0.12162831999999998,0.0983018,-0.020869440000000017,-2.51197568,-31.45569236,-5.7639350799999995,172.01866520000002,-0.8877534920000001,-0.5388806816,1.031270764,-0.10701536696000001,0.10008935720000003,0.05264606119999998
03:39:35,-0.65483161,-0.4578425300000001,-0.6488020099999999,-0.12299729000000001,0.09516435000000001,-0.024044180000000026,-2.48340396,-31.454492295,-5.7630592599999995,172.0710269,-0.8911940490000001,-0.53151767895,1.0317405954999999,-0.10953021649500001,0.09717693715000003,0.056262925149999976
03:39:35,-0.65967534,-0.44899082,-0.6464709399999999,-0.12436626,0.0920269,-0.027218920000000035,-2.45483224,-31.45329223,-5.76218344,172.1233886,-0.8946346060000001,-0.5241546763,1.0322104269999999,-0.11204506602999999,0.09426451710000003,0.0598797891
03:39:35,-0.6645190700000001,-0.44013911000000006,-0.64413987,-0.12573523,0.08888944999999998,-0.030393660000000045,-2.42626052,-31.452092165,-5.76130762,172.1757503,-0.8980751630000001,-0.51679167365,1.0326802585,-0.11455991556499999,0.09135209705000003,0.06349665304999999
03:39:35,-0.6693628,-0.4312874000000001,-0.6418088,-0.1271042,0.085752,-0.033568400000000026,-2.3976888,-31.4508921,-5.7604318,172.228112,-0.9015157200000001,-0.509428671,1.03315009,-0.11707476509999999,0.08843967700000005,0.06711351699999998
03:39:35,-0.67420653,-0.42243569000000003,-0.63947773,-0.12847317,0.08261455000000001,-0.036743140000000035,-2.3691170799999997,-31.449692035,-5.75955598,172.2804737,-0.904956277,-0.50206566835,1.0336199215,-0.119589614635,0.08552725695000005,0.07073038094999998
03:39:35,-0.6790502600000001,-0.4135839800000001,-0.63714666,-0.12984214,0.0794771,-0.039917880000000044,-2.34054536,-31.44849197,-5.75868016,172.3328354,-0.908396834,-0.4947026657,1.034089753,-0.12210446417,0.08261483690000004,0.0743472449
03:39:35,-0.6838939900000001,-0.40473227,-0.63481559,-0.13121111,0.07633964999999998,-0.043092620000000026,-2.3119736399999997,-31.447291905,-5.75780434,172.3851971,-0.911837391,-0.48733966305,1.0345595845,-0.124619313705,0.07970241685000004,0.07796410884999999
03:39:35,-0.68873772,-0.39588056000000005,-0.63248452,-0.13258008,0.0732022,-0.046267360000000035,-2.28340192,-31.44609184,-5.75692852,172.4375588,-0.9152779480000001,-0.4799766604,1.035029416,-0.12713416324,0.07678999680000004,0.08158097279999998
03:39:35,-0.69358145,-0.3870288500000001,-0.63015345,-0.13394905,0.07006475000000001,-0.049442100000000044,-2.2548302,-31.444891775,-5.7560527,172.4899205,-0.9187185050000001,-0.47261365774999997,1.0354992475,-0.12964901277500002,0.07387757675000003,0.08519783674999998
03:39:35,-0.6984251800000001,-0.37817714,-0.62782238,-0.13531801999999998,0.0669273,-0.052616840000000026,-2.2262584800000003,-31.44369171,-5.75517688,172.5422822,-0.9221590620000001,-0.46525065509999997,1.035969079,-0.13216386231,0.07096515670000003,0.08881470069999997
03:39:35,-0.70326891,-0.36932543000000007,-0.6254913099999999,-0.13668699,0.06378984999999998,-0.055791580000000035,-2.19768676,-31.442491645,-5.7543010599999995,172.5946439,-0.9255996190000001,-0.45788765244999996,1.0364389105,-0.13467871184500002,0.06805273665000003,0.09243156464999999
03:39:35,-0.7081126400000001,-0.36047372,-0.62316024,-0.13805596,0.060652399999999995,-0.058966320000000044,-2.16911504,-31.44129158,-5.753425239999999,172.6470056,-0.929040176,-0.45052464979999995,1.036908742,-0.13719356138,0.06514031660000003,0.09604842859999999
03:39:35,-0.7129563700000001,-0.35162201000000004,-0.6208291699999999,-0.13942493,0.05751495000000001,-0.062141060000000026,-2.14054332,-31.440091515,-5.75254942,172.6993673,-0.932480733,-0.44316164714999995,1.0373785734999998,-0.13970841091500003,0.06222789655000005,0.09966529254999998
03:39:35,-0.7178001,-0.3427703000000001,-0.6184980999999999,-0.1407939,0.054377499999999995,-0.06531580000000003,-2.1119716,-31.43889145,-5.7516736,172.751729,-0.93592129,-0.43579864449999994,1.0378484049999999,-0.14222326045,0.05931547650000005,0.10328215649999997
03:39:35,-0.72264383,-0.33391859,-0.61616703,-0.14216287,0.05124004999999998,-0.06849054000000004,-2.08339988,-31.437691385,-5.75079778,172.8040907,-0.939361847,-0.42843564184999994,1.0383182364999999,-0.14473810998499997,0.056403056450000044,0.10689902044999997
03:39:35,-0.7274875600000001,-0.32506688000000006,-0.61383596,-0.14353184,0.048102599999999995,-0.07166528000000005,-2.05482816,-31.436491320000002,-5.74992196,172.8564524,-0.942802404,-0.42107263919999993,1.038788068,-0.14725295952,0.05349063640000004,0.11051588439999996
03:39:35,-0.7323312900000001,-0.3162151700000001,-0.61150489,-0.14490081,0.04496515000000001,-0.07484002000000003,-2.02625644,-31.435291255,-5.74904614,172.9088141,-0.946242961,-0.4137096365499999,1.0392578995,-0.14976780905499998,0.05057821635000004,0.11413274835000001
03:39:35,-0.73717502,-0.30736346000000003,-0.60917382,-0.14626978,0.041827699999999995,-0.07801476000000004,-1.99768472,-31.43409119,-5.74817032,172.9611758,-0.9496835180000001,-0.4063466338999999,1.039727731,-0.15228265859,0.047665796300000035,0.1177496123
03:39:35,-0.7420187500000001,-0.2985117500000001,-0.60684275,-0.14763874999999999,0.03869024999999998,-0.08118950000000005,-1.9691130000000001,-31.432891125,-5.7472945,173.0135375,-0.9531240750000001,-0.39898363125,1.0401975625,-0.15479750812499998,0.04475337625000003,0.12136647625
03:39:35,-0.7468624800000001,-0.2896600400000001,-0.60451168,-0.14900771999999998,0.035552799999999996,-0.08436424000000003,-1.9405412800000001,-31.43169106,-5.74641868,173.0658992,-0.9565646320000001,-0.3916206286,1.040667394,-0.15731235766,0.04184095620000006,0.12498334019999999
03:39:35,-0.75170621,-0.28080833000000005,-0.60218061,-0.15037669,0.03241535000000001,-0.08753898000000004,-1.9119695600000002,-31.430490995,-5.74554286,173.1182609,-0.9600051890000001,-0.38425762595,1.0411372255,-0.159827207195,0.038928536150000054,0.12860020414999998
03:39:35,-0.7565499400000001,-0.2719566200000001,-0.5998495399999999,-0.15174566,0.029277899999999996,-0.09071372000000005,-1.8833978400000002,-31.42929093,-5.7446670399999995,173.1706226,-0.9634457460000001,-0.3768946233,1.041607057,-0.16234205673000002,0.03601611610000005,0.13221706809999997
03:39:35,-0.7613936700000001,-0.26310491,-0.59751847,-0.15311463,0.026140449999999982,-0.09388846000000006,-1.8548261199999998,-31.428090865,-5.74379122,173.2229843,-0.9668863030000001,-0.36953162065,1.0420768885,-0.164856906265,0.03310369605000005,0.13583393204999997
03:39:35,-0.7662374000000001,-0.25425320000000007,-0.5951873999999999,-0.1544836,0.023002999999999996,-0.09706320000000007,-1.8262543999999998,-31.4268908,-5.7429154,173.275346,-0.9703268600000001,-0.362168618,1.04254672,-0.16737175580000002,0.030191276000000045,0.13945079599999996
03:39:35,-0.77108113,-0.2454014900000001,-0.5928563299999999,-0.15585257,0.01986555000000001,-0.10023794000000003,-1.7976826799999999,-31.425690735,-5.74203958,173.3277077,-0.9737674170000001,-0.35480561535,1.0430165515,-0.169886605335,0.02727885595000004,0.14306765994999995
03:39:35,-0.77592486,-0.23654978000000004,-0.5905252599999999,-0.15722154,0.016728100000000024,-0.10341268000000003,-1.76911096,-31.42449067,-5.74116376,173.3800694,-0.9772079740000001,-0.3474426127,1.0434863829999999,-0.17240145487000003,0.02436643590000004,0.1466845239
03:39:35,-0.7807685900000001,-0.22769807000000009,-0.58819419,-0.15859051,0.013590649999999982,-0.10658742000000004,-1.74053924,-31.423290605000002,-5.74028794,173.4324311,-0.980648531,-0.34007961005,1.0439562144999999,-0.174916304405,0.021454015850000036,0.15030138785
03:39:35,-0.78561232,-0.21884636000000002,-0.58586312,-0.15995948,0.010453199999999996,-0.10976216000000005,-1.71196752,-31.42209054,-5.73941212,173.4847928,-0.9840890880000001,-0.3327166074,1.0444260459999999,-0.17743115393999997,0.018541595800000032,0.1539182518
03:39:35,-0.7904560500000001,-0.20999465000000006,-0.58353205,-0.16132844999999998,0.00731575000000001,-0.11293690000000006,-1.6833958,-31.420890475,-5.7385363,173.5371545,-0.9875296450000001,-0.32535360474999997,1.0448958775,-0.179946003475,0.015629175750000057,0.15753511574999998
03:39:35,-0.7952997800000001,-0.2011429400000001,-0.58120098,-0.16269741999999998,0.004178299999999968,-0.11611164000000007,-1.65482408,-31.41969041,-5.73766048,173.5895162,-0.9909702020000001,-0.31799060209999996,1.045365709,-0.18246085300999998,0.012716755700000026,0.16115197969999998
03:39:35,-0.8001435100000001,-0.19229123000000004,-0.57886991,-0.16406639,0.001040849999999982,-0.11928638000000003,-1.62625236,-31.418490345000002,-5.73678466,173.6418779,-0.9944107590000001,-0.31062759944999996,1.0458355405,-0.184975702545,0.009804335650000051,0.16476884364999997
03:39:35,-0.80498724,-0.18343952000000008,-0.57653884,-0.16543536,-0.002096600000000004,-0.12246112000000003,-1.59768064,-31.41729028,-5.73590884,173.6942396,-0.9978513160000001,-0.30326459679999995,1.046305372,-0.18749055207999998,0.006891915600000076,0.16838570759999996
03:39:35,-0.8098309700000001,-0.17458781000000012,-0.57420777,-0.16680433,-0.00523404999999999,-0.12563586000000004,-1.5691089200000001,-31.416090215,-5.7350330199999995,173.7466013,-1.001291873,-0.29590159414999995,1.0467752035,-0.190005401615,0.003979495550000045,0.17200257154999996
03:39:35,-0.8146747000000001,-0.16573610000000005,-0.5718767,-0.1681733,-0.008371499999999976,-0.12881060000000005,-1.5405372000000002,-31.41489015,-5.7341572,173.79896300000001,-1.00473243,-0.28853859149999994,1.047245035,-0.19252025115,0.0010670755000000698,0.1756194355
03:39:35,-0.81951843,-0.1568843900000001,-0.5695456299999999,-0.16954227,-0.011508950000000018,-0.13198534000000006,-1.5119654800000002,-31.413690085,-5.73328138,173.8513247,-1.008172987,-0.28117558884999994,1.0477148665,-0.19503510068500002,-0.001845344549999961,0.17923629945
03:39:35,-0.8243621600000001,-0.14803268000000014,-0.56721456,-0.17091124,-0.014646400000000004,-0.13516008000000007,-1.4833937600000002,-31.41249002,-5.73240556,173.9036864,-1.011613544,-0.27381258619999993,1.048184698,-0.19754995022,-0.004757764599999936,0.1828531634
03:39:35,-0.8292058900000001,-0.13918097000000007,-0.5648834899999999,-0.17228021,-0.01778384999999999,-0.13833482000000002,-1.4548220399999998,-31.411289955,-5.73152974,173.9560481,-1.015054101,-0.2664495835499999,1.0486545295,-0.20006479975500002,-0.007670184649999967,0.18647002734999998
03:39:35,-0.83404962,-0.1303292600000001,-0.5625524199999999,-0.17364918000000001,-0.02092130000000003,-0.14150956000000003,-1.4262503199999998,-31.410089890000002,-5.73065392,174.0084098,-1.018494658,-0.2590865808999999,1.0491243609999998,-0.20257964929,-0.010582604699999942,0.19008689129999998
03:39:35,-0.8388933500000001,-0.12147755000000005,-0.56022135,-0.17501815,-0.024058750000000018,-0.14468430000000004,-1.3976785999999999,-31.408889825,-5.7297781,174.06077150000002,-1.021935215,-0.2517235782499999,1.0495941924999999,-0.20509449882500003,-0.013495024749999973,0.19370375524999997
03:39:35,-0.8437370800000001,-0.11262584000000009,-0.55789028,-0.17638712,-0.027196200000000004,-0.14785904000000005,-1.36910688,-31.40768976,-5.72890228,174.1131332,-1.025375772,-0.2443605755999999,1.0500640239999999,-0.20760934836,-0.01640744479999995,0.19732061919999996
03:39:35,-0.8485808100000001,-0.10377413000000013,-0.55555921,-0.17775609,-0.03033364999999999,-0.15103378000000006,-1.34053516,-31.406489695,-5.72802646,174.1654949,-1.028816329,-0.23699757295,1.0505338555,-0.21012419789499998,-0.019319864849999924,0.20093748314999996
03:39:35,-0.85342454,-0.09492242000000006,-0.55322814,-0.17912506,-0.033471099999999976,-0.15420852000000007,-1.31196344,-31.405289630000002,-5.72715064,174.2178566,-1.032256886,-0.2296345703,1.051003687,-0.21263904743,-0.022232284899999954,0.20455434709999995
03:39:35,-0.8582682700000002,-0.0860707100000001,-0.55089707,-0.18049403,-0.03660855000000002,-0.15738326000000008,-1.28339172,-31.404089565,-5.7262748199999995,174.2702183,-1.035697443,-0.22227156765,1.0514735185,-0.21515389696499998,-0.02514470494999993,0.20817121105
03:39:35,-0.8631120000000001,-0.07721900000000004,-0.548566,-0.181863,-0.039746000000000004,-0.16055800000000003,-1.25482,-31.4028895,-5.7253989999999995,174.32258000000002,-1.0391380000000001,-0.214908565,1.05194335,-0.2176687465,-0.02805712499999996,0.211788075
03:39:35,-0.86795573,-0.06836729000000008,-0.54623493,-0.18323197,-0.04288344999999999,-0.16373274000000004,-1.22624828,-31.401689435,-5.72452318,174.3749417,-1.0425785570000001,-0.20754556235,1.0524131815,-0.22018359603500004,-0.030969545049999936,0.21540493894999999
03:39:35,-0.8727994600000001,-0.05951558000000012,-0.54390386,-0.18460094,-0.04602090000000003,-0.16690748000000005,-1.1976765600000001,-31.40048937,-5.72364736,174.4273034,-1.0460191140000001,-0.20018255969999998,1.052883013,-0.22269844557000001,-0.03388196509999997,0.21902180289999998
03:39:35,-0.8776431900000001,-0.050663870000000055,-0.54157279,-0.18596991,-0.04915835000000002,-0.17008222000000006,-1.1691048400000001,-31.399289305,-5.72277154,174.4796651,-1.0494596710000001,-0.19281955704999998,1.0533528445,-0.225213295105,-0.03679438514999994,0.22263866684999997
03:39:35,-0.8824869200000001,-0.0418121600000001,-0.5392417199999999,-0.18733888,-0.0522958,-0.17325696000000007,-1.1405331200000002,-31.39808924,-5.72189572,174.5320268,-1.052900228,-0.18545655439999997,1.053822676,-0.22772814464000002,-0.03970680519999997,0.22625553079999997
03:39:35,-0.88733065,-0.03296045000000014,-0.53691065,-0.18870785,-0.05543324999999999,-0.17643170000000008,-1.1119614000000002,-31.396889175000002,-5.7210199,174.5843885,-1.0563407850000002,-0.17809355174999997,1.0542925075,-0.230242994175,-0.04261922524999995,0.22987239474999996
03:39:35,-0.8921743800000002,-0.024108740000000073,-0.5345795799999999,-0.19007682,-0.058570699999999976,-0.17960644000000003,-1.0833896800000002,-31.39568911,-5.72014408,174.6367502,-1.059781342,-0.17073054909999996,1.0547623389999998,-0.23275784371000002,-0.04553164529999992,0.23348925869999995
03:39:35,-0.8970181100000001,-0.015257030000000116,-0.53224851,-0.19144579,-0.06170815000000002,-0.18278118000000004,-1.0548179599999998,-31.394489045,-5.71926826,174.6891119,-1.0632218990000002,-0.16336754644999996,1.0552321704999998,-0.235272693245,-0.048444065349999954,0.23710612265
03:39:35,-0.90186184,-0.006405320000000159,-0.52991744,-0.19281476,-0.0648456,-0.18595592000000005,-1.0262462399999999,-31.39328898,-5.71839244,174.7414736,-1.066662456,-0.15600454379999995,1.0557020019999999,-0.23778754278000003,-0.05135648539999993,0.2407229866
03:39:35,-0.9067055700000002,0.0024463899999999095,-0.52758637,-0.19418373,-0.06798304999999999,-0.18913066000000006,-0.9976745199999999,-31.392088915000002,-5.71751662,174.7938353,-1.0701030130000002,-0.14864154114999995,1.0561718334999999,-0.240302392315,-0.05426890544999996,0.24433985055
03:39:35,-0.9115493000000001,0.011298099999999867,-0.5252553,-0.1955527,-0.07112050000000003,-0.19230540000000007,-0.9691027999999999,-31.39088885,-5.7166407999999995,174.846197,-1.07354357,-0.14127853849999994,1.056641665,-0.24281724185000003,-0.057181325499999935,0.24795671449999998
03:39:35,-0.91639303,0.020149809999999935,-0.52292423,-0.19692167,-0.07425795000000002,-0.19548014000000008,-0.94053108,-31.389688785,-5.71576498,174.8985587,-1.076984127,-0.13391553584999993,1.0571114965,-0.245332091385,-0.060093745549999966,0.25157357844999995
03:39:35,-0.92123676,0.029001519999999892,-0.52059316,-0.19829064,-0.0773954,-0.19865488000000003,-0.91195936,-31.38848872,-5.71488916,174.9509204,-1.080424684,-0.12655253319999993,1.057581328,-0.24784694092000004,-0.06300616559999994,0.2551904424
03:39:35,-0.9260804900000001,0.03785322999999996,-0.5182620899999999,-0.19965961,-0.08053284999999999,-0.20182962000000004,-0.88338764,-31.387288655,-5.71401334,175.0032821,-1.083865241,-0.11918953054999992,1.0580511595,-0.250361790455,-0.06591858564999992,0.25880730634999993
03:39:35,-0.9309242200000001,0.046704939999999806,-0.51593102,-0.20102858,-0.08367029999999998,-0.20500436000000005,-0.8548159200000001,-31.38608859,-5.71313752,175.0556438,-1.087305798,-0.11182652789999992,1.058520991,-0.25287663999000004,-0.06883100569999995,0.2624241703
03:39:35,-0.93576795,0.055556649999999874,-0.5135999499999999,-0.20239755,-0.08680775000000002,-0.20817910000000006,-0.8262442000000001,-31.384888525,-5.7122617,175.1080055,-1.090746355,-0.10446352524999991,1.0589908225,-0.255391489525,-0.07174342574999992,0.2660410342499999
03:39:35,-0.9406116800000002,0.06440835999999994,-0.51126888,-0.20376652,-0.0899452,-0.21135384000000007,-0.7976724800000001,-31.383688460000002,-5.71138588,175.1603672,-1.094186912,-0.0971005225999999,1.059460654,-0.25790633906,-0.07465584579999995,0.26965789819999997
03:39:35,-0.9454554100000001,0.07326006999999979,-0.5089378099999999,-0.20513549,-0.09308264999999999,-0.21452858000000008,-0.7691007600000002,-31.382488395,-5.71051006,175.2127289,-1.097627469,-0.0897375199499999,1.0599304855,-0.260421188595,-0.07756826584999993,0.27327476215
03:39:35,-0.95029914,0.08211177999999986,-0.50660674,-0.20650446,-0.09622010000000003,-0.2177033200000001,-0.7405290400000002,-31.38128833,-5.70963424,175.2650906,-1.101068026,-0.0823745173,1.060400317,-0.26293603813,-0.08048068589999996,0.27689162609999995
03:39:35,-0.9551428700000002,0.09096348999999992,-0.50427567,-0.20787343,-0.09935755000000002,-0.22087806000000004,-0.7119573200000002,-31.380088265,-5.70875842,175.3174523,-1.104508583,-0.07501151465,1.0608701484999998,-0.265450887665,-0.08339310594999993,0.28050849005
03:39:35,-0.9599866000000001,0.09981519999999977,-0.5019446,-0.2092424,-0.102495,-0.22405280000000005,-0.6833856000000003,-31.378888200000002,-5.7078826,175.369814,-1.10794914,-0.067648512,1.0613399799999998,-0.2679657372,-0.08630552599999991,0.28412535399999994
03:39:35,-0.9648303300000001,0.10866690999999984,-0.49961353,-0.21061137,-0.10563244999999999,-0.22722754000000006,-0.6548138799999998,-31.377688135,-5.7070067799999995,175.4221757,-1.1113896970000001,-0.06028550934999999,1.0618098114999999,-0.27048058673500003,-0.08921794604999994,0.28774221795
03:39:35,-0.96967406,0.11751861999999991,-0.49728246,-0.21198034,-0.10876989999999997,-0.23040228000000007,-0.6262421599999999,-31.37648807,-5.70613096,175.4745374,-1.1148302540000001,-0.05292250669999998,1.0622796429999999,-0.27299543627,-0.09213036609999992,0.2913590818999999
03:39:35,-0.9745177900000002,0.12637032999999998,-0.49495139,-0.21334931,-0.11190735000000002,-0.23357702000000008,-0.5976704399999999,-31.375288005,-5.70525514,175.5268991,-1.1182708110000001,-0.04555950404999998,1.0627494745,-0.27551028580500003,-0.09504278614999995,0.29497594585
03:39:35,-0.9793615200000001,0.13522203999999982,-0.49262032,-0.21471828,-0.1150448,-0.2367517600000001,-0.56909872,-31.374087940000003,-5.70437932,175.57926080000001,-1.1217113680000002,-0.03819650139999997,1.063219306,-0.27802513534,-0.09795520619999992,0.2985928098
03:39:35,-0.98420525,0.1440737499999999,-0.49028924999999995,-0.21608725,-0.11818224999999999,-0.23992650000000004,-0.540527,-31.372887875,-5.7035035,175.6316225,-1.1251519250000002,-0.030833498749999966,1.0636891375,-0.28053998487500004,-0.10086762624999995,0.30220967374999996
03:39:35,-0.9890489800000002,0.15292545999999996,-0.48795817999999996,-0.21745622,-0.12131970000000003,-0.24310124000000005,-0.51195528,-31.37168781,-5.70262768,175.6839842,-1.1285924820000002,-0.02347049609999996,1.064158969,-0.28305483441,-0.10378004629999993,0.3058265377
03:39:35,-0.9938927100000001,0.1617771699999998,-0.48562711,-0.21882519,-0.12445715000000002,-0.24627598000000006,-0.48338356000000005,-31.370487745000002,-5.70175186,175.7363459,-1.132033039,-0.016107493449999954,1.0646288005,-0.28556968394500004,-0.10669246634999996,0.30944340164999995
03:39:35,-0.9987364400000001,0.17062887999999987,-0.48329604,-0.22019416,-0.1275946,-0.24945072000000007,-0.4548118400000001,-31.36928768,-5.70087604,175.7887076,-1.1354735960000002,-0.008744490799999949,1.065098632,-0.28808453348,-0.10960488639999993,0.3130602656
03:39:35,-1.0035801700000002,0.17948058999999994,-0.48096497,-0.22156313,-0.13073205,-0.2526254600000001,-0.4262401200000001,-31.368087615,-5.70000022,175.84106930000002,-1.138914153,-0.0013814881499999432,1.0655684635,-0.290599383015,-0.11251730644999991,0.31667712954999994
03:39:35,-1.0084239000000002,0.18833229999999979,-0.4786339,-0.2229321,-0.13386949999999997,-0.2558002000000001,-0.39766840000000014,-31.36688755,-5.6991244,175.893431,-1.1423547100000002,0.0059815145000000625,1.066038295,-0.29311423255,-0.11542972649999994,0.3202939935
03:39:35,-1.01326763,0.19718400999999985,-0.47630283,-0.22430107,-0.13700695000000002,-0.2589749400000001,-0.3690966800000002,-31.365687485000002,-5.69824858,175.9457927,-1.145795267,0.013344517150000068,1.0665081265,-0.295629082085,-0.11834214654999992,0.3239108574499999
03:39:35,-1.01811136,0.20603571999999992,-0.47397175999999996,-0.22567004,-0.1401444,-0.26214968000000005,-0.3405249600000002,-31.36448742,-5.69737276,175.9981544,-1.149235824,0.020707519800000074,1.0669779579999998,-0.29814393162,-0.12125456659999995,0.32752772139999997
03:39:35,-1.0229550900000002,0.21488742999999977,-0.47164069,-0.22703901,-0.14328185,-0.26532442000000006,-0.31195324000000024,-31.363287355,-5.69649694,176.0505161,-1.152676381,0.02807052245000008,1.0674477894999999,-0.300658781155,-0.12416698664999992,0.33114458535
03:39:35,-1.0277988200000001,0.22373913999999984,-0.46930962,-0.22840798,-0.14641930000000003,-0.26849916000000007,-0.2833815200000003,-31.36208729,-5.69562112,176.10287780000002,-1.156116938,0.035433525100000085,1.0679176209999999,-0.30317363069000003,-0.12707940669999995,0.33476144929999996
03:39:35,-1.03264255,0.2325908499999999,-0.46697855,-0.22977695,-0.14955675000000002,-0.2716739000000001,-0.2548098000000003,-31.360887225000003,-5.6947453,176.1552395,-1.159557495,0.04279652775000009,1.0683874525,-0.305688480225,-0.12999182674999993,0.33837831325
03:39:35,-1.0374862800000002,0.24144255999999997,-0.46464748,-0.23114592,-0.1526942,-0.2748486400000001,-0.2262380799999999,-31.35968716,-5.69386948,176.2076012,-1.162998052,0.050159530400000096,1.068857284,-0.30820332976000003,-0.13290424679999996,0.34199517719999994
03:39:35,-1.0423300100000001,0.2502942699999998,-0.46231641,-0.23251489,-0.15583165,-0.2780233800000001,-0.19766635999999993,-31.358487095,-5.69299366,176.2599629,-1.166438609,0.0575225330500001,1.0693271155,-0.310718179295,-0.13581666684999993,0.34561204115
03:39:35,-1.04717374,0.2591459799999999,-0.45998533999999996,-0.23388386,-0.15896909999999997,-0.28119812000000005,-0.16909463999999996,-31.357287030000002,-5.69211784,176.3123246,-1.169879166,0.06488553570000011,1.069796947,-0.31323302883000004,-0.1387290868999999,0.34922890509999993
03:39:35,-1.0520174700000002,0.26799768999999996,-0.45765427,-0.23525283,-0.16210655000000002,-0.28437286000000006,-0.14052292,-31.356086965,-5.69124202,176.36468630000002,-1.173319723,0.07224853835000011,1.0702667785,-0.315747878365,-0.14164150694999994,0.35284576905
03:39:35,-1.0568612000000002,0.2768493999999998,-0.4553232,-0.2366218,-0.165244,-0.28754760000000007,-0.11195120000000003,-31.3548869,-5.6903662,176.417048,-1.17676028,0.07961154100000012,1.07073661,-0.31826272790000004,-0.14455392699999992,0.3564626329999999
03:39:35,-1.06170493,0.28570110999999987,-0.45299213,-0.23799077,-0.16838145,-0.2907223400000001,-0.0833794800000005,-31.353686835,-5.68949038,176.4694097,-1.1802008370000001,0.08697454365000012,1.0712064415,-0.320777577435,-0.14746634704999995,0.36007949694999997
03:39:35,-1.06654866,0.29455281999999994,-0.45066106,-0.23935974,-0.17151890000000003,-0.2938970800000001,-0.054807760000000094,-31.352486770000002,-5.6886145599999995,176.5217714,-1.1836413940000001,0.09433754630000013,1.071676273,-0.32329242697,-0.15037876709999992,0.3636963608999999
03:39:35,-1.0713923900000002,0.3034045299999998,-0.44832999,-0.24072871,-0.17465635000000002,-0.2970718200000001,-0.026236039999999683,-31.351286705,-5.68773874,176.5741331,-1.1870819510000001,0.10170054895000014,1.0721461045,-0.325807276505,-0.15329118714999995,0.36731322484999995
03:39:35,-1.0762361200000001,0.31225623999999985,-0.44599891999999997,-0.24209768,-0.1777938,-0.3002465600000001,0.00233567999999984,-31.35008664,-5.68686292,176.6264948,-1.1905225080000001,0.10906355160000014,1.072615936,-0.32832212604,-0.15620360719999993,0.3709300887999999
03:39:35,-1.08107985,0.3211079499999999,-0.44366785,-0.24346665,-0.18093125,-0.30342130000000006,0.03090740000000025,-31.348886575,-5.6859871,176.6788565,-1.1939630650000002,0.11642655425000015,1.0730857674999998,-0.330836975575,-0.1591160272499999,0.37454695274999994
03:39:35,-1.0859235800000002,0.32995965999999977,-0.44133678,-0.24483562,-0.18406869999999997,-0.30659604000000007,0.059479119999999774,-31.347686510000003,-5.68511128,176.7312182,-1.197403622,0.12378955690000015,1.0735555989999999,-0.33335182511,-0.16202844729999993,0.3781638167
03:39:35,-1.0907673100000002,0.33881136999999983,-0.43900571,-0.24620459,-0.18720615000000002,-0.3097707800000001,0.08805084000000019,-31.346486445,-5.68423546,176.7835799,-1.2008441790000002,0.13115255955000016,1.0740254304999999,-0.33586667464500003,-0.1649408673499999,0.3817806806499999
03:39:35,-1.09561104,0.3476630799999999,-0.43667464,-0.24757356,-0.1903436,-0.3129455200000001,0.11662255999999971,-31.34528638,-5.68335964,176.8359416,-1.204284736,0.13851556220000016,1.074495262,-0.33838152418,-0.16785328739999994,0.3853975446
03:39:35,-1.10045477,0.35651478999999975,-0.43434357,-0.24894253,-0.19348105,-0.3161202600000001,0.14519428000000012,-31.344086315000002,-5.68248382,176.8883033,-1.2077252930000002,0.14587856485000017,1.0749650935,-0.34089637371500003,-0.17076570744999992,0.3890144085499999
03:39:35,-1.1052985000000002,0.3653664999999998,-0.43201249999999997,-0.25031149999999996,-0.19661850000000003,-0.3192950000000001,0.17376599999999964,-31.34288625,-5.681608,176.940665,-1.21116585,0.15324156749999995,1.075434925,-0.34341122325,-0.17367812749999995,0.39263127249999996
03:39:35,-1.1101422300000001,0.3742182099999999,-0.42968143,-0.25168047,-0.19975595000000002,-0.32246974000000006,0.20233772000000005,-31.341686185,-5.68073218,176.9930267,-1.2146064070000002,0.16060457014999996,1.0759047565,-0.34592607278500004,-0.17659054754999992,0.3962481364499999
03:39:35,-1.11498596,0.38306991999999973,-0.42735036,-0.25304943999999996,-0.2028934,-0.32564448000000007,0.23090943999999958,-31.34048612,-5.67985636,177.0453884,-1.218046964,0.16796757279999996,1.076374588,-0.34844092232,-0.1795029675999999,0.39986500039999995
03:39:35,-1.1198296900000002,0.3919216299999998,-0.42501929,-0.25441841,-0.20603085,-0.3288192200000001,0.25948116,-31.339286055000002,-5.67898054,177.0977501,-1.2214875210000002,0.17533057544999997,1.0768444195,-0.35095577185500004,-0.18241538764999993,0.4034818643499999
03:39:35,-1.1246734200000001,0.40077333999999987,-0.42268822,-0.25578738,-0.20916829999999997,-0.3319939600000001,0.2880528799999995,-31.33808599,-5.67810472,177.1501118,-1.224928078,0.18269357809999998,1.077314251,-0.35347062139,-0.1853278076999999,0.40709872829999993
03:39:35,-1.12951715,0.40962504999999994,-0.42035715,-0.25715635,-0.21230575000000002,-0.3351687000000001,0.3166245999999999,-31.336885925,-5.6772289,177.2024735,-1.228368635,0.19005658074999998,1.0777840825,-0.355985470925,-0.18824022774999993,0.41071559225
03:39:35,-1.1343608800000002,0.4184767599999998,-0.41802607999999997,-0.25852532,-0.2154432,-0.3383434400000001,0.34519631999999945,-31.33568586,-5.67635308,177.2548352,-1.231809192,0.1974195834,1.0782539139999998,-0.35850032046,-0.1911526477999999,0.4143324561999999
03:39:35,-1.1392046100000002,0.42732846999999985,-0.41569501,-0.25989429,-0.21858065,-0.34151818000000006,0.37376803999999986,-31.334485795000003,-5.67547726,177.3071969,-1.235249749,0.20478258605,1.0787237454999998,-0.361015169995,-0.19406506784999994,0.41794932014999997
03:39:35,-1.14404834,0.4361801799999999,-0.41336394,-0.26126326,-0.22171810000000003,-0.3446929200000001,0.40233976000000027,-31.33328573,-5.67460144,177.3595586,-1.238690306,0.2121455887,1.0791935769999998,-0.36353001953,-0.19697748789999991,0.4215661840999999
03:39:35,-1.14889207,0.44503188999999976,-0.41103287,-0.26263222999999997,-0.22485555000000002,-0.3478676600000001,0.4309114799999998,-31.332085665,-5.67372562,177.4119203,-1.242130863,0.21950859135,1.0796634084999999,-0.366044869065,-0.19988990794999995,0.42518304804999996
03:39:35,-1.1537358000000002,0.45388359999999983,-0.4087018,-0.2640012,-0.227993,-0.35104240000000014,0.4594832000000002,-31.330885600000002,-5.6728498,177.464282,-1.24557142,0.226871594,1.0801332399999999,-0.36855971860000003,-0.20280232799999992,0.4287999119999999
03:39:35,-1.1585795300000001,0.4627353099999999,-0.40637073,-0.26537016999999996,-0.23113045,-0.3542171400000001,0.4880549199999997,-31.329685535000003,-5.67197398,177.5166437,-1.249011977,0.23423459665000002,1.0806030715,-0.371074568135,-0.2057147480499999,0.43241677594999994
03:39:35,-1.16342326,0.47158701999999975,-0.40403965999999997,-0.26673914,-0.23426789999999997,-0.35739188000000005,0.5166266400000001,-31.32848547,-5.67109816,177.5690054,-1.2524525340000001,0.24159759930000002,1.081072903,-0.37358941767000003,-0.20862716809999993,0.4360336398999999
03:39:35,-1.1682669900000002,0.4804387299999998,-0.40170859,-0.26810811,-0.23740534999999996,-0.3605666200000001,0.5451983599999997,-31.327285405,-5.67022234,177.62136710000001,-1.2558930910000001,0.24896060195000003,1.0815427345,-0.376104267205,-0.2115395881499999,0.43965050384999993
03:39:35,-1.1731107200000002,0.4892904399999999,-0.39937752,-0.26947708,-0.24054279999999995,-0.36374136000000007,0.5737700800000001,-31.326085340000002,-5.66934652,177.6737288,-1.2593336480000001,0.25632360460000003,1.082012566,-0.37861911674000004,-0.21445200819999993,0.4432673678
03:39:35,-1.17795445,0.49814214999999973,-0.39704645,-0.27084605,-0.24368025000000004,-0.36691610000000013,0.6023417999999996,-31.324885275,-5.6684707,177.7260905,-1.2627742050000001,0.26368660725000004,1.0824823975,-0.381133966275,-0.2173644282499999,0.4468842317499999
03:39:35,-1.1827981800000003,0.5069938599999998,-0.39471538,-0.27221502,-0.24681770000000003,-0.3700908400000001,0.63091352,-31.32368521,-5.66759488,177.7784522,-1.2662147620000002,0.27104960990000004,1.082952229,-0.38364881581000004,-0.22027684829999994,0.45050109569999996
03:39:35,-1.1876419100000002,0.5158455699999999,-0.39238431,-0.27358399,-0.24995515000000001,-0.37326558000000004,0.6594852399999995,-31.322485145,-5.66671906,177.8308139,-1.269655319,0.27841261255000005,1.0834220605,-0.386163665345,-0.22318926834999991,0.4541179596499999
03:39:35,-1.1924856400000001,0.5246972799999999,-0.39005323999999997,-0.27495295999999997,-0.2530926,-0.3764403200000001,0.6880569599999999,-31.321285080000003,-5.66584324,177.88317560000002,-1.2730958760000002,0.28577561520000005,1.083891892,-0.38867851488,-0.22610168839999994,0.45773482359999995
03:39:35,-1.19732937,0.5335489899999998,-0.38772217,-0.27632193,-0.25623005,-0.37961506000000006,0.7166286799999995,-31.320085015,-5.66496742,177.9355373,-1.276536433,0.29313861785000006,1.0843617234999998,-0.391193364415,-0.22901410844999992,0.4613516875499999
03:39:35,-1.2021731000000002,0.5424006999999998,-0.3853911,-0.27769089999999996,-0.2593675,-0.3827898000000001,0.7452003999999999,-31.31888495,-5.6640916,177.987899,-1.2799769900000002,0.30050162050000007,1.0848315549999998,-0.39370821395,-0.2319265284999999,0.46496855149999994
03:39:35,-1.2070168300000002,0.5512524099999999,-0.38306003,-0.27905987,-0.26250494999999996,-0.3859645400000001,0.7737721200000003,-31.317684885000002,-5.66321578,178.0402607,-1.283417547,0.30786462315000007,1.0853013864999999,-0.396223063485,-0.23483894854999993,0.46858541545
03:39:35,-1.21186056,0.5601041199999998,-0.38072896,-0.28042883999999996,-0.26564240000000006,-0.38913928000000014,0.8023438399999998,-31.316484820000003,-5.66233996,178.0926224,-1.2868581040000002,0.3152276258000001,1.0857712179999999,-0.39873791302,-0.23775136859999996,0.4722022793999999
03:39:35,-1.2167042900000002,0.5689558299999998,-0.37839789,-0.28179781,-0.26877985000000004,-0.3923140200000001,0.8309155600000002,-31.315284755,-5.66146414,178.1449841,-1.290298661,0.3225906284500001,1.0862410494999999,-0.40125276255500003,-0.24066378864999988,0.47581914335
03:39:35,-1.2215480200000002,0.5778075399999999,-0.37606681999999997,-0.28316678,-0.27191730000000003,-0.39548876000000005,0.8594872799999997,-31.31408469,-5.6605883200000005,178.1973458,-1.2937392180000002,0.3299536311000001,1.086710881,-0.40376761209,-0.2435762086999999,0.4794360072999999
03:39:35,-1.2263917500000001,0.5866592499999997,-0.37373575,-0.28453575,-0.27505475,-0.3986635000000001,0.8880590000000002,-31.312884625000002,-5.6597125,178.2497075,-1.297179775,0.3373166337500001,1.0871807125,-0.40628246162500004,-0.24648862874999994,0.48305287124999996
03:39:35,-1.23123548,0.5955109599999998,-0.37140468,-0.28590472,-0.2781922,-0.40183824000000007,0.9166307199999997,-31.31168456,-5.65883668,178.3020692,-1.3006203320000003,0.3446796364000001,1.087650544,-0.40879731116,-0.24940104879999986,0.4866697351999999
03:39:35,-1.2360792100000002,0.6043626699999999,-0.36907361,-0.28727368999999997,-0.28132965,-0.40501298000000013,0.9452024400000001,-31.310484495,-5.65796086,178.3544309,-1.304060889,0.3520426390500001,1.0881203755,-0.41131216069500004,-0.2523134688499999,0.49028659914999995
03:39:35,-1.2409229400000001,0.6132143799999997,-0.36674254,-0.28864266,-0.2844671,-0.4081877200000001,0.9737741599999996,-31.30928443,-5.65708504,178.40679260000002,-1.307501446,0.3594056417000001,1.088590207,-0.41382701023,-0.2552258888999999,0.4939034630999999
03:39:35,-1.24576667,0.6220660899999998,-0.36441147,-0.29001162999999996,-0.28760454999999996,-0.41136246000000015,1.00234588,-31.308084365000003,-5.65620922,178.4591543,-1.310942003,0.3667686443500001,1.0890600385,-0.41634185976500004,-0.25813830894999995,0.49752032704999993
03:39:35,-1.2506104000000002,0.6309177999999999,-0.36208039999999997,-0.2913806,-0.29074199999999994,-0.4145372000000001,1.0309175999999995,-31.3068843,-5.6553334,178.511516,-1.31438256,0.3741316470000001,1.08952987,-0.4188567093,-0.26105072899999987,0.501137191
03:39:35,-1.2554541300000002,0.6397695099999997,-0.35974933,-0.29274956999999996,-0.29387945000000004,-0.41771194000000006,1.05948932,-31.305684235,-5.65445758,178.5638777,-1.317823117,0.38149464965000013,1.0899997015,-0.421371558835,-0.2639631490499999,0.5047540549499999
03:39:35,-1.26029786,0.6486212199999998,-0.35741826,-0.29411854,-0.29701690000000003,-0.4208866800000001,1.0880610399999995,-31.304484170000002,-5.65358176,178.6162394,-1.321263674,0.38885765230000013,1.0904695329999998,-0.42388640837,-0.26687556909999993,0.5083709189
03:39:35,-1.2651415900000003,0.6574729299999998,-0.35508719,-0.29548751,-0.30015435,-0.4240614200000001,1.11663276,-31.303284105000003,-5.65270594,178.6686011,-1.3247042310000001,0.39622065495000014,1.0909393644999998,-0.426401257905,-0.26978798914999996,0.5119877828499999
03:39:35,-1.2699853200000002,0.6663246399999997,-0.35275612,-0.29685648,-0.3032918,-0.42723616000000014,1.1452044799999994,-31.30208404,-5.65183012,178.7209628,-1.3281447880000001,0.40358365760000015,1.0914091959999999,-0.42891610744,-0.2727004091999999,0.5156046468
03:39:35,-1.2748290500000001,0.6751763499999998,-0.35042505,-0.29822545,-0.30642925,-0.4304109000000001,1.1737761999999998,-31.300883975,-5.6509543,178.7733245,-1.3315853450000001,0.41094666025000015,1.0918790274999999,-0.431430956975,-0.2756128292499999,0.5192215107499999
03:39:35,-1.27967278,0.6840280599999998,-0.34809397999999997,-0.29959442,-0.3095667,-0.43358564000000005,1.2023479200000002,-31.299683910000002,-5.65007848,178.8256862,-1.3350259020000002,0.41830966290000016,1.092348859,-0.43394580651000003,-0.27852524929999994,0.5228383746999999
03:39:35,-1.2845165100000002,0.6928797699999999,-0.34576291,-0.30096339,-0.31270414999999996,-0.4367603800000001,1.2309196399999998,-31.298483845000003,-5.64920266,178.8780479,-1.3384664590000002,0.42567266555000016,1.0928186905,-0.436460656045,-0.28143766934999986,0.5264552386499999
03:39:35,-1.2893602400000002,0.7017314799999997,-0.34343184,-0.30233236,-0.31584160000000006,-0.43993512000000007,1.2594913600000002,-31.29728378,-5.64832684,178.9304096,-1.341907016,0.43303566820000017,1.093288522,-0.43897550558000004,-0.2843500893999999,0.5300721025999999
03:39:35,-1.29420397,0.7105831899999998,-0.34110077,-0.30370133,-0.31897905000000004,-0.44310986000000013,1.2880630799999997,-31.296083715,-5.64745102,178.9827713,-1.3453475730000002,0.4403986708500002,1.0937583535,-0.441490355115,-0.2872625094499999,0.53368896655
03:39:35,-1.2990477000000002,0.7194348999999999,-0.3387697,-0.3050703,-0.32211650000000003,-0.4462846000000001,1.3166348,-31.294883650000003,-5.6465752,179.035133,-1.34878813,0.4477616735000002,1.094228185,-0.44400520465000004,-0.29017492949999996,0.5373058304999999
03:39:35,-1.3038914300000002,0.7282866099999997,-0.33643863,-0.30643927,-0.32525395,-0.44945934000000015,1.3452065199999996,-31.293683585,-5.64569938,179.0874947,-1.3522286870000002,0.4551246761500002,1.0946980165,-0.446520054185,-0.2930873495499999,0.54092269445
03:39:35,-1.3087351600000001,0.7371383199999998,-0.33410755999999997,-0.30780824,-0.3283914,-0.4526340800000001,1.37377824,-31.29248352,-5.64482356,179.1398564,-1.355669244,0.4624876788000002,1.095167848,-0.44903490372,-0.2959997695999999,0.5445395583999999
03:39:35,-1.3135788900000003,0.7459900299999999,-0.33177649,-0.30917721,-0.33152885,-0.45580882000000006,1.4023499599999996,-31.291283455000002,-5.64394774,179.1922181,-1.3591098010000002,0.46985068145,1.0956376795,-0.451549753255,-0.29891218964999994,0.54815642235
03:39:35,-1.3184226200000002,0.7548417399999997,-0.32944542,-0.31054618,-0.33466629999999997,-0.4589835600000001,1.43092168,-31.290083390000003,-5.64307192,179.2445798,-1.362550358,0.4772136841,1.0961075109999998,-0.45406460279,-0.30182460969999986,0.5517732862999999
03:39:35,-1.3232663500000001,0.7636934499999998,-0.32711435,-0.31191515,-0.33780374999999996,-0.4621583000000001,1.4594933999999995,-31.288883325,-5.6421961000000005,179.2969415,-1.3659909150000002,0.48457668675,1.0965773424999998,-0.456579452325,-0.3047370297499999,0.5553901502499999
03:39:35,-1.32811008,0.7725451599999998,-0.32478328,-0.31328412,-0.34094119999999994,-0.46533304000000014,1.48806512,-31.28768326,-5.64132028,179.3493032,-1.369431472,0.4919396894,1.0970471739999998,-0.45909430186,-0.3076494497999999,0.5590070141999999
03:39:35,-1.3329538100000002,0.7813968699999997,-0.32245221,-0.31465309,-0.34407865000000004,-0.4685077800000001,1.5166368399999994,-31.286483195000002,-5.64044446,179.40166490000001,-1.3728720290000003,0.49930269205,1.0975170054999999,-0.46160915139500003,-0.31056186984999995,0.5626238781499999
03:39:35,-1.3377975400000002,0.7902485799999998,-0.32012114,-0.31602206,-0.3472161,-0.47168252000000016,1.5452085599999998,-31.285283130000003,-5.63956864,179.4540266,-1.376312586,0.5066656947,1.0979868369999999,-0.46412400093,-0.31347428989999987,0.5662407421
03:39:35,-1.34264127,0.7991002899999998,-0.31779007,-0.31739103,-0.35035355,-0.4748572600000001,1.5737802799999994,-31.284083065,-5.63869282,179.5063883,-1.379753143,0.51402869735,1.0984566685,-0.466638850465,-0.3163867099499999,0.5698576060499999
03:39:36,-1.347485,0.807952,-0.315459,-0.31876,-0.353491,-0.478032,1.602352,-31.282883,-5.637817,179.55875,-1.3831937,0.5213917,1.0989265,-0.4691537,-0.31929913,0.57347447
03:39:36,-1.3426414,0.81802761,-0.31464643999999997,-0.31905297499999996,-0.35116854,-0.474537655,1.59246299,-31.285204320000002,-5.62436676,179.54939545,-1.37948024675,0.532692198,1.0949855869999998,-0.46728036595,-0.31742262034999996,0.5712863439
03:39:36,-1.3377978000000001,0.82810322,-0.31383388,-0.31934595,-0.34884608,-0.47104331,1.58257398,-31.287525640000002,-5.61091652,179.5400409,-1.3757667935,0.543992696,1.091044674,-0.4654070319,-0.3155461107,0.5690982177999999
03:39:36,-1.3329542,0.83817883,-0.31302132,-0.31963892499999996,-0.34652362,-0.46754896500000004,1.57268497,-31.289846960000002,-5.59746628,179.53068635,-1.3720533402500001,0.555293194,1.0871037609999998,-0.46353369785,-0.31366960104999997,0.5669100917
03:39:36,-1.3281106,0.84825444,-0.31220876,-0.3199319,-0.34420116,-0.46405462000000003,1.56279596,-31.292168280000002,-5.58401604,179.5213318,-1.368339887,0.566593692,1.083162848,-0.46166036380000003,-0.3117930914,0.5647219656
03:39:36,-1.323267,0.85833005,-0.3113962,-0.32022487499999996,-0.3418787,-0.460560275,1.55290695,-31.294489600000002,-5.5705658,179.51197725,-1.36462643375,0.57789419,1.0792219349999999,-0.45978702975,-0.30991658175,0.5625338394999999
03:39:36,-1.3184234000000001,0.86840566,-0.31058364,-0.32051785,-0.33955624,-0.45706593,1.54301794,-31.296810920000002,-5.55711556,179.5026227,-1.3609129805,0.589194688,1.075281022,-0.4579136957,-0.3080400721,0.5603457134
03:39:36,-1.3135798,0.87848127,-0.30977108,-0.32081082499999997,-0.33723378,-0.453571585,1.53312893,-31.299132240000002,-5.54366532,179.49326815,-1.3571995272500001,0.6004951860000001,1.0713401089999999,-0.45604036165,-0.30616356245,0.5581575873
03:39:36,-1.3087362,0.88855688,-0.30895852,-0.3211038,-0.33491132,-0.45007724,1.52323992,-31.301453560000002,-5.5302150800000005,179.4839136,-1.353486074,0.6117956840000001,1.067399196,-0.4541670276,-0.3042870528,0.5559694612
03:39:36,-1.3038926,0.89863249,-0.30814596,-0.32139677499999997,-0.33258886,-0.44658289500000004,1.51335091,-31.303774880000002,-5.5167648400000004,179.47455905,-1.34977262075,0.623096182,1.063458283,-0.45229369355,-0.30241054315,0.5537813350999999
03:39:36,-1.2990490000000001,0.9087081,-0.3073334,-0.32168975,-0.3302664,-0.44308855,1.5034619,-31.306096200000002,-5.5033146,179.4652045,-1.3460591675,0.63439668,1.05951737,-0.45042035950000003,-0.30053403349999996,0.551593209
03:39:36,-1.2942054,0.91878371,-0.30652084,-0.32198272499999997,-0.32794394,-0.439594205,1.49357289,-31.308417520000003,-5.48986436,179.45584995000002,-1.3423457142500002,0.645697178,1.055576457,-0.44854702545,-0.29865752385,0.5494050829
03:39:36,-1.2893618,0.9288593199999999,-0.30570828,-0.3222757,-0.32562148,-0.43609986,1.48368388,-31.310738840000003,-5.47641412,179.4464954,-1.338632261,0.656997676,1.051635544,-0.4466736914,-0.29678101419999997,0.5472169567999999
03:39:36,-1.2845182,0.9389349300000001,-0.30489572,-0.32256867499999997,-0.32329902,-0.432605515,1.47379487,-31.313060160000003,-5.46296388,179.43714085,-1.33491880775,0.668298174,1.047694631,-0.44480035735,-0.29490450455,0.5450288307
03:39:36,-1.2796746,0.94901054,-0.30408316,-0.32286165,-0.32097655999999997,-0.42911117,1.4639058600000001,-31.315381480000003,-5.44951364,179.4277863,-1.3312053545,0.679598672,1.0437537179999998,-0.4429270233,-0.2930279949,0.5428407046
03:39:36,-1.274831,0.95908615,-0.3032706,-0.323154625,-0.3186541,-0.42561682500000003,1.45401685,-31.317702800000003,-5.4360634,179.41843175,-1.3274919012500002,0.69089917,1.039812805,-0.44105368925,-0.29115148525,0.5406525784999999
03:39:36,-1.2699874,0.96916176,-0.30245804,-0.3234476,-0.31633164,-0.42212248,1.44412784,-31.320024120000003,-5.42261316,179.4090772,-1.323778448,0.702199668,1.0358718919999998,-0.4391803552,-0.2892749756,0.5384644524
03:39:36,-1.2651438000000002,0.97923737,-0.30164547999999997,-0.323740575,-0.31400918,-0.418628135,1.43423883,-31.322345440000003,-5.40916292,179.39972265,-1.32006499475,0.713500166,1.031930979,-0.43730702115,-0.28739846594999996,0.5362763263
03:39:36,-1.2603002,0.98931298,-0.30083292,-0.32403355,-0.31168672,-0.41513379,1.42434982,-31.324666760000003,-5.39571268,179.3903681,-1.3163515415,0.724800664,1.0279900659999999,-0.4354336871,-0.2855219563,0.5340882001999999
03:39:36,-1.2554566,0.9993885899999999,-0.30002036,-0.324326525,-0.30936426,-0.41163944500000005,1.41446081,-31.326988080000003,-5.38226244,179.38101355,-1.3126380882500002,0.736101162,1.024049153,-0.43356035305,-0.28364544664999997,0.5319000741
03:39:36,-1.250613,1.0094642,-0.29920779999999997,-0.3246195,-0.3070418,-0.40814510000000004,1.4045718,-31.3293094,-5.3688122,179.371659,-1.3089246350000001,0.74740166,1.0201082399999999,-0.431687019,-0.281768937,0.529711948
03:39:36,-1.2457694000000001,1.01953981,-0.29839524,-0.324912475,-0.30471934,-0.40465075500000003,1.39468279,-31.33163072,-5.35536196,179.36230445,-1.30521118175,0.758702158,1.016167327,-0.42981368495,-0.27989242735,0.5275238219
03:39:36,-1.2409258,1.02961542,-0.29758268,-0.32520545,-0.30239688,-0.40115641,1.38479378,-31.33395204,-5.34191172,179.3529499,-1.3014977285,0.770002656,1.012226414,-0.4279403509,-0.2780159177,0.5253356958
03:39:36,-1.2360822,1.03969103,-0.29677011999999997,-0.325498425,-0.30007442,-0.397662065,1.37490477,-31.33627336,-5.32846148,179.34359535000002,-1.2977842752500002,0.7813031539999999,1.008285501,-0.42606701685,-0.27613940805,0.5231475697
03:39:36,-1.2312386,1.04976664,-0.29595756,-0.3257914,-0.29775196,-0.39416772,1.36501576,-31.33859468,-5.3150112400000005,179.3342408,-1.2940708220000001,0.7926036519999999,1.004344588,-0.4241936828,-0.2742628984,0.5209594436
03:39:36,-1.2263950000000001,1.05984225,-0.295145,-0.326084375,-0.2954295,-0.390673375,1.35512675,-31.340916,-5.301561,179.32488625,-1.29035736875,0.8039041499999999,1.0004036749999998,-0.42232034875,-0.27238638875,0.5187713174999999
03:39:36,-1.2215514,1.0699178599999999,-0.29433244,-0.32637735,-0.29310704,-0.38717903000000004,1.34523774,-31.34323732,-5.28811076,179.3155317,-1.2866439155,0.8152046479999999,0.996462762,-0.4204470147,-0.2705098791,0.5165831914
03:39:36,-1.2167078,1.07999347,-0.29351988,-0.326670325,-0.29078458,-0.383684685,1.33534873,-31.34555864,-5.27466052,179.30617715,-1.28293046225,0.8265051459999999,0.992521849,-0.41857368065,-0.26863336945,0.5143950653
03:39:36,-1.2118642,1.09006908,-0.29270732,-0.3269633,-0.28846212,-0.38019034,1.32545972,-31.34787996,-5.26121028,179.2968226,-1.2792170090000001,0.837805644,0.988580936,-0.4167003466,-0.26675685979999997,0.5122069391999999
03:39:36,-1.2070206,1.10014469,-0.29189476,-0.327256275,-0.28613966,-0.376695995,1.31557071,-31.35020128,-5.24776004,179.28746805,-1.27550355575,0.849106142,0.984640023,-0.41482701255,-0.26488035015,0.5100188131
03:39:36,-1.202177,1.1102203,-0.2910822,-0.32754925,-0.2838172,-0.37320165000000005,1.3056817,-31.3525226,-5.2343098,179.2781135,-1.2717901025,0.86040664,0.98069911,-0.4129536785,-0.2630038405,0.507830687
03:39:36,-1.1973334,1.1202959099999998,-0.29026964,-0.327842225,-0.28149473999999997,-0.36970730500000004,1.2957926899999999,-31.35484392,-5.22085956,179.26875895,-1.26807664925,0.871707138,0.976758197,-0.41108034445,-0.26112733085,0.5056425608999999
03:39:36,-1.1924898000000002,1.13037152,-0.28945708,-0.3281352,-0.27917228,-0.36621296000000003,1.28590368,-31.35716524,-5.20740932,179.2594044,-1.2643631960000001,0.883007636,0.972817284,-0.4092070104,-0.2592508212,0.5034544348
03:39:36,-1.1876462,1.14044713,-0.28864452,-0.328428175,-0.27684982,-0.362718615,1.27601467,-31.35948656,-5.19395908,179.25004985,-1.26064974275,0.894308134,0.9688763709999999,-0.40733367635,-0.25737431155,0.5012663087
03:39:36,-1.1828026,1.15052274,-0.28783196,-0.32872115,-0.27452736,-0.35922427,1.26612566,-31.36180788,-5.18050884,179.2406953,-1.2569362895,0.905608632,0.9649354579999999,-0.4054603423,-0.2554978019,0.4990781826
03:39:36,-1.177959,1.16059835,-0.2870194,-0.329014125,-0.27220489999999997,-0.355729925,1.25623665,-31.3641292,-5.1670586,179.23134075000002,-1.25322283625,0.91690913,0.9609945449999999,-0.40358700825,-0.25362129224999996,0.49689005649999995
03:39:36,-1.1731154,1.17067396,-0.28620683999999996,-0.32930709999999996,-0.26988244,-0.35223558,1.24634764,-31.36645052,-5.15360836,179.2219862,-1.2495093830000001,0.928209628,0.9570536319999999,-0.4017136742,-0.2517447826,0.4947019304
03:39:36,-1.1682718,1.18074957,-0.28539428,-0.329600075,-0.26755998,-0.348741235,1.23645863,-31.36877184,-5.14015812,179.21263165,-1.24579592975,0.9395101260000001,0.9531127189999999,-0.39984034015000003,-0.24986827294999997,0.49251380429999997
03:39:36,-1.1634282,1.19082518,-0.28458172,-0.32989304999999997,-0.26523752,-0.34524689000000003,1.22656962,-31.37109316,-5.12670788,179.2032771,-1.2420824765,0.950810624,0.949171806,-0.3979670061,-0.2479917633,0.49032567819999995
03:39:36,-1.1585846,1.20090079,-0.28376915999999996,-0.330186025,-0.26291506,-0.341752545,1.21668061,-31.37341448,-5.1132576400000005,179.19392255,-1.23836902325,0.962111122,0.945230893,-0.39609367205,-0.24611525364999998,0.4881375521
03:39:36,-1.1537410000000001,1.2109763999999998,-0.2829566,-0.33047899999999997,-0.2605926,-0.3382582,1.2067915999999999,-31.3757358,-5.0998074,179.184568,-1.2346555700000001,0.97341162,0.94128998,-0.394220338,-0.244238744,0.48594942599999996
03:39:36,-1.1488974,1.22105201,-0.28214404,-0.330771975,-0.25827014,-0.33476385500000005,1.19690259,-31.37805712,-5.08635716,179.17521345,-1.23094211675,0.984712118,0.937349067,-0.39234700395,-0.24236223434999998,0.4837612999
03:39:36,-1.1440538,1.23112762,-0.28133147999999997,-0.33106494999999997,-0.25594768,-0.33126951000000004,1.18701358,-31.38037844,-5.07290692,179.1658589,-1.2272286635,0.996012616,0.933408154,-0.3904736699,-0.2404857247,0.4815731738
03:39:36,-1.1392102,1.24120323,-0.28051892,-0.331357925,-0.25362522,-0.32777516500000003,1.17712457,-31.38269976,-5.05945668,179.15650435,-1.22351521025,1.007313114,0.929467241,-0.38860033585,-0.23860921505,0.4793850477
03:39:36,-1.1343666000000001,1.25127884,-0.27970636,-0.33165089999999997,-0.25130275999999996,-0.32428082,1.16723556,-31.38502108,-5.04600644,179.1471498,-1.2198017570000002,1.018613612,0.9255263279999999,-0.38672700179999997,-0.2367327054,0.4771969216
03:39:36,-1.129523,1.26135445,-0.27889379999999997,-0.331943875,-0.2489803,-0.320786475,1.15734655,-31.3873424,-5.0325562,179.13779525,-1.21608830375,1.02991411,0.921585415,-0.38485366775,-0.23485619575,0.47500879549999997
03:39:36,-1.1246794,1.27143006,-0.27808124,-0.33223685,-0.24665784,-0.31729213,1.14745754,-31.38966372,-5.01910596,179.1284407,-1.2123748505,1.041214608,0.9176445019999999,-0.3829803337,-0.23297968609999997,0.4728206694
03:39:36,-1.1198358000000002,1.28150567,-0.27726868,-0.332529825,-0.24433538,-0.313797785,1.13756853,-31.39198504,-5.00565572,179.11908615000002,-1.20866139725,1.052515106,0.9137035889999999,-0.38110699965,-0.23110317645,0.4706325433
03:39:36,-1.1149922,1.29158128,-0.27645611999999997,-0.3328228,-0.24201292,-0.31030344,1.12767952,-31.39430636,-4.99220548,179.1097316,-1.2049479440000002,1.063815604,0.9097626759999999,-0.3792336656,-0.22922666679999998,0.46844441719999996
03:39:36,-1.1101486,1.3016568899999998,-0.27564356,-0.333115775,-0.23969046,-0.30680909500000003,1.11779051,-31.39662768,-4.97875524,179.10037705,-1.20123449075,1.075116102,0.905821763,-0.37736033155,-0.22735015715,0.4662562911
03:39:36,-1.105305,1.3117325,-0.274831,-0.33340875,-0.237368,-0.30331475,1.1079015,-31.398949,-4.965305,179.0910225,-1.1975210375,1.0864166,0.90188085,-0.37548699750000003,-0.22547364749999999,0.464068165
03:39:36,-1.1004614,1.32180811,-0.27401844,-0.333701725,-0.23504554,-0.299820405,1.09801249,-31.401270320000002,-4.95185476,179.08166795,-1.19380758425,1.097717098,0.897939937,-0.37361366345,-0.22359713785,0.46188003889999996
03:39:36,-1.0956178,1.33188372,-0.27320588,-0.3339947,-0.23272308,-0.29632606000000006,1.0881234800000001,-31.403591640000002,-4.93840452,179.0723134,-1.190094131,1.109017596,0.893999024,-0.3717403294,-0.2217206282,0.4596919128
03:39:36,-1.0907742,1.34195933,-0.27239332,-0.334287675,-0.23040062,-0.29283171500000005,1.07823447,-31.405912960000002,-4.92495428,179.06295885,-1.1863806777500001,1.120318094,0.890058111,-0.36986699535,-0.21984411855,0.45750378669999997
03:39:36,-1.0859306,1.3520349399999998,-0.27158076,-0.33458065,-0.22807816,-0.28933737000000004,1.06834546,-31.408234280000002,-4.9115040400000005,179.0536043,-1.1826672245,1.131618592,0.886117198,-0.3679936613,-0.2179676089,0.4553156606
03:39:36,-1.0810870000000001,1.36211055,-0.2707682,-0.334873625,-0.2257557,-0.28584302500000003,1.05845645,-31.410555600000002,-4.8980538,179.04424975,-1.17895377125,1.14291909,0.882176285,-0.36612032725,-0.21609109924999997,0.4531275345
03:39:36,-1.0762434,1.37218616,-0.26995564,-0.3351666,-0.22343323999999998,-0.28234868,1.04856744,-31.412876920000002,-4.88460356,179.0348952,-1.1752403180000002,1.1542195880000001,0.878235372,-0.3642469932,-0.2142145896,0.4509394084
03:39:36,-1.0713998,1.38226177,-0.26914308,-0.335459575,-0.22111077999999998,-0.278854335,1.03867843,-31.415198240000002,-4.87115332,179.02554065,-1.1715268647500001,1.165520086,0.8742944589999999,-0.36237365914999997,-0.21233807994999998,0.4487512823
03:39:36,-1.0665562,1.3923373799999998,-0.26833052,-0.33575255,-0.21878831999999998,-0.27535999,1.0287894199999998,-31.417519560000002,-4.85770308,179.0161861,-1.1678134115,1.1768205840000001,0.870353546,-0.36050032509999996,-0.21046157029999998,0.4465631562
03:39:36,-1.0617126000000001,1.40241299,-0.26751796,-0.336045525,-0.21646585999999998,-0.271865645,1.01890041,-31.419840880000002,-4.84425284,179.00683155,-1.16409995825,1.1881210819999999,0.8664126329999999,-0.35862699105,-0.20858506065,0.4443750301
03:39:36,-1.056869,1.4124885999999999,-0.2667054,-0.3363385,-0.21414339999999998,-0.26837130000000003,1.0090114,-31.422162200000002,-4.8308026,178.997477,-1.160386505,1.19942158,0.8624717199999999,-0.356753657,-0.206708551,0.442186904
03:39:36,-1.0520254,1.42256421,-0.26589284,-0.336631475,-0.21182093999999999,-0.264876955,0.99912239,-31.42448352,-4.81735236,178.98812245,-1.1566730517500001,1.2107220779999999,0.858530807,-0.35488032295,-0.20483204135,0.43999877789999997
03:39:36,-1.0471818000000002,1.43263982,-0.26508028,-0.33692445,-0.20949848,-0.26138261,0.9892333799999999,-31.42680484,-4.80390212,178.9787679,-1.1529595985,1.222022576,0.854589894,-0.3530069889,-0.20295553169999997,0.4378106518
03:39:36,-1.0423382,1.4427154299999998,-0.26426772,-0.337217425,-0.20717602,-0.25788826500000006,0.97934437,-31.42912616,-4.79045188,178.96941335,-1.14924614525,1.2333230739999999,0.850648981,-0.35113365485,-0.20107902205,0.4356225257
03:39:36,-1.0374946,1.45279104,-0.26345516,-0.3375104,-0.20485356,-0.25439392000000005,0.96945536,-31.43144748,-4.77700164,178.9600588,-1.145532692,1.244623572,0.846708068,-0.3492603208,-0.19920251239999998,0.43343439959999996
03:39:36,-1.032651,1.46286665,-0.2626426,-0.337803375,-0.2025311,-0.25089957500000004,0.95956635,-31.4337688,-4.7635514,178.95070425,-1.1418192387500001,1.2559240699999998,0.842767155,-0.34738698675,-0.19732600275,0.4312462735
03:39:36,-1.0278074,1.47294226,-0.26183004,-0.33809635,-0.20020864,-0.24740523000000003,0.94967734,-31.43609012,-4.75010116,178.9413497,-1.1381057855,1.267224568,0.838826242,-0.3455136527,-0.19544949309999998,0.42905814740000003
03:39:36,-1.0229638,1.4830178699999998,-0.26101748,-0.33838932499999996,-0.19788618,-0.24391088500000002,0.93978833,-31.43841144,-4.73665092,178.93199515,-1.13439233225,1.2785250659999998,0.834885329,-0.34364031865,-0.19357298344999999,0.42687002129999996
03:39:36,-1.0181202,1.49309348,-0.26020492,-0.3386823,-0.19556372,-0.24041654,0.92989932,-31.44073276,-4.72320068,178.9226406,-1.130678879,1.289825564,0.8309444159999999,-0.3417669846,-0.1916964738,0.4246818952
03:39:36,-1.0132766,1.5031690899999999,-0.25939236,-0.338975275,-0.19324126,-0.23692219500000003,0.92001031,-31.44305408,-4.7097504400000005,178.91328605,-1.12696542575,1.3011260619999998,0.827003503,-0.33989365055,-0.18981996415,0.4224937691
03:39:36,-1.0084330000000001,1.5132447,-0.25857979999999997,-0.33926825,-0.1909188,-0.23342785000000002,0.9101213,-31.4453754,-4.6963002,178.9039315,-1.1232519725,1.31242656,0.8230625899999999,-0.3380203165,-0.1879434545,0.420305643
03:39:36,-1.0035894,1.52332031,-0.25776724,-0.33956122499999997,-0.18859634,-0.22993350500000004,0.9002322899999999,-31.44769672,-4.68284996,178.89457695,-1.11953851925,1.3237270579999998,0.819121677,-0.33614698244999996,-0.18606694485,0.4181175169
03:39:36,-0.9987458,1.5333959199999998,-0.25695468,-0.3398542,-0.18627388,-0.22643916000000003,0.89034328,-31.45001804,-4.66939972,178.8852224,-1.115825066,1.335027556,0.815180764,-0.33427364839999996,-0.1841904352,0.4159293908
03:39:36,-0.9939022000000001,1.54347153,-0.25614212,-0.34014717499999997,-0.18395141999999998,-0.22294481500000002,0.88045427,-31.45233936,-4.65594948,178.87586785,-1.1121116127500001,1.346328054,0.8112398510000001,-0.33240031435,-0.18231392554999998,0.4137412647
03:39:36,-0.9890586000000001,1.55354714,-0.25532956,-0.34044015,-0.18162895999999998,-0.21945047,0.87056526,-31.45466068,-4.64249924,178.8665133,-1.1083981595,1.357628552,0.807298938,-0.3305269803,-0.18043741589999998,0.4115531386
03:39:36,-0.9842150000000001,1.56362275,-0.254517,-0.34073312499999997,-0.17930649999999998,-0.215956125,0.86067625,-31.456982,-4.629049,178.85715875,-1.10468470625,1.36892905,0.803358025,-0.32865364625,-0.17856090624999998,0.4093650125
03:39:36,-0.9793714,1.5736983599999999,-0.25370444,-0.3410261,-0.17698403999999998,-0.21246178000000004,0.85078724,-31.45930332,-4.61559876,178.8478042,-1.100971253,1.380229548,0.799417112,-0.32678031220000003,-0.1766843966,0.4071768864
03:39:36,-0.9745278,1.5837739699999998,-0.25289188,-0.34131907499999997,-0.17466157999999998,-0.20896743500000003,0.84089823,-31.46162464,-4.60214852,178.83844965,-1.09725779975,1.391530046,0.795476199,-0.32490697815,-0.17480788695,0.4049887603
03:39:36,-0.9696842000000001,1.5938495799999999,-0.25207932,-0.34161205,-0.17233911999999998,-0.20547309000000002,0.83100922,-31.46394596,-4.58869828,178.8290951,-1.0935443465,1.402830544,0.791535286,-0.3230336441,-0.1729313773,0.4028006342
03:39:36,-0.9648406,1.60392519,-0.25126676,-0.341905025,-0.17001666,-0.20197874500000002,0.82112021,-31.46626728,-4.57524804,178.81974055,-1.08983089325,1.414131042,0.787594373,-0.32116031005,-0.17105486765,0.4006125081
03:39:36,-0.959997,1.6140008,-0.25045419999999996,-0.342198,-0.1676942,-0.1984844,0.8112311999999999,-31.4685886,-4.5617978,178.810386,-1.08611744,1.42543154,0.78365346,-0.319286976,-0.169178358,0.39842438199999997
03:39:36,-0.9551534,1.6240764099999998,-0.24964164,-0.342490975,-0.16537174,-0.19499005500000005,0.80134219,-31.47090992,-4.54834756,178.80103145,-1.0824039867500002,1.436732038,0.7797125469999999,-0.31741364195,-0.16730184835,0.3962362559
03:39:36,-0.9503098000000001,1.63415202,-0.24882907999999998,-0.34278395,-0.16304928,-0.19149571000000004,0.79145318,-31.47323124,-4.53489732,178.7916769,-1.0786905335,1.448032536,0.775771634,-0.3155403079,-0.16542533869999998,0.39404812980000004
03:39:36,-0.9454662,1.64422763,-0.24801652,-0.343076925,-0.16072682,-0.18800136500000003,0.78156417,-31.47555256,-4.52144708,178.78232235,-1.07497708025,1.459333034,0.7718307209999999,-0.31366697385,-0.16354882904999998,0.3918600037
03:39:36,-0.9406226,1.65430324,-0.24720396,-0.3433699,-0.15840436,-0.18450702000000002,0.77167516,-31.47787388,-4.507996840000001,178.7729678,-1.071263627,1.470633532,0.7678898080000001,-0.31179363979999997,-0.1616723194,0.3896718776
03:39:36,-0.935779,1.6643788499999999,-0.24639139999999998,-0.343662875,-0.1560819,-0.181012675,0.7617861499999999,-31.4801952,-4.4945466,178.76361325,-1.06755017375,1.48193403,0.763948895,-0.30992030574999996,-0.15979580975,0.38748375150000003
03:39:36,-0.9309354000000001,1.6744544599999998,-0.24557884,-0.34395585,-0.15375944,-0.17751833,0.75189714,-31.48251652,-4.4810963600000004,178.7542587,-1.0638367205,1.493234528,0.7600079820000001,-0.3080469717,-0.1579193001,0.3852956254
03:39:36,-0.9260918,1.6845300699999999,-0.24476628,-0.344248825,-0.15143698,-0.17402398500000005,0.74200813,-31.48483784,-4.4676461199999995,178.74490415,-1.06012326725,1.5045350259999999,0.756067069,-0.30617363765,-0.15604279045,0.3831074993
03:39:36,-0.9212482000000001,1.69460568,-0.24395371999999999,-0.3445418,-0.14911451999999997,-0.17052964000000004,0.73211912,-31.48715916,-4.45419588,178.7355496,-1.056409814,1.5158355239999999,0.752126156,-0.3043003036,-0.1541662808,0.3809193732
03:39:36,-0.9164046000000001,1.70468129,-0.24314116,-0.344834775,-0.14679205999999997,-0.16703529500000003,0.72223011,-31.48948048,-4.44074564,178.72619505,-1.0526963607500002,1.527136022,0.748185243,-0.30242696955,-0.15228977115,0.3787312471
03:39:36,-0.9115610000000001,1.7147568999999998,-0.2423286,-0.34512775,-0.14446959999999998,-0.16354095000000002,0.7123411,-31.4918018,-4.4272954,178.7168405,-1.0489829075000001,1.5384365199999999,0.74424433,-0.3005536355,-0.15041326149999998,0.376543121
03:39:36,-0.9067174,1.72483251,-0.24151604,-0.345420725,-0.14214713999999998,-0.160046605,0.70245209,-31.49412312,-4.41384516,178.70748595,-1.04526945425,1.549737018,0.740303417,-0.29868030145,-0.14853675184999998,0.3743549949
03:39:36,-0.9018738000000001,1.7349081199999998,-0.24070348,-0.3457137,-0.13982467999999998,-0.15655226000000005,0.69256308,-31.49644444,-4.40039492,178.6981314,-1.041556001,1.5610375159999998,0.736362504,-0.2968069674,-0.14666024219999999,0.3721668688
03:39:36,-0.8970302000000001,1.74498373,-0.23989092,-0.346006675,-0.13750221999999998,-0.15305791500000004,0.68267407,-31.49876576,-4.38694468,178.68877685,-1.03784254775,1.572338014,0.732421591,-0.29493363335,-0.14478373255,0.3699787427
03:39:36,-0.8921866,1.7550593399999999,-0.23907836,-0.34629965,-0.13517975999999998,-0.14956357000000003,0.6727850599999999,-31.50108708,-4.37349444,178.6794223,-1.0341290945,1.5836385119999998,0.7284806779999999,-0.2930602993,-0.1429072229,0.3677906166
03:39:36,-0.887343,1.7651349499999998,-0.2382658,-0.346592625,-0.13285729999999998,-0.14606922500000002,0.66289605,-31.5034084,-4.3600442,178.67006775,-1.03041564125,1.59493901,0.7245397650000001,-0.29118696525,-0.14103071325,0.36560249050000004
03:39:36,-0.8824994,1.7752105599999999,-0.23745324,-0.3468856,-0.13053483999999999,-0.14257488000000001,0.65300704,-31.50572972,-4.34659396,178.6607132,-1.026702188,1.6062395079999998,0.720598852,-0.2893136312,-0.1391542036,0.3634143644
03:39:36,-0.8776558000000001,1.78528617,-0.23664068,-0.347178575,-0.12821238,-0.139080535,0.64311803,-31.50805104,-4.33314372,178.65135865,-1.02298873475,1.617540006,0.7166579390000001,-0.28744029714999997,-0.13727769395,0.3612262383
03:39:36,-0.8728122,1.79536178,-0.23582812,-0.34747155,-0.12588992,-0.13558619000000005,0.63322902,-31.51037236,-4.31969348,178.6420041,-1.0192752815000001,1.6288405039999998,0.712717026,-0.28556696309999996,-0.1354011843,0.35903811220000004
03:39:36,-0.8679686,1.8054373899999998,-0.23501556,-0.347764525,-0.12356745999999999,-0.13209184500000004,0.6233400099999999,-31.51269368,-4.306243240000001,178.63264955,-1.01556182825,1.640141002,0.7087761130000001,-0.28369362904999995,-0.13352467464999998,0.3568499861
03:39:36,-0.863125,1.815513,-0.234203,-0.3480575,-0.12124499999999999,-0.12859750000000003,0.613451,-31.515015,-4.292793,178.62329499999998,-1.011848375,1.6514414999999998,0.7048352,-0.281820295,-0.13164816499999998,0.35466186
03:39:36,-0.8582814000000001,1.8255886099999998,-0.23339043999999998,-0.348350475,-0.11892254,-0.12510315500000002,0.60356199,-31.51733632,-4.2793427600000005,178.61394045,-1.00813492175,1.662741998,0.700894287,-0.27994696095,-0.12977165535,0.35247373390000003
03:39:36,-0.8534378,1.83566422,-0.23257788000000001,-0.34864344999999997,-0.11660008,-0.12160881000000001,0.59367298,-31.51965764,-4.2658925199999995,178.6045859,-1.0044214685,1.6740424959999998,0.696953374,-0.2780736269,-0.1278951457,0.3502856078
03:39:36,-0.8485942,1.8457398299999999,-0.23176532,-0.348936425,-0.11427762,-0.11811446500000006,0.58378397,-31.52197896,-4.25244228,178.59523135,-1.00070801525,1.685342994,0.693012461,-0.27620029285000003,-0.12601863605,0.3480974817
03:39:36,-0.8437506,1.85581544,-0.23095275999999998,-0.3492294,-0.11195516,-0.11462012000000005,0.5738949600000001,-31.52430028,-4.23899204,178.5858768,-0.996994562,1.6966434919999998,0.689071548,-0.2743269588,-0.1241421264,0.3459093556
03:39:36,-0.8389070000000001,1.8658910499999999,-0.23014020000000002,-0.349522375,-0.10963269999999997,-0.11112577500000004,0.5640059500000001,-31.5266216,-4.2255418,178.57652225,-0.99328110875,1.70794399,0.685130635,-0.27245362475,-0.12226561675,0.3437212295
03:39:36,-0.8340634,1.8759666599999998,-0.22932764,-0.34981534999999997,-0.10731023999999997,-0.10763143000000003,0.5541169399999999,-31.52894292,-4.21209156,178.5671677,-0.9895676555,1.7192444879999997,0.681189722,-0.2705802907,-0.1203891071,0.3415331034
03:39:36,-0.8292198000000001,1.88604227,-0.22851507999999998,-0.350108325,-0.10498777999999998,-0.10413708500000002,0.5442279299999999,-31.53126424,-4.19864132,178.55781315,-0.9858542022500001,1.730544986,0.677248809,-0.26870695665,-0.11851259744999998,0.3393449773
03:39:36,-0.8243762,1.8961178799999998,-0.22770252,-0.35040129999999997,-0.10266532,-0.10064274000000001,0.5343389199999999,-31.53358556,-4.18519108,178.5484586,-0.982140749,1.7418454839999997,0.6733078960000001,-0.2668336226,-0.11663608779999998,0.33715685120000005
03:39:36,-0.8195326,1.90619349,-0.22688996,-0.350694275,-0.10034285999999998,-0.09714839500000005,0.52444991,-31.53590688,-4.17174084,178.53910405,-0.97842729575,1.753145982,0.669366983,-0.26496028855,-0.11475957814999999,0.3349687251
03:39:36,-0.814689,1.9162690999999998,-0.22607739999999998,-0.35098725,-0.09802040000000001,-0.09365405000000004,0.5145609,-31.5382282,-4.1582906,178.5297495,-0.9747138425,1.7644464799999997,0.6654260700000001,-0.26308695449999997,-0.11288306849999999,0.332780599
03:39:36,-0.8098454,1.92634471,-0.22526484,-0.351280225,-0.09569793999999998,-0.09015970500000003,0.50467189,-31.54054952,-4.14484036,178.52039495,-0.9710003892500001,1.775746978,0.661485157,-0.26121362044999996,-0.11100655884999999,0.33059247290000005
03:39:36,-0.8050018000000001,1.9364203199999999,-0.22445228,-0.3515732,-0.09337547999999996,-0.08666536000000002,0.49478288000000004,-31.54287084,-4.13139012,178.51104039999998,-0.967286936,1.7870474760000001,0.657544244,-0.25934028639999995,-0.1091300492,0.3284043468
03:39:36,-0.8001582,1.9464959299999998,-0.22363972,-0.351866175,-0.09105301999999998,-0.08317101500000001,0.48489387000000006,-31.54519216,-4.11793988,178.50168585,-0.96357348275,1.798347974,0.653603331,-0.25746695235,-0.10725353955,0.3262162207
03:39:36,-0.7953146000000001,1.9565715399999999,-0.22282716,-0.35215915,-0.08873055999999996,-0.07967667,0.4750048600000001,-31.54751348,-4.10448964,178.4923313,-0.9598600295,1.8096484720000001,0.649662418,-0.2555936183,-0.1053770299,0.32402809460000004
03:39:36,-0.790471,1.9666471499999998,-0.2220146,-0.352452125,-0.08640809999999999,-0.07618232500000005,0.4651158499999999,-31.5498348,-4.0910394,178.48297675,-0.9561465762500001,1.82094897,0.645721505,-0.25372028425,-0.10350052025,0.3218399685
03:39:36,-0.7856274000000001,1.97672276,-0.22120204,-0.3527451,-0.08408563999999996,-0.07268798000000004,0.4552268399999999,-31.55215612,-4.0775891600000005,178.4736222,-0.952433123,1.832249468,0.641780592,-0.2518469502,-0.10162401059999998,0.3196518424
03:39:36,-0.7807838,1.9867983699999998,-0.22038948,-0.353038075,-0.08176317999999999,-0.06919363500000003,0.44533782999999993,-31.55447744,-4.0641389199999995,178.46426765,-0.94871966975,1.8435499659999999,0.637839679,-0.24997361615,-0.09974750094999998,0.31746371630000003
03:39:36,-0.7759402000000001,1.99687398,-0.21957692,-0.35333105,-0.07944071999999996,-0.06569929000000002,0.43544881999999996,-31.55679876,-4.05068868,178.4549131,-0.9450062164999999,1.854850464,0.6338987660000001,-0.24810028209999999,-0.09787099129999999,0.3152755902
03:39:36,-0.7710966,2.0069495899999996,-0.21876436,-0.353624025,-0.07711826,-0.06220494500000001,0.42555981,-31.55912008,-4.03723844,178.44555855,-0.94129276325,1.8661509619999999,0.6299578530000001,-0.24622694804999998,-0.09599448164999999,0.31308746410000005
03:39:36,-0.7662530000000001,2.0170252,-0.2179518,-0.353917,-0.07479579999999997,-0.05871060000000006,0.4156708,-31.5614414,-4.0237882,178.436204,-0.93757931,1.87745146,0.62601694,-0.244353614,-0.094117972,0.310899338
03:39:36,-0.7614094,2.02710081,-0.21713924,-0.354209975,-0.07247334,-0.05521625500000005,0.40578179000000003,-31.56376272,-4.01033796,178.42684945,-0.93386585675,1.8887519579999998,0.6220760270000001,-0.24248027995,-0.09224146235,0.3087112119
03:39:36,-0.7565658000000001,2.0371764199999998,-0.21632668,-0.35450295,-0.07015087999999997,-0.05172191000000004,0.39589278000000006,-31.56608404,-3.99688772,178.4174949,-0.9301524035,1.900052456,0.618135114,-0.24060694589999998,-0.0903649527,0.30652308580000004
03:39:36,-0.7517222,2.04725203,-0.21551412,-0.354795925,-0.06782842,-0.04822756500000003,0.3860037700000001,-31.56840536,-3.98343748,178.40814035,-0.92643895025,1.9113529539999998,0.6141942010000001,-0.23873361185,-0.08848844305,0.3043349597
03:39:36,-0.7468786000000001,2.0573276399999996,-0.21470156,-0.3550889,-0.06550595999999997,-0.04473322000000002,0.3761147599999999,-31.57072668,-3.96998724,178.39878579999998,-0.9227254970000001,1.922653452,0.610253288,-0.2368602778,-0.08661193339999998,0.3021468336
03:39:36,-0.742035,2.06740325,-0.213889,-0.355381875,-0.0631835,-0.04123887500000001,0.3662257499999999,-31.573048,-3.956537,178.38943125,-0.91901204375,1.9339539499999998,0.606312375,-0.23498694374999998,-0.08473542374999998,0.29995870750000003
03:39:36,-0.7371914,2.07747886,-0.21307643999999998,-0.35567485,-0.06086103999999998,-0.037744530000000054,0.35633673999999993,-31.57536932,-3.94308676,178.3800767,-0.9152985905,1.945254448,0.602371462,-0.23311360969999997,-0.08285891409999999,0.2977705814
03:39:36,-0.7323478,2.0875544699999997,-0.21226388000000002,-0.355967825,-0.05853858000000001,-0.034250185000000044,0.34644772999999995,-31.57769064,-3.92963652,178.37072215,-0.91158513725,1.9565549459999998,0.598430549,-0.23124027565,-0.08098240444999999,0.29558245530000005
03:39:36,-0.7275042,2.09763008,-0.21145132,-0.3562608,-0.05621611999999998,-0.030755840000000034,0.33655872,-31.58001196,-3.91618628,178.3613676,-0.9078716840000001,1.967855444,0.594489636,-0.22936694159999998,-0.07910589479999999,0.2933943292
03:39:36,-0.7226606000000001,2.1077056899999995,-0.21063875999999998,-0.356553775,-0.053893659999999954,-0.027261495000000024,0.32666971,-31.58233328,-3.9027360399999997,178.35201305,-0.90415823075,1.9791559419999998,0.590548723,-0.22749360754999998,-0.07722938515,0.2912062031
03:39:36,-0.717817,2.1177813,-0.20982620000000002,-0.35684675,-0.051571199999999984,-0.023767150000000015,0.3167807,-31.5846546,-3.8892858,178.3426585,-0.9004447775,1.99045644,0.5866078100000001,-0.2256202735,-0.0753528755,0.28901807700000004
03:39:36,-0.7129734000000001,2.1278569099999998,-0.20901364,-0.357139725,-0.04924873999999996,-0.02027280500000006,0.30689169000000005,-31.58697592,-3.87583556,178.33330395,-0.89673132425,2.0017569379999998,0.5826668970000001,-0.22374693945,-0.07347636585,0.2868299509
03:39:36,-0.7081298,2.1379325199999997,-0.20820107999999998,-0.3574327,-0.04692627999999999,-0.01677846000000005,0.2970026800000001,-31.58929724,-3.86238532,178.3239494,-0.8930178710000001,2.013057436,0.5787259840000001,-0.22187360539999998,-0.0715998562,0.28464182480000005
03:39:36,-0.7032862000000001,2.14800813,-0.20738852,-0.35772567499999997,-0.04460381999999996,-0.01328411500000004,0.2871136699999999,-31.59161856,-3.84893508,178.31459485,-0.88930441775,2.0243579339999997,0.5747850710000001,-0.22000027134999997,-0.06972334654999998,0.28245369870000003
03:39:36,-0.6984426,2.15808374,-0.20657596,-0.35801865,-0.04228135999999999,-0.009789770000000031,0.2772246599999999,-31.59393988,-3.8354848400000003,178.3052403,-0.8855909645,2.035658432,0.5708441580000001,-0.2181269373,-0.06784683689999998,0.2802655726
03:39:36,-0.6935990000000001,2.16815935,-0.20576339999999999,-0.358311625,-0.039958899999999964,-0.006295425000000021,0.2673356499999999,-31.5962612,-3.8220346000000003,178.29588575,-0.88187751125,2.0469589299999997,0.566903245,-0.21625360324999998,-0.06597032725000002,0.27807744650000005
03:39:36,-0.6887554,2.17823496,-0.20495084,-0.3586046,-0.03763643999999999,-0.0028010800000000113,0.25744663999999995,-31.59858252,-3.8085843600000002,178.28653119999998,-0.878164058,2.058259428,0.562962332,-0.21438026919999997,-0.06409381759999999,0.2758893204
03:39:36,-0.6839118000000001,2.1883105699999996,-0.20413828,-0.35889757499999997,-0.03531397999999997,0.000693264999999943,0.24755762999999997,-31.60090384,-3.79513412,178.27717665,-0.87445060475,2.0695599259999997,0.559021419,-0.21250693514999996,-0.06221730794999997,0.2737011943
03:39:36,-0.6790682,2.19838618,-0.20332572,-0.35919055,-0.032991519999999996,0.004187609999999953,0.23766862,-31.60322516,-3.78168388,178.2678221,-0.8707371515,2.080860424,0.555080506,-0.21063360109999996,-0.0603407983,0.27151306820000004
03:39:36,-0.6742246000000001,2.20846179,-0.20251316,-0.359483525,-0.03066905999999997,0.0076819549999999626,0.22777961000000002,-31.60554648,-3.76823364,178.25846755,-0.86702369825,2.0921609219999997,0.551139593,-0.20876026705,-0.058464288649999974,0.2693249421
03:39:36,-0.669381,2.2185373999999998,-0.2017006,-0.3597765,-0.0283466,0.011176299999999972,0.21789060000000005,-31.6078678,-3.7547834,178.249113,-0.863310245,2.10346142,0.54719868,-0.206886933,-0.056587779000000005,0.26713681600000005
03:39:36,-0.6645374000000001,2.22861301,-0.20088804,-0.36006947499999997,-0.026024139999999973,0.014670644999999982,0.20800159000000007,-31.610189119999998,-3.74133316,178.23975845,-0.85959679175,2.1147619179999997,0.5432577670000001,-0.20501359895,-0.05471126934999998,0.26494868990000003
03:39:36,-0.6596938,2.2386886199999996,-0.20007548,-0.36036245,-0.023701680000000003,0.018164989999999936,0.19811257999999987,-31.612510439999998,-3.72788292,178.2304039,-0.8558833385,2.126062416,0.5393168540000001,-0.20314026489999998,-0.05283475970000001,0.2627605638
03:39:36,-0.6548502,2.24876423,-0.19926292,-0.360655425,-0.021379219999999977,0.021659334999999946,0.1882235699999999,-31.614831759999998,-3.71443268,178.22104935,-0.85216988525,2.1373629139999997,0.5353759410000001,-0.20126693084999997,-0.05095825004999999,0.26057243770000005
03:39:36,-0.6500066,2.25883984,-0.19845036,-0.3609484,-0.019056760000000006,0.025153679999999956,0.17833455999999992,-31.617153079999998,-3.7009824399999998,178.2116948,-0.848456432,2.148663412,0.5314350280000001,-0.19939359679999996,-0.04908174040000002,0.2583843116
03:39:36,-0.645163,2.2689154499999997,-0.1976378,-0.361241375,-0.01673429999999998,0.028648024999999966,0.16844554999999994,-31.619474399999998,-3.6875321999999997,178.20234025,-0.84474297875,2.15996391,0.5274941150000001,-0.19752026275,-0.04720523074999999,0.25619618550000006
03:39:36,-0.6403194000000001,2.27899106,-0.19682524,-0.36153435,-0.014411839999999954,0.032142369999999976,0.15855653999999997,-31.621795719999998,-3.67408196,178.1929857,-0.8410295255,2.171264408,0.5235532020000001,-0.1956469287,-0.04532872109999997,0.25400805940000004
03:39:36,-0.6354758,2.2890666699999995,-0.19601268,-0.361827325,-0.012089379999999983,0.035636714999999985,0.14866753,-31.624117039999998,-3.66063172,178.18363115,-0.83731607225,2.182564906,0.5196122890000001,-0.19377359465,-0.04345221145,0.2518199333
03:39:36,-0.6306322000000001,2.29914228,-0.19520012,-0.3621203,-0.009766919999999957,0.039131059999999995,0.13877852000000002,-31.626438359999998,-3.64718148,178.17427659999998,-0.833602619,2.193865404,0.515671376,-0.19190026059999998,-0.041575701799999976,0.24963180720000006
03:39:36,-0.6257886,2.3092178899999998,-0.19438756000000001,-0.362413275,-0.007444459999999986,0.042625405000000005,0.12888951000000004,-31.628759679999998,-3.63373124,178.16492205,-0.82988916575,2.205165902,0.511730463,-0.19002692654999997,-0.03969919215000001,0.24744368110000003
03:39:36,-0.6209450000000001,2.3192934999999997,-0.193575,-0.36270625,-0.00512199999999996,0.046119750000000015,0.11900050000000006,-31.631081,-3.620281,178.1555675,-0.8261757125,2.2164664,0.50778955,-0.18815359249999997,-0.03782268249999998,0.24525555500000001
03:39:36,-0.6161014,2.32936911,-0.19276243999999998,-0.362999225,-0.0027995399999999893,0.049614094999999914,0.10911148999999987,-31.63340232,-3.60683076,178.14621295,-0.82246225925,2.227766898,0.503848637,-0.18628025844999996,-0.03594617285000001,0.24306742890000005
03:39:36,-0.6112578000000001,2.3394447199999995,-0.19194988000000002,-0.3632922,-0.0004770799999999631,0.053108439999999923,0.09922247999999989,-31.63572364,-3.59338052,178.1368584,-0.818748806,2.239067396,0.49990772400000005,-0.1844069244,-0.03406966319999999,0.24087930280000003
03:39:36,-0.6064142,2.34952033,-0.19113732,-0.363585175,0.0018453800000000076,0.05660278499999993,0.08933346999999991,-31.63804496,-3.57993028,178.12750384999998,-0.81503535275,2.250367894,0.49596681100000006,-0.18253359035,-0.03219315355000002,0.23869117670000006
03:39:36,-0.6015706000000001,2.3595959399999997,-0.19032476,-0.36387815,0.004167840000000034,0.06009712999999994,0.07944445999999994,-31.64036628,-3.56648004,178.1181493,-0.8113218995,2.261668392,0.4920258980000001,-0.1806602563,-0.030316643899999995,0.23650305060000004
03:39:36,-0.596727,2.3696715499999996,-0.1895122,-0.364171125,0.006490300000000004,0.06359147499999995,0.06955544999999996,-31.6426876,-3.5530298,178.10879475,-0.80760844625,2.27296889,0.4880849850000001,-0.17878692224999998,-0.02844013424999997,0.23431492450000002
03:39:36,-0.5918834000000001,2.37974716,-0.18869964,-0.3644641,0.00881276000000003,0.06708581999999996,0.05966643999999999,-31.64500892,-3.53957956,178.0994402,-0.803894993,2.284269388,0.4841440720000001,-0.17691358819999997,-0.026563624600000002,0.23212679840000006
03:39:36,-0.5870398,2.38982277,-0.18788708,-0.364757075,0.011135220000000001,0.07058016499999997,0.04977743000000001,-31.64733024,-3.52612932,178.09008565,-0.80018153975,2.295569886,0.4802031590000001,-0.17504025414999996,-0.024687114949999978,0.22993867230000004
03:39:36,-0.5821962,2.3998983799999998,-0.18707452,-0.36505005,0.013457680000000027,0.07407450999999998,0.039888420000000036,-31.64965156,-3.51267908,178.0807311,-0.7964680865,2.3068703839999998,0.4762622460000001,-0.17316692009999995,-0.02281060530000001,0.22775054620000001
03:39:36,-0.5773526,2.40997399,-0.18626196,-0.365343025,0.015780139999999998,0.07756885499999999,0.02999941000000006,-31.65197288,-3.49922884,178.07137655,-0.79275463325,2.318170882,0.4723213330000001,-0.17129358605,-0.020934095649999984,0.22556242010000005
03:39:36,-0.572509,2.4200495999999996,-0.1854494,-0.365636,0.018102600000000024,0.0810632,0.02011039999999986,-31.6542942,-3.4857786,178.06202199999998,-0.78904118,2.3294713799999998,0.46838042000000013,-0.169420252,-0.019057586000000015,0.22337429400000003
03:39:36,-0.5676654000000001,2.43012521,-0.18463684,-0.365928975,0.02042506000000005,0.08455754500000001,0.010221389999999886,-31.65661552,-3.47232836,178.05266745,-0.78532772675,2.340771878,0.46443950700000003,-0.16754691794999998,-0.01718107634999999,0.22118616790000006
03:39:36,-0.5628218,2.44020082,-0.18382428,-0.36622195,0.02274752000000002,0.08805188999999991,0.00033237999999990997,-31.65893684,-3.45887812,178.0433129,-0.7816142735,2.3520723759999997,0.46049859400000004,-0.16567358389999998,-0.015304566700000022,0.21899804180000004
03:39:36,-0.5579782000000001,2.4502764299999997,-0.18301172,-0.366514925,0.025069980000000047,0.09154623499999992,-0.009556630000000066,-31.66125816,-3.44542788,178.03395835,-0.77790082025,2.363372874,0.45655768100000005,-0.16380024984999997,-0.013428057049999997,0.21680991570000002
03:39:36,-0.5531346,2.46035204,-0.18219916,-0.3668079,0.027392440000000018,0.09504057999999993,-0.019445640000000042,-31.66357948,-3.43197764,178.0246038,-0.774187367,2.3746733719999997,0.45261676800000006,-0.16192691579999996,-0.011551547399999973,0.21462178960000006
03:39:36,-0.5482910000000001,2.4704276499999995,-0.1813866,-0.367100875,0.029714900000000044,0.09853492499999994,-0.029334650000000018,-31.6659008,-3.4185274,178.01524924999998,-0.77047391375,2.38597387,0.44867585500000007,-0.16005358174999995,-0.009675037750000004,0.21243366350000004
03:39:36,-0.5434474,2.48050326,-0.18057404,-0.36739385,0.032037360000000015,0.10202926999999995,-0.039223659999999994,-31.66822212,-3.40507716,178.0058947,-0.7667604605,2.3972743679999997,0.4447349420000001,-0.1581802477,-0.0077985280999999795,0.21024553740000007
03:39:36,-0.5386038000000001,2.49057887,-0.17976148,-0.367686825,0.03435982000000004,0.10552361499999996,-0.04911266999999997,-31.67054344,-3.39162692,177.99654015,-0.76304700725,2.408574866,0.4407940290000001,-0.15630691365,-0.005922018450000011,0.20805741130000005
03:39:36,-0.5337602,2.5006544799999997,-0.17894892,-0.36797979999999997,0.03668228000000001,0.10901795999999997,-0.059001679999999945,-31.67286476,-3.37817668,177.9871856,-0.759333554,2.4198753639999997,0.4368531160000001,-0.15443357959999998,-0.004045508799999986,0.20586928520000003
03:39:36,-0.5289166000000001,2.51073009,-0.17813636,-0.368272775,0.03900474000000004,0.11251230499999998,-0.06889068999999992,-31.67518608,-3.36472644,177.97783105,-0.75562010075,2.431175862,0.4329122030000001,-0.15256024554999997,-0.002168999150000017,0.20368115910000006
03:39:36,-0.524073,2.5208056999999995,-0.1773238,-0.36856575,0.04132720000000001,0.11600664999999999,-0.07877970000000012,-31.6775074,-3.3512762,177.9684765,-0.7519066475,2.4424763599999997,0.4289712900000001,-0.15068691149999996,-0.00029248949999999274,0.20149303300000004
03:39:36,-0.5192294000000001,2.53088131,-0.17651124,-0.368858725,0.043649660000000035,0.119500995,-0.0886687100000001,-31.67982872,-3.33782596,177.95912195,-0.74819319425,2.453776858,0.4250303770000001,-0.14881357744999996,0.0015840201500000317,0.19930490690000002
03:39:36,-0.5143858,2.5409569199999997,-0.17569868,-0.36915169999999997,0.045972120000000005,0.12299534000000001,-0.09855772000000007,-31.68215004,-3.32437572,177.94976739999998,-0.744479741,2.4650773559999997,0.42108946400000014,-0.1469402434,0.0034605298000000007,0.19711678080000006
03:39:36,-0.5095422000000001,2.5510325299999996,-0.17488612,-0.369444675,0.04829458000000003,0.1264896849999999,-0.10844673000000005,-31.68447136,-3.31092548,177.94041285,-0.74076628775,2.476377854,0.41714855100000003,-0.14506690935,0.005337039450000025,0.19492865470000004
03:39:36,-0.5046986,2.56110814,-0.17407356,-0.36973765000000003,0.05061704,0.12998402999999992,-0.11833574000000002,-31.68679268,-3.29747524,177.9310583,-0.7370528345,2.4876783519999996,0.41320763800000004,-0.1431935753,0.007213549099999994,0.19274052860000007
03:39:36,-0.49985500000000005,2.57118375,-0.173261,-0.370030625,0.05293950000000003,0.13347837499999993,-0.12822475,-31.689114,-3.284025,177.92170375,-0.73333938125,2.49897885,0.40926672500000005,-0.14132024124999998,0.009090058750000019,0.19055240250000005
03:39:36,-0.4950114000000001,2.58125936,-0.17244844,-0.3703236,0.055261960000000054,0.13697271999999994,-0.13811375999999997,-31.69143532,-3.27057476,177.9123492,-0.729625928,2.510279348,0.40532581200000006,-0.13944690719999997,0.010966568399999987,0.18836427640000003
03:39:36,-0.49016780000000004,2.5913349699999997,-0.17163588,-0.370616575,0.057584420000000025,0.14046706499999995,-0.14800276999999995,-31.69375664,-3.25712452,177.90299464999998,-0.72591247475,2.521579846,0.4013848990000001,-0.13757357314999996,0.012843078050000012,0.18617615030000007
03:39:36,-0.4853242000000001,2.6014105799999996,-0.17082332,-0.37090955,0.05990688000000005,0.14396140999999996,-0.15789177999999993,-31.69607796,-3.24367428,177.8936401,-0.7221990215,2.532880344,0.3974439860000001,-0.13570023909999995,0.01471958769999998,0.18398802420000004
03:39:36,-0.48048060000000004,2.61148619,-0.17001076,-0.371202525,0.06222934000000002,0.14745575499999997,-0.16778079000000012,-31.69839928,-3.23022404,177.88428555,-0.71848556825,2.544180842,0.3935030730000001,-0.13382690505,0.016596097350000005,0.18179989810000008
03:39:36,-0.4756370000000001,2.6215618,-0.1691982,-0.3714955,0.06455180000000005,0.15095009999999998,-0.1776698000000001,-31.700720599999997,-3.2167738,177.874931,-0.7147721149999999,2.55548134,0.3895621600000001,-0.131953571,0.01847260700000003,0.17961177200000006
03:39:36,-0.47079340000000003,2.6316374099999997,-0.16838564,-0.371788475,0.06687426000000002,0.15444444499999999,-0.18755881000000008,-31.703041919999997,-3.20332356,177.86557645,-0.71105866175,2.566781838,0.3856212470000001,-0.13008023694999998,0.02034911665,0.17742364590000004
03:39:36,-0.4659498000000001,2.64171302,-0.16757308,-0.37208145,0.06919672000000004,0.15793879,-0.19744782000000005,-31.705363239999997,-3.18987332,177.8562219,-0.7073452084999999,2.578082336,0.3816803340000001,-0.12820690289999997,0.022225626300000023,0.17523551980000007
03:39:36,-0.4611062,2.6517886299999995,-0.16676052,-0.372374425,0.07151918000000002,0.161433135,-0.20733683000000003,-31.707684559999997,-3.17642308,177.84686735,-0.70363175525,2.589382834,0.37773942100000013,-0.12633356884999997,0.024102135949999992,0.17304739370000005
03:39:36,-0.4562626000000001,2.66186424,-0.16594796,-0.3726674,0.07384164000000004,0.1649274799999999,-0.21722584,-31.710005879999997,-3.16297284,177.83751279999998,-0.6999183019999999,2.600683332,0.37379850800000014,-0.12446023479999996,0.025978645600000017,0.17085926760000003
03:39:36,-0.451419,2.67193985,-0.16513540000000002,-0.372960375,0.07616410000000001,0.16842182499999991,-0.22711484999999998,-31.712327199999997,-3.1495226,177.82815825,-0.69620484875,2.61198383,0.36985759500000015,-0.12258690074999995,0.027855155249999985,0.16867114150000007
03:39:36,-0.44657540000000007,2.6820154599999997,-0.16432284,-0.37325335,0.07848656000000004,0.17191616999999992,-0.23700385999999996,-31.714648519999997,-3.13607236,177.8188037,-0.6924913954999999,2.623284328,0.36591668200000005,-0.1207135667,0.02973166490000001,0.16648301540000005
03:39:36,-0.4417318,2.69209107,-0.16351028,-0.373546325,0.08080902000000001,0.17541051499999993,-0.24689286999999993,-31.716969839999997,-3.12262212,177.80944915,-0.68877794225,2.6345848259999998,0.36197576900000006,-0.11884023264999999,0.03160817454999998,0.16429488930000008
03:39:36,-0.43688820000000006,2.7021666799999995,-0.16269772,-0.3738393,0.08313148000000004,0.17890485999999994,-0.25678188000000013,-31.719291159999997,-3.10917188,177.8000946,-0.6850644889999999,2.645885324,0.35803485600000007,-0.11696689859999998,0.0334846842,0.16210676320000006
03:39:36,-0.4320446,2.71224229,-0.16188516,-0.374132275,0.08545394,0.18239920499999995,-0.2666708900000001,-31.721612479999997,-3.09572164,177.79074004999998,-0.68135103575,2.6571858219999998,0.3540939430000001,-0.11509356454999997,0.03536119385000003,0.15991863710000004
03:39:36,-0.42720100000000005,2.7223178999999997,-0.1610726,-0.37442525,0.08777640000000003,0.18589354999999996,-0.2765599000000001,-31.723933799999998,-3.0822713999999998,177.7813855,-0.6776375825,2.66848632,0.3501530300000001,-0.11322023049999996,0.0372377035,0.15773051100000007
03:39:36,-0.4223574,2.7323935099999996,-0.16026004,-0.374718225,0.09009886,0.18938789499999997,-0.28644891000000006,-31.726255119999998,-3.06882116,177.77203095,-0.67392412925,2.6797868179999997,0.3462121170000001,-0.11134689644999995,0.03911421315000002,0.15554238490000005
03:39:36,-0.41751380000000005,2.74246912,-0.15944748,-0.3750112,0.09242132000000003,0.19288223999999998,-0.29633792000000003,-31.728576439999998,-3.05537092,177.7626764,-0.670210676,2.691087316,0.3422712040000001,-0.10947356239999995,0.04099072279999999,0.1533542588000001
03:39:36,-0.4126702000000001,2.7525447299999994,-0.15863492,-0.375304175,0.09474378000000006,0.196376585,-0.30622693,-31.730897759999998,-3.04192068,177.75332185,-0.66649722275,2.702387814,0.3383302910000001,-0.10760022835,0.042867232450000015,0.15116613270000007
03:39:36,-0.40782660000000004,2.76262034,-0.15782236,-0.37559715,0.09706624000000003,0.19987093,-0.31611594,-31.733219079999998,-3.02847044,177.7439673,-0.6627837695,2.713688312,0.3343893780000001,-0.10572689429999999,0.044743742099999984,0.14897800660000005
03:39:36,-0.4029830000000001,2.7726959499999997,-0.1570098,-0.375890125,0.09938870000000005,0.2033652749999999,-0.32600494999999996,-31.735540399999998,-3.0150202,177.73461275,-0.65907031625,2.72498881,0.33044846500000014,-0.10385356024999998,0.04662025175000001,0.14678988050000008
03:39:36,-0.39813940000000003,2.7827715599999996,-0.15619724000000001,-0.3761831,0.10171116000000002,0.2068596199999999,-0.33589395999999994,-31.737861719999998,-3.00156996,177.72525819999998,-0.655356863,2.736289308,0.32650755200000015,-0.10198022619999997,0.04849676139999998,0.14460175440000006
03:39:36,-0.3932958000000001,2.79284717,-0.15538468,-0.376476075,0.10403362000000005,0.21035396499999992,-0.34578297000000013,-31.740183039999998,-2.98811972,177.71590365,-0.65164340975,2.747589806,0.32256663900000015,-0.10010689214999996,0.05037327105,0.14241362830000004
03:39:36,-0.3884522,2.80292278,-0.15457212,-0.37676905,0.10635608000000002,0.21384830999999993,-0.3556719800000001,-31.742504359999998,-2.97466948,177.7065491,-0.6479299565,2.758890304,0.31862572600000016,-0.09823355809999995,0.052249780700000026,0.14022550220000007
03:39:36,-0.3836086000000001,2.8129983899999997,-0.15375956,-0.377062025,0.10867854000000005,0.21734265499999994,-0.3655609900000001,-31.744825679999998,-2.96121924,177.69719455,-0.64421650325,2.770190802,0.31468481300000006,-0.09636022405,0.054126290349999995,0.13803737610000005
03:39:37,-0.378765,2.823074,-0.152947,-0.377355,0.111001,0.220837,-0.37545,-31.747147,-2.947769,177.68784,-0.64050305,2.7814913,0.3107439,-0.09448689,0.0560028,0.13584925
03:39:37,-0.369407615,2.8042484,-0.161045245,-0.375810245,0.109371015,0.220187135,-0.360387935,-31.74540025,-2.920269115,175.9230153,-0.63841664545,2.7606475054999997,0.31027093075,-0.09410899088,0.054783054,0.1350076864
03:39:37,-0.36005023,2.7854228,-0.16914349,-0.37426549,0.10774103,0.21953727,-0.34532587000000003,-31.743653499999997,-2.8927692300000003,174.15819059999998,-0.6363302409,2.739803711,0.3097979615,-0.09373109176000001,0.053563308,0.1341661228
03:39:37,-0.35069284500000003,2.7665972,-0.177241735,-0.37272073499999997,0.106111045,0.218887405,-0.330263805,-31.74190675,-2.865269345,172.3933659,-0.6342438363499999,2.7189599165,0.30932499225000004,-0.09335319264,0.052343561999999996,0.1333245592
03:39:37,-0.34133546000000003,2.7477716,-0.18533998000000002,-0.37117598,0.10448106,0.21823754,-0.31520174,-31.74016,-2.83776946,170.6285412,-0.6321574318,2.698116122,0.30885202300000003,-0.09297529352,0.051123815999999996,0.13248299560000001
03:39:37,-0.331978075,2.728946,-0.19343822500000002,-0.369631225,0.102851075,0.217587675,-0.300139675,-31.738413249999997,-2.810269575,168.8637165,-0.63007102725,2.6772723275,0.30837905375,-0.0925973944,0.049904069999999995,0.131641432
03:39:37,-0.32262069000000004,2.7101204,-0.20153647,-0.36808647,0.10122109,0.21693781,-0.28507761,-31.7366665,-2.7827696900000003,167.0988918,-0.6279846227,2.6564285329999997,0.3079060845,-0.09221949528000001,0.048684324,0.13079986840000002
03:39:37,-0.313263305,2.6912948,-0.209634715,-0.366541715,0.099591105,0.216287945,-0.270015545,-31.73491975,-2.755269805,165.3340671,-0.62589821815,2.6355847385,0.30743311525,-0.09184159616000001,0.047464578,0.1299583048
03:39:37,-0.30390592,2.6724692,-0.21773296,-0.36499696,0.09796112,0.21563808,-0.25495348,-31.733172999999997,-2.72776992,163.5692424,-0.6238118135999999,2.614740944,0.306960146,-0.09146369704,0.046244832,0.1291167412
03:39:37,-0.294548535,2.6536436,-0.225831205,-0.363452205,0.096331135,0.214988215,-0.239891415,-31.73142625,-2.700270035,161.8044177,-0.62172540905,2.5938971495,0.30648717675000003,-0.09108579792,0.045025086,0.1282751776
03:39:37,-0.28519115,2.634818,-0.23392945,-0.36190745,0.09470115000000001,0.21433835,-0.22482935,-31.7296795,-2.6727701500000003,160.039593,-0.6196390045,2.573053355,0.3060142075,-0.0907078988,0.04380534,0.127433614
03:39:37,-0.275833765,2.6159924,-0.242027695,-0.360362695,0.09307116500000001,0.213688485,-0.20976728500000003,-31.727932749999997,-2.645270265,158.2747683,-0.61755259995,2.5522095604999997,0.30554123825,-0.09032999968000001,0.042585594,0.12659205040000002
03:39:37,-0.26647638,2.5971668,-0.25012594,-0.35881794,0.09144118000000001,0.21303862,-0.19470522,-31.726186,-2.61777038,156.50994359999999,-0.6154661953999999,2.531365766,0.305068269,-0.08995210056,0.041365848,0.1257504868
03:39:37,-0.257118995,2.5783412,-0.258224185,-0.357273185,0.08981119500000001,0.212388755,-0.179643155,-31.72443925,-2.590270495,154.7451189,-0.6133797908499999,2.5105219715,0.30459529975,-0.08957420144,0.040146101999999996,0.12490892320000001
03:39:37,-0.24776161,2.5595156,-0.26632243,-0.35572843,0.08818121000000001,0.21173889,-0.16458109,-31.722692499999997,-2.5627706100000003,152.9802942,-0.6112933863,2.489678177,0.30412233050000004,-0.08919630232,0.038926355999999995,0.12406735960000001
03:39:37,-0.238404225,2.54069,-0.274420675,-0.354183675,0.08655122500000001,0.211089025,-0.14951902500000003,-31.72094575,-2.535270725,151.21546949999998,-0.60920698175,2.4688343825,0.30364936125,-0.0888184032,0.03770661,0.123225796
03:39:37,-0.22904684,2.5218644,-0.28251892,-0.35263892,0.08492124000000001,0.21043916000000001,-0.13445696000000001,-31.719199,-2.50777084,149.4506448,-0.6071205772,2.4479905879999997,0.303176392,-0.08844050408000001,0.036486863999999994,0.1223842324
03:39:37,-0.219689455,2.5030388,-0.290617165,-0.351094165,0.08329125500000001,0.20978929500000001,-0.119394895,-31.717452249999997,-2.480270955,147.6858201,-0.6050341726499999,2.4271467935,0.30270342275,-0.08806260496,0.035267118,0.1215426688
03:39:37,-0.21033207,2.4842132,-0.29871541,-0.34954941,0.08166127000000001,0.20913943000000002,-0.10433282999999999,-31.7157055,-2.4527710700000003,145.9209954,-0.6029477681,2.4063029989999998,0.3022304535,-0.08768470584,0.03404737199999999,0.1207011052
03:39:37,-0.200974685,2.4653876,-0.306813655,-0.348004655,0.08003128500000001,0.20848956500000002,-0.08927076500000003,-31.71395875,-2.425271185,144.1561707,-0.60086136355,2.3854592045,0.30175748425000004,-0.08730680672,0.032827626,0.11985954160000001
03:39:37,-0.1916173,2.446562,-0.3149119,-0.3464599,0.07840130000000001,0.20783970000000002,-0.07420870000000002,-31.712211999999997,-2.3977713,142.391346,-0.598774959,2.36461541,0.30128451500000003,-0.08692890760000001,0.03160788,0.119017978
03:39:37,-0.182259915,2.4277364,-0.323010145,-0.344915145,0.076771315,0.20718983500000002,-0.059146635,-31.71046525,-2.3702714150000004,140.6265213,-0.59668855445,2.3437716154999997,0.30081154575,-0.08655100848,0.030388133999999997,0.11817641440000001
03:39:37,-0.17290253,2.4089108,-0.33110839000000003,-0.34337039,0.07514133,0.20653997000000002,-0.044084570000000045,-31.7087185,-2.3427715300000003,138.86169660000002,-0.5946021498999999,2.322927821,0.3003385765,-0.08617310936,0.029168387999999996,0.1173348508
03:39:37,-0.163545145,2.3900852,-0.33920663500000003,-0.341825635,0.073511345,0.20589010500000002,-0.029022505000000032,-31.706971749999997,-2.315271645,137.0968719,-0.59251574535,2.3020840264999998,0.29986560725,-0.08579521024,0.027948641999999996,0.1164932872
03:39:37,-0.15418776,2.3712596,-0.34730488000000004,-0.34028088,0.07188136,0.20524024000000002,-0.013960440000000018,-31.705225,-2.28777176,135.3320472,-0.5904293408,2.281240232,0.29939263800000004,-0.08541731112,0.026728895999999995,0.1156517236
03:39:37,-0.14483037499999998,2.352434,-0.35540312500000004,-0.338736125,0.070251375,0.204590375,0.001101624999999995,-31.70347825,-2.260271875,133.5672225,-0.58834293625,2.2603964375,0.29891966875000003,-0.08503941200000001,0.025509149999999998,0.11481016000000001
03:39:37,-0.13547299,2.3336084,-0.36350137000000005,-0.33719137,0.06862139,0.20394051000000002,0.01616369000000001,-31.701731499999998,-2.2327719900000003,131.8023978,-0.5862565316999999,2.2395526429999997,0.2984466995,-0.08466151288,0.024289403999999994,0.11396859640000001
03:39:37,-0.12611560499999996,2.3147828,-0.37159961500000005,-0.335646615,0.066991405,0.203290645,0.031225754999999966,-31.69998475,-2.205272105,130.0375731,-0.5841701271499999,2.2187088485,0.29797373025,-0.08428361376,0.023069658,0.1131270328
03:39:37,-0.11675821999999997,2.2959572,-0.37969786,-0.33410186,0.06536142,0.20264078000000002,0.04628781999999998,-31.698238,-2.17777222,128.2727484,-0.5820837226,2.1978650539999998,0.297500761,-0.08390571464,0.021849912,0.1122854692
03:39:37,-0.10740083499999997,2.2771316,-0.387796105,-0.332557105,0.063731435,0.201990915,0.06134988499999999,-31.696491249999998,-2.1502723350000004,126.5079237,-0.57999731805,2.1770212595,0.29702779175,-0.08352781552,0.020630166,0.1114439056
03:39:37,-0.09804344999999998,2.258306,-0.39589435,-0.33101235,0.06210145000000001,0.20134105,0.07641194999999995,-31.6947445,-2.1227724500000003,124.743099,-0.5779109135,2.156177465,0.29655482250000004,-0.0831499164,0.019410419999999998,0.110602342
03:39:37,-0.08868606499999998,2.2394804,-0.403992595,-0.329467595,0.06047146500000001,0.200691185,0.09147401499999996,-31.69299775,-2.095272565,122.97827430000001,-0.57582450895,2.1353336704999997,0.29608185325,-0.08277201728,0.018190673999999997,0.10976077840000001
03:39:37,-0.07932867999999998,2.2206548,-0.41209084,-0.32792284,0.05884148000000001,0.20004132,0.10653607999999998,-31.691250999999998,-2.06777268,121.2134496,-0.5737381044,2.114489876,0.295608884,-0.08239411816,0.016970927999999996,0.1089192148
03:39:37,-0.06997129499999999,2.2018292,-0.420189085,-0.326378085,0.05721149500000001,0.199391455,0.12159814499999999,-31.68950425,-2.040272795,119.4486249,-0.57165169985,2.0936460814999998,0.29513591475,-0.08201621904,0.015751181999999996,0.1080776512
03:39:37,-0.06061390999999999,2.1830036,-0.42828733,-0.32483333000000003,0.05558151000000001,0.19874159,0.13666021,-31.6877575,-2.0127729100000002,117.68380020000001,-0.5695652953,2.072802287,0.2946629455,-0.08163831992000001,0.014531435999999995,0.1072360876
03:39:37,-0.051256525,2.164178,-0.436385575,-0.323288575,0.05395152500000001,0.198091725,0.15172227499999996,-31.686010749999998,-1.9852730250000001,115.9189755,-0.56747889075,2.0519584925,0.29418997625000004,-0.08126042080000001,0.013311689999999994,0.106394524
03:39:37,-0.04189914,2.1453524,-0.44448382000000003,-0.32174382,0.05232154000000001,0.19744186,0.16678434000000003,-31.684264,-1.95777314,114.1541508,-0.5653924861999999,2.0311146979999997,0.29371700700000003,-0.08088252168,0.012091943999999993,0.1055529604
03:39:37,-0.032541755000000006,2.1265268,-0.45258206500000003,-0.320199065,0.050691555000000006,0.196791995,0.181846405,-31.68251725,-1.9302732550000001,112.3893261,-0.56330608165,2.0102709035,0.29324403775,-0.08050462256,0.010872197999999993,0.10471139680000001
03:39:37,-0.023184369999999954,2.1077012,-0.46068031000000004,-0.31865431,0.04906157000000001,0.19614213,0.19690846999999995,-31.680770499999998,-1.9027733700000002,110.6245014,-0.5612196771,1.9894271089999997,0.2927710685,-0.08012672344,0.009652451999999999,0.10386983320000001
03:39:37,-0.013826984999999958,2.0888756,-0.46877855500000004,-0.317109555,0.04743158500000001,0.195492265,0.21197053500000002,-31.67902375,-1.8752734850000001,108.85967670000001,-0.55913327255,1.9685833144999998,0.29229809925,-0.07974882432000001,0.008432705999999998,0.1030282696
03:39:37,-0.0044695999999999625,2.07005,-0.47687680000000005,-0.3155648,0.04580160000000001,0.1948424,0.22703259999999997,-31.677277,-1.8477736000000002,107.094852,-0.557046868,1.9477395199999998,0.29182513,-0.0793709252,0.007212959999999997,0.102186706
03:39:37,0.004887785000000033,2.0512244,-0.484975045,-0.314020045,0.04417161500000001,0.194192535,0.24209466499999993,-31.675530249999998,-1.8202737150000001,105.33002730000001,-0.5549604634499999,1.9268957254999997,0.29135216075000003,-0.07899302608,0.005993213999999997,0.1013451424
03:39:37,0.01424517000000003,2.0323988,-0.49307329,-0.31247529,0.04254163000000001,0.19354267,0.25715673,-31.6737835,-1.7927738300000002,103.5652026,-0.5528740589,1.906051931,0.2908791915,-0.07861512696,0.004773467999999996,0.1005035788
03:39:37,0.023602555000000025,2.0135732,-0.501171535,-0.310930535,0.04091164500000001,0.192892805,0.27221879499999996,-31.67203675,-1.7652739450000001,101.8003779,-0.55078765435,1.8852081364999997,0.29040622225,-0.07823722784,0.0035537219999999953,0.09966201520000001
03:39:37,0.03295994000000002,1.9947476000000002,-0.50926978,-0.30938578,0.03928166000000001,0.19224294,0.2872808599999999,-31.670289999999998,-1.7377740600000002,100.03555320000001,-0.5487012498,1.8643643419999998,0.289933253,-0.07785932872000001,0.0023339759999999946,0.0988204516
03:39:37,0.04231732500000002,1.9759220000000002,-0.517368025,-0.307841025,0.03765167500000001,0.191593075,0.302342925,-31.66854325,-1.7102741750000001,98.2707285,-0.5466148452499999,1.8435205474999998,0.28946028375,-0.0774814296,0.0011142299999999938,0.09797888800000001
03:39:37,0.05167471000000001,1.9570964000000002,-0.52546627,-0.30629627,0.03602169000000001,0.19094321,0.31740498999999994,-31.6667965,-1.6827742900000002,96.50590380000001,-0.5445284407,1.8226767529999996,0.28898731450000004,-0.07710353048,-0.00010551600000000688,0.0971373244
03:39:37,0.06103209500000001,1.9382708000000002,-0.533564515,-0.304751515,0.03439170500000001,0.190293345,0.332467055,-31.665049749999998,-1.6552744050000001,94.74107910000001,-0.54244203615,1.8018329585,0.28851434525,-0.07672563136,-0.0013252620000000076,0.0962957608
03:39:37,0.07038948,1.9194452,-0.54166276,-0.30320676,0.03276172000000001,0.18964348,0.34752911999999997,-31.663303,-1.6277745200000002,92.97625440000002,-0.5403556316,1.7809891639999997,0.288041376,-0.07634773224000001,-0.0025450080000000083,0.09545419720000001
03:39:37,0.07974686500000006,1.9006196,-0.549761005,-0.301662005,0.031131735000000008,0.188993615,0.3625911849999999,-31.66155625,-1.6002746350000001,91.21142970000001,-0.53826922705,1.7601453694999998,0.28756840675,-0.07596983312,-0.003764754000000002,0.0946126336
03:39:37,0.08910425000000005,1.881794,-0.55785925,-0.30011725,0.029501750000000007,0.18834375,0.37765325,-31.659809499999998,-1.5727747500000002,89.446605,-0.5361828225,1.7393015749999998,0.2870954375,-0.075591934,-0.004984500000000003,0.09377107000000001
03:39:37,0.09846163500000005,1.8629684,-0.565957495,-0.298572495,0.027871765000000007,0.187693885,0.39271531499999995,-31.65806275,-1.545274865,87.68178030000001,-0.53409641795,1.7184577804999999,0.28662246825000004,-0.07521403488,-0.0062042460000000035,0.0929295064
03:39:37,0.10781902000000004,1.8441428,-0.57405574,-0.29702774,0.026241780000000006,0.18704402,0.40777738,-31.656316,-1.5177749800000002,85.91695560000001,-0.5320100134,1.6976139859999997,0.28614949900000003,-0.07483613576,-0.007423992000000011,0.0920879428
03:39:37,0.11717640500000004,1.8253172,-0.582153985,-0.29548298500000003,0.024611795000000006,0.186394155,0.422839445,-31.654569249999998,-1.490275095,84.15213090000002,-0.52992360885,1.6767701914999997,0.28567652975,-0.07445823664000001,-0.008643738000000005,0.0912463792
03:39:37,0.1265337900000001,1.8064916,-0.59025223,-0.29393823,0.02298181000000002,0.18574429,0.43790150999999994,-31.6528225,-1.4627752100000002,82.38730620000001,-0.5278372043,1.6559263969999998,0.2852035605,-0.07408033752000001,-0.009863483999999999,0.0904048156
03:39:37,0.13589117500000003,1.787666,-0.598350475,-0.292393475,0.02135182500000002,0.185094425,0.452963575,-31.65107575,-1.435275325,80.6224815,-0.5257507997499999,1.6350826024999998,0.28473059125,-0.0737024384,-0.011083230000000006,0.08956325200000001
03:39:37,0.14524856000000008,1.7688404,-0.6064487199999999,-0.29084872,0.019721840000000018,0.18444456,0.46802563999999997,-31.649328999999998,-1.4077754400000002,78.85765680000002,-0.5236643952,1.6142388079999999,0.28425762200000004,-0.07332453928,-0.012302976,0.0887216884
03:39:37,0.15460594500000002,1.7500148,-0.614546965,-0.289303965,0.018091855000000018,0.183794695,0.4830877049999999,-31.64758225,-1.380275555,77.09283210000001,-0.52157799065,1.5933950134999997,0.28378465275000003,-0.07294664016,-0.013522722000000008,0.0878801248
03:39:37,0.16396333000000007,1.7311892,-0.62264521,-0.28775921,0.016461870000000017,0.18314483,0.49814977,-31.6458355,-1.3527756700000002,75.32800740000002,-0.5194915861,1.5725512189999997,0.2833116835,-0.07256874104,-0.014742468000000002,0.0870385612
03:39:37,0.17332071500000001,1.7123636,-0.630743455,-0.286214455,0.014831885000000017,0.182494965,0.5132118349999999,-31.644088749999998,-1.325275785,73.56318270000001,-0.51740518155,1.5517074244999998,0.28283871425,-0.07219084192,-0.01596221400000001,0.0861969976
03:39:37,0.18267810000000007,1.693538,-0.6388417,-0.2846697,0.013201900000000016,0.1818451,0.5282738999999999,-31.642342,-1.2977759000000002,71.79835800000001,-0.515318777,1.5308636299999998,0.282365745,-0.0718129428,-0.017181960000000003,0.08535543400000001
03:39:37,0.192035485,1.6747124,-0.646939945,-0.283124945,0.011571915000000016,0.181195235,0.543335965,-31.64059525,-1.270276015,70.03353330000002,-0.51323237245,1.5100198354999999,0.28189277575,-0.07143504368,-0.01840170600000001,0.0845138704
03:39:37,0.20139287000000006,1.6558868,-0.65503819,-0.28158019,0.009941930000000015,0.18054537,0.55839803,-31.638848499999998,-1.2427761300000002,68.26870860000001,-0.5111459679,1.4891760409999997,0.28141980650000004,-0.07105714456000001,-0.019621452000000005,0.08367230680000001
03:39:37,0.210750255,1.6370612,-0.663136435,-0.280035435,0.008311945000000015,0.179895505,0.573460095,-31.63710175,-1.215276245,66.50388390000002,-0.50905956335,1.4683322464999997,0.28094683725,-0.07067924544000001,-0.020841198000000012,0.0828307432
