Timestamp,linacce_x,linacce_y,linacce_z,gyro_x,gyro_y,gyro_z,X-magnetometer,Y-magnetometer,Z-magnetometer,Yaw, worldXAccel,worldYAccel,worldZAccel,worldXgyro,worldYgyro,worldZgyro
03:38:57,-0.382906,-1.072732,-0.312867,0.184084,-0.157467,-0.413045,-3.86998,29.284008,-27.99984,9.000683,-0.437127,-1.0794189,0.11300178,-0.087120116,-0.122232676,-0.4178909
03:38:57,-0.3878866,-1.050922835,-0.31351797,0.183727105,-0.15834591,-0.412219355,-3.891989545,29.282862675,-28.0033335,9.06712422,-0.4442186265,-1.0587542890000001,0.11306383519999999,-0.08696170317,-0.12288114087,-0.41656067025
03:38:57,-0.3928672,-1.02911367,-0.31416894,0.18337021,-0.15922482,-0.41139370999999997,-3.91399909,29.28171735,-28.006826999999998,9.13356544,-0.451310253,-1.038089678,0.1131258904,-0.08680329033999999,-0.12352960573999999,-0.4152304405
03:38:57,-0.39784780000000003,-1.007304505,-0.31481991,0.183013315,-0.16010373,-0.410568065,-3.936008635,29.280572025,-28.0103205,9.20000666,-0.4584018795,-1.017425067,0.11318794559999999,-0.08664487751,-0.12417807061,-0.41390021075
03:38:57,-0.40282840000000003,-0.98549534,-0.31547088,0.18265641999999999,-0.16098264,-0.40974242,-3.95801818,29.2794267,-28.013814,9.266447880000001,-0.465493506,-0.9967604560000001,0.1132500008,-0.08648646468,-0.12482653548,-0.41256998100000003
03:38:57,-0.40780900000000003,-0.9636861750000001,-0.31612185,0.182299525,-0.16186155,-0.408916775,-3.980027725,29.278281375,-28.017307499999998,9.332889100000001,-0.4725851325,-0.976095845,0.113312056,-0.08632805185,-0.12547500035,-0.41123975125
03:38:57,-0.41278960000000003,-0.94187701,-0.31677282,0.18194263,-0.16274046,-0.40809112999999997,-4.00203727,29.27713605,-28.020801,9.39933032,-0.479676759,-0.9554312340000001,0.1133741112,-0.08616963902,-0.12612346522,-0.4099095215
03:38:57,-0.41777020000000004,-0.920067845,-0.31742379,0.181585735,-0.16361937,-0.407265485,-4.024046815,29.275990725,-28.0242945,9.46577154,-0.4867683855,-0.934766623,0.1134361664,-0.08601122619,-0.12677193008999998,-0.40857929175
03:38:57,-0.42275080000000004,-0.8982586800000001,-0.31807476,0.18122884,-0.16449828,-0.40643984,-4.04605636,29.2748454,-28.027787999999997,9.53221276,-0.49386001199999996,-0.9141020120000001,0.11349822159999999,-0.08585281336,-0.12742039496,-0.407249062
03:38:57,-0.42773140000000004,-0.876449515,-0.31872573,0.180871945,-0.16537719,-0.405614195,-4.068065905,29.273700075,-28.0312815,9.59865398,-0.5009516385,-0.893437401,0.1135602768,-0.08569440052999999,-0.12806885983,-0.40591883225000003
03:38:57,-0.43271200000000004,-0.85464035,-0.3193767,0.18051505,-0.1662561,-0.40478854999999997,-4.09007545,29.27255475,-28.034775,9.6650952,-0.508043265,-0.8727727900000001,0.11362233199999999,-0.0855359877,-0.1287173247,-0.4045886025
03:38:57,-0.43769260000000004,-0.8328311850000001,-0.32002767,0.180158155,-0.16713501,-0.403962905,-4.112084995,29.271409425,-28.038268499999997,9.731536420000001,-0.5151348915,-0.852108179,0.1136843872,-0.08537757487,-0.12936578957,-0.40325837275
03:38:57,-0.44267320000000004,-0.81102202,-0.32067864,0.17980126,-0.16801391999999998,-0.40313726,-4.1340945399999995,29.2702641,-28.041762,9.797977640000001,-0.522226518,-0.8314435680000001,0.1137464424,-0.08521916204,-0.13001425444,-0.401928143
03:38:57,-0.44765380000000005,-0.789212855,-0.32132961,0.179444365,-0.16889283,-0.402311615,-4.156104085,29.269118775,-28.0452555,9.86441886,-0.5293181445,-0.810778957,0.1138084976,-0.08506074921,-0.13066271931,-0.40059791325
03:38:57,-0.45263440000000005,-0.7674036900000001,-0.32198058,0.17908747,-0.16977174,-0.40148596999999997,-4.17811363,29.26797345,-28.048749,9.93086008,-0.536409771,-0.790114346,0.1138705528,-0.08490233638,-0.13131118417999998,-0.3992676835
03:38:57,-0.45761500000000005,-0.745594525,-0.32263155,0.178730575,-0.17065065,-0.400660325,-4.200123175,29.266828125,-28.0522425,9.9973013,-0.5435013975,-0.769449735,0.11393260799999999,-0.08474392355,-0.13195964905,-0.39793745375
03:38:57,-0.46259560000000005,-0.72378536,-0.32328252,0.17837368,-0.17152956,-0.39983468,-4.22213272,29.2656828,-28.055736,10.06374252,-0.550593024,-0.7487851240000001,0.1139946632,-0.08458551071999999,-0.13260811392,-0.39660722400000004
03:38:57,-0.46757620000000005,-0.7019761950000001,-0.32393349,0.178016785,-0.17240847,-0.399009035,-4.244142265,29.264537475,-28.0592295,10.13018374,-0.5576846504999999,-0.728120513,0.11405671839999999,-0.08442709789,-0.13325657879,-0.39527699425
03:38:57,-0.47255680000000005,-0.68016703,-0.32458446,0.17765989,-0.17328738,-0.39818338999999997,-4.26615181,29.26339215,-28.062723,10.196624960000001,-0.564776277,-0.707455902,0.1141187736,-0.08426868506,-0.13390504366,-0.3939467645
03:38:57,-0.47753740000000006,-0.658357865,-0.32523543,0.177302995,-0.17416629,-0.397357745,-4.288161355,29.262246825000002,-28.0662165,10.263066180000001,-0.5718679035,-0.686791291,0.1141808288,-0.08411027223,-0.13455350853,-0.39261653475
03:38:57,-0.48251800000000006,-0.6365487000000001,-0.3258864,0.1769461,-0.1750452,-0.3965321,-4.3101709,29.2611015,-28.06971,10.3295074,-0.57895953,-0.6661266800000001,0.114242884,-0.0839518594,-0.1352019734,-0.391286305
03:38:57,-0.48749860000000006,-0.614739535,-0.32653737,0.176589205,-0.17592411,-0.395706455,-4.332180445,29.259956175,-28.073203499999998,10.39594862,-0.5860511565,-0.645462069,0.1143049392,-0.08379344657,-0.13585043827,-0.38995607525000003
03:38:57,-0.49247920000000006,-0.59293037,-0.32718834,0.17623231,-0.17680302,-0.39488080999999997,-4.35418999,29.25881085,-28.076697,10.46238984,-0.593142783,-0.624797458,0.11436699439999999,-0.08363503374,-0.13649890314,-0.3886258455
03:38:57,-0.49745980000000006,-0.5711212050000001,-0.32783931,0.175875415,-0.17768193,-0.394055165,-4.376199535,29.257665525,-28.0801905,10.52883106,-0.6002344095,-0.604132847,0.1144290496,-0.08347662091,-0.13714736801,-0.38729561575
03:38:57,-0.5024404,-0.54931204,-0.32849028,0.17551852,-0.17856084,-0.39322952,-4.39820908,29.2565202,-28.083683999999998,10.59527228,-0.607326036,-0.583468236,0.1144911048,-0.08331820808,-0.13779583288,-0.385965386
03:38:57,-0.507421,-0.527502875,-0.32914125,0.175161625,-0.17943975,-0.392403875,-4.420218625,29.255374875,-28.0871775,10.661713500000001,-0.6144176625,-0.562803625,0.11455316,-0.08315979525,-0.13844429775,-0.38463515625
03:38:57,-0.5124016,-0.5056937100000001,-0.32979222,0.17480473,-0.18031866,-0.39157822999999997,-4.44222817,29.25422955,-28.090671,10.728154720000001,-0.621509289,-0.542139014,0.1146152152,-0.08300138241999999,-0.13909276262,-0.38330492650000003
03:38:57,-0.5173822,-0.4838845450000001,-0.33044319,0.174447835,-0.18119757,-0.390752585,-4.464237714999999,29.253084225,-28.094164499999998,10.79459594,-0.6286009155,-0.521474403,0.1146772704,-0.08284296959,-0.13974122749,-0.38197469675
03:38:57,-0.5223628,-0.46207538000000004,-0.33109416,0.17409094,-0.18207647999999999,-0.38992694,-4.48624726,29.2519389,-28.097658,10.86103716,-0.6356925419999999,-0.500809792,0.1147393256,-0.08268455676,-0.14038969235999998,-0.380644467
03:38:57,-0.5273434,-0.44026621500000007,-0.33174513,0.173734045,-0.18295539,-0.389101295,-4.508256805,29.250793575,-28.1011515,10.92747838,-0.6427841685,-0.48014518100000003,0.11480138079999999,-0.08252614393,-0.14103815723,-0.37931423725
03:38:57,-0.532324,-0.4184570500000001,-0.33239609999999997,0.17337715,-0.1838343,-0.38827564999999997,-4.53026635,29.24964825,-28.104644999999998,10.993919600000002,-0.649875795,-0.45948057,0.114863436,-0.0823677311,-0.1416866221,-0.3779840075
03:38:57,-0.5373046,-0.39664788500000003,-0.33304707,0.173020255,-0.18471321,-0.387450005,-4.552275895,29.248502925,-28.1081385,11.06036082,-0.6569674215,-0.43881595900000003,0.1149254912,-0.08220931827,-0.14233508697,-0.37665377775000003
03:38:57,-0.5422852,-0.37483872000000007,-0.33369804000000003,0.17266336,-0.18559212,-0.38662436,-4.57428544,29.2473576,-28.111632,11.126802040000001,-0.6640590479999999,-0.418151348,0.1149875464,-0.08205090544,-0.14298355184,-0.375323548
03:38:57,-0.5472658,-0.3530295550000001,-0.33434901,0.172306465,-0.18647103,-0.385798715,-4.596294985,29.246212275,-28.115125499999998,11.193243260000001,-0.6711506745,-0.3974867369999999,0.1150496016,-0.08189249260999999,-0.14363201671,-0.37399331825000004
03:38:57,-0.5522464,-0.33122039000000003,-0.33499998,0.17194957,-0.18734994,-0.38497307,-4.61830453,29.245066950000002,-28.118619,11.25968448,-0.678242301,-0.376822126,0.1151116568,-0.08173407978,-0.14428048158,-0.3726630885
03:38:57,-0.557227,-0.30941122500000007,-0.33565095,0.171592675,-0.18822885,-0.384147425,-4.640314075,29.243921625,-28.1221125,11.3261257,-0.6853339275,-0.3561575149999999,0.115173712,-0.08157566695,-0.14492894645,-0.37133285875
03:38:57,-0.5622076,-0.2876020600000001,-0.33630192,0.17123578,-0.18910776,-0.38332178,-4.66232362,29.2427763,-28.125605999999998,11.39256692,-0.6924255539999999,-0.335492904,0.11523576719999999,-0.08141725412,-0.14557741132000002,-0.370002629
03:38:57,-0.5671882,-0.26579289500000003,-0.33695289,0.170878885,-0.18998667,-0.382496135,-4.684333165,29.241630975,-28.1290995,11.459008140000002,-0.6995171805,-0.3148282929999999,0.1152978224,-0.08125884129,-0.14622587619,-0.36867239925
03:38:57,-0.5721688,-0.24398373000000007,-0.33760386,0.17052199,-0.19086558,-0.38167049,-4.7063427099999995,29.24048565,-28.132593,11.525449360000001,-0.7066088070000001,-0.294163682,0.1153598776,-0.08110042846,-0.14687434106,-0.36734216950000004
03:38:57,-0.5771494,-0.2221745650000001,-0.33825483,0.170165095,-0.19174449,-0.380844845,-4.728352255,29.239340325,-28.1360865,11.591890580000001,-0.7137004335,-0.2734990709999999,0.1154219328,-0.08094201563,-0.14752280593,-0.36601193975
03:38:57,-0.58213,-0.20036540000000014,-0.3389058,0.1698082,-0.1926234,-0.3800192,-4.7503618,29.238195,-28.13958,11.658331800000001,-0.72079206,-0.25283446,0.115483988,-0.08078360279999999,-0.1481712708,-0.36468171
03:38:57,-0.5871106,-0.17855623500000006,-0.33955677,0.169451305,-0.19350231,-0.379193555,-4.772371345,29.237049675,-28.1430735,11.72477302,-0.7278836865,-0.23216984899999993,0.1155460432,-0.08062518997,-0.14881973567,-0.36335148025
03:38:57,-0.5920912,-0.1567470700000001,-0.34020774,0.16909441,-0.19438122,-0.37836791,-4.79438089,29.235904350000002,-28.146567,11.79121424,-0.734975313,-0.21150523799999998,0.1156080984,-0.08046677714,-0.14946820054,-0.3620212505
03:38:57,-0.5970718,-0.13493790500000014,-0.34085871,0.168737515,-0.19526013,-0.377542265,-4.816390435,29.234759025,-28.1500605,11.85765546,-0.7420669394999999,-0.19084062699999993,0.11567015359999999,-0.08030836431,-0.15011666541000002,-0.36069102075000004
03:38:57,-0.6020524,-0.11312874000000006,-0.34150968,0.16838062,-0.19613904,-0.37671662,-4.83839998,29.2336137,-28.153554,11.924096680000002,-0.749158566,-0.17017601599999999,0.1157322088,-0.08014995148,-0.15076513028,-0.359360791
03:38:57,-0.607033,-0.0913195750000001,-0.34216065,0.168023725,-0.19701795,-0.375890975,-4.860409525,29.232468375,-28.1570475,11.990537900000001,-0.7562501925,-0.14951140499999993,0.115794264,-0.07999153865,-0.15141359515,-0.35803056125
03:38:57,-0.6120136,-0.06951041000000013,-0.34281162,0.16766683,-0.19789686,-0.37506533,-4.88241907,29.23132305,-28.160541,12.056979120000001,-0.763341819,-0.128846794,0.1158563192,-0.07983312582,-0.15206206002,-0.3567003315
03:38:57,-0.6169942,-0.04770124500000006,-0.34346259,0.167309935,-0.19877577000000002,-0.374239685,-4.904428615,29.230177725,-28.1640345,12.123420340000001,-0.7704334454999999,-0.10818218299999993,0.1159183744,-0.07967471299,-0.15271052489,-0.35537010175
03:38:57,-0.6219748,-0.025892079999999984,-0.34411356,0.16695304,-0.19965468,-0.37341404,-4.92643816,29.2290324,-28.167528,12.18986156,-0.777525072,-0.08751757199999988,0.1159804296,-0.07951630016,-0.15335898976,-0.35403987200000003
03:38:57,-0.6269554,-0.004082915000000131,-0.34476453,0.166596145,-0.20053358999999998,-0.372588395,-4.9484477049999995,29.227887075,-28.1710215,12.25630278,-0.7846166985,-0.06685296099999993,0.1160424848,-0.07935788733,-0.15400745462999998,-0.35270964225
03:38:57,-0.631936,0.017726249999999943,-0.3454155,0.16623925,-0.2014125,-0.37176275,-4.97045725,29.226741750000002,-28.174515,12.322744,-0.791708325,-0.04618834999999999,0.11610454,-0.0791994745,-0.15465591950000002,-0.35137941250000004
03:38:57,-0.6369166,0.039535414999999796,-0.34606647,0.165882355,-0.20229141,-0.370937105,-4.992466795,29.225596425,-28.1780085,12.389185220000002,-0.7987999514999999,-0.025523738999999823,0.1161665952,-0.07904106167,-0.15530438437,-0.35004918275
03:38:57,-0.6418972000000001,0.06134457999999987,-0.34671744,0.16552546,-0.20317032000000002,-0.37011146,-5.01447634,29.2244511,-28.181502,12.455626440000001,-0.805891578,-0.004859127999999879,0.1162286504,-0.07888264884,-0.15595284924,-0.348718953
03:38:57,-0.6468778000000001,0.08315374499999995,-0.34736841,0.165168565,-0.20404923,-0.369285815,-5.036485884999999,29.223305775,-28.1849955,12.522067660000001,-0.8129832045000001,0.015805483000000065,0.1162907056,-0.07872423601,-0.15660131411,-0.34738872325000003
03:38:57,-0.6518584000000001,0.1049629099999998,-0.34801938,0.16481167,-0.20492814,-0.36846017,-5.05849543,29.22216045,-28.188489,12.588508880000001,-0.820074831,0.03647009400000001,0.1163527608,-0.07856582318,-0.15724977898,-0.3460584935
03:38:57,-0.6568390000000001,0.12677207499999987,-0.34867035,0.164454775,-0.20580705,-0.367634525,-5.080504975,29.221015125,-28.191982499999998,12.6549501,-0.8271664575,0.057134705000000174,0.116414816,-0.07840741035,-0.15789824385,-0.34472826375
03:38:57,-0.6618196000000001,0.14858123999999995,-0.34932132,0.16409788,-0.20668596,-0.36680888,-5.10251452,29.2198698,-28.195476,12.72139132,-0.834258084,0.07779931600000012,0.1164768712,-0.07824899752,-0.15854670871999998,-0.343398034
03:38:57,-0.6668002000000001,0.1703904049999998,-0.34997229,0.163740985,-0.20756487,-0.365983235,-5.124524065,29.218724475000002,-28.1989695,12.78783254,-0.8413497105,0.09846392700000006,0.11653892639999999,-0.07809058468999999,-0.15919517359000002,-0.34206780425000005
03:38:57,-0.6717808000000001,0.19219956999999988,-0.35062326,0.16338409,-0.20844378,-0.36515759,-5.14653361,29.21757915,-28.202462999999998,12.854273760000002,-0.8484413369999999,0.119128538,0.1166009816,-0.07793217186,-0.15984363846,-0.34073757450000003
03:38:57,-0.6767614000000001,0.21400873499999995,-0.35127423,0.163027195,-0.20932269,-0.364331945,-5.168543155,29.216433825,-28.2059565,12.920714980000001,-0.8555329635,0.13979314900000017,0.1166630368,-0.07777375903,-0.16049210333,-0.33940734475
03:38:57,-0.6817420000000001,0.2358178999999998,-0.3519252,0.1626703,-0.2102016,-0.3635063,-5.1905527,29.2152885,-28.20945,12.987156200000001,-0.86262459,0.16045776000000012,0.116725092,-0.0776153462,-0.1611405682,-0.33807711500000004
03:38:57,-0.6867226000000001,0.2576270649999999,-0.35257616999999997,0.162313405,-0.21108051,-0.362680655,-5.212562245,29.214143175,-28.212943499999998,13.053597420000001,-0.8697162165,0.18112237100000006,0.1167871472,-0.07745693337,-0.16178903307,-0.33674688525
03:38:57,-0.6917032000000001,0.27943622999999995,-0.35322714,0.16195651,-0.21195942,-0.36185501,-5.23457179,29.21299785,-28.216437,13.12003864,-0.8768078429999999,0.201786982,0.1168492024,-0.07729852054,-0.16243749794,-0.3354166555
03:38:57,-0.6966838000000001,0.3012453949999998,-0.35387811,0.161599615,-0.21283833000000002,-0.361029365,-5.256581335,29.211852525,-28.2199305,13.186479860000002,-0.8838994695,0.22245159300000017,0.1169112576,-0.07714010771,-0.16308596281,-0.33408642575
03:38:57,-0.7016644000000001,0.3230545599999999,-0.35452908,0.16124272,-0.21371724,-0.36020372,-5.278590879999999,29.2107072,-28.223424,13.25292108,-0.890991096,0.2431162040000001,0.1169733128,-0.07698169488,-0.16373442768000002,-0.332756196
03:38:57,-0.7066450000000001,0.34486372499999995,-0.35518004999999997,0.160885825,-0.21459614999999999,-0.359378075,-5.300600425,29.209561875000002,-28.2269175,13.319362300000002,-0.8980827225,0.26378081500000006,0.117035368,-0.07682328205,-0.16438289255,-0.33142596625000004
03:38:57,-0.7116256000000001,0.3666728899999998,-0.35583102,0.16052893000000001,-0.21547506,-0.35855243,-5.32260997,29.20841655,-28.230411,13.385803520000001,-0.9051743489999999,0.2844454260000002,0.1170974232,-0.07666486922,-0.16503135742,-0.3300957365
03:38:57,-0.7166062000000001,0.3884820549999999,-0.35648199,0.160172035,-0.21635397,-0.357726785,-5.344619515,29.207271225,-28.2339045,13.452244740000001,-0.9122659755,0.30511003700000017,0.1171594784,-0.07650645639,-0.16567982229,-0.32876550675000005
03:38:57,-0.7215868000000001,0.41029121999999996,-0.35713296,0.15981514,-0.21723288000000002,-0.35690114,-5.36662906,29.2061259,-28.237398,13.518685960000001,-0.919357602,0.3257746480000001,0.1172215336,-0.07634804356,-0.16632828716,-0.327435277
03:38:57,-0.7265674000000001,0.4321003849999998,-0.35778393,0.159458245,-0.21811179,-0.356075495,-5.388638605,29.204980575,-28.2408915,13.58512718,-0.9264492285,0.34643925900000005,0.1172835888,-0.07618963073,-0.16697675203,-0.32610504725
03:38:57,-0.7315480000000001,0.4539095499999999,-0.3584349,0.15910135,-0.2189907,-0.35524985,-5.41064815,29.20383525,-28.244385,13.651568400000002,-0.933540855,0.3671038700000002,0.117345644,-0.0760312179,-0.1676252169,-0.32477481750000003
03:38:57,-0.7365286000000001,0.47571871499999996,-0.35908587,0.158744455,-0.21986961,-0.354424205,-5.432657695,29.202689925,-28.2478785,13.71800962,-0.9406324815,0.38776848100000016,0.11740769919999999,-0.07587280507,-0.16827368177000002,-0.32344458775
03:38:57,-0.7415092000000001,0.4975278799999998,-0.35973684,0.15838756,-0.22074852,-0.35359856,-5.45466724,29.201544600000002,-28.251372,13.784450840000002,-0.9477241080000001,0.4084330920000001,0.1174697544,-0.07571439224,-0.16892214664,-0.322114358
03:38:57,-0.7464898000000001,0.5193370449999999,-0.36038781,0.15803066500000001,-0.22162743000000001,-0.352772915,-5.4766767849999995,29.200399275000002,-28.2548655,13.850892060000001,-0.9548157344999999,0.42909770300000005,0.1175318096,-0.07555597941,-0.16957061151,-0.32078412825
03:38:57,-0.7514704000000001,0.54114621,-0.36103878,0.15767377,-0.22250634,-0.35194727,-5.49868633,29.19925395,-28.258359,13.917333280000001,-0.961907361,0.4497623140000002,0.1175938648,-0.07539756658,-0.17021907638,-0.3194538985
03:38:57,-0.7564510000000001,0.5629553749999998,-0.36168975,0.157316875,-0.22338525,-0.351121625,-5.5206958749999995,29.198108625,-28.2618525,13.9837745,-0.9689989875,0.47042692500000016,0.11765592,-0.07523915375,-0.17086754125,-0.31812366875000003
03:38:57,-0.7614316000000001,0.5847645399999999,-0.36234072,0.15695998,-0.22426416,-0.35029598,-5.54270542,29.1969633,-28.265346,14.05021572,-0.9760906140000001,0.4910915360000001,0.1177179752,-0.07508074092,-0.17151600612,-0.316793439
03:38:57,-0.7664122000000001,0.606573705,-0.36299169,0.156603085,-0.22514307,-0.349470335,-5.564714965,29.195817975,-28.2688395,14.116656940000002,-0.9831822404999999,0.511756147,0.1177800304,-0.07492232809,-0.17216447099,-0.31546320925000004
03:38:57,-0.7713928000000001,0.6283828699999998,-0.36364266,0.15624619,-0.22602198,-0.34864469,-5.58672451,29.19467265,-28.272333,14.18309816,-0.990273867,0.5324207580000002,0.11784208560000001,-0.07476391526000001,-0.17281293586000002,-0.3141329795
03:38:57,-0.7763734000000001,0.6501920349999999,-0.36429363,0.155889295,-0.22690089000000002,-0.347819045,-5.608734054999999,29.193527325,-28.2758265,14.249539380000002,-0.9973654935,0.5530853690000002,0.1179041408,-0.07460550243,-0.17346140073,-0.31280274975
03:38:57,-0.7813540000000001,0.6720011999999997,-0.3649446,0.15553240000000002,-0.2277798,-0.3469934,-5.6307436,29.192382000000002,-28.27932,14.315980600000001,-1.00445712,0.5737499800000001,0.117966196,-0.0744470896,-0.1741098656,-0.31147252000000003
03:38:57,-0.7863346000000001,0.6938103649999998,-0.36559557,0.155175505,-0.22865871,-0.34616775499999997,-5.652753145,29.191236675,-28.2828135,14.382421820000001,-1.0115487465,0.5944145910000003,0.1180282512,-0.07428867677,-0.17475833047,-0.31014229025
03:38:57,-0.7913152000000001,0.7156195299999999,-0.36624654,0.15481861,-0.22953762,-0.34534211,-5.67476269,29.19009135,-28.286307,14.44886304,-1.018640373,0.6150792020000002,0.1180903064,-0.07413026394,-0.17540679534,-0.30881206050000004
03:38:57,-0.7962958000000001,0.7374286949999997,-0.36689751,0.154461715,-0.23041653,-0.344516465,-5.696772235,29.188946025,-28.2898005,14.51530426,-1.0257319995,0.6357438130000002,0.1181523616,-0.07397185111,-0.17605526021,-0.30748183075
03:38:57,-0.8012764000000001,0.7592378599999998,-0.36754848,0.15410482,-0.23129544000000002,-0.34369082,-5.71878178,29.1878007,-28.293294,14.581745480000002,-1.0328236259999999,0.6564084240000001,0.1182144168,-0.07381343828,-0.17670372508,-0.30615160100000005
03:38:57,-0.8062570000000001,0.7810470249999999,-0.36819945,0.153747925,-0.23217435,-0.342865175,-5.740791325,29.186655375,-28.2967875,14.6481867,-1.0399152525,0.6770730350000003,0.118276472,-0.07365502545,-0.17735218995000002,-0.30482137125000003
03:38:57,-0.8112376000000001,0.8028561899999997,-0.36885042,0.15339103,-0.23305326,-0.34203953,-5.7628008699999995,29.18551005,-28.300281,14.714627920000002,-1.047006879,0.6977376460000002,0.1183385272,-0.07349661262,-0.17800065482,-0.3034911415
03:38:57,-0.8162182000000001,0.8246653549999998,-0.36950139,0.153034135,-0.23393217,-0.341213885,-5.784810415,29.184364725000002,-28.3037745,14.781069140000001,-1.0540985055,0.7184022570000002,0.1184005824,-0.07333819979,-0.17864911969,-0.30216091175000004
03:38:57,-0.8211988000000001,0.8464745199999999,-0.37015236,0.15267724,-0.23481108,-0.34038824,-5.80681996,29.183219400000002,-28.307268,14.847510360000001,-1.061190132,0.7390668680000001,0.1184626376,-0.07317978695999999,-0.17929758456,-0.300830682
03:38:57,-0.8261794000000001,0.8682836849999997,-0.37080333,0.152320345,-0.23568999000000002,-0.33956259499999997,-5.828829505,29.182074075,-28.3107615,14.91395158,-1.0682817585,0.7597314790000003,0.1185246928,-0.07302137413,-0.17994604943,-0.29950045225
03:38:57,-0.8311600000000001,0.8900928499999998,-0.3714543,0.15196345,-0.2365689,-0.33873695,-5.850839049999999,29.18092875,-28.314255,14.9803928,-1.075373385,0.7803960900000002,0.118586748,-0.0728629613,-0.1805945143,-0.2981702225
03:38:57,-0.8361406000000001,0.9119020149999999,-0.37210527,0.151606555,-0.23744781,-0.337911305,-5.872848595,29.179783425,-28.3177485,15.046834020000002,-1.0824650115,0.8010607010000002,0.1186488032,-0.07270454847,-0.18124297917,-0.29683999275
03:38:57,-0.8411212000000001,0.9337111799999998,-0.37275623999999996,0.15124966,-0.23832672,-0.33708566,-5.89485814,29.1786381,-28.321242,15.11327524,-1.089556638,0.8217253120000001,0.11871085840000001,-0.07254613564,-0.18189144404000002,-0.29550976300000004
03:38:57,-0.8461018000000001,0.9555203449999998,-0.37340721,0.15089276499999998,-0.23920563,-0.336260015,-5.916867685,29.177492775,-28.3247355,15.179716460000002,-1.0966482645,0.8423899230000003,0.1187729136,-0.07238772281,-0.18253990891,-0.29417953325
03:38:57,-0.8510824000000001,0.9773295099999999,-0.37405818,0.15053587000000002,-0.24008454,-0.33543437,-5.938877229999999,29.17634745,-28.328229,15.246157680000001,-1.103739891,0.8630545340000002,0.1188349688,-0.07222930998,-0.18318837378,-0.29284930350000005
03:38:57,-0.8560630000000001,0.999138675,-0.37470915,0.150178975,-0.24096345000000002,-0.334608725,-5.960886775,29.175202125000002,-28.3317225,15.312598900000001,-1.1108315175,0.8837191450000002,0.118897024,-0.07207089715000001,-0.18383683865,-0.29151907375
03:38:57,-0.8610436000000001,1.02094784,-0.37536011999999996,0.14982208,-0.24184236,-0.33378308,-5.98289632,29.174056800000002,-28.335216,15.37904012,-1.117923144,0.9043837560000003,0.1189590792,-0.07191248432,-0.18448530352,-0.290188844
03:38:57,-0.8660242,1.0427570049999997,-0.37601109,0.149465185,-0.24272127,-0.33295743499999997,-6.004905865,29.172911475,-28.3387095,15.44548134,-1.1250147705,0.9250483670000003,0.1190211344,-0.07175407149,-0.18513376839,-0.28885861425000003
03:38:57,-0.8710048000000001,1.0645661699999998,-0.37666206,0.14910829,-0.24360018,-0.33213179,-6.02691541,29.17176615,-28.342203,15.511922560000002,-1.132106397,0.9457129780000002,0.1190831896,-0.07159565866,-0.18578223325999998,-0.2875283845
03:38:57,-0.8759854,1.0863753349999998,-0.37731303,0.148751395,-0.24447909,-0.331306145,-6.048924955,29.170620825,-28.3456965,15.57836378,-1.1391980234999999,0.9663775890000001,0.11914524480000001,-0.07143724583,-0.18643069813000002,-0.28619815475
03:38:57,-0.8809660000000001,1.1081845,-0.37796399999999997,0.14839449999999998,-0.24535800000000002,-0.3304805,-6.0709345,29.1694755,-28.34919,15.644805000000002,-1.14628965,0.9870422000000001,0.1192073,-0.071278833,-0.187079163,-0.284867925
03:38:57,-0.8859466,1.129993665,-0.37861497,0.14803760500000002,-0.24623691,-0.329654855,-6.092944044999999,29.168330175,-28.3526835,15.711246220000001,-1.1533812765,1.007706811,0.1192693552,-0.07112042017,-0.18772762787000002,-0.28353769525000005
03:38:57,-0.8909272000000001,1.1518028299999996,-0.37926594,0.14768071,-0.24711582,-0.32882921,-6.11495359,29.16718485,-28.356177,15.777687440000001,-1.160472903,1.0283714220000004,0.1193314104,-0.07096200734,-0.18837609274,-0.28220746550000003
03:38:57,-0.8959078,1.1736119949999997,-0.37991691,0.147323815,-0.24799473,-0.328003565,-6.136963135,29.166039525000002,-28.3596705,15.844128660000003,-1.1675645295,1.0490360330000004,0.1193934656,-0.07080359451,-0.18902455761,-0.28087723575
03:38:57,-0.9008884000000001,1.1954211599999998,-0.38056787999999997,0.14696692,-0.24887364,-0.32717792,-6.15897268,29.1648942,-28.363164,15.91056988,-1.174656156,1.0697006440000003,0.1194555208,-0.07064518168,-0.18967302248,-0.27954700600000004
03:38:57,-0.905869,1.2172303249999998,-0.38121885,0.146610025,-0.24975255000000002,-0.32635227499999997,-6.180982224999999,29.163748875,-28.3666575,15.977011100000002,-1.1817477825,1.0903652550000003,0.119517576,-0.07048676885,-0.19032148734999998,-0.27821677625
03:38:57,-0.9108496000000001,1.23903949,-0.38186981999999997,0.14625313,-0.25063146000000003,-0.32552663,-6.20299177,29.16260355,-28.370151,16.04345232,-1.188839409,1.1110298660000002,0.11957963120000001,-0.07032835602,-0.19096995222000002,-0.2768865465
03:38:57,-0.9158302,1.260848655,-0.38252079,0.14589623499999999,-0.25151037,-0.324700985,-6.225001315,29.161458225,-28.3736445,16.10989354,-1.1959310355,1.1316944770000001,0.1196416864,-0.07016994319,-0.19161841709,-0.27555631675000003
03:38:57,-0.9208108000000002,1.2826578199999996,-0.38317176,0.14553934000000002,-0.25238928,-0.32387534,-6.24701086,29.1603129,-28.377138,16.176334760000003,-1.203022662,1.152359088,0.1197037416,-0.07001153036,-0.19226688196000002,-0.27422608700000006
03:38:57,-0.9257914,1.3044669849999997,-0.38382273,0.145182445,-0.25326819,-0.323049695,-6.269020405,29.159167575,-28.3806315,16.24277598,-1.2101142885,1.173023699,0.1197657968,-0.06985311753000001,-0.19291534683,-0.27289585725
03:38:57,-0.9307720000000002,1.3262761499999998,-0.3844737,0.14482555,-0.2541471,-0.32222405,-6.29102995,29.158022250000002,-28.384125,16.309217200000003,-1.217205915,1.1936883100000004,0.119827852,-0.0696947047,-0.1935638117,-0.2715656275
03:38:57,-0.9357526,1.3480853149999998,-0.38512467,0.144468655,-0.25502601,-0.321398405,-6.313039495,29.156876925000002,-28.3876185,16.37565842,-1.2242975415,1.2143529210000004,0.1198899072,-0.06953629187,-0.19421227657,-0.27023539775000005
03:38:57,-0.9407332000000002,1.36989448,-0.38577564,0.14411176,-0.25590492,-0.32057276,-6.3350490399999995,29.1557316,-28.391112,16.442099640000002,-1.231389168,1.2350175320000003,0.1199519624,-0.06937787904,-0.19486074143999998,-0.268905168
03:38:57,-0.9457138,1.391703645,-0.38642661,0.143754865,-0.25678383,-0.31974711499999997,-6.357058585,29.154586275,-28.3946055,16.508540860000004,-1.2384807945,1.2556821430000003,0.12001401760000001,-0.06921946621,-0.19550920631000002,-0.26757493825
03:38:57,-0.9506944000000002,1.4135128099999996,-0.38707758,0.14339796999999999,-0.25766274,-0.31892147,-6.37906813,29.15344095,-28.398099000000002,16.57498208,-1.2455724209999999,1.2763467540000002,0.1200760728,-0.06906105338,-0.19615767118,-0.26624470850000004
03:38:57,-0.955675,1.4353219749999997,-0.38772855,0.14304107500000002,-0.25854165,-0.318095825,-6.401077675,29.152295625,-28.4015925,16.6414233,-1.2526640475,1.2970113650000001,0.120138128,-0.06890264055,-0.19680613605000002,-0.26491447875
03:38:57,-0.9606556000000002,1.4571311399999998,-0.38837952,0.14268418,-0.25942056,-0.31727018,-6.423087219999999,29.1511503,-28.405086,16.70786452,-1.259755674,1.317675976,0.1202001832,-0.06874422772,-0.19745460092,-0.263584249
03:38:57,-0.9656362000000001,1.4789403049999998,-0.38903049,0.142327285,-0.26029947,-0.316444535,-6.445096765,29.150004975,-28.408579500000002,16.774305740000003,-1.2668473005,1.3383405870000005,0.1202622384,-0.06858581489,-0.19810306579,-0.26225401925
03:38:57,-0.9706168000000002,1.50074947,-0.38968146,0.14197039,-0.26117838000000004,-0.31561889,-6.46710631,29.148859650000002,-28.412073,16.84074696,-1.2739389269999999,1.3590051980000004,0.1203242936,-0.06842740206,-0.19875153066,-0.26092378950000006
03:38:57,-0.9755974000000001,1.522558635,-0.39033243,0.141613495,-0.26205729,-0.314793245,-6.489115855,29.147714325000003,-28.4155665,16.907188180000002,-1.2810305535,1.3796698090000004,0.1203863488,-0.06826898923,-0.19939999553,-0.25959355975000004
03:38:57,-0.9805780000000002,1.5443677999999996,-0.3909834,0.1412566,-0.2629362,-0.3139676,-6.511125399999999,29.146569,-28.41906,16.9736294,-1.28812218,1.4003344200000003,0.12044840400000001,-0.0681105764,-0.20004846040000002,-0.25826333
03:38:57,-0.9855586000000001,1.5661769649999997,-0.39163437,0.140899705,-0.26381511,-0.31314195499999997,-6.533134945,29.145423675,-28.4225535,17.04007062,-1.2952138065,1.4209990310000002,0.1205104592,-0.06795216357,-0.20069692527,-0.25693310025000005
03:38:57,-0.9905392000000002,1.5879861299999998,-0.39228534,0.14054281,-0.26469402,-0.31231631,-6.55514449,29.14427835,-28.426047,17.106511840000003,-1.302305433,1.4416636420000002,0.1205725144,-0.06779375074,-0.20134539014000002,-0.2556028705
03:38:57,-0.9955198000000001,1.6097952949999998,-0.39293630999999996,0.140185915,-0.26557293000000004,-0.311490665,-6.5771540349999995,29.143133025,-28.4295405,17.17295306,-1.3093970595,1.4623282530000001,0.1206345696,-0.06763533791000001,-0.20199385501,-0.25427264075
03:38:57,-1.0005004000000002,1.63160446,-0.39358728,0.13982902,-0.26645184,-0.31066502,-6.59916358,29.1419877,-28.433034,17.23939428,-1.316488686,1.482992864,0.1206966248,-0.06747692508,-0.20264231988,-0.25294241100000003
03:38:57,-1.005481,1.653413625,-0.39423825,0.139472125,-0.26733075,-0.30983937500000003,-6.621173125,29.140842375000002,-28.4365275,17.3058355,-1.3235803125,1.5036574750000005,0.12075868000000001,-0.06731851225,-0.20329078475,-0.25161218125000007
03:38:57,-1.0104616000000002,1.6752227899999996,-0.39488922,0.13911523,-0.26820966,-0.30901373,-6.64318267,29.139697050000002,-28.440021,17.372276720000002,-1.330671939,1.5243220860000004,0.1208207352,-0.06716009942000001,-0.20393924962,-0.2502819515
03:38:57,-1.0154422,1.6970319549999997,-0.39554018999999996,0.138758335,-0.26908857,-0.308188085,-6.665192214999999,29.138551725,-28.4435145,17.438717940000004,-1.3377635655,1.5449866970000004,0.12088279040000001,-0.06700168659,-0.20458771449000002,-0.24895172175000002
03:38:57,-1.0204228000000002,1.7188411199999998,-0.39619116,0.13840144,-0.26996748000000004,-0.30736244,-6.68720176,29.1374064,-28.447008,17.50515916,-1.344855192,1.5656513080000003,0.1209448456,-0.06684327376,-0.20523617936,-0.24762149200000003
03:38:57,-1.0254034,1.7406502849999999,-0.39684213,0.138044545,-0.27084639,-0.306536795,-6.709211305,29.136261075,-28.4505015,17.57160038,-1.3519468184999999,1.5863159190000002,0.1210069008,-0.06668486093,-0.20588464423000002,-0.24629126225000003
03:38:57,-1.0303840000000002,1.76245945,-0.3974931,0.13768765,-0.2717253,-0.30571115,-6.73122085,29.13511575,-28.453995,17.6380416,-1.359038445,1.6069805300000002,0.121068956,-0.0665264481,-0.2065331091,-0.24496103250000004
03:38:57,-1.0353646,1.7842686149999996,-0.39814406999999996,0.137330755,-0.27260421,-0.304885505,-6.753230394999999,29.133970425,-28.4574885,17.704482820000003,-1.3661300715,1.6276451410000001,0.1211310112,-0.06636803527,-0.20718157397,-0.24363080275000001
03:38:57,-1.0403452000000002,1.8060777799999996,-0.39879504,0.13697386,-0.27348312,-0.30405986,-6.77523994,29.1328251,-28.460982,17.770924040000004,-1.373221698,1.6483097520000005,0.12119306640000001,-0.06620962244,-0.20783003884,-0.24230057300000002
03:38:57,-1.0453258,1.8278869449999997,-0.39944601,0.136616965,-0.27436203000000003,-0.30323421500000003,-6.797249485,29.131679775000002,-28.4644755,17.837365260000002,-1.3803133244999999,1.6689743630000005,0.1212551216,-0.06605120961,-0.20847850371,-0.24097034325000002
03:38:57,-1.0503064000000002,1.8496961099999998,-0.40009698,0.13626007,-0.27524094,-0.30240857,-6.8192590299999996,29.130534450000003,-28.467969,17.90380648,-1.387404951,1.6896389740000004,0.12131717680000001,-0.06589279678,-0.20912696858000002,-0.23964011350000003
03:38:57,-1.055287,1.8715052749999999,-0.40074794999999996,0.135903175,-0.27611985,-0.301582925,-6.841268575,29.129389125,-28.4714625,17.9702477,-1.3944965775,1.7103035850000003,0.121379232,-0.06573438395,-0.20977543345,-0.23830988375000003
03:38:57,-1.0602676000000002,1.89331444,-0.40139892,0.13554628,-0.27699876,-0.30075728,-6.86327812,29.1282438,-28.474956,18.036688920000003,-1.401588204,1.7309681960000003,0.1214412872,-0.06557597112,-0.21042389832000002,-0.23697965400000004
03:38:57,-1.0652482,1.9151236049999996,-0.40204988999999997,0.135189385,-0.27787767,-0.299931635,-6.885287665,29.127098475,-28.4784495,18.10313014,-1.4086798305,1.7516328070000002,0.1215033424,-0.06541755829000001,-0.21107236319,-0.23564942425000002
03:38:57,-1.0702288000000002,1.9369327699999996,-0.40270086,0.13483249,-0.27875658000000003,-0.29910599,-6.907297209999999,29.12595315,-28.481943,18.16957136,-1.415771457,1.7722974180000002,0.1215653976,-0.06525914546,-0.21172082806,-0.23431919450000002
03:38:57,-1.0752094,1.9587419349999997,-0.40335182999999997,0.134475595,-0.27963549,-0.298280345,-6.929306755,29.124807825,-28.485436500000002,18.23601258,-1.4228630835,1.7929620290000001,0.12162745280000001,-0.06510073263,-0.21236929293,-0.23298896475000003
03:38:57,-1.0801900000000002,1.9805510999999998,-0.4040028,0.1341187,-0.2805144,-0.2974547,-6.9513163,29.123662500000002,-28.48893,18.302453800000002,-1.42995471,1.8136266400000005,0.121689508,-0.06494231980000001,-0.2130177578,-0.23165873500000003
03:38:57,-1.0851706,2.002360265,-0.40465376999999997,0.133761805,-0.28139331,-0.29662905500000003,-6.973325845,29.122517175000002,-28.4924235,18.368895020000004,-1.4370463365,1.8342912510000005,0.12175156320000001,-0.06478390697,-0.21366622267000002,-0.23032850525000004
03:38:57,-1.0901512000000002,2.0241694299999997,-0.40530474,0.13340491,-0.28227222,-0.29580341,-6.995335389999999,29.121371850000003,-28.495917000000002,18.43533624,-1.444137963,1.8549558620000004,0.1218136184,-0.06462549414,-0.21431468754,-0.22899827550000001
03:38:57,-1.0951318,2.0459785949999993,-0.40595570999999997,0.133048015,-0.28315113000000003,-0.294977765,-7.017344935,29.120226525,-28.4994105,18.50177746,-1.4512295895,1.8756204730000003,0.12187567360000001,-0.06446708131000001,-0.21496315241000002,-0.22766804575000002
03:38:57,-1.1001124000000002,2.06778776,-0.40660668,0.13269112,-0.28403004,-0.29415212,-7.03935448,29.1190812,-28.502904,18.56821868,-1.458321216,1.8962850840000003,0.1219377288,-0.06430866848,-0.21561161728,-0.22633781600000002
03:38:57,-1.105093,2.0895969249999995,-0.40725764999999997,0.132334225,-0.28490895000000005,-0.293326475,-7.061364025,29.117935875,-28.506397500000002,18.634659900000003,-1.4654128425,1.9169496950000002,0.121999784,-0.06415025565,-0.21626008215,-0.22500758625000003
03:38:57,-1.1100736000000002,2.11140609,-0.40790862,0.13197733,-0.28578786,-0.29250083,-7.083373569999999,29.11679055,-28.509891,18.701101120000004,-1.472504469,1.9376143060000002,0.12206183920000001,-0.06399184282,-0.21690854702,-0.22367735650000004
03:38:57,-1.1150542,2.1332152549999996,-0.40855959,0.131620435,-0.28666677,-0.291675185,-7.1053831149999995,29.115645225,-28.5133845,18.767542340000002,-1.4795960955,1.9582789170000006,0.1221238944,-0.06383342999,-0.21755701189,-0.22234712675000004
03:38:57,-1.1200348000000002,2.15502442,-0.40921056,0.13126354,-0.28754568,-0.29084954,-7.12739266,29.114499900000002,-28.516878000000002,18.83398356,-1.486687722,1.9789435280000005,0.12218594960000001,-0.06367501716,-0.21820547676000002,-0.22101689700000002
03:38:57,-1.1250154,2.176833585,-0.40986153,0.130906645,-0.28842459,-0.29002389500000003,-7.1494022049999995,29.113354575000002,-28.5203715,18.90042478,-1.4937793485,1.9996081390000005,0.1222480048,-0.06351660433,-0.21885394163,-0.21968666725000002
03:38:57,-1.1299960000000002,2.1986427499999994,-0.4105125,0.13054975,-0.28930350000000005,-0.28919825,-7.17141175,29.11220925,-28.523865,18.966866000000003,-1.500870975,2.02027275,0.12231006,-0.06335819150000001,-0.21950240650000002,-0.21835643750000003
03:38:57,-1.1349766000000001,2.220451915,-0.41116347,0.130192855,-0.29018241,-0.288372605,-7.193421295,29.111063925,-28.527358500000002,19.03330722,-1.5079626015,2.040937361,0.1223721152,-0.06319977867,-0.22015087137,-0.21702620775000003
03:38:57,-1.1399572000000002,2.2422610799999996,-0.41181444,0.12983596,-0.29106132,-0.28754696,-7.21543084,29.1099186,-28.530852,19.099748440000003,-1.5150542280000001,2.061601972,0.1224341704,-0.06304136584,-0.22079933624,-0.21569597800000004
03:38:57,-1.1449378000000001,2.264070245,-0.41246541,0.129479065,-0.29194023,-0.286721315,-7.237440384999999,29.108773275,-28.5343455,19.16618966,-1.5221458545,2.082266583,0.12249622560000001,-0.06288295301,-0.22144780111,-0.21436574825000004
03:38:57,-1.1499184000000002,2.2858794099999997,-0.41311637999999995,0.12912217,-0.29281914,-0.28589567,-7.25944993,29.10762795,-28.537839,19.232630880000002,-1.529237481,2.102931194,0.1225582808,-0.06272454018000001,-0.22209626598,-0.21303551850000002
03:38:57,-1.1548990000000001,2.3076885749999994,-0.41376735,0.128765275,-0.29369805000000004,-0.285070025,-7.281459475,29.106482625,-28.5413325,19.299072100000004,-1.5363291075,2.123595805000001,0.12262033600000001,-0.06256612735,-0.22274473085000002,-0.21170528875000003
03:38:57,-1.1598796000000002,2.32949774,-0.41441832,0.12840838,-0.29457696,-0.28424437999999996,-7.30346902,29.105337300000002,-28.544826,19.36551332,-1.5434207340000001,2.1442604160000007,0.1226823912,-0.062407714520000004,-0.22339319572,-0.21037505900000003
03:38:57,-1.1648602000000001,2.3513069049999995,-0.41506929,0.128051485,-0.29545587,-0.28341873500000003,-7.325478564999999,29.104191975000003,-28.5483195,19.43195454,-1.5505123605,2.1649250270000007,0.12274444640000001,-0.06224930169,-0.22404166059000002,-0.20904482925000004
03:38:57,-1.1698408000000002,2.37311607,-0.41572025999999995,0.12769459,-0.29633478,-0.28259309,-7.34748811,29.10304665,-28.551813,19.49839576,-1.557603987,2.1855896380000006,0.1228065016,-0.06209088886,-0.22469012546,-0.20771459950000004
03:38:57,-1.1748214000000001,2.3949252349999997,-0.41637123,0.127337695,-0.29721369,-0.281767445,-7.369497655,29.101901325,-28.5553065,19.564836980000003,-1.5646956135,2.2062542490000006,0.1228685568,-0.06193247603,-0.22533859033,-0.20638436975000002
03:38:57,-1.1798020000000002,2.4167343999999993,-0.4170222,0.1269808,-0.29809260000000004,-0.2809418,-7.3915071999999995,29.100756,-28.5588,19.631278200000004,-1.5717872400000001,2.2269188600000005,0.12293061200000001,-0.06177406320000001,-0.2259870552,-0.20505414000000002
03:38:57,-1.1847826000000001,2.438543565,-0.41767317,0.126623905,-0.29897151,-0.280116155,-7.413516745,29.099610675,-28.562293500000003,19.697719420000002,-1.5788788665,2.2475834710000004,0.1229926672,-0.061615650370000004,-0.22663552007,-0.20372391025000003
03:38:57,-1.1897632000000002,2.4603527299999994,-0.41832413999999996,0.12626701,-0.29985042,-0.27929051,-7.43552629,29.09846535,-28.565787,19.76416064,-1.585970493,2.2682480820000004,0.12305472240000001,-0.06145723754,-0.22728398494000002,-0.20239368050000003
03:38:57,-1.1947438000000001,2.482161895,-0.41897511,0.125910115,-0.30072933,-0.278464865,-7.457535835,29.097320025000002,-28.5692805,19.83060186,-1.5930621195,2.2889126930000003,0.1231167776,-0.061298824710000005,-0.22793244981,-0.20106345075000004
03:38:57,-1.1997244000000002,2.5039710599999996,-0.41962608,0.12555322,-0.30160823999999997,-0.27763921999999996,-7.479545379999999,29.096174700000002,-28.572774000000003,19.897043080000003,-1.600153746,2.3095773040000003,0.1231788328,-0.06114041188,-0.22858091468000002,-0.19973322100000004
03:38:57,-1.2047050000000001,2.525780225,-0.42027705,0.125196325,-0.30248715000000004,-0.27681357500000003,-7.501554925,29.095029375000003,-28.5762675,19.9634843,-1.6072453725,2.330241915,0.123240888,-0.06098199905,-0.22922937955,-0.19840299125000002
03:38:57,-1.2096856000000002,2.5475893899999997,-0.42092801999999996,0.12483943,-0.30336606,-0.27598793,-7.52356447,29.09388405,-28.579761,20.029925520000003,-1.614336999,2.350906526,0.1233029432,-0.06082358622,-0.22987784442,-0.19707276150000003
03:38:57,-1.2146662000000001,2.5693985549999994,-0.42157899,0.124482535,-0.30424497,-0.275162285,-7.545574015,29.092738725,-28.583254500000002,20.09636674,-1.6214286255,2.371571137,0.12336499840000001,-0.06066517339000001,-0.23052630929,-0.19574253175000003
03:38:57,-1.2196468000000003,2.59120772,-0.42222996,0.12412564000000001,-0.30512388,-0.27433664,-7.567583559999999,29.0915934,-28.586748,20.162807960000002,-1.628520252,2.392235748,0.1234270536,-0.060506760560000004,-0.23117477416,-0.19441230200000004
03:38:57,-1.2246274000000001,2.6130168849999995,-0.42288093,0.123768745,-0.30600279,-0.273510995,-7.589593105,29.090448075,-28.5902415,20.229249180000004,-1.6356118785,2.412900359,0.12348910880000001,-0.06034834773,-0.23182323903000002,-0.19308207225000004
03:38:57,-1.2296080000000003,2.63482605,-0.42353189999999996,0.12341185,-0.30688170000000004,-0.27268535,-7.61160265,29.08930275,-28.593735000000002,20.2956904,-1.642703505,2.433564970000001,0.123551164,-0.060189934900000006,-0.2324717039,-0.19175184250000002
03:38:57,-1.2345886000000001,2.6566352149999997,-0.42418287,0.123054955,-0.30776061,-0.271859705,-7.6336121949999995,29.088157425000002,-28.5972285,20.36213162,-1.6497951315000001,2.4542295810000008,0.12361321920000001,-0.06003152207,-0.23312016877000002,-0.19042161275000002
03:38:57,-1.2395692000000003,2.6784443799999993,-0.42483383999999996,0.12269806,-0.30863952000000006,-0.27103405999999997,-7.655621739999999,29.087012100000003,-28.600722,20.42857284,-1.656886758,2.4748941920000007,0.12367527440000001,-0.05987310924,-0.23376863364,-0.18909138300000003
03:38:57,-1.2445498000000002,2.700253545,-0.42548481,0.122341165,-0.30951843,-0.27020841500000004,-7.677631285,29.085866775000003,-28.604215500000002,20.495014060000003,-1.6639783845,2.4955588030000007,0.1237373296,-0.059714696410000004,-0.23441709851,-0.18776115325000003
03:38:57,-1.2495304000000003,2.7220627099999994,-0.42613577999999996,0.12198427,-0.31039734,-0.26938277,-7.69964083,29.08472145,-28.607709,20.561455280000004,-1.671070011,2.5162234140000006,0.12379938480000001,-0.05955628358000001,-0.23506556338,-0.18643092350000004
03:38:57,-1.2545110000000002,2.743871875,-0.42678675,0.12162737500000001,-0.31127625000000003,-0.268557125,-7.721650374999999,29.083576125,-28.6112025,20.627896500000002,-1.6781616375000001,2.5368880250000005,0.12386144,-0.059397870750000005,-0.23571402825,-0.18510069375000004
03:38:57,-1.2594916000000003,2.7656810399999996,-0.42743771999999997,0.12127048,-0.31215516,-0.26773148,-7.74365992,29.0824308,-28.614696000000002,20.69433772,-1.685253264,2.5575526360000005,0.12392349520000001,-0.05923945792,-0.23636249312000002,-0.18377046400000002
03:38:57,-1.2644722000000002,2.787490205,-0.42808869,0.120913585,-0.31303407000000005,-0.266905835,-7.765669465,29.081285475,-28.6181895,20.76077894,-1.6923448905,2.5782172470000004,0.1239855504,-0.059081045090000006,-0.23701095799,-0.18244023425000003
03:38:57,-1.2694528000000003,2.8092993699999997,-0.42873965999999997,0.12055669000000001,-0.31391298,-0.26608019,-7.78767901,29.080140150000002,-28.621683,20.827220160000003,-1.699436517,2.5988818580000004,0.1240476056,-0.05892263226,-0.23765942286000002,-0.18111000450000003
03:38:57,-1.2744334000000002,2.8311085349999994,-0.42939063,0.120199795,-0.31479189,-0.265254545,-7.809688554999999,29.078994825000002,-28.625176500000002,20.893661380000005,-1.7065281435,2.6195464690000003,0.12410966080000001,-0.05876421943,-0.23830788773,-0.17977977475000004
03:38:57,-1.2794140000000003,2.8529177,-0.43004159999999997,0.1198429,-0.31567080000000003,-0.26442889999999997,-7.8316981,29.077849500000003,-28.62867,20.960102600000003,-1.71361977,2.6402110800000003,0.124171716,-0.058605806600000004,-0.2389563526,-0.17844954500000004
03:38:57,-1.2843946000000002,2.8747268649999995,-0.43069257,0.119486005,-0.31654971,-0.26360325500000004,-7.853707645,29.076704175,-28.6321635,21.02654382,-1.7207113965,2.660875691,0.12423377120000001,-0.05844739377000001,-0.23960481747,-0.17711931525000002
03:38:57,-1.2893752000000003,2.89653603,-0.43134353999999997,0.11912911,-0.31742862000000005,-0.26277761,-7.87571719,29.07555885,-28.635657000000002,21.092985040000002,-1.727803023,2.681540302,0.1242958264,-0.058288980940000006,-0.24025328234,-0.17578908550000003
03:38:57,-1.2943558000000002,2.9183451949999997,-0.43199451,0.118772215,-0.31830753,-0.261951965,-7.897726735,29.074413525,-28.6391505,21.159426260000004,-1.7348946495,2.702204913,0.12435788160000001,-0.05813056811,-0.24090174721000002,-0.17445885575000003
03:38:57,-1.2993364000000003,2.9401543599999993,-0.43264547999999997,0.11841532,-0.31918644,-0.26112632,-7.9197362799999995,29.0732682,-28.642644,21.22586748,-1.741986276,2.722869524,0.1244199368,-0.05797215528000001,-0.24155021208,-0.17312862600000004
03:38:57,-1.3043170000000002,2.961963525,-0.43329644999999994,0.11805842500000001,-0.32006535,-0.260300675,-7.941745825,29.072122875,-28.646137500000002,21.2923087,-1.7490779025,2.743534135000001,0.12448199200000001,-0.057813742450000004,-0.24219867695000002,-0.17179839625000004
03:38:57,-1.3092976000000003,2.9837726899999995,-0.43394742,0.11770153,-0.32094426,-0.25947503,-7.9637553699999994,29.070977550000002,-28.649631,21.35874992,-1.7561695290000001,2.764198746000001,0.12454404720000001,-0.05765532962,-0.24284714182,-0.17046816650000005
03:38:57,-1.3142782000000002,3.005581854999999,-0.43459839,0.117344635,-0.32182317000000005,-0.258649385,-7.985764915,29.069832225000003,-28.6531245,21.425191140000003,-1.7632611555,2.7848633570000008,0.1246061024,-0.057496916790000005,-0.24349560669,-0.16913793675000002
03:38:57,-1.3192588000000003,3.0273910199999996,-0.43524936,0.11698774,-0.32270208,-0.25782373999999997,-8.00777446,29.068686900000003,-28.656618,21.491632360000004,-1.770352782,2.8055279680000007,0.12466815760000001,-0.05733850396000001,-0.24414407156,-0.16780770700000003
03:38:57,-1.3242394000000002,3.0492001849999992,-0.43590032999999995,0.116630845,-0.32358099,-0.25699809500000004,-8.029784005,29.067541575,-28.660111500000003,21.558073580000002,-1.7774444085,2.8261925790000006,0.1247302128,-0.05718009113,-0.24479253643,-0.16647747725000006
03:38:57,-1.3292200000000003,3.0710093499999997,-0.4365513,0.11627395,-0.3244599,-0.25617245,-8.05179355,29.06639625,-28.663605,21.6245148,-1.7845360350000001,2.8468571900000006,0.12479226800000001,-0.0570216783,-0.24544100130000002,-0.16514724750000004
03:38:57,-1.3342006000000002,3.0928185149999994,-0.43720227,0.115917055,-0.32533881,-0.255346805,-8.073803094999999,29.065250925,-28.6670985,21.69095602,-1.7916276615,2.8675218010000005,0.1248543232,-0.05686326547000001,-0.24608946617,-0.16381701775000002
03:38:57,-1.3391812,3.11462768,-0.43785324,0.11556016,-0.32621772000000004,-0.25452116,-8.09581264,29.0641056,-28.670592000000003,21.757397240000003,-1.798719288,2.8881864120000005,0.1249163784,-0.056704852640000004,-0.24673793104000002,-0.16248678800000005
03:38:57,-1.3441618000000002,3.1364368449999995,-0.43850420999999995,0.115203265,-0.32709663,-0.253695515,-8.117822185,29.062960275000002,-28.6740855,21.823838460000005,-1.8058109145,2.9088510230000004,0.12497843360000001,-0.05654643981,-0.24738639591,-0.16115655825000003
03:38:57,-1.3491424,3.158246009999999,-0.43915518,0.11484637,-0.32797554,-0.25286987,-8.139831730000001,29.061814950000002,-28.677579,21.890279680000003,-1.812902541,2.9295156340000004,0.12504048880000002,-0.056388026980000006,-0.24803486078000003,-0.15982632850000006
03:38:57,-1.3541230000000002,3.1800551749999997,-0.43980615,0.11448947500000001,-0.32885445,-0.252044225,-8.161841275,29.060669625000003,-28.681072500000003,21.9567209,-1.8199941675,2.9501802450000003,0.125102544,-0.05622961415000001,-0.24868332565,-0.15849609875000004
03:38:57,-1.3591036,3.2018643399999993,-0.44045712,0.11413258,-0.32973336,-0.25121857999999997,-8.18385082,29.059524300000003,-28.684566,22.023162120000002,-1.827085794,2.9708448560000003,0.1251645992,-0.05607120132,-0.24933179051999999,-0.157165869
03:38:57,-1.3640842000000002,3.223673505,-0.44110808999999995,0.113775685,-0.33061227000000004,-0.25039293500000004,-8.205860365,29.058378975,-28.6880595,22.089603340000004,-1.8341774205,2.991509467,0.1252266544,-0.055912788490000004,-0.24998025539000002,-0.15583563925000005
03:38:57,-1.3690648,3.2454826699999995,-0.44175906,0.11341879,-0.33149118,-0.24956729,-8.227869909999999,29.05723365,-28.691553000000003,22.15604456,-1.841269047,3.012174078,0.12528870960000002,-0.05575437566000001,-0.25062872026,-0.15450540950000002
03:38:57,-1.3740454000000002,3.267291834999999,-0.44241003,0.113061895,-0.33237009,-0.248741645,-8.249879454999999,29.056088325,-28.6950465,22.222485780000003,-1.8483606735,3.032838689,0.12535076480000001,-0.055595962830000005,-0.25127718513,-0.15317517975000006
03:38:58,-1.379026,3.289101,-0.443061,0.112705,-0.333249,-0.247916,-8.271889,29.054943,-28.69854,22.288927,-1.8554523,3.0535033,0.12541282,-0.05543755,-0.25192565,-0.15184495
03:38:58,-1.3709683700000002,3.2683689400000002,-0.4538926,0.110691495,-0.331592385,-0.24669085,-8.28424976,29.043364345,-28.71465351,22.281801555,-1.854733382,3.0355601525,0.1169576429,-0.056114498,-0.25081257236,-0.1499920035
03:38:58,-1.36291074,3.24763688,-0.4647242,0.10867799,-0.32993577,-0.2454657,-8.29661052,29.031785690000003,-28.730767020000002,22.27467611,-1.854014464,3.017617005,0.1085024658,-0.056791446,-0.24969949472,-0.14813905700000002
03:38:58,-1.35485311,3.22690482,-0.4755558,0.106664485,-0.32827915500000004,-0.24424055,-8.30897128,29.020207035000002,-28.746880530000002,22.267550665,-1.853295546,2.9996738575,0.10004728870000001,-0.057468394,-0.24858641708,-0.1462861105
03:38:58,-1.3467954800000002,3.20617276,-0.48638739999999997,0.10465098,-0.32662254,-0.2430154,-8.32133204,29.00862838,-28.762994040000002,22.260425220000002,-1.852576628,2.98173071,0.09159211160000001,-0.058145342,-0.24747333944,-0.144433164
03:38:58,-1.33873785,3.1854407,-0.49721899999999997,0.102637475,-0.324965925,-0.24179024999999998,-8.3336928,28.997049725,-28.779107550000003,22.253299775000002,-1.85185771,2.9637875625,0.08313693450000001,-0.05882229,-0.2463602618,-0.1425802175
03:38:58,-1.33068022,3.16470864,-0.5080506,0.10062397000000001,-0.32330931,-0.2405651,-8.34605356,28.985471070000003,-28.795221060000003,22.246174330000002,-1.851138792,2.945844415,0.07468175740000002,-0.059499238,-0.24524718416,-0.14072727100000001
03:38:58,-1.3226225900000002,3.14397658,-0.5188822,0.098610465,-0.32165269500000004,-0.23933995,-8.35841432,28.973892415,-28.81133457,22.239048885000003,-1.850419874,2.9279012675000002,0.06622658030000002,-0.060176186,-0.24413410652,-0.1388743245
03:38:58,-1.31456496,3.12324452,-0.5297138,0.09659696,-0.31999608,-0.2381148,-8.37077508,28.96231376,-28.82744808,22.231923440000003,-1.849700956,2.90995812,0.057771403200000015,-0.060853134,-0.24302102888,-0.137021378
03:38:58,-1.30650733,3.1025124600000002,-0.5405454,0.094583455,-0.318339465,-0.23688965,-8.38313584,28.950735105,-28.84356159,22.224797995,-1.848982038,2.8920149725,0.04931622610000001,-0.061530082,-0.24190795124,-0.13516843150000002
03:38:58,-1.2984497000000002,3.0817804,-0.551377,0.09256995,-0.31668285,-0.2356645,-8.3954966,28.939156450000002,-28.8596751,22.21767255,-1.8482631200000001,2.874071825,0.04086104900000001,-0.06220703,-0.24079487360000001,-0.133315485
03:38:58,-1.29039207,3.06104834,-0.5622086,0.090556445,-0.31502623500000004,-0.23443935,-8.40785736,28.927577795,-28.87578861,22.210547105,-1.8475442020000001,2.8561286775,0.03240587190000002,-0.06288397800000001,-0.23968179596,-0.1314625385
03:38:58,-1.28233444,3.04031628,-0.5730402,0.08854294,-0.31336962,-0.2332142,-8.42021812,28.91599914,-28.89190212,22.20342166,-1.8468252840000001,2.83818553,0.02395069480000002,-0.063560926,-0.23856871832,-0.129609592
03:38:58,-1.2742768100000001,3.01958422,-0.5838717999999999,0.086529435,-0.311713005,-0.23198905,-8.43257888,28.904420485000003,-28.90801563,22.196296215,-1.846106366,2.8202423825,0.015495517700000017,-0.064237874,-0.23745564068,-0.12775664550000002
03:38:58,-1.26621918,2.99885216,-0.5947034,0.08451593,-0.31005639,-0.2307639,-8.44493964,28.892841830000002,-28.92412914,22.18917077,-1.845387448,2.802299235,0.007040340600000028,-0.064914822,-0.23634256304,-0.125903699
03:38:58,-1.25816155,2.9781201,-0.6055349999999999,0.08250242499999999,-0.30839977500000004,-0.22953875,-8.4573004,28.881263175,-28.940242650000002,22.182045325,-1.84466853,2.7843560875,-0.0014148364999999885,-0.06559177000000001,-0.2352294854,-0.1240507525
03:38:58,-1.2501039200000001,2.95738804,-0.6163666,0.08048891999999999,-0.30674316,-0.2283136,-8.46966116,28.86968452,-28.956356160000002,22.17491988,-1.843949612,2.76641294,-0.009870013599999977,-0.066268718,-0.23411640776,-0.122197806
03:38:58,-1.24204629,2.9366559800000003,-0.6271981999999999,0.07847541499999999,-0.305086545,-0.22708845,-8.48202192,28.858105865000002,-28.972469670000002,22.167794435,-1.843230694,2.7484697925,-0.018325190699999966,-0.066945666,-0.23300333012,-0.12034485950000001
03:38:58,-1.23398866,2.91592392,-0.6380298,0.07646191,-0.30342993,-0.2258633,-8.49438268,28.84652721,-28.988583180000003,22.16066899,-1.842511776,2.730526645,-0.026780367799999982,-0.067622614,-0.23189025248,-0.118491913
03:38:58,-1.2259310300000001,2.89519186,-0.6488613999999999,0.074448405,-0.30177331500000004,-0.22463815,-8.50674344,28.834948555,-29.00469669,22.153543545,-1.841792858,2.7125834975,-0.03523554489999997,-0.06829956200000001,-0.23077717484,-0.1166389665
03:38:58,-1.2178734000000002,2.8744598,-0.659693,0.0724349,-0.3001167,-0.223413,-8.5191042,28.823369900000003,-29.0208102,22.1464181,-1.84107394,2.6946403500000002,-0.04369072199999999,-0.06897651,-0.2296640972,-0.11478602
03:38:58,-1.20981577,2.85372774,-0.6705245999999999,0.070421395,-0.298460085,-0.22218785,-8.53146496,28.811791245000002,-29.03692371,22.139292655000002,-1.840355022,2.6766972025,-0.052145899099999976,-0.069653458,-0.22855101956,-0.11293307350000001
03:38:58,-1.2017581400000001,2.8329956800000002,-0.6813562,0.06840789,-0.29680347,-0.2209627,-8.54382572,28.80021259,-29.05303722,22.132167210000002,-1.839636104,2.658754055,-0.060601076199999965,-0.070330406,-0.22743794192,-0.111080127
03:38:58,-1.1937005100000002,2.81226362,-0.6921877999999999,0.066394385,-0.29514685500000004,-0.21973755,-8.55618648,28.788633935,-29.06915073,22.125041765000002,-1.838917186,2.6408109075,-0.06905625329999998,-0.07100735400000001,-0.22632486428,-0.1092271805
03:38:58,-1.18564288,2.79153156,-0.7030194,0.06438088,-0.29349024,-0.2185124,-8.56854724,28.777055280000003,-29.08526424,22.117916320000003,-1.838198268,2.62286776,-0.07751143039999997,-0.071684302,-0.22521178664,-0.10737423400000001
03:38:58,-1.1775852500000001,2.7707995,-0.713851,0.062367374999999996,-0.291833625,-0.21728725,-8.580907999999999,28.765476625,-29.10137775,22.110790875,-1.83747935,2.6049246125,-0.08596660749999996,-0.07236125,-0.224098709,-0.1055212875
03:38:58,-1.1695276200000002,2.75006744,-0.7246826,0.06035387,-0.29017701,-0.2160621,-8.593268759999999,28.75389797,-29.11749126,22.10366543,-1.836760432,2.586981465,-0.09442178459999997,-0.073038198,-0.22298563136,-0.103668341
03:38:58,-1.16146999,2.72933538,-0.7355141999999999,0.058340365,-0.28852039500000004,-0.21483695,-8.605629519999999,28.742319315,-29.13360477,22.096539985,-1.836041514,2.5690383175,-0.10287696169999996,-0.07371514600000001,-0.22187255372,-0.1018153945
03:38:58,-1.1534123600000001,2.70860332,-0.7463458,0.05632686,-0.28686378,-0.2136118,-8.617990279999999,28.730740660000002,-29.149718280000002,22.08941454,-1.8353225960000001,2.55109517,-0.11133213879999995,-0.074392094,-0.22075947608,-0.09996244800000001
03:38:58,-1.1453547300000002,2.68787126,-0.7571774,0.054313355,-0.285207165,-0.21238665,-8.630351039999999,28.719162005,-29.165831790000002,22.082289095,-1.8346036780000001,2.5331520225,-0.11978731589999997,-0.075069042,-0.21964639844,-0.0981095015
03:38:58,-1.1372971,2.6671392000000003,-0.7680089999999999,0.052299849999999995,-0.28355055,-0.2111615,-8.642711799999999,28.70758335,-29.181945300000002,22.07516365,-1.8338847600000001,2.515208875,-0.12824249299999999,-0.07574599,-0.21853332079999999,-0.09625655500000001
03:38:58,-1.1292394700000001,2.64640714,-0.7788405999999999,0.050286344999999996,-0.28189393500000004,-0.20993635,-8.655072559999999,28.696004695000003,-29.198058810000003,22.068038205,-1.833165842,2.4972657275000003,-0.13669767009999997,-0.076422938,-0.21742024316,-0.09440360850000001
03:38:58,-1.1211818400000002,2.62567508,-0.7896721999999999,0.04827284,-0.28023732,-0.20871119999999999,-8.667433319999999,28.68442604,-29.21417232,22.06091276,-1.832446924,2.47932258,-0.14515284719999996,-0.077099886,-0.21630716552,-0.092550662
03:38:58,-1.11312421,2.60494302,-0.8005038,0.046259335,-0.278580705,-0.20748605,-8.679794079999999,28.672847385,-29.23028583,22.053787315,-1.831728006,2.4613794325000002,-0.15360802429999995,-0.077776834,-0.21519408788,-0.0906977155
03:38:58,-1.1050665800000001,2.58421096,-0.8113353999999999,0.04424583,-0.27692409,-0.2062609,-8.69215484,28.66126873,-29.24639934,22.04666187,-1.831009088,2.443436285,-0.16206320139999994,-0.078453782,-0.21408101023999998,-0.088844769
03:38:58,-1.0970089500000002,2.5634789,-0.8221669999999999,0.042232325,-0.27526747500000004,-0.20503575000000002,-8.7045156,28.649690075000002,-29.26251285,22.039536425,-1.83029017,2.4254931375,-0.17051837849999998,-0.07913073000000001,-0.2129679326,-0.08699182250000001
03:38:58,-1.08895132,2.54274684,-0.8329985999999999,0.04021882,-0.27361086,-0.2038106,-8.71687636,28.63811142,-29.27862636,22.03241098,-1.829571252,2.40754999,-0.17897355559999997,-0.079807678,-0.21185485496,-0.085138876
03:38:58,-1.0808936900000001,2.52201478,-0.8438302,0.038205315000000004,-0.271954245,-0.20258545,-8.72923712,28.626532765,-29.29473987,22.025285535000002,-1.828852334,2.3896068425,-0.18742873269999996,-0.080484626,-0.21074177732,-0.08328592950000001
03:38:58,-1.0728360600000002,2.50128272,-0.8546617999999999,0.03619180999999999,-0.27029763,-0.2013603,-8.74159788,28.61495411,-29.31085338,22.018160090000002,-1.828133416,2.371663695,-0.19588390979999995,-0.081161574,-0.20962869968,-0.081432983
03:38:58,-1.06477843,2.48055066,-0.8654933999999999,0.03417830499999999,-0.26864101500000004,-0.20013514999999998,-8.75395864,28.603375455000002,-29.32696689,22.011034645000002,-1.827414498,2.3537205475,-0.20433908689999994,-0.081838522,-0.20851562204,-0.0795800365
03:38:58,-1.0567208000000001,2.4598186,-0.8763249999999999,0.03216479999999999,-0.2669844,-0.19891,-8.7663194,28.5917968,-29.3430804,22.003909200000002,-1.82669558,2.3357774,-0.21279426399999998,-0.08251547000000001,-0.2074025444,-0.07772709
03:38:58,-1.0486631700000002,2.43908654,-0.8871566,0.030151294999999995,-0.265327785,-0.19768485,-8.77868016,28.580218145,-29.359193910000002,21.996783755000003,-1.825976662,2.3178342525,-0.22124944109999997,-0.083192418,-0.20628946675999998,-0.0758741435
03:38:58,-1.04060554,2.41835448,-0.8979881999999999,0.028137789999999996,-0.26367117,-0.19645970000000001,-8.79104092,28.568639490000002,-29.375307420000002,21.98965831,-1.825257744,2.299891105,-0.22970461819999996,-0.083869366,-0.20517638912,-0.07402119700000001
03:38:58,-1.0325479100000001,2.3976224200000003,-0.9088197999999998,0.026124284999999997,-0.26201455500000004,-0.19523455,-8.80340168,28.557060835,-29.391420930000002,21.982532865,-1.824538826,2.2819479575,-0.23815979529999995,-0.08454631400000001,-0.20406331148,-0.0721682505
03:38:58,-1.0244902800000002,2.37689036,-0.9196513999999999,0.02411078,-0.26035794,-0.1940094,-8.81576244,28.54548218,-29.40753444,21.97540742,-1.823819908,2.2640048100000003,-0.24661497239999994,-0.08522326200000001,-0.20295023384,-0.07031530400000001
03:38:58,-1.01643265,2.3561583,-0.930483,0.022097275,-0.258701325,-0.19278425,-8.8281232,28.533903525,-29.42364795,21.968281975,-1.82310099,2.2460616625,-0.25507014949999995,-0.08590021,-0.20183715619999998,-0.0684623575
03:38:58,-1.0083750200000001,2.3354262400000003,-0.9413145999999999,0.02008377,-0.25704471,-0.1915591,-8.84048396,28.522324870000002,-29.43976146,21.96115653,-1.8223820720000001,2.2281185150000002,-0.26352532659999994,-0.086577158,-0.20072407856,-0.06660941100000001
03:38:58,-1.0003173900000002,2.31469418,-0.9521461999999998,0.018070265000000002,-0.25538809500000004,-0.19033395,-8.85284472,28.510746215,-29.45587497,21.954031085,-1.8216631540000001,2.2101753675,-0.27198050369999993,-0.087254106,-0.19961100092,-0.0647564645
03:38:58,-0.99225976,2.2939621199999998,-0.9629778,0.016056760000000003,-0.25373148,-0.1891088,-8.86520548,28.49916756,-29.47198848,21.94690564,-1.820944236,2.19223222,-0.2804356807999999,-0.08793105400000001,-0.19849792328,-0.062903518
03:38:58,-0.9842021300000001,2.27323006,-0.9738093999999999,0.01404325499999999,-0.252074865,-0.18788365,-8.87756624,28.487588905,-29.48810199,21.939780195,-1.820225318,2.1742890725,-0.2888908578999999,-0.088608002,-0.19738484564,-0.06105057150000001
03:38:58,-0.9761445000000001,2.252498,-0.9846409999999999,0.012029749999999992,-0.25041825,-0.1866585,-8.889927,28.47601025,-29.5042155,21.93265475,-1.8195064,2.156345925,-0.2973460349999999,-0.08928495,-0.19627176799999999,-0.059197625000000004
03:38:58,-0.96808687,2.23176594,-0.9954725999999998,0.010016244999999993,-0.248761635,-0.18543335,-8.90228776,28.464431595,-29.52032901,21.925529305,-1.818787482,2.1384027775,-0.3058012121,-0.08996189800000001,-0.19515869036,-0.05734467850000001
03:38:58,-0.9600292400000001,2.21103388,-1.0063042,0.008002739999999994,-0.24710502,-0.1842082,-8.91464852,28.45285294,-29.53644252,21.91840386,-1.818068564,2.12045963,-0.3142563892,-0.090638846,-0.19404561271999998,-0.055491732
03:38:58,-0.9519716100000001,2.19030182,-1.0171358,0.0059892349999999955,-0.245448405,-0.18298304999999998,-8.92700928,28.441274285000002,-29.55255603,21.911278415,-1.817349646,2.1025164825,-0.3227115663,-0.091315794,-0.19293253508,-0.05363878550000001
03:38:58,-0.94391398,2.16956976,-1.0279673999999999,0.003975729999999997,-0.24379179,-0.1817579,-8.93937004,28.42969563,-29.568669540000002,21.904152970000002,-1.816630728,2.084573335,-0.33116674339999996,-0.091992742,-0.19181945744,-0.051785839
03:38:58,-0.9358563500000001,2.1488377,-1.0387989999999998,0.001962224999999998,-0.242135175,-0.18053275000000002,-8.9517308,28.418116975,-29.584783050000002,21.897027525000002,-1.81591181,2.0666301875,-0.33962192049999995,-0.09266969,-0.1907063798,-0.049932892500000006
03:38:58,-0.9277987200000001,2.1281056400000002,-1.0496306,-5.128000000000077e-05,-0.24047856,-0.1793076,-8.96409156,28.40653832,-29.600896560000002,21.889902080000002,-1.815192892,2.04868704,-0.34807709759999994,-0.09334663800000001,-0.18959330215999998,-0.04807994600000001
03:38:58,-0.91974109,2.10737358,-1.0604622,-0.0020647849999999995,-0.238821945,-0.17808245,-8.97645232,28.394959665000002,-29.61701007,21.882776635000003,-1.814473974,2.0307438925000003,-0.35653227469999993,-0.094023586,-0.18848022452,-0.046226999500000004
03:38:58,-0.9116834600000001,2.08664152,-1.0712937999999999,-0.004078289999999998,-0.23716533,-0.1768573,-8.98881308,28.38338101,-29.63312358,21.875651190000003,-1.813755056,2.012800745,-0.3649874517999999,-0.094700534,-0.18736714688,-0.04437405300000001
03:38:58,-0.9036258300000002,2.0659094600000003,-1.0821253999999998,-0.006091795000000011,-0.235508715,-0.17563215,-9.00117384,28.371802355,-29.64923709,21.868525745,-1.813036138,1.9948575975,-0.3734426288999999,-0.09537748200000001,-0.18625406924,-0.0425211065
03:38:58,-0.8955682,2.0451774,-1.092957,-0.00810530000000001,-0.2338521,-0.174407,-9.0135346,28.3602237,-29.6653506,21.8614003,-1.81231722,1.97691445,-0.381897806,-0.09605443,-0.1851409916,-0.04066816000000001
03:38:58,-0.8875105700000001,2.0244453399999998,-1.1037886,-0.010118805000000008,-0.232195485,-0.17318185,-9.02589536,28.348645045,-29.68146411,21.854274855,-1.811598302,1.9589713025000002,-0.3903529831,-0.096731378,-0.18402791396,-0.0388152135
03:38:58,-0.8794529400000002,2.0037132800000004,-1.1146201999999998,-0.012132310000000007,-0.23053887,-0.17195670000000002,-9.03825612,28.33706639,-29.69757762,21.84714941,-1.810879384,1.9410281550000001,-0.3988081602,-0.097408326,-0.18291483632,-0.03696226700000001
03:38:58,-0.8713953100000001,1.98298122,-1.1254517999999998,-0.014145815000000006,-0.228882255,-0.17073155,-9.05061688,28.325487735,-29.71369113,21.840023965,-1.810160466,1.9230850075,-0.4072633373,-0.098085274,-0.18180175867999998,-0.0351093205
03:38:58,-0.8633376800000001,1.96224916,-1.1362834,-0.016159320000000005,-0.22722564,-0.1695064,-9.06297764,28.313909080000002,-29.72980464,21.83289852,-1.8094415480000001,1.90514186,-0.41571851439999996,-0.09876222200000001,-0.18068868104,-0.033256374000000005
03:38:58,-0.8552800500000001,1.9415171,-1.1471149999999999,-0.018172825000000004,-0.225569025,-0.16828125,-9.0753384,28.302330425,-29.74591815,21.825773075,-1.80872263,1.8871987125,-0.42417369149999995,-0.09943917,-0.1795756034,-0.03140342750000001
03:38:58,-0.8472224200000001,1.92078504,-1.1579465999999998,-0.020186330000000002,-0.22391241,-0.16705609999999999,-9.08769916,28.29075177,-29.76203166,21.81864763,-1.808003712,1.869255565,-0.43262886859999994,-0.100116118,-0.17846252576,-0.029550481000000003
03:38:58,-0.8391647900000001,1.9000529800000001,-1.1687782,-0.022199835,-0.222255795,-0.16583095,-9.10005992,28.279173115,-29.778145170000002,21.811522185,-1.807284794,1.8513124175,-0.4410840456999999,-0.100793066,-0.17734944811999998,-0.02769753450000001
03:38:58,-0.8311071600000001,1.87932092,-1.1796098,-0.02421334,-0.22059918,-0.1646058,-9.11242068,28.26759446,-29.794258680000002,21.80439674,-1.806565876,1.8333692700000002,-0.4495392227999999,-0.101470014,-0.17623637048,-0.025844588
03:38:58,-0.8230495300000001,1.85858886,-1.1904413999999999,-0.026226845,-0.218942565,-0.16338065000000002,-9.12478144,28.256015805,-29.810372190000002,21.797271295,-1.805846958,1.8154261225000001,-0.4579943998999999,-0.10214696200000001,-0.17512329284,-0.023991641499999994
03:38:58,-0.8149919000000001,1.8378568,-1.2012729999999998,-0.028240349999999997,-0.21728595,-0.1621555,-9.1371422,28.24443715,-29.8264857,21.790145850000002,-1.80512804,1.797482975,-0.466449577,-0.10282391,-0.17401021519999998,-0.022138695000000014
03:38:58,-0.8069342700000001,1.8171247400000001,-1.2121046,-0.030253854999999996,-0.215629335,-0.16093035,-9.14950296,28.232858495000002,-29.84259921,21.783020405000002,-1.804409122,1.7795398275,-0.4749047541,-0.103500858,-0.17289713756,-0.020285748500000006
03:38:58,-0.7988766400000001,1.79639268,-1.2229362,-0.032267359999999995,-0.21397272,-0.1597052,-9.16186372,28.22127984,-29.85871272,21.775894960000002,-1.803690204,1.76159668,-0.4833599312,-0.10417780600000001,-0.17178405992,-0.018432801999999998
03:38:58,-0.7908190100000001,1.77566062,-1.2337677999999999,-0.034280864999999994,-0.212316105,-0.15848004999999998,-9.17422448,28.209701185,-29.87482623,21.768769515000002,-1.802971286,1.7436535325,-0.49181510829999997,-0.104854754,-0.17067098228,-0.016579855500000018
03:38:58,-0.7827613800000001,1.75492856,-1.2445993999999998,-0.03629436999999999,-0.21065949,-0.1572549,-9.18658524,28.19812253,-29.89093974,21.761644070000003,-1.802252368,1.7257103850000002,-0.5002702854,-0.105531702,-0.16955790463999998,-0.01472690900000001
03:38:58,-0.7747037500000001,1.7341965000000001,-1.255431,-0.03830787500000002,-0.209002875,-0.15602975000000002,-9.198946,28.186543875,-29.90705325,21.754518625000003,-1.80153345,1.7077672375000001,-0.5087254625,-0.10620865,-0.168444827,-0.012873962500000002
03:38:58,-0.7666461200000001,1.71346444,-1.2662626,-0.04032138000000002,-0.20734626,-0.15480460000000001,-9.21130676,28.17496522,-29.92316676,21.74739318,-1.800814532,1.6898240900000001,-0.5171806395999999,-0.106885598,-0.16733174936,-0.011021015999999995
03:38:58,-0.7585884900000001,1.69273238,-1.2770941999999998,-0.04233488500000002,-0.205689645,-0.15357945,-9.22366752,28.163386565,-29.93928027,21.740267735,-1.800095614,1.6718809425,-0.5256358166999999,-0.10756254600000001,-0.16621867172,-0.009168069500000015
03:38:58,-0.7505308600000001,1.67200032,-1.2879257999999998,-0.044348390000000015,-0.20403303,-0.1523543,-9.23602828,28.15180791,-29.95539378,21.73314229,-1.799376696,1.653937795,-0.5340909937999999,-0.108239494,-0.16510559407999997,-0.007315123000000007
03:38:58,-0.7424732300000001,1.6512682600000002,-1.2987574,-0.046361895000000014,-0.202376415,-0.15112915,-9.24838904,28.140229255,-29.97150729,21.726016845,-1.798657778,1.6359946475,-0.5425461708999999,-0.108916442,-0.16399251643999999,-0.005462176499999999
03:38:58,-0.7344156000000002,1.6305362,-1.309589,-0.04837540000000001,-0.2007198,-0.149904,-9.2607498,28.1286506,-29.987620800000002,21.7188914,-1.79793886,1.6180515,-0.551001348,-0.10959339000000001,-0.1628794388,-0.003609229999999991
03:38:58,-0.7263579700000001,1.60980414,-1.3204205999999998,-0.05038890500000001,-0.199063185,-0.14867885,-9.27311056,28.117071945,-30.00373431,21.711765955,-1.797219942,1.6001083525000002,-0.5594565251,-0.110270338,-0.16176636115999998,-0.001756283500000011
03:38:58,-0.7183003400000001,1.58907208,-1.3312521999999998,-0.05240241000000001,-0.19740657,-0.14745370000000002,-9.28547132,28.105493290000002,-30.01984782,21.70464051,-1.7965010240000001,1.5821652050000001,-0.5679117022,-0.110947286,-0.16065328352,9.666299999999683e-05
03:38:58,-0.7102427100000002,1.56834002,-1.3420838,-0.05441591500000001,-0.195749955,-0.14622855,-9.29783208,28.093914635,-30.03596133,21.697515065,-1.795782106,1.5642220575,-0.5763668793,-0.111624234,-0.15954020588,0.0019496095000000047
03:38:58,-0.7021850800000001,1.5476079600000001,-1.3529153999999999,-0.05642942000000001,-0.19409334,-0.1450034,-9.31019284,28.08233598,-30.05207484,21.69038962,-1.795063188,1.54627891,-0.5848220564,-0.112301182,-0.15842712824,0.0038025559999999847
03:38:58,-0.6941274500000001,1.5268759,-1.3637469999999998,-0.05844292500000001,-0.192436725,-0.14377825,-9.322553599999999,28.070757325,-30.06818835,21.683264175,-1.79434427,1.5283357625,-0.5932772335,-0.11297813000000001,-0.15731405059999998,0.0056555024999999925
03:38:58,-0.6860698200000002,1.50614384,-1.3745785999999998,-0.060456430000000005,-0.19078011,-0.1425531,-9.334914359999999,28.05917867,-30.08430186,21.67613873,-1.793625352,1.510392615,-0.6017324105999999,-0.113655078,-0.15620097296,0.007508449
03:38:58,-0.6780121900000001,1.48541178,-1.3854102,-0.062469935000000004,-0.189123495,-0.14132795,-9.347275119999999,28.047600015,-30.10041537,21.669013285000002,-1.792906434,1.4924494675000002,-0.6101875876999999,-0.114332026,-0.15508789532,0.009361395500000008
03:38:58,-0.6699545600000001,1.4646797200000001,-1.3962417999999999,-0.06448344,-0.18746688,-0.1401028,-9.359635879999999,28.03602136,-30.11652888,21.661887840000002,-1.792187516,1.4745063200000001,-0.6186427647999999,-0.11500897400000001,-0.15397481768,0.011214341999999988
03:38:58,-0.6618969300000002,1.44394766,-1.4070733999999998,-0.066496945,-0.185810265,-0.13887765000000002,-9.371996639999999,28.024442705,-30.13264239,21.654762395000002,-1.791468598,1.4565631725000001,-0.6270979418999999,-0.115685922,-0.15286174003999997,0.013067288499999996
03:38:58,-0.6538393000000001,1.4232156,-1.4179049999999997,-0.06851045,-0.18415365,-0.1376525,-9.384357399999999,28.01286405,-30.1487559,21.647636950000003,-1.79074968,1.438620025,-0.6355531189999999,-0.11636287000000001,-0.15174866239999998,0.014920235000000004
03:38:58,-0.6457816700000001,1.40248354,-1.4287366,-0.070523955,-0.182497035,-0.13642735,-9.396718159999999,28.001285395,-30.16486941,21.640511505000003,-1.790030762,1.4206768775,-0.6440082961,-0.117039818,-0.15063558476,0.016773181499999984
03:38:58,-0.6377240400000002,1.3817514800000001,-1.4395681999999999,-0.07253746,-0.18084042,-0.1352022,-9.409078919999999,27.98970674,-30.18098292,21.63338606,-1.789311844,1.40273373,-0.6524634732,-0.117716766,-0.14952250711999998,0.018626127999999992
03:38:58,-0.6296664100000001,1.36101942,-1.4503997999999998,-0.074550965,-0.179183805,-0.13397705,-9.421439679999999,27.978128085,-30.197096430000002,21.626260615,-1.788592926,1.3847905825000002,-0.6609186503,-0.11839371400000001,-0.14840942948,0.0204790745
03:38:58,-0.6216087800000001,1.34028736,-1.4612313999999997,-0.07656447,-0.17752719,-0.1327519,-9.433800439999999,27.96654943,-30.21320994,21.61913517,-1.787874008,1.3668474350000002,-0.6693738274,-0.11907066200000001,-0.14729635184,0.022332021000000007
03:38:58,-0.6135511500000002,1.3195553,-1.4720629999999997,-0.078577975,-0.175870575,-0.13152675,-9.446161199999999,27.954970775,-30.22932345,21.612009725,-1.78715509,1.3489042875000001,-0.6778290044999999,-0.11974761,-0.1461832742,0.024184967499999988
03:38:58,-0.6054935200000001,1.29882324,-1.4828945999999998,-0.08059148,-0.17421396,-0.13030160000000002,-9.458521959999999,27.94339212,-30.24543696,21.60488428,-1.786436172,1.33096114,-0.6862841815999999,-0.120424558,-0.14507019655999998,0.026037913999999995
03:38:58,-0.5974358900000001,1.27809118,-1.4937261999999998,-0.08260498500000002,-0.172557345,-0.12907645,-9.470882719999999,27.931813465,-30.26155047,21.597758835,-1.785717254,1.3130179925,-0.6947393586999999,-0.121101506,-0.14395711892,0.027890860500000003
03:38:58,-0.5893782600000002,1.2573591199999998,-1.5045577999999997,-0.08461849000000002,-0.17090073,-0.1278513,-9.483243479999999,27.92023481,-30.27766398,21.59063339,-1.784998336,1.295074845,-0.7031945357999999,-0.12177845400000001,-0.14284404128,0.029743806999999983
03:38:58,-0.5813206300000001,1.23662706,-1.5153893999999999,-0.08663199500000002,-0.169244115,-0.12662615,-9.495604239999999,27.908656155,-30.29377749,21.583507945,-1.784279418,1.2771316975,-0.7116497128999999,-0.122455402,-0.14173096363999999,0.03159675349999999
03:38:58,-0.5732630000000001,1.2158950000000002,-1.5262209999999998,-0.08864550000000002,-0.1675875,-0.12540099999999998,-9.507964999999999,27.8970775,-30.309891,21.5763825,-1.7835605,1.2591885500000002,-0.7201048899999999,-0.12313235,-0.14061788599999997,0.0334497
03:38:58,-0.5652053700000002,1.19516294,-1.5370525999999998,-0.09065900500000001,-0.165930885,-0.12417585,-9.520325759999999,27.885498845,-30.32600451,21.569257055,-1.782841582,1.2412454025000002,-0.7285600670999999,-0.123809298,-0.13950480835999998,0.03530264650000001
03:38:58,-0.5571477400000001,1.17443088,-1.5478841999999997,-0.09267251000000001,-0.16427427,-0.12295070000000001,-9.532686519999999,27.87392019,-30.34211802,21.56213161,-1.782122664,1.2233022550000001,-0.7370152442,-0.12448624600000001,-0.13839173072,0.03715559299999999
03:38:58,-0.5490901100000001,1.1536988200000002,-1.5587157999999999,-0.09468601500000001,-0.162617655,-0.12172555000000002,-9.545047279999999,27.862341535,-30.35823153,21.555006165,-1.781403746,1.2053591075,-0.7454704213,-0.125163194,-0.13727865307999998,0.039008539499999995
03:38:58,-0.5410324800000001,1.13296676,-1.5695473999999998,-0.09669952000000001,-0.16096104,-0.12050040000000001,-9.557408039999999,27.85076288,-30.37434504,21.547880720000002,-1.780684828,1.18741596,-0.7539255984,-0.125840142,-0.13616557544,0.040861486
03:38:58,-0.5329748500000001,1.1122347000000001,-1.5803789999999998,-0.09871302500000001,-0.159304425,-0.11927525,-9.569768799999999,27.839184225,-30.39045855,21.540755275000002,-1.77996591,1.1694728125,-0.7623807754999999,-0.12651709,-0.1350524978,0.04271443249999998
03:38:58,-0.5249172200000001,1.0915026399999999,-1.5912105999999997,-0.10072653000000001,-0.15764781,-0.11805009999999999,-9.582129559999998,27.82760557,-30.406572060000002,21.533629830000002,-1.779246992,1.1515296650000002,-0.7708359525999999,-0.127194038,-0.13393942016,0.04456737899999999
03:38:58,-0.5168595900000001,1.07077058,-1.6020421999999999,-0.10274003500000001,-0.155991195,-0.11682495000000001,-9.59449032,27.816026915,-30.42268557,21.526504385000003,-1.778528074,1.1335865175000002,-0.7792911296999999,-0.12787098600000002,-0.13282634251999997,0.0464203255
03:38:58,-0.5088019600000001,1.0500385200000002,-1.6128737999999998,-0.10475354,-0.15433458,-0.1155998,-9.60685108,27.80444826,-30.43879908,21.519378940000003,-1.777809156,1.1156433700000001,-0.7877463067999999,-0.128547934,-0.13171326487999999,0.048273272000000006
03:38:58,-0.5007443300000001,1.02930646,-1.6237053999999997,-0.106767045,-0.152677965,-0.11437465,-9.61921184,27.792869605,-30.45491259,21.512253495,-1.777090238,1.0977002225,-0.7962014838999999,-0.12922488199999999,-0.13060018724,0.050126218499999986
03:38:58,-0.49268670000000014,1.0085744,-1.6345369999999997,-0.10878055,-0.15102135,-0.11314950000000001,-9.6315726,27.78129095,-30.4710261,21.50512805,-1.77637132,1.079757075,-0.8046566609999999,-0.12990183,-0.12948710959999998,0.051979164999999994
03:38:58,-0.4846290700000001,0.9878423400000003,-1.6453685999999998,-0.110794055,-0.149364735,-0.11192435,-9.64393336,27.769712294999998,-30.48713961,21.498002605,-1.775652402,1.0618139275,-0.8131118380999999,-0.130578778,-0.12837403195999997,0.0538321115
03:38:58,-0.47657144000000007,0.96711028,-1.6562001999999998,-0.11280756,-0.14770812,-0.1106992,-9.65629412,27.75813364,-30.50325312,21.49087716,-1.774933484,1.0438707800000002,-0.8215670151999999,-0.13125572600000002,-0.12726095431999998,0.05568505799999998
03:38:58,-0.46851381000000014,0.9463782200000002,-1.6670317999999997,-0.114821065,-0.146051505,-0.10947405000000002,-9.66865488,27.746554985,-30.51936663,21.483751715,-1.774214566,1.0259276325000002,-0.8300221923,-0.131932674,-0.12614787668,0.05753800449999999
03:38:58,-0.4604561800000001,0.9256461599999999,-1.6778633999999997,-0.11683457,-0.14439489,-0.10824890000000001,-9.68101564,27.73497633,-30.53548014,21.47662627,-1.773495648,1.0079844850000002,-0.8384773694,-0.132609622,-0.12503479903999998,0.059390951
03:38:58,-0.4523985500000002,0.9049141,-1.6886949999999998,-0.118848075,-0.142738275,-0.10702375,-9.6933764,27.723397675,-30.55159365,21.469500825,-1.77277673,0.9900413375000001,-0.8469325464999999,-0.13328657,-0.12392172139999999,0.061243897500000005
03:38:58,-0.44434092000000014,0.8841820400000002,-1.6995265999999998,-0.12086158,-0.14108166,-0.10579859999999999,-9.70573716,27.71181902,-30.56770716,21.46237538,-1.772057812,0.9720981900000001,-0.8553877235999999,-0.133963518,-0.12280864375999997,0.06309684399999999
03:38:58,-0.4362832900000001,0.86344998,-1.7103581999999997,-0.122875085,-0.139425045,-0.10457345000000001,-9.71809792,27.700240365,-30.58382067,21.455249935,-1.7713388939999999,0.9541550425,-0.8638429006999999,-0.13464046600000001,-0.12169556611999999,0.0649497905
03:38:58,-0.4282256600000002,0.8427179200000001,-1.7211897999999997,-0.12488859000000002,-0.13776843,-0.1033483,-9.73045868,27.688661709999998,-30.59993418,21.44812449,-1.7706199759999999,0.936211895,-0.8722980777999999,-0.13531741400000002,-0.12058248848,0.066802737
03:38:58,-0.42016803000000014,0.8219858599999998,-1.7320213999999998,-0.12690209500000002,-0.136111815,-0.10212315,-9.74281944,27.677083055,-30.616047690000002,21.440999045,-1.769901058,0.9182687475,-0.8807532548999999,-0.135994362,-0.11946941083999998,0.06865568350000001
03:38:58,-0.4121104000000001,0.8012538,-1.7428529999999998,-0.12891560000000002,-0.1344552,-0.10089800000000002,-9.7551802,27.6655044,-30.6321612,21.433873600000002,-1.76918214,0.9003256,-0.889208432,-0.13667131,-0.1183563332,0.07050862999999999
03:38:58,-0.40405277000000017,0.7805217400000002,-1.7536845999999997,-0.13092910500000002,-0.132798585,-0.09967285000000001,-9.76754096,27.653925745,-30.64827471,21.426748155000002,-1.768463222,0.8823824524999999,-0.8976636090999999,-0.137348258,-0.11724325555999998,0.0723615765
03:38:58,-0.39599514000000013,0.7597896799999999,-1.7645161999999996,-0.13294261000000002,-0.13114197,-0.0984477,-9.77990172,27.64234709,-30.66438822,21.419622710000002,-1.767744304,0.8644393050000003,-0.9061187862,-0.138025206,-0.11613017792,0.074214523
03:38:58,-0.3879375100000001,0.7390576200000001,-1.7753477999999998,-0.13495611500000002,-0.129485355,-0.09722255000000002,-9.79226248,27.630768435,-30.68050173,21.412497265000002,-1.767025386,0.8464961575000003,-0.9145739632999998,-0.13870215400000002,-0.11501710027999998,0.07606746949999998
03:38:58,-0.37987988000000017,0.7183255600000003,-1.7861793999999998,-0.13696962000000001,-0.12782874,-0.09599740000000001,-9.80462324,27.61918978,-30.69661524,21.405371820000003,-1.766306468,0.8285530100000003,-0.9230291404,-0.139379102,-0.11390402263999999,0.07792041599999999
03:38:58,-0.37182225000000013,0.6975935,-1.7970109999999997,-0.13898312499999999,-0.126172125,-0.09477225,-9.816984,27.607611125,-30.71272875,21.398246375,-1.76558755,0.8106098625000002,-0.9314843174999998,-0.14005605,-0.11279094499999998,0.0797733625
03:38:58,-0.3637646200000002,0.6768614400000001,-1.8078425999999996,-0.14099663,-0.12451551,-0.0935471,-9.82934476,27.59603247,-30.72884226,21.39112093,-1.764868632,0.7926667150000002,-0.9399394945999999,-0.140732998,-0.11167786735999999,0.08162630900000001
03:38:58,-0.35570699000000006,0.6561293799999999,-1.8186741999999998,-0.14301013499999998,-0.122858895,-0.09232195000000001,-9.84170552,27.584453815,-30.74495577,21.383995485,-1.764149714,0.7747235675000002,-0.9483946716999998,-0.141409946,-0.11056478971999997,0.08347925549999999
03:38:58,-0.34764936000000013,0.63539732,-1.8295057999999997,-0.14502364,-0.12120228,-0.0910968,-9.85406628,27.57287516,-30.76106928,21.37687004,-1.763430796,0.7567804200000001,-0.9568498487999999,-0.14208689400000002,-0.10945171207999999,0.085332202
03:38:58,-0.3395917300000002,0.6146652600000002,-1.8403373999999997,-0.14703714500000004,-0.119545665,-0.08987165,-9.86642704,27.561296504999998,-30.77718279,21.369744595,-1.762711878,0.7388372725000001,-0.9653050259,-0.142763842,-0.10833863444,0.0871851485
03:38:58,-0.33153410000000005,0.5939331999999999,-1.8511689999999998,-0.14905065,-0.11788905,-0.08864650000000002,-9.8787878,27.54971785,-30.7932963,21.36261915,-1.76199296,0.720894125,-0.9737602029999999,-0.14344078999999998,-0.10722555679999998,0.08903809499999998
03:38:58,-0.3234764700000001,0.5732011400000001,-1.8620005999999998,-0.15106415500000003,-0.116232435,-0.08742135000000001,-9.89114856,27.538139195,-30.80940981,21.355493705,-1.761274042,0.7029509775,-0.9822153801,-0.144117738,-0.10611247916,0.09089104149999999
03:38:58,-0.3154188400000002,0.5524690799999998,-1.8728321999999997,-0.15307766,-0.11457582,-0.0861962,-9.90350932,27.52656054,-30.82552332,21.34836826,-1.760555124,0.68500783,-0.9906705571999999,-0.144794686,-0.10499940151999998,0.092743988
03:38:58,-0.30736121000000005,0.53173702,-1.8836637999999997,-0.15509116500000003,-0.112919205,-0.08497104999999999,-9.91587008,27.514981885,-30.84163683,21.341242815,-1.759836206,0.6670646825,-0.9991257343,-0.14547163400000002,-0.10388632387999999,0.09459693450000001
03:38:58,-0.2993035800000001,0.5110049600000002,-1.8944953999999998,-0.15710467,-0.11126259,-0.08374590000000001,-9.92823084,27.50340323,-30.85775034,21.33411737,-1.759117288,0.6491215349999999,-1.0075809113999998,-0.146148582,-0.10277324623999998,0.09644988099999999
03:38:58,-0.2912459500000002,0.4902728999999999,-1.9053269999999998,-0.15911817500000003,-0.109605975,-0.08252075,-9.9405916,27.491824575,-30.87386385,21.326991925,-1.7583983699999999,0.6311783875000003,-1.0160360885,-0.14682553,-0.10166016859999999,0.0983028275
03:38:58,-0.28318832000000005,0.46954084000000007,-1.9161585999999997,-0.16113168,-0.10794936,-0.0812956,-9.95295236,27.480245919999998,-30.88997736,21.31986648,-1.757679452,0.6132352400000003,-1.0244912655999998,-0.147502478,-0.10054709095999997,0.100155774
03:38:58,-0.2751306900000001,0.44880878000000024,-1.9269901999999997,-0.16314518500000003,-0.106292745,-0.08007045000000002,-9.96531312,27.468667265,-30.90609087,21.312741035000002,-1.756960534,0.5952920925000003,-1.0329464427,-0.148179426,-0.09943401331999999,0.10200872050000001
03:38:58,-0.2670730600000002,0.42807671999999997,-1.9378217999999998,-0.16515869,-0.10463613,-0.07884530000000001,-9.97767388,27.45708861,-30.92220438,21.305615590000002,-1.756241616,0.5773489450000002,-1.0414016197999998,-0.148856374,-0.09832093567999997,0.10386166700000002
03:38:58,-0.25901543000000005,0.40734466000000014,-1.9486533999999998,-0.16717219500000002,-0.102979515,-0.07762015,-9.99003464,27.445509955,-30.93831789,21.298490145000002,-1.755522698,0.5594057975000002,-1.0498567968999999,-0.14953332200000002,-0.09720785803999998,0.10571461349999997
03:38:58,-0.2509578000000001,0.38661259999999986,-1.9594849999999997,-0.1691857,-0.1013229,-0.07639500000000002,-10.0023954,27.433931299999998,-30.9544314,21.291364700000003,-1.75480378,0.5414626500000002,-1.058311974,-0.15021027,-0.0960947804,0.10756755999999998
03:38:58,-0.2429001700000002,0.36588054000000003,-1.9703165999999996,-0.17119920500000002,-0.099666285,-0.07516985000000001,-10.01475616,27.422352645,-30.97054491,21.284239255000003,-1.754084862,0.5235195025000001,-1.0667671510999999,-0.150887218,-0.09498170275999998,0.10942050649999999
03:38:58,-0.23484254000000004,0.3451484800000002,-1.9811481999999998,-0.17321271,-0.09800967,-0.0739447,-10.02711692,27.41077399,-30.98665842,21.277113810000003,-1.753365944,0.5055763550000001,-1.0752223282,-0.151564166,-0.09386862512,0.111273453
03:38:58,-0.22678491000000012,0.3244164199999999,-1.9919797999999997,-0.17522621500000002,-0.09635305499999999,-0.07271955,-10.03947768,27.399195334999998,-31.00277193,21.269988365,-1.752647026,0.48763320750000005,-1.0836775052999998,-0.152241114,-0.09275554747999998,0.1131263995
03:38:58,-0.2187272800000002,0.3036843600000001,-2.0028113999999997,-0.17723972,-0.09469643999999999,-0.07149440000000001,-10.05183844,27.38761668,-31.01888544,21.26286292,-1.751928108,0.46969006,-1.0921326824,-0.15291806200000002,-0.09164246983999999,0.11497934600000001
03:38:58,-0.21066965000000004,0.2829522999999998,-2.0136429999999996,-0.17925322500000002,-0.09303982499999999,-0.07026925,-10.0641992,27.376038025,-31.03499895,21.255737475,-1.75120919,0.4517469125,-1.1005878594999998,-0.15359501,-0.09052939219999998,0.11683229250000002
03:38:58,-0.20261202000000011,0.26222024,-2.0244746,-0.18126673,-0.09138320999999999,-0.0690441,-10.076559959999999,27.36445937,-31.05111246,21.24861203,-1.750490272,0.43380376499999995,-1.1090430366,-0.154271958,-0.08941631455999999,0.11868523899999997
03:38:58,-0.1945543900000002,0.24148818000000016,-2.0353062,-0.183280235,-0.08972659499999999,-0.06781895000000002,-10.088920719999999,27.352880714999998,-31.06722597,21.241486585,-1.749771354,0.4158606174999999,-1.1174982136999998,-0.154948906,-0.08830323691999997,0.12053818549999998
03:38:58,-0.18649676000000004,0.2207561199999999,-2.0461378,-0.18529373999999998,-0.08806997999999999,-0.06659380000000001,-10.101281479999999,27.34130206,-31.08333948,21.23436114,-1.749052436,0.39791747000000033,-1.1259533908,-0.155625854,-0.08719015927999998,0.12239113199999999
03:38:58,-0.1784391300000001,0.20002406000000006,-2.0569694,-0.187307245,-0.08641336499999999,-0.06536865,-10.113642239999999,27.329723405,-31.09945299,21.227235695,-1.748333518,0.3799743225000003,-1.1344085678999998,-0.15630280200000002,-0.08607708163999997,0.1242440785
03:38:58,-0.17038150000000019,0.17929200000000023,-2.067801,-0.18932075000000004,-0.08475674999999999,-0.06414350000000002,-10.126002999999999,27.31814475,-31.1155665,21.22011025,-1.7476146,0.36203117500000026,-1.1428637449999999,-0.15697975,-0.08496400399999998,0.126097025
03:38:58,-0.16232387000000004,0.15855993999999995,-2.0786325999999997,-0.191334255,-0.08310013500000002,-0.06291835000000001,-10.138363759999999,27.306566095,-31.13168001,21.212984805,-1.746895682,0.3440880275000002,-1.1513189221,-0.157656698,-0.08385092636,0.1279499715
03:38:58,-0.1542662400000001,0.13782788000000012,-2.0894641999999997,-0.19334776000000004,-0.08144351999999999,-0.061693200000000004,-10.150724519999999,27.29498744,-31.14779352,21.20585936,-1.7461767639999999,0.3261448800000002,-1.1597740991999999,-0.158333646,-0.08273784871999998,0.12980291800000002
03:38:58,-0.14620861000000018,0.11709581999999985,-2.1002957999999996,-0.195361265,-0.07978690499999996,-0.060468049999999995,-10.163085279999999,27.283408785,-31.16390703,21.198733915000002,-1.7454578459999999,0.30820173250000016,-1.1682292763,-0.159010594,-0.08162477107999999,0.13165586449999997
03:38:58,-0.13815098000000003,0.09636376000000002,-2.1111274,-0.19737477000000003,-0.07813028999999999,-0.059242900000000015,-10.175446039999999,27.271830129999998,-31.18002054,21.191608470000002,-1.7447389279999999,0.2902585850000001,-1.1766844533999998,-0.15968754200000002,-0.08051169343999998,0.13350881099999998
03:38:58,-0.1300933500000001,0.07563170000000019,-2.121959,-0.199388275,-0.07647367500000002,-0.05801775000000001,-10.187806799999999,27.260251475,-31.19613405,21.184483025000002,-1.74402001,0.2723154375000001,-1.1851396305,-0.16036449000000003,-0.07939861579999999,0.13536175749999999
03:38:58,-0.12203572000000018,0.054899639999999916,-2.1327906,-0.20140178000000003,-0.07481705999999999,-0.0567926,-10.200167559999999,27.24867282,-31.21224756,21.177357580000002,-1.743301092,0.25437229000000006,-1.1935948075999998,-0.161041438,-0.07828553815999997,0.137214704
03:38:58,-0.11397809000000003,0.034167580000000086,-2.1436222,-0.203415285,-0.07316044499999996,-0.05556745000000002,-10.212528319999999,27.237094165,-31.22836107,21.170232135000003,-1.742582174,0.23642914250000002,-1.2020499847,-0.161718386,-0.07717246051999999,0.1390676505
03:38:58,-0.1059204600000001,0.013435520000000256,-2.1544537999999998,-0.20542879000000003,-0.07150382999999999,-0.05434230000000001,-10.224889079999999,27.225515509999997,-31.24447458,21.16310669,-1.741863256,0.218485995,-1.2105051617999998,-0.162395334,-0.07605938287999997,0.140920597
03:38:58,-0.09786283000000018,-0.007296540000000018,-2.1652853999999997,-0.207442295,-0.06984721500000002,-0.05311715,-10.237249839999999,27.213936855,-31.26058809,21.155981245,-1.741144338,0.20054284749999995,-1.2189603388999999,-0.163072282,-0.07494630523999998,0.14277354350000002
03:38:58,-0.08980520000000025,-0.028028599999999848,-2.1761169999999996,-0.20945580000000003,-0.06819059999999999,-0.05189200000000002,-10.249610599999999,27.2023582,-31.2767016,21.1488558,-1.74042542,0.18259969999999992,-1.227415516,-0.16374923000000002,-0.0738332276,0.14462649000000002
03:38:58,-0.0817475700000001,-0.04876066000000012,-2.1869486,-0.211469305,-0.06653398499999996,-0.05066685000000001,-10.261971359999999,27.190779544999998,-31.29281511,21.141730355,-1.739706502,0.16465655250000033,-1.2358706930999999,-0.164426178,-0.07272014995999998,0.14647943649999998
03:38:58,-0.07368994000000018,-0.06949271999999995,-2.1977802,-0.21348281000000002,-0.06487736999999999,-0.049441700000000005,-10.274332119999999,27.17920089,-31.30892862,21.13460491,-1.738987584,0.1467134050000003,-1.2443258702,-0.165103126,-0.07160707231999999,0.14833238299999998
03:38:58,-0.06563231000000025,-0.09022477999999978,-2.2086118,-0.215496315,-0.06322075500000002,-0.04821655,-10.28669288,27.167622235,-31.32504213,21.127479465,-1.738268666,0.12877025750000026,-1.2527810472999998,-0.165780074,-0.07049399467999998,0.1501853295
03:38:58,-0.0575746800000001,-0.11095684000000006,-2.2194434,-0.21750982000000002,-0.06156413999999999,-0.046991400000000016,-10.29905364,27.15604358,-31.34115564,21.12035402,-1.737549748,0.11082711000000023,-1.2612362244,-0.166457022,-0.06938091703999999,0.152038276
03:38:58,-0.04951705000000017,-0.1316888999999999,-2.230275,-0.219523325,-0.05990752499999996,-0.04576625000000001,-10.3114144,27.144464924999998,-31.35726915,21.113228575,-1.73683083,0.0928839625000002,-1.2696914014999998,-0.16713397000000002,-0.06826783939999997,0.1538912225
03:38:58,-0.04145942000000025,-0.15242096000000016,-2.2411065999999997,-0.22153683000000002,-0.05825090999999999,-0.0445411,-10.32377516,27.13288627,-31.37338266,21.10610313,-1.736111912,0.07494081500000016,-1.2781465786,-0.167810918,-0.06715476175999999,0.15574416900000002
03:38:58,-0.0334017900000001,-0.17315302,-2.2519381999999997,-0.223550335,-0.05659429500000002,-0.04331595000000002,-10.33613592,27.121307615,-31.38949617,21.098977685,-1.735392994,0.056997667500000126,-1.2866017556999998,-0.168487866,-0.06604168411999997,0.15759711550000002
03:38:58,-0.02534416000000017,-0.19388507999999982,-2.2627697999999996,-0.22556384000000002,-0.05493767999999999,-0.04209080000000001,-10.34849668,27.109728959999998,-31.405609679999998,21.09185224,-1.734674076,0.03905452000000009,-1.2950569328,-0.169164814,-0.06492860647999998,0.15945006199999998
03:38:58,-0.017286530000000244,-0.2146171400000001,-2.2736014,-0.227577345,-0.05328106499999996,-0.04086565,-10.36085744,27.098150304999997,-31.42172319,21.084726795,-1.7339551579999999,0.02111137250000006,-1.3035121098999998,-0.169841762,-0.06381552883999997,0.16130300849999998
03:38:58,-0.009228900000000095,-0.23534919999999993,-2.284433,-0.22959085,-0.05162444999999999,-0.039640499999999995,-10.3732182,27.08657165,-31.4378367,21.077601350000002,-1.7332362399999999,0.0031682250000000245,-1.3119672869999999,-0.17051871000000002,-0.06270245119999998,0.163155955
03:38:58,-0.0011712700000001686,-0.25608125999999976,-2.2952646,-0.23160435500000004,-0.049967835000000016,-0.038415350000000015,-10.38557896,27.074992995,-31.45395021,21.070475905000002,-1.7325173219999999,-0.01477492250000001,-1.3204224641,-0.171195658,-0.061589373559999994,0.1650089015
03:38:58,0.006886359999999758,-0.27681332000000003,-2.3060962,-0.23361786,-0.04831121999999999,-0.03719020000000001,-10.39793972,27.063414339999998,-31.47006372,21.063350460000002,-1.731798404,-0.032718070000000044,-1.3288776411999998,-0.171872606,-0.06047629591999998,0.166861848
03:38:58,0.014943989999999907,-0.29754537999999986,-2.3169277999999998,-0.23563136500000004,-0.04665460499999996,-0.03596505,-10.41030048,27.051835685,-31.48617723,21.056225015000003,-1.731079486,-0.05066121749999963,-1.3373328183,-0.172549554,-0.05936321827999999,0.16871479450000001
03:38:58,0.023001619999999834,-0.31827744000000013,-2.3277593999999997,-0.23764487,-0.04499798999999999,-0.03473990000000002,-10.42266124,27.04025703,-31.50229074,21.049099570000003,-1.730360568,-0.06860436499999967,-1.3457879953999998,-0.173226502,-0.058250140639999975,0.17056774100000002
03:38:58,0.03105924999999976,-0.33900949999999996,-2.3385909999999996,-0.23965837500000003,-0.043341375000000015,-0.03351475000000001,-10.435022,27.028678375,-31.51840425,21.041974125000003,-1.72964165,-0.0865475124999997,-1.3542431725,-0.17390345000000001,-0.05713706299999999,0.17242068749999998
03:38:58,0.03911687999999991,-0.3597415599999998,-2.3494225999999996,-0.24167188,-0.04168475999999999,-0.0322896,-10.44738276,27.017099719999997,-31.53451776,21.03484868,-1.728922732,-0.10449065999999974,-1.3626983495999998,-0.17458039800000003,-0.05602398535999997,0.17427363399999998
03:38:58,0.047174509999999836,-0.38047362000000007,-2.3602542,-0.24368538500000003,-0.04002814499999996,-0.03106445000000002,-10.45974352,27.005521065,-31.55063127,21.027723235,-1.728203814,-0.12243380749999977,-1.3711535267,-0.175257346,-0.054910907719999985,0.1761265805
03:38:58,0.05523213999999976,-0.4012056799999999,-2.3710858,-0.24569889,-0.03837152999999999,-0.029839300000000013,-10.47210428,26.99394241,-31.56674478,21.02059779,-1.727484896,-0.1403769549999998,-1.3796087037999998,-0.175934294,-0.05379783007999997,0.177979527
03:38:58,0.06328976999999991,-0.42193774000000017,-2.3819174,-0.24771239500000003,-0.036714915000000015,-0.028614150000000005,-10.48446504,26.982363754999998,-31.58285829,21.013472345,-1.726765978,-0.15832010249999984,-1.3880638808999999,-0.176611242,-0.05268475243999998,0.1798324735
03:38:58,0.07134739999999984,-0.4426698,-2.392749,-0.2497259,-0.03505829999999999,-0.027388999999999997,-10.4968258,26.9707851,-31.5989718,21.0063469,-1.72604706,-0.17626324999999987,-1.3965190579999998,-0.17728819,-0.05157167479999997,0.18168542000000001
03:38:58,0.07940502999999977,-0.46340185999999983,-2.4035805999999997,-0.251739405,-0.03340168499999996,-0.026163850000000016,-10.50918656,26.959206445,-31.615085309999998,20.999221455,-1.725328142,-0.1942063974999999,-1.4049742350999999,-0.17796513800000002,-0.05045859715999998,0.18353836650000002
03:38:58,0.08746265999999991,-0.4841339200000001,-2.4144121999999997,-0.25375291,-0.031745069999999986,-0.024938700000000008,-10.52154732,26.94762779,-31.631198819999998,20.99209601,-1.724609224,-0.21214954499999994,-1.4134294122,-0.178642086,-0.04934551951999999,0.18539131299999997
03:38:58,0.09552028999999984,-0.5048659799999999,-2.4252437999999996,-0.255766415,-0.030088455000000014,-0.02371355,-10.53390808,26.936049134999998,-31.64731233,20.984970565,-1.723890306,-0.23009269249999997,-1.4218845892999998,-0.179319034,-0.04823244187999998,0.18724425949999998
03:38:58,0.10357791999999977,-0.5255980399999998,-2.4360753999999996,-0.25777992,-0.028431839999999986,-0.02248840000000002,-10.54626884,26.92447048,-31.66342584,20.97784512,-1.723171388,-0.24803584,-1.4303397664,-0.179995982,-0.04711936423999999,0.189097206
03:38:58,0.11163554999999992,-0.5463301,-2.446907,-0.259793425,-0.026775224999999958,-0.02126325000000001,-10.5586296,26.912891825,-31.67953935,20.970719675,-1.72245247,-0.26597898750000004,-1.4387949434999998,-0.18067293,-0.046006286599999974,0.1909501525
03:38:58,0.11969317999999984,-0.5670621599999999,-2.4577386,-0.26180693,-0.025118609999999986,-0.020038100000000003,-10.57099036,26.901313169999998,-31.69565286,20.96359423,-1.721733552,-0.28392213499999963,-1.4472501206,-0.18134987800000002,-0.044893208959999986,0.192803099
03:38:58,0.12775080999999977,-0.5877942200000001,-2.4685702,-0.263820435,-0.023461995000000013,-0.018812950000000023,-10.58335112,26.889734514999997,-31.71176637,20.956468785000002,-1.7210146339999999,-0.30186528249999967,-1.4557052976999998,-0.182026826,-0.04378013131999997,0.1946560455
03:38:58,0.13580843999999992,-0.60852628,-2.4794017999999998,-0.26583394,-0.021805379999999985,-0.017587800000000015,-10.59571188,26.87815586,-31.72787988,20.949343340000002,-1.7202957159999999,-0.3198084299999997,-1.4641604748,-0.182703774,-0.04266705367999998,0.19650899200000002
03:38:58,0.14386606999999985,-0.6292583399999998,-2.4902333999999997,-0.267847445,-0.020148764999999957,-0.016362650000000006,-10.60807264,26.866577205,-31.74399339,20.942217895000002,-1.7195767979999999,-0.33775157749999973,-1.4726156518999998,-0.183380722,-0.04155397603999997,0.19836193849999997
03:38:58,0.15192369999999977,-0.6499904000000001,-2.5010649999999996,-0.26986095,-0.018492149999999985,-0.015137499999999998,-10.6204334,26.854998549999998,-31.7601069,20.935092450000003,-1.7188578799999998,-0.35569472499999977,-1.4810708289999999,-0.18405767,-0.04044089839999998,0.20021488499999998
03:38:58,0.15998132999999992,-0.6707224599999999,-2.5118966,-0.271874455,-0.016835535000000013,-0.013912350000000018,-10.63279416,26.843419894999997,-31.77622041,20.927967005,-1.7181389619999998,-0.3736378724999998,-1.4895260060999997,-0.18473461800000002,-0.039327820759999965,0.2020678315
03:38:58,0.16803895999999985,-0.6914545200000002,-2.5227282,-0.27388796,-0.015178919999999985,-0.01268720000000001,-10.64515492,26.83184124,-31.79233392,20.92084156,-1.717420044,-0.39158101999999984,-1.4979811831999998,-0.185411566,-0.03821474311999998,0.203920778
03:38:58,0.17609658999999978,-0.7121865799999996,-2.5335598,-0.275901465,-0.013522304999999957,-0.011462050000000001,-10.65751568,26.820262585,-31.80844743,20.913716115,-1.716701126,-0.40952416749999987,-1.5064363603,-0.186088514,-0.03710166547999999,0.2057737245
03:38:58,0.18415421999999992,-0.7329186399999998,-2.5443914,-0.27791497000000004,-0.011865689999999984,-0.010236900000000021,-10.66987644,26.808683929999997,-31.824560939999998,20.90659067,-1.715982208,-0.4274673149999999,-1.5148915373999998,-0.186765462,-0.035988587839999975,0.207626671
03:38:58,0.19221184999999985,-0.7536507000000001,-2.555223,-0.279928475,-0.010209075000000012,-0.009011750000000013,-10.6822372,26.797105275,-31.840674449999998,20.899465225,-1.71526329,-0.44541046249999994,-1.5233467145,-0.18744241,-0.03487551019999999,0.20947961750000002
03:38:58,0.20026947999999978,-0.7743827600000004,-2.5660545999999997,-0.28194198000000004,-0.008552459999999984,-0.007786600000000005,-10.69459796,26.78552662,-31.85678796,20.89233978,-1.714544372,-0.46335360999999997,-1.5318018915999998,-0.18811935800000001,-0.03376243255999997,0.21133256399999997
03:38:58,0.20832710999999993,-0.7951148199999998,-2.5768861999999997,-0.283955485,-0.006895844999999956,-0.0065614499999999965,-10.70695872,26.773947964999998,-31.87290147,20.885214335,-1.713825454,-0.4812967575,-1.5402570687,-0.188796306,-0.032649354919999984,0.21318551049999998
03:38:58,0.21638473999999985,-0.81584688,-2.5877178,-0.28596899000000003,-0.005239229999999984,-0.005336300000000016,-10.71931948,26.762369309999997,-31.88901498,20.87808889,-1.713106536,-0.49923990500000004,-1.5487122457999998,-0.189473254,-0.03153627727999997,0.215038457
03:38:58,0.22444236999999978,-0.8365789400000003,-2.5985494,-0.287982495,-0.003582615000000011,-0.004111150000000008,-10.73168024,26.750790655,-31.90512849,20.870963445,-1.712387618,-0.5171830524999996,-1.5571674228999999,-0.19015020200000002,-0.03042319963999998,0.2168914035
03:38:59,0.2325,-0.857311,-2.609381,-0.289996,-0.001926,-0.002886,-10.744041,26.739212,-31.921242,20.863838,-1.7116687,-0.5351262,-1.5656226,-0.19082715,-0.029310122,0.21874435
03:38:59,0.231900145,-0.85548353,-2.60138061,-0.2876256,-0.00013089000000000004,-0.0012720000000000001,-10.73410852,26.73346079,-31.929475945,20.836356665,-1.7062293543,-0.5345833637,-1.5611053645,-0.1881849809,-0.02742502804,0.217719899055
03:38:59,0.23130029000000002,-0.85365606,-2.59338022,-0.2852552,0.00166422,0.00034199999999999986,-10.72417604,26.72770958,-31.93770989,20.808875330000003,-1.7007900085999998,-0.5340405274,-1.5565881289999999,-0.1855428118,-0.02553993408,0.21669544811
03:38:59,0.230700435,-0.85182859,-2.58537983,-0.2828848,0.00345933,0.001956,-10.71424356,26.72195837,-31.945943834999998,20.781393995000002,-1.6953506629,-0.5334976911,-1.5520708935,-0.1829006427,-0.02365484012,0.21567099716500002
03:38:59,0.23010058,-0.85000112,-2.57737944,-0.2805144,0.00525444,0.00357,-10.70431108,26.71620716,-31.95417778,20.75391266,-1.6899113172,-0.5329548548,-1.547553658,-0.1802584736,-0.021769746160000002,0.21464654622
03:38:59,0.22950072500000002,-0.84817365,-2.5693790499999998,-0.278144,0.007049549999999999,0.005184000000000001,-10.694378599999999,26.71045595,-31.962411725,20.726431325,-1.6844719714999998,-0.5324120185,-1.5430364225,-0.1776163045,-0.019884652200000002,0.213622095275
03:38:59,0.22890087,-0.8463461800000001,-2.56137866,-0.27577359999999995,0.008844659999999999,0.006798,-10.684446119999999,26.704704739999997,-31.97064567,20.698949990000003,-1.6790326258,-0.5318691822,-1.538519187,-0.1749741354,-0.01799955824,0.21259764433
03:38:59,0.22830101500000002,-0.84451871,-2.55337827,-0.27340319999999996,0.01063977,0.008412,-10.674513639999999,26.698953529999997,-31.978879615,20.671468655,-1.6735932801,-0.5313263458999999,-1.5340019515,-0.1723319663,-0.016114464280000004,0.211573193385
03:38:59,0.22770116,-0.8426912400000001,-2.5453778799999998,-0.27103279999999996,0.012434879999999999,0.010026,-10.66458116,26.693202319999997,-31.98711356,20.64398732,-1.6681539344,-0.5307835096,-1.529484716,-0.1696897972,-0.014229370320000002,0.21054874244
03:38:59,0.227101305,-0.84086377,-2.53737749,-0.26866239999999997,0.014229989999999998,0.011640000000000001,-10.65464868,26.687451109999998,-31.995347504999998,20.616505985,-1.6627145886999999,-0.5302406733,-1.5249674805,-0.1670476281,-0.012344276360000003,0.20952429149500001
03:38:59,0.22650145000000002,-0.8390363000000001,-2.5293771,-0.266292,0.016025099999999997,0.013254000000000002,-10.6447162,26.681699899999998,-32.00358145,20.589024650000002,-1.657275243,-0.529697837,-1.520450245,-0.164405459,-0.010459182400000003,0.20849984055
03:38:59,0.225901595,-0.83720883,-2.5213767099999997,-0.2639216,0.01782021,0.014868,-10.63478372,26.67594869,-32.011815395,20.561543315,-1.6518358973,-0.5291550007,-1.5159330094999999,-0.1617632899,-0.008574088440000002,0.207475389605
03:38:59,0.22530174,-0.8353813600000001,-2.51337632,-0.2615512,0.01961532,0.016482,-10.62485124,26.67019748,-32.02004934,20.53406198,-1.6463965515999999,-0.5286121644,-1.511415774,-0.15912112080000002,-0.006688994480000002,0.20645093866
03:38:59,0.22470188500000002,-0.83355389,-2.50537593,-0.2591808,0.021410429999999998,0.018096,-10.61491876,26.66444627,-32.028283285,20.506580645,-1.6409572059,-0.5280693281,-1.5068985385,-0.1564789517,-0.004803900520000001,0.205426487715
03:38:59,0.22410203,-0.8317264200000001,-2.49737554,-0.2568104,0.02320554,0.01971,-10.604986279999999,26.65869506,-32.03651723,20.479099310000002,-1.6355178602,-0.5275264918,-1.502381303,-0.1538367826,-0.002918806560000004,0.20440203677000002
03:38:59,0.22350217500000003,-0.82989895,-2.48937515,-0.25444,0.02500065,0.021324,-10.595053799999999,26.65294385,-32.044751175,20.451617975,-1.6300785144999999,-0.5269836555,-1.4978640675,-0.1511946135,-0.0010337126000000037,0.203377585825
03:38:59,0.22290232000000001,-0.8280714800000001,-2.48137476,-0.2520696,0.02679576,0.022938,-10.585121319999999,26.64719264,-32.05298512,20.42413664,-1.6246391688,-0.5264408192,-1.493346832,-0.14855244439999998,0.0008513813599999968,0.20235313488
03:38:59,0.222302465,-0.82624401,-2.47337437,-0.24969919999999998,0.028590869999999997,0.024552,-10.57518884,26.641441429999997,-32.061219064999996,20.396655305,-1.6191998231,-0.5258979829,-1.4888295965,-0.1459102753,0.002736475319999994,0.201328683935
03:38:59,0.22170261000000002,-0.8244165400000001,-2.46537398,-0.24732879999999996,0.030385979999999996,0.026166000000000002,-10.56525636,26.635690219999997,-32.06945301,20.369173970000002,-1.6137604773999998,-0.5253551466,-1.484312361,-0.1432681062,0.004621569279999994,0.20030423299
03:38:59,0.221102755,-0.82258907,-2.45737359,-0.24495839999999997,0.03218109,0.02778,-10.55532388,26.629939009999998,-32.077686955,20.341692635,-1.6083211317,-0.5248123103,-1.4797951255,-0.1406259371,0.006506663239999995,0.199279782045
03:38:59,0.2205029,-0.8207616,-2.4493732,-0.24258799999999997,0.0339762,0.029394000000000003,-10.5453914,26.624187799999998,-32.0859209,20.3142113,-1.602881786,-0.524269474,-1.47527789,-0.137983768,0.008391757199999995,0.19825533110000002
03:38:59,0.21990304500000002,-0.81893413,-2.44137281,-0.24021759999999998,0.03577131,0.031008,-10.53545892,26.618436589999998,-32.094154845,20.286729965000003,-1.5974424403,-0.5237266377,-1.4707606545,-0.1353415989,0.010276851159999996,0.197230880155
03:38:59,0.21930319,-0.8171066600000001,-2.43337242,-0.23784719999999998,0.03756642,0.032622,-10.52552644,26.61268538,-32.10238879,20.259248630000002,-1.5920030946,-0.5231838014,-1.466243419,-0.1326994298,0.012161945119999996,0.19620642921
03:38:59,0.218703335,-0.81527919,-2.42537203,-0.2354768,0.03936153,0.034236,-10.515593959999999,26.60693417,-32.110622735,20.231767295,-1.5865637489,-0.5226409651,-1.4617261835,-0.1300572607,0.014047039079999997,0.195181978265
03:38:59,0.21810348000000002,-0.81345172,-2.41737164,-0.2331064,0.04115664,0.03585,-10.505661479999999,26.60118296,-32.11885668,20.20428596,-1.5811244032,-0.5220981288,-1.457208948,-0.1274150916,0.015932133039999997,0.19415752732
03:38:59,0.217503625,-0.81162425,-2.40937125,-0.23073599999999997,0.042951750000000004,0.037464,-10.495728999999999,26.59543175,-32.127090625,20.176804625000003,-1.5756850574999999,-0.5215552925,-1.4526917125,-0.1247729225,0.017817226999999998,0.193133076375
03:38:59,0.21690377000000002,-0.80979678,-2.40137086,-0.22836559999999997,0.04474686,0.039078,-10.48579652,26.58968054,-32.13532457,20.14932329,-1.5702457118,-0.5210124562,-1.448174477,-0.1221307534,0.01970232096,0.19210862543
03:38:59,0.216303915,-0.80796931,-2.39337047,-0.22599519999999998,0.04654197,0.040692,-10.47586404,26.58392933,-32.143558515,20.121841955,-1.5648063661,-0.5204696199,-1.4436572415,-0.11948858429999999,0.021587414919999992,0.191084174485
03:38:59,0.21570406,-0.80614184,-2.38537008,-0.22362479999999998,0.048337080000000004,0.042305999999999996,-10.46593156,26.578178119999997,-32.151792459999996,20.09436062,-1.5593670203999999,-0.5199267836,-1.439140006,-0.1168464152,0.023472508879999993,0.19005972354
03:38:59,0.21510420500000002,-0.8043143700000001,-2.37736969,-0.22125439999999996,0.05013219,0.04392,-10.45599908,26.572426909999997,-32.160026404999996,20.066879285000002,-1.5539276747,-0.5193839473,-1.4346227705,-0.11420424609999999,0.025357602839999993,0.189035272595
03:38:59,0.21450435,-0.8024869,-2.3693693,-0.21888399999999997,0.0519273,0.045534,-10.4460666,26.566675699999998,-32.16826035,20.03939795,-1.548488329,-0.518841111,-1.430105535,-0.111562077,0.027242696799999994,0.18801082165
03:38:59,0.213904495,-0.8006594300000001,-2.36136891,-0.21651359999999997,0.05372241,0.047148,-10.43613412,26.560924489999998,-32.176494295,20.011916615,-1.5430489832999998,-0.5182982747,-1.4255882995,-0.10891990789999999,0.029127790759999994,0.18698637070500002
03:38:59,0.21330464000000002,-0.79883196,-2.35336852,-0.21414319999999998,0.05551752,0.048762,-10.426201639999999,26.555173279999998,-32.18472824,19.98443528,-1.5376096376,-0.5177554384,-1.421071064,-0.1062777388,0.031012884719999995,0.18596191976
03:38:59,0.212704785,-0.7970044900000001,-2.3453681299999998,-0.21177279999999998,0.05731263,0.050376,-10.416269159999999,26.54942207,-32.192962185,19.956953945000002,-1.5321702919,-0.5172126021,-1.4165538285000001,-0.1036355697,0.032897978679999995,0.184937468815
03:38:59,0.21210493000000002,-0.79517702,-2.33736774,-0.2094024,0.05910774,0.05199,-10.406336679999999,26.54367086,-32.20119613,19.92947261,-1.5267309461999998,-0.5166697658,-1.412036593,-0.10099340059999999,0.03478307263999999,0.18391301787
03:38:59,0.21150507500000001,-0.7933495500000001,-2.32936735,-0.207032,0.060902849999999994,0.053604,-10.3964042,26.53791965,-32.209430075,19.901991275,-1.5212916005,-0.5161269294999999,-1.4075193575,-0.0983512315,0.03666816659999999,0.182888566925
03:38:59,0.21090522,-0.79152208,-2.3213669599999998,-0.20466159999999997,0.06269796,0.055218,-10.38647172,26.53216844,-32.21766402,19.87450994,-1.5158522548,-0.5155840932,-1.403002122,-0.09570906239999999,0.03855326055999999,0.18186411598000002
03:38:59,0.21030536500000002,-0.7896946100000001,-2.31336657,-0.20229119999999998,0.06449307,0.056832,-10.37653924,26.52641723,-32.225897965,19.847028605000002,-1.5104129091,-0.5150412569,-1.3984848865,-0.0930668933,0.04043835451999999,0.180839665035
03:38:59,0.20970551,-0.78786714,-2.30536618,-0.19992079999999998,0.06628818,0.058446,-10.36660676,26.52066602,-32.23413191,19.81954727,-1.5049735633999999,-0.5144984206,-1.393967651,-0.09042472419999999,0.04232344847999999,0.17981521409
03:38:59,0.209105655,-0.7860396700000001,-2.2973657899999997,-0.19755039999999996,0.06808329,0.06006,-10.35667428,26.514914809999997,-32.242365854999996,19.792065935,-1.4995342177,-0.5139555843,-1.3894504155,-0.08778255509999999,0.04420854243999999,0.178790763145
03:38:59,0.20850580000000002,-0.7842122,-2.2893654,-0.19517999999999996,0.0698784,0.06167400000000001,-10.3467418,26.509163599999997,-32.250599799999996,19.7645846,-1.494094872,-0.513412748,-1.38493318,-0.08514038599999998,0.04609363639999999,0.1777663122
03:38:59,0.207905945,-0.78238473,-2.28136501,-0.19280959999999997,0.07167351,0.063288,-10.336809319999999,26.503412389999998,-32.258833745,19.737103265000002,-1.4886555262999999,-0.5128699117,-1.3804159445,-0.08249821689999999,0.04797873035999999,0.176741861255
03:38:59,0.20730609,-0.78055726,-2.2733646199999997,-0.19043919999999998,0.07346862,0.064902,-10.326876839999999,26.497661179999998,-32.26706769,19.70962193,-1.4832161806,-0.5123270754,-1.3758987089999999,-0.0798560478,0.04986382431999999,0.17571741031
03:38:59,0.20670623500000002,-0.7787297900000001,-2.26536423,-0.18806879999999998,0.07526373,0.066516,-10.316944359999999,26.49190997,-32.275301635,19.682140595,-1.4777768349,-0.5117842391,-1.3713814735,-0.07721387869999999,0.05174891827999999,0.174692959365
03:38:59,0.20610638,-0.77690232,-2.25736384,-0.18569839999999999,0.07705884,0.06813,-10.30701188,26.48615876,-32.28353558,19.654659260000003,-1.4723374891999998,-0.5112414028,-1.366864238,-0.0745717096,0.053634012239999994,0.17366850842
03:38:59,0.205506525,-0.77507485,-2.24936345,-0.183328,0.07885395,0.069744,-10.2970794,26.48040755,-32.291769525,19.627177925,-1.4668981435,-0.5106985665,-1.3623470025,-0.07192954049999999,0.055519106199999994,0.172644057475
03:38:59,0.20490667,-0.77324738,-2.24136306,-0.1809576,0.08064906,0.071358,-10.28714692,26.47465634,-32.30000347,19.59969659,-1.4614587978,-0.5101557302,-1.357829767,-0.06928737139999999,0.057404200159999995,0.17161960653
03:38:59,0.204306815,-0.77141991,-2.23336267,-0.17858719999999997,0.08244417,0.072972,-10.27721444,26.46890513,-32.308237415,19.572215255,-1.4560194521,-0.5096128939,-1.3533125315,-0.06664520229999998,0.059289294119999995,0.170595155585
03:38:59,0.20370696000000002,-0.76959244,-2.22536228,-0.17621679999999998,0.08423928,0.074586,-10.26728196,26.46315392,-32.31647136,19.544733920000002,-1.4505801064,-0.5090700576,-1.348795296,-0.0640030332,0.061174388079999996,0.16957070464000001
03:38:59,0.203107105,-0.76776497,-2.21736189,-0.17384639999999998,0.08603439,0.0762,-10.25734948,26.45740271,-32.324705305,19.517252585,-1.4451407607,-0.5085272213,-1.3442780605,-0.061360864099999995,0.06305948204,0.168546253695
03:38:59,0.20250725,-0.7659375,-2.2093615,-0.17147599999999996,0.0878295,0.077814,-10.247416999999999,26.451651499999997,-32.332939249999995,19.48977125,-1.439701415,-0.507984385,-1.339760825,-0.05871869499999999,0.064944576,0.16752180275
03:38:59,0.20190739500000002,-0.76411003,-2.20136111,-0.16910559999999997,0.08962461,0.079428,-10.237484519999999,26.445900289999997,-32.341173194999996,19.462289915,-1.4342620692999999,-0.5074415487,-1.3352435895,-0.05607652589999998,0.06682966996,0.166497351805
03:38:59,0.20130754,-0.76228256,-2.19336072,-0.16673519999999997,0.09141972,0.081042,-10.227552039999999,26.440149079999998,-32.34940714,19.434808580000002,-1.4288227236,-0.5068987124,-1.330726354,-0.0534343568,0.06871476392,0.16547290086
03:38:59,0.20070768500000002,-0.76045509,-2.18536033,-0.16436479999999998,0.09321483,0.082656,-10.21761956,26.434397869999998,-32.357641085,19.407327245,-1.4233833779,-0.5063558761,-1.3262091185,-0.05079218769999999,0.07059985788,0.16444844991500002
03:38:59,0.20010783000000001,-0.7586276200000001,-2.17735994,-0.16199439999999998,0.09500994,0.08427,-10.20768708,26.42864666,-32.36587503,19.37984591,-1.4179440321999999,-0.5058130398,-1.321691883,-0.04815001859999998,0.07248495183999998,0.16342399897
03:38:59,0.199507975,-0.75680015,-2.16935955,-0.159624,0.09680505,0.085884,-10.1977546,26.42289545,-32.374108975,19.352364575,-1.4125046865,-0.5052702035,-1.3171746475,-0.045507849499999975,0.07437004579999998,0.162399548025
03:38:59,0.19890812000000002,-0.7549726800000001,-2.16135916,-0.1572536,0.09860016,0.08749799999999999,-10.18782212,26.41714424,-32.38234292,19.324883240000002,-1.4070653408,-0.5047273672,-1.312657412,-0.042865680399999995,0.07625513975999998,0.16137509708
03:38:59,0.198308265,-0.75314521,-2.15335877,-0.15488319999999997,0.10039527,0.089112,-10.17788964,26.41139303,-32.390576865,19.297401905,-1.4016259950999999,-0.5041845309,-1.3081401765,-0.04022351129999999,0.07814023371999998,0.160350646135
03:38:59,0.19770841,-0.7513177400000001,-2.14535838,-0.15251279999999998,0.10219038,0.090726,-10.16795716,26.40564182,-32.39881081,19.26992057,-1.3961866494,-0.5036416946,-1.303622941,-0.03758134219999998,0.08002532767999998,0.15932619519000002
03:38:59,0.19710855500000002,-0.74949027,-2.13735799,-0.15014239999999998,0.10398549,0.09234,-10.15802468,26.39989061,-32.407044755,19.242439235,-1.3907473037,-0.5030988583,-1.2991057055,-0.0349391731,0.08191042163999998,0.158301744245
03:38:59,0.1965087,-0.7476628000000001,-2.1293576,-0.147772,0.1057806,0.093954,-10.148092199999999,26.3941394,-32.4152787,19.2149579,-1.3853079579999998,-0.502556022,-1.2945884699999999,-0.03229700399999999,0.08379551559999998,0.1572772933
03:38:59,0.195908845,-0.74583533,-2.12135721,-0.1454016,0.10757571,0.095568,-10.138159719999999,26.38838819,-32.423512645,19.187476565,-1.3798686123,-0.5020131857,-1.2900712345,-0.029654834899999982,0.08568060955999998,0.156252842355
03:38:59,0.19530899000000002,-0.74400786,-2.11335682,-0.14303119999999997,0.10937082,0.097182,-10.12822724,26.382636979999997,-32.431746589999996,19.15999523,-1.3744292666,-0.5014703494,-1.285553999,-0.027012665799999974,0.08756570351999998,0.15522839141
03:38:59,0.194709135,-0.74218039,-2.10535643,-0.14066079999999997,0.11116593,0.098796,-10.11829476,26.376885769999998,-32.439980535,19.132513895000002,-1.3689899208999998,-0.5009275130999999,-1.2810367635,-0.024370496699999994,0.08945079747999998,0.15420394046500002
03:38:59,0.19410928,-0.7403529200000001,-2.09735604,-0.13829039999999998,0.11296104,0.10041,-10.10836228,26.371134559999998,-32.44821448,19.10503256,-1.3635505752,-0.5003846768,-1.2765195280000001,-0.021728327599999986,0.09133589143999998,0.15317948952
03:38:59,0.193509425,-0.73852545,-2.08935565,-0.13591999999999999,0.11475615,0.102024,-10.0984298,26.36538335,-32.456448425,19.077551225,-1.3581112295,-0.4998418405,-1.2720022925,-0.019086158499999978,0.09322098539999998,0.152155038575
03:38:59,0.19290957,-0.73669798,-2.08135526,-0.1335496,0.11655126,0.103638,-10.08849732,26.35963214,-32.46468237,19.05006989,-1.3526718838,-0.4992990042,-1.267485057,-0.016443989399999998,0.09510607935999998,0.15113058763
03:38:59,0.192309715,-0.73487051,-2.07335487,-0.13117919999999997,0.11834636999999999,0.105252,-10.07856484,26.35388093,-32.472916315,19.022588555000002,-1.3472325380999999,-0.4987561679,-1.2629678215,-0.01380182029999999,0.09699117331999998,0.150106136685
03:38:59,0.19170986,-0.73304304,-2.06535448,-0.12880879999999997,0.12014148,0.106866,-10.068632359999999,26.34812972,-32.48115026,18.99510722,-1.3417931924,-0.4982133316,-1.258450586,-0.011159651199999981,0.09887626727999999,0.14908168574
03:38:59,0.191110005,-0.73121557,-2.05735409,-0.12643839999999998,0.12193659,0.10848,-10.058699879999999,26.34237851,-32.489384205,18.967625885,-1.3363538467,-0.4976704953,-1.2539333505,-0.008517482099999973,0.10076136123999999,0.148057234795
03:38:59,0.19051015000000002,-0.7293881,-2.0493537,-0.12406799999999998,0.12373169999999999,0.110094,-10.0487674,26.3366273,-32.49761815,18.94014455,-1.330914501,-0.497127659,-1.249416115,-0.005875312999999993,0.10264645519999999,0.14703278385000002
