Timestamp,linacce_x,linacce_y,linacce_z,gyro_x,gyro_y,gyro_z,X-magnetometer,Y-magnetometer,Z-magnetometer,Yaw, worldXAccel,worldYAccel,worldZAccel,worldXgyro,worldYgyro,worldZgyro
03:38:31,-1.4016,0.2767,-1.553979,0.363062,-0.2118,-0.560063,-4.815292,28.745945,-28.376045,19.386703,-2.0992079,0.33869916,0.025840998,-0.11097461,0.0042812377,-0.57499
03:38:31,-1.409362045,0.288525885,-1.537164715,0.35719726,-0.21011142,-0.55802286,-4.819196935000001,28.75363791,-28.37390656,19.39672506,-2.097866518,0.3432437112,0.03777695701,-0.11416071595,0.0038956968115,-0.5703074775
03:38:31,-1.41712409,0.30035177,-1.52035043,0.35133252,-0.20842284,-0.5559827199999999,-4.82310187,28.761330819999998,-28.371768120000002,19.406747120000002,-2.0965251360000003,0.3477882624,0.04971291602,-0.1173468219,0.0035101559230000003,-0.565624955
03:38:31,-1.424886135,0.312177655,-1.503536145,0.34546778,-0.20673425999999998,-0.55394258,-4.827006805,28.76902373,-28.369629680000003,19.41676918,-2.0951837540000002,0.3523328136,0.061648875029999994,-0.12053292785,0.0031246150345,-0.5609424325
03:38:31,-1.43264818,0.32400354,-1.48672186,0.33960304,-0.20504567999999998,-0.55190244,-4.83091174,28.77671664,-28.36749124,19.42679124,-2.093842372,0.3568773648,0.07358483403999999,-0.1237190338,0.002739074146,-0.55625991
03:38:31,-1.440410225,0.335829425,-1.469907575,0.3337383,-0.20335709999999999,-0.5498623,-4.834816675000001,28.78440955,-28.3653528,19.4368133,-2.09250099,0.361421916,0.08552079304999999,-0.12690513975,0.0023535332575,-0.5515773875
03:38:31,-1.44817227,0.34765531,-1.45309329,0.32787356,-0.20166852,-0.54782216,-4.83872161,28.79210246,-28.36321436,19.44683536,-2.0911596080000003,0.3659664672,0.09745675206,-0.1300912457,0.001967992369,-0.546894865
03:38:31,-1.455934315,0.359481195,-1.436279005,0.32200882,-0.19997994,-0.54578202,-4.842626545,28.79979537,-28.36107592,19.456857420000002,-2.0898182260000002,0.3705110184,0.10939271107,-0.13327735165,0.0015824514805,-0.5422123425
03:38:31,-1.46369636,0.37130708,-1.4194647200000001,0.31614408,-0.19829136,-0.54374188,-4.84653148,28.807488279999998,-28.35893748,19.46687948,-2.088476844,0.37505556959999997,0.12132867007999999,-0.1364634576,0.001196910592,-0.53752982
03:38:31,-1.471458405,0.38313296500000005,-1.402650435,0.31027934,-0.19660277999999998,-0.5417017399999999,-4.850436415000001,28.81518119,-28.356799040000002,19.47690154,-2.087135462,0.3796001208,0.13326462908999998,-0.13964956355,0.0008113697035000002,-0.5328472975
03:38:31,-1.47922045,0.39495885000000003,-1.38583615,0.3044146,-0.19491419999999998,-0.5396616,-4.85434135,28.8228741,-28.354660600000003,19.4869236,-2.0857940800000003,0.384144672,0.14520058809999997,-0.14283566949999998,0.00042582881500000027,-0.528164775
03:38:31,-1.486982495,0.406784735,-1.3690218650000001,0.29854986,-0.19322562,-0.53762146,-4.858246285,28.83056701,-28.352522160000003,19.49694566,-2.084452698,0.3886892232,0.15713654711,-0.14602177545,4.0287926499999946e-05,-0.5234822525
03:38:31,-1.49474454,0.41861062000000004,-1.35220758,0.29268512,-0.19153704,-0.53558132,-4.86215122,28.83825992,-28.35038372,19.506967720000002,-2.083111316,0.3932337744,0.16907250612,-0.1492078814,-0.0003452529620000004,-0.51879973
03:38:31,-1.502506585,0.430436505,-1.335393295,0.28682038,-0.18984846,-0.53354118,-4.866056155000001,28.845952829999998,-28.34824528,19.51698978,-2.081769934,0.3977783256,0.18100846513,-0.15239398735,-0.0007307938504999998,-0.5141172075
03:38:31,-1.51026863,0.44226239,-1.31857901,0.28095564,-0.18815988,-0.53150104,-4.86996109,28.853645739999997,-28.34610684,19.52701184,-2.0804285520000003,0.4023228768,0.19294442414,-0.1555800933,-0.0011163347390000002,-0.509434685
03:38:31,-1.5180306749999999,0.45408827500000004,-1.301764725,0.2750909,-0.18647129999999998,-0.5294609,-4.873866025,28.86133865,-28.3439684,19.5370339,-2.07908717,0.406867428,0.20488038314999998,-0.15876619925000002,-0.0015018756274999996,-0.5047521625
03:38:31,-1.5257927199999999,0.46591416,-1.28495044,0.26922616,-0.18478271999999998,-0.5274207599999999,-4.87777096,28.86903156,-28.341829960000002,19.54705596,-2.077745788,0.4114119792,0.21681634215999998,-0.1619523052,-0.001887416516,-0.50006964
03:38:31,-1.5335547649999999,0.477740045,-1.268136155,0.26336142,-0.18309414,-0.52538062,-4.881675895000001,28.87672447,-28.339691520000002,19.557078020000002,-2.076404406,0.4159565304,0.22875230116999998,-0.16513841115,-0.0022729574045000003,-0.4953871175
03:38:31,-1.5413168099999999,0.48956593000000004,-1.25132187,0.25749668000000003,-0.18140556,-0.52334048,-4.88558083,28.88441738,-28.337553080000003,19.56710008,-2.0750630240000003,0.4205010816,0.24068826017999997,-0.16832451710000002,-0.0026584982929999997,-0.49070459499999997
03:38:31,-1.5490788549999999,0.5013918150000001,-1.234507585,0.25163194,-0.17971697999999997,-0.52130034,-4.889485765,28.892110289999998,-28.33541464,19.57712214,-2.073721642,0.4250456328,0.25262421918999994,-0.17151062305,-0.0030440391815,-0.4860220725
03:38:31,-1.5568409,0.5132177,-1.2176933,0.24576720000000002,-0.17802839999999998,-0.5192602,-4.8933907,28.8998032,-28.3332762,19.5871442,-2.07238026,0.429590184,0.26456017819999994,-0.174696729,-0.0034295800699999995,-0.48133955
03:38:31,-1.5646029449999999,0.525043585,-1.200879015,0.23990246,-0.17633981999999998,-0.51722006,-4.897295635000001,28.90749611,-28.33113776,19.59716626,-2.071038878,0.4341347352,0.27649613721,-0.17788283495,-0.0038151209585000007,-0.4766570275
03:38:31,-1.57236499,0.5368694700000001,-1.18406473,0.23403772,-0.17465123999999999,-0.51517992,-4.90120057,28.91518902,-28.32899932,19.60718832,-2.0696974960000003,0.4386792864,0.28843209622,-0.1810689409,-0.004200661847,-0.471974505
03:38:31,-1.5801270349999998,0.548695355,-1.167250445,0.22817298,-0.17296266,-0.5131397799999999,-4.905105505,28.92288193,-28.32686088,19.61721038,-2.068356114,0.4432238376,0.30036805523,-0.18425504685,-0.0045862027355,-0.4672919825
03:38:31,-1.58788908,0.56052124,-1.15043616,0.22230824000000002,-0.17127408,-0.51109964,-4.90901044,28.93057484,-28.324722440000002,19.62723244,-2.067014732,0.44776838880000003,0.31230401424,-0.1874411528,-0.004971743624000001,-0.46260946000000003
03:38:31,-1.595651125,0.5723471250000001,-1.133621875,0.2164435,-0.1695855,-0.5090595,-4.912915375000001,28.938267749999998,-28.322584000000003,19.6372545,-2.06567335,0.45231294,0.32423997325,-0.19062725875,-0.0053572845125,-0.4579269375
03:38:31,-1.60341317,0.58417301,-1.11680759,0.21057876,-0.16789691999999998,-0.50701936,-4.91682031,28.94596066,-28.32044556,19.64727656,-2.0643319680000003,0.45685749119999997,0.33617593226,-0.1938133647,-0.005742825401,-0.453244415
03:38:31,-1.611175215,0.595998895,-1.099993305,0.20471402000000002,-0.16620833999999998,-0.50497922,-4.920725245,28.95365357,-28.31830712,19.65729862,-2.062990586,0.4614020424,0.34811189127,-0.19699947065,-0.006128366289499999,-0.4485618925
03:38:31,-1.61893726,0.6078247800000001,-1.08317902,0.19884928000000002,-0.16451976,-0.50293908,-4.92463018,28.96134648,-28.31616868,19.66732068,-2.061649204,0.4659465936,0.36004785027999997,-0.2001855766,-0.006513907178,-0.44387937
03:38:31,-1.626699305,0.619650665,-1.066364735,0.19298454,-0.16283118,-0.50089894,-4.928535115000001,28.96903939,-28.31403024,19.67734274,-2.060307822,0.4704911448,0.37198380928999997,-0.20337168255,-0.0068994480665,-0.4391968475
03:38:31,-1.63446135,0.63147655,-1.04955045,0.1871198,-0.16114259999999997,-0.4988588,-4.93244005,28.9767323,-28.3118918,19.6873648,-2.0589664400000003,0.475035696,0.38391976829999996,-0.2065577885,-0.007284988954999999,-0.434514325
03:38:31,-1.642223395,0.6433024350000001,-1.0327361650000002,0.18125506000000002,-0.15945401999999997,-0.49681865999999997,-4.936344985,28.984425209999998,-28.309753360000002,19.69738686,-2.057625058,0.47958024720000003,0.39585572730999996,-0.20974389445,-0.0076705298435000005,-0.42983180249999997
03:38:31,-1.64998544,0.65512832,-1.01592188,0.17539032000000002,-0.15776543999999998,-0.49477852,-4.94024992,28.99211812,-28.307614920000002,19.70740892,-2.056283676,0.4841247984,0.40779168631999996,-0.21293000039999999,-0.008056070732,-0.42514927999999996
03:38:31,-1.657747485,0.666954205,-0.999107595,0.16952558,-0.15607685999999998,-0.49273838,-4.944154855000001,28.99981103,-28.305476480000003,19.71743098,-2.054942294,0.48866934959999997,0.41972764532999995,-0.21611610635,-0.0084416116205,-0.42046675749999995
03:38:31,-1.66550953,0.6787800900000001,-0.9822933100000001,0.16366084000000003,-0.15438828,-0.49069823999999995,-4.94805979,29.00750394,-28.30333804,19.72745304,-2.0536009120000003,0.4932139008,0.43166360433999995,-0.2193022123,-0.008827152509,-0.415784235
03:38:31,-1.673271575,0.690605975,-0.965479025,0.15779610000000002,-0.1526997,-0.4886581,-4.951964725,29.01519685,-28.3011996,19.7374751,-2.05225953,0.497758452,0.44359956334999995,-0.22248831824999998,-0.0092126933975,-0.4111017125
03:38:31,-1.68103362,0.7024318600000001,-0.9486647400000001,0.15193136000000002,-0.15101112,-0.48661796,-4.95586966,29.022889759999998,-28.29906116,19.74749716,-2.050918148,0.5023030032,0.45553552235999994,-0.2256744242,-0.009598234285999999,-0.40641919
03:38:31,-1.688795665,0.714257745,-0.9318504550000001,0.14606662,-0.14932253999999998,-0.48457782,-4.959774595000001,29.030582669999998,-28.29692272,19.75751922,-2.049576766,0.5068475544,0.46747148136999994,-0.22886053015000002,-0.009983775174500002,-0.4017366675
03:38:31,-1.69655771,0.72608363,-0.91503617,0.14020188000000003,-0.14763395999999998,-0.48253767999999997,-4.96367953,29.03827558,-28.294784280000002,19.76754128,-2.0482353840000003,0.5113921056,0.47940744037999994,-0.23204663609999998,-0.010369316063000001,-0.397054145
03:38:31,-1.704319755,0.7379095150000001,-0.8982218850000001,0.13433714000000002,-0.14594537999999999,-0.48049754,-4.967584465,29.04596849,-28.292645840000002,19.77756334,-2.046894002,0.5159366568,0.49134339938999994,-0.23523274205,-0.0107548569515,-0.3923716225
03:38:31,-1.7120818,0.7497354,-0.8814076000000001,0.12847240000000001,-0.1442568,-0.4784574,-4.9714894,29.0536614,-28.290507400000003,19.7875854,-2.04555262,0.520481208,0.5032793583999999,-0.238418848,-0.01114039784,-0.3876891
03:38:31,-1.719843845,0.761561285,-0.864593315,0.12260766000000003,-0.14256821999999997,-0.47641725999999995,-4.975394335000001,29.06135431,-28.28836896,19.797607460000002,-2.044211238,0.5250257592,0.5152153174099999,-0.24160495395,-0.0115259387285,-0.3830065775
03:38:31,-1.72760589,0.7733871700000001,-0.8477790300000001,0.11674292000000003,-0.14087963999999997,-0.47437712,-4.97929927,29.069047219999998,-28.28623052,19.80762952,-2.0428698560000003,0.5295703104,0.5271512764199999,-0.2447910599,-0.011911479617000002,-0.378324055
03:38:31,-1.735367935,0.785213055,-0.8309647450000001,0.11087818000000005,-0.13919105999999998,-0.47233698,-4.983204205,29.07674013,-28.28409208,19.81765158,-2.041528474,0.5341148616,0.5390872354299999,-0.24797716585,-0.012297020505500002,-0.3736415325
03:38:31,-1.74312998,0.79703894,-0.81415046,0.10501344000000001,-0.13750247999999998,-0.47029684,-4.98710914,29.08443304,-28.28195364,19.82767364,-2.040187092,0.5386594128,0.5510231944399999,-0.2511632718,-0.012682561394000001,-0.36895901
03:38:31,-1.750892025,0.8088648250000001,-0.7973361750000001,0.09914870000000003,-0.1358139,-0.46825669999999997,-4.991014075000001,29.09212595,-28.2798152,19.8376957,-2.03884571,0.543203964,0.5629591534499999,-0.25434937775,-0.0130681022825,-0.36427648749999997
03:38:31,-1.75865407,0.82069071,-0.78052189,0.09328396,-0.13412532,-0.46621656,-4.99491901,29.09981886,-28.277676760000002,19.847717760000002,-2.0375043280000003,0.5477485152,0.5748951124599999,-0.2575354837,-0.013453643171,-0.35959396499999996
03:38:31,-1.766416115,0.832516595,-0.7637076050000001,0.08741922000000002,-0.13243674,-0.46417642,-4.998823945,29.10751177,-28.275538320000003,19.85773982,-2.036162946,0.5522930664,0.5868310714699999,-0.26072158965000003,-0.0138391840595,-0.35491144249999995
03:38:31,-1.77417816,0.8443424800000001,-0.7468933200000001,0.08155448000000004,-0.13074816,-0.46213627999999995,-5.00272888,29.115204679999998,-28.273399880000003,19.86776188,-2.034821564,0.5568376176000001,0.5987670304799999,-0.2639076956,-0.014224724948000003,-0.35022892
03:38:31,-1.781940205,0.856168365,-0.730079035,0.07568974,-0.12905957999999998,-0.46009614,-5.006633815000001,29.12289759,-28.27126144,19.87778394,-2.033480182,0.5613821688,0.6107029894899999,-0.26709380155,-0.014610265836500002,-0.3455463975
03:38:31,-1.78970225,0.86799425,-0.7132647500000001,0.06982500000000003,-0.12737099999999998,-0.458056,-5.01053875,29.1305905,-28.269123,19.887806,-2.0321388000000002,0.56592672,0.6226389484999999,-0.27027990749999997,-0.014995806725000001,-0.340863875
03:38:31,-1.797464295,0.8798201350000001,-0.6964504650000001,0.06396026000000005,-0.12568242,-0.45601586,-5.014443685,29.13828341,-28.26698456,19.897828060000002,-2.030797418,0.5704712712,0.6345749075099999,-0.27346601345,-0.015381347613500001,-0.3361813525
03:38:31,-1.80522634,0.89164602,-0.6796361800000001,0.05809552000000001,-0.12399383999999998,-0.45397571999999997,-5.01834862,29.14597632,-28.26484612,19.90785012,-2.029456036,0.5750158223999999,0.6465108665199999,-0.2766521194,-0.015766888502,-0.33149883
03:38:31,-1.812988385,0.903471905,-0.6628218950000001,0.05223078000000003,-0.12230525999999999,-0.45193558,-5.022253555000001,29.15366923,-28.262707680000002,19.91787218,-2.028114654,0.5795603736,0.6584468255299999,-0.27983822535,-0.0161524293905,-0.3268163075
03:38:31,-1.82075043,0.9152977900000001,-0.6460076100000001,0.04636604000000005,-0.12061667999999999,-0.44989544,-5.02615849,29.161362139999998,-28.260569240000002,19.92789424,-2.0267732720000002,0.5841049248,0.6703827845399999,-0.2830243313,-0.016537970279,-0.322133785
03:38:31,-1.828512475,0.927123675,-0.6291933250000001,0.04050130000000002,-0.11892809999999998,-0.4478553,-5.030063425,29.16905505,-28.258430800000003,19.9379163,-2.02543189,0.5886494760000001,0.6823187435499999,-0.28621043725,-0.016923511167500002,-0.3174512625
03:38:31,-1.83627452,0.93894956,-0.6123790400000001,0.03463656000000004,-0.11723951999999999,-0.44581516,-5.03396836,29.17674796,-28.25629236,19.947938360000002,-2.024090508,0.5931940272,0.6942547025599999,-0.28939654319999997,-0.017309052056,-0.31276874
03:38:31,-1.844036565,0.9507754450000001,-0.5955647550000001,0.02877182000000006,-0.11555093999999999,-0.44377502,-5.037873295000001,29.18444087,-28.25415392,19.95796042,-2.022749126,0.5977385784,0.7061906615699999,-0.29258264915,-0.0176945929445,-0.3080862175
03:38:31,-1.85179861,0.96260133,-0.5787504700000001,0.022907080000000024,-0.11386235999999998,-0.44173488,-5.04177823,29.19213378,-28.25201548,19.96798248,-2.0214077440000002,0.6022831296,0.7181266205799999,-0.2957687551,-0.018080133833,-0.303403695
03:38:31,-1.8595606550000001,0.9744272150000002,-0.5619361850000001,0.017042340000000045,-0.11217377999999999,-0.43969474,-5.045683165,29.19982669,-28.24987704,19.97800454,-2.020066362,0.6068276807999999,0.7300625795899999,-0.29895486105,-0.0184656747215,-0.29872117249999997
03:38:31,-1.8673227,0.9862531000000001,-0.5451219,0.01117760000000001,-0.11048519999999998,-0.4376546,-5.0495881,29.207519599999998,-28.2477386,19.9880266,-2.01872498,0.611372232,0.7419985385999999,-0.30214096700000004,-0.01885121561,-0.29403864999999996
03:38:31,-1.875084745,0.998078985,-0.5283076150000001,0.00531286000000003,-0.10879661999999998,-0.43561446,-5.053493035000001,29.21521251,-28.245600160000002,19.998048660000002,-2.017383598,0.6159167832,0.7539344976099999,-0.30532707295,-0.019236756498500002,-0.2893561275
03:38:31,-1.8828467899999999,1.0099048700000002,-0.5114933300000002,-0.0005518799999999491,-0.10710803999999999,-0.43357431999999996,-5.05739797,29.22290542,-28.243461720000003,20.00807072,-2.016042216,0.6204613344000001,0.7658704566199999,-0.30851317889999996,-0.019622297387000002,-0.284673605
03:38:31,-1.890608835,1.021730755,-0.49467904500000004,-0.006416619999999984,-0.10541945999999998,-0.43153418,-5.061302905,29.23059833,-28.24132328,20.01809278,-2.014700834,0.6250058856,0.7778064156299999,-0.31169928485,-0.0200078382755,-0.2799910825
03:38:31,-1.8983708799999999,1.03355664,-0.4778647600000001,-0.012281359999999963,-0.10373087999999998,-0.42949404,-5.06520784,29.23829124,-28.23918484,20.02811484,-2.013359452,0.6295504368,0.7897423746399999,-0.3148853908,-0.020393379164,-0.27530856
03:38:31,-1.906132925,1.0453825250000002,-0.4610504750000002,-0.018146099999999943,-0.10204229999999999,-0.4274539,-5.069112775000001,29.245984149999998,-28.2370464,20.0381369,-2.01201807,0.634094988,0.8016783336499999,-0.31807149675,-0.0207789200525,-0.27062603749999997
03:38:31,-1.9138949699999999,1.05720841,-0.44423619000000003,-0.024010839999999978,-0.10035371999999998,-0.42541376,-5.07301771,29.25367706,-28.23490796,20.04815896,-2.010676688,0.6386395391999999,0.8136142926599998,-0.32125760270000003,-0.021164460941,-0.26594351499999996
03:38:31,-1.921657015,1.069034295,-0.4274219050000001,-0.029875579999999957,-0.09866513999999998,-0.42337362,-5.076922645,29.26136997,-28.23276952,20.05818102,-2.009335306,0.6431840904,0.8255502516699998,-0.32444370865,-0.0215500018295,-0.26126099249999996
03:38:31,-1.9294190599999999,1.0808601800000002,-0.4106076200000002,-0.03574031999999994,-0.09697655999999999,-0.42133348,-5.08082758,29.26906288,-28.230631080000002,20.06820308,-2.007993924,0.6477286416,0.8374862106799998,-0.32762981459999996,-0.021935542718000002,-0.25657847
03:38:31,-1.937181105,1.092686065,-0.393793335,-0.04160505999999997,-0.09528797999999998,-0.41929333999999996,-5.084732515000001,29.27675579,-28.228492640000002,20.07822514,-2.006652542,0.6522731928000001,0.8494221696899998,-0.33081592055,-0.0223210836065,-0.2518959475
03:38:31,-1.9449431499999998,1.10451195,-0.3769790500000001,-0.04746979999999995,-0.09359939999999999,-0.4172532,-5.08863745,29.2844487,-28.226354200000003,20.0882472,-2.00531116,0.656817744,0.8613581286999998,-0.3340020265,-0.022706624495,-0.247213425
03:38:31,-1.952705195,1.1163378350000002,-0.36016476500000016,-0.053334539999999986,-0.09191081999999998,-0.41521306,-5.092542385,29.292141609999998,-28.22421576,20.09826926,-2.003969778,0.6613622952,0.8732940877099998,-0.33718813245,-0.0230921653835,-0.24253090249999998
03:38:31,-1.9604672399999998,1.12816372,-0.34335048000000024,-0.059199279999999965,-0.09022223999999998,-0.41317292,-5.09644732,29.29983452,-28.22207732,20.10829132,-2.002628396,0.6659068464,0.8852300467199998,-0.34037423840000003,-0.023477706272,-0.23784837999999997
03:38:31,-1.968229285,1.139989605,-0.3265361950000001,-0.06506401999999994,-0.08853365999999999,-0.41113278,-5.100352255000001,29.30752743,-28.21993888,20.11831338,-2.001287014,0.6704513975999999,0.8971660057299998,-0.34356034435,-0.0238632471605,-0.23316585749999996
03:38:31,-1.9759913299999998,1.1518154900000002,-0.30972191000000016,-0.07092875999999998,-0.08684507999999998,-0.40909264,-5.10425719,29.31522034,-28.21780044,20.12833544,-1.999945632,0.6749959488,0.9091019647399998,-0.3467464503,-0.024248788049000002,-0.22848333499999995
03:38:31,-1.983753375,1.163641375,-0.2929076250000002,-0.07679349999999996,-0.0851565,-0.4070525,-5.108162125,29.32291325,-28.215662000000002,20.1383575,-1.99860425,0.6795405,0.9210379237499998,-0.34993255624999997,-0.0246343289375,-0.2238008125
03:38:31,-1.99151542,1.17546726,-0.2760933400000001,-0.08265823999999994,-0.08346791999999997,-0.40501235999999996,-5.11206706,29.33060616,-28.213523560000002,20.14837956,-1.997262868,0.6840850512000001,0.9329738827599998,-0.3531186622,-0.025019869826,-0.21911829
03:38:31,-1.999277465,1.1872931450000002,-0.25927905500000015,-0.08852297999999997,-0.08177933999999998,-0.40297222,-5.115971995000001,29.338299069999998,-28.211385120000003,20.15840162,-1.995921486,0.6886296024,0.9449098417699998,-0.35630476815,-0.0254054107145,-0.21443576749999999
03:38:31,-2.0070395100000002,1.19911903,-0.24246477000000022,-0.09438771999999995,-0.08009075999999998,-0.40093208,-5.11987693,29.34599198,-28.20924668,20.16842368,-1.994580104,0.6931741536,0.9568458007799998,-0.3594908741,-0.025790951603,-0.20975324499999998
03:38:31,-2.014801555,1.210944915,-0.22565048500000007,-0.10025245999999993,-0.07840217999999999,-0.39889194,-5.123781865,29.35368489,-28.20710824,20.17844574,-1.993238722,0.6977187048,0.9687817597899998,-0.36267698005000004,-0.0261764924915,-0.20507072249999997
03:38:31,-2.0225636,1.2227708000000002,-0.20883620000000014,-0.10611719999999997,-0.07671359999999999,-0.3968518,-5.1276868,29.3613778,-28.2049698,20.1884678,-1.99189734,0.702263256,0.9807177187999998,-0.36586308599999995,-0.02656203338,-0.20038819999999996
03:38:31,-2.030325645,1.234596685,-0.1920219150000002,-0.11198193999999995,-0.07502501999999997,-0.39481166,-5.131591735000001,29.36907071,-28.20283136,20.19848986,-1.990555958,0.7068078072,0.9926536778099998,-0.36904919194999997,-0.026947574268500002,-0.19570567749999995
03:38:31,-2.0380876900000002,1.24642257,-0.17520763000000006,-0.11784667999999993,-0.07333643999999997,-0.39277152,-5.13549667,29.37676362,-28.20069292,20.20851192,-1.989214576,0.7113523584,1.0045896368199998,-0.3722352979,-0.027333115156999998,-0.191023155
03:38:31,-2.045849735,1.2582484550000002,-0.15839334500000013,-0.12371141999999996,-0.07164785999999998,-0.39073137999999996,-5.139401605,29.38445653,-28.198554480000002,20.21853398,-1.987873194,0.7158969096000001,1.01652559583,-0.37542140385,-0.027718656045499997,-0.1863406325
03:38:31,-2.0536117799999998,1.27007434,-0.1415790600000002,-0.12957615999999994,-0.06995927999999998,-0.38869124,-5.14330654,29.39214944,-28.196416040000003,20.22855604,-1.986531812,0.7204414608,1.02846155484,-0.3786075098,-0.028104196934000004,-0.18165810999999998
03:38:31,-2.061373825,1.281900225,-0.12476477500000005,-0.13544089999999998,-0.06827069999999999,-0.3866511,-5.147211475000001,29.39984235,-28.194277600000003,20.2385781,-1.98519043,0.724986012,1.04039751385,-0.38179361575000004,-0.028489737822500003,-0.17697558749999998
03:38:31,-2.06913587,1.2937261100000002,-0.10795049000000012,-0.1413056399999999,-0.06658212,-0.38461096,-5.15111641,29.40753526,-28.19213916,20.24860016,-1.983849048,0.7295305632,1.05233347286,-0.38497972169999994,-0.028875278711000003,-0.17229306499999997
03:38:31,-2.076897915,1.305551995,-0.09113620500000019,-0.14717037999999993,-0.06489353999999997,-0.38257082,-5.155021345,29.41522817,-28.19000072,20.25862222,-1.982507666,0.7340751144,1.06426943187,-0.38816582764999996,-0.029260819599500002,-0.16761054249999996
03:38:31,-2.0846599599999998,1.31737788,-0.07432192000000004,-0.15303511999999997,-0.06320495999999998,-0.38053068,-5.15892628,29.42292108,-28.18786228,20.26864428,-1.981166284,0.7386196656,1.07620539088,-0.3913519336,-0.029646360488,-0.16292801999999995
03:38:31,-2.092422005,1.3292037650000001,-0.05750763500000011,-0.1588998599999999,-0.06151637999999998,-0.37849054,-5.162831215000001,29.43061399,-28.18572384,20.27866634,-1.979824902,0.7431642168,1.0881413498899999,-0.39453803955,-0.0300319013765,-0.1582454975
03:38:31,-2.10018405,1.34102965,-0.040693350000000184,-0.16476459999999993,-0.05982779999999999,-0.37645039999999996,-5.16673615,29.4383069,-28.183585400000002,20.2886884,-1.97848352,0.7477087680000001,1.1000773089,-0.3977241455,-0.030417442265,-0.153562975
03:38:31,-2.107946095,1.352855535,-0.023879065000000255,-0.17062933999999996,-0.05813921999999999,-0.37441026,-5.170641085,29.44599981,-28.181446960000002,20.29871046,-1.977142138,0.7522533192,1.1120132679099999,-0.40091025145000003,-0.0308029831535,-0.14888045249999998
03:38:31,-2.1157081399999997,1.3646814200000001,-0.007064780000000104,-0.17649408,-0.05645063999999997,-0.37237012,-5.17454602,29.45369272,-28.179308520000003,20.30873252,-1.975800756,0.7567978704,1.12394922692,-0.40409635740000005,-0.031188524042,-0.14419792999999997
03:38:31,-2.123470185,1.376507305,0.009749504999999825,-0.18235881999999992,-0.054762059999999974,-0.37032998,-5.178450955000001,29.46138563,-28.17717008,20.31875458,-1.974459374,0.7613424216,1.1358851859299999,-0.40728246334999996,-0.031574064930499995,-0.13951540749999997
03:38:31,-2.13123223,1.38833319,0.026563789999999754,-0.18822355999999996,-0.05307347999999998,-0.36828984,-5.18235589,29.469078539999998,-28.17503164,20.32877664,-1.9731179920000002,0.7658869728,1.14782114494,-0.4104685693,-0.031959605818999995,-0.13483288499999996
03:38:31,-2.138994275,1.4001590750000001,0.043378074999999905,-0.1940883,-0.05138489999999998,-0.3662497,-5.186260825,29.47677145,-28.1728932,20.3387987,-1.97177661,0.7704315239999999,1.1597571039499999,-0.41365467525,-0.032345146707499994,-0.13015036249999995
03:38:31,-2.1467563199999997,1.41198496,0.060192359999999834,-0.19995303999999992,-0.04969631999999999,-0.36420956,-5.19016576,29.48446436,-28.17075476,20.34882076,-1.970435228,0.7749760752,1.17169306296,-0.4168407812,-0.032730687596,-0.12546784
03:38:31,-2.154518365,1.423810845,0.07700664499999976,-0.20581777999999995,-0.04800773999999999,-0.36216941999999996,-5.194070695000001,29.49215727,-28.16861632,20.35884282,-1.969093846,0.7795206264000001,1.1836290219699999,-0.42002688715000003,-0.0331162284845,-0.12078531749999999
03:38:31,-2.16228041,1.4356367300000001,0.09382092999999991,-0.21168251999999999,-0.04631915999999997,-0.36012928,-5.19797563,29.49985018,-28.166477880000002,20.36886488,-1.9677524640000001,0.7840651776,1.19556498098,-0.42321299310000005,-0.033501769373,-0.11610279499999998
03:38:31,-2.170042455,1.447462615,0.11063521499999984,-0.2175472599999999,-0.044630579999999975,-0.35808914000000003,-5.201880565,29.50754309,-28.164339440000003,20.37888694,-1.966411082,0.7886097288,1.2075009399899999,-0.42639909904999995,-0.0338873102615,-0.11142027249999997
03:38:31,-2.1778045,1.4592885,0.12744949999999977,-0.22341199999999994,-0.04294199999999998,-0.356049,-5.2057855,29.515236,-28.162201000000003,20.388908999999998,-1.9650697,0.79315428,1.219436899,-0.42958520499999997,-0.03427285115,-0.10673774999999996
03:38:31,-2.185566545,1.4711143850000001,0.14426378499999992,-0.22927673999999998,-0.041253419999999985,-0.35400886,-5.209690435000001,29.52292891,-28.16006256,20.39893106,-1.963728318,0.7976988312,1.2313728580099998,-0.43277131095,-0.0346583920385,-0.10205522749999996
03:38:31,-2.19332859,1.48294027,0.16107806999999985,-0.2351414799999999,-0.03956483999999999,-0.35196872,-5.21359537,29.53062182,-28.15792412,20.40895312,-1.9623869360000001,0.8022433823999999,1.24330881702,-0.4359574169,-0.035043932927,-0.09737270499999995
03:38:31,-2.201090635,1.494766155,0.17789235499999978,-0.24100621999999994,-0.03787625999999997,-0.34992858000000004,-5.217500305,29.53831473,-28.15578568,20.41897518,-1.961045554,0.8067879336,1.2552447760299998,-0.43914352285,-0.0354294738155,-0.09269018249999994
03:38:31,-2.20885268,1.5065920400000001,0.1947066399999997,-0.24687095999999997,-0.03618767999999997,-0.34788843999999997,-5.22140524,29.54600764,-28.15364724,20.42899724,-1.959704172,0.8113324848,1.26718073504,-0.44232962880000004,-0.035815014703999996,-0.08800765999999999
03:38:31,-2.216614725,1.518417925,0.21152092499999986,-0.2527356999999999,-0.03449909999999998,-0.3458483,-5.225310175000001,29.55370055,-28.151508800000002,20.4390193,-1.95836279,0.815877036,1.2791166940499998,-0.44551573474999995,-0.036200555592499996,-0.08332513749999998
03:38:31,-2.22437677,1.53024381,0.2283352099999998,-0.25860043999999993,-0.03281051999999998,-0.34380816000000003,-5.22921511,29.56139346,-28.149370360000002,20.44904136,-1.9570214080000001,0.8204215872,1.29105265306,-0.44870184069999997,-0.036586096480999995,-0.07864261499999997
03:38:31,-2.232138815,1.5420696950000001,0.24514949499999972,-0.26446517999999997,-0.031121939999999987,-0.34176802,-5.233120045,29.56908637,-28.147231920000003,20.45906342,-1.955680026,0.8249661384,1.3029886120699998,-0.45188794665,-0.036971637369499995,-0.07396009250000002
03:38:31,-2.23990086,1.55389558,0.26196377999999987,-0.2703299199999999,-0.029433359999999992,-0.33972788,-5.23702498,29.57677928,-28.14509348,20.46908548,-1.954338644,0.8295106896,1.31492457108,-0.4550740526,-0.037357178257999994,-0.06927757000000001
03:38:31,-2.247662905,1.565721465,0.2787780649999998,-0.2761946599999999,-0.02774477999999997,-0.33768774,-5.240929915000001,29.58447219,-28.14295504,20.47910754,-1.952997262,0.8340552407999999,1.3268605300899998,-0.45826015855,-0.0377427191465,-0.0645950475
03:38:31,-2.25542495,1.5775473500000001,0.2955923499999997,-0.28205939999999996,-0.026056199999999974,-0.33564760000000005,-5.24483485,29.5921651,-28.1408166,20.4891296,-1.9516558800000001,0.838599792,1.3387964891,-0.46144626450000004,-0.038128260035,-0.059912524999999994
03:38:31,-2.263186995,1.589373235,0.3124066349999999,-0.2879241399999999,-0.02436761999999998,-0.33360745999999997,-5.248739785,29.59985801,-28.13867816,20.49915166,-1.950314498,0.8431443432,1.3507324481099998,-0.46463237044999994,-0.0385138009235,-0.055230002499999986
03:38:31,-2.27094904,1.60119912,0.3292209199999998,-0.2937888799999999,-0.022679039999999984,-0.33156732,-5.25264472,29.60755092,-28.136539720000002,20.50917372,-1.948973116,0.8476888944000001,1.36266840712,-0.46781847639999996,-0.038899341812,-0.05054747999999998
03:38:31,-2.278711085,1.6130250050000001,0.34603520499999973,-0.29965361999999995,-0.02099045999999999,-0.32952718000000003,-5.256549655000001,29.61524383,-28.134401280000002,20.51919578,-1.947631734,0.8522334456,1.3746043661299998,-0.47100458235,-0.0392848827005,-0.04586495749999997
03:38:31,-2.28647313,1.62485089,0.3628494899999999,-0.3055183599999999,-0.019301879999999993,-0.32748704,-5.26045459,29.62293674,-28.132262840000003,20.52921784,-1.9462903520000001,0.8567779968,1.38654032514,-0.4741906883,-0.039670423589,-0.04118243499999996
03:38:31,-2.294235175,1.6366767750000002,0.3796637749999998,-0.3113830999999999,-0.01761329999999997,-0.3254469,-5.264359525,29.63062965,-28.1301244,20.5392399,-1.94494897,0.861322548,1.3984762841499998,-0.47737679425,-0.0400559644775,-0.036499912499999954
03:38:31,-2.30199722,1.6485026600000001,0.39647805999999974,-0.31724783999999995,-0.015924719999999976,-0.32340676,-5.26826446,29.63832256,-28.12798596,20.54926196,-1.943607588,0.8658670992,1.41041224316,-0.48056290020000003,-0.040441505366,-0.031817389999999945
03:38:31,-2.309759265,1.660328545,0.4132923449999999,-0.32311258,-0.01423613999999998,-0.32136662000000005,-5.272169395000001,29.64601547,-28.12584752,20.55928402,-1.942266206,0.8704116504,1.4223482021699998,-0.48374900615000005,-0.040827046254499996,-0.027134867499999937
03:38:31,-2.31752131,1.6721544300000002,0.4301066299999998,-0.3289773199999999,-0.012547559999999985,-0.31932647999999997,-5.27607433,29.65370838,-28.12370908,20.56930608,-1.940924824,0.8749562016,1.43428416118,-0.48693511209999996,-0.041212587142999996,-0.02245234499999993
03:38:31,-2.325283355,1.6839803150000001,0.44692091499999975,-0.33484205999999994,-0.01085897999999999,-0.31728634,-5.279979265,29.66140129,-28.12157064,20.57932814,-1.939583442,0.8795007528,1.4462201201899998,-0.49012121805,-0.041598128031499995,-0.01776982249999992
03:38:31,-2.3330454,1.6958062,0.4637351999999999,-0.3407068,-0.009170399999999967,-0.31524620000000003,-5.2838842,29.6690942,-28.119432200000002,20.5893502,-1.93824206,0.884045304,1.4581560792,-0.493307324,-0.041983668919999995,-0.013087299999999913
03:38:31,-2.3408074450000003,1.7076320850000002,0.4805494849999996,-0.3465715399999999,-0.007481819999999972,-0.31320606,-5.287789135000001,29.67678711,-28.117293760000003,20.59937226,-1.936900678,0.8885898552,1.4700920382099998,-0.49649342995,-0.042369209808499994,-0.008404777500000016
03:38:31,-2.34856949,1.7194579700000001,0.49736376999999976,-0.35243627999999994,-0.005793239999999977,-0.31116592,-5.29169407,29.68448002,-28.115155320000003,20.60939432,-1.935559296,0.8931344064,1.48202799722,-0.4996795359,-0.042754750697,-0.0037222550000000076
03:38:31,-2.356331535,1.731283855,0.5141780549999999,-0.35830101999999997,-0.004104659999999982,-0.30912578,-5.295599005,29.69217293,-28.11301688,20.61941638,-1.934217914,0.8976789576,1.4939639562299998,-0.50286564185,-0.0431402915855,0.0009602675000000005
03:38:31,-2.36409358,1.7431097400000002,0.5309923399999996,-0.3641657599999999,-0.002416079999999987,-0.30708564,-5.29950394,29.69986584,-28.11087844,20.62943844,-1.932876532,0.9022235088,1.5058999152399999,-0.5060517478,-0.043525832474,0.005642790000000009
03:38:31,-2.3718556250000002,1.754935625,0.5478066249999998,-0.37003049999999993,-0.000727499999999992,-0.3050455,-5.303408875000001,29.70755875,-28.10874,20.6394605,-1.93153515,0.90676806,1.5178358742499998,-0.50923785375,-0.0439113733625,0.010325312500000017
03:38:31,-2.37961767,1.76676151,0.5646209099999999,-0.37589523999999996,0.0009610800000000308,-0.30300536,-5.30731381,29.71525166,-28.10660156,20.64948256,-1.930193768,0.9113126112,1.5297718332599999,-0.5124239597,-0.044296914251,0.015007835000000025
03:38:31,-2.387379715,1.7785873950000002,0.5814351949999996,-0.3817599799999999,0.002649660000000026,-0.30096522000000003,-5.311218745,29.72294457,-28.104463120000002,20.65950462,-1.928852386,0.9158571624,1.5417077922699998,-0.51561006565,-0.0446824551395,0.019690357500000033
03:38:31,-2.39514176,1.79041328,0.5982494799999998,-0.3876247199999999,0.004338240000000021,-0.29892508,-5.31512368,29.73063748,-28.102324680000002,20.66952668,-1.927511004,0.9204017136,1.5536437512799999,-0.5187961716,-0.045067996028,0.02437288000000004
03:38:31,-2.4029038050000002,1.802239165,0.6150637649999999,-0.39348945999999996,0.006026820000000016,-0.29688494,-5.319028615000001,29.73833039,-28.100186240000003,20.67954874,-1.926169622,0.9249462648,1.56557971029,-0.52198227755,-0.0454535369165,0.02905540250000005
03:38:31,-2.41066585,1.8140650500000002,0.6318780499999996,-0.3993541999999999,0.007715400000000011,-0.2948448,-5.32293355,29.7460233,-28.0980478,20.6895708,-1.92482824,0.929490816,1.5775156692999999,-0.5251683835,-0.045839077804999996,0.03373792500000006
03:38:31,-2.4184278949999998,1.825890935,0.6486923349999998,-0.4052189399999999,0.009403980000000034,-0.29280466,-5.326838485,29.75371621,-28.09590936,20.69959286,-1.923486858,0.9340353672,1.58945162831,-0.52835448945,-0.046224618693499996,0.038420447500000066
03:38:31,-2.42618994,1.83771682,0.6655066199999999,-0.41108367999999995,0.011092560000000029,-0.29076452,-5.33074342,29.76140912,-28.09377092,20.70961492,-1.922145476,0.9385799184,1.6013875873199999,-0.5315405954,-0.046610159581999995,0.043102970000000074
03:38:31,-2.433951985,1.8495427050000002,0.6823209049999996,-0.4169484199999999,0.012781140000000024,-0.28872438,-5.334648355000001,29.76910203,-28.09163248,20.71963698,-1.920804094,0.9431244696,1.61332354633,-0.53472670135,-0.046995700470499994,0.04778549250000008
03:38:31,-2.44171403,1.86136859,0.6991351899999998,-0.4228131599999999,0.01446972000000002,-0.28668424000000003,-5.33855329,29.77679494,-28.08949404,20.72965904,-1.919462712,0.9476690208,1.6252595053399999,-0.5379128073,-0.047381241358999994,0.05246801500000009
03:38:31,-2.4494760749999998,1.873194475,0.715949475,-0.42867789999999995,0.016158300000000014,-0.2846441,-5.342458225,29.78448785,-28.087355600000002,20.7396811,-1.91812133,0.952213572,1.63719546435,-0.54109891325,-0.0477667822475,0.0571505375000001
03:38:31,-2.45723812,1.8850203600000002,0.7327637599999997,-0.43454263999999987,0.01784688000000001,-0.28260396,-5.34636316,29.79218076,-28.085217160000003,20.74970316,-1.916779948,0.9567581232,1.6491314233599998,-0.5442850191999999,-0.048152323136,0.061833059999999995
03:38:31,-2.465000165,1.896846245,0.7495780449999998,-0.4404073799999999,0.019535460000000032,-0.28056382,-5.350268095000001,29.79987367,-28.083078720000003,20.75972522,-1.915438566,0.9613026744000001,1.66106738237,-0.54747112515,-0.0485378640245,0.0665155825
03:38:31,-2.47276221,1.90867213,0.76639233,-0.44627211999999994,0.021224040000000027,-0.27852368,-5.35417303,29.80756658,-28.08094028,20.76974728,-1.914097184,0.9658472256,1.6730033413799998,-0.5506572311,-0.048923404913,0.07119810500000001
03:38:31,-2.4805242549999997,1.9204980150000002,0.7832066149999997,-0.45213685999999986,0.022912620000000022,-0.27648354,-5.358077965,29.81525949,-28.07880184,20.77976934,-1.912755802,0.9703917768,1.68493930039,-0.55384333705,-0.0493089458015,0.07588062750000002
03:38:31,-2.4882863,1.9323239,0.8000208999999998,-0.4580015999999999,0.024601200000000017,-0.2744434,-5.3619829,29.8229524,-28.0766634,20.7897914,-1.91141442,0.974936328,1.6968752593999998,-0.557029443,-0.04969448669,0.08056315000000003
03:38:31,-2.496048345,1.944149785,0.816835185,-0.46386633999999993,0.026289780000000013,-0.27240326000000004,-5.3658878350000005,29.83064531,-28.07452496,20.79981346,-1.910073038,0.9794808792,1.70881121841,-0.56021554895,-0.0500800275785,0.08524567250000004
03:38:31,-2.50381039,1.9559756700000002,0.8336494699999997,-0.46973107999999997,0.027978360000000035,-0.27036312,-5.36979277,29.83833822,-28.072386520000002,20.80983552,-1.908731656,0.9840254304,1.7207471774199998,-0.5634016549,-0.050465568467,0.08992819500000004
03:38:31,-2.5115724349999997,1.967801555,0.8504637549999998,-0.4755958199999999,0.02966694000000003,-0.26832298,-5.373697705,29.84603113,-28.070248080000002,20.81985758,-1.907390274,0.9885699816,1.73268313643,-0.56658776085,-0.050851109355499996,0.09461071750000005
03:38:31,-2.51933448,1.9796274400000002,0.8672780399999995,-0.4814605599999999,0.031355520000000026,-0.26628284,-5.37760264,29.85372404,-28.068109640000003,20.82987964,-1.906048892,0.9931145328,1.7446190954399998,-0.5697738668,-0.051236650243999995,0.09929324000000006
03:38:31,-2.527096525,1.9914533250000002,0.8840923249999997,-0.48732529999999996,0.03304410000000002,-0.2642427,-5.3815075750000005,29.86141695,-28.0659712,20.8399017,-1.90470751,0.997659084,1.75655505445,-0.57295997275,-0.051622191132499995,0.10397576250000007
03:38:31,-2.53485857,2.00327921,0.9009066099999998,-0.4931900399999999,0.034732680000000016,-0.26220256000000003,-5.38541251,29.869109860000002,-28.06383276,20.84992376,-1.903366128,1.0022036351999999,1.7684910134599998,-0.5761460787,-0.052007732020999994,0.10865828500000008
03:38:31,-2.5426206149999997,2.0151050950000005,0.9177208949999995,-0.4990547799999999,0.03642126000000001,-0.26016242,-5.389317445,29.87680277,-28.06169432,20.85994582,-1.902024746,1.0067481863999999,1.78042697247,-0.57933218465,-0.052393272909499994,0.11334080750000008
03:38:31,-2.55038266,2.0269309800000004,0.9345351799999997,-0.50491952,0.038109840000000034,-0.25812228000000004,-5.39322238,29.88449568,-28.05955588,20.86996788,-1.900683364,1.0112927376,1.7923629314799998,-0.5825182906,-0.052778813798,0.11802333000000009
03:38:31,-2.558144705,2.0387568650000003,0.9513494649999998,-0.5107842599999999,0.03979842,-0.25608214,-5.3971273150000005,29.89218859,-28.057417440000002,20.879989939999998,-1.899341982,1.0158372888,1.80429889049,-0.58570439655,-0.0531643546865,0.1227058525000001
03:38:31,-2.56590675,2.0505827500000002,0.9681637499999995,-0.5166489999999999,0.041486999999999996,-0.254042,-5.40103225,29.8998815,-28.055279000000002,20.890012,-1.8980006,1.02038184,1.8162348494999998,-0.5888905025,-0.053549895575,0.127388375
03:38:31,-2.573668795,2.062408635,0.9849780349999997,-0.52251374,0.04317558000000005,-0.25200186,-5.404937185,29.90757441,-28.053140560000003,20.90003406,-1.896659218,1.0249263912,1.82817080851,-0.59207660845,-0.0539354364635,0.1320708975
03:38:31,-2.5814308400000003,2.07423452,1.0017923199999998,-0.5283784799999999,0.04486416000000004,-0.24996172,-5.40884212,29.91526732,-28.05100212,20.91005612,-1.895317836,1.0294709424000001,1.8401067675199998,-0.5952627144,-0.054320977352,0.13675342000000001
03:38:31,-2.589192885,2.0860604050000005,1.0186066049999996,-0.5342432199999999,0.04655274000000004,-0.24792158000000003,-5.4127470550000005,29.92296023,-28.04886368,20.92007818,-1.893976454,1.0340154936000001,1.85204272653,-0.59844882035,-0.0547065182405,0.14143594250000002
03:38:31,-2.59695493,2.0978862900000004,1.0354208899999997,-0.5401079599999999,0.04824132000000003,-0.24588144,-5.41665199,29.93065314,-28.04672524,20.930100239999998,-1.892635072,1.0385600448,1.8639786855399998,-0.6016349263,-0.055092059129,0.14611846500000003
03:38:31,-2.604716975,2.1097121750000003,1.0522351749999999,-0.5459726999999999,0.04992990000000003,-0.24384130000000004,-5.420556925,29.93834605,-28.0445868,20.9401223,-1.89129369,1.043104596,1.87591464455,-0.60482103225,-0.055477600017499996,0.15080098750000004
03:38:31,-2.6124790200000003,2.1215380600000002,1.0690494599999996,-0.5518374399999999,0.05161848000000002,-0.24180116000000001,-5.42446186,29.94603896,-28.04244836,20.95014436,-1.889952308,1.0476491472,1.8878506035599998,-0.6080071382,-0.055863140905999996,0.15548351000000005
03:38:31,-2.620241065,2.133363945,1.0858637449999997,-0.5577021799999999,0.05330706000000002,-0.23976102,-5.4283667950000005,29.95373187,-28.040309920000002,20.96016642,-1.888610926,1.0521936984,1.89978656257,-0.61119324415,-0.056248681794499995,0.16016603250000006
03:38:31,-2.62800311,2.14518983,1.1026780299999999,-0.5635669199999999,0.05499564000000001,-0.23772088000000002,-5.43227173,29.96142478,-28.038171480000003,20.97018848,-1.887269544,1.0567382496,1.9117225215799998,-0.6143793501,-0.056634222682999995,0.16484855500000006
03:38:31,-2.635765155,2.1570157150000004,1.1194923149999996,-0.5694316599999999,0.05668422000000001,-0.23568074,-5.436176665,29.96911769,-28.036033040000003,20.980210539999998,-1.885928162,1.0612828008,1.9236584805899999,-0.61756545605,-0.057019763571499994,0.16953107750000007
03:38:31,-2.6435272000000003,2.1688416000000004,1.1363065999999997,-0.5752963999999999,0.0583728,-0.23364060000000003,-5.4400816,29.9768106,-28.0338946,20.9902326,-1.88458678,1.065827352,1.9355944395999998,-0.6207515619999999,-0.057405304459999994,0.17421360000000008
03:38:31,-2.651289245,2.1806674850000003,1.1531208849999999,-0.5811611399999999,0.06006138,-0.23160046,-5.4439865350000005,29.98450351,-28.03175616,21.00025466,-1.883245398,1.0703719031999999,1.9475303986099999,-0.6239376679499999,-0.0577908453485,0.1788961225000001
03:38:31,-2.65905129,2.19249337,1.1699351699999996,-0.5870258799999999,0.06174996000000005,-0.22956032000000004,-5.44789147,29.99219642,-28.02961772,21.01027672,-1.881904016,1.0749164544,1.9594663576199998,-0.6271237739,-0.058176386237,0.1835786450000001
03:38:31,-2.666813335,2.204319255,1.1867494549999997,-0.5928906199999999,0.06343854000000004,-0.22752018000000002,-5.451796405,29.999889330000002,-28.02747928,21.02029878,-1.880562634,1.0794610056,1.9714023166299999,-0.63030987985,-0.05856192712549999,0.1882611675000001
03:38:31,-2.6745753800000003,2.21614514,1.2035637399999999,-0.5987553599999998,0.06512712000000004,-0.22548004,-5.45570134,30.00758224,-28.025340840000002,21.030320839999998,-1.879221252,1.0840055568,1.9833382756399998,-0.6334959858,-0.05894746801399999,0.19294369
03:38:31,-2.682337425,2.2279710250000004,1.2203780249999996,-0.6046200999999999,0.06681570000000003,-0.22343990000000002,-5.4596062750000005,30.01527515,-28.023202400000002,21.0403429,-1.87787987,1.088550108,1.9952742346499999,-0.63668209175,-0.05933300890249999,0.1976262125
03:38:31,-2.69009947,2.2397969100000004,1.2371923099999997,-0.6104848399999999,0.06850428000000003,-0.22139976,-5.46351121,30.02296806,-28.021063960000003,21.05036496,-1.876538488,1.0930946592000002,2.0072101936599998,-0.6398681976999999,-0.05971854979099999,0.20230873500000002
03:38:31,-2.697861515,2.2516227950000003,1.254006595,-0.61634958,0.07019286000000002,-0.21935962000000003,-5.467416145,30.03066097,-28.01892552,21.06038702,-1.875197106,1.0976392104000001,2.01914615267,-0.6430543036499999,-0.060104090679500004,0.20699125750000003
03:38:31,-2.7056235600000003,2.26344868,1.2708208799999996,-0.6222143199999999,0.07188144000000002,-0.21731948,-5.47132108,30.03835388,-28.01678708,21.07040908,-1.873855724,1.1021837616,2.03108211168,-0.6462404096,-0.060489631568,0.21167378000000003
03:38:31,-2.713385605,2.275274565,1.2876351649999997,-0.6280790599999999,0.07357002000000001,-0.21527934000000004,-5.4752260150000005,30.046046790000002,-28.01464864,21.080431139999998,-1.8725143419999999,1.1067283128,2.0430180706899996,-0.64942651555,-0.0608751724565,0.21635630250000004
03:38:31,-2.72114765,2.28710045,1.30444945,-0.6339438,0.07525860000000001,-0.21323920000000002,-5.47913095,30.0537397,-28.0125102,21.0904532,-1.87117296,1.111272864,2.0549540296999997,-0.6526126215,-0.061260713345,0.22103882500000005
03:38:31,-2.728909695,2.298926335,1.3212637349999996,-0.63980854,0.07694718,-0.21119906,-5.483035885,30.06143261,-28.01037176,21.10047526,-1.8698315779999999,1.1158174152,2.06688998871,-0.65579872745,-0.0616462542335,0.22572134750000006
03:38:31,-2.7366717400000002,2.3107522200000004,1.3380780199999998,-0.6456732799999998,0.07863576,-0.20915892000000003,-5.48694082,30.06912552,-28.008233320000002,21.11049732,-1.868490196,1.1203619664,2.07882594772,-0.6589848333999999,-0.062031795122,0.23040387000000007
03:38:31,-2.744433785,2.3225781050000003,1.354892305,-0.6515380199999998,0.08032434000000005,-0.20711878,-5.4908457550000005,30.07681843,-28.006094880000003,21.120519379999998,-1.8671488139999999,1.1249065176,2.0907619067299996,-0.6621709393499999,-0.0624173360105,0.23508639250000007
03:38:31,-2.75219583,2.33440399,1.3717065899999996,-0.6574027599999999,0.08201292000000004,-0.20507864000000003,-5.49475069,30.08451134,-28.003956440000003,21.13054144,-1.865807432,1.1294510688,2.1026978657399997,-0.6653570453,-0.062802876899,0.23976891500000008
03:38:31,-2.759957875,2.346229875,1.3885208749999998,-0.6632674999999999,0.08370150000000004,-0.2030385,-5.498655625,30.09220425,-28.001818,21.1405635,-1.8644660499999999,1.1339956199999999,2.11463382475,-0.66854315125,-0.0631884177875,0.2444514375000001
03:38:31,-2.7677199200000002,2.35805576,1.40533516,-0.6691322399999999,0.08539008000000003,-0.20099836000000004,-5.50256056,30.09989716,-27.99967956,21.15058556,-1.863124668,1.1385401712,2.12656978376,-0.6717292572,-0.063573958676,0.2491339600000001
03:38:31,-2.775481965,2.369881645,1.4221494449999996,-0.67499698,0.08707866000000003,-0.19895822000000002,-5.5064654950000005,30.10759007,-27.99754112,21.16060762,-1.8617832859999999,1.1430847224,2.1385057427699996,-0.67491536315,-0.0639594995645,0.2538164825000001
03:38:31,-2.7832440099999998,2.3817075300000004,1.4389637299999998,-0.6808617199999998,0.08876724000000003,-0.19691808,-5.51037043,30.11528298,-27.99540268,21.170629679999998,-1.860441904,1.1476292736,2.1504417017799997,-0.6781014690999999,-0.064345040453,0.258499005
03:38:31,-2.791006055,2.3935334150000003,1.4557780149999995,-0.6867264599999998,0.09045582000000002,-0.19487794000000003,-5.514275365,30.12297589,-27.993264240000002,21.18065174,-1.8591005219999999,1.1521738248,2.16237766079,-0.6812875750499999,-0.0647305813415,0.2631815275
03:38:31,-2.7987681,2.4053593,1.4725922999999996,-0.6925911999999999,0.09214440000000002,-0.1928378,-5.5181803,30.130668800000002,-27.991125800000002,21.1906738,-1.85775914,1.1567183760000002,2.1743136198,-0.684473681,-0.06511612223,0.26786405
03:38:31,-2.806530145,2.417185185,1.4894065849999998,-0.6984559399999999,0.09383298000000001,-0.19079766000000004,-5.5220852350000005,30.13836171,-27.988987360000003,21.20069586,-1.8564177579999999,1.1612629272000001,2.1862495788099996,-0.68765978695,-0.0655016631185,0.27254657250000003
03:38:31,-2.8142921899999997,2.42901107,1.5062208699999995,-0.7043206799999999,0.09552156,-0.18875752,-5.52599017,30.14605462,-27.98684892,21.21071792,-1.855076376,1.1658074784,2.1981855378199997,-0.6908458929,-0.065887204007,0.27722909500000004
03:38:31,-2.822054235,2.440836955,1.5230351549999996,-0.71018542,0.09721014,-0.18671738000000004,-5.529895105,30.15374753,-27.98471048,21.220739979999998,-1.8537349939999999,1.1703520296,2.21012149683,-0.69403199885,-0.0662727448955,0.28191161750000004
03:38:31,-2.82981628,2.4526628400000003,1.5398494399999998,-0.71605016,0.09889872000000005,-0.18467724000000002,-5.53380004,30.16144044,-27.98257204,21.23076204,-1.852393612,1.1748965808,2.22205745584,-0.6972181048,-0.066658285784,0.28659414000000005
03:38:31,-2.837578325,2.4644887250000003,1.5566637249999995,-0.7219148999999998,0.10058730000000005,-0.1826371,-5.5377049750000005,30.16913335,-27.9804336,21.2407841,-1.8510522299999999,1.179441132,2.2339934148499996,-0.7004042107499999,-0.0670438266725,0.29127666250000006
03:38:31,-2.8453403699999997,2.47631461,1.5734780099999996,-0.7277796399999998,0.10227588000000004,-0.18059696000000003,-5.54160991,30.176826260000002,-27.978295160000002,21.25080616,-1.849710848,1.1839856832,2.2459293738599997,-0.7035903166999999,-0.067429367561,0.29595918500000007
03:38:31,-2.853102415,2.488140495,1.5902922949999998,-0.7336443799999999,0.10396446000000004,-0.17855682,-5.545514845,30.18451917,-27.976156720000002,21.26082822,-1.8483694659999998,1.1885302344,2.25786533287,-0.70677642265,-0.0678149084495,0.3006417075000001
03:38:31,-2.86086446,2.49996638,1.6071065799999995,-0.7395091199999999,0.10565304000000003,-0.17651668000000004,-5.54941978,30.19221208,-27.974018280000003,21.270850279999998,-1.847028084,1.1930747856,2.26980129188,-0.7099625286,-0.068200449338,0.3053242300000001
03:38:31,-2.868626505,2.511792265,1.6239208649999997,-0.7453738599999999,0.10734162000000003,-0.17447654,-5.5533247150000005,30.19990499,-27.97187984,21.28087234,-1.845686702,1.1976193367999999,2.2817372508899996,-0.71314863455,-0.0685859902265,0.3100067525000001
03:38:31,-2.8763885499999997,2.5236181500000003,1.6407351499999998,-0.7512386,0.10903020000000002,-0.17243640000000005,-5.55722965,30.2075979,-27.9697414,21.2908944,-1.84434532,1.2021638879999998,2.2936732098999997,-0.7163347405,-0.068971531115,0.3146892750000001
03:38:31,-2.884150595,2.5354440350000003,1.6575494349999995,-0.7571033399999998,0.11071878000000002,-0.17039626000000002,-5.561134585,30.21529081,-27.96760296,21.30091646,-1.8430039379999998,1.2067084392,2.30560916891,-0.7195208464499999,-0.0693570720035,0.3193717975000001
03:38:31,-2.89191264,2.54726992,1.6743637199999997,-0.7629680799999998,0.11240736000000001,-0.16835612,-5.56503952,30.222983720000002,-27.96546452,21.31093852,-1.841662556,1.2112529904,2.31754512792,-0.7227069523999999,-0.06974261289200001,0.32405432
03:38:31,-2.899674685,2.559095805,1.6911780049999998,-0.7688328199999999,0.11409594,-0.16631598000000003,-5.5689444550000005,30.23067663,-27.96332608,21.320960579999998,-1.840321174,1.2157975416,2.32948108693,-0.72589305835,-0.07012815378050001,0.3287368425
03:38:31,-2.90743673,2.57092169,1.7079922899999995,-0.7746975599999999,0.11578452,-0.16427584,-5.57284939,30.23836954,-27.961187640000002,21.33098264,-1.838979792,1.2203420928000002,2.3414170459399997,-0.7290791643,-0.07051369466900001,0.333419365
03:38:31,-2.9151987750000004,2.5827475750000004,1.7248065749999997,-0.7805622999999999,0.11747310000000005,-0.16223570000000004,-5.576754325,30.24606245,-27.959049200000003,21.3410047,-1.8376384099999998,1.2248866440000001,2.3533530049499998,-0.73226527025,-0.07089923555750001,0.33810188750000003
03:38:31,-2.92296082,2.5945734600000003,1.7416208599999998,-0.78642704,0.11916168000000005,-0.16019556000000001,-5.58065926,30.25375536,-27.956910760000003,21.35102676,-1.836297028,1.2294311952,2.36528896396,-0.7354513762,-0.07128477644600001,0.34278441000000004
03:38:31,-2.930722865,2.6063993450000003,1.7584351449999995,-0.7922917799999998,0.12085026000000004,-0.15815542000000005,-5.5845641950000005,30.261448270000002,-27.95477232,21.36104882,-1.834955646,1.2339757464,2.37722492297,-0.7386374821499999,-0.07167031733450001,0.34746693250000005
03:38:31,-2.93848491,2.61822523,1.7752494299999997,-0.7981565199999998,0.12253884000000004,-0.15611528000000002,-5.58846913,30.269141180000002,-27.95263388,21.371070879999998,-1.833614264,1.2385202976,2.3891608819799997,-0.7418235880999999,-0.07205585822300001,0.35214945500000006
03:38:31,-2.9462469550000003,2.630051115,1.7920637149999998,-0.8040212599999998,0.12422742000000003,-0.15407514000000005,-5.592374065,30.27683409,-27.95049544,21.38109294,-1.8322728819999998,1.2430648488,2.4010968409899998,-0.74500969405,-0.07244139911150001,0.35683197750000006
03:38:32,-2.954009,2.641877,1.808878,-0.809886,0.125916,-0.152035,-5.596279,30.284527,-27.948357,21.391115,-1.8309315,1.2476094,2.4130328,-0.7481958,-0.07282694,0.3615145
03:38:32,-2.9416197,2.62800178,1.798048495,-0.80334476,0.126640435,-0.15046361,-5.623844405,30.274145875000002,-27.96336028,21.38507155,-1.8246605056999998,1.2406513732,2.40158384618,-0.74222362515,-0.0709643311,0.3581858645
03:38:32,-2.9292304000000002,2.61412656,1.78721899,-0.79680352,0.12736487,-0.14889222,-5.65140981,30.26376475,-27.978363560000002,21.3790281,-1.8183895114,1.2336933464,2.39013489236,-0.7362514502999999,-0.06910172220000001,0.354857229
03:38:32,-2.9168411,2.6002513400000002,1.776389485,-0.79026228,0.128089305,-0.14732083,-5.678975215,30.253383625,-27.99336684,21.37298465,-1.8121185171,1.2267353196,2.37868593854,-0.7302792754499999,-0.0672391133,0.35152859350000004
03:38:32,-2.9044518,2.58637612,1.76555998,-0.78372104,0.12881374,-0.14574944,-5.70654062,30.2430025,-28.008370120000002,21.3669412,-1.8058475228,1.2197772928,2.36723698472,-0.7243071005999999,-0.06537650440000001,0.34819995800000003
03:38:32,-2.8920625,2.5725009,1.754730475,-0.7771798,0.129538175,-0.14417805,-5.734106025,30.232621375,-28.0233734,21.36089775,-1.7995765284999998,1.212819266,2.3557880309,-0.71833492575,-0.0635138955,0.3448713225
03:38:32,-2.8796732,2.55862568,1.7439009699999999,-0.77063856,0.13026261,-0.14260666,-5.76167143,30.222240250000002,-28.038376680000002,21.3548543,-1.7933055342,1.2058612391999999,2.34433907708,-0.7123627509,-0.06165128660000001,0.341542687
03:38:32,-2.8672839000000003,2.54475046,1.733071465,-0.76409732,0.130987045,-0.14103527,-5.789236835,30.211859125,-28.05337996,21.34881085,-1.7870345399,1.1989032124,2.33289012326,-0.70639057605,-0.05978867770000001,0.3382140515
03:38:32,-2.8548946,2.53087524,1.72224196,-0.75755608,0.13171148,-0.13946388,-5.81680224,30.201478,-28.068383240000003,21.3427674,-1.7807635456,1.1919451856,2.32144116944,-0.7004184012,-0.05792606880000001,0.334885416
03:38:32,-2.8425053,2.5170000200000002,1.711412455,-0.75101484,0.132435915,-0.13789249,-5.844367645,30.191096875,-28.08338652,21.33672395,-1.7744925512999998,1.1849871588,2.30999221562,-0.69444622635,-0.0560634599,0.33155678050000004
03:38:32,-2.8301160000000003,2.5031248,1.70058295,-0.7444736,0.13316035,-0.1363211,-5.87193305,30.18071575,-28.0983898,21.3306805,-1.768221557,1.178029132,2.2985432618,-0.6884740515,-0.05420085100000001,0.328228145
03:38:32,-2.8177267,2.48924958,1.689753445,-0.73793236,0.133884785,-0.13474971,-5.899498455,30.170334625,-28.11339308,21.32463705,-1.7619505627,1.1710711052,2.28709430798,-0.68250187665,-0.0523382421,0.3248995095
03:38:32,-2.8053374,2.47537436,1.67892394,-0.73139112,0.13460922,-0.13317832000000002,-5.92706386,30.1599535,-28.12839636,21.3185936,-1.7556795684,1.1641130784,2.27564535416,-0.6765297017999999,-0.05047563320000001,0.321570874
03:38:32,-2.7929481000000003,2.46149914,1.668094435,-0.72484988,0.135333655,-0.13160693,-5.954629265,30.149572375,-28.143399640000002,21.31255015,-1.7494085740999998,1.1571550516,2.26419640034,-0.6705575269499999,-0.0486130243,0.3182422385
03:38:32,-2.7805588,2.44762392,1.65726493,-0.71830864,0.13605809,-0.13003554,-5.98219467,30.13919125,-28.15840292,21.3065067,-1.7431375798,1.1501970248,2.25274744652,-0.6645853520999999,-0.04675041540000001,0.31491360300000004
03:38:32,-2.7681695,2.4337487,1.646435425,-0.7117674,0.136782525,-0.12846415,-6.009760075,30.128810125,-28.173406200000002,21.30046325,-1.7368665855,1.143238998,2.2412984927,-0.6586131772499999,-0.0448878065,0.31158496750000003
03:38:32,-2.7557802000000002,2.41987348,1.63560592,-0.70522616,0.13750696,-0.12689276,-6.03732548,30.118429,-28.18840948,21.2944198,-1.7305955912,1.1362809712,2.22984953888,-0.6526410024,-0.04302519760000001,0.308256332
03:38:32,-2.7433909,2.40599826,1.624776415,-0.69868492,0.138231395,-0.12532137000000002,-6.064890885,30.108047875,-28.203412760000003,21.28837635,-1.7243245968999998,1.1293229444,2.21840058506,-0.64666882755,-0.0411625887,0.3049276965
03:38:32,-2.7310016,2.39212304,1.61394691,-0.69214368,0.13895583,-0.12374998000000001,-6.09245629,30.097666750000002,-28.21841604,21.2823329,-1.7180536026,1.1223649176,2.20695163124,-0.6406966527,-0.0392999798,0.301599061
03:38:32,-2.7186123,2.37824782,1.6031174049999999,-0.68560244,0.139680265,-0.12217859,-6.120021695,30.087285625,-28.233419320000003,21.27628945,-1.7117826083,1.1154068907999999,2.19550267742,-0.63472447785,-0.0374373709,0.29827042550000005
03:38:32,-2.706223,2.3643726000000003,1.5922879,-0.6790612,0.1404047,-0.1206072,-6.1475871,30.0769045,-28.2484226,21.270246,-1.705511614,1.108448864,2.1840537236,-0.628752303,-0.035574762,0.29494179
03:38:32,-2.6938337,2.35049738,1.581458395,-0.67251996,0.141129135,-0.11903581,-6.175152505,30.066523375,-28.26342588,21.26420255,-1.6992406196999998,1.1014908372,2.17260476978,-0.62278012815,-0.0337121531,0.2916131545
03:38:32,-2.6814444,2.33662216,1.57062889,-0.66597872,0.14185357,-0.11746442000000001,-6.2027179100000005,30.05614225,-28.27842916,21.2581591,-1.6929696254,1.0945328104,2.16115581596,-0.6168079532999999,-0.0318495442,0.288284519
03:38:32,-2.6690551,2.32274694,1.559799385,-0.65943748,0.142578005,-0.11589303000000001,-6.230283315,30.045761125000002,-28.29343244,21.25211565,-1.6866986311,1.0875747836,2.14970686214,-0.6108357784499999,-0.029986935300000003,0.2849558835
03:38:32,-2.6566658,2.30887172,1.54896988,-0.65289624,0.14330244,-0.11432164,-6.25784872,30.03538,-28.308435720000002,21.2460722,-1.6804276368,1.0806167568,2.13825790832,-0.6048636035999999,-0.028124326400000003,0.281627248
03:38:32,-2.6442765,2.2949965,1.538140375,-0.646355,0.144026875,-0.11275025,-6.285414125,30.024998875,-28.323439,21.24002875,-1.6741566424999998,1.07365873,2.1268089545,-0.59889142875,-0.026261717500000004,0.2782986125
03:38:32,-2.6318872,2.2811212800000003,1.52731087,-0.63981376,0.14475131,-0.11117886,-6.31297953,30.01461775,-28.338442280000002,21.2339853,-1.6678856482,1.0667007032,2.11536000068,-0.5929192539,-0.024399108600000004,0.27496997700000003
03:38:32,-2.6194979000000003,2.26724606,1.516481365,-0.63327252,0.145475745,-0.10960747000000001,-6.3405449350000005,30.004236625,-28.35344556,21.22794185,-1.6616146539,1.0597426764,2.10391104686,-0.58694707905,-0.022536499700000004,0.2716413415
03:38:32,-2.6071086,2.25337084,1.50565186,-0.62673128,0.14620018,-0.10803608,-6.36811034,29.993855500000002,-28.368448840000003,21.2218984,-1.6553436596,1.0527846496,2.09246209304,-0.5809749042,-0.020673890800000004,0.268312706
03:38:32,-2.5947193,2.23949562,1.494822355,-0.62019004,0.146924615,-0.10646469,-6.395675745,29.983474375,-28.38345212,21.21585495,-1.6490726652999999,1.0458266228,2.08101313922,-0.57500272935,-0.018811281900000004,0.2649840705
03:38:32,-2.5823300000000002,2.2256204,1.48399285,-0.6136488,0.14764905,-0.1048933,-6.42324115,29.97309325,-28.398455400000003,21.2098115,-1.642801671,1.038868596,2.0695641854,-0.5690305545,-0.016948673000000004,0.261655435
03:38:32,-2.5699407,2.2117451800000003,1.4731633450000001,-0.60710756,0.148373485,-0.10332191,-6.450806555,29.962712125,-28.41345868,21.20376805,-1.6365306767,1.0319105692,2.05811523158,-0.5630583796499999,-0.015086064100000005,0.25832679950000004
03:38:32,-2.5575514,2.1978699600000002,1.4623338399999999,-0.60056632,0.14909792,-0.10175052000000001,-6.4783719600000005,29.952331,-28.42846196,21.1977246,-1.6302596824,1.0249525423999999,2.04666627776,-0.5570862047999999,-0.013223455200000005,0.254998164
03:38:32,-2.5451621,2.18399474,1.451504335,-0.59402508,0.149822355,-0.10017913,-6.505937365,29.941949875,-28.443465240000002,21.19168115,-1.6239886880999999,1.0179945155999999,2.03521732394,-0.5511140299499999,-0.011360846300000005,0.2516695285
03:38:32,-2.5327728,2.17011952,1.44067483,-0.58748384,0.15054679,-0.09860774,-6.53350277,29.93156875,-28.45846852,21.185637699999997,-1.6177176938,1.0110364887999999,2.02376837012,-0.5451418551,-0.009498237399999998,0.248340893
03:38:32,-2.5203835000000003,2.1562443,1.429845325,-0.5809426,0.151271225,-0.09703635000000001,-6.561068175,29.921187625,-28.473471800000002,21.179594249999997,-1.6114466995,1.004078462,2.0123194163,-0.5391696802499999,-0.007635628500000005,0.2450122575
03:38:32,-2.5079942,2.14236908,1.41901582,-0.57440136,0.15199566,-0.09546496,-6.58863358,29.9108065,-28.48847508,21.173550799999997,-1.6051757052,0.9971204352,2.00087046248,-0.5331975054,-0.005773019599999998,0.24168362200000001
03:38:32,-2.4956049,2.12849386,1.408186315,-0.56786012,0.152720095,-0.09389357000000001,-6.6161989850000005,29.900425375,-28.503478360000003,21.167507349999998,-1.5989047108999999,0.9901624084,1.98942150866,-0.52722533055,-0.0039104107000000055,0.23835498650000003
03:38:32,-2.4832156000000003,2.11461864,1.39735681,-0.56131888,0.15344453,-0.09232218,-6.64376439,29.89004425,-28.51848164,21.161463899999998,-1.5926337166,0.9832043816,1.97797255484,-0.5212531557,-0.0020478017999999987,0.23502635100000002
03:38:32,-2.4708263,2.10074342,1.386527305,-0.55477764,0.154168965,-0.09075079,-6.671329795,29.879663125,-28.533484920000003,21.155420449999998,-1.5863627223,0.9762463548,1.96652360102,-0.51528098085,-0.00018519290000000577,0.2316977155
03:38:32,-2.458437,2.0868682,1.3756978,-0.5482364,0.15489340000000001,-0.0891794,-6.6988952,29.869282000000002,-28.5484882,21.149376999999998,-1.580091728,0.969288328,1.9550746472,-0.509308806,0.001677416000000001,0.22836908
03:38:32,-2.4460477000000003,2.07299298,1.364868295,-0.54169516,0.155617835,-0.08760801,-6.726460605,29.858900875,-28.56349148,21.143333549999998,-1.5738207336999999,0.9623303012,1.94362569338,-0.5033366311499999,0.003540024899999994,0.22504044450000002
03:38:32,-2.4336584,2.0591177600000004,1.35403879,-0.53515392,0.15634227,-0.08603662000000001,-6.7540260100000005,29.84851975,-28.57849476,21.137290099999998,-1.5675497394,0.9553722743999999,1.93217673956,-0.4973644563,0.005402633800000001,0.221711809
03:38:32,-2.4212691,2.0452425400000003,1.343209285,-0.52861268,0.157066705,-0.08446523,-6.781591415,29.838138625,-28.59349804,21.131246649999998,-1.5612787451,0.9484142475999999,1.92072778574,-0.49139228144999997,0.007265242699999994,0.2183831735
03:38:32,-2.4088798000000002,2.03136732,1.3323797800000001,-0.5220714399999999,0.15779114,-0.08289384000000001,-6.80915682,29.8277575,-28.608501320000002,21.125203199999998,-1.5550077508,0.9414562207999999,1.90927883192,-0.48542010659999996,0.0091278516,0.21505453800000002
03:38:32,-2.3964905,2.0174921,1.3215502749999999,-0.5155301999999999,0.15851557500000002,-0.08132245,-6.836722225,29.817376375000002,-28.6235046,21.119159749999998,-1.5487367564999999,0.9344981939999999,1.8978298781,-0.47944793174999994,0.010990460499999993,0.2117259025
03:38:32,-2.3841012,2.00361688,1.31072077,-0.5089889599999999,0.15924001,-0.07975106,-6.86428763,29.80699525,-28.638507880000002,21.113116299999998,-1.5424657622,0.9275401672,1.88638092428,-0.47347575689999993,0.0128530694,0.20839726700000002
03:38:32,-2.3717119,1.98974166,1.2998912649999999,-0.5024477199999999,0.159964445,-0.07817967,-6.8918530350000005,29.796614125,-28.65351116,21.107072849999998,-1.5361947679,0.9205821404,1.87493197046,-0.46750358205,0.014715678299999993,0.20506863150000001
03:38:32,-2.3593226,1.9758664400000001,1.28906176,-0.49590648,0.16068888,-0.07660828,-6.91941844,29.786233,-28.668514440000003,21.101029399999998,-1.5299237736,0.9136241136,1.86348301664,-0.46153140719999997,0.0165782872,0.201739996
03:38:32,-2.3469333,1.96199122,1.278232255,-0.48936524,0.161413315,-0.07503689000000001,-6.946983845,29.775851875,-28.68351772,21.094985949999998,-1.5236527792999999,0.9066660868,1.85203406282,-0.45555923234999995,0.018440896099999993,0.19841136050000002
03:38:32,-2.334544,1.9481160000000002,1.26740275,-0.482824,0.16213775,-0.0734655,-6.97454925,29.76547075,-28.698521,21.088942499999998,-1.517381785,0.89970806,1.840585109,-0.44958705749999994,0.020303505,0.195082725
03:38:32,-2.3221547,1.93424078,1.256573245,-0.47628275999999997,0.162862185,-0.07189411000000001,-7.002114655,29.755089625,-28.71352428,21.082899049999998,-1.5111107907,0.8927500332,1.82913615518,-0.44361488264999993,0.022166113899999992,0.1917540895
03:38:32,-2.3097654,1.92036556,1.24574374,-0.46974151999999997,0.16358662000000002,-0.07032272,-7.0296800600000005,29.7447085,-28.72852756,21.0768556,-1.5048397964,0.8857920064,1.81768720136,-0.4376427078,0.0240287228,0.18842545400000002
03:38:32,-2.2973761,1.90649034,1.234914235,-0.46320027999999996,0.164311055,-0.06875133,-7.057245465,29.734327375,-28.743530840000002,21.07081215,-1.4985688020999999,0.8788339796,1.80623824754,-0.43167053294999996,0.025891331699999992,0.1850968185
03:38:32,-2.2849868,1.89261512,1.22408473,-0.45665903999999996,0.16503549,-0.06717994000000001,-7.08481087,29.72394625,-28.75853412,21.0647687,-1.4922978078,0.8718759528,1.79478929372,-0.42569835809999995,0.0277539406,0.181768183
03:38:32,-2.2725975,1.8787399000000002,1.2132552250000002,-0.45011779999999996,0.165759925,-0.06560855,-7.112376275,29.713565125,-28.773537400000002,21.05872525,-1.4860268135,0.864917926,1.7833403399,-0.41972618324999994,0.029616549499999992,0.17843954750000002
03:38:32,-2.2602082,1.8648646800000002,1.20242572,-0.44357656,0.16648436,-0.06403716000000001,-7.13994168,29.703184,-28.78854068,21.0526818,-1.4797558192,0.8579598991999999,1.77189138608,-0.41375400839999993,0.0314791584,0.175110912
03:38:32,-2.2478189,1.85098946,1.1915962150000001,-0.43703532,0.167208795,-0.062465770000000004,-7.1675070850000004,29.692802875,-28.803543960000002,21.04663835,-1.4734848248999999,0.8510018723999999,1.76044243226,-0.40778183355,0.03334176729999999,0.1717822765
03:38:32,-2.2354296,1.83711424,1.1807667099999999,-0.43049408,0.16793323,-0.06089438,-7.19507249,29.68242175,-28.81854724,21.0405949,-1.4672138306,0.8440438455999999,1.74899347844,-0.40180965869999996,0.0352043762,0.16845364100000002
03:38:32,-2.2230403,1.82323902,1.169937205,-0.42395284,0.168657665,-0.059322990000000006,-7.222637895,29.672040625,-28.833550520000003,21.03455145,-1.4609428363,0.8370858188,1.73754452462,-0.39583748384999995,0.03706698509999999,0.1651250055
03:38:32,-2.210651,1.8093638,1.1591076999999999,-0.4174116,0.1693821,-0.0577516,-7.2502033,29.6616595,-28.8485538,21.028508,-1.454671842,0.830127792,1.7260955708,-0.38986530899999994,0.038929594,0.16179637000000002
03:38:32,-2.1982617,1.7954885800000002,1.148278195,-0.41087036,0.170106535,-0.05618021000000001,-7.277768705,29.651278375,-28.86355708,21.02246455,-1.4484008476999999,0.8231697652,1.71464661698,-0.3838931341499999,0.04079220289999999,0.1584677345
03:38:32,-2.1858724,1.7816133600000001,1.13744869,-0.40432912,0.17083097,-0.05460882,-7.30533411,29.640897250000002,-28.87856036,21.0164211,-1.4421298534,0.8162117383999999,1.70319766316,-0.37792095929999997,0.0426548118,0.155139099
03:38:32,-2.1734831000000003,1.76773814,1.126619185,-0.39778788,0.171555405,-0.05303743000000001,-7.332899515,29.630516125,-28.89356364,21.01037765,-1.4358588591,0.8092537116,1.69174870934,-0.37194878444999996,0.04451742069999999,0.15181046350000002
03:38:32,-2.1610938,1.75386292,1.11578968,-0.39124664,0.17227984000000002,-0.051466040000000005,-7.36046492,29.620135,-28.908566920000002,21.0043342,-1.4295878648,0.8022956848,1.68029975552,-0.36597660959999995,0.0463800296,0.148481828
03:38:32,-2.1487045,1.7399877000000001,1.104960175,-0.3847054,0.173004275,-0.04989465,-7.388030325,29.609753875,-28.9235702,20.99829075,-1.4233168704999999,0.795337658,1.6688508017,-0.36000443474999994,0.048242638500000004,0.1451531925
03:38:32,-2.1363152000000003,1.72611248,1.09413067,-0.37816415999999997,0.17372871,-0.04832326000000001,-7.41559573,29.59937275,-28.938573480000002,20.9922473,-1.4170458762,0.7883796312,1.6574018478800001,-0.3540322598999999,0.0501052474,0.14182455700000002
03:38:32,-2.1239259,1.7122372600000002,1.083301165,-0.37162291999999997,0.174453145,-0.04675187,-7.443161135,29.588991625000002,-28.95357676,20.98620385,-1.4107748819,0.7814216044,1.6459528940600001,-0.34806008504999997,0.051967856300000004,0.1384959215
03:38:32,-2.1115366,1.6983620400000001,1.0724716600000002,-0.36508167999999996,0.17517758,-0.04518048000000001,-7.47072654,29.5786105,-28.968580040000003,20.9801604,-1.4045038876,0.7744635776,1.6345039402400001,-0.34208791019999996,0.05383046520000001,0.135167286
03:38:32,-2.0991473000000003,1.68448682,1.061642155,-0.35854043999999996,0.175902015,-0.04360909,-7.498291945,29.568229375,-28.98358332,20.97411695,-1.3982328933,0.7675055507999999,1.6230549864200001,-0.33611573534999994,0.05569307409999999,0.13183865050000002
03:38:32,-2.086758,1.6706116,1.0508126500000001,-0.35199919999999996,0.17662645,-0.04203770000000001,-7.52585735,29.55784825,-28.998586600000003,20.9680735,-1.391961899,0.7605475239999999,1.6116060326000001,-0.33014356049999993,0.057555682999999996,0.128510015
03:38:32,-2.0743687,1.6567363800000001,1.0399831449999999,-0.34545795999999995,0.177350885,-0.040466310000000005,-7.553422755,29.547467125,-29.01358988,20.96203005,-1.3856909047000001,0.7535894971999999,1.6001570787800001,-0.3241713856499999,0.0594182919,0.12518137950000002
03:38:32,-2.0619794000000002,1.6428611600000003,1.02915364,-0.33891671999999995,0.17807532,-0.03889492,-7.58098816,29.537086,-29.02859316,20.9559866,-1.3794199104,0.7466314704,1.5887081249600001,-0.31819921079999997,0.06128090080000001,0.12185274400000001
03:38:32,-2.0495901,1.6289859400000002,1.0183241349999999,-0.33237548,0.178799755,-0.03732353000000001,-7.608553565,29.526704875,-29.04359644,20.94994315,-1.3731489161,0.7396734436,1.5772591711400001,-0.31222703594999995,0.06314350969999999,0.1185241085
03:38:32,-2.0372008,1.61511072,1.00749463,-0.32583424,0.17952419,-0.03575214,-7.63611897,29.51632375,-29.05859972,20.9438997,-1.3668779218,0.7327154168,1.5658102173200001,-0.30625486109999994,0.0650061186,0.11519547300000002
03:38:32,-2.0248115,1.6012355,0.996665125,-0.319293,0.180248625,-0.03418075000000001,-7.663684375,29.505942625,-29.073603000000002,20.93785625,-1.3606069275000001,0.72575739,1.5543612635000001,-0.30028268624999993,0.0668687275,0.11186683750000001
03:38:32,-2.0124222,1.5873602800000002,0.98583562,-0.31275176,0.18097306000000002,-0.032609360000000004,-7.69124978,29.4955615,-29.08860628,20.9318128,-1.3543359332,0.7187993631999999,1.5429123096800001,-0.2943105113999999,0.06873133640000001,0.10853820200000003
03:38:32,-2.0000329,1.57348506,0.975006115,-0.30621051999999993,0.18169749500000001,-0.031037969999999998,-7.718815185,29.485180375,-29.103609560000002,20.92576935,-1.3480649389,0.7118413363999999,1.5314633558600002,-0.28833833654999996,0.07059394529999999,0.10520956650000002
03:38:32,-1.9876436000000002,1.55960984,0.96417661,-0.2996692799999999,0.18242193,-0.029466580000000006,-7.74638059,29.47479925,-29.11861284,20.9197259,-1.3417939446,0.7048833096,1.5200144020400002,-0.28236616169999995,0.0724565542,0.10188093100000001
03:38:32,-1.9752543,1.5457346200000002,0.953347105,-0.2931280399999999,0.183146365,-0.02789519,-7.773945995,29.464418125,-29.133616120000003,20.91368245,-1.3355229503000001,0.6979252828,1.5085654482200002,-0.27639398684999994,0.0743191631,0.0985522955
03:38:32,-1.962865,1.5318594,0.9425176,-0.2865867999999999,0.1838708,-0.02632380000000001,-7.8015114,29.454037,-29.1486194,20.907639,-1.329251956,0.690967256,1.4971164944000002,-0.27042181199999993,0.07618177200000001,0.09522365999999999
03:38:32,-1.9504757000000001,1.51798418,0.931688095,-0.28004556,0.184595235,-0.024752410000000002,-7.829076805,29.443655875,-29.16362268,20.90159555,-1.3229809617,0.6840092292,1.4856675405800002,-0.2644496371499999,0.07804438089999999,0.09189502450000003
03:38:32,-1.9380864,1.5041089600000002,0.92085859,-0.27350432,0.18531967,-0.023181019999999997,-7.85664221,29.43327475,-29.17862596,20.8955521,-1.3167099674,0.6770512023999999,1.4742185867600002,-0.25847746229999996,0.0799069898,0.08856638900000002
03:38:32,-1.9256971,1.49023374,0.910029085,-0.26696308,0.18604410500000002,-0.02160963000000002,-7.884207615,29.422893625,-29.19362924,20.88950865,-1.3104389731000001,0.6700931755999999,1.4627696329400002,-0.25250528744999995,0.0817695987,0.08523775350000001
03:38:32,-1.9133078000000001,1.4763585200000002,0.89919958,-0.26042184,0.18676854,-0.020038240000000013,-7.91177302,29.412512500000002,-29.208632520000002,20.8834652,-1.3041679788,0.6631351487999999,1.4513206791200002,-0.2465331126,0.08363220760000001,0.081909118
03:38:32,-1.9009185,1.4624833000000002,0.888370075,-0.2538806,0.187492975,-0.018466850000000007,-7.939338425000001,29.402131375,-29.2236358,20.87742175,-1.2978969845,0.656177122,1.4398717253000002,-0.24056093774999998,0.08549481649999999,0.07858048249999999
03:38:32,-1.8885292,1.44860808,0.87754057,-0.24733936,0.18821741,-0.01689546,-7.96690383,29.39175025,-29.238639080000002,20.8713783,-1.2916259902,0.6492190952,1.4284227714800002,-0.23458876289999997,0.0873574254,0.07525184699999998
03:38:32,-1.8761399,1.4347328600000002,0.8667110650000001,-0.24079812,0.188941845,-0.015324069999999995,-7.994469235,29.381369125,-29.25364236,20.86533485,-1.2853549959000001,0.6422610684,1.4169738176600002,-0.22861658804999996,0.0892200343,0.07192321150000003
03:38:32,-1.8637506000000001,1.4208576400000001,0.85588156,-0.23425688,0.18966628000000002,-0.013752680000000017,-8.022034640000001,29.370988,-29.268645640000003,20.8592914,-1.2790840016,0.6353030416,1.40552486384,-0.22264441319999995,0.09108264320000001,0.06859457600000002
03:38:32,-1.8513613,1.40698242,0.845052055,-0.22771564,0.190390715,-0.012181290000000011,-8.049600045,29.360606875000002,-29.28364892,20.85324795,-1.2728130073,0.6283450147999999,1.39407591002,-0.21667223834999993,0.09294525209999999,0.06526594050000001
03:38:32,-1.838972,1.3931072000000002,0.83422255,-0.2211744,0.19111515,-0.010609900000000005,-8.07716545,29.35022575,-29.2986522,20.8472045,-1.266542013,0.6213869879999999,1.3826269562,-0.21070006349999992,0.094807861,0.061937305
03:38:32,-1.8265827000000001,1.3792319800000001,0.823393045,-0.21463316,0.191839585,-0.00903851,-8.104730855,29.339844625,-29.31365548,20.84116105,-1.2602710187000001,0.6144289612,1.37117800238,-0.2047278886499999,0.0966704699,0.05860866949999999
03:38:32,-1.8141934,1.36535676,0.81256354,-0.20809191999999999,0.19256402,-0.007467119999999994,-8.13229626,29.3294635,-29.32865876,20.8351176,-1.2540000244,0.6074709344,1.35972904856,-0.1987557137999999,0.0985330788,0.05528003400000003
03:38:32,-1.8018041,1.3514815400000002,0.801734035,-0.20155067999999998,0.19328845500000003,-0.005895730000000016,-8.159861665000001,29.319082375,-29.34366204,20.82907415,-1.2477290301,0.6005129076,1.34828009474,-0.1927835389499999,0.10039568769999999,0.05195139850000002
03:38:32,-1.7894148,1.3376063200000001,0.7909045299999999,-0.19500943999999998,0.19401289,-0.00432434000000001,-8.18742707,29.30870125,-29.35866532,20.8230307,-1.2414580358,0.5935548808,1.33683114092,-0.1868113641,0.10225829659999999,0.04862276300000001
03:38:32,-1.7770255000000001,1.3237311,0.7800750249999999,-0.18846819999999997,0.19473732500000002,-0.002752950000000004,-8.214992475,29.298320125,-29.373668600000002,20.81698725,-1.2351870415000001,0.586596854,1.3253821871,-0.18083918924999998,0.1041209055,0.0452941275
03:38:32,-1.7646362,1.3098558800000002,0.7692455200000001,-0.18192695999999997,0.19546176,-0.0011815599999999982,-8.24255788,29.287939,-29.38867188,20.8109438,-1.2289160472,0.5796388271999999,1.31393323328,-0.17486701439999996,0.1059835144,0.04196549199999999
03:38:32,-1.7522469,1.2959806600000001,0.7584160150000001,-0.17538571999999997,0.196186195,0.00038983000000000767,-8.270123285,29.277557875,-29.403675160000002,20.80490035,-1.2226450529,0.5726808003999999,1.30248427946,-0.16889483954999995,0.10784612330000001,0.03863685649999998
03:38:32,-1.7398576000000001,1.28210544,0.7475865100000001,-0.16884447999999996,0.19691063,0.0019612199999999858,-8.297688690000001,29.26717675,-29.41867844,20.7988569,-1.2163740586,0.5657227736,1.29103532564,-0.16292266469999994,0.10970873219999999,0.03530822100000003
03:38:32,-1.7274683,1.2682302200000002,0.7367570050000001,-0.16230323999999996,0.197635065,0.0035326099999999916,-8.325254095,29.256795625,-29.433681720000003,20.79281345,-1.2101030643000001,0.5587647468,1.27958637182,-0.15695048984999993,0.1115713411,0.03197958550000002
03:38:32,-1.715079,1.254355,0.7259275000000001,-0.15576199999999996,0.19835950000000002,0.005103999999999997,-8.3528195,29.2464145,-29.448685,20.786769999999997,-1.20383207,0.55180672,1.268137418,-0.15097831499999992,0.11343395,0.02865095000000001
03:38:32,-1.7026897,1.2404797800000003,0.715097995,-0.14922075999999995,0.199083935,0.006675390000000003,-8.380384905,29.236033375,-29.46368828,20.780726549999997,-1.1975610757,0.5448486932,1.25668846418,-0.1450061401499999,0.11529655890000001,0.0253223145
03:38:32,-1.6903004000000001,1.2266045600000002,0.70426849,-0.14267951999999995,0.19980837,0.008246779999999981,-8.40795031,29.22565225,-29.47869156,20.774683099999997,-1.1912900814,0.5378906663999999,1.24523951036,-0.1390339652999999,0.11715916779999999,0.021993678999999988
03:38:32,-1.6779111,1.21272934,0.693438985,-0.13613827999999994,0.200532805,0.009818169999999987,-8.435515715000001,29.215271125,-29.49369484,20.768639649999997,-1.1850190871000001,0.5309326395999999,1.23379055654,-0.13306179044999988,0.1190217767,0.018665043500000034
03:38:32,-1.6655218,1.1988541200000002,0.68260948,-0.12959703999999994,0.20125724,0.011389559999999993,-8.46308112,29.20489,-29.508698120000002,20.762596199999997,-1.1787480928,0.5239746127999999,1.22234160272,-0.12708961559999998,0.1208843856,0.015336408000000024
03:38:32,-1.6531325000000001,1.1849789000000002,0.671779975,-0.12305579999999994,0.201981675,0.012960949999999999,-8.490646525,29.194508875,-29.5237014,20.756552749999997,-1.1724770985,0.517016586,1.2108926489,-0.12111744074999997,0.12274699450000001,0.012007772500000014
03:38:32,-1.6407432,1.17110368,0.66095047,-0.11651455999999993,0.20270611,0.014532340000000005,-8.51821193,29.184127750000002,-29.538704680000002,20.750509299999997,-1.1662061042,0.5100585592,1.19944369508,-0.11514526589999996,0.12460960339999999,0.008679137000000003
03:38:32,-1.6283539,1.1572284600000002,0.6501209649999999,-0.10997331999999993,0.20343054500000002,0.016103729999999983,-8.545777335,29.173746625,-29.55370796,20.744465849999997,-1.1599351099000001,0.5031005324,1.18799474126,-0.10917309104999995,0.1264722123,0.005350501499999993
03:38:32,-1.6159646,1.1433532400000002,0.6392914599999999,-0.10343207999999993,0.20415497999999999,0.01767511999999999,-8.573342740000001,29.1633655,-29.568711240000003,20.738422399999997,-1.1536641156,0.49614250559999995,1.17654578744,-0.10320091619999994,0.1283348212,0.0020218659999999833
03:38:32,-1.6035753,1.12947802,0.6284619550000001,-0.09689083999999992,0.204879415,0.019246509999999994,-8.600908145,29.152984375,-29.58371452,20.732378949999998,-1.1473931213,0.48918447879999993,1.16509683362,-0.09722874134999993,0.1301974301,-0.0013067694999999713
03:38:32,-1.591186,1.1156028000000002,0.6176324500000001,-0.09034959999999992,0.20560385,0.0208179,-8.62847355,29.14260325,-29.598717800000003,20.726335499999998,-1.141122127,0.4822264519999999,1.1536478798,-0.09125656649999991,0.132060039,-0.004635404999999981
03:38:32,-1.5787967,1.1017275800000002,0.6068029450000001,-0.08380835999999992,0.206328285,0.022389290000000006,-8.656038955,29.132222125,-29.61372108,20.720292049999998,-1.1348511327000002,0.4752684251999999,1.14219892598,-0.0852843916499999,0.1339226479,-0.007964040499999991
03:38:32,-1.5664074000000001,1.08785236,0.5959734400000001,-0.07726712000000002,0.20705272000000002,0.023960679999999984,-8.68360436,29.121841,-29.62872436,20.714248599999998,-1.1285801384,0.4683103984,1.13074997216,-0.07931221679999989,0.1357852568,-0.011292676000000001
03:38:32,-1.5540181,1.0739771400000002,0.5851439350000001,-0.07072588000000002,0.207777155,0.02553206999999999,-8.711169765000001,29.111459875,-29.64372764,20.708205149999998,-1.1223091441,0.4613523716,1.11930101834,-0.07334004194999988,0.1376478657,-0.014621311500000012
03:38:32,-1.5416288,1.0601019200000001,0.57431443,-0.06418464000000002,0.20850159000000001,0.027103459999999996,-8.73873517,29.10107875,-29.65873092,20.702161699999998,-1.1160381498,0.45439434479999996,1.10785206452,-0.06736786709999998,0.1395104746,-0.01794994700000002
03:38:32,-1.5292395,1.0462267,0.563484925,-0.05764340000000001,0.209226025,0.02867485,-8.766300575,29.090697625,-29.673734200000002,20.696118249999998,-1.1097671555000002,0.44743631799999994,1.0964031107,-0.06139569224999997,0.1413730835,-0.021278582499999976
03:38:32,-1.5168502,1.0323514800000002,0.55265542,-0.05110216000000001,0.20995046,0.030246240000000008,-8.79386598,29.0803165,-29.68873748,20.690074799999998,-1.1034961612,0.4404782911999999,1.08495415688,-0.055423517399999955,0.1432356924,-0.024607217999999986
03:38:32,-1.5044609,1.0184762600000001,0.541825915,-0.044560920000000004,0.210674895,0.031817629999999986,-8.821431385,29.069935375,-29.703740760000002,20.684031349999998,-1.0972251669,0.4335202643999999,1.07350520306,-0.049451342549999944,0.1450983013,-0.027935853499999996
03:38:32,-1.4920716,1.00460104,0.53099641,-0.03801968,0.21139933,0.03338901999999999,-8.848996790000001,29.05955425,-29.71874404,20.677987899999998,-1.0909541726,0.4265622376,1.06205624924,-0.04347916769999993,0.1469609102,-0.031264489000000006
03:38:32,-1.4796823000000001,0.9907258200000002,0.520166905,-0.031478439999999996,0.21212376500000002,0.03496041,-8.876562195,29.049173125,-29.733747320000003,20.671944449999998,-1.0846831783000002,0.4196042108,1.05060729542,-0.03750699284999992,0.1488235191,-0.034593124500000016
03:38:32,-1.467293,0.9768506000000001,0.5093373999999999,-0.024937199999999993,0.2128482,0.0365318,-8.9041276,29.038792,-29.7487506,20.665900999999998,-1.078412184,0.41264618399999997,1.0391583416,-0.03153481799999991,0.150686128,-0.03792175999999997
03:38:32,-1.4549037,0.9629753800000003,0.4985078949999999,-0.01839595999999999,0.213572635,0.03810318999999998,-8.931693005,29.028410875,-29.763753880000003,20.659857549999998,-1.0721411897,0.40568815719999995,1.02770938778,-0.025562643149999897,0.1525487369,-0.04125039549999998
03:38:32,-1.4425144,0.9491001600000002,0.48767839000000013,-0.011854719999999985,0.21429707,0.03967457999999999,-8.95925841,29.01802975,-29.77875716,20.653814099999998,-1.0658701954,0.39873013039999994,1.01626043396,-0.019590468299999886,0.1544113458,-0.04457903099999999
03:38:32,-1.4301251,0.9352249400000001,0.4768488850000001,-0.0053134799999999816,0.215021505,0.04124596999999999,-8.986823815000001,29.007648625,-29.79376044,20.64777065,-1.0595992011000002,0.3917721035999999,1.00481148014,-0.013618293449999874,0.1562739547,-0.0479076665
03:38:32,-1.4177358,0.9213497200000003,0.4660193800000001,0.0012277600000000222,0.21574594000000002,0.04281736,-9.01438922,28.9972675,-29.80876372,20.6417272,-1.0533282068,0.3848140767999999,0.9933625263200001,-0.007646118599999974,0.1581365636,-0.05123630200000001
03:38:32,-1.4053465,0.9074745000000002,0.4551898750000001,0.007769000000000026,0.216470375,0.044388750000000005,-9.041954625,28.986886375,-29.823767,20.63568375,-1.0470572125,0.37785605,0.9819135725000001,-0.001673943749999962,0.1599991725,-0.05456493750000002
03:38:32,-1.3929572000000001,0.8935992800000001,0.44436037000000006,0.01431024000000003,0.21719481000000002,0.04596013999999998,-9.06952003,28.97650525,-29.838770280000002,20.6296403,-1.0407862182,0.3708980232,0.9704646186800001,0.0042982311000000495,0.1618617814,-0.057893572999999976
03:38:32,-1.3805679,0.8797240600000003,0.43353086500000004,0.020851480000000033,0.217919245,0.04753152999999999,-9.097085435,28.966124125,-29.85377356,20.62359685,-1.0345152239000002,0.36393999639999997,0.9590156648600001,0.010270405950000061,0.1637243903,-0.061222208499999986
03:38:32,-1.3681786,0.8658488400000002,0.42270136,0.027392720000000037,0.21864368,0.049102919999999994,-9.124650840000001,28.955743,-29.868776840000002,20.6175534,-1.0282442296,0.35698196959999995,0.9475667110400001,0.016242580800000073,0.1655869992,-0.064550844
03:38:32,-1.3557893,0.8519736200000001,0.411871855,0.03393396000000004,0.219368115,0.05067431,-9.152216245,28.945361875,-29.88378012,20.61150995,-1.0219732353,0.35002394279999993,0.9361177572200001,0.022214755650000084,0.1674496081,-0.0678794795
03:38:32,-1.3434,0.8380984000000002,0.40104235,0.040475200000000044,0.22009255,0.052245700000000006,-9.17978165,28.93498075,-29.8987834,20.6054665,-1.015702241,0.3430659159999999,0.9246688034000001,0.028186930500000096,0.16931221700000001,-0.07120811500000002
03:38:32,-1.3310107,0.8242231800000002,0.390212845,0.04701644000000005,0.22081698500000002,0.053817089999999984,-9.207347055,28.924599625,-29.91378668,20.59942305,-1.0094312467000002,0.3361078891999999,0.9132198495800001,0.03415910535000011,0.1711748259,-0.07453675049999997
03:38:32,-1.3186214,0.8103479600000001,0.37938333999999996,0.05355768000000005,0.22154142,0.05538847999999999,-9.23491246,28.9142185,-29.92878996,20.5933796,-1.0031602524,0.3291498624,0.9017708957600001,0.04013128020000012,0.1730374348,-0.07786538599999998
03:38:32,-1.3062321000000001,0.7964727400000002,0.36855383499999994,0.060098920000000056,0.222265855,0.056959869999999996,-9.262477865000001,28.903837375,-29.94379324,20.58733615,-0.9968892581000001,0.3221918356,0.8903219419400001,0.04610345505000002,0.1749000437,-0.08119402149999999
03:38:32,-1.2938428,0.7825975200000002,0.3577243299999999,0.06664016000000006,0.22299029,0.05853126,-9.29004327,28.89345625,-29.95879652,20.5812927,-0.9906182638000001,0.31523380879999996,0.8788729881200001,0.05207562990000003,0.17676265260000001,-0.084522657
03:38:32,-1.2814535,0.7687223000000001,0.34689482500000013,0.07318140000000006,0.223714725,0.06010265000000001,-9.317608675,28.883075125,-29.973799800000002,20.57524925,-0.9843472695000001,0.30827578199999994,0.8674240343000001,0.05804780475000004,0.17862526150000002,-0.08785129250000001
03:38:32,-1.2690642,0.7548470800000002,0.3360653200000001,0.07972264000000007,0.22443916000000003,0.061674039999999986,-9.34517408,28.872694,-29.98880308,20.5692058,-0.9780762752000001,0.3013177551999999,0.8559750804800002,0.06401997960000005,0.18048787040000003,-0.09117992800000002
03:38:32,-1.2566749,0.7409718600000001,0.3252358150000001,0.08626388000000007,0.225163595,0.06324542999999999,-9.372739485,28.862312875,-30.003806360000002,20.56316235,-0.9718052809000001,0.2943597283999999,0.8445261266600002,0.06999215445000007,0.18235047929999998,-0.09450856349999998
03:38:32,-1.2442856,0.7270966400000003,0.3144063100000001,0.09280512000000007,0.22588803000000002,0.06481682,-9.400304890000001,28.85193175,-30.01880964,20.5571189,-0.9655342866000001,0.2874017015999999,0.8330771728400002,0.07596432930000008,0.18421308819999999,-0.09783719899999999
03:38:32,-1.2318963,0.7132214200000002,0.30357680500000006,0.09934636000000008,0.226612465,0.06638821,-9.427870295,28.841550625,-30.033812920000003,20.55107545,-0.9592632923000001,0.2804436748,0.8216282190200002,0.08193650415000009,0.1860756971,-0.1011658345
03:38:32,-1.2195070000000001,0.6993462000000001,0.29274730000000004,0.10588760000000008,0.2273369,0.06795959999999998,-9.4554357,28.8311695,-30.0488162,20.545032,-0.9529922980000001,0.27348564799999997,0.8101792652000002,0.0879086790000001,0.187938306,-0.10449447
03:38:32,-1.2071177,0.6854709800000003,0.281917795,0.11242884000000009,0.228061335,0.06953098999999999,-9.483001105,28.820788375,-30.06381948,20.53898855,-0.9467213037000001,0.26652762119999995,0.7987303113800002,0.09388085385000011,0.1898009149,-0.10782310550000002
03:38:32,-1.1947284,0.6715957600000002,0.27108829,0.11897008000000009,0.22878577,0.07110237999999999,-9.51056651,28.81040725,-30.07882276,20.5329451,-0.9404503094000001,0.25956959439999994,0.7872813575600002,0.09985302870000012,0.1916635238,-0.11115174099999997
03:38:32,-1.1823391,0.6577205400000001,0.260258785,0.1255113200000001,0.22951020500000002,0.07267377,-9.538131915000001,28.800026125,-30.09382604,20.52690165,-0.9341793151000001,0.2526115675999999,0.7758324037400002,0.10582520355000002,0.19352613270000002,-0.11448037649999998
03:38:32,-1.1699498,0.6438453200000003,0.24942927999999998,0.1320525600000001,0.23023464,0.07424516,-9.56569732,28.789645,-30.10882932,20.5208582,-0.9279083208000001,0.24565354080000001,0.7643834499200002,0.11179737840000004,0.19538874160000003,-0.11780901199999999
03:38:32,-1.1575605,0.6299701,0.23859977499999996,0.1385938,0.230959075,0.07581654999999998,-9.593262725,28.779263874999998,-30.1238326,20.51481475,-0.9216373265000001,0.238695514,0.7529344961000002,0.11776955325000005,0.19725135049999998,-0.1211376475
03:38:32,-1.1451712,0.6160948800000003,0.22777026999999994,0.14513504,0.23168351,0.07738793999999999,-9.62082813,28.76888275,-30.138835880000002,20.5087713,-0.9153663322000001,0.23173748719999998,0.7414855422800002,0.12374172810000006,0.19911395939999998,-0.12446628300000001
03:38:32,-1.1327819000000001,0.6022196600000003,0.21694076499999992,0.15167628,0.232407945,0.07895933,-9.648393535,28.758501625,-30.15383916,20.50272785,-0.9090953379000001,0.22477946039999996,0.7300365884600002,0.12971390295000007,0.2009765683,-0.12779491850000002
03:38:32,-1.1203926,0.5883444400000002,0.20611126000000013,0.15821752,0.23313238000000003,0.08053072,-9.675958940000001,28.7481205,-30.168842440000002,20.4966844,-0.9028243436000001,0.21782143359999995,0.7185876346400002,0.13568607780000008,0.2028391772,-0.13112355399999998
03:38:32,-1.1080033,0.5744692200000001,0.1952817550000001,0.16475876,0.233856815,0.08210211,-9.703524345,28.737739375,-30.18384572,20.49064095,-0.8965533493000001,0.21086340679999993,0.7071386808200002,0.1416582526500001,0.2047017861,-0.13445218949999999
03:38:32,-1.095614,0.560594,0.1844522500000001,0.1713,0.23458125000000002,0.08367349999999998,-9.731089749999999,28.72735825,-30.198849000000003,20.4845975,-0.8902823550000001,0.20390537999999991,0.6956897270000002,0.1476304275000001,0.206564395,-0.137780825
03:38:32,-1.0832247,0.5467187800000004,0.17362274500000008,0.17784124,0.23530568500000001,0.08524488999999999,-9.758655155,28.716977125,-30.21385228,20.47855405,-0.8840113607000001,0.1969473531999999,0.6842407731800002,0.15360260235000012,0.20842700390000002,-0.1411094605
03:38:32,-1.0708354,0.5328435600000003,0.16279324000000006,0.18438248000000002,0.23603012,0.08681628,-9.78622056,28.706596,-30.22885556,20.4725106,-0.8777403664000001,0.18998932639999988,0.6727918193600002,0.15957477720000013,0.21028961280000003,-0.14443809599999996
03:38:32,-1.0584461,0.5189683400000003,0.15196373500000004,0.19092372000000013,0.236754555,0.08838767,-9.813785965000001,28.696214875,-30.24385884,20.46646715,-0.8714693721000001,0.18303129959999986,0.6613428655400002,0.16554695205000003,0.21215222169999998,-0.14776673150000003
03:38:32,-1.0460568,0.5050931200000002,0.14113423000000003,0.19746496000000013,0.23747899,0.08995906000000001,-9.84135137,28.68583375,-30.25886212,20.4604237,-0.8651983778000001,0.17607327279999985,0.6498939117200002,0.17151912690000004,0.21401483059999998,-0.15109536699999998
03:38:32,-1.0336675,0.4912179000000001,0.130304725,0.20400620000000014,0.23820342500000002,0.09153044999999999,-9.868916774999999,28.675452625,-30.273865400000002,20.45438025,-0.8589273835000001,0.16911524600000005,0.6384449579000002,0.17749130175000005,0.2158774395,-0.15442400250000005
03:38:32,-1.0212782,0.47734268,0.11947522,0.21054744000000014,0.23892786,0.09310183999999999,-9.89648218,28.6650715,-30.28886868,20.4483368,-0.8526563892000001,0.16215721920000004,0.6269960040800002,0.18346347660000006,0.2177400484,-0.157752638
03:38:32,-1.0088889,0.4634674600000004,0.10864571499999998,0.21708868000000014,0.23965229500000002,0.09467323,-9.924047585,28.654690375,-30.303871960000002,20.44229335,-0.8463853949000001,0.15519919240000002,0.6155470502600002,0.18943565145000008,0.2196026573,-0.16108127349999996
03:38:32,-0.9964995999999999,0.4495922400000003,0.09781620999999996,0.22362992000000015,0.24037673,0.09624462,-9.951612990000001,28.64430925,-30.31887524,20.4362499,-0.8401144006000001,0.1482411656,0.6040980964400002,0.1954078263000001,0.2214652662,-0.16440990900000002
03:38:32,-0.9841103,0.43571702000000023,0.08698670499999994,0.23017116000000015,0.241101165,0.09781600999999998,-9.979178395,28.633928125,-30.333878520000003,20.43020645,-0.8338434063000001,0.14128313879999999,0.5926491426200002,0.2013800011500001,0.22332787510000002,-0.16773854449999998
03:38:32,-0.9717210000000001,0.42184180000000016,0.07615719999999992,0.23671240000000016,0.2418256,0.09938739999999999,-10.006743799999999,28.623547,-30.3488818,20.424163,-0.8275724120000001,0.13432511199999997,0.5812001888000002,0.2073521760000001,0.22519048400000002,-0.17106718000000004
03:38:32,-0.9593316999999999,0.4079665800000001,0.06532769500000013,0.24325363999999994,0.242550035,0.10095878999999999,-10.034309205,28.613165875,-30.363885080000003,20.41811955,-0.8213014177000002,0.12736708519999995,0.5697512349800002,0.21332435085000012,0.22705309290000003,-0.1743958155
03:38:32,-0.9469424000000002,0.39409136,0.05449819000000011,0.24979487999999994,0.24327447000000002,0.10253018,-10.06187461,28.60278475,-30.37888836,20.4120761,-0.8150304234000001,0.12040905839999994,0.5583022811600002,0.21929652570000013,0.22891570179999998,-0.17772445099999995
03:38:32,-0.9345531,0.38021614000000037,0.043668685000000096,0.25633611999999995,0.243998905,0.10410157,-10.089440015000001,28.592403625,-30.39389164,20.40603265,-0.8087594291,0.11345103159999992,0.5468533273400003,0.22526870055000003,0.2307783107,-0.18105308650000002
03:38:32,-0.9221637999999999,0.3663409200000003,0.03283918000000008,0.26287735999999995,0.24472334,0.10567296000000001,-10.11700542,28.5820225,-30.40889492,20.3999892,-0.8024884348000001,0.1064930047999999,0.5354043735200003,0.23124087540000005,0.2326409196,-0.18438172199999997
03:38:32,-0.9097745000000002,0.3524657000000002,0.022009675000000062,0.26941859999999995,0.245447775,0.10724435000000002,-10.144570825,28.571641375,-30.4238982,20.39394575,-0.7962174405000002,0.09953497799999989,0.5239554197000003,0.23721305025000006,0.2345035285,-0.18771035750000004
03:38:32,-0.8973852,0.33859048000000014,0.011180170000000045,0.27595983999999996,0.24617221,0.10881573999999997,-10.17213623,28.56126025,-30.438901480000002,20.3879023,-0.7899464462000001,0.09257695119999987,0.5125064658800003,0.24318522510000007,0.2363661374,-0.191038993
03:38:32,-0.8849958999999998,0.32471526000000006,0.00035066500000002776,0.28250107999999996,0.24689664500000003,0.11038712999999997,-10.199701635,28.550879125,-30.45390476,20.38185885,-0.7836754519,0.08561892439999985,0.5010575120600003,0.24915739995000008,0.23822874630000002,-0.19436762849999994
03:38:32,-0.8726066000000001,0.31084004000000043,-0.01047883999999999,0.28904231999999996,0.24762108,0.11195851999999998,-10.227267040000001,28.540498,-30.468908040000002,20.3758154,-0.7774044576000001,0.07866089759999983,0.48960855824000027,0.2551295748,0.24009135520000002,-0.197696264
03:38:32,-0.8602173,0.29696482000000035,-0.021308345000000006,0.29558355999999997,0.24834551500000002,0.11352990999999998,-10.254832445,28.530116875,-30.48391132,20.36977195,-0.7711334633000002,0.07170287080000004,0.4781596044200003,0.2611017496500001,0.24195396410000003,-0.20102489949999996
03:38:32,-0.8478279999999998,0.2830896000000003,-0.03213785000000002,0.30212479999999997,0.24906995,0.11510129999999999,-10.28239785,28.51973575,-30.4989146,20.363728499999997,-0.7648624690000001,0.06474484400000002,0.4667106506000003,0.2670739245,0.24381657299999998,-0.20435353500000003
03:38:32,-0.8354387000000001,0.2692143800000002,-0.04296735500000004,0.30866604,0.249794385,0.11667269,-10.309963255,28.509354625,-30.51391788,20.357685049999997,-0.7585914747,0.05778681720000001,0.4552616967800003,0.2730460993500001,0.2456791819,-0.20768217049999999
03:38:32,-0.8230493999999999,0.2553391600000001,-0.05379686000000006,0.31520728,0.25051882000000003,0.11824408,-10.33752866,28.498973499999998,-30.52892116,20.351641599999997,-0.7523204804000001,0.05082879039999999,0.4438127429600003,0.2790182742,0.2475417908,-0.21101080600000005
03:38:32,-0.8106600999999998,0.24146394000000004,-0.06462636499999985,0.32174852,0.251243255,0.11981547000000001,-10.365094065000001,28.488592375,-30.54392444,20.345598149999997,-0.7460494861000002,0.04387076359999997,0.4323637891400003,0.28499044905000015,0.2494043997,-0.2143394415
03:38:32,-0.7982708000000001,0.2275887200000004,-0.07545586999999987,0.32828976,0.25196769,0.12138686000000001,-10.39265947,28.47821125,-30.55892772,20.339554699999997,-0.7397784918000001,0.03691273679999996,0.4209148353200003,0.29096262390000005,0.2512670086,-0.21766807699999996
03:38:32,-0.7858814999999999,0.21371350000000033,-0.08628537499999989,0.334831,0.25269212500000005,0.12295825000000002,-10.420224875,28.467830125,-30.573931,20.333511249999997,-0.7335074975,0.02995470999999994,0.4094658815000001,0.2969347987500002,0.2531296175,-0.22099671250000003
03:38:32,-0.7734922000000002,0.19983828000000026,-0.0971148799999999,0.34137224,0.25341656,0.12452963999999997,-10.44779028,28.457449,-30.58893428,20.327467799999997,-0.7272365032000001,0.022996683199999923,0.3980169276800001,0.3029069736000001,0.2549922264,-0.22432534799999998
03:38:32,-0.7611029,0.18596306000000018,-0.10794438499999992,0.34791348,0.254140995,0.12610102999999998,-10.475355685,28.447067875,-30.603937560000002,20.321424349999997,-0.7209655089000002,0.016038656399999907,0.3865679738600001,0.3088791484500002,0.25685483530000003,-0.22765398350000005
03:38:32,-0.7487135999999999,0.1720878400000001,-0.11877388999999994,0.35445472,0.25486543,0.12767241999999998,-10.502921090000001,28.43668675,-30.61894084,20.315380899999997,-0.7146945146000001,0.00908062959999989,0.3751190200400001,0.3148513233000001,0.2587174442,-0.230982619
03:38:32,-0.7363243000000002,0.15821262000000003,-0.12960339499999995,0.36099596,0.255589865,0.12924381,-10.530486495,28.426305625,-30.633944120000002,20.309337449999997,-0.7084235203,0.002122602799999873,0.3636700662200001,0.32082349815,0.2605800531,-0.23431125449999995
03:38:32,-0.723935,0.1443374000000004,-0.14043289999999997,0.3675372,0.2563143,0.1308152,-10.5580519,28.4159245,-30.6489474,20.303293999999998,-0.7021525260000001,-0.004835424000000144,0.3522211124000001,0.3267956730000001,0.262442662,-0.23763989000000002
03:38:32,-0.7115456999999998,0.13046218000000032,-0.151262405,0.37407844,0.257038735,0.13238659,-10.585617305,28.405543375,-30.66395068,20.297250549999998,-0.6958815317000002,-0.01179345080000016,0.3407721585800001,0.33276784785,0.2643052709,-0.24096852549999997
03:38:32,-0.6991564000000001,0.11658696000000024,-0.16209191,0.38061968,0.25776317000000004,0.13395798,-10.61318271,28.39516225,-30.67895396,20.291207099999998,-0.6896105374000001,-0.018751477599999955,0.3293232047600001,0.33874002270000014,0.2661678798,-0.24429716100000004
03:38:32,-0.6867671,0.10271174000000016,-0.17292141500000002,0.38716092,0.258487605,0.13552937,-10.640748115000001,28.384781125,-30.69395724,20.285163649999998,-0.6833395431,-0.02570950439999997,0.3178742509400001,0.34471219755000004,0.2680304887,-0.2476257965
03:38:32,-0.6743777999999998,0.08883652000000009,-0.18375092000000004,0.39370216,0.25921204,0.13710076000000002,-10.66831352,28.3744,-30.70896052,20.279120199999998,-0.6770685488000001,-0.03266753119999999,0.3064252971200001,0.35068437240000017,0.2698930976,-0.25095443199999995
03:38:32,-0.6619885000000001,0.07496130000000045,-0.19458042499999983,0.4002434,0.259936475,0.13867214999999997,-10.695878925,28.364018875,-30.7239638,20.273076749999998,-0.6707975545000002,-0.039625558000000005,0.2949763433000001,0.35665654725000007,0.2717557065,-0.2542830675
03:38:32,-0.6495991999999999,0.061086080000000376,-0.20540993000000007,0.40678464000000003,0.26066091,0.14024353999999997,-10.72344433,28.35363775,-30.738967080000002,20.267033299999998,-0.6645265602000001,-0.04658358480000002,0.2835273894800001,0.3626287221000002,0.2736183154,-0.25761170299999997
03:38:32,-0.6372098999999998,0.0472108600000003,-0.21623943499999987,0.41332588000000003,0.261385345,0.14181492999999998,-10.751009735,28.343256625,-30.75397036,20.260989849999998,-0.6582555659,-0.05354161160000004,0.2720784356600001,0.3686008969500001,0.2754809243,-0.26094033850000004
03:38:32,-0.6248206000000001,0.03333564000000022,-0.2270689400000001,0.41986712000000004,0.26210978,0.14338631999999998,-10.778575140000001,28.3328755,-30.768973640000002,20.254946399999998,-0.6519845716000001,-0.060499638400000055,0.2606294818400001,0.3745730718,0.2773435332,-0.264268974
03:38:32,-0.6124312999999999,0.019460420000000145,-0.2378984449999999,0.42640836000000004,0.26283421500000004,0.14495771,-10.806140545,28.322494374999998,-30.78397692,20.248902949999998,-0.6457135773000002,-0.06745766520000007,0.24918052802000012,0.3805452466500001,0.2792061421,-0.26759760950000006
03:38:32,-0.6000420000000002,0.005585200000000068,-0.24872795000000014,0.43294960000000005,0.26355865,0.1465291,-10.83370595,28.31211325,-30.798980200000003,20.242859499999998,-0.6394425830000001,-0.07441569200000009,0.23773157420000013,0.3865174215,0.281068751,-0.270926245
03:38:32,-0.5876527,-0.008290019999999565,-0.25955745499999994,0.43949084000000005,0.264283085,0.14810049,-10.861271355,28.301732125,-30.81398348,20.236816049999998,-0.6331715887,-0.0813737188000001,0.22628262038000013,0.39248959635000014,0.2829313599,-0.27425488049999996
03:38:32,-0.5752633999999999,-0.022165239999999642,-0.27038695999999973,0.44603208000000005,0.26500752000000005,0.14967188,-10.88883676,28.291351,-30.82898676,20.230772599999998,-0.6269005944000001,-0.08833174560000012,0.21483366656000014,0.39846177120000004,0.2847939688,-0.27758351600000003
03:38:32,-0.5628741000000002,-0.03604045999999972,-0.28121646499999997,0.45257332000000006,0.265731955,0.15124327,-10.916402165000001,28.280969875,-30.84399004,20.224729149999998,-0.6206296001000002,-0.09528977240000014,0.20338471274000014,0.40443394605000016,0.2866565777,-0.2809121515
03:38:32,-0.5504848,-0.049915679999999796,-0.29204596999999977,0.45911456000000006,0.26645639,0.15281466000000002,-10.94396757,28.270588749999998,-30.85899332,20.218685699999998,-0.6143586058000001,-0.10224779920000016,0.19193575892000014,0.41040612090000006,0.28851918660000003,-0.28424078700000005
03:38:32,-0.5380954999999998,-0.06379089999999987,-0.302875475,0.46565580000000006,0.267180825,0.15438604999999997,-10.971532975,28.260207625,-30.8739966,20.21264225,-0.6080876115,-0.10920582600000017,0.18048680510000015,0.4163782957500002,0.2903817955,-0.2875694225
03:38:32,-0.5257062000000001,-0.07766611999999995,-0.3137049799999998,0.47219704000000007,0.26790526000000003,0.15595743999999997,-10.99909838,28.2498265,-30.88899988,20.2065988,-0.6018166172000001,-0.11616385279999997,0.16903785128000015,0.4223504706000001,0.2922444044,-0.29089805799999996
03:38:32,-0.5133169,-0.09154133999999958,-0.32453448500000004,0.47873828000000007,0.268629695,0.15752882999999998,-11.026663785,28.239445375,-30.904003160000002,20.20055535,-0.5955456229000002,-0.12312187959999998,0.15758889746000015,0.42832264545,0.2941070133,-0.2942266935
03:38:32,-0.5009275999999998,-0.10541655999999966,-0.33536398999999983,0.4852795200000001,0.26935412999999997,0.15910022,-11.054229190000001,28.22906425,-30.91900644,20.1945119,-0.5892746286000001,-0.1300799064,0.14613994364000016,0.4342948203000001,0.2959696222,-0.297555329
03:38:32,-0.4885383000000001,-0.11929177999999974,-0.3461934950000001,0.4918207600000001,0.27007856500000005,0.16067161,-11.081794595,28.218683125,-30.934009720000002,20.18846845,-0.5830036343,-0.13703793320000002,0.13469098982000016,0.44026699515,0.2978322311,-0.30088396450000005
03:38:33,-0.476149,-0.133167,-0.357023,0.498362,0.270803,0.162243,-11.10936,28.208302,-30.949013,20.182425,-0.57673264,-0.14399596,0.123242036,0.44623917,0.29969484,-0.3042126
03:38:33,-0.480836145,-0.12479401500000001,-0.351633875,0.49634849000000003,0.269029195,0.160517135,-11.112961035000001,28.201043755,-30.95594339,20.212937215,-0.5777574648,-0.1376280347,0.12743964802,0.44380001555000004,0.298026330885,-0.3034793225
03:38:33,-0.48552329,-0.11642103000000001,-0.34624475,0.49433498000000003,0.26725539000000004,0.15879126999999998,-11.11656207,28.19378551,-30.962873780000002,20.24344943,-0.5787822896,-0.1312601094,0.13163726004,0.4413608611,0.29635782177000003,-0.302746045
03:38:33,-0.490210435,-0.10804804500000001,-0.340855625,0.49232147000000004,0.265481585,0.157065405,-11.120163105000001,28.186527265,-30.96980417,20.273961645,-0.5798071144,-0.1248921841,0.13583487206,0.43892170665,0.29468931265500004,-0.3020127675
03:38:33,-0.49489758,-0.09967506000000001,-0.3354665,0.49030796000000004,0.26370778,0.15533954,-11.12376414,28.17926902,-30.97673456,20.304473859999998,-0.5808319392,-0.1185242588,0.14003248408,0.43648255220000004,0.29302080354000004,-0.30127949
03:38:33,-0.499584725,-0.09130207500000001,-0.330077375,0.48829445000000005,0.26193397500000004,0.153613675,-11.127365175000001,28.172010775,-30.98366495,20.334986075,-0.581856764,-0.11215633350000001,0.14423009609999998,0.43404339775,0.291352294425,-0.3005462125
03:38:33,-0.50427187,-0.08292909,-0.32468825,0.48628094000000005,0.26016017,0.15188781,-11.13096621,28.16475253,-30.990595340000002,20.365498289999998,-0.5828815888000001,-0.1057884082,0.14842770812,0.4316042433,0.28968378531,-0.299812935
03:38:33,-0.508959015,-0.074556105,-0.31929912499999996,0.48426743000000005,0.258386365,0.150161945,-11.134567245000001,28.157494285,-30.99752573,20.396010505,-0.5839064136000001,-0.0994204829,0.15262532014,0.42916508885000004,0.288015276195,-0.2990796575
03:38:33,-0.51364616,-0.06618312,-0.31390999999999997,0.48225392,0.25661256,0.14843608,-11.13816828,28.15023604,-31.00445612,20.426522719999998,-0.5849312384,-0.0930525576,0.15682293215999998,0.4267259344,0.28634676708,-0.29834638
03:38:33,-0.518333305,-0.057810135,-0.30852087499999997,0.48024041,0.25483875500000003,0.146710215,-11.141769315000001,28.142977795,-31.01138651,20.457034935,-0.5859560632,-0.08668463230000001,0.16102054418,0.42428677995,0.284678257965,-0.2976131025
03:38:33,-0.52302045,-0.04943715,-0.30313175,0.4782269,0.25306495,0.14498434999999998,-11.14537035,28.13571955,-31.018316900000002,20.487547149999997,-0.586980888,-0.080316707,0.1652181562,0.4218476255,0.28300974885,-0.296879825
03:38:33,-0.527707595,-0.041064165,-0.297742625,0.47621339,0.251291145,0.143258485,-11.148971385000001,28.128461305,-31.02524729,20.518059365,-0.5880057128,-0.0739487817,0.16941576821999998,0.41940847105,0.281341239735,-0.2961465475
03:38:33,-0.53239474,-0.032691179999999986,-0.2923535,0.47419988,0.24951734,0.14153262,-11.15257242,28.12120306,-31.03217768,20.548571579999997,-0.5890305376,-0.0675808564,0.17361338024,0.41696931660000003,0.27967273062000003,-0.29541327
03:38:33,-0.537081885,-0.024318194999999987,-0.286964375,0.47218637,0.24774353500000001,0.139806755,-11.156173455000001,28.113944815,-31.03910807,20.579083795,-0.5900553624,-0.061212931100000006,0.17781099226,0.41453016215,0.27800422150500004,-0.2946799925
03:38:33,-0.54176903,-0.015945209999999987,-0.28157525,0.47017286,0.24596973000000003,0.13808089,-11.15977449,28.10668657,-31.046038460000002,20.609596009999997,-0.5910801872,-0.0548450058,0.18200860427999999,0.4120910077,0.27633571239,-0.293946715
03:38:33,-0.546456175,-0.007572224999999988,-0.27618612499999995,0.46815935000000003,0.244195925,0.136355025,-11.163375525000001,28.099428324999998,-31.05296885,20.640108225,-0.592105012,-0.04847708049999999,0.1862062163,0.40965185325000003,0.274667203275,-0.2932134375
03:38:33,-0.55114332,0.0008007600000000115,-0.27079699999999995,0.46614584000000003,0.24242212000000002,0.13462916,-11.16697656,28.09217008,-31.05989924,20.670620439999997,-0.5931298368,-0.0421091552,0.19040382832,0.4072126988,0.27299869416,-0.29248016
03:38:33,-0.555830465,0.009173745000000011,-0.26540787499999996,0.46413233000000004,0.240648315,0.132903295,-11.170577595000001,28.084911835,-31.06682963,20.701132655,-0.5941546616,-0.035741229900000004,0.19460144034,0.40477354435,0.271330185045,-0.2917468825
03:38:33,-0.56051761,0.01754673000000001,-0.26001874999999997,0.46211882000000004,0.23887451,0.13117742999999998,-11.17417863,28.07765359,-31.07376002,20.73164487,-0.5951794864000001,-0.029373304599999997,0.19879905236,0.40233438990000003,0.26966167593,-0.291013605
03:38:33,-0.565204755,0.02591971500000001,-0.25462962499999997,0.46010531000000005,0.23710070500000002,0.129451565,-11.177779665000001,28.070395345,-31.08069041,20.762157085,-0.5962043112000001,-0.02300537929999999,0.20299666438,0.39989523545,0.267993166815,-0.2902803275
03:38:33,-0.5698919,0.03429270000000001,-0.24924049999999998,0.45809180000000005,0.2353269,0.1277257,-11.1813807,28.0631371,-31.0876208,20.7926693,-0.597229136,-0.016637453999999996,0.2071942764,0.397456081,0.2663246577,-0.28954705000000003
03:38:33,-0.574579045,0.04266568500000001,-0.24385137499999998,0.45607829,0.23355309500000002,0.125999835,-11.184981735000001,28.055878855,-31.09455119,20.823181514999998,-0.5982539608,-0.010269528700000002,0.21139188842,0.39501692655000004,0.26465614858500003,-0.2888137725
03:38:33,-0.57926619,0.05103867000000001,-0.23846225,0.45406478000000006,0.23177929000000003,0.12427397,-11.18858277,28.04862061,-31.10148158,20.85369373,-0.5992787856,-0.003901603399999981,0.21558950044,0.3925777721,0.26298763947000003,-0.288080495
03:38:33,-0.583953335,0.05941165500000001,-0.233073125,0.45205127,0.230005485,0.12254810499999999,-11.192183805,28.041362365,-31.10841197,20.884205944999998,-0.6003036104,0.0024663219000000125,0.21978711246,0.39013861765,0.26131913035500004,-0.2873472175
03:38:33,-0.58864048,0.06778464000000003,-0.227684,0.45003776,0.22823168000000002,0.12082224,-11.19578484,28.03410412,-31.11534236,20.91471816,-0.6013284352,0.008834247200000006,0.22398472448,0.38769946320000004,0.25965062124000005,-0.28661394
03:38:33,-0.593327625,0.07615762500000003,-0.22229487499999998,0.44802425,0.22645787500000003,0.119096375,-11.199385875,28.026845875,-31.12227275,20.945230374999998,-0.60235326,0.0152021725,0.2281823365,0.38526030875,0.257982112125,-0.2858806625
03:38:33,-0.59801477,0.08453061000000003,-0.21690574999999998,0.44601074,0.22468407,0.11737051,-11.20298691,28.01958763,-31.12920314,20.97574259,-0.6033780848,0.021570097799999993,0.23237994852,0.3828211543,0.25631360301,-0.285147385
03:38:33,-0.602701915,0.09290359500000003,-0.21151662499999999,0.44399723,0.22291026500000002,0.11564464499999999,-11.206587945,28.012329385,-31.136133530000002,21.006254804999998,-0.6044029096,0.027938023100000015,0.23657756054,0.38038199985,0.254645093895,-0.2844141075
03:38:33,-0.60738906,0.10127658000000003,-0.2061275,0.44198372,0.22113646,0.11391878,-11.21018898,28.00507114,-31.14306392,21.03676702,-0.6054277344,0.03430594840000001,0.24077517256,0.3779428454,0.25297658478,-0.28368083
03:38:33,-0.6120762049999999,0.10964956500000003,-0.200738375,0.43997021000000003,0.21936265500000002,0.112192915,-11.213790015,27.997812895,-31.14999431,21.067279234999997,-0.6064525592000001,0.0406738737,0.24497278458,0.37550369095,0.251308075665,-0.2829475525
03:38:33,-0.61676335,0.11802255000000003,-0.19534924999999997,0.43795670000000003,0.21758885,0.11046705,-11.21739105,27.99055465,-31.1569247,21.09779145,-0.6074773840000001,0.04704179900000002,0.24917039659999998,0.37306453650000004,0.24963956655000002,-0.282214275
03:38:33,-0.6214504949999999,0.12639553500000003,-0.18996012499999998,0.43594319000000004,0.215815045,0.10874118499999999,-11.220992085,27.983296405,-31.163855090000002,21.128303664999997,-0.6085022088,0.05340972430000002,0.25336800862,0.37062538205,0.24797105743500003,-0.2814809975
03:38:33,-0.62613764,0.13476852000000003,-0.18457099999999999,0.43392968000000004,0.21404124000000002,0.10701532,-11.22459312,27.976038159999998,-31.17078548,21.15881588,-0.6095270336,0.05977764960000001,0.25756562064,0.3681862276,0.24630254832,-0.28074772
03:38:33,-0.6308247849999999,0.14314150500000003,-0.179181875,0.43191617000000004,0.212267435,0.105289455,-11.228194155,27.968779915,-31.17771587,21.189328095,-0.6105518584,0.0661455749,0.26176323266,0.36574707315,0.24463403920500001,-0.2800144425
03:38:33,-0.6355119300000001,0.15151449000000003,-0.17379275,0.42990266,0.21049363000000001,0.10356359,-11.231795190000001,27.96152167,-31.18464626,21.21984031,-0.6115766832,0.0725135002,0.26596084468000003,0.3633079187,0.24296553009000002,-0.279281165
03:38:33,-0.640199075,0.15988747500000003,-0.16840362499999997,0.42788915000000005,0.20871982500000003,0.10183772499999999,-11.235396225,27.954263425,-31.191576650000002,21.250352525,-0.612601508,0.07888142550000002,0.2701584567,0.36086876425000003,0.241297020975,-0.2785478875
03:38:33,-0.6448862200000001,0.16826046000000003,-0.16301449999999998,0.42587564,0.20694602,0.10011186,-11.238997260000001,27.94700518,-31.19850704,21.28086474,-0.6136263328,0.08524935080000001,0.27435606871999996,0.3584296098,0.23962851186,-0.27781461
03:38:33,-0.649573365,0.17663344500000003,-0.15762537499999998,0.42386213000000006,0.20517221500000002,0.098385995,-11.242598295,27.939746935,-31.20543743,21.311376955,-0.6146511576,0.0916172761,0.27855368074,0.35599045535,0.237960002745,-0.2770813325
03:38:33,-0.65426051,0.18500643000000003,-0.15223625,0.42184862,0.20339841000000003,0.09666013,-11.246199330000001,27.93248869,-31.21236782,21.341889169999998,-0.6156759824,0.09798520140000003,0.28275129276,0.35355130090000003,0.23629149363000002,-0.276348055
03:38:33,-0.658947655,0.19337941500000003,-0.146847125,0.41983511,0.201624605,0.09493426499999999,-11.249800365,27.925230445,-31.21929821,21.372401385,-0.6167008072,0.10435312670000002,0.28694890478,0.35111214645,0.23462298451500002,-0.2756147775
03:38:33,-0.6636348,0.20175240000000003,-0.14145799999999997,0.4178216,0.1998508,0.0932084,-11.253401400000001,27.9179722,-31.2262286,21.402913599999998,-0.617725632,0.11072105200000001,0.2911465168,0.348672992,0.23295447540000003,-0.2748815
03:38:33,-0.668321945,0.21012538500000003,-0.13606887499999998,0.41580809,0.19807699500000003,0.091482535,-11.257002435,27.910713955,-31.23315899,21.433425815,-0.6187504568,0.11708897730000004,0.29534412882,0.34623383755000003,0.23128596628500003,-0.2741482225
03:38:33,-0.67300909,0.21849837000000003,-0.13067974999999998,0.41379458,0.19630319000000002,0.08975667,-11.260603470000001,27.90345571,-31.24008938,21.463938029999998,-0.6197752816000001,0.1234569026,0.29954174083999996,0.3437946831,0.22961745717,-0.273414945
03:38:33,-0.677696235,0.22687135500000002,-0.125290625,0.41178107,0.194529385,0.08803080499999999,-11.264204505,27.896197465,-31.24701977,21.494450245,-0.6208001064,0.12982482790000002,0.30373935286,0.34135552865,0.22794894805500002,-0.2726816675
03:38:33,-0.68238338,0.23524434000000002,-0.1199015,0.40976756000000003,0.19275558,0.08630494,-11.267805540000001,27.88893922,-31.25395016,21.524962459999998,-0.6218249312,0.13619275320000004,0.30793696488,0.3389163742,0.22628043894,-0.27194839
03:38:33,-0.687070525,0.24361732500000002,-0.114512375,0.40775405000000003,0.19098177500000002,0.084579075,-11.271406575,27.881680975,-31.26088055,21.555474675,-0.622849756,0.1425606785,0.3121345769,0.33647721975,0.224611929825,-0.2712151125
03:38:33,-0.69175767,0.25199031000000005,-0.10912324999999998,0.40574054000000004,0.18920797,0.08285321,-11.275007610000001,27.87442273,-31.26781094,21.585986889999997,-0.6238745808,0.14892860380000003,0.31633218892,0.3340380653,0.22294342071,-0.270481835
03:38:33,-0.696444815,0.260363295,-0.10373412500000001,0.40372703000000004,0.187434165,0.08112734499999999,-11.278608645,27.867164485,-31.27474133,21.616499105,-0.6248994056,0.1552965291,0.32052980094,0.33159891085000004,0.221274911595,-0.2697485575
03:38:33,-0.70113196,0.26873628000000005,-0.09834500000000002,0.40171352000000005,0.18566036000000002,0.07940148,-11.282209680000001,27.85990624,-31.28167172,21.647011319999997,-0.6259242304,0.16166445440000002,0.32472741295999996,0.3291597564,0.21960640248000002,-0.26901527999999997
03:38:33,-0.705819105,0.2771092650000001,-0.09295587499999997,0.39970001,0.183886555,0.077675615,-11.285810715,27.852647994999998,-31.28860211,21.677523535,-0.6269490552,0.16803237970000004,0.32892502498,0.32672060195,0.21793789336500002,-0.2682820025
03:38:33,-0.71050625,0.28548225000000005,-0.08756674999999997,0.39768650000000005,0.18211275000000002,0.07594975,-11.289411750000001,27.84538975,-31.2955325,21.70803575,-0.62797388,0.174400305,0.333122637,0.3242814475,0.21626938425000003,-0.267548725
03:38:33,-0.715193395,0.2938552350000001,-0.08217762499999998,0.39567299,0.18033894500000003,0.07422388499999999,-11.293012785,27.838131505,-31.30246289,21.738547965,-0.6289987048,0.18076823030000003,0.33732024902,0.32184229305,0.214600875135,-0.26681544749999997
03:38:33,-0.71988054,0.30222822000000005,-0.07678849999999998,0.39365948,0.17856514,0.07249802,-11.296613820000001,27.83087326,-31.309393280000002,21.76906018,-0.6300235296000001,0.1871361556,0.34151786104,0.3194031386,0.21293236602,-0.26608217
03:38:33,-0.724567685,0.3106012050000001,-0.07139937499999999,0.39164597,0.176791335,0.070772155,-11.300214855,27.823615015,-31.31632367,21.799572395,-0.6310483544000001,0.19350408090000001,0.34571547306,0.31696398415000004,0.21126385690500002,-0.2653488925
03:38:33,-0.72925483,0.31897419000000005,-0.06601024999999999,0.38963246,0.17501753000000003,0.06904629,-11.303815890000001,27.81635677,-31.32325406,21.83008461,-0.6320731792000001,0.19987200620000004,0.34991308507999996,0.3145248297,0.20959534779,-0.26461561499999997
03:38:33,-0.733941975,0.3273471750000001,-0.060621125,0.38761895,0.17324372500000002,0.06732042499999999,-11.307416925,27.809098525,-31.33018445,21.860596825,-0.633098004,0.2062399315,0.3541106971,0.31208567524999997,0.207926838675,-0.2638823375
03:38:33,-0.7386291199999999,0.33572016000000005,-0.055232,0.38560544,0.17146992,0.06559456,-11.311017960000001,27.80184028,-31.33711484,21.89110904,-0.6341228288,0.21260785680000002,0.35830830912,0.3096465208,0.20625832956,-0.26314906
03:38:33,-0.743316265,0.3440931450000001,-0.04984287500000001,0.38359193,0.169696115,0.063868695,-11.314618995,27.794582035,-31.34404523,21.921621254999998,-0.6351476536,0.21897578210000004,0.36250592114,0.30720736635,0.20458982044500001,-0.26241578249999997
03:38:33,-0.7480034099999999,0.35246613000000004,-0.044453750000000014,0.38157842000000003,0.16792231000000002,0.062142829999999996,-11.31822003,27.78732379,-31.35097562,21.95213347,-0.6361724784,0.2253437074,0.36670353316,0.30476821190000003,0.20292131133000002,-0.261682505
03:38:33,-0.752690555,0.3608391150000001,-0.039064624999999964,0.37956491000000003,0.166148505,0.06041696499999999,-11.321821065,27.780065545,-31.35790601,21.982645684999998,-0.6371973032,0.23171163270000003,0.37090114517999995,0.30232905745000005,0.20125280221500003,-0.2609492275
03:38:33,-0.7573776999999999,0.36921210000000004,-0.03367549999999997,0.37755140000000004,0.1643747,0.058691099999999996,-11.3254221,27.7728073,-31.3648364,22.0131579,-0.638222128,0.23807955800000005,0.37509875719999997,0.299889903,0.19958429310000003,-0.26021595
03:38:33,-0.762064845,0.377585085,-0.028286374999999975,0.37553789000000004,0.16260089500000002,0.056965235,-11.329023135,27.765549055,-31.37176679,22.043670114999998,-0.6392469528,0.24444748330000002,0.37929636922,0.29745074855,0.197915783985,-0.2594826725
03:38:33,-0.7667519899999999,0.38595807000000004,-0.02289724999999998,0.37352438000000004,0.16082709,0.055239369999999996,-11.33262417,27.75829081,-31.37869718,22.07418233,-0.6402717776,0.25081540860000007,0.38349398124,0.2950115941,0.19624727487000002,-0.258749395
