Timestamp,linacce_x,linacce_y,linacce_z,gyro_x,gyro_y,gyro_z,X-magnetometer,Y-magnetometer,Z-magnetometer,Yaw, worldXAccel,worldYAccel,worldZAccel,worldXgyro,worldYgyro,worldZgyro
03:40:01,0.560691,1.982343,-1.762543,0.66136,0.329397,-0.952112,-2.242638,-30.811218,-6.242752,169.73454,-1.1194676,2.0838714,0.42342168,-0.3457848,0.3992415,0.031005442
03:40:01,0.5595019050000001,1.969402705,-1.759328245,0.6588404499999999,0.328491455,-0.946721335,-2.23528925,-30.815027625,-6.193530770000001,169.77813195000002,-1.1169473529999998,2.0706300935,0.4238078571,-0.3430859612,0.39798773810000004,0.029829886490000002
03:40:01,0.5583128100000001,1.9564624099999999,-1.75611349,0.6563209,0.32758591,-0.9413306699999999,-2.2279405,-30.81883725,-6.14430954,169.82172390000002,-1.114427106,2.057388787,0.4241940342,-0.3403871224,0.3967339762,0.02865433098
03:40:01,0.557123715,1.943522115,-1.752898735,0.65380135,0.326680365,-0.935940005,-2.22059175,-30.822646875,-6.09508831,169.86531585,-1.1119068589999999,2.0441474805,0.4245802113,-0.3376882836,0.3954802143,0.02747877547
03:40:01,0.55593462,1.93058182,-1.74968398,0.6512817999999999,0.32577482,-0.93054934,-2.213243,-30.8264565,-6.045867080000001,169.9089078,-1.109386612,2.030906174,0.4249663884,-0.3349894448,0.39422645240000004,0.026303219960000002
03:40:01,0.5547455250000001,1.917641525,-1.746469225,0.64876225,0.324869275,-0.9251586749999999,-2.20589425,-30.830266125,-5.99664585,169.95249975000002,-1.106866365,2.0176648675,0.4253525655,-0.332290606,0.39297269050000005,0.025127664450000003
03:40:01,0.5535564300000001,1.90470123,-1.74325447,0.6462427,0.32396373,-0.91976801,-2.1985455,-30.83407575,-5.9474246200000005,169.99609170000002,-1.1043461179999998,2.004423561,0.4257387426,-0.3295917672,0.3917189286,0.02395210894
03:40:01,0.552367335,1.891760935,-1.740039715,0.6437231499999999,0.323058185,-0.914377345,-2.19119675,-30.837885375,-5.89820339,170.03968365,-1.101825871,1.9911822545,0.4261249197,-0.3268929284,0.39046516670000003,0.022776553430000002
03:40:01,0.55117824,1.87882064,-1.7368249599999999,0.6412036,0.32215264,-0.9089866799999999,-2.183848,-30.841695,-5.84898216,170.0832756,-1.0993056239999999,1.977940948,0.42651109680000004,-0.3241940896,0.38921140480000005,0.021600997920000004
03:40:01,0.5499891450000001,1.8658803449999999,-1.733610205,0.63868405,0.321247095,-0.903596015,-2.17649925,-30.845504625,-5.799760930000001,170.12686755000001,-1.096785377,1.9646996415,0.42689727390000004,-0.3214952508,0.3879576429,0.02042544241
03:40:01,0.5488000500000001,1.85294005,-1.73039545,0.6361644999999999,0.32034155,-0.89820535,-2.1691504999999998,-30.84931425,-5.7505397,170.17045950000002,-1.09426513,1.951458335,0.42728345100000004,-0.318796412,0.386703881,0.019249886900000002
03:40:01,0.547610955,1.839999755,-1.727180695,0.63364495,0.319436005,-0.8928146849999999,-2.16180175,-30.853123875,-5.70131847,170.21405145,-1.0917448829999998,1.9382170285,0.42766962810000003,-0.3160975732,0.38545011910000004,0.018074331390000004
03:40:01,0.54642186,1.82705946,-1.72396594,0.6311254,0.31853046,-0.88742402,-2.1544529999999997,-30.8569335,-5.652097240000001,170.2576434,-1.089224636,1.9249757220000001,0.42805580520000003,-0.3133987344,0.3841963572,0.01689877588
03:40:01,0.5452327650000001,1.814119165,-1.720751185,0.6286058499999999,0.317624915,-0.8820333549999999,-2.14710425,-30.860743125,-5.60287601,170.30123535,-1.0867043889999999,1.9117344155,0.4284419823,-0.3106998956,0.3829425953,0.015723220370000002
03:40:01,0.5440436700000001,1.80117887,-1.71753643,0.6260863,0.31671937,-0.87664269,-2.1397554999999997,-30.86455275,-5.5536547800000005,170.34482730000002,-1.0841841419999998,1.898493109,0.4288281594,-0.3080010568,0.38168883340000004,0.014547664860000004
03:40:01,0.542854575,1.788238575,-1.7143216749999999,0.62356675,0.315813825,-0.871252025,-2.13240675,-30.868362375,-5.50443355,170.38841925,-1.081663895,1.8852518025,0.4292143365,-0.305302218,0.3804350715,0.013372109350000001
03:40:01,0.54166548,1.77529828,-1.71110692,0.6210471999999999,0.31490828,-0.8658613599999999,-2.125058,-30.872172,-5.45521232,170.4320112,-1.0791436479999998,1.8720104960000001,0.4296005136,-0.3026033792,0.3791813096,0.012196553840000002
03:40:01,0.5404763850000001,1.762357985,-1.707892165,0.61852765,0.314002735,-0.860470695,-2.11770925,-30.875981625,-5.4059910900000006,170.47560315,-1.076623401,1.8587691895,0.4299866907,-0.29990454040000003,0.37792754770000003,0.011020998330000004
03:40:01,0.5392872900000001,1.74941769,-1.70467741,0.6160081,0.31309718999999997,-0.85508003,-2.1103605,-30.87979125,-5.35676986,170.51919510000002,-1.074103154,1.845527883,0.4303728678,-0.2972057016,0.37667378580000005,0.009845442820000001
03:40:01,0.538098195,1.736477395,-1.701462655,0.6134885499999999,0.312191645,-0.8496893649999999,-2.10301175,-30.883600875,-5.30754863,170.56278705,-1.0715829069999998,1.8322865765,0.4307590449,-0.2945068628,0.3754200239,0.008669887310000002
03:40:01,0.5369091,1.7235371,-1.6982479,0.610969,0.3112861,-0.8442987,-2.095663,-30.8874105,-5.258327400000001,170.606379,-1.06906266,1.8190452700000002,0.431145222,-0.291808024,0.374166262,0.007494331800000004
03:40:01,0.535720005,1.710596805,-1.695033145,0.60844945,0.310380555,-0.838908035,-2.08831425,-30.891220125,-5.20910617,170.64997095,-1.0665424129999999,1.8058039635,0.4315313991,-0.2891091852,0.37291250010000004,0.006318776290000001
03:40:01,0.5345309100000001,1.69765651,-1.69181839,0.6059298999999999,0.30947501,-0.8335173699999999,-2.0809655,-30.89502975,-5.15988494,170.69356290000002,-1.064022166,1.792562657,0.43191757620000004,-0.2864103464,0.3716587382,0.0051432207800000025
03:40:01,0.533341815,1.684716215,-1.688603635,0.60341035,0.308569465,-0.828126705,-2.07361675,-30.898839375,-5.110663710000001,170.73715485,-1.061501919,1.7793213505,0.43230375330000004,-0.2837115076,0.3704049763,0.003967665270000004
03:40:01,0.53215272,1.67177592,-1.6853888799999999,0.6008908,0.30766392,-0.8227360399999999,-2.066268,-30.902649,-5.06144248,170.7807468,-1.0589816719999998,1.766080044,0.43268993040000003,-0.2810126688,0.36915121440000004,0.0027921097600000014
03:40:01,0.530963625,1.658835625,-1.682174125,0.5983712499999999,0.30675837499999997,-0.8173453749999999,-2.0589192499999998,-30.906458625,-5.0122212500000005,170.82433875,-1.056461425,1.7528387375,0.43307610750000003,-0.27831383,0.36789745250000006,0.0016165542500000026
03:40:01,0.5297745300000001,1.64589533,-1.67895937,0.5958517,0.30585283,-0.81195471,-2.0515705,-30.91026825,-4.963000020000001,170.86793070000002,-1.0539411779999999,1.739597431,0.4334622846,-0.2756149912,0.3666436906,0.0004409987400000037
03:40:01,0.528585435,1.632955035,-1.675744615,0.59333215,0.304947285,-0.806564045,-2.0442217499999997,-30.914077875,-4.91377879,170.91152265000002,-1.051420931,1.7263561245,0.4338484617,-0.2729161524,0.36538992870000003,-0.0007345567699999986
03:40:01,0.52739634,1.62001474,-1.67252986,0.5908125999999999,0.30404174,-0.8011733799999999,-2.036873,-30.9178875,-4.864557560000001,170.9551146,-1.048900684,1.713114818,0.4342346388,-0.2702173136,0.36413616680000005,-0.001910112279999994
03:40:01,0.526207245,1.6070744449999999,-1.669315105,0.58829305,0.303136195,-0.795782715,-2.0295242499999997,-30.921697125,-4.81533633,170.99870655,-1.0463804369999998,1.6998735114999999,0.4346208159,-0.2675184748,0.3628824049,-0.0030856677899999962
03:40:01,0.5250181500000001,1.59413415,-1.66610035,0.5857735,0.30223065,-0.7903920499999999,-2.0221755,-30.92550675,-4.7661151,171.04229850000002,-1.04386019,1.686632205,0.435006993,-0.264819636,0.361628643,-0.0042612232999999985
03:40:01,0.523829055,1.581193855,-1.6628855949999999,0.5832539499999999,0.301325105,-0.7850013849999999,-2.01482675,-30.929316375,-4.71689387,171.08589045000002,-1.0413399429999999,1.6733908985000001,0.4353931701,-0.26212079720000003,0.36037488110000004,-0.005436778809999994
03:40:01,0.52263996,1.56825356,-1.65967084,0.5807344,0.30041956,-0.77961072,-2.007478,-30.933126,-4.66767264,171.1294824,-1.038819696,1.660149592,0.4357793472,-0.2594219584,0.3591211192,-0.006612334319999996
03:40:01,0.521450865,1.5553132650000001,-1.6564560849999999,0.57821485,0.29951401499999997,-0.774220055,-2.00012925,-30.936935625,-4.6184514100000005,171.17307435,-1.036299449,1.6469082855,0.4361655243,-0.2567231196,0.3578673573,-0.0077878898299999985
03:40:01,0.5202617700000001,1.54237297,-1.65324133,0.5756952999999999,0.29860847,-0.76882939,-1.9927804999999998,-30.94074525,-4.56923018,171.2166663,-1.0337792019999998,1.633666979,0.4365517014,-0.2540242808,0.35661359540000004,-0.008963445339999994
03:40:01,0.5190726750000001,1.529432675,-1.650026575,0.57317575,0.297702925,-0.763438725,-1.98543175,-30.944554875,-4.52000895,171.26025825000002,-1.031258955,1.6204256725000001,0.4369378785,-0.251325442,0.3553598335,-0.010139000849999996
03:40:01,0.51788358,1.5164923799999999,-1.64681182,0.5706562,0.29679738,-0.7580480599999999,-1.9780829999999998,-30.9483645,-4.470787720000001,171.3038502,-1.028738708,1.607184366,0.43732405560000004,-0.24862660320000002,0.3541060716,-0.011314556359999998
03:40:01,0.516694485,1.503552085,-1.643597065,0.5681366499999999,0.295891835,-0.752657395,-1.97073425,-30.952174125,-4.42156649,171.34744215,-1.026218461,1.5939430595,0.43771023270000003,-0.2459277644,0.35285230970000003,-0.012490111869999994
03:40:01,0.5155053900000001,1.49061179,-1.64038231,0.5656171,0.29498629,-0.74726673,-1.9633855,-30.95598375,-4.37234526,171.3910341,-1.023698214,1.580701753,0.43809640980000003,-0.24322892559999998,0.35159854780000005,-0.013665667379999996
03:40:01,0.5143162950000001,1.477671495,-1.637167555,0.56309755,0.294080745,-0.7418760649999999,-1.95603675,-30.959793375,-4.323124030000001,171.43462605000002,-1.0211779669999999,1.5674604465000002,0.4384825869,-0.2405300868,0.3503447859,-0.014841222889999998
03:40:01,0.5131272,1.4647312000000001,-1.6339527999999999,0.560578,0.29317519999999997,-0.7364854,-1.948688,-30.963603,-4.2739028,171.478218,-1.01865772,1.55421914,0.438868764,-0.237831248,0.349091024,-0.016016778399999994
03:40:01,0.511938105,1.451790905,-1.630738045,0.55805845,0.292269655,-0.7310947349999999,-1.94133925,-30.967412625,-4.22468157,171.52180995,-1.016137473,1.5409778335,0.4392549411,-0.2351324092,0.34783726210000004,-0.017192333909999996
03:40:01,0.5107490100000001,1.43885061,-1.62752329,0.5555389,0.29136411,-0.7257040699999999,-1.9339905,-30.97122225,-4.175460340000001,171.5654019,-1.013617226,1.527736527,0.4396411182,-0.2324335704,0.3465835002,-0.01836788942
03:40:01,0.5095599150000001,1.4259103149999999,-1.624308535,0.55301935,0.290458565,-0.720313405,-1.92664175,-30.975031875,-4.12623911,171.60899385000002,-1.011096979,1.5144952205,0.4400272953,-0.2297347316,0.3453297383,-0.019543444929999994
03:40:01,0.50837082,1.41297002,-1.62109378,0.5504998,0.28955302,-0.71492274,-1.919293,-30.9788415,-4.0770178800000005,171.6525858,-1.0085767319999999,1.5012539139999999,0.4404134724,-0.2270358928,0.34407597640000004,-0.020719000439999996
03:40:01,0.507181725,1.400029725,-1.617879025,0.54798025,0.288647475,-0.7095320749999999,-1.91194425,-30.982651125,-4.027796650000001,171.69617775,-1.006056485,1.4880126075,0.4407996495,-0.22433705399999998,0.34282221450000006,-0.02189455595
03:40:01,0.50599263,1.38708943,-1.61466427,0.5454607,0.28774193,-0.70414141,-1.9045954999999999,-30.98646075,-3.9785754200000003,171.7397697,-1.003536238,1.474771301,0.4411858266,-0.2216382152,0.3415684526,-0.023070111459999994
03:40:01,0.5048035350000001,1.3741491350000001,-1.6114495149999999,0.54294115,0.28683638499999997,-0.6987507449999999,-1.8972467499999999,-30.990270375,-3.92935419,171.78336165000002,-1.0010159909999998,1.4615299945,0.4415720037,-0.2189393764,0.34031469070000003,-0.024245666969999996
03:40:01,0.50361444,1.36120884,-1.60823476,0.5404216,0.28593084,-0.6933600799999999,-1.889898,-30.99408,-3.8801329600000005,171.8269536,-0.998495744,1.4482886879999999,0.4419581808,-0.2162405376,0.33906092880000005,-0.02542122248
03:40:01,0.502425345,1.348268545,-1.605020005,0.53790205,0.285025295,-0.687969415,-1.8825492499999998,-30.997889625,-3.8309117300000004,171.87054555,-0.9959754969999999,1.4350473815,0.4423443579,-0.21354169879999998,0.3378071669,-0.026596777989999994
03:40:01,0.50123625,1.3353282499999999,-1.60180525,0.5353825,0.28411975,-0.68257875,-1.8752005,-31.00169925,-3.7816905000000003,171.9141375,-0.9934552499999999,1.4218060750000001,0.44273053500000004,-0.21084286,0.336553405,-0.027772333499999996
03:40:01,0.5000471550000001,1.322387955,-1.598590495,0.53286295,0.283214205,-0.6771880849999999,-1.8678517499999998,-31.005508875,-3.7324692700000006,171.95772945000002,-0.9909350029999999,1.4085647685,0.44311671210000003,-0.2081440212,0.33529964310000004,-0.02894788900999999
03:40:01,0.49885806000000005,1.30944766,-1.59537574,0.5303434,0.28230866,-0.6717974199999999,-1.860503,-31.0093185,-3.6832480400000005,172.00132140000002,-0.988414756,1.395323462,0.44350288920000003,-0.2054451824,0.3340458812,-0.030123444519999994
03:40:01,0.497668965,1.296507365,-1.592160985,0.52782385,0.281403115,-0.6664067549999999,-1.85315425,-31.013128125,-3.6340268100000004,172.04491335,-0.985894509,1.3820821555,0.4438890663,-0.2027463436,0.3327921193,-0.031299000029999996
03:40:01,0.49647987000000005,1.2835670700000001,-1.58894623,0.5253043,0.28049757,-0.66101609,-1.8458055,-31.01693775,-3.5848055800000003,172.0885053,-0.9833742619999999,1.3688408490000001,0.4442752434,-0.2000475048,0.33153835740000004,-0.03247455554
03:40:01,0.495290775,1.270626775,-1.585731475,0.52278475,0.279592025,-0.655625425,-1.83845675,-31.020747375,-3.5355843500000006,172.13209725000002,-0.9808540149999999,1.3555995425,0.4446614205,-0.197348666,0.3302845955,-0.033650111049999994
03:40:01,0.49410168000000004,1.25768648,-1.5825167199999999,0.5202652,0.27868648,-0.65023476,-1.831108,-31.024557,-3.4863631200000005,172.17568920000002,-0.9783337679999999,1.342358236,0.4450475976,-0.1946498272,0.3290308336,-0.03482566655999999
03:40:01,0.492912585,1.244746185,-1.579301965,0.51774565,0.277780935,-0.644844095,-1.82375925,-31.028366625,-3.4371418900000004,172.21928115,-0.975813521,1.3291169295,0.4454337747,-0.1919509884,0.32777707170000003,-0.03600122207
03:40:01,0.49172349000000004,1.23180589,-1.5760872099999998,0.5152261,0.27687539,-0.6394534299999999,-1.8164105,-31.03217625,-3.3879206600000003,172.2628731,-0.973293274,1.315875623,0.4458199518,-0.1892521496,0.3265233098,-0.037176777579999994
03:40:01,0.49053439500000007,1.218865595,-1.572872455,0.51270655,0.275969845,-0.6340627649999999,-1.80906175,-31.035985875,-3.3386994300000006,172.30646505,-0.9707730269999999,1.3026343164999998,0.4462061289,-0.18655331079999998,0.3252695479,-0.03835233308999999
03:40:01,0.48934530000000004,1.2059253,-1.5696577,0.510187,0.2750643,-0.6286721,-1.801713,-31.0397955,-3.2894782000000005,172.35005700000002,-0.9682527799999999,1.28939301,0.446592306,-0.183854472,0.32401578600000003,-0.0395278886
03:40:01,0.488156205,1.1929850050000002,-1.566442945,0.50766745,0.274158755,-0.623281435,-1.7943642499999999,-31.043605125,-3.2402569700000003,172.39364895,-0.965732533,1.2761517035,0.4469784831,-0.1811556332,0.32276202410000004,-0.040703444109999994
03:40:01,0.48696711000000004,1.18004471,-1.56322819,0.5051479,0.27325321,-0.6178907699999999,-1.7870154999999999,-31.04741475,-3.1910357400000002,172.4372409,-0.963212286,1.262910397,0.4473646602,-0.1784567944,0.3215082622,-0.04187899961999999
03:40:01,0.48577801500000006,1.167104415,-1.560013435,0.50262835,0.272347665,-0.612500105,-1.77966675,-31.051224375,-3.1418145100000006,172.48083285,-0.960692039,1.2496690904999999,0.4477508373,-0.1757579556,0.3202545003,-0.04305455513
03:40:01,0.48458892000000003,1.15416412,-1.55679868,0.5001088,0.27144212,-0.6071094399999999,-1.7723179999999998,-31.055034,-3.0925932800000004,172.52442480000002,-0.9581717919999999,1.236427784,0.4481370144,-0.1730591168,0.31900073840000004,-0.044230110639999994
03:40:01,0.483399825,1.141223825,-1.5535839249999999,0.49758925,0.270536575,-0.6017187749999999,-1.76496925,-31.058843625,-3.0433720500000003,172.56801675,-0.9556515449999999,1.2231864775,0.44852319150000003,-0.170360278,0.31774697650000006,-0.04540566614999999
03:40:01,0.48221073000000003,1.12828353,-1.55036917,0.49506969999999995,0.26963103,-0.59632811,-1.7576205,-31.06265325,-2.9941508200000007,172.6116087,-0.953131298,1.209945171,0.4489093686,-0.16766143919999998,0.3164932146,-0.04658122166
03:40:01,0.48102163500000006,1.115343235,-1.547154415,0.49255014999999996,0.268725485,-0.590937445,-1.75027175,-31.066462875,-2.9449295900000005,172.65520065,-0.9506110509999999,1.1967038644999999,0.4492955457,-0.1649626004,0.31523945270000003,-0.047756777169999994
03:40:01,0.47983254000000003,1.1024029400000002,-1.54393966,0.4900306,0.26781994,-0.5855467799999999,-1.742923,-31.0702725,-2.8957083600000004,172.69879260000002,-0.948090804,1.183462558,0.4496817228,-0.1622637616,0.31398569080000005,-0.04893233267999999
03:40:01,0.478643445,1.089462645,-1.540724905,0.48751104999999995,0.26691439499999997,-0.5801561149999999,-1.73557425,-31.074082125,-2.8464871300000003,172.74238455,-0.9455705569999999,1.1702212515000001,0.4500678999,-0.1595649228,0.3127319289,-0.05010788819
03:40:01,0.47745435,1.07652235,-1.53751015,0.48499149999999996,0.26600884999999996,-0.5747654499999999,-1.7282255,-31.07789175,-2.7972659000000006,172.7859765,-0.94305031,1.156979945,0.450454077,-0.156866084,0.31147816700000003,-0.051283443699999993
03:40:01,0.47626525500000005,1.063582055,-1.534295395,0.48247195,0.265103305,-0.5693747849999999,-1.72087675,-31.081701375,-2.7480446700000005,172.82956845,-0.940530063,1.1437386385,0.4508402541,-0.1541672452,0.31022440510000004,-0.05245899920999999
03:40:01,0.47507616,1.05064176,-1.5310806399999999,0.47995239999999995,0.26419776,-0.56398412,-1.713528,-31.085511,-2.6988234400000004,172.87316040000002,-0.9380098159999999,1.130497332,0.4512264312,-0.1514684064,0.3089706432,-0.05363455472
03:40:01,0.47388706500000005,1.037701465,-1.527865885,0.47743284999999996,0.263292215,-0.558593455,-1.70617925,-31.089320625,-2.6496022100000003,172.91675235,-0.9354895689999999,1.1172560255,0.4516126083,-0.14876956759999999,0.3077168813,-0.05481011022999999
03:40:01,0.47269797,1.02476117,-1.52465113,0.4749133,0.26238667,-0.5532027899999999,-1.6988305,-31.09313025,-2.6003809800000006,172.9603443,-0.9329693219999999,1.1040147189999998,0.4519987854,-0.1460707288,0.30646311940000004,-0.05598566573999999
03:40:01,0.47150887500000005,1.0118208750000002,-1.521436375,0.47239374999999995,0.261481125,-0.5478121249999999,-1.69148175,-31.096939875,-2.5511597500000005,173.00393625,-0.930449075,1.0907734125,0.4523849625,-0.14337189,0.3052093575,-0.05716122125
03:40:01,0.47031978,0.99888058,-1.51822162,0.46987419999999996,0.26057558000000003,-0.5424214599999999,-1.684133,-31.1007495,-2.5019385200000004,173.04752820000002,-0.927928828,1.077532106,0.4527711396,-0.14067305119999998,0.3039555956,-0.05833677675999999
03:40:01,0.46913068500000005,0.985940285,-1.515006865,0.46735465,0.25967003499999997,-0.537030795,-1.6767842499999999,-31.104559125,-2.4527172900000003,173.09112015000002,-0.9254085809999999,1.0642907995,0.4531573167,-0.1379742124,0.30270183370000003,-0.05951233226999999
03:40:01,0.46794159,0.9729999899999999,-1.51179211,0.46483509999999995,0.25876449,-0.53164013,-1.6694355,-31.10836875,-2.4034960600000006,173.1347121,-0.9228883339999999,1.051049493,0.45354349380000003,-0.1352753736,0.3014480718,-0.06068788778
03:40:01,0.46675249500000004,0.960059695,-1.508577355,0.46231554999999996,0.257858945,-0.5262494649999999,-1.6620867499999998,-31.112178375,-2.3542748300000005,173.17830405,-0.920368087,1.0378081865,0.4539296709,-0.1325765348,0.3001943099,-0.06186344328999999
03:40:01,0.4655634,0.9471194000000001,-1.5053626,0.459796,0.2569534,-0.5208588,-1.654738,-31.115988,-2.3050536000000004,173.22189600000002,-0.91784784,1.02456688,0.454315848,-0.129877696,0.29894054800000003,-0.0630389988
03:40:01,0.46437430500000004,0.9341791050000001,-1.502147845,0.45727644999999995,0.256047855,-0.5154681349999999,-1.6473892499999998,-31.119797625,-2.2558323700000007,173.26548795000002,-0.915327593,1.0113255735,0.4547020251,-0.1271788572,0.29768678610000004,-0.06421455431
03:40:01,0.46318521,0.92123881,-1.49893309,0.45475689999999996,0.25514231,-0.5100774699999999,-1.6400405,-31.12360725,-2.2066111400000006,173.3090799,-0.9128073459999999,0.9980842669999999,0.4550882022,-0.1244800184,0.2964330242,-0.06539010981999999
03:40:01,0.46199611500000004,0.908298515,-1.4957183349999998,0.45223735,0.254236765,-0.504686805,-1.63269175,-31.127416875,-2.157389910000001,173.35267185,-0.9102870989999999,0.9848429605,0.4554743793,-0.12178117959999998,0.2951792623,-0.06656566533
03:40:01,0.46080702,0.8953582200000001,-1.49250358,0.44971779999999995,0.25333121999999997,-0.49929613999999994,-1.625343,-31.1312265,-2.1081686800000004,173.3962638,-0.907766852,0.9716016539999999,0.4558605564,-0.11908234079999999,0.29392550040000004,-0.06774122084
03:40:01,0.45961792500000004,0.8824179249999999,-1.489288825,0.44719824999999996,0.252425675,-0.4939054749999999,-1.61799425,-31.135036125,-2.0589474500000007,173.43985575000002,-0.905246605,0.9583603475,0.4562467335,-0.116383502,0.29267173850000006,-0.06891677634999999
03:40:01,0.45842883,0.86947763,-1.48607407,0.4446787,0.25152013,-0.48851480999999997,-1.6106455,-31.13884575,-2.00972622,173.4834477,-0.902726358,0.9451190409999999,0.4566329106,-0.11368466319999998,0.2914179766,-0.07009233186
03:40:01,0.45723973500000004,0.8565373350000001,-1.482859315,0.44215914999999995,0.250614585,-0.48312414499999995,-1.60329675,-31.142655375,-1.9605049900000004,173.52703965,-0.9002061109999999,0.9318777345,0.4570190877,-0.11098582439999999,0.29016421470000003,-0.07126788737
03:40:01,0.45605064000000006,0.8435970400000001,-1.4796445599999999,0.43963959999999996,0.24970904,-0.47773347999999993,-1.595948,-31.146465,-1.9112837600000008,173.5706316,-0.897685864,0.9186364279999999,0.4574052648,-0.1082869856,0.28891045280000005,-0.07244344287999999
03:40:01,0.45486154500000003,0.830656745,-1.476429805,0.43712005,0.24880349499999999,-0.4723428149999999,-1.5885992500000001,-31.150274625,-1.8620625300000002,173.61422355000002,-0.895165617,0.9053951215,0.4577914419,-0.1055881468,0.2876566909,-0.07361899839
03:40:01,0.45367245,0.81771645,-1.4732150499999999,0.43460049999999995,0.24789794999999998,-0.46695214999999995,-1.5812505,-31.15408425,-1.8128413000000005,173.6578155,-0.89264537,0.8921538149999999,0.458177619,-0.10288930799999998,0.28640292900000003,-0.0747945539
03:40:01,0.45248335500000003,0.8047761550000001,-1.470000295,0.43208094999999996,0.246992405,-0.46156148499999994,-1.57390175,-31.157893875,-1.7636200700000009,173.70140745,-0.890125123,0.8789125085,0.4585637961,-0.10019046919999999,0.28514916710000004,-0.07597010940999999
03:40:01,0.45129426000000006,0.79183586,-1.46678554,0.4295614,0.24608686,-0.4561708199999999,-1.5665529999999999,-31.1617035,-1.7143988400000003,173.7449994,-0.8876048759999999,0.8656712019999999,0.45894997319999997,-0.0974916304,0.2838954052,-0.07714566492
03:40:01,0.45010516500000003,0.778895565,-1.463570785,0.42704184999999995,0.245181315,-0.4507801549999999,-1.55920425,-31.165513125,-1.6651776100000006,173.78859135000002,-0.885084629,0.8524298955,0.45933615029999997,-0.09479279159999998,0.2826416433,-0.07832122043
03:40:01,0.44891607,0.7659552700000001,-1.46035603,0.42452229999999996,0.24427577,-0.44538948999999994,-1.5518554999999998,-31.16932275,-1.61595638,173.8321833,-0.882564382,0.8391885889999999,0.4597223274,-0.09209395279999999,0.28138788140000004,-0.07949677593999999
03:40:01,0.447726975,0.7530149750000001,-1.457141275,0.42200275,0.243370225,-0.439998825,-1.54450675,-31.173132375,-1.5667351500000004,173.87577525,-0.8800441349999999,0.8259472825,0.4601085045,-0.089395114,0.2801341195,-0.08067233145
03:40:01,0.44653788000000005,0.74007468,-1.45392652,0.41948319999999995,0.24246468,-0.4346081599999999,-1.537158,-31.176942,-1.5175139200000007,173.9193672,-0.877523888,0.8127059759999999,0.4604946816,-0.0866962752,0.2788803576,-0.08184788696
03:40:01,0.445348785,0.727134385,-1.4507117649999999,0.41696364999999996,0.24155913499999998,-0.42921749499999995,-1.52980925,-31.180751625,-1.4682926900000002,173.96295915000002,-0.8750036409999999,0.7994646694999998,0.4608808587,-0.08399743640000001,0.27762659570000003,-0.08302344246999999
03:40:01,0.44415969,0.7141940900000001,-1.44749701,0.4144441,0.24065359,-0.42382683,-1.5224605,-31.18456125,-1.4190714600000005,174.0065511,-0.872483394,0.786223363,0.4612670358,-0.08129859759999997,0.2763728338,-0.08419899798
03:40:01,0.442970595,0.701253795,-1.444282255,0.41192454999999994,0.239748045,-0.4184361649999999,-1.51511175,-31.188370875,-1.3698502300000008,174.05014305,-0.869963147,0.7729820564999998,0.4616532129,-0.07859975879999997,0.2751190719,-0.08537455348999998
03:40:01,0.44178150000000005,0.6883135,-1.4410675,0.40940499999999996,0.2388425,-0.41304549999999995,-1.507763,-31.1921805,-1.3206290000000003,174.093735,-0.8674428999999999,0.75974075,0.46203939,-0.07590091999999998,0.27386531000000003,-0.08655010899999999
03:40:01,0.440592405,0.6753732050000001,-1.4378527449999998,0.40688545,0.237936955,-0.4076548349999999,-1.50041425,-31.195990125,-1.2714077700000006,174.13732695000002,-0.864922653,0.7464994434999999,0.4624255671,-0.07320208119999999,0.2726115481,-0.08772566451
03:40:01,0.43940331,0.6624329100000002,-1.43463799,0.4043659,0.23703141,-0.4022641699999999,-1.4930655,-31.19979975,-1.222186540000001,174.18091890000002,-0.862402406,0.733258137,0.4628117442,-0.0705032424,0.27135778620000006,-0.08890122001999998
03:40:01,0.438214215,0.649492615,-1.431423235,0.40184634999999996,0.236125865,-0.39687350499999996,-1.48571675,-31.203609375,-1.1729653100000004,174.22451085,-0.859882159,0.7200168304999999,0.4631979213,-0.06780440360000001,0.2701040243,-0.09007677552999999
03:40:01,0.43702512000000004,0.6365523200000001,-1.42820848,0.3993268,0.23522031999999998,-0.3914828399999999,-1.4783680000000001,-31.207419,-1.1237440800000007,174.2681028,-0.857361912,0.706775524,0.4635840984,-0.06510556480000002,0.2688502624,-0.09125233104
03:40:01,0.435836025,0.6236120250000001,-1.424993725,0.39680725,0.23431477499999998,-0.3860921749999999,-1.47101925,-31.211228625,-1.0745228500000001,174.31169475000002,-0.8548416649999999,0.6935342174999999,0.4639702755,-0.06240672599999997,0.26759650050000006,-0.09242788654999998
03:40:01,0.43464693,0.61067173,-1.42177897,0.39428769999999996,0.23340923,-0.38070150999999997,-1.4636705,-31.21503825,-1.0253016200000005,174.35528670000002,-0.8523214179999999,0.680292911,0.4643564526,-0.059707887199999976,0.2663427386,-0.09360344205999999
03:40:01,0.433457835,0.597731435,-1.418564215,0.39176815,0.23250368500000002,-0.3753108449999999,-1.4563217499999999,-31.218847875,-0.9760803900000008,174.39887865,-0.849801171,0.6670516044999999,0.4647426297,-0.057009048399999984,0.26508897670000003,-0.09477899757
03:40:01,0.43226874000000004,0.5847911400000001,-1.4153494599999998,0.3892486,0.23159814,-0.36992017999999993,-1.448973,-31.2226575,-0.9268591600000002,174.4424706,-0.847280924,0.653810298,0.4651288068,-0.05431020959999999,0.26383521480000005,-0.09595455308
03:40:01,0.431079645,0.5718508449999999,-1.412134705,0.38672904999999996,0.230692595,-0.36452951499999997,-1.4416242499999998,-31.226467125000003,-0.8776379300000006,174.48606255,-0.844760677,0.6405689914999999,0.4655149839,-0.0516113708,0.2625814529,-0.09713010858999999
03:40:01,0.42989055,0.55891055,-1.40891995,0.3842095,0.22978705,-0.3591388499999999,-1.4342755,-31.23027675,-0.8284167000000009,174.52965450000002,-0.8422404299999999,0.627327685,0.465901161,-0.04891253200000001,0.26132769100000003,-0.0983056641
03:40:01,0.428701455,0.5459702550000001,-1.405705195,0.38168995,0.22888150499999999,-0.35374818499999994,-1.42692675,-31.234086375,-0.7791954700000003,174.57324645,-0.839720183,0.6140863784999999,0.4662873381,-0.04621369320000002,0.26007392910000005,-0.09948121961
03:40:01,0.42751236000000004,0.5330299600000001,-1.40249044,0.37917039999999996,0.22797595999999998,-0.34835752,-1.419578,-31.237896000000003,-0.7299742400000007,174.6168384,-0.837199936,0.6008450719999998,0.4666735152,-0.04351485439999997,0.2588201672,-0.10065677511999999
03:40:01,0.42632326500000006,0.520089665,-1.3992756849999999,0.37665085,0.227070415,-0.3429668549999999,-1.41222925,-31.241705625,-0.680753010000001,174.66043035,-0.8346796889999999,0.5876037654999999,0.4670596923,-0.04081601559999998,0.2575664053,-0.10183233063
03:40:01,0.42513417000000003,0.50714937,-1.39606093,0.3741313,0.22616487,-0.33757618999999994,-1.4048805,-31.24551525,-0.6315317800000004,174.70402230000002,-0.832159442,0.5743624589999998,0.4674458694,-0.038117176799999986,0.25631264340000004,-0.10300788614
03:40:01,0.423945075,0.4942090750000001,-1.3928461749999999,0.37161174999999996,0.225259325,-0.332185525,-1.39753175,-31.249324875000003,-0.5823105500000008,174.74761425,-0.8296391949999999,0.5611211524999999,0.4678320465,-0.035418337999999994,0.2550588815,-0.10418344164999999
03:40:01,0.42275598000000003,0.48126877999999995,-1.38963142,0.3690922,0.22435378,-0.3267948599999999,-1.390183,-31.2531345,-0.5330893200000002,174.7912062,-0.827118948,0.5478798459999998,0.4682182236,-0.0327194992,0.2538051196,-0.10535899716
03:40:01,0.42156688500000006,0.468328485,-1.386416665,0.36657265,0.223448235,-0.32140419499999995,-1.38283425,-31.256944125,-0.48386809000000053,174.83479815,-0.824598701,0.5346385395,0.4686044007,-0.03002066040000001,0.25255135770000003,-0.10653455267
03:40:01,0.42037779000000003,0.4553881900000001,-1.38320191,0.36405309999999996,0.22254269,-0.31601353,-1.3754855,-31.260753750000003,-0.43464686000000086,174.87839010000002,-0.8220784539999999,0.5213972329999998,0.4689905778,-0.027321821599999963,0.2512975958,-0.10771010817999999
03:40:01,0.419188695,0.44244789500000015,-1.379987155,0.36153355,0.22163714499999998,-0.3106228649999999,-1.3681367500000001,-31.264563375,-0.3854256300000003,174.92198205,-0.819558207,0.5081559265,0.46937675489999997,-0.02462298279999997,0.2500438339,-0.10888566369
03:40:01,0.4179996,0.4295076,-1.3767724,0.359014,0.2207316,-0.30523219999999995,-1.3607879999999999,-31.268373,-0.3362044000000006,174.965574,-0.81703796,0.49491461999999986,0.46976293199999997,-0.02192414399999998,0.24879007200000003,-0.1100612192
03:40:01,0.41681050500000005,0.41656730500000005,-1.373557645,0.35649444999999996,0.219826055,-0.2998415349999999,-1.35343925,-31.272182625000003,-0.28698317000000095,175.00916595,-0.814517713,0.4816733135,0.47014910909999996,-0.019225305199999987,0.24753631010000002,-0.11123677470999999
03:40:01,0.41562141,0.4036270100000001,-1.3703428899999999,0.3539749,0.21892051,-0.2944508699999999,-1.3460904999999999,-31.27599225,-0.2377619400000004,175.05275790000002,-0.811997466,0.4684320069999999,0.4705352862,-0.016526466399999995,0.24628254820000003,-0.11241233022
03:40:01,0.414432315,0.39068671499999996,-1.367128135,0.35145535,0.218014965,-0.28906020499999996,-1.33874175,-31.279801875,-0.18854071000000072,175.09634985,-0.8094772189999999,0.4551907005,0.4709214633,-0.013827627600000003,0.24502878630000002,-0.11358788573
03:40:01,0.41324322,0.37774642,-1.36391338,0.34893579999999996,0.21710942,-0.2836695399999999,-1.3313929999999998,-31.283611500000003,-0.13931948000000016,175.1399418,-0.806956972,0.4419493939999999,0.4713076404,-0.011128788800000011,0.2437750244,-0.11476344123999999
03:40:01,0.41205412500000005,0.3648061250000001,-1.360698625,0.34641625,0.216203875,-0.2782788749999999,-1.32404425,-31.287421125,-0.09009825000000049,175.18353375,-0.804436725,0.4287080875,0.4716938175,-0.008429949999999964,0.24252126250000003,-0.11593899675
03:40:01,0.41086503,0.35186583000000016,-1.35748387,0.3438967,0.21529832999999998,-0.27288820999999996,-1.3166955,-31.29123075,-0.04087702000000082,175.22712570000002,-0.801916478,0.4154667809999999,0.4720799946,-0.005731111199999972,0.24126750060000002,-0.11711455226
03:40:01,0.409675935,0.338925535,-1.354269115,0.34137714999999996,0.21439278499999997,-0.2674975449999999,-1.30934675,-31.295040375000003,0.008344209999999741,175.27071765000002,-0.799396231,0.4022254745,0.4724661717,-0.00303227239999998,0.24001373870000003,-0.11829010776999999
03:40:01,0.40848684,0.32598524000000006,-1.35105436,0.3388576,0.21348724,-0.26210687999999993,-1.301998,-31.29885,0.05756543999999941,175.3143096,-0.7968759839999999,0.3889841679999999,0.4728523488,-0.00033343359999998823,0.23875997680000002,-0.11946566328
03:40:01,0.40729774500000004,0.31304494500000013,-1.3478396049999999,0.33633805,0.21258169500000001,-0.25671621499999997,-1.29464925,-31.302659625,0.10678666999999908,175.35790155,-0.7943557370000001,0.3757428614999998,0.4732385259,0.0023654052000000036,0.2375062149,-0.12064121879
03:40:01,0.40610865,0.30010465,-1.34462485,0.33381849999999996,0.21167615,-0.2513255499999999,-1.2873005,-31.306469250000003,0.15600789999999964,175.40149350000002,-0.79183549,0.3625015549999999,0.473624703,0.0050642439999999955,0.23625245300000003,-0.12181677429999999
03:40:01,0.404919555,0.28716435500000004,-1.341410095,0.33129895,0.210770605,-0.24593488499999994,-1.27995175,-31.310278875,0.20522912999999932,175.44508545000002,-0.789315243,0.3492602484999998,0.4740108801,0.007763082799999987,0.23499869110000002,-0.12299232981
03:40:01,0.40373046,0.2742240600000001,-1.33819534,0.3287794,0.20986506,-0.24054421999999998,-1.2726030000000002,-31.3140885,0.254450359999999,175.4886774,-0.786794996,0.33601894199999993,0.47439705719999997,0.010461921600000035,0.23374492920000003,-0.12416788532
03:40:01,0.40254136500000004,0.26128376500000017,-1.3349805849999998,0.32625984999999996,0.20895951499999998,-0.2351535549999999,-1.26525425,-31.317898125000003,0.30367158999999955,175.53226935,-0.7842747489999999,0.3227776354999998,0.47478323429999997,0.013160760400000027,0.23249116730000002,-0.12534344082999999
03:40:01,0.40135227,0.24834347,-1.33176583,0.3237403,0.20805396999999998,-0.22976288999999994,-1.2579055000000001,-31.32170775,0.3528928199999992,175.5758613,-0.781754502,0.30953632899999994,0.47516941139999996,0.01585959920000002,0.2312374054,-0.12651899634
03:40:01,0.400163175,0.23540317500000008,-1.328551075,0.32122075,0.207148425,-0.22437222499999998,-1.2505567499999999,-31.325517375,0.4021140499999998,175.61945325000002,-0.779234255,0.29629502249999984,0.4755555885,0.01855843800000001,0.22998364350000003,-0.12769455185
03:40:01,0.39897408,0.22246288000000014,-1.32533632,0.31870119999999996,0.20624288,-0.2189815599999999,-1.243208,-31.329327000000003,0.45133527999999945,175.6630452,-0.776714008,0.28305371599999996,0.4759417656,0.021257276800000002,0.22872988160000002,-0.12887010735999999
03:40:01,0.39778498500000004,0.20952258499999998,-1.322121565,0.31618165,0.205337335,-0.21359089499999995,-1.23585925,-31.333136625,0.5005565099999991,175.70663715,-0.774193761,0.26981240949999985,0.4763279427,0.023956115599999994,0.22747611970000003,-0.13004566287
03:40:01,0.39659589,0.19658229000000005,-1.3189068099999999,0.3136621,0.20443179,-0.20820022999999988,-1.2285105,-31.33694625,0.5497777399999997,175.7502291,-0.771673514,0.25657110299999997,0.4767141198,0.026654954399999986,0.22622235780000002,-0.13122121838
03:40:01,0.395406795,0.1836419950000001,-1.315692055,0.31114254999999996,0.203526245,-0.20280956499999991,-1.22116175,-31.340755875000003,0.5989989699999994,175.79382105000002,-0.769153267,0.24332979649999986,0.4771002969,0.029353793200000033,0.2249685959,-0.13239677388999999
03:40:01,0.3942177,0.17070170000000018,-1.3124772999999998,0.308623,0.2026207,-0.19741889999999995,-1.213813,-31.3445655,0.648220199999999,175.837413,-0.76663302,0.23008848999999998,0.477486474,0.032052632000000025,0.22371483400000003,-0.1335723294
03:40:01,0.39302860500000003,0.15776140500000002,-1.309262545,0.30610345,0.201715155,-0.19202823499999988,-1.20646425,-31.348375125,0.6974414299999996,175.88100495,-0.7641127729999999,0.21684718349999987,0.4778726511,0.03475147080000002,0.22246107210000002,-0.13474788491
03:40:01,0.39183951,0.1448211100000001,-1.30604779,0.30358389999999996,0.20080961,-0.18663756999999992,-1.1991155,-31.352184750000003,0.7466626599999993,175.9245969,-0.761592526,0.203605877,0.4782588282,0.03745030960000001,0.22120731020000003,-0.13592344041999999
03:40:01,0.390650415,0.13188081500000015,-1.302833035,0.30106435,0.199904065,-0.18124690499999996,-1.19176675,-31.355994375,0.7958838899999998,175.96818885000002,-0.759072279,0.19036457049999989,0.4786450053,0.0401491484,0.21995354830000002,-0.13709899593
03:40:01,0.38946132,0.11894052,-1.29961828,0.2985448,0.19899851999999998,-0.17585623999999989,-1.184418,-31.359804,0.8451051199999995,176.0117808,-0.756552032,0.177123264,0.4790311824,0.04284798719999999,0.2186997864,-0.13827455144
03:40:01,0.388272225,0.10600022500000006,-1.296403525,0.29602524999999996,0.198092975,-0.17046557499999992,-1.17706925,-31.363613625000003,0.8943263499999992,176.05537275,-0.754031785,0.1638819574999999,0.4794173595,0.04554682600000004,0.21744602450000003,-0.13945010694999999
03:40:01,0.38708313000000005,0.09305993000000012,-1.29318877,0.2935057,0.19718743,-0.16507490999999996,-1.1697205,-31.36742325,0.9435475799999997,176.0989647,-0.7515115379999999,0.1506406509999998,0.47980353659999997,0.04824566480000003,0.21619226260000002,-0.14062566246
03:40:01,0.385894035,0.08011963500000019,-1.2899740149999999,0.29098615,0.196281885,-0.1596842449999999,-1.16237175,-31.371232875,0.9927688099999994,176.14255665000002,-0.7489912910000001,0.1373993444999999,0.48018971369999996,0.050944503600000024,0.21493850070000003,-0.14180121797
03:40:01,0.38470494,0.06717934000000003,-1.28675926,0.28846659999999996,0.19537633999999998,-0.15429357999999993,-1.155023,-31.375042500000003,1.041990039999999,176.1861486,-0.746471044,0.1241580379999998,0.48057589079999996,0.053643342400000016,0.21368473880000002,-0.14297677347999999
03:40:01,0.383515845,0.0542390450000001,-1.283544505,0.28594705,0.194470795,-0.14890291499999997,-1.14767425,-31.378852125,1.0912112699999996,176.22974055,-0.743950797,0.11091673149999992,0.48096206789999996,0.05634218120000001,0.2124309769,-0.14415232899
03:40:01,0.38232675000000005,0.04129875000000016,-1.28032975,0.2834275,0.19356525,-0.1435122499999999,-1.1403255,-31.38266175,1.1404324999999993,176.2733325,-0.74143055,0.09767542499999982,0.48134824499999995,0.05904102,0.21117721500000003,-0.1453278845
03:40:01,0.381137655,0.028358455000000005,-1.277114995,0.28090794999999996,0.192659705,-0.13812158499999994,-1.13297675,-31.386471375000003,1.189653729999999,176.31692445000002,-0.7389103029999999,0.08443411849999993,0.4817344221,0.06173985879999999,0.20992345310000002,-0.14650344000999999
03:40:01,0.37994856,0.01541816000000007,-1.27390024,0.2783884,0.19175416,-0.13273091999999997,-1.125628,-31.390281,1.2388749599999995,176.36051640000002,-0.7363900560000001,0.07119281200000005,0.4821205992,0.06443869760000004,0.20866969120000003,-0.14767899552
03:40:01,0.378759465,0.0024778650000001345,-1.270685485,0.27586885,0.190848615,-0.1273402549999999,-1.11827925,-31.394090625,1.2880961899999992,176.40410835,-0.733869809,0.05795150549999972,0.4825067763,0.06713753640000003,0.20741592930000002,-0.14885455103
03:40:01,0.37757037000000004,-0.010462430000000023,-1.2674707299999999,0.27334929999999996,0.18994307,-0.12194958999999994,-1.1109305,-31.397900250000003,1.3373174199999998,176.4477003,-0.731349562,0.04471019899999984,0.4828929534,0.06983637520000002,0.2061621674,-0.15003010653999999
03:40:01,0.376381275,-0.023402724999999736,-1.264255975,0.27082975,0.18903752499999998,-0.11655892499999998,-1.10358175,-31.401709875,1.3865386499999994,176.49129225000001,-0.728829315,0.031468892499999956,0.4832791305,0.07253521400000001,0.20490840550000003,-0.15120566205
03:40:01,0.37519218,-0.036343020000000115,-1.26104122,0.2683102,0.18813198,-0.11116825999999991,-1.096233,-31.4055195,1.435759879999999,176.53488420000002,-0.726309068,0.018227586000000073,0.4836653076,0.0752340528,0.20365464360000002,-0.15238121756
03:40:01,0.374003085,-0.04928331500000005,-1.257826465,0.26579064999999996,0.187226435,-0.10577759499999995,-1.08888425,-31.409329125000003,1.4849811099999997,176.57847615,-0.7237888210000001,0.004986279499999746,0.4840514847,0.0779328916,0.20240088170000003,-0.15355677306999999
03:40:01,0.37281399000000004,-0.062223609999999985,-1.2546117099999998,0.2632711,0.18632089,-0.10038692999999987,-1.0815355,-31.41313875,1.5342023399999993,176.6220681,-0.721268574,-0.008255027000000137,0.4844376618,0.08063173039999999,0.20114711980000002,-0.15473232858
03:40:01,0.371624895,-0.07516390499999992,-1.251396955,0.26075155,0.18541534499999998,-0.09499626499999991,-1.07418675,-31.416948375,1.583423569999999,176.66566005,-0.718748327,-0.02149633350000002,0.48482383889999997,0.08333056920000004,0.1998933579,-0.15590788409
03:40:01,0.3704358,-0.08810419999999985,-1.2481822,0.258232,0.1845098,-0.08960559999999995,-1.066838,-31.420758000000003,1.6326447999999996,176.70925200000002,-0.71622808,-0.0347376399999999,0.48521001599999997,0.08602940800000003,0.19863959600000003,-0.15708343959999999
03:40:01,0.369246705,-0.10104449499999979,-1.244967445,0.25571245,0.183604255,-0.08421493499999988,-1.05948925,-31.424567625,1.6818660299999992,176.75284395,-0.713707833,-0.04797894650000023,0.48559619309999996,0.08872824680000002,0.19738583410000002,-0.15825899511
03:40:01,0.36805761000000004,-0.11398478999999972,-1.24175269,0.2531929,0.18269871,-0.07882426999999992,-1.0521405,-31.42837725,1.731087259999999,176.7964359,-0.711187586,-0.06122025300000011,0.4859823702,0.09142708560000001,0.19613207220000003,-0.15943455062
03:40:01,0.366868515,-0.1269250850000001,-1.238537935,0.25067335,0.181793165,-0.07343360499999996,-1.04479175,-31.432186875000003,1.7803084899999986,176.84002785,-0.708667339,-0.0744615595,0.4863685473,0.0941259244,0.19487831030000002,-0.16061010612999999
03:40:01,0.36567942,-0.13986538000000004,-1.23532318,0.24815379999999998,0.18088762,-0.06804293999999989,-1.0374430000000001,-31.4359965,1.8295297199999991,176.88361980000002,-0.706147092,-0.08770286600000032,0.4867547244,0.0968247632,0.1936245484,-0.16178566164
03:40:01,0.364490325,-0.15280567499999997,-1.2321084249999998,0.24563425,0.179982075,-0.06265227499999992,-1.03009425,-31.439806125,1.8787509499999997,176.92721175,-0.7036268450000001,-0.1009441725000002,0.4871409015,0.09952360199999999,0.19237078650000003,-0.16296121715
03:40:01,0.36330123000000003,-0.1657459699999999,-1.22889367,0.24311470000000002,0.17907652999999998,-0.05726160999999996,-1.0227455,-31.443615750000003,1.9279721799999985,176.9708037,-0.701106598,-0.11418547900000009,0.4875270786,0.10222244080000004,0.19111702460000002,-0.16413677265999999
03:40:01,0.362112135,-0.17868626499999984,-1.225678915,0.24059514999999998,0.178170985,-0.05187094499999989,-1.01539675,-31.447425375,1.977193409999999,177.01439565,-0.698586351,-0.12742678549999997,0.4879132557,0.10492127960000003,0.18986326270000004,-0.16531232817
03:40:01,0.36092304,-0.19162655999999978,-1.22246416,0.2380756,0.17726544,-0.04648027999999993,-1.008048,-31.451235,2.0264146399999996,177.05798760000002,-0.696066104,-0.1406680920000003,0.4882994328,0.10762011840000002,0.18860950080000002,-0.16648788368
03:40:01,0.359733945,-0.20456685499999971,-1.2192494049999998,0.23555605000000002,0.176359895,-0.04108961499999997,-1.00069925,-31.455044625000003,2.07563587,177.10157955,-0.6935458569999999,-0.15390939850000018,0.4886856099,0.11031895720000001,0.1873557389,-0.16766343918999999
03:40:01,0.35854485,-0.2175071500000001,-1.21603465,0.23303649999999998,0.17545434999999998,-0.035698949999999896,-0.9933505,-31.45885425,2.124857099999999,177.1451715,-0.6910256100000001,-0.16715070500000007,0.489071787,0.113017796,0.18610197700000003,-0.1688389947
03:40:01,0.357355755,-0.23044744500000003,-1.212819895,0.23051695,0.174548805,-0.030308284999999935,-0.98600175,-31.462663875,2.1740783299999995,177.18876345,-0.688505363,-0.18039201149999995,0.4894579641,0.1157166348,0.18484821510000002,-0.17001455021
03:40:01,0.35616665999999997,-0.24338773999999996,-1.2096051399999999,0.22799740000000002,0.17364326,-0.024917619999999974,-0.978653,-31.466473500000003,2.22329956,177.23235540000002,-0.685985116,-0.19363331800000028,0.48984414119999997,0.11841547360000004,0.18359445320000004,-0.17119010571999999
03:40:01,0.354977565,-0.2563280349999999,-1.206390385,0.22547784999999998,0.172737715,-0.0195269549999999,-0.97130425,-31.470283125,2.272520789999999,177.27594735,-0.683464869,-0.20687462450000016,0.49023031829999997,0.12111431240000003,0.18234069130000002,-0.17236566123
03:40:01,0.35378847,-0.26926832999999983,-1.20317563,0.2229583,0.17183217,-0.01413628999999994,-0.9639555,-31.47409275,2.3217420199999994,177.3195393,-0.6809446219999999,-0.22011593100000004,0.49061649539999996,0.12381315120000003,0.1810869294,-0.17354121674
03:40:01,0.352599375,-0.28220862499999977,-1.199960875,0.22043875000000002,0.170926625,-0.008745624999999868,-0.95660675,-31.477902375000003,2.37096325,177.36313125,-0.6784243750000001,-0.23335723749999993,0.49100267249999996,0.12651199000000002,0.17983316750000003,-0.17471677224999999
03:40:01,0.35141028,-0.2951489199999997,-1.1967461199999998,0.21791919999999998,0.17002108,-0.003354959999999907,-0.9492579999999999,-31.481712,2.4201844799999988,177.40672320000002,-0.675904128,-0.24659854400000025,0.49138884959999996,0.1292108288,0.17857940560000002,-0.17589232776
03:40:01,0.350221185,-0.3080892150000001,-1.193531365,0.21539965,0.16911553499999998,0.0020357050000000543,-0.9419092499999999,-31.485521625,2.4694057099999993,177.45031515000002,-0.673383881,-0.25983985050000014,0.49177502669999995,0.1319096676,0.17732564370000004,-0.17706788327
03:40:01,0.34903209,-0.32102951,-1.19031661,0.21288010000000002,0.16820999,0.0074263700000001265,-0.9345605000000001,-31.489331250000003,2.51862694,177.4939071,-0.670863634,-0.273081157,0.49216120379999995,0.1346085064,0.17607188180000002,-0.17824343877999999
03:40:01,0.34784299500000004,-0.33396980499999995,-1.1871018549999999,0.21036054999999998,0.167304445,0.012817035000000088,-0.9272117500000001,-31.493140875,2.5678481699999987,177.53749905,-0.668343387,-0.28632246350000035,0.49254738089999994,0.13730734520000004,0.1748181199,-0.17941899429
03:40:01,0.3466539,-0.3469100999999999,-1.1838871,0.207841,0.1663989,0.01820770000000005,-0.9198630000000001,-31.4969505,2.617069399999999,177.58109100000001,-0.6658231400000001,-0.29956377000000023,0.492933558,0.14000618400000003,0.17356435800000003,-0.1805945498
03:40:01,0.345464805,-0.3598503949999998,-1.180672345,0.20532145000000002,0.16549335499999998,0.02359836500000012,-0.9125142500000001,-31.500760125000003,2.6662906299999998,177.62468295000002,-0.663302893,-0.3128050765000001,0.4933197351,0.14270502280000003,0.17231059610000002,-0.18177010530999999
03:40:01,0.34427571,-0.37279068999999976,-1.17745759,0.20280189999999998,0.16458781,0.028989030000000082,-0.9051655000000001,-31.50456975,2.7155118599999986,177.6682749,-0.660782646,-0.326046383,0.4937059122,0.14540386160000002,0.17105683420000004,-0.18294566082
03:40:01,0.34308661500000004,-0.3857309849999997,-1.1742428349999998,0.20028235,0.163682265,0.03437969500000004,-0.89781675,-31.508379375,2.764733089999999,177.71186685,-0.658262399,-0.3392876895000003,0.4940920893,0.1481027004,0.16980307230000002,-0.18412121633
03:40:01,0.34189752,-0.3986712800000001,-1.17102808,0.19776280000000002,0.16277671999999999,0.039770360000000116,-0.890468,-31.512189000000003,2.8139543199999997,177.7554588,-0.655742152,-0.3525289960000002,0.4944782664,0.1508015392,0.1685493104,-0.18529677183999999
03:40:01,0.340708425,-0.411611575,-1.167813325,0.19524324999999998,0.161871175,0.04516102500000008,-0.88311925,-31.515998625,2.8631755499999985,177.79905075000002,-0.6532219050000001,-0.3657703025000001,0.4948644435,0.153500378,0.16729554850000003,-0.18647232735
03:40:01,0.33951933,-0.42455186999999994,-1.1645985699999999,0.1927237,0.16096563,0.05055169000000015,-0.8757705,-31.51980825,2.912396779999999,177.8426427,-0.650701658,-0.37901160899999997,0.49525062059999997,0.15619921680000004,0.16604178660000002,-0.18764788286
03:40:01,0.33833023500000003,-0.4374921649999999,-1.161383815,0.19020415000000002,0.160060085,0.05594235500000011,-0.86842175,-31.523617875000003,2.9616180099999996,177.88623465,-0.648181411,-0.3922529155000003,0.49563679769999996,0.15889805560000003,0.16478802470000004,-0.18882343836999999
03:40:01,0.33714114,-0.4504324599999998,-1.15816906,0.18768459999999998,0.15915453999999998,0.06133302000000007,-0.861073,-31.5274275,3.01083924,177.9298266,-0.6456611640000001,-0.4054942220000002,0.49602297479999996,0.16159689440000002,0.16353426280000002,-0.18999899388
03:40:01,0.335952045,-0.46337275499999975,-1.154954305,0.18516505,0.158248995,0.06672368500000003,-0.85372425,-31.531237125,3.060060469999999,177.97341855000002,-0.643140917,-0.41873552850000006,0.49640915189999996,0.16429573320000002,0.1622805009,-0.19117454939
03:40:01,0.33476295,-0.4763130499999997,-1.1517395499999998,0.18264550000000002,0.15734345,0.07211435,-0.8463755,-31.535046750000003,3.1092816999999995,178.0170105,-0.64062067,-0.43197683499999995,0.49679532899999995,0.166994572,0.16102673900000003,-0.19235010489999999
03:40:01,0.33357385500000003,-0.48925334500000006,-1.148524795,0.18012594999999998,0.156437905,0.07750501500000018,-0.8390267499999999,-31.538856375,3.15850293,178.06060245,-0.638100423,-0.4452181415000003,0.4971815061,0.1696934108,0.15977297710000002,-0.19352566041
03:40:01,0.33238476,-0.50219364,-1.14531004,0.1776064,0.15553235999999998,0.08289568000000014,-0.8316780000000001,-31.542666,3.207724159999999,178.1041944,-0.635580176,-0.45845944800000016,0.4975676832,0.1723922496,0.1585192152,-0.19470121592
03:40:01,0.331195665,-0.5151339349999999,-1.142095285,0.17508685000000002,0.154626815,0.0882863450000001,-0.8243292500000001,-31.546475625000003,3.2569453899999994,178.14778635000002,-0.6330599290000001,-0.47170075450000004,0.4979538603,0.17509108839999998,0.15726545330000002,-0.19587677142999999
03:40:01,0.33000657,-0.5280742299999999,-1.1388805299999998,0.17256729999999998,0.15372127,0.09367701000000006,-0.8169805000000001,-31.55028525,3.30616662,178.1913783,-0.630539682,-0.48494206100000037,0.4983400374,0.17778992719999998,0.1560116914,-0.19705232694
03:40:01,0.328817475,-0.5410145249999998,-1.135665775,0.17004775,0.15281572499999999,0.09906767500000002,-0.8096317500000001,-31.554094875,3.3553878499999987,178.23497025,-0.628019435,-0.49818336750000025,0.4987262145,0.18048876599999997,0.15475792950000003,-0.19822788244999998
03:40:01,0.32762838,-0.5539548199999997,-1.13245102,0.16752820000000002,0.15191018,0.10445833999999998,-0.8022830000000001,-31.557904500000003,3.4046090799999993,178.2785622,-0.625499188,-0.5114246740000001,0.4991123916,0.18318760480000007,0.15350416760000002,-0.19940343795999999
03:40:01,0.32643928499999997,-0.5668951149999997,-1.1292362649999999,0.16500864999999998,0.151004635,0.10984900500000017,-0.7949342500000001,-31.561714125,3.45383031,178.32215415000002,-0.622978941,-0.5246659805,0.4994985687,0.18588644360000006,0.1522504057,-0.20057899347
03:40:01,0.32525019,-0.57983541,-1.12602151,0.1624891,0.15009909,0.11523967000000013,-0.7875855,-31.56552375,3.5030515399999986,178.36574610000002,-0.6204586940000001,-0.5379072870000003,0.4998847458,0.18858528240000005,0.15099664380000002,-0.20175454897999998
03:40:01,0.324061095,-0.592775705,-1.122806755,0.15996955000000002,0.14919354499999998,0.12063033500000009,-0.78023675,-31.569333375000003,3.552272769999999,178.40933805,-0.617938447,-0.5511485935000002,0.5002709229,0.19128412120000005,0.1497428819,-0.20293010448999999
03:40:02,0.322872,-0.605716,-1.119592,0.15745,0.148288,0.126021,-0.772888,-31.573143,3.601494,178.45293,-0.6154182,-0.5643899,0.5006571,0.19398296,0.14848912,-0.20410566
03:40:02,0.311418965,-0.596548395,-1.1168425549999998,0.15888822,0.14697762,0.12483846,-0.762834365,-31.575240475,3.603740515,176.69537055,-0.6225898990000001,-0.5576810835,0.5079874555,0.19423655080000002,0.147992507425,-0.2044828101
03:40:02,0.29996593,-0.58738079,-1.11409311,0.16032644000000001,0.14566724,0.12365591999999999,-0.75278073,-31.57733795,3.60598703,174.9378111,-0.629761598,-0.550972267,0.515317811,0.1944901416,0.14749589485,-0.2048599602
03:40:02,0.288512895,-0.5782131850000001,-1.111343665,0.16176466,0.14435686,0.12247337999999999,-0.742727095,-31.579435425000003,3.608233545,173.18025165,-0.636933297,-0.5442634505,0.5226481665,0.1947437324,0.146999282275,-0.2052371103
03:40:02,0.27705986,-0.56904558,-1.1085942199999999,0.16320288,0.14304648,0.12129084,-0.73267346,-31.581532900000003,3.61048006,171.4226922,-0.644104996,-0.537554634,0.529978522,0.19499732320000002,0.1465026697,-0.2056142604
03:40:02,0.265606825,-0.559877975,-1.105844775,0.1646411,0.1417361,0.1201083,-0.722619825,-31.583630375000002,3.6127265750000004,169.66513275,-0.6512766950000001,-0.5308458175,0.5373088775,0.195250914,0.146006057125,-0.2059914105
03:40:02,0.25415379,-0.55071037,-1.10309533,0.16607932,0.14042572,0.11892575999999999,-0.71256619,-31.58572785,3.6149730900000003,167.90757330000002,-0.658448394,-0.524137001,0.544639233,0.1955045048,0.14550944455,-0.2063685606
03:40:02,0.242700755,-0.541542765,-1.1003458849999999,0.16751754000000002,0.13911534,0.11774322,-0.702512555,-31.587825325,3.6172196050000003,166.15001385000002,-0.665620093,-0.5174281844999999,0.5519695885,0.19575809560000001,0.145012831975,-0.2067457107
03:40:02,0.23124772,-0.5323751600000001,-1.09759644,0.16895576,0.13780496,0.11656068,-0.69245892,-31.5899228,3.6194661200000002,164.39245440000002,-0.672791792,-0.510719368,0.5592999439999999,0.1960116864,0.1445162194,-0.2071228608
03:40:02,0.219794685,-0.523207555,-1.094846995,0.17039398,0.13649458,0.11537813999999999,-0.682405285,-31.592020275000003,3.621712635,162.63489495000002,-0.6799634910000001,-0.5040105515,0.5666302995,0.1962652772,0.144019606825,-0.2075000109
03:40:02,0.20834165,-0.51403995,-1.0920975499999999,0.17183220000000002,0.1351842,0.1141956,-0.67235165,-31.594117750000002,3.62395915,160.87733550000002,-0.68713519,-0.49730173499999997,0.5739606549999999,0.196518868,0.14352299425,-0.207877161
03:40:02,0.196888615,-0.504872345,-1.089348105,0.17327042,0.13387382,0.11301306,-0.662298015,-31.596215225,3.626205665,159.11977605,-0.694306889,-0.4905929185,0.5812910105,0.19677245880000002,0.143026381675,-0.2082543111
03:40:02,0.18543558,-0.49570474000000003,-1.08659866,0.17470864,0.13256344,0.11183051999999999,-0.65224438,-31.5983127,3.62845218,157.3622166,-0.7014785880000001,-0.483884102,0.5886213659999999,0.1970260496,0.1425297691,-0.2086314612
03:40:02,0.173982545,-0.486537135,-1.0838492149999999,0.17614686000000002,0.13125306,0.11064797999999999,-0.642190745,-31.600410175,3.6306986950000004,155.60465715,-0.708650287,-0.4771752855,0.5959517215,0.1972796404,0.142033156525,-0.2090086113
03:40:02,0.16252951,-0.47736953000000004,-1.08109977,0.17758508,0.12994268,0.10946544,-0.6321371100000001,-31.602507650000003,3.6329452100000004,153.8470977,-0.715821986,-0.470466469,0.603282077,0.19753323120000002,0.14153654395,-0.20938576139999998
03:40:02,0.151076475,-0.468201925,-1.078350325,0.1790233,0.1286323,0.10828289999999999,-0.622083475,-31.604605125000003,3.6351917250000003,152.08953825,-0.722993685,-0.4637576525,0.6106124325,0.197786822,0.141039931375,-0.20976291149999998
03:40:02,0.13962344,-0.45903432,-1.0756008799999999,0.18046152000000001,0.12732192,0.10710035999999999,-0.61202984,-31.606702600000002,3.6374382400000003,150.3319788,-0.730165384,-0.457048836,0.6179427879999999,0.1980404128,0.1405433188,-0.21014006159999998
03:40:02,0.128170405,-0.44986671500000003,-1.072851435,0.18189974,0.12601154,0.10591782,-0.601976205,-31.608800075,3.639684755,148.57441935,-0.737337083,-0.4503400195,0.6252731435,0.19829400360000002,0.140046706225,-0.21051721169999998
03:40:02,0.11671736999999999,-0.44069911000000006,-1.07010199,0.18333796000000002,0.12470116,0.10473528,-0.59192257,-31.61089755,3.64193127,146.8168599,-0.744508782,-0.44363120300000003,0.632603499,0.1985475944,0.13955009365,-0.21089436179999999
03:40:02,0.10526433499999999,-0.43153150500000004,-1.0673525449999999,0.18477618,0.12339078,0.10355273999999999,-0.581868935,-31.612995025,3.644177785,145.05930045000002,-0.7516804810000001,-0.43692238650000004,0.6399338545,0.1988011852,0.139053481075,-0.2112715119
03:40:02,0.09381129999999999,-0.4223639,-1.0646031,0.1862144,0.1220804,0.1023702,-0.5718153,-31.615092500000003,3.6464243,143.301741,-0.7588521800000001,-0.43021357,0.6472642099999999,0.19905477600000002,0.1385568685,-0.211648662
03:40:02,0.08235826499999999,-0.413196295,-1.061853655,0.18765262,0.12077002,0.10118766,-0.561761665,-31.617189975000002,3.648670815,141.54418155000002,-0.766023879,-0.4235047535,0.6545945655,0.1993083668,0.138060255925,-0.2120258121
03:40:02,0.07090522999999999,-0.40402869,-1.0591042099999999,0.18909084,0.11945964,0.10000512,-0.55170803,-31.61928745,3.6509173300000004,139.78662210000002,-0.773195578,-0.416795937,0.661924921,0.1995619576,0.13756364335000001,-0.2124029622
03:40:02,0.059452194999999985,-0.39486108500000006,-1.056354765,0.19052906,0.11814926,0.09882258,-0.541654395,-31.621384925,3.6531638450000004,138.02906265000001,-0.7803672770000001,-0.4100871205,0.6692552764999999,0.19981554840000001,0.13706703077500001,-0.2127801123
03:40:02,0.047999159999999985,-0.38569348000000003,-1.05360532,0.19196728000000002,0.11683888,0.09764004,-0.53160076,-31.6234824,3.6554103600000003,136.2715032,-0.787538976,-0.40337830399999997,0.676585632,0.2000691392,0.1365704182,-0.2131572624
03:40:02,0.036546124999999985,-0.376525875,-1.0508558749999999,0.1934055,0.1155285,0.0964575,-0.521547125,-31.625579875000003,3.6576568750000003,134.51394375,-0.794710675,-0.3966694875,0.6839159874999999,0.20032273,0.136073805625,-0.2135344125
03:40:02,0.025093089999999985,-0.36735827,-1.0481064299999998,0.19484372,0.11421812,0.09527495999999999,-0.51149349,-31.627677350000003,3.65990339,132.7563843,-0.8018823740000001,-0.389960671,0.691246343,0.2005763208,0.13557719305,-0.2139115626
03:40:02,0.013640054999999984,-0.358190665,-1.045356985,0.19628194000000002,0.11290774,0.09409242,-0.5014398550000001,-31.629774825000002,3.662149905,130.99882485,-0.809054073,-0.3832518545,0.6985766984999999,0.20082991160000002,0.135080580475,-0.2142887127
03:40:02,0.002187019999999984,-0.34902306,-1.0426075399999999,0.19772016,0.11159736,0.09290988,-0.49138622000000004,-31.6318723,3.66439642,129.2412654,-0.816225772,-0.376543038,0.705907054,0.2010835024,0.1345839679,-0.2146658628
03:40:02,-0.009266015000000016,-0.33985545500000003,-1.039858095,0.19915838000000002,0.11028698,0.09172733999999999,-0.48133258500000003,-31.633969775,3.666642935,127.48370595,-0.823397471,-0.3698342215,0.7132374095,0.2013370932,0.134087355325,-0.2150430129
03:40:02,-0.020719050000000017,-0.33068785,-1.03710865,0.2005966,0.1089766,0.0905448,-0.47127895000000003,-31.63606725,3.66888945,125.7261465,-0.83056917,-0.363125405,0.720567765,0.20159068400000002,0.13359074275,-0.215420163
03:40:02,-0.03217208500000002,-0.32152024500000004,-1.034359205,0.20203482,0.10766622,0.08936226,-0.461225315,-31.638164725000003,3.6711359650000004,123.96858705000001,-0.837740869,-0.3564165885,0.7278981204999999,0.2018442748,0.133094130175,-0.2157973131
03:40:02,-0.04362512000000002,-0.31235264,-1.0316097599999998,0.20347304,0.10635584000000001,0.08817971999999999,-0.45117168,-31.640262200000002,3.6733824800000003,122.21102760000001,-0.844912568,-0.34970777200000003,0.735228476,0.2020978656,0.1325975176,-0.2161744632
03:40:02,-0.05507815500000002,-0.303185035,-1.028860315,0.20491126,0.10504546000000001,0.08699718,-0.441118045,-31.642359675,3.6756289950000003,120.45346815,-0.8520842670000001,-0.34299895550000004,0.7425588315,0.20235145640000002,0.132100905025,-0.2165516133
03:40:02,-0.06653119000000002,-0.29401743,-1.02611087,0.20634948,0.10373508000000001,0.08581464,-0.43106441,-31.64445715,3.6778755100000002,118.69590870000002,-0.8592559660000001,-0.336290139,0.749889187,0.2026050472,0.13160429245,-0.2169287634
03:40:02,-0.07798422500000002,-0.284849825,-1.023361425,0.20778770000000002,0.10242470000000001,0.08463209999999999,-0.421010775,-31.646554625,3.680122025,116.93834925000002,-0.866427665,-0.3295813225,0.7572195424999999,0.202858638,0.131107679875,-0.2173059135
03:40:02,-0.08943726000000002,-0.27568222000000003,-1.02061198,0.20922592,0.10111432000000001,0.08344956,-0.41095714,-31.6486521,3.68236854,115.18078980000001,-0.873599364,-0.322872506,0.764549898,0.20311222880000002,0.1306110673,-0.2176830636
03:40:02,-0.10089029500000002,-0.266514615,-1.017862535,0.21066414,0.09980394000000001,0.08226702,-0.400903505,-31.650749575000003,3.684615055,113.42323035000001,-0.8807710630000001,-0.3161636895,0.7718802535,0.2033658196,0.130114454725,-0.2180602137
03:40:02,-0.11234333000000002,-0.25734701,-1.0151130899999998,0.21210236000000002,0.09849356000000001,0.08108447999999999,-0.39084987000000004,-31.652847050000002,3.68686157,111.66567090000001,-0.887942762,-0.309454873,0.7792106089999999,0.2036194104,0.12961784215,-0.2184373638
03:40:02,-0.12379636500000002,-0.24817940500000002,-1.012363645,0.21354058,0.09718318000000001,0.07990194,-0.38079623500000004,-31.654944525,3.689108085,109.90811145,-0.895114461,-0.3027460565,0.7865409644999999,0.20387300120000001,0.129121229575,-0.2188145139
03:40:02,-0.13524940000000002,-0.2390118,-1.0096142,0.21497880000000003,0.09587280000000001,0.0787194,-0.37074260000000003,-31.657042,3.6913546000000004,108.150552,-0.9022861600000001,-0.29603724,0.7938713199999999,0.204126592,0.128624617,-0.219191664
03:40:02,-0.14670243500000002,-0.22984419500000003,-1.0068647549999998,0.21641702000000002,0.09456242000000001,0.07753686,-0.36068896500000003,-31.659139475,3.6936011150000003,106.39299255,-0.909457859,-0.2893284235,0.8012016755,0.2043801828,0.128128004425,-0.2195688141
03:40:02,-0.15815547000000002,-0.22067659,-1.00411531,0.21785524,0.09325204000000001,0.07635432,-0.35063533,-31.661236950000003,3.6958476300000003,104.63543310000001,-0.916629558,-0.282619607,0.8085320309999999,0.2046337736,0.12763139185,-0.2199459642
03:40:02,-0.16960850500000002,-0.21150898499999998,-1.001365865,0.21929346,0.09194166000000001,0.07517178,-0.340581695,-31.663334425000002,3.698094145,102.87787365000001,-0.923801257,-0.2759107905,0.8158623865,0.2048873644,0.127134779275,-0.2203231143
03:40:02,-0.18106154000000002,-0.20234138000000002,-0.99861642,0.22073168,0.09063128000000001,0.07398924,-0.33052806,-31.6654319,3.70034066,101.12031420000001,-0.930972956,-0.269201974,0.823192742,0.2051409552,0.1266381667,-0.2207002644
03:40:02,-0.19251457499999997,-0.193173775,-0.995866975,0.2221699,0.08932090000000001,0.0728067,-0.320474425,-31.667529375,3.702587175,99.36275475000001,-0.9381446550000001,-0.2624931575,0.8305230975,0.205394546,0.126141554125,-0.22107741449999999
03:40:02,-0.20396761000000002,-0.18400617000000002,-0.9931175299999999,0.22360812000000002,0.08801052000000001,0.07162415999999999,-0.31042079,-31.66962685,3.70483369,97.6051953,-0.945316354,-0.255784341,0.8378534529999999,0.20564813680000002,0.12564494155,-0.2214545646
03:40:02,-0.21542064500000008,-0.174838565,-0.990368085,0.22504634,0.08670014000000001,0.07044162,-0.300367155,-31.671724325,3.707080205,95.84763585,-0.9524880530000001,-0.24907552449999998,0.8451838085,0.2059017276,0.125148328975,-0.2218317147
03:40:02,-0.22687368000000002,-0.16567096000000003,-0.98761864,0.22648456,0.08538976000000001,0.06925908,-0.29031352,-31.673821800000002,3.7093267200000004,94.09007640000002,-0.9596597520000001,-0.242366708,0.852514164,0.2061553184,0.1246517164,-0.2222088648
03:40:02,-0.23832671499999997,-0.156503355,-0.9848691949999999,0.22792278,0.08407938000000001,0.06807653999999999,-0.28025988500000004,-31.675919275000002,3.7115732350000004,92.33251695000001,-0.966831451,-0.2356578915,0.8598445195,0.20640890920000002,0.124155103825,-0.2225860149
03:40:02,-0.24977975000000002,-0.14733575,-0.98211975,0.229361,0.08276900000000001,0.066894,-0.27020625,-31.67801675,3.7138197500000003,90.57495750000001,-0.97400315,-0.228949075,0.8671748749999999,0.2066625,0.12365849125,-0.222963165
03:40:02,-0.2612327850000001,-0.13816814500000002,-0.979370305,0.23079922000000003,0.08145862000000001,0.06571146,-0.260152615,-31.680114225,3.7160662650000003,88.81739805000001,-0.9811748490000001,-0.2222402585,0.8745052305,0.2069160908,0.123161878675,-0.2233403151
03:40:02,-0.27268582,-0.12900054,-0.9766208599999999,0.23223744000000002,0.08014824000000001,0.06452891999999999,-0.25009897999999997,-31.6822117,3.71831278,87.0598386,-0.988346548,-0.21553144200000002,0.881835586,0.20716968160000002,0.1226652661,-0.2237174652
03:40:02,-0.28413885499999997,-0.11983293500000003,-0.973871415,0.23367566,0.07883786000000001,0.06334638,-0.24004534499999997,-31.684309175000003,3.720559295,85.30227915,-0.995518247,-0.20882262550000003,0.8891659415,0.2074232724,0.122168653525,-0.2240946153
03:40:02,-0.29559189,-0.11066533,-0.97112197,0.23511388,0.07752748000000001,0.06216384,-0.22999171000000007,-31.686406650000002,3.72280581,83.5447197,-1.002689946,-0.20211380899999998,0.8964962969999999,0.2076768632,0.12167204095,-0.2244717654
03:40:02,-0.3070449250000001,-0.10149772499999998,-0.9683725249999999,0.23655210000000002,0.07621710000000001,0.0609813,-0.21993807500000007,-31.688504125,3.725052325,81.78716025000001,-1.009861645,-0.19540499249999999,0.9038266524999999,0.20793045400000001,0.121175428375,-0.2248489155
03:40:02,-0.31849796,-0.09233011999999996,-0.96562308,0.23799032,0.07490672000000001,0.05979875999999999,-0.20988444000000006,-31.6906016,3.72729884,80.02960080000001,-1.0170333440000001,-0.188696176,0.911157008,0.2081840448,0.1206788158,-0.2252260656
03:40:02,-0.32995099499999997,-0.08316251500000005,-0.962873635,0.23942854000000002,0.07359634000000001,0.05861622,-0.19983080500000006,-31.692699075,3.7295453550000004,78.27204135000001,-1.024205043,-0.1819873595,0.9184873634999999,0.2084376356,0.120182203225,-0.2256032157
03:40:02,-0.34140403,-0.07399491000000002,-0.9601241899999999,0.24086676,0.07228596000000001,0.05743368,-0.18977717000000005,-31.69479655,3.7317918700000003,76.5144819,-1.031376742,-0.175278543,0.925817719,0.2086912264,0.11968559065,-0.2259803658
03:40:02,-0.3528570650000001,-0.064827305,-0.957374745,0.24230498,0.07097558000000001,0.05625113999999999,-0.17972353500000005,-31.696894025000002,3.7340383850000003,74.75692245,-1.038548441,-0.16856972650000002,0.9331480745,0.2089448172,0.11918897807500001,-0.2263575159
03:40:02,-0.3643101,-0.05565969999999998,-0.9546253,0.2437432,0.06966520000000001,0.055068599999999995,-0.16966990000000004,-31.6989915,3.7362849000000002,72.999363,-1.04572014,-0.16186091000000002,0.94047843,0.209198408,0.11869236550000001,-0.226734666
03:40:02,-0.37576313499999997,-0.046492094999999956,-0.9518758549999999,0.24518142,0.06835482000000001,0.05388606,-0.15961626500000003,-31.701088975,3.738531415,71.24180355000001,-1.052891839,-0.15515209349999998,0.9478087854999999,0.2094519988,0.11819575292500001,-0.2271118161
03:40:02,-0.38721617,-0.03732449000000004,-0.94912641,0.24661964000000003,0.06704444000000001,0.052703520000000004,-0.14956263000000003,-31.70318645,3.74077793,69.48424410000001,-1.060063538,-0.14844327699999998,0.955139141,0.20970558960000002,0.11769914035000001,-0.2274889662
03:40:02,-0.3986692050000001,-0.02815688500000002,-0.9463769649999999,0.24805786000000002,0.06573406000000001,0.051520979999999994,-0.13950899500000002,-31.705283925,3.743024445,67.72668465000001,-1.067235237,-0.1417344605,0.9624694965,0.2099591804,0.11720252777500001,-0.2278661163
03:40:02,-0.41012224,-0.018989279999999997,-0.9436275199999999,0.24949608,0.06442368000000001,0.05033844,-0.12945536000000002,-31.707381400000003,3.74527096,65.96912520000001,-1.074406936,-0.135025644,0.969799852,0.2102127712,0.11670591520000001,-0.2282432664
03:40:02,-0.42157527499999997,-0.009821674999999974,-0.940878075,0.2509343,0.06311330000000001,0.0491559,-0.11940172500000001,-31.709478875000002,3.7475174750000004,64.21156575,-1.081578635,-0.1283168275,0.9771302074999999,0.21046636200000002,0.11620930262500001,-0.2286204165
03:40:02,-0.43302831,-0.0006540699999999511,-0.9381286299999999,0.25237252,0.06180292000000001,0.04797335999999999,-0.10934809000000001,-31.71157635,3.7497639900000004,62.4540063,-1.088750334,-0.12160801100000002,0.984460563,0.2107199528,0.11571269005000001,-0.2289975666
03:40:02,-0.4444813450000001,0.008513534999999961,-0.935379185,0.25381074000000003,0.06049254000000001,0.04679082,-0.099294455,-31.713673825,3.7520105050000003,60.69644685,-1.095922033,-0.11489919450000002,0.9917909185,0.2109735436,0.11521607747500001,-0.2293747167
03:40:02,-0.45593438000000003,0.017681139999999984,-0.9326297399999999,0.25524896,0.05918216000000001,0.04560828,-0.08924082,-31.7157713,3.7542570200000003,58.93888740000001,-1.103093732,-0.10819037799999998,0.999121274,0.21122713440000002,0.11471946490000001,-0.2297518668
03:40:02,-0.467387415,0.026848745000000007,-0.9298802949999999,0.25668718,0.05787178000000001,0.044425740000000005,-0.079187185,-31.717868775,3.7565035350000002,57.18132795000001,-1.110265431,-0.10148156149999998,1.0064516295,0.2114807252,0.11422285232500001,-0.2301290169
03:40:02,-0.47884045000000003,0.03601635000000003,-0.92713085,0.2581254,0.05656140000000001,0.043243199999999996,-0.06913354999999999,-31.719966250000002,3.75875005,55.42376850000001,-1.11743713,-0.09477274499999999,1.013781985,0.211734316,0.11372623975000001,-0.23050616699999998
03:40:02,-0.4902934850000001,0.04518395500000005,-0.9243814049999999,0.25956362,0.05525102000000001,0.04206066,-0.05907991499999998,-31.722063725,3.760996565,53.666209050000006,-1.124608829,-0.0880639285,1.0211123405,0.21198790680000001,0.113229627175,-0.23088331709999999
03:40:02,-0.50174652,0.054351559999999965,-0.9216319599999999,0.26100184000000004,0.05394064000000001,0.040878120000000004,-0.04902627999999998,-31.7241612,3.76324308,51.908649600000004,-1.1317805280000002,-0.08135511200000001,1.028442696,0.2122414976,0.1127330146,-0.2312604672
03:40:02,-0.5131995549999999,0.06351916499999999,-0.918882515,0.26244006,0.05263026000000001,0.039695579999999994,-0.03897264499999997,-31.726258675,3.765489595,50.151090150000016,-1.1389522269999999,-0.07464629550000002,1.0357730515,0.2124950884,0.112236402025,-0.2316376173
03:40:02,-0.5246525900000001,0.07268677000000001,-0.9161330699999999,0.26387828,0.05131988000000001,0.03851304,-0.028919009999999967,-31.72835615,3.7677361100000004,48.393530700000014,-1.146123926,-0.06793747900000002,1.0431034069999998,0.2127486792,0.11173978945,-0.2320147674
03:40:02,-0.536105625,0.08185437500000003,-0.9133836249999999,0.2653165,0.05000950000000001,0.0373305,-0.018865375000000073,-31.730453625000003,3.7699826250000004,46.63597125000001,-1.1532956250000002,-0.06122866250000003,1.0504337625,0.21300227,0.111243176875,-0.2323919175
03:40:02,-0.54755866,0.09102198000000006,-0.91063418,0.26675472,0.04869912000000001,0.03614795999999999,-0.008811740000000068,-31.732551100000002,3.7722291400000003,44.87841180000001,-1.160467324,-0.05451984600000004,1.057764118,0.2132558608,0.1107465643,-0.2327690676
03:40:02,-0.5590116949999999,0.10018958499999997,-0.9078847349999999,0.26819294,0.04738874000000001,0.03496542,0.0012418949999999374,-31.734648575,3.7744756550000003,43.12085235000001,-1.167639023,-0.047811029500000046,1.0650944734999999,0.2135094516,0.110249951725,-0.2331462177
03:40:02,-0.5704647300000001,0.10935718999999999,-0.9051352899999999,0.26963116,0.04607836000000001,0.03378288,0.011295529999999943,-31.73674605,3.77672217,41.363292900000005,-1.1748107220000001,-0.041102213000000054,1.072424829,0.2137630424,0.10975333915,-0.2335233678
03:40:02,-0.581917765,0.11852479500000002,-0.902385845,0.27106938,0.04476798000000001,0.032600340000000005,0.021349164999999948,-31.738843525,3.778968685,39.60573345,-1.181982421,-0.03439339649999995,1.0797551845,0.2140166332,0.109256726575,-0.2339005179
03:40:02,-0.5933708,0.12769240000000004,-0.8996363999999999,0.2725076,0.04345760000000001,0.031417799999999996,0.03140279999999995,-31.740941,3.7812152,37.848174,-1.18915412,-0.02768457999999996,1.08708554,0.214270224,0.108760114,-0.234277668
03:40:02,-0.6048238349999999,0.13686000500000006,-0.8968869549999999,0.27394582,0.04214722000000001,0.03023526,0.04145643499999996,-31.743038475000002,3.783461715,36.09061455,-1.1963258190000001,-0.020975763499999966,1.0944158955,0.2145238148,0.108263501425,-0.2346548181
03:40:02,-0.6162768700000001,0.14602760999999997,-0.89413751,0.27538404,0.04083684000000001,0.029052720000000004,0.05151006999999996,-31.74513595,3.78570823,34.333055099999996,-1.203497518,-0.014266946999999974,1.101746251,0.2147774056,0.10776688885,-0.2350319682
03:40:02,-0.627729905,0.155195215,-0.8913880649999999,0.27682226,0.03952646000000001,0.027870179999999994,0.06156370499999997,-31.747233425,3.7879547450000004,32.57549564999999,-1.210669217,-0.007558130499999982,1.1090766065,0.2150309964,0.107270276275,-0.2354091183
03:40:02,-0.63918294,0.16436282000000002,-0.8886386199999999,0.27826048000000003,0.03821608000000001,0.02668764,0.07161733999999997,-31.7493309,3.7902012600000003,30.81793620000002,-1.217840916,-0.0008493139999999899,1.1164069620000001,0.21528458720000002,0.1067736637,-0.2357862684
03:40:02,-0.6506359749999999,0.17353042500000004,-0.885889175,0.2796987,0.036905700000000013,0.025505100000000003,0.08167097499999998,-31.751428375,3.7924477750000003,29.060376750000017,-1.225012615,0.005859502500000002,1.1237373174999998,0.215538178,0.106277051125,-0.2361634185
03:40:02,-0.6620890100000001,0.18269803000000007,-0.8831397299999999,0.28113692,0.035595320000000014,0.024322559999999993,0.09172460999999998,-31.75352585,3.7946942900000002,27.302817300000015,-1.232184314,0.012568318999999994,1.131067673,0.2157917688,0.10578043855,-0.2365405686
03:40:02,-0.673542045,0.19186563499999998,-0.8803902849999999,0.28257514,0.034284940000000014,0.023140019999999997,0.10177824499999999,-31.755623325000002,3.796940805,25.545257850000013,-1.239356013,0.019277135499999987,1.1383980285,0.21604535960000001,0.105283825975,-0.2369177187
03:40:02,-0.68499508,0.20103324,-0.87764084,0.28401336,0.032974560000000014,0.02195748,0.11183188,-31.7577208,3.79918732,23.78769840000001,-1.246527712,0.02598595199999998,1.1457283839999999,0.2162989504,0.1047872134,-0.2372948688
03:40:02,-0.6964481149999999,0.21020084500000003,-0.8748913949999999,0.28545158000000004,0.031664180000000014,0.020774940000000006,0.121885515,-31.759818275,3.801433835,22.03013895000001,-1.253699411,0.03269476849999997,1.1530587395,0.2165525412,0.104290600825,-0.2376720189
03:40:02,-0.7079011499999999,0.21936845000000005,-0.8721419499999999,0.2868898,0.030353800000000014,0.019592399999999996,0.13193915,-31.76191575,3.80368035,20.272579500000006,-1.26087111,0.03940358499999996,1.160389095,0.216806132,0.10379398825,-0.238049169
03:40:02,-0.719354185,0.22853605500000007,-0.869392505,0.28832802,0.029043420000000014,0.01840986,0.141992785,-31.764013225,3.805926865,18.515020050000004,-1.268042809,0.046112401499999955,1.1677194505,0.2170597228,0.103297375675,-0.2384263191
03:40:02,-0.73080722,0.23770365999999998,-0.8666430599999999,0.28976624,0.027733040000000014,0.017227320000000004,0.15204642000000002,-31.766110700000002,3.8081733800000004,16.7574606,-1.275214508,0.05282121799999995,1.175049806,0.2173133136,0.1028007631,-0.2388034692
03:40:02,-0.7422602549999999,0.246871265,-0.863893615,0.29120446,0.026422660000000014,0.016044779999999995,0.16210005500000002,-31.768208175,3.8104198950000003,14.99990115,-1.282386207,0.05953003450000005,1.1823801614999998,0.2175669044,0.102304150525,-0.2391806193
03:40:02,-0.7537132900000001,0.25603887000000003,-0.86114417,0.29264268000000004,0.025112280000000015,0.014862239999999999,0.17215369000000003,-31.77030565,3.8126664100000003,13.242341699999997,-1.2895579060000002,0.06623885100000004,1.189710517,0.21782049520000002,0.10180753795,-0.2395577694
03:40:02,-0.765166325,0.26520647500000005,-0.8583947249999999,0.2940809,0.023801900000000015,0.013679700000000003,0.18220732500000003,-31.772403125,3.8149129250000002,11.484782249999995,-1.296729605,0.07294766750000004,1.1970408725,0.218074086,0.101310925375,-0.2399349195
03:40:02,-0.77661936,0.27437407999999996,-0.85564528,0.29551912,0.022491520000000015,0.012497160000000007,0.19226096000000004,-31.7745006,3.81715944,9.727222800000021,-1.303901304,0.07965648400000003,1.2043712279999998,0.2183276768,0.1008143128,-0.2403120696
03:40:02,-0.7880723949999999,0.283541685,-0.852895835,0.29695734,0.021181140000000015,0.011314619999999997,0.20231459499999993,-31.776598075,3.819405955,7.969663350000019,-1.3110730030000002,0.08636530050000002,1.2117015835,0.21858126760000002,0.100317700225,-0.2406892197
03:40:02,-0.7995254299999999,0.29270929,-0.8501463899999999,0.29839556,0.019870760000000015,0.010132080000000002,0.21236822999999994,-31.778695550000002,3.82165247,6.212103900000017,-1.3182447019999999,0.09307411700000001,1.219031939,0.2188348584,0.09982108765,-0.2410663698
03:40:02,-0.810978465,0.30187689500000003,-0.847396945,0.29983378000000005,0.018560380000000015,0.008949540000000006,0.22242186499999994,-31.780793025,3.823898985,4.454544450000014,-1.325416401,0.0997829335,1.2263622945,0.2190884492,0.099324475075,-0.24144351990000001
03:40:02,-0.8224315,0.31104450000000006,-0.8446475,0.301272,0.017250000000000015,0.007766999999999996,0.23247550000000006,-31.7828905,3.8261455,2.696985000000012,-1.3325881000000002,0.10649175,1.23369265,0.21934204000000002,0.0988278625,-0.24182067000000002
03:40:02,-0.8338845349999999,0.32021210499999997,-0.8418980549999999,0.30271022000000003,0.015939620000000015,0.00658446,0.24252913500000006,-31.784987975,3.8283920150000004,0.9394255500000099,-1.339759799,0.11320056649999999,1.2410230055,0.2195956308,0.098331249925,-0.24219782010000002
03:40:02,-0.8453375700000001,0.32937971,-0.83914861,0.30414844,0.014629240000000016,0.0054019200000000045,0.25258277000000007,-31.78708545,3.8306385300000003,-0.8181338999999923,-1.346931498,0.11990938299999998,1.248353361,0.2198492216,0.09783463735,-0.24257497020000002
03:40:02,-0.856790605,0.338547315,-0.836399165,0.30558666,0.013318860000000016,0.004219379999999995,0.2626364050000001,-31.789182925000002,3.8328850450000003,-2.5756933499999946,-1.3541031970000001,0.12661819949999997,1.2556837165,0.22010281240000001,0.097338024775,-0.24295212030000002
03:40:02,-0.86824364,0.34771492000000004,-0.8336497199999999,0.30702488,0.012008480000000016,0.003036839999999999,0.2726900400000001,-31.7912804,3.83513156,-4.333252799999997,-1.361274896,0.13332701599999996,1.2630140719999998,0.2203564032,0.0968414122,-0.2433292704
03:40:02,-0.8796966749999999,0.35688252500000006,-0.830900275,0.3084631,0.010698100000000016,0.0018543000000000032,0.2827436750000001,-31.793377875,3.837378075,-6.090812249999999,-1.368446595,0.14003583249999996,1.2703444275,0.220609994,0.096344799625,-0.2437064205
03:40:02,-0.8911497099999999,0.36605013,-0.82815083,0.30990132000000004,0.009387720000000016,0.0006717599999999935,0.2927973100000001,-31.79547535,3.83962459,-7.848371700000001,-1.3756182940000001,0.14674464899999995,1.277674783,0.2208635848,0.09584818705,-0.2440835706
03:40:02,-0.902602745,0.375217735,-0.8254013849999999,0.31133953999999997,0.008077340000000016,-0.0005107799999999885,0.30285094499999987,-31.797572825,3.841871105,-9.605931150000004,-1.382789993,0.15345346550000005,1.2850051384999999,0.2211171756,0.095351574475,-0.2444607207
03:40:02,-0.91405578,0.38438534,-0.82265194,0.31277776,0.006766960000000016,-0.0016933199999999982,0.3129045799999999,-31.7996703,3.84411762,-11.363490600000006,-1.389961692,0.16016228200000004,1.292335494,0.2213707664,0.0948549619,-0.2448378708
03:40:02,-0.9255088149999999,0.39355294500000004,-0.819902495,0.31421598,0.005456580000000016,-0.002875860000000008,0.3229582149999999,-31.801767775000002,3.8463641350000004,-13.12105004999998,-1.3971333910000001,0.16687109850000004,1.2996658495,0.2216243572,0.09435834932500001,-0.2452150209
03:40:02,-0.9369618500000001,0.40272055000000007,-0.8171530499999999,0.3156542,0.0041462000000000165,-0.00405839999999999,0.3330118499999999,-31.80386525,3.8486106500000004,-14.878609499999982,-1.40430509,0.17357991500000003,1.306996205,0.221877948,0.09386173675000001,-0.245592171
03:40:02,-0.948414885,0.4118881550000001,-0.814403605,0.31709242000000004,0.0028358200000000167,-0.0052409399999999995,0.3430654849999999,-31.805962725,3.8508571650000003,-16.636168949999984,-1.411476789,0.18028873150000002,1.3143265605,0.2221315388,0.09336512417500001,-0.2459693211
03:40:02,-0.95986792,0.4210557600000001,-0.81165416,0.31853064,0.0015254400000000168,-0.006423480000000009,0.3531191199999999,-31.8080602,3.8531036800000003,-18.393728399999986,-1.418648488,0.186997548,1.321656916,0.2223851296,0.09286851160000001,-0.2463464712
03:40:02,-0.9713209549999999,0.43022336500000014,-0.8089047149999999,0.31996886,0.0002150600000000169,-0.007606019999999991,0.3631727549999999,-31.810157675,3.855350195,-20.15128784999999,-1.425820187,0.1937063645,1.3289872715,0.2226387204,0.09237189902500001,-0.2467236213
03:40:02,-0.9827739899999999,0.43939096999999994,-0.80615527,0.32140708,-0.001095319999999983,-0.00878856,0.3732263899999999,-31.812255150000002,3.85759671,-21.90884729999999,-1.432991886,0.200415181,1.3363176270000001,0.2228923112,0.09187528645000001,-0.2471007714
03:40:02,-0.994227025,0.44855857499999996,-0.803405825,0.3228453,-0.002405699999999983,-0.00997110000000001,0.3832800249999999,-31.814352625,3.859843225,-23.666406749999993,-1.440163585,0.2071239975,1.3436479824999998,0.223145902,0.09137867387500001,-0.2474779215
03:40:02,-1.00568006,0.45772618,-0.80065638,0.32428352000000005,-0.0037160799999999827,-0.011153639999999992,0.3933336599999999,-31.8164501,3.86208974,-25.423966199999995,-1.447335284,0.21383281399999998,1.350978338,0.2233994928,0.09088206130000001,-0.2478550716
03:40:02,-1.017133095,0.466893785,-0.797906935,0.32572174,-0.005026459999999983,-0.012336180000000002,0.4033872949999999,-31.818547575,3.8643362550000004,-27.181525649999998,-1.454506983,0.22054163049999997,1.3583086935,0.2236530836,0.09038544872500001,-0.2482322217
03:40:02,-1.02858613,0.47606139000000003,-0.79515749,0.32715996,-0.0063368399999999825,-0.013518720000000012,0.41344092999999993,-31.82064505,3.8665827700000004,-28.9390851,-1.461678682,0.22725044699999997,1.3656390489999999,0.2239066744,0.08988883615000001,-0.2486093718
03:40:02,-1.040039165,0.48522899500000005,-0.792408045,0.32859818,-0.007647219999999982,-0.014701259999999994,0.42349456499999993,-31.822742525,3.8688292850000003,-30.696644550000002,-1.4688503810000002,0.23395926349999996,1.3729694045,0.22416026520000001,0.08939222357500001,-0.2489865219
03:40:02,-1.0514922,0.4943966000000001,-0.7896586,0.3300364,-0.008957599999999982,-0.015883800000000003,0.43354819999999994,-31.824840000000002,3.8710758000000003,-32.454204000000004,-1.47602208,0.24066807999999995,1.38029976,0.224413856,0.08889561100000001,-0.249363672
03:40:02,-1.062945235,0.5035642050000001,-0.786909155,0.33147462,-0.010267979999999982,-0.017066339999999985,0.44360183499999994,-31.826937475,3.8733223150000002,-34.21176345000001,-1.483193779,0.24737689650000005,1.3876301155,0.2246674468,0.08839899842500001,-0.2497408221
03:40:02,-1.0743982699999999,0.5127318100000001,-0.78415971,0.33291284,-0.011578359999999982,-0.018248879999999995,0.45365546999999995,-31.82903495,3.87556883,-35.96932289999998,-1.4903654780000002,0.25408571300000005,1.394960471,0.2249210376,0.08790238585,-0.2501179722
03:40:02,-1.085851305,0.5218994150000001,-0.7814102649999999,0.33435106000000003,-0.012888739999999982,-0.019431420000000005,0.46370910499999995,-31.831132425,3.877815345,-37.72688234999998,-1.4975371769999999,0.26079452950000004,1.4022908264999998,0.2251746284,0.087405773275,-0.2504951223
03:40:02,-1.09730434,0.53106702,-0.77866082,0.33578928,-0.014199119999999982,-0.020613959999999987,0.47376273999999996,-31.8332299,3.88006186,-39.484441799999985,-1.504708876,0.26750334600000003,1.409621182,0.2254282192,0.0869091607,-0.2508722724
03:40:02,-1.108757375,0.540234625,-0.775911375,0.3372275,-0.015509499999999982,-0.021796499999999996,0.48381637499999997,-31.835327375,3.882308375,-41.24200124999999,-1.5118805750000002,0.2742121625,1.4169515375,0.22568181,0.086412548125,-0.2512494225
03:40:02,-1.12021041,0.54940223,-0.7731619299999999,0.33866572,-0.01681987999999998,-0.022979040000000006,0.49387000999999997,-31.83742485,3.8845548900000004,-42.99956069999999,-1.519052274,0.280920979,1.4242818929999999,0.22593540080000002,0.08591593555,-0.2516265726
03:40:02,-1.131663445,0.558569835,-0.770412485,0.34010394,-0.01813025999999998,-0.024161579999999988,0.503923645,-31.839522325,3.8868014050000004,-44.75712014999999,-1.526223973,0.2876297955,1.4316122485,0.2261889916,0.085419322975,-0.2520037227
03:40:02,-1.14311648,0.56773744,-0.76766304,0.34154216000000004,-0.01944063999999998,-0.025344119999999998,0.51397728,-31.8416198,3.8890479200000003,-46.514679599999994,-1.5333956720000002,0.294338612,1.438942604,0.2264425824,0.0849227104,-0.2523808728
03:40:02,-1.154569515,0.5769050450000001,-0.7649135949999999,0.34298038,-0.02075101999999998,-0.026526660000000007,0.524030915,-31.843717275,3.8912944350000003,-48.272239049999996,-1.540567371,0.3010474285,1.4462729595,0.22669617320000002,0.084426097825,-0.2527580229
03:40:02,-1.1660225499999999,0.5860726500000001,-0.76216415,0.3444186,-0.02206139999999998,-0.02770919999999999,0.53408455,-31.84581475,3.8935409500000002,-50.0297985,-1.54773907,0.307756245,1.453603315,0.226949764,0.08392948525,-0.253135173
03:40:02,-1.177475585,0.5952402550000001,-0.759414705,0.34585682,-0.02337177999999998,-0.02889174,0.544138185,-31.847912225,3.895787465,-51.78735795,-1.5549107690000001,0.3144650615,1.4609336705,0.2272033548,0.083432872675,-0.2535123231
03:40:02,-1.18892862,0.6044078600000001,-0.7566652599999999,0.34729504,-0.02468215999999998,-0.03007428000000001,0.55419182,-31.8500097,3.89803398,-53.5449174,-1.562082468,0.32117387799999997,1.468264026,0.22745694560000002,0.0829362601,-0.2538894732
03:40:02,-1.200381655,0.6135754649999999,-0.753915815,0.34873326000000004,-0.02599253999999998,-0.03125681999999999,0.564245455,-31.852107175,3.900280495,-55.302476850000005,-1.569254167,0.32788269449999996,1.4755943815,0.2277105364,0.082439647525,-0.2542666233
03:40:02,-1.21183469,0.62274307,-0.75116637,0.35017148,-0.02730291999999998,-0.03243936,0.57429909,-31.85420465,3.90252701,-57.06003630000001,-1.5764258660000001,0.33459151099999995,1.4829247369999998,0.2279641272,0.08194303495000001,-0.2546437734
03:40:02,-1.223287725,0.631910675,-0.7484169249999999,0.3516097,-0.02861329999999998,-0.03362190000000001,0.584352725,-31.856302125,3.9047735250000004,-58.81759574999998,-1.583597565,0.34130032749999994,1.4902550925,0.228217718,0.08144642237500001,-0.2550209235
03:40:02,-1.23474076,0.64107828,-0.7456674799999999,0.35304792,-0.02992367999999998,-0.03480443999999999,0.59440636,-31.8583996,3.9070200400000004,-60.57515519999998,-1.590769264,0.34800914400000005,1.497585448,0.2284713088,0.08094980980000001,-0.2553980736
03:40:02,-1.246193795,0.650245885,-0.742918035,0.35448614,-0.03123405999999998,-0.03598698,0.604459995,-31.860497075,3.9092665550000003,-62.332714649999986,-1.597940963,0.35471796050000004,1.5049158034999999,0.2287248996,0.08045319722500001,-0.2557752237
03:40:02,-1.2576468299999999,0.65941349,-0.7401685899999999,0.35592436000000005,-0.03254443999999998,-0.037169519999999984,0.61451363,-31.86259455,3.9115130700000003,-64.09027409999999,-1.605112662,0.36142677700000003,1.512246159,0.2289784904,0.07995658465000001,-0.2561523738
03:40:02,-1.269099865,0.6685810950000001,-0.7374191449999999,0.35736258,-0.03385481999999998,-0.03835205999999999,0.624567265,-31.864692025,3.913759585,-65.84783354999999,-1.612284361,0.3681355935,1.5195765145,0.2292320812,0.07945997207500001,-0.2565295239
03:40:02,-1.2805529,0.6777487000000001,-0.7346697,0.35880080000000003,-0.03516519999999998,-0.0395346,0.6346209,-31.8667895,3.9160061,-67.60539299999999,-1.61945606,0.37484441,1.52690687,0.229485672,0.07896335950000001,-0.256906674
03:40:02,-1.292005935,0.6869163050000001,-0.7319202549999999,0.36023902,-0.03647557999999998,-0.040717139999999985,0.644674535,-31.868886975,3.918252615,-69.36295245,-1.6266277590000002,0.3815532265,1.5342372254999999,0.2297392628,0.078466746925,-0.2572838241
03:40:02,-1.30345897,0.6960839100000001,-0.72917081,0.36167724,-0.03778595999999998,-0.041899679999999995,0.65472817,-31.87098445,3.92049913,-71.1205119,-1.633799458,0.388262043,1.541567581,0.2299928536,0.07797013435,-0.2576609742
03:40:02,-1.314912005,0.7052515149999999,-0.726421365,0.36311546,-0.03909633999999998,-0.043082220000000004,0.6647818050000001,-31.873081925,3.922745645,-72.87807135,-1.640971157,0.3949708595,1.5488979365,0.2302464444,0.077473521775,-0.2580381243
03:40:02,-1.32636504,0.71441912,-0.7236719199999999,0.36455368,-0.04040671999999998,-0.044264759999999986,0.6748354400000001,-31.8751794,3.9249921600000004,-74.6356308,-1.6481428560000002,0.401679676,1.556228292,0.2305000352,0.0769769092,-0.2584152744
03:40:02,-1.337818075,0.723586725,-0.720922475,0.36599190000000004,-0.04171709999999998,-0.045447299999999996,0.6848890750000001,-31.877276875,3.9272386750000003,-76.39319025,-1.655314555,0.4083884925,1.5635586475,0.230753626,0.076480296625,-0.2587924245
03:40:02,-1.3492711099999999,0.73275433,-0.71817303,0.36743011999999997,-0.04302747999999998,-0.046629840000000006,0.6949427100000001,-31.87937435,3.9294851900000003,-78.15074969999998,-1.662486254,0.41509730899999997,1.570889003,0.2310072168,0.07598368405,-0.2591695746
03:40:02,-1.360724145,0.741921935,-0.7154235849999999,0.36886834,-0.04433785999999998,-0.04781237999999999,0.7049963450000001,-31.881471825,3.9317317050000002,-79.90830915000001,-1.6696579530000002,0.42180612549999996,1.5782193585,0.2312608076,0.075487071475,-0.2595467247
03:40:02,-1.37217718,0.75108954,-0.71267414,0.37030656,-0.04564823999999998,-0.04899492,0.7150499800000001,-31.8835693,3.93397822,-81.66586859999998,-1.676829652,0.42851494199999995,1.5855497139999999,0.2315143984,0.0749904589,-0.2599238748
03:40:02,-1.383630215,0.7602571450000001,-0.709924695,0.37174478,-0.04695861999999998,-0.05017746000000001,0.7251036150000001,-31.885666775,3.936224735,-83.42342805000001,-1.684001351,0.43522375849999995,1.5928800695,0.2317679892,0.074493846325,-0.2603010249
03:40:02,-1.39508325,0.7694247500000001,-0.7071752499999999,0.37318300000000004,-0.04826899999999998,-0.05135999999999999,0.7351572499999999,-31.88776425,3.93847125,-85.18098749999999,-1.6911730500000002,0.44193257499999994,1.600210425,0.23202158,0.07399723375,-0.260678175
03:40:02,-1.406536285,0.7785923550000001,-0.704425805,0.37462122,-0.04957937999999998,-0.05254254,0.7452108849999999,-31.889861725,3.940717765,-86.93854695000002,-1.6983447489999999,0.44864139149999993,1.6075407805,0.23227517079999999,0.073500621175,-0.2610553251
03:40:02,-1.41798932,0.7877599600000001,-0.70167636,0.37605944,-0.05088975999999998,-0.05372508000000001,0.7552645199999999,-31.8919592,3.94296428,-88.69610639999999,-1.705516448,0.4553502079999999,1.6148711359999999,0.2325287616,0.0730040086,-0.2614324752
03:40:02,-1.429442355,0.796927565,-0.6989269149999999,0.37749766,-0.05220013999999998,-0.05490761999999999,0.7653181549999999,-31.894056675,3.9452107950000004,-90.45366585000002,-1.7126881470000002,0.4620590244999999,1.6222014915,0.2327823524,0.072507396025,-0.2618096253
03:40:02,-1.4408953899999999,0.80609517,-0.69617747,0.37893588,-0.05351051999999998,-0.05609016,0.7753717899999999,-31.89615415,3.9474573100000003,-92.2112253,-1.7198598459999999,0.4687678409999999,1.629531847,0.23303594319999998,0.07201078345,-0.2621867754
03:40:02,-1.452348425,0.815262775,-0.693428025,0.38037410000000005,-0.05482089999999998,-0.05727270000000001,0.7854254249999999,-31.898251625,3.9497038250000003,-93.96878474999997,-1.727031545,0.4754766574999999,1.6368622025,0.233289534,0.071514170875,-0.2625639255
03:40:02,-1.46380146,0.82443038,-0.6906785799999999,0.38181232,-0.05613127999999998,-0.05845523999999999,0.7954790599999999,-31.9003491,3.9519503400000002,-95.7263442,-1.7342032440000001,0.4821854739999999,1.6441925579999999,0.2335431248,0.0710175583,-0.2629410756
03:40:02,-1.475254495,0.833597985,-0.687929135,0.38325054000000003,-0.05744165999999998,-0.05963778,0.8055326949999999,-31.902446575,3.954196855,-97.48390364999997,-1.7413749429999998,0.4888942905000001,1.6515229135,0.2337967156,0.070520945725,-0.2633182257
03:40:02,-1.48670753,0.8427655900000001,-0.68517969,0.38468876,-0.05875203999999998,-0.06082031999999998,0.8155863299999999,-31.90454405,3.95644337,-99.2414631,-1.748546642,0.4956031070000001,1.658853269,0.2340503064,0.07002433315,-0.2636953758
03:40:02,-1.498160565,0.8519331950000001,-0.6824302449999999,0.38612698,-0.06006241999999998,-0.06200285999999999,0.8256399649999999,-31.906641525,3.958689885,-100.99902254999998,-1.7557183410000001,0.5023119235000001,1.6661836245,0.2343038972,0.06952772057500001,-0.2640725259
03:40:02,-1.5096136,0.8611008000000001,-0.6796808,0.38756520000000005,-0.06137279999999998,-0.0631854,0.8356935999999999,-31.908739,3.9609364000000005,-102.75658200000001,-1.7628900400000003,0.5090207400000001,1.6735139799999998,0.234557488,0.06903110800000001,-0.264449676
03:40:02,-1.521066635,0.8702684050000001,-0.676931355,0.38900342,-0.06268317999999998,-0.06436793999999998,0.8457472349999999,-31.910836475,3.963182915,-104.51414144999998,-1.770061739,0.5157295565000001,1.6808443355,0.2348110788,0.06853449542500001,-0.2648268261
03:40:02,-1.53251967,0.8794360100000002,-0.6741819099999999,0.39044164000000003,-0.06399355999999998,-0.06555048,0.8558008699999999,-31.91293395,3.9654294300000004,-106.27170090000001,-1.777233438,0.5224383730000001,1.688174691,0.2350646696,0.06803788285000001,-0.2652039762
03:40:02,-1.543972705,0.888603615,-0.671432465,0.39187986,-0.06530393999999998,-0.06673302,0.8658545049999999,-31.915031425,3.9676759450000003,-108.02926034999999,-1.7844051370000003,0.5291471895000001,1.6955050465,0.2353182604,0.06754127027500001,-0.2655811263
03:40:02,-1.55542574,0.89777122,-0.66868302,0.39331808,-0.06661431999999998,-0.06791555999999999,0.87590814,-31.9171289,3.9699224600000003,-109.78681980000002,-1.791576836,0.535856006,1.702835402,0.23557185120000002,0.06704465770000001,-0.2659582764
03:40:02,-1.566878775,0.906938825,-0.6659335749999999,0.3947563,-0.06792469999999998,-0.0690981,0.885961775,-31.919226375,3.972168975,-111.54437924999999,-1.798748535,0.5425648225,1.7101657575,0.235825442,0.06654804512500001,-0.2663354265
03:40:02,-1.5783318100000001,0.91610643,-0.66318413,0.39619452,-0.06923507999999998,-0.07028064,0.89601541,-31.92132385,3.97441549,-113.30193870000002,-1.8059202340000002,0.549273639,1.717496113,0.2360790328,0.06605143255000001,-0.26671257660000003
03:40:02,-1.589784845,0.925274035,-0.660434685,0.39763274000000004,-0.07054545999999998,-0.07146317999999999,0.906069045,-31.923421325,3.976662005,-115.05949815,-1.813091933,0.5559824555,1.7248264684999999,0.2363326236,0.065554819975,-0.2670897267
03:40:02,-1.60123788,0.9344416400000001,-0.65768524,0.39907096,-0.07185583999999998,-0.07264572,0.91612268,-31.9255188,3.97890852,-116.81705759999997,-1.820263632,0.562691272,1.732156824,0.2365862144,0.0650582074,-0.26746687680000003
03:40:02,-1.612690915,0.9436092450000001,-0.654935795,0.40050918,-0.07316621999999998,-0.07382826,0.926176315,-31.927616275,3.9811550350000005,-118.57461705,-1.8274353310000002,0.5694000885,1.7394871795,0.2368398052,0.064561594825,-0.2678440269
03:40:02,-1.62414395,0.9527768500000001,-0.65218635,0.4019474,-0.07447659999999998,-0.07501079999999999,0.93622995,-31.92971375,3.9834015500000004,-120.33217649999997,-1.83460703,0.576108905,1.746817535,0.237093396,0.06406498225,-0.26822117700000003
03:40:02,-1.635596985,0.9619444550000001,-0.649436905,0.40338562,-0.07578697999999998,-0.07619334,0.946283585,-31.931811225,3.9856480650000004,-122.08973595,-1.841778729,0.5828177215,1.7541478904999999,0.2373469868,0.063568369675,-0.2685983271
03:40:02,-1.64705002,0.9711120600000002,-0.64668746,0.40482384000000005,-0.07709735999999998,-0.07737588000000001,0.95633722,-31.9339087,3.9878945800000003,-123.84729539999998,-1.8489504280000002,0.589526538,1.761478246,0.2376005776,0.0630717571,-0.26897547720000003
03:40:02,-1.658503055,0.980279665,-0.643938015,0.40626206,-0.07840773999999998,-0.07855841999999999,0.966390855,-31.936006175,3.9901410950000002,-125.60485485000001,-1.856122127,0.5962353545,1.7688086015,0.2378541684,0.062575144525,-0.2693526273
03:40:02,-1.6699560900000001,0.98944727,-0.64118857,0.40770028,-0.07971811999999998,-0.07974096,0.97644449,-31.93810365,3.99238761,-127.36241429999998,-1.863293826,0.602944171,1.776138957,0.2381077592,0.06207853195,-0.26972977740000004
03:40:02,-1.6814091249999998,0.998614875,-0.638439125,0.40913849999999996,-0.08102849999999998,-0.08092349999999998,0.986498125,-31.940201125,3.994634125,-129.11997375,-1.8704655250000002,0.6096529875,1.7834693124999998,0.23836135,0.061581919375,-0.2701069275
03:40:02,-1.69286216,1.00778248,-0.63568968,0.41057672,-0.08233887999999998,-0.08210603999999999,0.99655176,-31.9422986,3.99688064,-130.8775332,-1.8776372239999999,0.616361804,1.790799668,0.2386149408,0.0610853068,-0.27048407760000004
03:40:02,-1.7043151950000002,1.016950085,-0.632940235,0.41201494000000005,-0.08364925999999998,-0.08328858,1.006605395,-31.944396075,3.999127155,-132.63509265000002,-1.884808923,0.6230706205,1.7981300235,0.2388685316,0.060588694225,-0.2708612277
03:40:02,-1.71576823,1.02611769,-0.63019079,0.41345316,-0.08495963999999998,-0.08447111999999998,1.01665903,-31.94649355,4.00137367,-134.3926521,-1.8919806220000002,0.6297794369999999,1.805460379,0.2391221224,0.060092081650000004,-0.2712383778
03:40:02,-1.727221265,1.035285295,-0.627441345,0.41489138000000003,-0.08627001999999998,-0.08565365999999999,1.026712665,-31.948591025,4.003620185,-136.15021155000002,-1.8991523209999999,0.6364882534999999,1.8127907345,0.2393757132,0.059595469075000004,-0.2716155279
03:40:02,-1.7386742999999998,1.0444529,-0.6246919,0.41632959999999997,-0.08758039999999997,-0.0868362,1.0367663,-31.9506885,4.0058667,-137.907771,-1.90632402,0.6431970699999999,1.82012109,0.239629304,0.059098856500000005,-0.271992678
03:40:02,-1.750127335,1.053620505,-0.621942455,0.41776782,-0.08889077999999997,-0.08801873999999998,1.046819935,-31.952785975,4.008113215,-139.66533044999997,-1.9134957190000002,0.6499058864999999,1.8274514455,0.2398828948,0.058602243925000005,-0.2723698281
03:40:02,-1.7615803700000001,1.06278811,-0.6191930099999999,0.41920604000000006,-0.09020115999999997,-0.08920128,1.05687357,-31.95488345,4.01035973,-141.4228899,-1.9206674179999998,0.6566147029999999,1.8347818009999999,0.2401364856,0.058105631350000006,-0.2727469782
03:40:02,-1.7730334049999998,1.071955715,-0.616443565,0.42064426,-0.09151153999999997,-0.09038382,1.066927205,-31.956980925,4.012606245000001,-143.18044934999998,-1.927839117,0.6633235194999999,1.8421121565,0.24039007639999999,0.05760901877500001,-0.2731241283
03:40:02,-1.78448644,1.08112332,-0.61369412,0.42208248000000004,-0.09282191999999997,-0.09156635999999999,1.07698084,-31.9590784,4.01485276,-144.9380088,-1.9350108160000001,0.6700323359999999,1.849442512,0.2406436672,0.05711240620000001,-0.2735012784
03:40:02,-1.7959394750000002,1.0902909250000001,-0.6109446749999999,0.42352069999999997,-0.09413229999999997,-0.0927489,1.087034475,-31.961175875,4.0170992750000005,-146.69556824999998,-1.9421825149999998,0.6767411525000001,1.8567728675,0.240897258,0.05661579362500001,-0.2738784285
03:40:02,-1.80739251,1.0994585300000002,-0.60819523,0.42495892,-0.09544267999999997,-0.09393144,1.09708811,-31.963273349999998,4.01934579,-148.4531277,-1.949354214,0.6834499690000001,1.8641032229999999,0.24115084879999998,0.05611918105000001,-0.2742555786
03:40:02,-1.818845545,1.1086261350000002,-0.605445785,0.42639714000000006,-0.09675305999999997,-0.09511397999999999,1.107141745,-31.965370825,4.021592305,-150.21068714999998,-1.9565259130000001,0.6901587855000001,1.8714335785,0.2414044396,0.05562256847500001,-0.2746327287
03:40:02,-1.8302985800000002,1.1177937400000002,-0.6026963399999999,0.42783536,-0.09806343999999997,-0.09629652,1.11719538,-31.9674683,4.02383882,-151.96824660000001,-1.9636976120000003,0.6968676020000001,1.878763934,0.2416580304,0.05512595590000001,-0.2750098788
03:40:02,-1.841751615,1.1269613450000002,-0.599946895,0.42927358000000004,-0.09937381999999997,-0.09747906,1.127249015,-31.969565775,4.026085335,-153.72580605,-1.970869311,0.7035764185000001,1.8860942895,0.24191162119999998,0.05462934332500001,-0.2753870289
03:40:02,-1.8532046500000001,1.1361289500000002,-0.59719745,0.4307118,-0.10068419999999997,-0.09866159999999999,1.13730265,-31.97166325,4.02833185,-155.48336550000002,-1.97804101,0.7102852350000001,1.8934246449999999,0.242165212,0.05413273075000001,-0.275764179
03:40:02,-1.8646576849999998,1.1452965550000003,-0.594448005,0.43215002,-0.10199457999999997,-0.09984414,1.147356285,-31.973760724999998,4.030578365,-157.24092495,-1.9852127090000002,0.7169940515000001,1.9007550005,0.2424188028,0.05363611817500001,-0.2761413291
03:40:02,-1.87611072,1.1544641599999999,-0.59169856,0.43358823999999996,-0.10330495999999997,-0.10102667999999998,1.15740992,-31.9758582,4.032824880000001,-158.99848439999997,-1.992384408,0.723702868,1.908085356,0.24267239359999998,0.0531395056,-0.2765184792
03:40:02,-1.8875637550000002,1.1636317649999999,-0.588949115,0.43502646,-0.10461533999999997,-0.10220921999999999,1.1674635549999999,-31.977955675,4.035071395,-160.75604385,-1.999556107,0.7304116845,1.9154157115,0.2429259844,0.052642893025,-0.2768956293
03:40:02,-1.89901679,1.17279937,-0.58619967,0.43646468000000005,-0.10592571999999997,-0.10339176,1.1775171899999999,-31.98005315,4.0373179100000005,-162.51360329999997,-2.0067278060000002,0.737120501,1.922746067,0.2431795752,0.05214628045,-0.2772727794
03:40:02,-1.910469825,1.181966975,-0.583450225,0.4379029,-0.10723609999999997,-0.10457429999999998,1.1875708249999999,-31.982150625,4.039564425,-164.27116275,-2.013899505,0.7438293175,1.9300764225,0.243433166,0.051649667875,-0.2776499295
03:40:02,-1.9219228599999998,1.19113458,-0.58070078,0.43934112000000003,-0.10854647999999997,-0.10575683999999999,1.19762446,-31.9842481,4.04181094,-166.02872219999998,-2.021071204,0.750538134,1.937406778,0.2436867568,0.0511530553,-0.2780270796
03:40:02,-1.933375895,1.200302185,-0.577951335,0.44077933999999996,-0.10985685999999997,-0.10693938,1.207678095,-31.986345574999998,4.044057455,-167.78628165,-2.028242903,0.7572469505,1.9447371334999999,0.2439403476,0.050656442725,-0.2784042297
03:40:02,-1.9448289300000001,1.20946979,-0.57520189,0.44221756,-0.11116723999999997,-0.10812191999999998,1.21773173,-31.98844305,4.04630397,-169.54384109999998,-2.035414602,0.763955767,1.952067489,0.2441939384,0.05015983015,-0.2787813798
03:40:02,-1.9562819649999998,1.218637395,-0.572452445,0.44365578000000006,-0.11247761999999997,-0.10930445999999999,1.227785365,-31.990540525,4.048550485,-171.30140055,-2.042586301,0.7706645835,1.9593978445,0.2444475292,0.049663217575,-0.2791585299
03:40:03,-1.967735,1.227805,-0.569703,0.445094,-0.113788,-0.110487,1.237839,-31.992638,4.050797,-173.05896,-2.049758,0.7773734,1.9667282,0.24470112,0.049166605,-0.27953568
03:40:03,-1.96042554,1.23245968,-0.5643728849999999,0.443613165,-0.11210475,-0.10953884,1.2392771949999999,-31.979353775,4.05262355,-173.06394680000002,-2.0407332665,0.783480888,1.9579658547499998,0.24410241565,0.050048425225000005,-0.27888744990000003
03:40:03,-1.95311608,1.23711436,-0.5590427699999999,0.44213232999999996,-0.1104215,-0.10859068,1.2407153899999999,-31.96606955,4.0544501,-173.0689336,-2.031708533,0.789588376,1.9492035095,0.24350371129999998,0.05093024545,-0.2782392198
03:40:03,-1.94580662,1.24176904,-0.553712655,0.440651495,-0.10873825,-0.10764252,1.2421535849999998,-31.952785325,4.05627665,-173.07392040000002,-2.0226837995,0.795695864,1.94044116425,0.24290500695,0.051812065675000005,-0.2775909897
03:40:03,-1.93849716,1.2464237200000001,-0.54838254,0.43917066,-0.107055,-0.10669436,1.2435917799999998,-31.9395011,4.058103200000001,-173.0789072,-2.013659066,0.801803352,1.9316788189999998,0.2423063026,0.0526938859,-0.27694275960000003
03:40:03,-1.9311877,1.2510784,-0.543052425,0.437689825,-0.10537175,-0.1057462,1.245029975,-31.926216874999998,4.05992975,-173.08389400000002,-2.0046343325000002,0.80791084,1.92291647375,0.24170759825,0.053575706125000004,-0.2762945295
03:40:03,-1.92387824,1.25573308,-0.5377223099999999,0.43620899,-0.1036885,-0.10479804000000001,1.24646817,-31.91293265,4.0617563,-173.08888080000003,-1.9956095990000002,0.814018328,1.9141541284999999,0.24110889389999998,0.05445752635,-0.2756462994
03:40:03,-1.91656878,1.26038776,-0.5323921949999999,0.434728155,-0.10200525,-0.10384988,1.247906365,-31.899648425,4.06358285,-173.0938676,-1.9865848655000002,0.820125816,1.90539178325,0.24051018955,0.055339346575000004,-0.27499806930000004
03:40:03,-1.90925932,1.26504244,-0.52706208,0.43324732,-0.100322,-0.10290172,1.24934456,-31.8863642,4.0654094,-173.09885440000002,-1.9775601320000002,0.8262333040000001,1.896629438,0.2399114852,0.0562211668,-0.2743498392
03:40:03,-1.90194986,1.26969712,-0.521731965,0.431766485,-0.09863875,-0.10195356,1.250782755,-31.873079975,4.067235950000001,-173.1038412,-1.9685353985000003,0.832340792,1.8878670927499999,0.23931278085,0.057102987025,-0.2737016091
03:40:03,-1.8946404000000001,1.2743518,-0.5164018499999999,0.43028564999999996,-0.0969555,-0.1010054,1.2522209499999999,-31.85979575,4.0690625,-173.10882800000002,-1.9595106650000003,0.83844828,1.8791047475,0.23871407649999998,0.057984807250000006,-0.273053379
03:40:03,-1.88733094,1.27900648,-0.5110717349999999,0.428804815,-0.09527225,-0.10005724,1.2536591449999999,-31.846511525,4.07088905,-173.1138148,-1.9504859315000003,0.844555768,1.87034240225,0.23811537215,0.058866627475,-0.2724051489
03:40:03,-1.88002148,1.28366116,-0.50574162,0.42732398,-0.093589,-0.09910908,1.2550973399999998,-31.8332273,4.0727156,-173.1188016,-1.9414611980000003,0.850663256,1.8615800569999998,0.2375166678,0.0597484477,-0.2717569188
03:40:03,-1.87271202,1.28831584,-0.500411505,0.425843145,-0.09190575,-0.09816092,1.2565355349999998,-31.819943074999998,4.07454215,-173.12378840000002,-1.9324364645000003,0.856770744,1.85281771175,0.23691796345,0.060630267925,-0.2711086887
03:40:03,-1.86540256,1.2929705200000001,-0.49508138999999995,0.42436231,-0.0902225,-0.09721276000000001,1.25797373,-31.806658849999998,4.076368700000001,-173.1287752,-1.9234117310000003,0.862878232,1.8440553665,0.23631925909999998,0.061512088150000005,-0.2704604586
03:40:03,-1.8580931,1.2976252000000001,-0.48975127499999993,0.422881475,-0.08853925,-0.0962646,1.259411925,-31.793374625,4.07819525,-173.13376200000002,-1.9143869975000003,0.86898572,1.83529302125,0.23572055475,0.062393908375,-0.26981222850000003
03:40:03,-1.85078364,1.30227988,-0.48442115999999996,0.42140064,-0.086856,-0.09531644,1.26085012,-31.7800904,4.0800218,-173.1387488,-1.9053622640000003,0.875093208,1.826530676,0.2351218504,0.0632757286,-0.2691639984
03:40:03,-1.84347418,1.30693456,-0.479091045,0.419919805,-0.08517274999999999,-0.09436828,1.262288315,-31.766806175,4.0818483500000005,-173.1437356,-1.8963375305000003,0.8812006960000001,1.8177683307499999,0.23452314605,0.06415754882500001,-0.2685157683
03:40:03,-1.83616472,1.31158924,-0.47376092999999997,0.41843896999999997,-0.0834895,-0.09342012,1.26372651,-31.75352195,4.0836749,-173.14872240000003,-1.8873127970000003,0.887308184,1.8090059855,0.23392444169999999,0.06503936905,-0.26786753820000003
03:40:03,-1.82885526,1.31624392,-0.46843081499999994,0.416958135,-0.08180625,-0.09247196,1.265164705,-31.740237725,4.085501450000001,-173.1537092,-1.8782880635,0.893415672,1.80024364025,0.23332573735,0.065921189275,-0.2672193081
03:40:03,-1.8215458,1.3208986,-0.4631007,0.4154773,-0.080123,-0.0915238,1.2666028999999999,-31.7269535,4.087328,-173.15869600000002,-1.8692633300000001,0.89952316,1.7914812949999999,0.232727033,0.06680300950000001,-0.266571078
03:40:03,-1.81423634,1.32555328,-0.45777058499999995,0.413996465,-0.07843975,-0.09057564,1.2680410949999998,-31.713669275,4.08915455,-173.1636828,-1.8602385965000001,0.905630648,1.78271894975,0.23212832865,0.067684829725,-0.2659228479
03:40:03,-1.80692688,1.33020796,-0.45244047,0.41251563,-0.0767565,-0.08962748000000001,1.2694792899999998,-31.700385049999998,4.0909811000000005,-173.16866960000002,-1.8512138630000001,0.9117381360000001,1.7739566045,0.2315296243,0.06856664995,-0.2652746178
03:40:03,-1.79961742,1.33486264,-0.44711035499999996,0.411034795,-0.07507325000000001,-0.08867932,1.270917485,-31.687100824999998,4.09280765,-173.1736564,-1.8421891295000001,0.917845624,1.7651942592499998,0.23093091994999998,0.069448470175,-0.2646263877
03:40:03,-1.79230796,1.3395173200000001,-0.44178023999999994,0.40955396,-0.07339,-0.08773116,1.27235568,-31.6738166,4.0946342,-173.1786432,-1.8331643960000001,0.923953112,1.756431914,0.2303322156,0.0703302904,-0.2639781576
03:40:03,-1.7849985,1.344172,-0.43645012499999997,0.408073125,-0.07170675,-0.086783,1.273793875,-31.660532375,4.09646075,-173.18363000000002,-1.8241396625000001,0.9300606,1.74766956875,0.22973351125,0.071212110625,-0.2633299275
03:40:03,-1.77768904,1.34882668,-0.43112001,0.40659228999999997,-0.07002349999999999,-0.08583484,1.27523207,-31.64724815,4.0982873,-173.1886168,-1.8151149290000002,0.9361680880000001,1.7389072235,0.2291348069,0.07209393085,-0.2626816974
03:40:03,-1.77037958,1.35348136,-0.425789895,0.405111455,-0.06834024999999999,-0.08488668,1.276670265,-31.633963925,4.1001138500000005,-173.19360360000002,-1.8060901955000002,0.942275576,1.73014487825,0.22853610254999998,0.07297575107500001,-0.2620334673
03:40:03,-1.76307012,1.35813604,-0.42045977999999995,0.40363062,-0.066657,-0.08393852,1.27810846,-31.6206797,4.1019404,-173.1985904,-1.7970654620000002,0.948383064,1.7213825329999999,0.2279373982,0.07385757130000001,-0.2613852372
03:40:03,-1.75576066,1.36279072,-0.4151296649999999,0.402149785,-0.06497375,-0.08299036,1.2795466549999999,-31.607395475,4.10376695,-173.2035772,-1.7880407285000002,0.954490552,1.71262018775,0.22733869385,0.074739391525,-0.26073700710000003
03:40:03,-1.7484512,1.3674454,-0.40979954999999996,0.40066895,-0.0632905,-0.08204220000000001,1.2809848499999998,-31.59411125,4.1055935,-173.20856400000002,-1.7790159950000002,0.96059804,1.7038578425,0.2267399895,0.07562121175,-0.260088777
03:40:03,-1.74114174,1.37210008,-0.404469435,0.399188115,-0.061607249999999995,-0.08109404,1.2824230449999998,-31.580827024999998,4.10742005,-173.2135508,-1.7699912615000002,0.9667055280000001,1.69509549725,0.22614128514999998,0.076503031975,-0.2594405469
03:40:03,-1.7338322800000001,1.37675476,-0.39913931999999996,0.39770728,-0.059924,-0.08014588,1.28386124,-31.5675428,4.1092466000000005,-173.21853760000002,-1.7609665280000002,0.972813016,1.686333152,0.2255425808,0.0773848522,-0.25879231680000003
03:40:03,-1.72652282,1.38140944,-0.39380920499999994,0.396226445,-0.05824075,-0.07919772,1.285299435,-31.554258575,4.11107315,-173.2235244,-1.7519417945000002,0.978920504,1.67757080675,0.22494387645,0.078266672425,-0.2581440867
03:40:03,-1.71921336,1.38606412,-0.38847908999999997,0.39474560999999997,-0.0565575,-0.07824956,1.28673763,-31.54097435,4.1128997,-173.2285112,-1.7429170610000002,0.985027992,1.6688084614999998,0.2243451721,0.07914849265,-0.2574958566
03:40:03,-1.7119039,1.3907188000000001,-0.383148975,0.393264775,-0.05487425,-0.0773014,1.288175825,-31.527690125,4.11472625,-173.233498,-1.7338923275000002,0.9911354800000001,1.66004611625,0.22374646774999998,0.08003031287500001,-0.25684762650000004
03:40:03,-1.70459444,1.39537348,-0.37781886,0.39178394,-0.053190999999999995,-0.07635324,1.28961402,-31.5144059,4.1165528,-173.2384848,-1.7248675940000002,0.997242968,1.651283771,0.2231477634,0.0809121331,-0.2561993964
03:40:03,-1.69728498,1.40002816,-0.37248874499999995,0.390303105,-0.05150775,-0.07540508,1.291052215,-31.501121675,4.1183793500000005,-173.24347160000002,-1.7158428605000002,1.003350456,1.64252142575,0.22254905905,0.081793953325,-0.2555511663
03:40:03,-1.68997552,1.40468284,-0.36715862999999993,0.38882227,-0.049824499999999994,-0.07445692000000001,1.2924904099999999,-31.48783745,4.1202059,-173.2484584,-1.7068181270000002,1.009457944,1.6337590805,0.2219503547,0.08267577355,-0.2549029362
03:40:03,-1.68266606,1.40933752,-0.36182851499999996,0.387341435,-0.04814125,-0.07350876,1.2939286049999998,-31.474553225,4.12203245,-173.25344520000002,-1.6977933935000002,1.015565432,1.6249967352499999,0.22135165034999998,0.083557593775,-0.2542547061
03:40:03,-1.6753566,1.4139922,-0.3564984,0.3858606,-0.046458,-0.0725606,1.2953667999999998,-31.461268999999998,4.123859,-173.258432,-1.6887686600000003,1.02167292,1.61623439,0.220752946,0.084439414,-0.253606476
03:40:03,-1.66804714,1.41864688,-0.35116828499999997,0.384379765,-0.04477475,-0.07161244,1.296804995,-31.447984775,4.12568555,-173.2634188,-1.6797439265000003,1.027780408,1.60747204475,0.22015424165,0.085321234225,-0.2529582459
03:40:03,-1.66073768,1.42330156,-0.34583816999999994,0.38289892999999997,-0.04309149999999999,-0.07066428,1.29824319,-31.43470055,4.127512100000001,-173.26840560000002,-1.6707191930000003,1.033887896,1.5987096995,0.2195555373,0.08620305445000001,-0.2523100158
03:40:03,-1.65342822,1.42795624,-0.340508055,0.381418095,-0.041408249999999994,-0.06971612,1.299681385,-31.421416325,4.12933865,-173.2733924,-1.6616944595000003,1.039995384,1.58994735425,0.21895683294999999,0.087084874675,-0.25166178570000003
03:40:03,-1.64611876,1.4326109200000001,-0.33517793999999995,0.37993726,-0.039724999999999996,-0.06876796,1.30111958,-31.4081321,4.1311652,-173.27837920000002,-1.652669726,1.046102872,1.581185009,0.21835812859999998,0.0879666949,-0.2510135556
03:40:03,-1.6388093000000001,1.4372656,-0.329847825,0.378456425,-0.03804175,-0.0678198,1.302557775,-31.394847875,4.13299175,-173.283366,-1.6436449925,1.0522103600000001,1.5724226637499998,0.21775942425,0.088848515125,-0.2503653255
03:40:03,-1.63149984,1.44192028,-0.32451770999999996,0.37697559,-0.0363585,-0.06687164000000001,1.30399597,-31.38156365,4.1348183,-173.2883528,-1.634620259,1.0583178480000002,1.5636603185,0.2171607199,0.08973033535,-0.2497170954
03:40:03,-1.62419038,1.44657496,-0.319187595,0.375494755,-0.03467524999999999,-0.06592348,1.3054341649999999,-31.368279425,4.136644850000001,-173.2933396,-1.6255955255,1.064425336,1.55489797325,0.21656201555,0.090612155575,-0.2490688653
03:40:03,-1.61688092,1.45122964,-0.31385747999999997,0.37401392,-0.032991999999999994,-0.06497532,1.3068723599999998,-31.354995199999998,4.1384714,-173.2983264,-1.616570792,1.070532824,1.546135628,0.2159633112,0.0914939758,-0.24842063520000002
03:40:03,-1.60957146,1.45588432,-0.30852736499999994,0.372533085,-0.031308749999999996,-0.06402716,1.3083105549999998,-31.341710974999998,4.14029795,-173.30331320000002,-1.6075460585,1.076640312,1.53737328275,0.21536460685,0.09237579602500001,-0.2477724051
03:40:03,-1.602262,1.460539,-0.30319725,0.37105225,-0.0296255,-0.063079,1.3097487499999998,-31.32842675,4.1421245,-173.3083,-1.598521325,1.0827478,1.5286109374999999,0.2147659025,0.09325761625000001,-0.247124175
03:40:03,-1.59495254,1.46519368,-0.29786713499999995,0.369571415,-0.027942250000000002,-0.06213084000000001,1.311186945,-31.315142525,4.14395105,-173.31328680000001,-1.5894965915000001,1.088855288,1.51984859225,0.21416719815,0.094139436475,-0.24647594490000002
03:40:03,-1.5876430799999999,1.46984836,-0.29253702,0.36809058,-0.02625899999999999,-0.06118268,1.31262514,-31.3018583,4.145777600000001,-173.3182736,-1.5804718580000001,1.094962776,1.511086247,0.21356849379999998,0.0950212567,-0.2458277148
03:40:03,-1.58033362,1.47450304,-0.28720690499999996,0.366609745,-0.024575749999999993,-0.06023452,1.314063335,-31.288574075,4.14760415,-173.3232604,-1.5714471245000001,1.101070264,1.50232390175,0.21296978945,0.095903076925,-0.2451794847
03:40:03,-1.5730241600000001,1.47915772,-0.28187679,0.36512891000000003,-0.022892499999999996,-0.05928636,1.31550153,-31.27528985,4.1494307,-173.32824720000002,-1.5624223910000001,1.1071777520000001,1.4935615565,0.2123710851,0.09678489715000001,-0.24453125460000003
03:40:03,-1.5657147,1.4838124000000001,-0.27654667499999996,0.363648075,-0.02120925,-0.05833820000000001,1.316939725,-31.262005625,4.1512572500000005,-173.333234,-1.5533976575000001,1.1132852400000002,1.48479921125,0.21177238075,0.097666717375,-0.24388302450000002
03:40:03,-1.55840524,1.48846708,-0.27121655999999994,0.36216724,-0.019526,-0.05739004,1.3183779199999999,-31.2487214,4.1530838,-173.33822080000002,-1.5443729240000001,1.119392728,1.4760368659999998,0.21117367639999998,0.09854853760000001,-0.2432347944
03:40:03,-1.55109578,1.49312176,-0.26588644499999997,0.360686405,-0.01784274999999999,-0.05644188,1.3198161149999998,-31.235437174999998,4.154910350000001,-173.3432076,-1.5353481905000002,1.125500216,1.46727452075,0.21057497204999998,0.09943035782500001,-0.2425865643
03:40:03,-1.54378632,1.49777644,-0.26055632999999995,0.35920557,-0.016159499999999993,-0.05549372,1.3212543099999998,-31.222152949999998,4.1567369,-173.3481944,-1.5263234570000002,1.131607704,1.4585121755000001,0.2099762677,0.10031217805,-0.2419383342
03:40:03,-1.53647686,1.50243112,-0.255226215,0.357724735,-0.014476249999999996,-0.05454556000000001,1.322692505,-31.208868725,4.15856345,-173.35318120000002,-1.5172987235000002,1.137715192,1.44974983025,0.20937756335,0.101193998275,-0.2412901041
03:40:03,-1.5291674,1.5070858,-0.24989609999999995,0.3562439,-0.012792999999999999,-0.0535974,1.3241307,-31.1955845,4.1603900000000005,-173.358168,-1.5082739900000002,1.14382268,1.440987485,0.20877885899999998,0.1020758185,-0.240641874
03:40:03,-1.52185794,1.51174048,-0.24456598499999999,0.354763065,-0.011109750000000002,-0.05264924,1.325568895,-31.182300275,4.16221655,-173.36315480000002,-1.4992492565000002,1.149930168,1.4322251397499999,0.20818015465,0.102957638725,-0.2399936439
03:40:03,-1.51454848,1.51639516,-0.23923586999999996,0.35328223000000003,-0.00942649999999999,-0.05170108,1.32700709,-31.16901605,4.1640431,-173.3681416,-1.4902245230000002,1.156037656,1.4234627945,0.2075814503,0.10383945895,-0.23934541380000002
03:40:03,-1.50723902,1.5210498399999999,-0.233905755,0.351801395,-0.007743249999999993,-0.05075292000000001,1.328445285,-31.155731825,4.16586965,-173.3731284,-1.4811997895000002,1.1621451440000001,1.41470044925,0.20698274595,0.104721279175,-0.2386971837
03:40:03,-1.49992956,1.5257045200000001,-0.22857563999999997,0.35032056,-0.006059999999999996,-0.049804760000000003,1.32988348,-31.1424476,4.1676962,-173.3781152,-1.4721750560000002,1.1682526320000002,1.405938104,0.20638404159999998,0.10560309940000001,-0.2380489536
03:40:03,-1.4926201,1.5303592,-0.22324552499999994,0.348839725,-0.004376749999999999,-0.0488566,1.3313216749999999,-31.129163374999997,4.1695227500000005,-173.383102,-1.4631503225000002,1.17436012,1.39717575875,0.20578533724999998,0.10648491962500001,-0.23740072350000002
03:40:03,-1.48531064,1.53501388,-0.21791540999999998,0.34735889,-0.0026935000000000014,-0.04790844,1.3327598699999998,-31.115879149999998,4.1713493,-173.38808880000002,-1.4541255890000002,1.180467608,1.3884134135,0.2051866329,0.10736673985,-0.2367524934
03:40:03,-1.47800118,1.53966856,-0.21258529499999995,0.345878055,-0.0010102499999999903,-0.04696028000000001,1.3341980649999998,-31.102594925,4.17317585,-173.3930756,-1.4451008555000002,1.186575096,1.3796510682499998,0.20458792855,0.108248560075,-0.2361042633
