Timestamp,linacce_x,linacce_y,linacce_z,gyro_x,gyro_y,gyro_z,X-magnetometer,Y-magnetometer,Z-magnetometer,Yaw, worldXAccel,worldYAccel,worldZAccel,worldXgyro,worldYgyro,worldZgyro
08:29:27,-0.171448,0.330046,-0.10393,-0.13743,0.368997,-0.03653,-37.561268,-29.915989,1.286484,117.46923,-0.21465197,0.32960242,0.058080435,-0.1462831,0.35975212,0.00046890602
08:29:27,-0.17516832499999999,0.32806967,-0.10412993499999999,-0.137195625,0.36978535500000004,-0.03638085,-37.55778808,-29.91238457,1.28293404,117.5062378,-0.21626269115,0.3271711352,0.062142588974999996,-0.1465084512,0.36040170855000003,-0.0001496664601000001
08:29:27,-0.17888864999999998,0.32609334,-0.10432986999999999,-0.13696125,0.37057371,-0.0362317,-37.55430816,-29.90878014,1.27938408,117.54324559999999,-0.21787341229999999,0.32473985040000003,0.06620474295,-0.1467338024,0.3610512971,-0.0007682389402000002
08:29:27,-0.18260897499999998,0.32411701,-0.10452980499999999,-0.136726875,0.371362065,-0.03608255,-37.55082824,-29.905175709999998,1.27583412,117.58025339999999,-0.21948413345,0.3223085656,0.070266896925,-0.1469591536,0.36170088565,-0.0013868114203000003
08:29:27,-0.18632929999999998,0.32214068,-0.10472973999999999,-0.1364925,0.37215042000000004,-0.0359334,-37.54734832,-29.90157128,1.2722841599999999,117.6172612,-0.2210948546,0.3198772808,0.0743290509,-0.1471845048,0.3623504742,-0.0020053839004000006
08:29:27,-0.190049625,0.32016435,-0.104929675,-0.136258125,0.372938775,-0.03578425,-37.5438684,-29.89796685,1.2687342,117.654269,-0.22270557575,0.317445996,0.078391204875,-0.147409856,0.36300006275,-0.0026239563805000006
08:29:27,-0.19376995,0.31818802,-0.10512961,-0.13602375,0.37372713,-0.0356351,-37.54038848,-29.89436242,1.26518424,117.6912768,-0.2243162969,0.3150147112,0.08245335884999999,-0.1476352072,0.3636496513,-0.0032425288606000007
08:29:27,-0.197490275,0.31621169,-0.105329545,-0.135789375,0.37451548500000004,-0.03548595,-37.53690856,-29.89075799,1.26163428,117.7282846,-0.22592701804999998,0.31258342640000003,0.086515512825,-0.1478605584,0.36429923985,-0.003861101340700001
08:29:27,-0.2012106,0.31423536,-0.10552948,-0.135555,0.37530384,-0.0353368,-37.53342864,-29.887153559999998,1.25808432,117.76529239999999,-0.2275377392,0.3101521416,0.0905776668,-0.1480859096,0.3649488284,-0.004479673820800001
08:29:27,-0.20493092499999999,0.31225903,-0.105729415,-0.135320625,0.376092195,-0.03518765,-37.52994872,-29.88354913,1.25453436,117.80230019999999,-0.22914846035,0.3077208568,0.094639820775,-0.1483112608,0.36559841695,-0.005098246300900001
08:29:27,-0.20865124999999998,0.3102827,-0.10592934999999999,-0.13508625,0.37688055000000004,-0.0350385,-37.526468799999996,-29.8799447,1.2509843999999999,117.839308,-0.2307591815,0.305289572,0.09870197475,-0.148536612,0.36624800550000003,-0.005716818781000001
08:29:27,-0.21237157499999998,0.30830637,-0.10612928499999999,-0.134851875,0.377668905,-0.03488935,-37.52298888,-29.87634027,1.24743444,117.8763158,-0.23236990265,0.3028582872,0.102764128725,-0.1487619632,0.36689759405,-0.006335391261100001
08:29:27,-0.2160919,0.30633004,-0.10632921999999999,-0.1346175,0.37845726,-0.0347402,-37.519508959999996,-29.87273584,1.24388448,117.9133236,-0.2339806238,0.30042700240000003,0.1068262827,-0.1489873144,0.3675471826,-0.006953963741200001
08:29:27,-0.21981222499999997,0.30435371,-0.106529155,-0.134383125,0.37924561500000004,-0.03459105,-37.51602904,-29.86913141,1.24033452,117.9503314,-0.23559134495,0.2979957176,0.110888436675,-0.1492126656,0.36819677115,-0.0075725362213
08:29:27,-0.22353255,0.30237738000000003,-0.10672909,-0.13414874999999998,0.38003397,-0.0344419,-37.512549119999996,-29.86552698,1.23678456,117.9873392,-0.2372020661,0.2955644328,0.11495059064999999,-0.1494380168,0.3688463597,-0.008191108701400001
08:29:27,-0.227252875,0.30040105,-0.106929025,-0.133914375,0.380822325,-0.03429275,-37.5090692,-29.86192255,1.2332346,118.02434699999999,-0.23881278725,0.293133148,0.119012744625,-0.149663368,0.36949594825,-0.008809681181500002
08:29:27,-0.2309732,0.29842472,-0.10712896,-0.13368,0.38161068000000004,-0.0341436,-37.505589279999995,-29.85831812,1.2296846399999999,118.06135479999999,-0.24042350839999999,0.2907018632,0.1230748986,-0.1498887192,0.3701455368,-0.009428253661600002
08:29:27,-0.234693525,0.29644839,-0.107328895,-0.13344562499999998,0.382399035,-0.03399445,-37.50210936,-29.85471369,1.22613468,118.0983626,-0.24203422954999998,0.28827057840000003,0.127137052575,-0.1501140704,0.37079512535000003,-0.0100468261417
08:29:27,-0.23841384999999998,0.29447206000000004,-0.10752882999999999,-0.13321125,0.38318739,-0.0338453,-37.49862944,-29.85110926,1.22258472,118.1353704,-0.2436449507,0.2858392936,0.13119920655,-0.1503394216,0.3714447139,-0.010665398621800002
08:29:27,-0.242134175,0.29249573,-0.10772876499999999,-0.132976875,0.38397574500000003,-0.03369615,-37.49514952,-29.84750483,1.21903476,118.1723782,-0.24525567185,0.2834080088,0.13526136052499999,-0.1505647728,0.37209430245,-0.011283971101900003
08:29:27,-0.24585449999999998,0.2905194,-0.10792869999999999,-0.13274249999999999,0.3847641,-0.033547,-37.4916696,-29.8439004,1.2154848,118.209386,-0.246866393,0.280976724,0.1393235145,-0.150790124,0.372743891,-0.011902543582000002
08:29:27,-0.249574825,0.28854307,-0.108128635,-0.132508125,0.385552455,-0.03339785,-37.48818968,-29.84029597,1.21193484,118.24639379999999,-0.24847711414999998,0.2785454392,0.143385668475,-0.1510154752,0.37339347955,-0.012521116062100001
08:29:27,-0.25329515,0.28656674,-0.10832857,-0.13227375,0.38634081000000003,-0.0332487,-37.48470976,-29.83669154,1.2083848799999999,118.28340159999999,-0.2500878353,0.2761141544,0.14744782245,-0.1512408264,0.3740430681,-0.013139688542200002
08:29:27,-0.257015475,0.28459041,-0.108528505,-0.132039375,0.387129165,-0.03309955,-37.48122984,-29.83308711,1.20483492,118.3204094,-0.25169855645,0.2736828696,0.151509976425,-0.1514661776,0.37469265665,-0.013758261022300003
08:29:27,-0.26073579999999996,0.28261408,-0.10872844,-0.131805,0.38791752,-0.0329504,-37.47774992,-29.829482679999998,1.20128496,118.3574172,-0.2533092776,0.2712515848,0.1555721304,-0.1516915288,0.3753422452,-0.014376833502400002
08:29:27,-0.264456125,0.28063775,-0.108928375,-0.131570625,0.38870587500000003,-0.03280125,-37.47427,-29.82587825,1.197735,118.394425,-0.25491999875,0.2688203,0.159634284375,-0.15191688,0.37599183375,-0.014995405982500001
08:29:27,-0.26817645,0.27866142,-0.10912830999999999,-0.13133625,0.38949423,-0.0326521,-37.47079008,-29.82227382,1.19418504,118.4314328,-0.2565307199,0.2663890152,0.16369643834999997,-0.1521422312,0.37664142230000003,-0.0156139784626
08:29:27,-0.271896775,0.27668509,-0.10932824499999999,-0.131101875,0.390282585,-0.03250295,-37.46731016,-29.81866939,1.19063508,118.4684406,-0.25814144105,0.26395773040000003,0.167758592325,-0.1523675824,0.37729101085,-0.016232550942700003
08:29:27,-0.2756171,0.27470876,-0.10952817999999999,-0.1308675,0.39107094000000003,-0.0323538,-37.46383024,-29.81506496,1.1870851199999999,118.50544839999999,-0.25975216219999997,0.2615264456,0.1718207463,-0.1525929336,0.3779405994,-0.016851123422800002
08:29:27,-0.279337425,0.27273243,-0.10972811499999999,-0.130633125,0.391859295,-0.03220465,-37.460350319999996,-29.811460529999998,1.18353516,118.54245619999999,-0.26136288335,0.2590951608,0.17588290027499998,-0.1528182848,0.37859018795,-0.0174696959029
08:29:27,-0.28305775,0.2707561,-0.10992805,-0.13039875,0.39264765,-0.0320555,-37.4568704,-29.8078561,1.1799852,118.579464,-0.26297360449999996,0.256663876,0.17994505425,-0.153043636,0.3792397765,-0.018088268383000004
08:29:27,-0.28677807499999997,0.26877977,-0.110127985,-0.130164375,0.39343600500000003,-0.03190635,-37.453390479999996,-29.80425167,1.17643524,118.6164718,-0.26458432565,0.2542325912,0.184007208225,-0.1532689872,0.37988936505,-0.018706840863100004
08:29:27,-0.2904984,0.26680344,-0.11032792,-0.12993,0.39422436,-0.0317572,-37.44991056,-29.80064724,1.17288528,118.6534796,-0.2661950468,0.2518013064,0.18806936219999998,-0.1534943384,0.3805389536,-0.019325413343200003
08:29:27,-0.294218725,0.26482711000000003,-0.110527855,-0.129695625,0.395012715,-0.03160805,-37.446430639999996,-29.79704281,1.16933532,118.6904874,-0.26780576795,0.2493700216,0.19213151617500002,-0.15371968960000001,0.38118854215,-0.019943985823300002
08:29:27,-0.29793905,0.26285078,-0.11072778999999999,-0.12946125,0.39580107000000003,-0.0314589,-37.44295072,-29.79343838,1.1657853599999999,118.72749519999999,-0.2694164891,0.2469387368,0.19619367015,-0.1539450408,0.3818381307,-0.0205625583034
08:29:27,-0.30165937499999995,0.26087445,-0.11092772499999999,-0.129226875,0.396589425,-0.03130975,-37.4394708,-29.78983395,1.1622354,118.76450299999999,-0.27102721025,0.24450745200000001,0.20025582412499998,-0.154170392,0.38248771925,-0.021181130783500004
08:29:27,-0.3053797,0.25889812,-0.11112765999999999,-0.1289925,0.39737778,-0.0311606,-37.43599088,-29.78622952,1.15868544,118.8015108,-0.2726379314,0.24207616720000003,0.20431797809999996,-0.1543957432,0.3831373078,-0.021799703263600003
08:29:27,-0.309100025,0.25692179,-0.11132759499999999,-0.128758125,0.39816613500000003,-0.03101145,-37.43251096,-29.78262509,1.15513548,118.8385186,-0.27424865254999997,0.2396448824,0.208380132075,-0.1546210944,0.38378689635,-0.022418275743700002
08:29:27,-0.31282034999999997,0.25494546,-0.11152752999999999,-0.12852375,0.39895449,-0.030862300000000002,-37.42903104,-29.77902066,1.15158552,118.8755264,-0.27585937369999997,0.2372135976,0.21244228604999998,-0.1548464456,0.3844364849,-0.023036848223800005
08:29:27,-0.316540675,0.25296913,-0.111727465,-0.12828937499999998,0.399742845,-0.03071315,-37.42555112,-29.77541623,1.14803556,118.9125342,-0.27747009484999996,0.2347823128,0.21650444002499997,-0.1550717968,0.38508607345,-0.023655420703900004
08:29:27,-0.320261,0.2509928,-0.1119274,-0.128055,0.40053120000000003,-0.030564,-37.4220712,-29.7718118,1.1444855999999999,118.949542,-0.279080816,0.23235102800000001,0.220566594,-0.155297148,0.385735662,-0.024273993184000003
08:29:27,-0.323981325,0.24901647,-0.112127335,-0.127820625,0.40131955500000005,-0.03041485,-37.41859128,-29.76820737,1.14093564,118.98654979999999,-0.28069153715,0.22991974320000003,0.224628747975,-0.1555224992,0.38638525055,-0.024892565664100003
08:29:27,-0.32770164999999996,0.24704014000000002,-0.11232726999999999,-0.12758624999999998,0.40210791,-0.0302657,-37.41511136,-29.76460294,1.13738568,119.0235576,-0.2823022583,0.2274884584,0.22869090194999997,-0.1557478504,0.3870348391,-0.025511138144200002
08:29:27,-0.331421975,0.24506381,-0.11252720499999999,-0.127351875,0.40289626500000003,-0.03011655,-37.41163144,-29.76099851,1.13383572,119.0605654,-0.28391297945,0.2250571736,0.232753055925,-0.1559732016,0.38768442765,-0.026129710624300004
08:29:27,-0.3351423,0.24308748,-0.11272713999999999,-0.1271175,0.40368462000000005,-0.029967399999999998,-37.40815152,-29.75739408,1.13028576,119.0975732,-0.2855237006,0.2226258888,0.2368152099,-0.1561985528,0.3883340162,-0.026748283104400004
08:29:27,-0.338862625,0.24111115,-0.11292707499999999,-0.12688312499999999,0.404472975,-0.02981825,-37.4046716,-29.753789649999998,1.1267358,119.134581,-0.28713442175,0.22019460400000002,0.24087736387499997,-0.156423904,0.38898360475,-0.027366855584500003
08:29:27,-0.34258295,0.23913482,-0.11312701,-0.12664875,0.40526133000000003,-0.0296691,-37.40119168,-29.75018522,1.12318584,119.1715888,-0.2887451429,0.21776331920000003,0.24493951785,-0.1566492552,0.3896331933,-0.027985428064600006
08:29:27,-0.346303275,0.23715849,-0.113326945,-0.126414375,0.40604968500000005,-0.02951995,-37.39771176,-29.74658079,1.11963588,119.20859659999999,-0.29035586404999997,0.2153320344,0.249001671825,-0.1568746064,0.39028278185,-0.028604000544700005
08:29:27,-0.3500236,0.23518216,-0.11352688,-0.12618,0.40683804,-0.029370800000000002,-37.394231839999996,-29.74297636,1.11608592,119.24560439999999,-0.29196658519999996,0.2129007496,0.2530638258,-0.1570999576,0.3909323704,-0.029222573024800004
08:29:27,-0.35374392499999996,0.23320583,-0.113726815,-0.125945625,0.40762639500000003,-0.029221650000000002,-37.39075192,-29.73937193,1.11253596,119.2826122,-0.29357730635,0.2104694648,0.257125979775,-0.1573253088,0.39158195895000003,-0.029841145504900003
08:29:27,-0.35746425,0.2312295,-0.11392675,-0.12571125,0.40841475000000005,-0.0290725,-37.387271999999996,-29.7357675,1.108986,119.31962,-0.29518802749999995,0.20803818000000002,0.26118813375,-0.15755066,0.3922315475,-0.030459717985000002
08:29:27,-0.361184575,0.22925317,-0.11412668499999999,-0.125476875,0.409203105,-0.02892335,-37.38379208,-29.73216307,1.10543604,119.3566278,-0.29679874865,0.20560689520000003,0.265250287725,-0.1577760112,0.39288113605,-0.0310782904651
08:29:27,-0.3649049,0.22727684,-0.11432661999999999,-0.1252425,0.40999146000000003,-0.0287742,-37.38031216,-29.72855864,1.1018860799999999,119.3936356,-0.2984094698,0.2031756104,0.26931244169999996,-0.1580013624,0.3935307246,-0.0316968629452
08:29:27,-0.368625225,0.22530051,-0.11452655499999999,-0.125008125,0.41077981500000005,-0.02862505,-37.37683224,-29.72495421,1.09833612,119.4306434,-0.30002019095,0.2007443256,0.273374595675,-0.1582267136,0.39418031315,-0.03231543542530001
08:29:27,-0.37234555,0.22332417999999998,-0.11472648999999999,-0.12477375,0.41156817,-0.0284759,-37.37335232,-29.72134978,1.09478616,119.46765119999999,-0.3016309121,0.1983130408,0.27743674965,-0.15845206480000001,0.3948299017,-0.032934007905400006
08:29:27,-0.376065875,0.22134785,-0.114926425,-0.124539375,0.41235652500000003,-0.028326749999999998,-37.3698724,-29.71774535,1.0912362,119.504659,-0.30324163325,0.19588175600000002,0.28149890362499996,-0.15867741600000002,0.39547949025,-0.033552580385500005
08:29:27,-0.37978619999999996,0.21937152,-0.11512636,-0.124305,0.41314488000000005,-0.0281776,-37.36639248,-29.71414092,1.08768624,119.5416668,-0.30485235439999997,0.1934504712,0.2855610576,-0.15890276720000002,0.3961290788,-0.034171152865600005
08:29:27,-0.383506525,0.21739519000000002,-0.115326295,-0.12407062499999999,0.413933235,-0.02802845,-37.36291256,-29.71053649,1.08413628,119.5786746,-0.30646307554999996,0.1910191864,0.289623211575,-0.1591281184,0.39677866735,-0.034789725345700004
08:29:27,-0.38722685,0.21541886,-0.11552623,-0.12383625,0.41472159000000003,-0.027879300000000003,-37.35943264,-29.70693206,1.08058632,119.6156824,-0.3080737967,0.1885879016,0.29368536554999997,-0.1593534696,0.39742825589999997,-0.0354082978258
08:29:27,-0.390947175,0.21344253000000002,-0.11572616499999999,-0.123601875,0.41550994500000005,-0.027730150000000002,-37.35595272,-29.70332763,1.07703636,119.6526902,-0.30968451784999995,0.1861566168,0.297747519525,-0.1595788208,0.39807784445,-0.0360268703059
08:29:27,-0.3946675,0.2114662,-0.11592609999999999,-0.12336749999999999,0.4162983,-0.027581,-37.3524728,-29.6997232,1.0734864,119.68969799999999,-0.311295239,0.18372533200000002,0.3018096735,-0.159804172,0.398727433,-0.03664544278600001
08:29:27,-0.39838782500000003,0.20948987,-0.11612603499999999,-0.123133125,0.41708665500000003,-0.02743185,-37.34899288,-29.696118769999998,1.06993644,119.72670579999999,-0.31290596015,0.1812940472,0.30587182747499997,-0.1600295232,0.39937702155,-0.03726401526610001
08:29:27,-0.40210815,0.20751354,-0.11632596999999999,-0.12289875,0.41787501000000005,-0.0272827,-37.34551296,-29.69251434,1.06638648,119.7637136,-0.3145166813,0.1788627624,0.30993398144999995,-0.1602548744,0.4000266101,-0.03788258774620001
08:29:27,-0.40582847499999997,0.20553721,-0.11652590499999999,-0.12266437499999999,0.418663365,-0.02713355,-37.34203304,-29.68890991,1.06283652,119.8007214,-0.31612740245,0.1764314776,0.313996135425,-0.1604802256,0.40067619865,-0.038501160226300006
08:29:27,-0.4095488,0.20356088,-0.11672584,-0.12243,0.41945172000000003,-0.0269844,-37.33855312,-29.68530548,1.0592865599999999,119.8377292,-0.3177381236,0.1740001928,0.31805828939999997,-0.1607055768,0.4013257872,-0.039119732706400005
08:29:27,-0.413269125,0.20158455,-0.116925775,-0.122195625,0.42024007500000005,-0.026835249999999998,-37.3350732,-29.68170105,1.0557366,119.874737,-0.31934884474999997,0.17156890800000002,0.32212044337499995,-0.160930928,0.40197537575,-0.039738305186500004
08:29:27,-0.41698945,0.19960822,-0.11712571,-0.12196125,0.42102843,-0.0266861,-37.33159328,-29.678096619999998,1.05218664,119.9117448,-0.32095956589999997,0.1691376232,0.32618259735,-0.1611562792,0.4026249643,-0.040356877666600004
08:29:27,-0.42070977499999995,0.19763189,-0.11732564499999999,-0.121726875,0.421816785,-0.02653695,-37.32811336,-29.67449219,1.04863668,119.94875259999999,-0.32257028704999996,0.16670633840000001,0.330244751325,-0.1613816304,0.40327455285,-0.0409754501467
08:29:27,-0.4244301,0.19565556,-0.11752557999999999,-0.1214925,0.42260514000000005,-0.026387800000000003,-37.32463344,-29.67088776,1.04508672,119.9857604,-0.32418100819999995,0.1642750536,0.33430690529999996,-0.1616069816,0.4039241414,-0.0415940226268
08:29:27,-0.428150425,0.19367923,-0.11772551499999999,-0.121258125,0.423393495,-0.026238650000000002,-37.32115352,-29.66728333,1.04153676,120.0227682,-0.32579172935,0.1618437688,0.338369059275,-0.1618323328,0.40457372995,-0.04221259510690001
08:29:27,-0.43187074999999997,0.1917029,-0.11792544999999999,-0.12102375,0.42418185,-0.0260895,-37.3176736,-29.6636789,1.0379868,120.059776,-0.32740245049999994,0.15941248400000002,0.34243121325,-0.162057684,0.4052233185,-0.04283116758700001
08:29:27,-0.435591075,0.18972657,-0.118125385,-0.120789375,0.42497020500000005,-0.02594035,-37.31419368,-29.66007447,1.03443684,120.0967838,-0.32901317165,0.1569811992,0.34649336722499996,-0.1622830352,0.40587290705,-0.04344974006710001
08:29:27,-0.43931139999999996,0.18775024,-0.11832532,-0.120555,0.42575856,-0.0257912,-37.31071376,-29.65647004,1.03088688,120.1337916,-0.3306238928,0.15454991440000002,0.35055552119999994,-0.1625083864,0.4065224956,-0.044068312547200006
08:29:27,-0.443031725,0.18577391,-0.118525255,-0.120320625,0.426546915,-0.02564205,-37.30723384,-29.65286561,1.02733692,120.17079939999999,-0.33223461395,0.1521186296,0.354617675175,-0.1627337376,0.40717208415,-0.044686885027300005
08:29:27,-0.44675205,0.18379758,-0.11872519,-0.12008625,0.42733527000000004,-0.0254929,-37.30375392,-29.64926118,1.02378696,120.20780719999999,-0.3338453351,0.1496873448,0.35867982914999996,-0.1629590888,0.4078216727,-0.045305457507400004
08:29:27,-0.450472375,0.18182125,-0.11892512499999999,-0.119851875,0.428123625,-0.025343749999999998,-37.300274,-29.64565675,1.020237,120.244815,-0.33545605624999997,0.14725606000000002,0.36274198312499994,-0.16318444000000001,0.40847126125,-0.045924029987500004
08:29:27,-0.4541927,0.17984492,-0.11912505999999999,-0.1196175,0.42891198,-0.0251946,-37.29679408,-29.64205232,1.0166870399999999,120.2818228,-0.33706677739999996,0.1448247752,0.3668041371,-0.16340979120000002,0.4091208498,-0.04654260246760001
08:29:27,-0.457913025,0.17786859,-0.11932499499999999,-0.11938312499999999,0.42970033500000004,-0.02504545,-37.29331416,-29.63844789,1.01313708,120.3188306,-0.33867749854999996,0.14239349040000002,0.37086629107499997,-0.1636351424,0.40977043835,-0.04716117494770001
08:29:27,-0.46163335,0.17589226,-0.11952492999999999,-0.11914875,0.43048869,-0.0248963,-37.28983424,-29.63484346,1.00958712,120.3558384,-0.3402882197,0.1399622056,0.37492844504999995,-0.1638604936,0.4104200269,-0.04777974742780001
08:29:27,-0.46535367499999997,0.17391593,-0.11972486499999999,-0.11891437499999999,0.431277045,-0.024747150000000002,-37.28635432,-29.63123903,1.00603716,120.3928462,-0.34189894084999994,0.1375309208,0.378990599025,-0.1640858448,0.41106961545,-0.04839831990790001
08:29:27,-0.469074,0.1719396,-0.1199248,-0.11868,0.43206540000000004,-0.024598000000000002,-37.2828744,-29.6276346,1.0024872,120.42985399999999,-0.343509662,0.13509963600000002,0.38305275299999997,-0.164311196,0.411719204,-0.04901689238800001
08:29:27,-0.472794325,0.16996327,-0.120124735,-0.118445625,0.432853755,-0.02444885,-37.27939448,-29.62403017,0.9989372400000001,120.4668618,-0.34512038314999993,0.1326683512,0.38711490697499995,-0.1645365472,0.41236879255,-0.049635464868100006
08:29:27,-0.47651465,0.16798694,-0.12032467,-0.11821124999999999,0.43364211,-0.0242997,-37.27591456,-29.620425739999998,0.99538728,120.5038696,-0.3467311043,0.13023706640000002,0.39117706095,-0.1647618984,0.4130183811,-0.050254037348200005
08:29:27,-0.480234975,0.16601061,-0.12052460499999999,-0.117976875,0.43443046500000004,-0.02415055,-37.27243464,-29.61682131,0.99183732,120.5408774,-0.34834182545,0.1278057816,0.39523921492499997,-0.1649872496,0.41366796964999997,-0.050872609828300004
08:29:27,-0.4839553,0.16403428,-0.12072453999999999,-0.1177425,0.43521882,-0.0240014,-37.26895472,-29.61321688,0.98828736,120.5778852,-0.34995254659999997,0.1253744968,0.39930136889999995,-0.1652126008,0.4143175582,-0.0514911823084
08:29:27,-0.487675625,0.16205795,-0.12092447499999999,-0.11750812499999999,0.436007175,-0.02385225,-37.2654748,-29.60961245,0.9847374,120.614893,-0.35156326774999996,0.122943212,0.403363522875,-0.165437952,0.41496714675,-0.05210975478850001
08:29:27,-0.49139594999999997,0.16008162,-0.12112440999999999,-0.11727375,0.43679553000000004,-0.0237031,-37.26199488,-29.60600802,0.98118744,120.65190079999999,-0.35317398889999996,0.12051192720000001,0.40742567685,-0.1656633032,0.4156167353,-0.05272832726860001
08:29:27,-0.495116275,0.15810529,-0.12132434499999999,-0.117039375,0.437583885,-0.02355395,-37.25851496,-29.602403589999998,0.9776374800000001,120.68890859999999,-0.35478471005,0.11808064240000002,0.41148783082499996,-0.1658886544,0.41626632385,-0.05334689974870001
08:29:27,-0.4988366,0.15612895999999998,-0.12152427999999998,-0.11680499999999999,0.43837224,-0.0234048,-37.25503504,-29.59879916,0.97408752,120.7259164,-0.35639543119999995,0.1156493576,0.4155499848,-0.1661140056,0.4169159124,-0.05396547222880001
08:29:27,-0.5025569249999999,0.15415262999999998,-0.121724215,-0.116570625,0.43916059500000004,-0.023255650000000003,-37.25155512,-29.59519473,0.97053756,120.7629242,-0.35800615235,0.11321807280000001,0.419612138775,-0.1663393568,0.41756550095,-0.054584044708900006
08:29:27,-0.50627725,0.1521763,-0.12192415,-0.11633625,0.43994895,-0.023106500000000002,-37.2480752,-29.5915903,0.9669876,120.799932,-0.35961687349999993,0.110786788,0.42367429274999996,-0.166564708,0.41821508949999997,-0.055202617189000006
08:29:27,-0.509997575,0.15019997,-0.122124085,-0.116101875,0.440737305,-0.02295735,-37.24459528,-29.58798587,0.96343764,120.8369398,-0.36122759465,0.10835550320000001,0.42773644672499994,-0.1667900592,0.41886467805,-0.055821189669100005
08:29:27,-0.5137179000000001,0.14822364,-0.12232401999999999,-0.1158675,0.44152566000000004,-0.0228082,-37.24111536,-29.58438144,0.95988768,120.8739476,-0.3628383158,0.10592421840000002,0.4317986007,-0.1670154104,0.4195142666,-0.05643976214920001
08:29:27,-0.517438225,0.14624731,-0.12252395499999999,-0.115633125,0.442314015,-0.02265905,-37.23763544,-29.58077701,0.9563377200000001,120.91095539999999,-0.36444903694999997,0.1034929336,0.43586075467499996,-0.1672407616,0.42016385515,-0.05705833462930001
08:29:27,-0.52115855,0.14427098,-0.12272388999999999,-0.11539875,0.44310237,-0.0225099,-37.23415552,-29.57717258,0.95278776,120.9479632,-0.36605975809999997,0.10106164880000001,0.43992290864999994,-0.1674661128,0.4208134437,-0.05767690710940001
08:29:27,-0.524878875,0.14229465,-0.12292382499999999,-0.115164375,0.44389072500000004,-0.02236075,-37.2306756,-29.57356815,0.9492378,120.984971,-0.36767047924999996,0.098630364,0.443985062625,-0.167691464,0.42146303225,-0.05829547958950001
08:29:27,-0.5285991999999999,0.14031832,-0.12312376,-0.11493,0.44467908,-0.0222116,-37.22719568,-29.56996372,0.94568784,121.0219788,-0.3692812004,0.09619907920000001,0.44804721659999996,-0.1679168152,0.4221126208,-0.05891405206960001
08:29:27,-0.532319525,0.13834199,-0.12332369499999998,-0.114695625,0.445467435,-0.02206245,-37.22371576,-29.56635929,0.94213788,121.0589866,-0.37089192154999995,0.09376779440000002,0.45210937057499995,-0.16814216640000001,0.42276220935,-0.05953262454970001
08:29:27,-0.53603985,0.13636566,-0.12352363,-0.11446125,0.44625579000000004,-0.0219133,-37.22023584,-29.56275486,0.93858792,121.0959944,-0.3725026427,0.0913365096,0.45617152455,-0.16836751760000002,0.4234117979,-0.060151197029800006
08:29:27,-0.5397601750000001,0.13438933,-0.123723565,-0.114226875,0.447044145,-0.021764150000000003,-37.21675592,-29.55915043,0.9350379600000001,121.13300219999999,-0.37411336384999994,0.08890522480000002,0.46023367852499997,-0.16859286880000002,0.42406138645,-0.060769769509900005
08:29:27,-0.5434805,0.132413,-0.12392349999999999,-0.1139925,0.4478325,-0.021615000000000002,-37.213276,-29.555546,0.931488,121.17000999999999,-0.375724085,0.08647394,0.46429583249999995,-0.16881822000000002,0.424710975,-0.061388341990000005
08:29:27,-0.547200825,0.13043667,-0.12412343499999999,-0.113758125,0.44862085500000004,-0.02146585,-37.209796080000004,-29.55194157,0.92793804,121.2070178,-0.37733480615,0.08404265520000001,0.468357986475,-0.16904357120000002,0.42536056354999996,-0.06200691447010001
08:29:27,-0.55092115,0.12846034,-0.12432336999999999,-0.11352374999999999,0.44940921,-0.0213167,-37.20631616,-29.54833714,0.92438808,121.2440256,-0.3789455273,0.08161137040000002,0.47242014044999997,-0.1692689224,0.4260101521,-0.0626254869502
08:29:27,-0.5546414749999999,0.12648401,-0.12452330499999999,-0.113289375,0.450197565,-0.02116755,-37.20283624,-29.544732709999998,0.92083812,121.2810334,-0.38055624844999997,0.0791800856,0.47648229442499995,-0.1694942736,0.42665974065,-0.0632440594303
08:29:27,-0.5583617999999999,0.12450768000000001,-0.12472323999999999,-0.11305499999999999,0.45098592000000004,-0.0210184,-37.19935632,-29.54112828,0.91728816,121.3180412,-0.38216696959999996,0.07674880080000002,0.48054444839999993,-0.1697196248,0.4273093292,-0.0638626319104
08:29:27,-0.562082125,0.12253134999999998,-0.124923175,-0.112820625,0.451774275,-0.020869250000000002,-37.1958764,-29.53752385,0.9137382000000001,121.355049,-0.38377769074999996,0.07431751600000003,0.484606602375,-0.169944976,0.42795891775,-0.06448120439050001
08:29:27,-0.5658024500000001,0.12055501999999998,-0.12512310999999998,-0.11258625,0.45256263,-0.0207201,-37.19239648,-29.53391942,0.91018824,121.39205679999999,-0.38538841189999995,0.07188623119999998,0.48866875634999996,-0.1701703272,0.4286085063,-0.0650997768706
08:29:27,-0.569522775,0.11857868999999999,-0.125323045,-0.11235187499999999,0.45335098500000004,-0.02057095,-37.18891656,-29.53031499,0.90663828,121.4290646,-0.38699913305,0.0694549464,0.49273091032499994,-0.1703956784,0.42925809485,-0.0657183493507
08:29:27,-0.5732431,0.11660235999999999,-0.12552297999999998,-0.1121175,0.45413934,-0.0204218,-37.18543664,-29.526710559999998,0.9030883199999999,121.4660724,-0.38860985419999994,0.0670236616,0.4967930643,-0.1706210296,0.42990768339999996,-0.0663369218308
08:29:27,-0.576963425,0.11462602999999999,-0.125722915,-0.111883125,0.454927695,-0.02027265,-37.18195672,-29.52310613,0.89953836,121.5030802,-0.39022057535,0.06459237680000002,0.500855218275,-0.1708463808,0.43055727195,-0.0669554943109
08:29:27,-0.5806837499999999,0.11264969999999999,-0.12592284999999998,-0.11164874999999999,0.45571605000000004,-0.0201235,-37.1784768,-29.5195017,0.8959884,121.540088,-0.3918312964999999,0.06216109200000003,0.50491737225,-0.171071732,0.4312068605,-0.067574066791
08:29:27,-0.5844040749999999,0.11067337,-0.126122785,-0.111414375,0.456504405,-0.019974350000000002,-37.17499688,-29.51589727,0.89243844,121.5770958,-0.39344201765,0.059729807199999985,0.508979526225,-0.1712970832,0.43185644905,-0.0681926392711
08:29:27,-0.5881244,0.10869704,-0.12632272,-0.11118,0.45729276,-0.0198252,-37.17151696,-29.51229284,0.88888848,121.61410359999999,-0.39505273879999997,0.057298522399999996,0.5130416802,-0.1715224344,0.4325060376,-0.0688112117512
08:29:27,-0.5918447250000001,0.10672071,-0.12652265499999998,-0.11094562499999999,0.45808111500000004,-0.01967605,-37.16803704,-29.50868841,0.88533852,121.65111139999999,-0.39666345994999996,0.05486723760000001,0.5171038341749999,-0.1717477856,0.43315562615,-0.0694297842313
08:29:27,-0.59556505,0.10474438,-0.12672259,-0.11071125,0.45886947,-0.0195269,-37.16455712,-29.50508398,0.8817885599999999,121.6881192,-0.39827418109999996,0.05243595280000002,0.52116598815,-0.1719731368,0.4338052147,-0.0700483567114
08:29:27,-0.599285375,0.10276805,-0.12692252499999998,-0.110476875,0.459657825,-0.01937775,-37.1610772,-29.50147955,0.8782386,121.725127,-0.39988490224999995,0.05000466800000003,0.525228142125,-0.172198488,0.43445480324999997,-0.0706669291915
08:29:27,-0.6030057,0.10079172,-0.12712246,-0.1102425,0.46044618000000004,-0.019228600000000002,-37.15759728,-29.49787512,0.87468864,121.7621348,-0.4014956234,0.047573383199999986,0.5292902961,-0.1724238392,0.4351043918,-0.0712855016716
08:29:27,-0.606726025,0.09881539,-0.12732239499999998,-0.110008125,0.461234535,-0.01907945,-37.15411736,-29.49427069,0.87113868,121.7991426,-0.40310634454999994,0.0451420984,0.533352450075,-0.1726491904,0.43575398035,-0.0719040741517
08:29:27,-0.6104463499999999,0.09683906,-0.12752233,-0.10977375,0.46202289,-0.0189303,-37.150637440000004,-29.49066626,0.8675887200000001,121.8361504,-0.4047170657,0.04271081360000001,0.53741460405,-0.17287454160000001,0.4364035689,-0.0725226466318
08:29:27,-0.614166675,0.09486273,-0.127722265,-0.109539375,0.46281124500000004,-0.01878115,-37.14715752,-29.48706183,0.86403876,121.87315819999999,-0.40632778684999993,0.04027952880000002,0.541476758025,-0.17309989280000002,0.43705315745,-0.0731412191119
08:29:27,-0.6178870000000001,0.09288639999999998,-0.12792219999999999,-0.109305,0.4635996,-0.018632,-37.143677600000004,-29.4834574,0.8604887999999999,121.910166,-0.407938508,0.03784824400000003,0.545538912,-0.17332524400000002,0.437702746,-0.07375979159200001
08:29:27,-0.621607325,0.09091006999999998,-0.128122135,-0.109070625,0.464387955,-0.018482850000000002,-37.14019768,-29.47985297,0.85693884,121.9471738,-0.40954922914999997,0.03541695919999999,0.549601065975,-0.17355059520000002,0.43835233455,-0.07437836407210001
08:29:27,-0.62532765,0.08893373999999998,-0.12832206999999998,-0.10883625,0.46517631000000004,-0.0183337,-37.13671776,-29.47624854,0.85338888,121.9841816,-0.41115995029999997,0.0329856744,0.55366321995,-0.1737759464,0.43900192309999997,-0.07499693655220001
08:29:27,-0.629047975,0.08695740999999998,-0.128522005,-0.108601875,0.465964665,-0.01818455,-37.13323784,-29.47264411,0.84983892,122.0211894,-0.41277067144999996,0.03055438960000001,0.557725373925,-0.1740012976,0.43965151165,-0.07561550903230001
08:29:27,-0.6327683,0.08498107999999999,-0.12872193999999998,-0.1083675,0.46675302,-0.0180354,-37.12975792,-29.469039679999998,0.8462889600000001,122.0581972,-0.41438139259999995,0.02812310480000002,0.5617875279,-0.1742266488,0.4403011002,-0.0762340815124
08:29:27,-0.6364886249999999,0.08300474999999999,-0.128921875,-0.108133125,0.46754137500000004,-0.01788625,-37.126278,-29.46543525,0.842739,122.09520499999999,-0.41599211374999995,0.025691820000000032,0.5658496818750001,-0.174452,0.44095068875,-0.0768526539925
08:29:27,-0.64020895,0.08102841999999999,-0.12912181,-0.10789875,0.46832973,-0.017737100000000002,-37.12279808,-29.46183082,0.8391890399999999,122.13221279999999,-0.41760283489999994,0.023260535199999988,0.56991183585,-0.1746773512,0.4416002773,-0.0774712264726
08:29:27,-0.643929275,0.07905209000000002,-0.129321745,-0.10766437499999999,0.469118085,-0.01758795,-37.11931816,-29.45822639,0.83563908,122.1692206,-0.41921355605,0.0208292504,0.573973989825,-0.1749027024,0.44224986585,-0.0780897989527
08:29:27,-0.6476496,0.07707576,-0.12952168,-0.10743,0.46990644000000004,-0.0174388,-37.11583824,-29.45462196,0.83208912,122.2062284,-0.42082427719999993,0.01839796560000001,0.5780361438,-0.1751280536,0.4428994544,-0.0787083714328
08:29:27,-0.651369925,0.07509942999999997,-0.12972161499999998,-0.107195625,0.470694795,-0.01728965,-37.11235832,-29.45101753,0.82853916,122.2432362,-0.42243499835,0.01596668080000002,0.582098297775,-0.1753534048,0.44354904294999997,-0.0793269439129
08:29:27,-0.65509025,0.0731231,-0.12992155,-0.10696125,0.47148315,-0.0171405,-37.1088784,-29.4474131,0.8249892000000001,122.280244,-0.4240457194999999,0.013535396000000033,0.58616045175,-0.175578756,0.4441986315,-0.079945516393
08:29:27,-0.658810575,0.07114676999999997,-0.13012148499999998,-0.106726875,0.47227150500000004,-0.016991350000000002,-37.10539848,-29.44380867,0.82143924,122.3172518,-0.42565644064999997,0.011104111199999989,0.590222605725,-0.1758041072,0.44484822005,-0.0805640888731
08:29:27,-0.6625308999999999,0.06917044,-0.13032142,-0.10649249999999999,0.47305986,-0.0168422,-37.10191856,-29.44020424,0.8178892799999999,122.35425959999999,-0.42726716179999996,0.0086728264,0.5942847597,-0.1760294584,0.4454978086,-0.0811826613532
08:29:27,-0.666251225,0.06719410999999997,-0.13052135499999998,-0.106258125,0.473848215,-0.01669305,-37.09843864,-29.43659981,0.81433932,122.3912674,-0.42887788294999996,0.006241541600000011,0.598346913675,-0.1762548096,0.44614739714999996,-0.0818012338333
08:29:27,-0.66997155,0.06521778,-0.13072129,-0.10602375,0.47463657000000004,-0.0165439,-37.09495872,-29.43299538,0.81078936,122.4282752,-0.43048860409999995,0.0038102568000000225,0.60240906765,-0.1764801608,0.4467969857,-0.0824198063134
08:29:27,-0.673691875,0.06324144999999998,-0.13092122499999997,-0.10578937499999999,0.475424925,-0.01639475,-37.091478800000004,-29.42939095,0.8072394,122.465283,-0.43209932524999994,0.0013789720000000338,0.606471221625,-0.176705512,0.44744657425,-0.0830383787935
08:29:27,-0.6774122,0.061265120000000006,-0.13112116,-0.105555,0.47621328,-0.016245600000000002,-37.08799888,-29.42578652,0.8036894400000001,122.5022908,-0.4337100464,-0.0010523128000000104,0.6105333756,-0.1769308632,0.4480961628,-0.0836569512736
08:29:27,-0.681132525,0.05928878999999998,-0.131321095,-0.105320625,0.47700163500000003,-0.01609645,-37.084518960000004,-29.42218209,0.80013948,122.5392986,-0.43532076754999993,-0.003483597599999999,0.614595529575,-0.1771562144,0.44874575135,-0.08427552375370001
08:29:27,-0.68485285,0.05731246000000001,-0.13152102999999998,-0.10508624999999999,0.47778999,-0.0159473,-37.08103904,-29.41857766,0.7965895199999999,122.57630639999999,-0.4369314887,-0.005914882399999988,0.6186576835500001,-0.1773815656,0.44939533989999997,-0.08489409623380001
08:29:27,-0.6885731749999999,0.05533612999999998,-0.131720965,-0.104851875,0.478578345,-0.01579815,-37.077559120000004,-29.41497323,0.79303956,122.61331419999999,-0.4385422098499999,-0.008346167199999976,0.622719837525,-0.17760691680000001,0.45004492845,-0.08551266871390001
08:29:27,-0.6922934999999999,0.05335980000000001,-0.13192089999999998,-0.1046175,0.47936670000000003,-0.015649,-37.0740792,-29.411368799999998,0.7894896,122.650322,-0.44015293099999997,-0.010777451999999965,0.6267819915,-0.17783226800000002,0.45069451699999996,-0.08613124119400001
08:29:27,-0.6960138250000001,0.05138346999999999,-0.132120835,-0.104383125,0.480155055,-0.015499850000000003,-37.07059928,-29.40776437,0.78593964,122.6873298,-0.44176365214999996,-0.01320873680000001,0.630844145475,-0.17805761920000002,0.45134410555,-0.08674981367410001
08:29:27,-0.69973415,0.049407140000000016,-0.13232076999999998,-0.10414875,0.48094341,-0.015350700000000002,-37.06711936,-29.40415994,0.78238968,122.7243376,-0.44337437329999996,-0.015640021599999998,0.63490629945,-0.17828297040000002,0.4519936941,-0.0873683861542
08:29:27,-0.703454475,0.04743080999999999,-0.132520705,-0.103914375,0.48173176500000003,-0.015201550000000001,-37.06363944,-29.40055551,0.77883972,122.7613454,-0.44498509444999995,-0.018071306399999987,0.638968453425,-0.17850832160000002,0.45264328265,-0.0879869586343
08:29:27,-0.7071748,0.04545448000000002,-0.13272064,-0.10368,0.48252012,-0.0150524,-37.06015952,-29.39695108,0.77528976,122.7983532,-0.44659581559999995,-0.020502591199999975,0.6430306074,-0.17873367280000002,0.4532928712,-0.0886055311144
08:29:27,-0.710895125,0.04347814999999999,-0.13292057499999999,-0.103445625,0.483308475,-0.01490325,-37.0566796,-29.393346649999998,0.7717398,122.83536099999999,-0.44820653674999994,-0.022933875999999964,0.647092761375,-0.17895902400000002,0.45394245974999997,-0.0892241035945
08:29:27,-0.7146154499999999,0.04150181999999997,-0.13312051,-0.10321125,0.48409683000000003,-0.014754100000000003,-37.05319968,-29.38974222,0.76818984,122.8723688,-0.44981725789999993,-0.02536516080000001,0.65115491535,-0.17918437520000002,0.4545920483,-0.0898426760746
08:29:27,-0.7183357749999999,0.039525489999999996,-0.13332044499999998,-0.102976875,0.484885185,-0.014604950000000002,-37.04971976,-29.38613779,0.76463988,122.9093766,-0.45142797905,-0.027796445599999997,0.655217069325,-0.17940972640000002,0.45524163684999996,-0.0904612485547
08:29:27,-0.7220561000000001,0.03754915999999997,-0.13352038,-0.1027425,0.48567354,-0.014455800000000001,-37.04623984,-29.38253336,0.76108992,122.9463844,-0.4530387001999999,-0.030227730399999986,0.6592792233,-0.1796350776,0.4558912254,-0.0910798210348
08:29:27,-0.7257764250000001,0.03557283,-0.13372031499999998,-0.102508125,0.48646189500000003,-0.01430665,-37.04275992,-29.37892893,0.75753996,122.9833922,-0.45464942134999997,-0.032659015199999974,0.663341377275,-0.1798604288,0.45654081395,-0.0916983935149
08:29:27,-0.72949675,0.033596499999999974,-0.13392025,-0.10227375,0.48725025,-0.0141575,-37.039280000000005,-29.375324499999998,0.75399,123.0204,-0.4562601424999999,-0.03509029999999996,0.66740353125,-0.18008578,0.4571904025,-0.092316965995
08:29:27,-0.733217075,0.03162017,-0.134120185,-0.10203937499999999,0.488038605,-0.01400835,-37.03580008,-29.37172007,0.75044004,123.0574078,-0.45787086364999996,-0.03752158480000001,0.671465685225,-0.1803111312,0.45783999105,-0.0929355384751
08:29:27,-0.7369374,0.029643839999999977,-0.13432012,-0.101805,0.48882696000000003,-0.013859200000000002,-37.032320160000005,-29.36811564,0.74689008,123.09441559999999,-0.45948158479999995,-0.039952869599999996,0.6755278392,-0.1805364824,0.4584895796,-0.09355411095520001
08:29:27,-0.7406577249999999,0.027667510000000006,-0.134520055,-0.101570625,0.489615315,-0.013710050000000001,-37.02884024,-29.36451121,0.74334012,123.1314234,-0.46109230594999995,-0.042384154399999985,0.679589993175,-0.1807618336,0.45913916815,-0.09417268343530001
08:29:27,-0.7443780499999999,0.02569117999999998,-0.13471998999999998,-0.10133624999999999,0.49040367,-0.0135609,-37.025360320000004,-29.36090678,0.73979016,123.1684312,-0.46270302709999994,-0.044815439199999973,0.68365214715,-0.1809871848,0.45978875669999997,-0.09479125591540001
08:29:27,-0.7480983750000001,0.02371485000000001,-0.134919925,-0.10110187500000001,0.49119202500000003,-0.01341175,-37.0218804,-29.35730235,0.7362402,123.205439,-0.46431374824999994,-0.04724672399999996,0.687714301125,-0.181212536,0.46043834525,-0.09540982839550001
08:29:27,-0.7518187000000001,0.021738519999999983,-0.13511985999999998,-0.1008675,0.49198038,-0.0132626,-37.018400480000004,-29.35369792,0.73269024,123.2424468,-0.4659244694,-0.049678008800000006,0.6917764551,-0.1814378872,0.4610879338,-0.09602840087560001
08:29:27,-0.755539025,0.019762190000000013,-0.135319795,-0.10063312499999999,0.492768735,-0.013113450000000002,-37.01492056,-29.35009349,0.72914028,123.2794546,-0.4675351905499999,-0.052109293599999995,0.6958386090750001,-0.1816632384,0.46173752235,-0.09664697335570001
08:29:27,-0.75925935,0.017785859999999987,-0.13551973,-0.10039875,0.49355709000000003,-0.012964300000000002,-37.011440640000004,-29.34648906,0.72559032,123.31646239999999,-0.4691459117,-0.054540578399999984,0.69990076305,-0.1818885896,0.46238711089999995,-0.09726554583580001
08:29:27,-0.762979675,0.015809530000000016,-0.135719665,-0.100164375,0.494345445,-0.01281515,-37.00796072,-29.34288463,0.72204036,123.3534702,-0.4707566328499999,-0.05697186319999997,0.703962917025,-0.1821139408,0.46303669945,-0.0978841183159
08:29:27,-0.7666999999999999,0.01383319999999999,-0.13591959999999997,-0.09992999999999999,0.4951338,-0.012666,-37.0044808,-29.3392802,0.7184904000000001,123.390478,-0.47236735399999996,-0.05940314799999996,0.708025071,-0.18233929200000001,0.463686288,-0.098502690796
08:29:27,-0.7704203249999999,0.011856869999999964,-0.13611953499999999,-0.099695625,0.49592215500000003,-0.01251685,-37.00100088,-29.335675769999998,0.71494044,123.4274858,-0.4739780751499999,-0.061834432800000005,0.712087224975,-0.18256464320000002,0.46433587654999997,-0.0991212632761
08:29:27,-0.7741406500000001,0.009880539999999993,-0.13631947,-0.09946125,0.49671051,-0.012367700000000002,-36.99752096,-29.33207134,0.71139048,123.4644936,-0.47558879629999995,-0.0642657176,0.71614937895,-0.18278999440000002,0.4649854651,-0.0997398357562
08:29:27,-0.7778609750000001,0.007904209999999967,-0.13651940499999998,-0.09922687499999999,0.497498865,-0.012218550000000002,-36.99404104,-29.32846691,0.7078405200000001,123.5015014,-0.47719951745,-0.06669700239999998,0.720211532925,-0.18301534560000002,0.46563505364999996,-0.1003584082363
08:29:27,-0.7815813,0.0059278799999999965,-0.13671934,-0.0989925,0.49828722000000003,-0.012069400000000001,-36.99056112,-29.32486248,0.70429056,123.5385092,-0.47881023859999994,-0.06912828719999997,0.7242736869,-0.18324069680000002,0.4662846422,-0.1009769807164
08:29:27,-0.785301625,0.00395154999999997,-0.13691927499999998,-0.098758125,0.499075575,-0.01192025,-36.9870812,-29.32125805,0.7007406,123.575517,-0.48042095975,-0.07155957200000002,0.728335840875,-0.183466048,0.46693423074999996,-0.1015955531965
08:29:27,-0.78902195,0.0019752199999999998,-0.13711921,-0.09852375,0.49986393,-0.0117711,-36.98360128,-29.317653619999998,0.6971906400000001,123.6125248,-0.4820316808999999,-0.0739908568,0.73239799485,-0.1836913992,0.4675838193,-0.1022141256766
08:29:27,-0.7927422749999999,-1.1100000000263677e-06,-0.13731914499999998,-0.098289375,0.500652285,-0.011621950000000002,-36.980121360000005,-29.31404919,0.69364068,123.6495326,-0.48364240205,-0.0764221416,0.736460148825,-0.1839167504,0.46823340785,-0.1028326981567
08:29:27,-0.7964625999999999,-0.001977439999999997,-0.13751908,-0.098055,0.50144064,-0.011472800000000002,-36.97664144,-29.31044476,0.69009072,123.6865404,-0.4852531231999999,-0.07885342639999998,0.7405223028,-0.1841421016,0.4688829964,-0.1034512706368
08:29:27,-0.8001829250000001,-0.003953770000000023,-0.137719015,-0.097820625,0.5022289950000001,-0.011323650000000001,-36.973161520000005,-29.30684033,0.6865407600000001,123.7235482,-0.48686384434999996,-0.08128471119999997,0.744584456775,-0.1843674528,0.46953258495,-0.10406984311690001
08:29:27,-0.8039032500000001,-0.005930099999999994,-0.13791894999999998,-0.09758625,0.50301735,-0.0111745,-36.9696816,-29.3032359,0.6829908,123.760556,-0.4884745654999999,-0.08371599600000001,0.74864661075,-0.184592804,0.47018217349999997,-0.10468841559700001
08:29:27,-0.807623575,-0.00790643000000002,-0.138118885,-0.097351875,0.503805705,-0.01102535,-36.966201680000005,-29.29963147,0.67944084,123.79756379999999,-0.49008528664999995,-0.0861472808,0.752708764725,-0.1848181552,0.47083176205,-0.10530698807710001
08:29:27,-0.8113439,-0.00988275999999999,-0.13831881999999998,-0.0971175,0.5045940600000001,-0.010876200000000003,-36.96272176,-29.29602704,0.6758908800000001,123.8345716,-0.4916960077999999,-0.08857856559999999,0.7567709187,-0.1850435064,0.47148135059999996,-0.10592556055720001
08:29:27,-0.815064225,-0.011859090000000017,-0.138518755,-0.096883125,0.505382415,-0.010727050000000002,-36.959241840000004,-29.29242261,0.67234092,123.8715794,-0.49330672894999994,-0.09100985039999998,0.760833072675,-0.1852688576,0.47213093915,-0.10654413303730001
08:29:27,-0.8187845499999999,-0.013835419999999987,-0.13871868999999998,-0.09664875,0.50617077,-0.010577900000000001,-36.95576192,-29.28881818,0.66879096,123.9085872,-0.4949174501,-0.09344113519999997,0.76489522665,-0.1854942088,0.4727805277,-0.10716270551740001
08:29:27,-0.8225048749999999,-0.015811750000000013,-0.138918625,-0.096414375,0.5069591250000001,-0.01042875,-36.952282000000004,-29.28521375,0.6652410000000001,123.945595,-0.49652817124999993,-0.09587242000000001,0.768957380625,-0.18571956,0.47343011625,-0.10778127799750001
08:29:27,-0.8262252000000001,-0.01778808000000004,-0.13911856,-0.09618,0.50774748,-0.0102796,-36.94880208,-29.28160932,0.66169104,123.9826028,-0.4981388924,-0.0983037048,0.7730195346000001,-0.1859449112,0.4740797048,-0.10839985047760001
08:29:27,-0.8299455250000001,-0.01976441000000001,-0.139318495,-0.095945625,0.508535835,-0.010130450000000003,-36.94532216,-29.27800489,0.65814108,124.0196106,-0.4997496135499999,-0.10073498959999999,0.777081688575,-0.1861702624,0.47472929334999997,-0.1090184229577
08:29:27,-0.83366585,-0.021740740000000036,-0.13951842999999997,-0.09571125,0.5093241900000001,-0.009981300000000002,-36.94184224,-29.27440046,0.6545911200000001,124.0566184,-0.5013603347,-0.10316627439999998,0.78114384255,-0.1863956136,0.4753788819,-0.1096369954378
08:29:27,-0.837386175,-0.023717070000000007,-0.13971836499999998,-0.09547687499999999,0.510112545,-0.009832150000000001,-36.93836232,-29.27079603,0.65104116,124.0936262,-0.5029710558499999,-0.10559755919999997,0.785205996525,-0.1866209648,0.47602847044999996,-0.1102555679179
08:29:27,-0.8411065,-0.025693400000000033,-0.1399183,-0.09524250000000001,0.5109009,-0.009683,-36.9348824,-29.2671916,0.6474912,124.130634,-0.504581777,-0.10802884400000001,0.7892681505,-0.186846316,0.476678059,-0.110874140398
08:29:27,-0.844826825,-0.027669730000000003,-0.14011823499999998,-0.095008125,0.5116892550000001,-0.00953385,-36.93140248,-29.26358717,0.6439412400000001,124.1676418,-0.5061924981499999,-0.1104601288,0.793330304475,-0.1870716672,0.47732764755,-0.1114927128781
08:29:27,-0.8485471499999999,-0.02964606000000003,-0.14031817,-0.09477374999999999,0.51247761,-0.009384700000000003,-36.92792256,-29.259982739999998,0.64039128,124.2046496,-0.5078032192999999,-0.11289141359999999,0.79739245845,-0.18729701840000001,0.4779772361,-0.1121112853582
08:29:27,-0.8522674749999999,-0.03162239,-0.140518105,-0.094539375,0.513265965,-0.009235550000000002,-36.92444264,-29.25637831,0.63684132,124.2416574,-0.50941394045,-0.11532269839999998,0.801454612425,-0.18752236960000002,0.47862682464999995,-0.1127298578383
08:29:27,-0.8559878000000001,-0.033598720000000026,-0.14071804,-0.094305,0.5140543200000001,-0.009086400000000001,-36.920962720000006,-29.25277388,0.6332913600000001,124.2786652,-0.5110246615999999,-0.11775398319999997,0.8055167664,-0.18774772080000002,0.4792764132,-0.11334843031840001
08:29:27,-0.859708125,-0.03557505,-0.14091797499999997,-0.09407062499999999,0.514842675,-0.00893725,-36.9174828,-29.24916945,0.6297414,124.315673,-0.51263538275,-0.12018526800000001,0.809578920375,-0.18797307200000002,0.47992600175,-0.11396700279850001
08:29:27,-0.86342845,-0.03755138000000002,-0.14111790999999999,-0.09383625,0.51563103,-0.0087881,-36.914002880000005,-29.24556502,0.62619144,124.3526808,-0.5142461038999999,-0.1226165528,0.81364107435,-0.18819842320000002,0.48057559029999997,-0.11458557527860001
08:29:27,-0.867148775,-0.039527709999999994,-0.141317845,-0.093601875,0.5164193850000001,-0.008638950000000003,-36.91052296,-29.241960589999998,0.6226414800000001,124.3896886,-0.51585682505,-0.1250478376,0.817703228325,-0.18842377440000002,0.48122517885,-0.11520414775870001
08:29:27,-0.8708691,-0.04150404000000002,-0.14151777999999998,-0.09336749999999999,0.51720774,-0.008489800000000002,-36.907043040000005,-29.23835616,0.61909152,124.4266964,-0.5174675461999999,-0.12747912239999998,0.8217653823,-0.18864912560000002,0.4818747674,-0.11582272023880001
08:29:27,-0.8745894249999999,-0.04348036999999999,-0.141717715,-0.093133125,0.517996095,-0.008340650000000002,-36.90356312,-29.23475173,0.61554156,124.4637042,-0.51907826735,-0.12991040719999997,0.825827536275,-0.18887447680000002,0.48252435595,-0.11644129271890001
08:29:27,-0.8783097499999999,-0.04545670000000002,-0.14191764999999998,-0.09289875,0.5187844500000001,-0.0081915,-36.900083200000005,-29.2311473,0.6119916000000001,124.500712,-0.5206889884999999,-0.132341692,0.82988969025,-0.18909982800000003,0.48317394449999995,-0.11705986519900001
08:29:27,-0.8820300750000001,-0.04743302999999999,-0.142117585,-0.092664375,0.519572805,-0.00804235,-36.89660328,-29.22754287,0.60844164,124.5377198,-0.5222997096499999,-0.1347729768,0.833951844225,-0.18932517920000003,0.48382353305,-0.11767843767910001
08:29:27,-0.8857504,-0.04940936000000001,-0.14231751999999998,-0.09243,0.52036116,-0.007893200000000003,-36.893123360000004,-29.22393844,0.60489168,124.5747276,-0.5239104308,-0.1372042616,0.8380139982,-0.18955053040000003,0.4844731216,-0.11829701015920001
08:29:27,-0.889470725,-0.05138569000000004,-0.142517455,-0.092195625,0.5211495150000001,-0.007744050000000002,-36.88964344,-29.22033401,0.6013417200000001,124.6117354,-0.5255211519499999,-0.13963554639999998,0.842076152175,-0.1897758816,0.48512271014999997,-0.11891558263930001
08:29:27,-0.89319105,-0.05336202000000001,-0.14271739,-0.09196125,0.52193787,-0.007594900000000002,-36.886163520000004,-29.21672958,0.59779176,124.6487432,-0.5271318731,-0.14206683119999997,0.84613830615,-0.1900012328,0.48577229869999994,-0.1195341551194
08:29:27,-0.896911375,-0.055338350000000036,-0.14291732499999998,-0.091726875,0.522726225,-0.007445750000000001,-36.8826836,-29.21312515,0.5942418,124.685751,-0.5287425942499999,-0.144498116,0.850200460125,-0.190226584,0.48642188725,-0.1201527275995
08:29:27,-0.9006316999999999,-0.05731468000000001,-0.14311726,-0.0914925,0.5235145800000001,-0.0072966,-36.87920368,-29.20952072,0.5906918400000001,124.7227588,-0.5303533154,-0.1469294008,0.8542626141,-0.1904519352,0.4870714758,-0.1207713000796
08:29:27,-0.9043520249999999,-0.05929101000000003,-0.14331719499999998,-0.091258125,0.524302935,-0.00714745,-36.87572376,-29.20591629,0.58714188,124.7597666,-0.5319640365499999,-0.1493606856,0.858324768075,-0.1906772864,0.48772106434999996,-0.1213898725597
08:29:27,-0.9080723500000001,-0.06126734,-0.14351713,-0.09102375,0.52509129,-0.0069983000000000024,-36.87224384,-29.20231186,0.58359192,124.7967744,-0.5335747577,-0.15179197039999998,0.86238692205,-0.1909026376,0.4883706529,-0.1220084450398
08:29:27,-0.911792675,-0.06324367000000003,-0.14371706499999998,-0.090789375,0.5258796450000001,-0.006849150000000002,-36.86876392,-29.19870743,0.5800419600000001,124.8337822,-0.5351854788499999,-0.15422325519999996,0.866449076025,-0.1911279888,0.48902024145,-0.1226270175199
08:29:28,-0.915513,-0.06522,-0.143917,-0.090555,0.526668,-0.0067,-36.865284,-29.195103,0.576492,124.87079,-0.5367962,-0.15665454,0.87051123,-0.19135334,0.48966983,-0.12324559
08:29:28,-0.906735305,-0.066151055,-0.142704955,-0.09035258,0.52404192,-0.00734986,-36.86655376,-29.21472485,0.593166845,124.8200348,-0.53184061865,-0.1571745373,0.8628128643499999,-0.19111944060000002,0.48721230908499996,-0.12228097737
08:29:28,-0.8979576100000001,-0.06708211,-0.14149291,-0.09015016,0.5214158400000001,-0.00799972,-36.86782352,-29.2343467,0.60984169,124.7692796,-0.5268850372999999,-0.15769453460000002,0.8551144987,-0.1908855412,0.48475478816999995,-0.12131636474
08:29:28,-0.889179915,-0.068013165,-0.14028086499999998,-0.08994774,0.51878976,-0.00864958,-36.86909328,-29.25396855,0.626516535,124.71852439999999,-0.52192945595,-0.1582145319,0.84741613305,-0.19065164180000002,0.482297267255,-0.12035175211
08:29:28,-0.88040222,-0.06894422,-0.13906881999999998,-0.08974532,0.51616368,-0.009299439999999999,-36.87036304,-29.2735904,0.64319138,124.6677692,-0.5169738746,-0.1587345292,0.8397177673999999,-0.1904177424,0.47983974634,-0.11938713948
08:29:28,-0.871624525,-0.069875275,-0.137856775,-0.0895429,0.5135376,-0.0099493,-36.8716328,-29.29321225,0.659866225,124.617014,-0.5120182932499999,-0.15925452650000002,0.83201940175,-0.19018384300000002,0.477382225425,-0.11842252685
08:29:28,-0.8628468300000001,-0.07080633,-0.13664473,-0.08934048,0.5109115200000001,-0.01059916,-36.87290256,-29.3128341,0.67654107,124.5662588,-0.5070627119,-0.1597745238,0.8243210361,-0.1899499436,0.47492470450999996,-0.11745791422
08:29:28,-0.854069135,-0.071737385,-0.135432685,-0.08913805999999999,0.50828544,-0.011249019999999998,-36.87417232,-29.33245595,0.693215915,124.5155036,-0.50210713055,-0.1602945211,0.8166226704499999,-0.18971604420000002,0.47246718359499995,-0.11649330159
08:29:28,-0.84529144,-0.07266844,-0.13422064,-0.08893564,0.50565936,-0.01189888,-36.87544208,-29.3520778,0.70989076,124.4647484,-0.49715154919999993,-0.1608145184,0.8089243048,-0.1894821448,0.47000966268,-0.11552868896
08:29:28,-0.836513745,-0.073599495,-0.13300859499999998,-0.08873322,0.50303328,-0.01254874,-36.876711840000006,-29.37169965,0.726565605,124.4139932,-0.49219596784999997,-0.16133451570000001,0.80122593915,-0.18924824540000001,0.467552141765,-0.11456407633
08:29:28,-0.8277360500000001,-0.07453055,-0.13179654999999998,-0.08853079999999999,0.5004072,-0.0131986,-36.877981600000005,-29.3913215,0.74324045,124.363238,-0.48724038649999996,-0.161854513,0.7935275735,-0.189014346,0.46509462085,-0.1135994637
08:29:28,-0.818958355,-0.075461605,-0.130584505,-0.08832838,0.49778112,-0.01384846,-36.879251360000005,-29.41094335,0.759915295,124.3124828,-0.48228480514999994,-0.1623745103,0.78582920785,-0.1887804466,0.46263709993499996,-0.11263485107
08:29:28,-0.81018066,-0.07639266,-0.12937246,-0.08812596,0.49515504,-0.014498319999999999,-36.880521120000004,-29.4305652,0.77659014,124.2617276,-0.4773292237999999,-0.16289450760000002,0.7781308422,-0.1885465472,0.46017957901999995,-0.11167023844
08:29:28,-0.8014029650000001,-0.077323715,-0.128160415,-0.08792354,0.49252896,-0.01514818,-36.881790880000004,-29.45018705,0.793264985,124.2109724,-0.47237364244999996,-0.1634145049,0.77043247655,-0.1883126478,0.457722058105,-0.11070562581
08:29:28,-0.79262527,-0.07825477,-0.12694836999999998,-0.08772112,0.48990288000000004,-0.01579804,-36.883060640000004,-29.4698089,0.80993983,124.1602172,-0.46741806109999995,-0.1639345022,0.7627341109,-0.1880787484,0.45526453719,-0.10974101318
08:29:28,-0.783847575,-0.079185825,-0.12573632499999998,-0.08751869999999999,0.4872768,-0.016447899999999998,-36.8843304,-29.48943075,0.8266146750000001,124.109462,-0.46246247974999993,-0.16445449950000002,0.75503574525,-0.187844849,0.452807016275,-0.10877640055
08:29:28,-0.77506988,-0.08011688,-0.12452427999999999,-0.08731628,0.48465072000000003,-0.01709776,-36.88560016,-29.5090526,0.84328952,124.0587068,-0.4575068983999999,-0.1649744968,0.7473373796,-0.18761094960000002,0.45034949535999996,-0.10781178792
08:29:28,-0.766292185,-0.081047935,-0.12331223499999999,-0.08711386,0.48202464,-0.01774762,-36.88686992,-29.52867445,0.859964365,124.0079516,-0.45255131704999996,-0.1654944941,0.73963901395,-0.1873770502,0.44789197444499995,-0.10684717529000001
08:29:28,-0.75751449,-0.08197899,-0.12210019,-0.08691143999999999,0.47939856000000003,-0.01839748,-36.88813968,-29.5482963,0.87663921,123.9571964,-0.44759573569999994,-0.16601449140000002,0.7319406482999999,-0.18714315080000002,0.44543445353,-0.10588256266000001
08:29:28,-0.748736795,-0.082910045,-0.12088814499999999,-0.08670902,0.47677248,-0.01904734,-36.88940944,-29.56791815,0.893314055,123.9064412,-0.4426401543499999,-0.1665344887,0.72424228265,-0.1869092514,0.442976932615,-0.10491795003000001
08:29:28,-0.7399591,-0.0838411,-0.1196761,-0.0865066,0.4741464,-0.019697199999999998,-36.8906792,-29.58754,0.9099889,123.855686,-0.43768457299999997,-0.167054486,0.716543917,-0.18667535200000002,0.4405194117,-0.10395333740000001
08:29:28,-0.7311814050000001,-0.084772155,-0.11846405499999998,-0.08630418,0.47152032,-0.02034706,-36.89194896,-29.60716185,0.926663745,123.8049308,-0.43272899164999995,-0.16757448330000002,0.70884555135,-0.1864414526,0.43806189078499996,-0.10298872477000001
08:29:28,-0.72240371,-0.08570321,-0.11725200999999999,-0.08610176,0.46889424,-0.02099692,-36.89321872,-29.6267837,0.94333859,123.7541756,-0.42777341029999993,-0.1680944806,0.7011471857,-0.18620755320000001,0.43560436986999995,-0.10202411214000001
08:29:28,-0.713626015,-0.086634265,-0.116039965,-0.08589933999999999,0.46626816000000004,-0.021646779999999997,-36.89448848,-29.64640555,0.960013435,123.7034204,-0.42281782895,-0.1686144779,0.69344882005,-0.1859736538,0.433146848955,-0.10105949951000001
08:29:28,-0.70484832,-0.08756532,-0.11482792,-0.08569692,0.46364208,-0.02229664,-36.89575824,-29.6660274,0.9766882800000001,123.6526652,-0.41786224759999996,-0.1691344752,0.6857504543999999,-0.1857397544,0.43068932804,-0.10009488688000001
08:29:28,-0.696070625,-0.088496375,-0.11361587499999999,-0.0854945,0.46101600000000004,-0.022946499999999998,-36.897028000000006,-29.68564925,0.993363125,123.60191,-0.41290666624999994,-0.16965447250000001,0.67805208875,-0.185505855,0.428231807125,-0.09913027425000001
08:29:28,-0.68729293,-0.08942743,-0.11240382999999998,-0.08529207999999999,0.45838992,-0.02359636,-36.898297760000005,-29.7052711,1.01003797,123.5511548,-0.4079510849,-0.1701744698,0.6703537231,-0.1852719556,0.42577428620999996,-0.09816566162000001
08:29:28,-0.678515235,-0.090358485,-0.11119178499999999,-0.08508966,0.45576384000000003,-0.02424622,-36.899567520000005,-29.72489295,1.026712815,123.5003996,-0.4029955035499999,-0.1706944671,0.66265535745,-0.1850380562,0.42331676529499995,-0.09720104899000001
08:29:28,-0.6697375400000001,-0.09128954,-0.10997973999999999,-0.08488724,0.45313776,-0.024896079999999998,-36.900837280000005,-29.7445148,1.04338766,123.4496444,-0.39803992219999995,-0.17121446440000002,0.6549569918,-0.1848041568,0.42085924438,-0.09623643636000001
08:29:28,-0.660959845,-0.092220595,-0.108767695,-0.08468482,0.45051168,-0.02554594,-36.902107040000004,-29.76413665,1.060062505,123.3988892,-0.39308434084999994,-0.1717344617,0.64725862615,-0.18457025740000002,0.418401723465,-0.09527182373000001
08:29:28,-0.65218215,-0.09315165,-0.10755564999999999,-0.0844824,0.4478856,-0.026195799999999998,-36.903376800000004,-29.7837585,1.0767373500000001,123.348134,-0.3881287594999999,-0.172254459,0.6395602604999999,-0.184336358,0.41594420255,-0.09430721110000001
08:29:28,-0.643404455,-0.094082705,-0.106343605,-0.08427997999999999,0.44525952,-0.02684566,-36.90464656,-29.80338035,1.093412195,123.2973788,-0.38317317814999996,-0.17277445630000002,0.63186189485,-0.18410245860000002,0.41348668163499996,-0.09334259847000001
08:29:28,-0.63462676,-0.09501376,-0.10513155999999999,-0.08407756,0.44263344000000004,-0.02749552,-36.90591632,-29.8230022,1.11008704,123.2466236,-0.37821759679999994,-0.1732944536,0.6241635292,-0.1838685592,0.41102916071999995,-0.09237798584000001
08:29:28,-0.625849065,-0.095944815,-0.10391951499999999,-0.08387514,0.44000736,-0.028145379999999998,-36.90718608,-29.84262405,1.126761885,123.1958684,-0.37326201544999993,-0.1738144509,0.61646516355,-0.18363465980000002,0.408571639805,-0.09141337321000001
08:29:28,-0.61707137,-0.09687587,-0.10270747,-0.08367271999999999,0.43738128,-0.02879524,-36.90845584,-29.862245899999998,1.14343673,123.1451132,-0.36830643409999997,-0.1743344482,0.6087667979,-0.1834007604,0.40611411889,-0.09044876058000001
08:29:28,-0.6082936750000001,-0.097806925,-0.101495425,-0.0834703,0.4347552,-0.0294451,-36.9097256,-29.881867749999998,1.1601115750000002,123.094358,-0.36335085274999995,-0.1748544455,0.60106843225,-0.18316686100000001,0.403656597975,-0.08948414795000001
08:29:28,-0.5995159800000001,-0.09873798,-0.10028337999999999,-0.08326788,0.43212912000000003,-0.03009496,-36.91099536,-29.901489599999998,1.17678642,123.0436028,-0.35839527139999994,-0.1753744428,0.5933700665999999,-0.1829329616,0.40119907705999996,-0.08851953532000001
08:29:28,-0.590738285,-0.099669035,-0.09907133499999998,-0.08306546,0.42950304,-0.03074482,-36.91226512,-29.921111449999998,1.193461265,122.9928476,-0.35343969005,-0.1758944401,0.58567170095,-0.1826990622,0.39874155614499995,-0.08755492269000001
08:29:28,-0.58196059,-0.10060009,-0.09785928999999999,-0.08286304,0.42687696,-0.031394679999999994,-36.91353488,-29.940733299999998,1.21013611,122.9420924,-0.3484841086999999,-0.1764144374,0.5779733353000001,-0.1824651628,0.39628403523,-0.08659031006000001
08:29:28,-0.573182895,-0.101531145,-0.09664724499999999,-0.08266061999999999,0.42425088,-0.032044539999999996,-36.91480464,-29.960355149999998,1.226810955,122.8913372,-0.34352852734999995,-0.1769344347,0.57027496965,-0.1822312634,0.393826514315,-0.08562569743000001
08:29:28,-0.5644051999999999,-0.1024622,-0.0954352,-0.0824582,0.4216248,-0.0326944,-36.9160744,-29.979976999999998,1.2434858,122.840582,-0.33857294599999993,-0.177454432,0.562576604,-0.181997364,0.3913689934,-0.08466108480000001
08:29:28,-0.555627505,-0.103393255,-0.094223155,-0.08225578,0.41899872000000005,-0.033344259999999994,-36.91734416,-29.999598849999998,1.260160645,122.7898268,-0.3336173646499999,-0.17797442930000001,0.5548782383499999,-0.1817634646,0.38891147248499996,-0.08369647217000001
08:29:28,-0.54684981,-0.10432431,-0.09301111,-0.08205335999999999,0.41637264,-0.033994119999999996,-36.918613920000006,-30.019220699999998,1.27683549,122.7390716,-0.32866178329999995,-0.1784944266,0.5471798727,-0.18152956520000002,0.38645395156999995,-0.08273185954000001
08:29:28,-0.5380721150000001,-0.105255365,-0.09179906499999999,-0.08185094,0.41374656,-0.03464398,-36.919883680000005,-30.03884255,1.2935103350000001,122.6883164,-0.32370620194999994,-0.1790144239,0.53948150705,-0.1812956658,0.383996430655,-0.08176724691000001
08:29:28,-0.52929442,-0.10618642,-0.09058701999999999,-0.08164852,0.41112048,-0.03529383999999999,-36.921153440000005,-30.0584644,1.31018518,122.63756120000001,-0.3187506205999999,-0.17953442120000002,0.5317831414,-0.18106176640000002,0.38153890974,-0.08080263428000001
08:29:28,-0.520516725,-0.107117475,-0.089374975,-0.0814461,0.40849440000000004,-0.035943699999999995,-36.922423200000004,-30.07808625,1.326860025,122.586806,-0.31379503924999996,-0.1800544185,0.52408477575,-0.180827867,0.379081388825,-0.07983802165000001
08:29:28,-0.51173903,-0.10804853,-0.08816293,-0.08124368,0.40586832,-0.03659356,-36.923692960000004,-30.0977081,1.34353487,122.5360508,-0.30883945789999995,-0.1805744158,0.5163864101,-0.18059396760000002,0.37662386790999997,-0.07887340902000001
08:29:28,-0.502961335,-0.108979585,-0.08695088499999999,-0.08104126,0.40324224000000003,-0.03724342,-36.92496272,-30.11732995,1.3602097149999999,122.4852956,-0.30388387654999993,-0.18109441310000002,0.5086880444499999,-0.1803600682,0.37416634699499995,-0.07790879639
08:29:28,-0.49418364000000004,-0.10991064,-0.08573884,-0.08083884,0.40061616,-0.037893279999999994,-36.92623248,-30.1369518,1.3768845600000001,122.4345404,-0.29892829519999997,-0.1816144104,0.5009896788,-0.1801261688,0.37170882608,-0.07694418376
08:29:28,-0.485405945,-0.110841695,-0.08452679499999999,-0.08063642,0.39799008,-0.03854314,-36.92750224,-30.15657365,1.393559405,122.3837852,-0.29397271384999996,-0.1821344077,0.49329131314999997,-0.1798922694,0.369251305165,-0.07597957113
08:29:28,-0.47662825000000003,-0.11177275,-0.08331474999999999,-0.08043399999999999,0.39536400000000005,-0.03919299999999999,-36.928772,-30.1761955,1.41023425,122.33303000000001,-0.28901713249999994,-0.182654405,0.4855929475,-0.17965837,0.36679378425,-0.0750149585
08:29:28,-0.467850555,-0.112703805,-0.082102705,-0.08023158,0.39273792,-0.039842859999999994,-36.93004176,-30.19581735,1.426909095,122.2822748,-0.2840615511499999,-0.1831744023,0.47789458185,-0.1794244706,0.364336263335,-0.07405034587
08:29:28,-0.45907286,-0.11363486,-0.08089065999999999,-0.08002916,0.39011184,-0.040492719999999996,-36.93131152,-30.2154392,1.44358394,122.2315196,-0.27910596979999996,-0.1836943996,0.4701962162,-0.1791905712,0.36187874241999995,-0.07308573324
08:29:28,-0.450295165,-0.114565915,-0.079678615,-0.07982674,0.38748576,-0.04114257999999999,-36.93258128,-30.23506105,1.4602587850000002,122.1807644,-0.27415038844999995,-0.1842143969,0.46249785055,-0.1789566718,0.359421221505,-0.07212112061
08:29:28,-0.44151747,-0.11549697,-0.07846657,-0.07962432,0.38485968000000004,-0.04179243999999999,-36.93385104,-30.2546829,1.47693363,122.1300092,-0.26919480709999993,-0.1847343942,0.4547994849,-0.1787227724,0.35696370059,-0.07115650798
08:29:28,-0.432739775,-0.116428025,-0.07725452499999999,-0.07942189999999999,0.3822336,-0.042442299999999995,-36.9351208,-30.27430475,1.493608475,122.079254,-0.2642392257499999,-0.1852543915,0.44710111925,-0.178488873,0.354506179675,-0.07019189535
08:29:28,-0.42396208,-0.11735908,-0.07604248,-0.07921948,0.37960752,-0.04309215999999999,-36.93639056,-30.2939266,1.51028332,122.0284988,-0.25928364439999996,-0.1857743888,0.4394027536,-0.1782549736,0.35204865876,-0.06922728272
08:29:28,-0.415184385,-0.118290135,-0.074830435,-0.07901706,0.37698144,-0.04374201999999999,-36.93766032,-30.31354845,1.526958165,121.9777436,-0.25432806304999994,-0.18629438610000001,0.43170438795,-0.17802107420000002,0.34959113784499996,-0.06826267009
08:29:28,-0.40640668999999996,-0.11922119,-0.07361838999999999,-0.07881463999999999,0.37435536,-0.044391879999999995,-36.93893008,-30.3331703,1.5436330100000002,121.9269884,-0.24937248169999993,-0.1868143834,0.4240060223,-0.1777871748,0.34713361693,-0.06729805746
08:29:28,-0.39762899500000004,-0.120152245,-0.072406345,-0.07861222,0.37172928000000005,-0.04504174,-36.940199840000005,-30.35279215,1.560307855,121.8762332,-0.24441690034999997,-0.1873343807,0.41630765664999997,-0.17755327540000002,0.344676096015,-0.06633344483
08:29:28,-0.3888513,-0.1210833,-0.07119429999999999,-0.0784098,0.3691032,-0.04569159999999999,-36.941469600000005,-30.372414,1.5769827,121.825478,-0.23946131899999995,-0.187854378,0.408609291,-0.177319376,0.3422185751,-0.0653688322
08:29:28,-0.380073605,-0.122014355,-0.069982255,-0.07820737999999999,0.36647712,-0.046341459999999994,-36.942739360000004,-30.39203585,1.5936575450000001,121.7747228,-0.23450573764999993,-0.1883743753,0.40091092535,-0.1770854766,0.339761054185,-0.06440421957
08:29:28,-0.37129590999999995,-0.12294541,-0.06877021,-0.07800496,0.36385104,-0.046991319999999996,-36.944009120000004,-30.4116577,1.61033239,121.7239676,-0.22955015629999992,-0.1888943726,0.3932125597,-0.1768515772,0.33730353326999996,-0.06343960694
08:29:28,-0.36251821500000003,-0.123876465,-0.06755816499999999,-0.07780254,0.36122496000000004,-0.04764117999999999,-36.945278880000004,-30.43127955,1.627007235,121.6732124,-0.22459457494999996,-0.1894143699,0.38551419405,-0.1766176778,0.334846012355,-0.06247499431000001
08:29:28,-0.35374052,-0.12480752,-0.06634612,-0.07760012,0.35859888,-0.04829103999999999,-36.94654864,-30.4509014,1.64368208,121.6224572,-0.21963899359999994,-0.1899343672,0.3778158284,-0.1763837784,0.33238849144,-0.06151038168000001
08:29:28,-0.344962825,-0.12573857500000002,-0.065134075,-0.0773977,0.3559728,-0.048940899999999996,-36.9478184,-30.47052325,1.660356925,121.571702,-0.21468341224999993,-0.1904543645,0.37011746275,-0.176149879,0.329930970525,-0.06054576905000002
08:29:28,-0.33618513000000005,-0.12666963,-0.06392202999999999,-0.07719527999999999,0.35334672,-0.04959075999999999,-36.94908816,-30.4901451,1.6770317700000001,121.5209468,-0.20972783089999997,-0.1909743618,0.3624190971,-0.1759159796,0.32747344961,-0.05958115642000002
08:29:28,-0.327407435,-0.127600685,-0.062709985,-0.07699286,0.35072064000000003,-0.05024061999999999,-36.95035792,-30.50976695,1.693706615,121.4701916,-0.20477224954999995,-0.1914943591,0.35472073145000005,-0.1756820802,0.32501592869499996,-0.05861654379000002
08:29:28,-0.31862974,-0.12853174,-0.06149794,-0.07679044,0.34809456,-0.050890479999999995,-36.95162768,-30.5293888,1.71038146,121.4194364,-0.19981666819999994,-0.1920143564,0.3470223658,-0.1754481808,0.32255840778,-0.05765193116000002
08:29:28,-0.30985204499999996,-0.12946279500000002,-0.06028589499999999,-0.07658801999999999,0.34546847999999997,-0.05154033999999999,-36.95289744,-30.54901065,1.727056305,121.3686812,-0.19486108684999992,-0.1925343537,0.33932400014999997,-0.1752142814,0.320100886865,-0.056687318530000017
08:29:28,-0.30107435000000005,-0.13039385,-0.05907385,-0.0763856,0.3428424,-0.05219019999999999,-36.9541672,-30.5686325,1.7437311500000001,121.317926,-0.18990550549999996,-0.193054351,0.33162563450000004,-0.174980382,0.31764336595,-0.055722705900000016
08:29:28,-0.292296655,-0.131324905,-0.05786180499999999,-0.07618317999999999,0.34021632,-0.052840059999999994,-36.95543696,-30.58825435,1.760405995,121.2671708,-0.18494992414999994,-0.1935743483,0.32392726885,-0.1747464826,0.315185845035,-0.054758093270000016
08:29:28,-0.28351896,-0.13225596,-0.05664975999999999,-0.07598076,0.33759024000000004,-0.053489919999999996,-36.95670672,-30.6078762,1.77708084,121.2164156,-0.17999434279999993,-0.1940943456,0.31622890319999997,-0.17451258320000002,0.31272832411999996,-0.053793480640000016
08:29:28,-0.27474126499999996,-0.13318701500000002,-0.055437715,-0.07577834,0.33496416,-0.05413977999999999,-36.95797648,-30.62749805,1.793755685,121.16566040000001,-0.17503876144999997,-0.19461434290000001,0.30853053755000004,-0.1742786838,0.310270803205,-0.052828868010000016
08:29:28,-0.26596357000000004,-0.13411807,-0.05422566999999999,-0.07557591999999999,0.33233808,-0.054789639999999994,-36.95924624,-30.6471199,1.81043053,121.1149052,-0.17008318009999995,-0.1951343402,0.3008321719,-0.1740447844,0.30781328229,-0.051864255380000016
08:29:28,-0.257185875,-0.135049125,-0.053013624999999995,-0.0753735,0.329712,-0.055439499999999996,-36.960516,-30.66674175,1.8271053750000001,121.06415,-0.16512759874999994,-0.1956543375,0.29313380624999996,-0.173810885,0.305355761375,-0.050899642750000015
08:29:28,-0.24840817999999998,-0.13598018,-0.05180158,-0.07517108,0.32708592000000003,-0.05608935999999999,-36.961785760000005,-30.6863636,1.84378022,121.0133948,-0.16017201739999992,-0.19617433480000002,0.28543544060000003,-0.1735769856,0.30289824046,-0.049935030120000015
08:29:28,-0.23963048499999995,-0.13691123500000002,-0.05058953499999999,-0.07496865999999999,0.32445984,-0.05673921999999999,-36.963055520000005,-30.70598545,1.860455065,120.9626396,-0.15521643604999996,-0.1966943321,0.27773707495,-0.1733430862,0.30044071954499996,-0.048970417490000015
08:29:28,-0.23085279000000003,-0.13784229,-0.049377489999999996,-0.07476624,0.32183375999999997,-0.057389079999999995,-36.964325280000004,-30.7256073,1.87712991,120.9118844,-0.15026085469999995,-0.1972143294,0.27003870929999996,-0.1731091868,0.29798319863,-0.048005804860000015
08:29:28,-0.222075095,-0.138773345,-0.048165445,-0.07456382,0.31920768,-0.05803893999999999,-36.965595040000004,-30.74522915,1.8938047550000001,120.86112920000001,-0.14530527334999993,-0.19773432670000002,0.26234034365000003,-0.1728752874,0.295525677715,-0.047041192230000015
08:29:28,-0.21329739999999997,-0.1397044,-0.04695339999999999,-0.0743614,0.3165816,-0.05868879999999999,-36.9668648,-30.764851,1.9104796,120.810374,-0.14034969199999991,-0.198254324,0.254641978,-0.172641388,0.2930681568,-0.046076579600000014
08:29:28,-0.20451970500000005,-0.14063545500000002,-0.045741355,-0.07415898,0.31395552000000004,-0.059338659999999994,-36.96813456,-30.78447285,1.927154445,120.7596188,-0.13539411064999995,-0.1987743213,0.24694361234999995,-0.1724074886,0.290610635885,-0.045111966970000014
08:29:28,-0.19574201000000002,-0.14156651,-0.04452931,-0.07395656,0.31132944,-0.05998851999999999,-36.96940432,-30.8040947,1.94382929,120.7088636,-0.13043852929999994,-0.1992943186,0.23924524670000002,-0.1721735892,0.28815311496999996,-0.044147354340000014
08:29:28,-0.186964315,-0.142497565,-0.043317264999999994,-0.07375414,0.30870336,-0.06063837999999999,-36.97067408,-30.82371655,1.960504135,120.6581084,-0.12548294794999992,-0.19981431589999998,0.23154688105,-0.1719396898,0.285695594055,-0.043182741710000014
08:29:28,-0.17818661999999996,-0.14342862,-0.04210522,-0.07355172,0.30607728,-0.061288239999999994,-36.97194384,-30.8433384,1.9771789800000001,120.6073532,-0.12052736659999996,-0.2003343132,0.22384851540000006,-0.1717057904,0.28323807314,-0.042218129080000014
08:29:28,-0.16940892500000004,-0.14435967500000002,-0.04089317499999999,-0.07334929999999999,0.30345120000000003,-0.06193809999999999,-36.9732136,-30.86296025,1.993853825,120.55659800000001,-0.11557178524999995,-0.2008543105,0.21615014975000002,-0.171471891,0.280780552225,-0.04125351645000001
08:29:28,-0.16063123,-0.14529073,-0.039681129999999995,-0.07314688,0.30082512,-0.06258796,-36.97448336,-30.8825821,2.0105286700000002,120.5058428,-0.11061620389999993,-0.20137430779999999,0.20845178409999998,-0.1712379916,0.27832303131,-0.04028890382000001
08:29:28,-0.15185353499999998,-0.146221785,-0.038469085,-0.07294445999999999,0.29819903999999997,-0.06323782,-36.97575312,-30.90220395,2.027203515,120.4550876,-0.10566062254999992,-0.2018943051,0.20075341845000005,-0.1710040922,0.27586551039499996,-0.03932429119000001
08:29:28,-0.14307583999999995,-0.14715284,-0.03725703999999999,-0.07274204,0.29557296,-0.06388767999999999,-36.97702288,-30.9218258,2.04387836,120.4043324,-0.10070504119999996,-0.2024143024,0.19305505280000002,-0.1707701928,0.27340798948,-0.03835967856000001
08:29:28,-0.13429814500000004,-0.14808389500000002,-0.036044994999999996,-0.07253962,0.29294688,-0.06453753999999999,-36.97829264,-30.94144765,2.060553205,120.3535772,-0.09574945984999994,-0.2029342997,0.18535668714999998,-0.1705362934,0.270950468565,-0.03739506593000001
08:29:28,-0.12552045,-0.14901495,-0.03483295,-0.07233719999999999,0.2903208,-0.06518739999999999,-36.9795624,-30.9610695,2.07722805,120.302822,-0.09079387849999992,-0.203454297,0.17765832150000005,-0.170302394,0.26849294765,-0.03643045330000001
08:29:28,-0.11674275499999998,-0.149946005,-0.03362090499999999,-0.07213478,0.28769472,-0.06583726,-36.98083216,-30.98069135,2.0939028950000003,120.25206680000001,-0.08583829714999996,-0.2039742943,0.16995995585,-0.1700684946,0.266035426735,-0.03546584067000001
08:29:28,-0.10796505999999995,-0.15087706,-0.03240886,-0.07193236,0.28506864,-0.06648712,-36.982101920000005,-31.0003132,2.11057774,120.2013116,-0.08088271579999995,-0.2044942916,0.16226159019999997,-0.1698345952,0.26357790581999996,-0.03450122804000001
08:29:28,-0.09918736500000003,-0.15180811500000002,-0.031196815000000003,-0.07172993999999999,0.28244256,-0.06713698,-36.983371680000005,-31.01993505,2.127252585,120.1505564,-0.07592713444999993,-0.2050142889,0.15456322455000004,-0.1696006958,0.261120384905,-0.03353661541000001
08:29:28,-0.09040967,-0.15273917,-0.029984769999999994,-0.07152752,0.27981648000000003,-0.06778684,-36.984641440000004,-31.0395569,2.1439274299999997,120.0998012,-0.07097155309999992,-0.2055342862,0.1468648589,-0.1693667964,0.25866286399,-0.03257200278000001
08:29:28,-0.08163197499999997,-0.153670225,-0.028772725,-0.0713251,0.2771904,-0.06843669999999999,-36.985911200000004,-31.05917875,2.160602275,120.049046,-0.06601597174999996,-0.2060542835,0.13916649324999997,-0.169132897,0.256205343075,-0.03160739015000001
08:29:28,-0.07285428000000005,-0.15460128,-0.027560680000000004,-0.07112268,0.27456432,-0.06908655999999999,-36.98718096,-31.0788006,2.1772771200000003,119.9982908,-0.06106039039999994,-0.2065742808,0.13146812760000004,-0.1688989976,0.25374782216,-0.03064277752000001
08:29:28,-0.06407658500000002,-0.15553233500000002,-0.026348634999999995,-0.07092026,0.27193824,-0.06973642,-36.98845072,-31.09842245,2.193951965,119.94753560000001,-0.056104809049999926,-0.2070942781,0.12376976195,-0.1686650982,0.25129030124499996,-0.02967816489000001
08:29:28,-0.05529888999999999,-0.15646339,-0.02513659,-0.07071784,0.26931216,-0.07038628,-36.98972048,-31.1180443,2.21062681,119.8967804,-0.051149227699999966,-0.2076142754,0.11607139629999996,-0.16843119880000001,0.24883278033,-0.02871355226000001
08:29:28,-0.04652119499999996,-0.157394445,-0.02392454499999999,-0.07051542,0.26668608,-0.07103614,-36.99099024,-31.13766615,2.2273016549999998,119.8460252,-0.04619364634999995,-0.2081342727,0.10837303065000004,-0.1681972994,0.246375259415,-0.02774893963000001
08:29:28,-0.03774350000000004,-0.1583255,-0.022712499999999997,-0.070313,0.26406,-0.07168599999999999,-36.99226,-31.157288,2.2439765,119.79527,-0.041238064999999935,-0.20865427,0.100674665,-0.16796339999999998,0.2439177385,-0.02678432700000001
08:29:28,-0.02896580500000001,-0.15925655500000002,-0.021500455,-0.07011057999999999,0.26143392,-0.07233585999999999,-36.99352976,-31.17690985,2.2606513450000003,119.7445148,-0.036282483649999975,-0.2091742673,0.09297629935000007,-0.1677295006,0.241460217585,-0.02581971437000001
08:29:28,-0.02018810999999998,-0.16018761,-0.020288409999999993,-0.06990816,0.25880784,-0.07298571999999999,-36.99479952,-31.1965317,2.27732619,119.6937596,-0.031326902299999904,-0.2096942646,0.08527793370000003,-0.1674956012,0.23900269667000001,-0.02485510174000001
08:29:28,-0.011410414999999952,-0.161118665,-0.019076364999999998,-0.06970573999999999,0.25618176,-0.07363557999999999,-36.99606928,-31.21615355,2.294001035,119.6430044,-0.026371320949999943,-0.2102142619,0.07757956804999999,-0.1672617018,0.236545175755,-0.02389048911000001
08:29:28,-0.002632720000000033,-0.16204972,-0.01786431999999999,-0.06950332,0.25355568,-0.07428544,-36.99733904,-31.2357754,2.31067588,119.5922492,-0.021415739599999983,-0.2107342592,0.06988120240000006,-0.1670278024,0.23408765484,-0.02292587648000001
08:29:28,0.006144974999999997,-0.16298077500000002,-0.016652274999999994,-0.0693009,0.2509296,-0.0749353,-36.9986088,-31.25539725,2.327350725,119.541494,-0.016460158249999912,-0.21125425650000001,0.062182836750000026,-0.166793903,0.23163013392499998,-0.02196126385000001
08:29:28,0.014922670000000027,-0.16391183,-0.01544023,-0.06909847999999999,0.24830352,-0.07558515999999998,-36.99987856,-31.2750191,2.3440255700000003,119.4907388,-0.011504576899999952,-0.2117742538,0.05448447109999999,-0.1665600036,0.22917261301000003,-0.02099665122000001
08:29:28,0.023700365000000057,-0.164842885,-0.014228185000000004,-0.06889606,0.24567744000000002,-0.07623501999999999,-37.00114832,-31.294640949999998,2.360700415,119.4399836,-0.006548995549999992,-0.2122942511,0.04678610545000006,-0.1663261042,0.22671509209500001,-0.020032038590000023
08:29:28,0.032478059999999975,-0.16577394,-0.01301614000000001,-0.06869364,0.24305136,-0.07688487999999999,-37.00241808,-31.314262799999998,2.37737526,119.38922840000001,-0.0015934141999999207,-0.2128142484,0.03908773980000002,-0.1660922048,0.22425757118,-0.019067425960000023
08:29:28,0.041255755000000005,-0.16670499500000002,-0.011804094999999987,-0.06849121999999999,0.24042528000000002,-0.07753473999999999,-37.003687840000005,-31.333884649999998,2.394050105,119.33847320000001,0.0033621671500000394,-0.2133342457,0.03138937414999998,-0.1658583054,0.221800050265,-0.018102813330000023
08:29:28,0.050033450000000035,-0.16763605,-0.010592049999999992,-0.0682888,0.2377992,-0.07818459999999999,-37.004957600000004,-31.353506499999998,2.41072495,119.287718,0.00831774850000011,-0.213854243,0.023691008500000055,-0.165624406,0.21934252934999998,-0.017138200700000022
08:29:28,0.058811145000000065,-0.168567105,-0.009380004999999997,-0.06808638,0.23517312,-0.07883446,-37.006227360000004,-31.373128349999998,2.4273997950000004,119.2369628,0.01327332985000007,-0.2143742403,0.015992642850000016,-0.1653905066,0.21688500843500003,-0.016173588070000022
08:29:28,0.06758883999999998,-0.16949816,-0.008167960000000002,-0.06788396,0.23254703999999998,-0.07948431999999998,-37.007497120000004,-31.3927502,2.44407464,119.1862076,0.01822891120000003,-0.21489423759999998,0.008294277199999978,-0.1651566072,0.21442748752000002,-0.015208975440000022
08:29:28,0.07636653500000001,-0.17042921500000002,-0.006955915000000007,-0.06768154,0.22992096,-0.08013417999999999,-37.00876688,-31.41237205,2.460749485,119.1354524,0.023184492550000102,-0.2154142349,0.00059591155000005,-0.1649227078,0.211969966605,-0.014244362810000022
08:29:28,0.08514423000000004,-0.17136027,-0.005743870000000012,-0.06747912,0.22729487999999998,-0.08078403999999999,-37.01003664,-31.4319939,2.47742433,119.08469720000001,0.028140073900000062,-0.2159342322,-0.0071024540999999886,-0.1646888084,0.20951244569,-0.013279750180000022
08:29:28,0.09392192500000007,-0.172291325,-0.004531824999999989,-0.0672767,0.2246688,-0.08143389999999999,-37.0113064,-31.45161575,2.494099175,119.033942,0.03309565525000002,-0.21645422949999998,-0.014800819750000027,-0.16445490899999998,0.20705492477499998,-0.012315137550000022
08:29:28,0.1026996200000001,-0.17322238,-0.0033197799999999944,-0.06707428,0.22204271999999997,-0.08208375999999999,-37.01257616,-31.4712376,2.5107740200000004,118.9831868,0.03805123660000009,-0.2169742268,-0.022499185399999955,-0.1642210096,0.20459740386000003,-0.011350524920000021
08:29:28,0.11147731499999991,-0.17415343500000002,-0.0021077349999999995,-0.06687185999999999,0.21941664,-0.08273362,-37.01384592,-31.49085945,2.527448865,118.9324316,0.043006817950000054,-0.2174942241,-0.030197551049999993,-0.1639871102,0.20213988294500002,-0.010385912290000021
08:29:28,0.12025500999999994,-0.17508449,-0.0008956900000000045,-0.06666944,0.21679056000000002,-0.08338348,-37.01511568,-31.5104813,2.54412371,118.8816764,0.047962399300000014,-0.21801422139999999,-0.03789591670000003,-0.1637532108,0.19968236203,-0.009421299660000021
08:29:28,0.12903270499999997,-0.176015545,0.0003163549999999904,-0.06646701999999999,0.21416448,-0.08403333999999998,-37.01638544,-31.53010315,2.560798555,118.8309212,0.052917980650000085,-0.2185342187,-0.04559428234999996,-0.1635193114,0.197224841115,-0.00845668703000002
08:29:28,0.1378104,-0.1769466,0.001528400000000013,-0.06626459999999999,0.21153840000000002,-0.08468319999999999,-37.0176552,-31.549725,2.5774734,118.78016600000001,0.057873562000000045,-0.219054216,-0.053292648,-0.163285412,0.19476732019999998,-0.0074920744000000206
08:29:28,0.14658809500000003,-0.17787765500000002,0.002740445000000008,-0.06606218,0.20891231999999998,-0.08533305999999999,-37.01892496,-31.56934685,2.594148245,118.7294108,0.06282914335,-0.2195742133,-0.060991013649999926,-0.1630515126,0.19230979928500003,-0.00652746177000002
08:29:28,0.15536579000000006,-0.17880871,0.003952490000000003,-0.06585975999999999,0.20628624,-0.08598291999999999,-37.02019472,-31.5889687,2.6108230900000002,118.6786556,0.06778472470000008,-0.2200942106,-0.06868937929999996,-0.1628176132,0.18985227837000002,-0.00556284914000002
08:29:28,0.1641434850000001,-0.179739765,0.005164534999999998,-0.06565734,0.20366015999999998,-0.08663277999999999,-37.02146448,-31.60859055,2.627497935,118.6279004,0.07274030605000004,-0.2206142079,-0.07638774495,-0.1625837138,0.187394757455,-0.00459823651000002
08:29:28,0.17292118000000012,-0.18067082,0.006376579999999993,-0.06545492,0.20103408,-0.08728264,-37.02273424,-31.6282124,2.64417278,118.5771452,0.07769588740000011,-0.2211342052,-0.08408611059999993,-0.1623498144,0.18493723654,-0.00363362388000002
08:29:28,0.18169887499999993,-0.18160187500000002,0.007588624999999988,-0.06525249999999999,0.19840799999999997,-0.08793249999999998,-37.024004000000005,-31.64783425,2.660847625,118.52639,0.08265146875000007,-0.2216542025,-0.09178447624999997,-0.162115915,0.18247971562499998,-0.0026690112500000196
08:29:28,0.19047656999999996,-0.18253293,0.00880067000000001,-0.06505008,0.19578192,-0.08858235999999999,-37.025273760000005,-31.6674561,2.67752247,118.47563480000001,0.08760705010000003,-0.2221741998,-0.09948284190000001,-0.16188201559999998,0.18002219471000003,-0.0017043986200000194
08:29:28,0.19925426499999999,-0.183463985,0.010012715000000005,-0.06484766,0.19315583999999997,-0.08923221999999999,-37.026543520000004,-31.68707795,2.6941973150000003,118.4248796,0.0925626314500001,-0.2226941971,-0.10718120754999994,-0.1616481162,0.17756467379500002,-0.0007397859900000192
08:29:28,0.20803196000000002,-0.18439504,0.01122476,-0.06464523999999999,0.19052976,-0.08988207999999999,-37.027813280000004,-31.7066998,2.71087216,118.3741244,0.09751821280000006,-0.2232141944,-0.11487957319999997,-0.1614142168,0.17510715288,0.00022482663999998098
08:29:28,0.21680965500000005,-0.18532609500000002,0.012436804999999995,-0.06444282,0.18790368000000002,-0.09053193999999999,-37.02908304,-31.72632165,2.727547005,118.3233692,0.10247379415000002,-0.2237341917,-0.12257793885000001,-0.1611803174,0.172649631965,0.0011894392699999812
08:29:28,0.22558735000000008,-0.18625715,0.01364884999999999,-0.0642404,0.1852776,-0.0911818,-37.0303528,-31.7459435,2.74422185,118.272614,0.10742937550000009,-0.224254189,-0.13027630449999994,-0.160946418,0.17019211104999998,0.0021540518999999675
08:29:28,0.2343650450000001,-0.187188205,0.014860895000000013,-0.06403798,0.18265152,-0.09183166,-37.03162256,-31.76556535,2.760896695,118.2218588,0.11238495685000005,-0.2247741863,-0.13797467014999998,-0.1607125186,0.16773459013500003,0.0031186645299999677
08:29:28,0.2431427399999999,-0.18811926,0.016072940000000008,-0.06383556,0.18002543999999998,-0.09248151999999998,-37.03289232,-31.7851872,2.7775715400000003,118.17110360000001,0.11734053820000001,-0.22529418359999998,-0.14567303580000002,-0.1604786192,0.16527706922000002,0.004083277159999968
08:29:28,0.25192043499999994,-0.18905031500000002,0.017284985000000003,-0.06363314,0.17739936,-0.09313137999999999,-37.03416208,-31.80480905,2.794246385,118.1203484,0.12229611955000008,-0.2258141809,-0.15337140145000006,-0.1602447198,0.162819548305,0.005047889789999968
08:29:28,0.26069813,-0.18998137,0.018497029999999998,-0.06343072,0.17477327999999998,-0.09378123999999999,-37.03543184,-31.8244309,2.81092123,118.0695932,0.12725170090000004,-0.2263341782,-0.16106976709999987,-0.1600108204,0.16036202739,0.006012502419999968
08:29:28,0.269475825,-0.190912425,0.019709074999999993,-0.0632283,0.1721472,-0.09443109999999999,-37.0367016,-31.84405275,2.827596075,118.018838,0.1322072822500001,-0.22685417549999998,-0.1687681327499999,-0.159776921,0.15790450647499998,0.0069771150499999685
08:29:28,0.27825352000000003,-0.19184348,0.020921119999999988,-0.06302587999999999,0.16952111999999997,-0.09508095999999999,-37.03797136,-31.8636746,2.84427092,117.9680828,0.13716286360000007,-0.2273741728,-0.17646649839999995,-0.1595430216,0.15544698556000003,0.007941727679999969
08:29:28,0.28703121500000006,-0.19277453500000002,0.02213316500000001,-0.06282346,0.16689504,-0.09573082,-37.03924112,-31.88329645,2.8609457650000003,117.91732760000001,0.14211844495000003,-0.22789417010000002,-0.18416486405,-0.1593091222,0.15298946464500002,0.008906340309999969
08:29:28,0.2958089100000001,-0.19370559,0.023345210000000005,-0.06262103999999999,0.16426895999999996,-0.09638067999999998,-37.04051088,-31.9029183,2.87762061,117.86657240000001,0.1470740263000001,-0.22841416739999998,-0.19186322970000003,-0.1590752228,0.15053194373,0.009870952939999969
08:29:28,0.3045866050000001,-0.194636645,0.024557255,-0.062418619999999994,0.16164288,-0.09703053999999998,-37.04178064,-31.92254015,2.894295455,117.8158172,0.15202960765000006,-0.2289341647,-0.19956159535000006,-0.1588413234,0.148074422815,0.01083556556999997
08:29:28,0.31336429999999993,-0.1955677,0.025769299999999995,-0.0622162,0.1590168,-0.09768039999999999,-37.0430504,-31.942162,2.9109703000000002,117.765062,0.15698518900000002,-0.229454162,-0.20725996099999988,-0.158607424,0.14561690189999998,0.01180017819999997
08:29:28,0.32214199499999996,-0.19649875500000002,0.02698134499999999,-0.06201378,0.15639071999999998,-0.09833025999999999,-37.04432016,-31.96178385,2.927645145,117.7143068,0.1619407703500001,-0.22997415929999998,-0.21495832664999992,-0.15837352459999998,0.14315938098500003,0.01276479082999997
08:29:28,0.33091969,-0.19742981,0.028193390000000013,-0.061811359999999996,0.15376464,-0.09898011999999999,-37.045589920000005,-31.9814057,2.94431999,117.6635516,0.16689635170000006,-0.2304941566,-0.22265669229999996,-0.1581396252,0.14070186007000002,0.01372940345999997
08:29:28,0.339697385,-0.198360865,0.029405435000000008,-0.06160894,0.15113855999999998,-0.09962997999999999,-37.046859680000004,-32.001027549999996,2.960994835,117.61279640000001,0.17185193305000002,-0.2310141539,-0.23035505795,-0.1579057258,0.138244339155,0.01469401608999997
08:29:28,0.34847508000000005,-0.19929192,0.030617480000000002,-0.06140651999999999,0.14851248,-0.10027984,-37.048129440000004,-32.020649399999996,2.97766968,117.56204120000001,0.1768075144000001,-0.23153415119999998,-0.23805342360000004,-0.1576718264,0.13578681824,0.01565862871999997
08:29:28,0.3572527750000001,-0.20022297500000003,0.031829525,-0.0612041,0.14588639999999997,-0.10092969999999998,-37.0493992,-32.040271249999996,2.9943445250000003,117.511286,0.18176309575000005,-0.2320541485,-0.24575178925000007,-0.15743792699999998,0.13332929732499998,0.01662324134999997
08:29:28,0.3660304700000001,-0.20115403,0.03304156999999999,-0.061001679999999996,0.14326032,-0.10157955999999999,-37.05066896,-32.0598931,3.01101937,117.4605308,0.1867186771,-0.2325741458,-0.2534501548999999,-0.1572040276,0.13087177641000003,0.01758785397999997
08:29:28,0.3748081649999999,-0.202085085,0.03425361499999999,-0.060799259999999994,0.14063423999999997,-0.10222941999999999,-37.05193872,-32.07951495,3.027694215,117.4097756,0.19167425845000008,-0.23309414309999998,-0.26114852054999993,-0.1569701282,0.12841425549500002,0.01855246660999997
08:29:28,0.38358585999999995,-0.20301614,0.03546566000000001,-0.06059684,0.13800816,-0.10287927999999999,-37.05320848,-32.0991368,3.04436906,117.3590204,0.19662983980000004,-0.2336141404,-0.26884688619999997,-0.1567362288,0.12595673458,0.01951707923999997
08:29:28,0.392363555,-0.20394719500000003,0.036677705000000005,-0.06039442,0.13538207999999996,-0.10352913999999999,-37.05447824,-32.11875865,3.061043905,117.30826520000001,0.2015854211500001,-0.2341341377,-0.27654525185,-0.1565023294,0.123499213665,0.02048169186999997
08:29:28,0.40114125,-0.20487825,0.03788975,-0.060191999999999996,0.13275599999999999,-0.104179,-37.055748,-32.1383805,3.0777187500000003,117.25751,0.20654100250000007,-0.23465413499999999,-0.28424361750000005,-0.15626842999999999,0.12104169274999999,0.02144630449999997
08:29:28,0.40991894500000003,-0.205809305,0.039101794999999995,-0.05998958,0.13012992,-0.10482885999999998,-37.05701776,-32.15800235,3.094393595,117.2067548,0.21149658385000003,-0.2351741323,-0.29194198314999986,-0.1560345306,0.11858417183500003,0.02241091712999997
08:29:28,0.41869664000000006,-0.20674036,0.04031383999999999,-0.05978715999999999,0.12750383999999998,-0.10547871999999998,-37.05828752,-32.1776242,3.11106844,117.1559996,0.2164521652000001,-0.2356941296,-0.2996403487999999,-0.15580063119999998,0.11612665092000002,0.023375529759999972
08:29:28,0.4274743350000001,-0.20767141500000003,0.041525884999999985,-0.05958474,0.12487776,-0.10612857999999999,-37.05955728,-32.19724605,3.127743285,117.1052444,0.22140774655000006,-0.2362141269,-0.30733871444999994,-0.1555667318,0.11366913000500001,0.024340142389999972
08:29:28,0.4362520300000001,-0.20860247,0.04273793000000001,-0.059382319999999995,0.12225167999999997,-0.10677843999999999,-37.06082704,-32.2168679,3.14441813,117.0544892,0.22636332790000002,-0.2367341242,-0.3150370801,-0.1553328324,0.11121160909,0.025304755019999972
08:29:28,0.44502972499999993,-0.209533525,0.043949975,-0.059179899999999994,0.1196256,-0.10742829999999999,-37.0620968,-32.23648975,3.1610929750000003,117.00373400000001,0.2313189092500001,-0.2372541215,-0.32273544575,-0.155098933,0.10875408817499999,0.026269367649999972
08:29:28,0.45380741999999996,-0.21046458,0.04516202,-0.05897748,0.11699951999999997,-0.10807815999999999,-37.06336656,-32.2561116,3.17776782,116.95297880000001,0.23627449060000005,-0.2377741188,-0.33043381140000005,-0.15486503359999998,0.10629656726000003,0.027233980279999973
08:29:28,0.462585115,-0.21139563500000003,0.04637406499999999,-0.05877506,0.11437343999999999,-0.10872801999999998,-37.06463632,-32.27573345,3.194442665,116.9022236,0.24123007195,-0.2382941161,-0.33813217704999987,-0.1546311342,0.10383904634500002,0.028198592909999973
08:29:28,0.47136281,-0.21232669,0.04758610999999999,-0.058572639999999995,0.11174735999999996,-0.10937787999999998,-37.06590608,-32.2953553,3.2111175100000002,116.8514684,0.24618565330000008,-0.2388141134,-0.3458305426999999,-0.1543972348,0.10138152543000001,0.029163205539999973
08:29:28,0.48014050500000005,-0.213257745,0.04879815500000001,-0.058370219999999993,0.10912127999999999,-0.11002773999999998,-37.067175840000004,-32.31497715,3.227792355,116.8007132,0.25114123465000004,-0.2393341107,-0.35352890834999995,-0.1541633354,0.098924004515,0.030127818169999973
08:29:28,0.4889182000000001,-0.2141888,0.050010200000000005,-0.0581678,0.10649520000000001,-0.11067759999999999,-37.068445600000004,-32.334599,3.2444672,116.749958,0.2560968160000001,-0.239854108,-0.361227274,-0.15392943599999998,0.09646648359999999,0.031092430799999973
08:29:28,0.4976958950000001,-0.21511985500000003,0.051222245,-0.05796538,0.10386911999999998,-0.11132745999999999,-37.069715360000004,-32.35422085,3.261142045,116.69920280000001,0.2610523973500001,-0.24037410529999997,-0.36892563965,-0.1536955366,0.09400896268500003,0.032057043429999973
08:29:28,0.5064735899999999,-0.21605091,0.052434289999999995,-0.057762959999999995,0.10124304,-0.11197731999999999,-37.07098512,-32.3738427,3.27781689,116.6484476,0.26600797870000004,-0.2408941026,-0.37662400530000006,-0.1534616372,0.09155144177000002,0.033021656059999974
08:29:28,0.515251285,-0.216981965,0.05364633499999999,-0.05756053999999999,0.09861695999999998,-0.11262718,-37.07225488,-32.39346455,3.2944917350000003,116.5976924,0.2709635600500001,-0.2414140999,-0.3843223709499999,-0.15322773779999999,0.08909392085500001,0.033986268689999974
08:29:28,0.52402898,-0.21791302,0.054858379999999984,-0.05735812,0.09599088,-0.11327703999999998,-37.07352464,-32.4130864,3.31116658,116.5469372,0.27591914140000007,-0.24193409719999998,-0.3920207365999999,-0.1529938384,0.08663639994,0.034950881319999974
08:29:28,0.532806675,-0.21884407500000003,0.05607042500000001,-0.0571557,0.09336479999999997,-0.11392689999999998,-37.0747944,-32.43270825,3.327841425,116.496182,0.28087472275,-0.2424540945,-0.39971910224999996,-0.15275993899999998,0.08417887902500004,0.035915493949999974
08:29:28,0.54158437,-0.21977513,0.05728247,-0.056953279999999995,0.09073872,-0.11457675999999999,-37.07606416,-32.4523301,3.34451627,116.4454268,0.2858303041000001,-0.24297409179999999,-0.4074174679,-0.1525260396,0.08172135811000003,0.036880106579999974
08:29:28,0.5503620650000001,-0.220706185,0.058494515,-0.05675085999999999,0.08811263999999996,-0.11522661999999999,-37.07733392,-32.47195195,3.361191115,116.39467160000001,0.29078588545000006,-0.24349408909999998,-0.41511583355000004,-0.15229214019999998,0.07926383719500002,0.037844719209999975
08:29:28,0.5591397600000001,-0.22163724,0.05970655999999999,-0.05654844,0.08548655999999999,-0.11587647999999999,-37.07860368,-32.4915738,3.3778659600000003,116.34391640000001,0.2957414668,-0.2440140864,-0.42281419919999985,-0.1520582408,0.07680631628000001,0.038809331839999975
08:29:28,0.5679174550000001,-0.22256829500000003,0.06091860499999999,-0.05634602,0.08286047999999996,-0.11652633999999999,-37.07987344,-32.51119565,3.394540805,116.2931612,0.3006970481500001,-0.2445340837,-0.4305125648499999,-0.1518243414,0.074348795365,0.039773944469999975
08:29:28,0.5766951499999999,-0.22349935,0.06213065000000001,-0.056143599999999995,0.08023439999999998,-0.11717619999999998,-37.0811432,-32.5308175,3.41121565,116.242406,0.30565262950000005,-0.24505408099999998,-0.43821093049999993,-0.151590442,0.07189127445000004,0.040738557099999975
08:29:28,0.585472845,-0.224430405,0.063342695,-0.05594117999999999,0.07760832000000001,-0.11782605999999998,-37.08241296,-32.55043935,3.427890495,116.1916508,0.31060821085,-0.2455740783,-0.44590929614999997,-0.15135654259999998,0.06943375353500003,0.041703169729999975
08:29:28,0.59425054,-0.22536146,0.06455474,-0.05573876,0.07498223999999998,-0.11847591999999998,-37.08368272,-32.5700612,3.44456534,116.14089560000001,0.3155637922000001,-0.2460940756,-0.4536076618,-0.1511226432,0.06697623262000002,0.042667782359999976
08:29:28,0.603028235,-0.22629251500000003,0.065766785,-0.05553634,0.07235616,-0.11912577999999999,-37.08495248,-32.58968305,3.4612401850000003,116.09014040000001,0.32051937355000004,-0.24661407289999998,-0.46130602745000004,-0.1508887438,0.06451871170500001,0.043632394989999976
08:29:28,0.61180593,-0.22722357,0.06697882999999999,-0.055333919999999995,0.06973007999999997,-0.11977563999999999,-37.08622224,-32.6093049,3.47791503,116.0393852,0.3254749549000001,-0.2471340702,-0.46900439309999986,-0.1506548444,0.06206119079,0.044597007619999976
08:29:28,0.6205836250000001,-0.228154625,0.06819087499999998,-0.05513149999999999,0.067104,-0.12042549999999999,-37.087492,-32.62892675,3.494589875,115.98863,0.3304305362500001,-0.2476540675,-0.4767027587499999,-0.150420945,0.05960366987500004,0.045561620249999976
08:29:28,0.6293613200000001,-0.22908568,0.06940292,-0.05492908,0.06447791999999997,-0.12107535999999998,-37.088761760000004,-32.6485486,3.5112647200000002,115.9378748,0.33538611760000003,-0.24817406479999998,-0.48440112439999994,-0.15018704559999999,0.05714614896000003,0.046526232879999976
08:29:28,0.6381390149999999,-0.23001673500000003,0.070614965,-0.054726659999999996,0.06185183999999999,-0.12172521999999998,-37.090031520000004,-32.66817045,3.527939565,115.8871196,0.3403416989500001,-0.2486940621,-0.49209949005,-0.1499531462,0.05468862804500002,0.04749084550999998
08:29:28,0.64691671,-0.23094779000000001,0.07182701,-0.054524239999999995,0.05922575999999996,-0.12237507999999998,-37.09130128,-32.6877923,3.5446144100000003,115.83636440000001,0.34529728030000006,-0.2492140594,-0.4997978557,-0.14971924679999998,0.05223110713000001,0.04845545813999998
08:29:28,0.655694405,-0.231878845,0.07303905499999999,-0.05432181999999999,0.056599679999999986,-0.12302493999999999,-37.09257104,-32.70741415,3.561289255,115.78560920000001,0.35025286165,-0.24973405669999998,-0.50749622135,-0.1494853474,0.049773586215,0.04942007076999998
08:29:28,0.6644721,-0.23280990000000001,0.07425109999999999,-0.0541194,0.053973599999999955,-0.12367479999999999,-37.0938408,-32.727036,3.5779641,115.734854,0.3552084430000001,-0.250254054,-0.5151945869999999,-0.14925144799999998,0.04731606530000004,0.05038468339999998
08:29:28,0.673249795,-0.23374095500000003,0.07546314500000001,-0.053916979999999996,0.05134751999999998,-0.12432465999999999,-37.09511056,-32.74665785,3.5946389450000003,115.6840988,0.36016402435000006,-0.25077405129999997,-0.5228929526499999,-0.1490175486,0.04485854438500003,0.05134929602999998
08:29:28,0.6820274900000001,-0.23467201000000001,0.07667519,-0.053714559999999995,0.048721440000000005,-0.12497451999999999,-37.09638032,-32.7662797,3.61131379,115.6333436,0.3651196057,-0.2512940486,-0.5305913183,-0.14878364919999998,0.04240102347000002,0.05231390865999998
08:29:28,0.6908051850000001,-0.235603065,0.077887235,-0.05351213999999999,0.046095359999999974,-0.12562437999999998,-37.09765008,-32.78590155,3.627988635,115.5825884,0.3700751870500001,-0.2518140459,-0.53828968395,-0.1485497498,0.03994350255500001,0.05327852128999998
08:29:28,0.6995828800000001,-0.23653412000000001,0.07909928,-0.05330972,0.04346928,-0.12627423999999998,-37.09891984,-32.8055234,3.64466348,115.53183320000001,0.37503076840000005,-0.25233404319999997,-0.5459880496,-0.1483158504,0.03748598164,0.05424313391999998
08:29:28,0.7083605749999999,-0.23746517500000003,0.08031132499999999,-0.053107299999999996,0.04084319999999997,-0.12692409999999998,-37.1001896,-32.82514525,3.661338325,115.48107800000001,0.37998634975,-0.2528540405,-0.5536864152499998,-0.148081951,0.035028460725000043,0.05520774654999998
08:29:28,0.71713827,-0.23839623000000001,0.08152336999999998,-0.052904879999999994,0.03821711999999999,-0.12757396,-37.10145936,-32.8447671,3.6780131700000003,115.4303228,0.3849419311000001,-0.2533740378,-0.5613847808999999,-0.14784805159999997,0.03257093981000003,0.05617235917999998
08:29:28,0.725915965,-0.239327285,0.082735415,-0.05270245999999999,0.03559103999999996,-0.12822382,-37.10272912,-32.86438895,3.694688015,115.3795676,0.38989751245000004,-0.25389403509999997,-0.5690831465499999,-0.1476141522,0.03011341889500002,0.05713697180999998
08:29:28,0.73469366,-0.24025834000000001,0.08394746,-0.05250004,0.03296495999999999,-0.12887368,-37.10399888,-32.8840108,3.71136286,115.3288124,0.3948530938000001,-0.2544140324,-0.5767815122,-0.1473802528,0.02765589798000001,0.05810158443999998
08:29:28,0.7434713550000001,-0.24118939500000003,0.085159505,-0.052297619999999996,0.030338879999999957,-0.12952354,-37.10526864,-32.90363265,3.728037705,115.2780572,0.39980867515000007,-0.2549340297,-0.58447987785,-0.14714635339999999,0.025198377065,0.05906619706999998
08:29:28,0.7522490500000001,-0.24212045000000001,0.08637154999999999,-0.052095199999999994,0.027712799999999982,-0.1301734,-37.1065384,-32.9232545,3.74471255,115.22730200000001,0.40476425650000003,-0.255454027,-0.5921782435,-0.146912454,0.022740856150000044,0.06003080969999998
08:29:28,0.7610267450000001,-0.243051505,0.08758359499999999,-0.05189277999999999,0.025086720000000007,-0.13082326,-37.10780816,-32.94287635,3.7613873950000003,115.17654680000001,0.4097198378500001,-0.2559740243,-0.5998766091499999,-0.14667855459999998,0.020283335235000033,0.06099542232999998
08:29:28,0.7698044399999999,-0.24398256000000001,0.08879563999999998,-0.05169036,0.02246063999999992,-0.13147312,-37.109077920000004,-32.9624982,3.77806224,115.1257916,0.41467541920000006,-0.2564940216,-0.6075749747999999,-0.1464446552,0.017825814320000022,0.06196003495999998
08:29:28,0.778582135,-0.24491361500000003,0.090007685,-0.051487939999999996,0.019834559999999946,-0.13212298,-37.110347680000004,-32.98212005,3.794737085,115.0750364,0.41963100055,-0.2570140189,-0.6152733404499999,-0.14621075579999998,0.01536829340500001,0.06292464758999998
08:29:28,0.78735983,-0.24584467000000002,0.09121973,-0.051285519999999994,0.01720847999999997,-0.13277284,-37.11161744,-33.0017419,3.8114119300000002,115.0242812,0.4245865819000001,-0.2575340162,-0.6229717061,-0.1459768564,0.01291077249,0.06388926021999998
08:29:28,0.796137525,-0.246775725,0.092431775,-0.0510831,0.014582399999999995,-0.1334227,-37.1128872,-33.02136375,3.828086775,114.973526,0.42954216325000005,-0.2580540135,-0.63067007175,-0.14574295699999998,0.010453251575000044,0.06485387284999998
08:29:28,0.80491522,-0.24770678000000002,0.09364381999999999,-0.05088068,0.01195632000000002,-0.13407256,-37.11415696,-33.0409856,3.8447616200000003,114.92277080000001,0.4344977446,-0.2585740108,-0.6383684374,-0.1455090576,0.007995730660000033,0.06581848547999998
08:29:28,0.8136929150000001,-0.24863783500000003,0.09485586499999998,-0.050678259999999996,0.009330239999999934,-0.13472242,-37.11542672,-33.06060745,3.861436465,114.8720156,0.4394533259500001,-0.2590940081,-0.6460668030499999,-0.14527515819999998,0.005538209745000022,0.06678309810999998
08:29:28,0.8224706100000001,-0.24956889000000002,0.09606791,-0.050475839999999994,0.006704159999999959,-0.13537228,-37.11669648,-33.0802293,3.87811131,114.8212604,0.44440890730000004,-0.2596140054,-0.6537651686999999,-0.1450412588,0.0030806888300000113,0.06774771073999998
08:29:28,0.8312483050000001,-0.250499945,0.097279955,-0.05027342,0.004078079999999984,-0.13602213999999999,-37.11796624,-33.09985115,3.8947861550000002,114.7705052,0.4493644886500001,-0.2601340027,-0.6614635343499999,-0.1448073594,0.0006231679150000002,0.06871232336999998
08:29:29,0.840026,-0.251431,0.098492,-0.050071,0.001452,-0.136672,-37.119236,-33.119473,3.911461,114.71975,0.45432007,-0.260654,-0.6691619,-0.14457346,-0.001834353,0.069676936
08:29:29,0.83385211,-0.24999981500000001,0.09742436,-0.049367869999999994,0.0005943899999999999,-0.137289905,-37.122923325,-33.124580915,3.92113572,114.77277303000001,0.4507629678,-0.25922166853,-0.6639114635,-0.14469851385,-0.002365652135,0.06944183526999999
08:29:29,0.82767822,-0.24856863,0.09635671999999999,-0.04866474,-0.0002632200000000002,-0.13790781,-37.12661065,-33.12968883,3.93081044,114.82579606,0.44720586560000003,-0.25778933706,-0.658661027,-0.1448235677,-0.00289695127,0.06920673454
08:29:29,0.82150433,-0.247137445,0.09528908,-0.047961609999999995,-0.0011208300000000004,-0.138525715,-37.130297975,-33.134796745,3.94048516,114.87881909000001,0.44364876340000003,-0.25635700559,-0.6534105904999999,-0.14494862155,-0.003428250405,0.06897163380999999
08:29:29,0.8153304400000001,-0.24570626,0.09422143999999999,-0.04725848,-0.0019784400000000006,-0.13914362,-37.1339853,-33.13990466,3.95015988,114.93184212,0.44009166120000004,-0.25492467411999997,-0.6481601539999999,-0.1450736754,-0.00395954954,0.06873653308
08:29:29,0.8091565500000001,-0.244275075,0.0931538,-0.046555349999999995,-0.0028360500000000005,-0.139761525,-37.137672625,-33.145012575,3.9598346,114.98486515,0.43653455900000004,-0.25349234265,-0.6429097175,-0.14519872925,-0.004490848675000001,0.06850143234999999
08:29:29,0.8029826600000001,-0.24284389,0.09208616,-0.04585222,-0.0036936600000000005,-0.14037943,-37.14135995,-33.15012049,3.9695093200000002,115.03788818000001,0.4329774568,-0.25206001118,-0.637659281,-0.1453237831,-0.0050221478100000005,0.06826633162
08:29:29,0.79680877,-0.241412705,0.09101851999999999,-0.045149089999999996,-0.0045512700000000005,-0.140997335,-37.145047275,-33.155228405,3.9791840400000003,115.09091121,0.4294203546,-0.25062767971,-0.6324088445,-0.14544883695,-0.005553446945,0.06803123088999999
08:29:29,0.79063488,-0.23998152,0.08995088,-0.04444596,-0.0054088800000000005,-0.14161523999999998,-37.1487346,-33.16033632,3.9888587600000003,115.14393424000001,0.4258632524,-0.24919534824,-0.627158408,-0.1455738908,-0.00608474608,0.06779613016
08:29:29,0.78446099,-0.238550335,0.08888324,-0.043742829999999996,-0.00626649,-0.14223314499999998,-37.152421925,-33.165444235,3.99853348,115.19695727,0.4223061502,-0.24776301677,-0.6219079715,-0.14569894465,-0.006616045215,0.06756102942999999
08:29:29,0.7782871,-0.23711915,0.0878156,-0.0430397,-0.007124100000000001,-0.14285104999999998,-37.15610925,-33.17055215,4.0082082,115.2499803,0.418749048,-0.2463306853,-0.616657535,-0.1458239985,-0.007147344350000001,0.0673259287
08:29:29,0.7721132100000001,-0.235687965,0.08674796,-0.04233657,-0.007981710000000001,-0.14346895499999998,-37.159796575,-33.175660065,4.01788292,115.30300333000001,0.4151919458,-0.24489835383,-0.6114070985,-0.14594905235,-0.007678643485000001,0.06709082796999999
08:29:29,0.7659393200000001,-0.23425678,0.08568032,-0.041633439999999994,-0.008839320000000001,-0.14408685999999998,-37.1634839,-33.18076798,4.02755764,115.35602636,0.4116348436,-0.24346602236,-0.606156662,-0.1460741062,-0.00820994262,0.06685572724
08:29:29,0.7597654300000001,-0.23282559500000002,0.08461268,-0.04093031,-0.009696930000000001,-0.14470476499999999,-37.167171225000004,-33.185875895,4.03723236,115.40904939,0.4080777414,-0.24203369089,-0.6009062255,-0.14619916005,-0.008741241755,0.06662062650999999
08:29:29,0.7535915400000001,-0.23139441000000002,0.08354504,-0.040227179999999994,-0.010554540000000001,-0.14532267,-37.17085855,-33.19098381,4.04690708,115.46207242,0.40452063920000003,-0.24060135942,-0.5956557889999999,-0.1463242139,-0.00927254089,0.06638552578
08:29:29,0.74741765,-0.22996322500000002,0.0824774,-0.03952405,-0.011412150000000001,-0.145940575,-37.174545875,-33.196091725,4.0565818,115.51509545,0.40096353700000004,-0.23916902795,-0.5904053524999999,-0.14644926775,-0.009803840025000001,0.06615042504999999
08:29:29,0.74124376,-0.22853204000000002,0.08140976,-0.038820919999999995,-0.012269760000000001,-0.14655848,-37.1782332,-33.20119964,4.0662565200000005,115.56811848000001,0.39740643480000004,-0.23773669648,-0.585154916,-0.1465743216,-0.010335139160000001,0.06591532432
08:29:29,0.73506987,-0.22710085500000002,0.08034211999999999,-0.03811779,-0.013127370000000001,-0.147176385,-37.181920525,-33.206307555,4.07593124,115.62114151,0.3938493326,-0.23630436501,-0.5799044795,-0.14669937544999997,-0.010866438295000001,0.06568022358999999
08:29:29,0.7288959800000001,-0.22566967000000002,0.07927448,-0.037414659999999995,-0.013984980000000001,-0.14779429,-37.185607850000004,-33.21141547,4.08560596,115.67416454,0.3902922304,-0.23487203354,-0.574654043,-0.14682442929999998,-0.01139773743,0.06544512286
08:29:29,0.7227220900000001,-0.22423848500000002,0.07820684,-0.03671152999999999,-0.014842590000000001,-0.148412195,-37.189295175,-33.216523385,4.09528068,115.72718757,0.3867351282,-0.23343970207,-0.5694036065,-0.14694948314999998,-0.011929036565000002,0.06521002212999999
08:29:29,0.7165482000000001,-0.2228073,0.07713919999999999,-0.036008399999999996,-0.015700200000000004,-0.1490301,-37.1929825,-33.2216313,4.1049554,115.7802106,0.383178026,-0.23200737059999998,-0.56415317,-0.14707453699999998,-0.012460335700000002,0.0649749214
08:29:29,0.7103743100000001,-0.221376115,0.07607156,-0.03530527,-0.016557810000000003,-0.149648005,-37.196669825,-33.226739215,4.11463012,115.83323363000001,0.3796209238,-0.23057503913,-0.5589027335,-0.14719959084999998,-0.012991634835000002,0.06473982066999999
08:29:29,0.70420042,-0.21994493,0.07500392,-0.034602139999999997,-0.017415420000000004,-0.15026591,-37.20035715,-33.23184713,4.12430484,115.88625666,0.3760638216,-0.22914270766,-0.553652297,-0.14732464469999998,-0.013522933970000001,0.06450471994
08:29:29,0.69802653,-0.218513745,0.07393628,-0.03389900999999999,-0.018273030000000003,-0.15088381499999998,-37.204044475,-33.236955045,4.13397956,115.93927969,0.3725067194,-0.22771037619,-0.5484018605,-0.14744969854999998,-0.014054233105000001,0.06426961920999999
08:29:29,0.69185264,-0.21708256,0.07286864,-0.03319588,-0.019130640000000004,-0.15150171999999998,-37.2077318,-33.24206296,4.14365428,115.99230272,0.3689496172,-0.22627804472,-0.5431514239999999,-0.14757475239999998,-0.01458553224,0.06403451848
08:29:29,0.6856787500000001,-0.215651375,0.071801,-0.03249275,-0.019988250000000003,-0.15211962499999998,-37.211419125,-33.247170875,4.153329,116.04532575,0.36539251500000003,-0.22484571325,-0.5379009875,-0.14769980624999998,-0.015116831375000002,0.06379941774999999
08:29:29,0.6795048600000001,-0.21422019,0.07073336,-0.03178962,-0.020845860000000004,-0.15273752999999998,-37.21510645,-33.25227879,4.16300372,116.09834878000001,0.3618354128,-0.22341338178,-0.532650551,-0.14782486009999998,-0.01564813051,0.06356431702
08:29:29,0.6733309700000001,-0.212789005,0.06966572,-0.031086489999999994,-0.021703470000000002,-0.15335543499999998,-37.218793775,-33.257386705,4.17267844,116.15137181,0.35827831060000004,-0.22198105030999998,-0.5274001145,-0.14794991394999998,-0.016179429645,0.06332921628999999
08:29:29,0.6671570800000001,-0.21135782,0.06859808,-0.030383359999999995,-0.022561080000000004,-0.15397334,-37.2224811,-33.26249462,4.18235316,116.20439484,0.3547212084,-0.22054871884,-0.522149678,-0.14807496779999998,-0.01671072878,0.06309411556
08:29:29,0.66098319,-0.209926635,0.06753044,-0.029680229999999995,-0.023418690000000002,-0.154591245,-37.226168425,-33.267602535,4.19202788,116.25741787,0.3511641062,-0.21911638737,-0.5168992415,-0.14820002164999999,-0.017242027915,0.06285901482999999
08:29:29,0.6548093,-0.20849545000000003,0.0664628,-0.028977099999999995,-0.024276300000000004,-0.15520915,-37.22985575,-33.27271045,4.2017026,116.3104409,0.347607004,-0.2176840559,-0.511648805,-0.1483250755,-0.017773327050000003,0.0626239141
08:29:29,0.64863541,-0.20706426500000003,0.06539516000000001,-0.028273969999999995,-0.025133910000000002,-0.155827055,-37.233543075,-33.277818365,4.21137732,116.36346393000001,0.3440499018,-0.21625172443,-0.5063983685,-0.14845012935,-0.018304626185000002,0.06238881337
08:29:29,0.6424615200000001,-0.20563308000000002,0.06432752,-0.027570839999999996,-0.025991520000000004,-0.15644496,-37.2372304,-33.28292628,4.22105204,116.41648696,0.3404927996,-0.21481939296,-0.501147932,-0.1485751832,-0.018835925320000002,0.06215371264
08:29:29,0.6362876300000001,-0.20420189500000002,0.06325987999999999,-0.026867709999999996,-0.026849130000000006,-0.157062865,-37.240917725,-33.288034195,4.2307267600000005,116.46950999,0.3369356974,-0.21338706149,-0.49589749549999995,-0.14870023705,-0.019367224455000002,0.06191861191
08:29:29,0.6301137400000001,-0.20277071000000002,0.062192239999999996,-0.026164579999999996,-0.027706740000000004,-0.15768077,-37.244605050000004,-33.29314211,4.24040148,116.52253302,0.3333785952,-0.21195473001999998,-0.490647059,-0.1488252909,-0.01989852359,0.06168351118
08:29:29,0.6239398500000001,-0.20133952500000002,0.0611246,-0.025461449999999997,-0.028564350000000006,-0.158298675,-37.248292375,-33.298250025,4.2500762000000005,116.57555605,0.329821493,-0.21052239855,-0.4853966225,-0.14895034475,-0.020429822725,0.06144841044999999
08:29:29,0.6177659600000001,-0.19990834000000002,0.06005696,-0.024758319999999997,-0.029421960000000004,-0.15891658,-37.2519797,-33.30335794,4.25975092,116.62857908000001,0.3262643908,-0.20909006708,-0.48014618600000003,-0.1490753986,-0.02096112186,0.06121330972
08:29:29,0.61159207,-0.19847715500000002,0.05898932,-0.024055189999999997,-0.030279570000000002,-0.159534485,-37.255667025,-33.308465855,4.26942564,116.68160211,0.3227072886,-0.20765773561,-0.4748957495,-0.14920045245,-0.021492420995,0.06097820898999999
08:29:29,0.60541818,-0.19704597000000001,0.05792168,-0.023352059999999994,-0.031137180000000004,-0.16015238999999998,-37.25935435,-33.31357377,4.27910036,116.73462514,0.31915018640000004,-0.20622540413999998,-0.469645313,-0.1493255063,-0.022023720130000004,0.06074310826
08:29:29,0.5992442900000001,-0.195614785,0.05685404,-0.022648929999999994,-0.03199479,-0.16077029499999998,-37.263041675000004,-33.318681685,4.28877508,116.78764817,0.3155930842,-0.20479307267,-0.4643948765,-0.14945056015,-0.022555019265000004,0.06050800752999999
08:29:29,0.5930704,-0.1941836,0.0557864,-0.021945799999999994,-0.032852400000000004,-0.16138819999999998,-37.266729,-33.3237896,4.2984498,116.8406712,0.312035982,-0.2033607412,-0.45914444,-0.149575614,-0.023086318400000003,0.0602729068
08:29:29,0.5868965100000001,-0.192752415,0.05471876,-0.021242669999999995,-0.03371001,-0.16200610499999998,-37.270416325,-33.328897515,4.30812452,116.89369423000001,0.3084788798,-0.20192840972999998,-0.4538940035,-0.14970066785,-0.023617617535000003,0.06003780606999999
08:29:29,0.5807226200000001,-0.19132123,0.05365112,-0.020539539999999995,-0.03456762,-0.16262400999999999,-37.27410365,-33.33400543,4.31779924,116.94671726,0.3049217776,-0.20049607826,-0.44864356699999997,-0.1498257217,-0.024148916670000003,0.05980270534
08:29:29,0.5745487300000001,-0.189890045,0.05258348,-0.019836409999999995,-0.03542523,-0.163241915,-37.277790975,-33.339113345,4.32747396,116.99974029,0.3013646754,-0.19906374679,-0.44339313049999995,-0.14995077555,-0.024680215805000003,0.05956760460999999
08:29:29,0.56837484,-0.18845886,0.05151584,-0.019133279999999996,-0.036282840000000004,-0.16385982,-37.2814783,-33.34422126,4.33714868,117.05276332,0.2978075732,-0.19763141532,-0.438142694,-0.1500758294,-0.025211514940000002,0.05933250388
08:29:29,0.56220095,-0.187027675,0.0504482,-0.018430149999999992,-0.03714045,-0.164477725,-37.285165625,-33.349329175,4.3468234,117.10578635,0.294250471,-0.19619908385,-0.4328922575,-0.15020088325,-0.025742814075000002,0.05909740314999999
08:29:29,0.5560270600000001,-0.18559649,0.049380560000000004,-0.017727019999999996,-0.03799806,-0.16509563,-37.28885295,-33.35443709,4.35649812,117.15880938000001,0.29069336879999996,-0.19476675238,-0.42764182100000003,-0.1503259371,-0.026274113210000002,0.05886230242
08:29:29,0.54985317,-0.184165305,0.04831292,-0.017023889999999993,-0.03885567,-0.165713535,-37.292540275,-33.359545005,4.36617284,117.21183241,0.2871362666,-0.19333442091,-0.4223913845,-0.15045099095,-0.026805412345,0.05862720168999999
08:29:29,0.5436792800000001,-0.18273412,0.04724528,-0.016320759999999997,-0.039713280000000004,-0.16633144,-37.2962276,-33.36465292,4.37584756,117.26485544,0.2835791644,-0.19190208943999998,-0.417140948,-0.1505760448,-0.02733671148,0.05839210096
08:29:29,0.5375053900000001,-0.181302935,0.04617764,-0.015617629999999993,-0.040570890000000005,-0.166949345,-37.299914925,-33.369760835,4.38552228,117.31787847,0.28002206220000003,-0.19046975797,-0.4118905115,-0.15070109865,-0.027868010615000004,0.05815700022999999
08:29:29,0.5313315000000001,-0.17987175,0.04511,-0.014914499999999997,-0.0414285,-0.16756725,-37.30360225,-33.37486875,4.3951970000000005,117.3709015,0.27646496,-0.1890374265,-0.406640075,-0.15082615249999998,-0.028399309750000004,0.0579218995
08:29:29,0.52515761,-0.178440565,0.04404236,-0.014211369999999994,-0.04228611,-0.16818515499999998,-37.307289575,-33.379976665,4.40487172,117.42392453000001,0.2729078578,-0.18760509503,-0.4013896385,-0.15095120634999998,-0.028930608885000004,0.05768679876999999
08:29:29,0.51898372,-0.17700938,0.04297472,-0.013508239999999998,-0.04314372,-0.16880306,-37.3109769,-33.38508458,4.4145464400000005,117.47694756,0.2693507556,-0.18617276356,-0.396139202,-0.15107626019999998,-0.029461908020000004,0.05745169804
08:29:29,0.5128098300000001,-0.175578195,0.04190708,-0.012805109999999995,-0.044001330000000005,-0.16942096499999998,-37.314664225,-33.390192495,4.42422116,117.52997059,0.2657936534,-0.18474043209,-0.3908887655,-0.15120131404999998,-0.029993207155000003,0.05721659730999999
08:29:29,0.50663594,-0.17414701,0.040839440000000005,-0.012101979999999991,-0.04485894,-0.17003887,-37.31835155,-33.39530041,4.43389588,117.58299362,0.2622365512,-0.18330810062,-0.385638329,-0.15132636789999998,-0.030524506290000003,0.05698149657999999
08:29:29,0.5004620500000001,-0.172715825,0.0397718,-0.011398849999999995,-0.04571655,-0.17065677499999998,-37.322038875000004,-33.400408325,4.4435706,117.63601665,0.258679449,-0.18187576914999998,-0.3803878925,-0.15145142174999998,-0.031055805425000003,0.05674639584999999
08:29:29,0.4942881600000001,-0.17128464,0.03870416,-0.010695719999999992,-0.04657416,-0.17127467999999998,-37.3257262,-33.40551624,4.45324532,117.68903968000001,0.2551223468,-0.18044343767999999,-0.375137456,-0.15157647559999998,-0.03158710456,0.05651129511999999
08:29:29,0.4881142700000001,-0.169853455,0.03763652,-0.009992589999999996,-0.047431770000000005,-0.171892585,-37.329413525,-33.410624155,4.46292004,117.74206271,0.25156524459999996,-0.17901110621,-0.3698870195,-0.15170152944999998,-0.032118403695,0.05627619438999999
08:29:29,0.48194038000000006,-0.16842226999999999,0.03656888,-0.009289459999999992,-0.04828938,-0.17251049,-37.33310085,-33.41573207,4.47259476,117.79508574,0.2480081424,-0.17757877474,-0.364636583,-0.15182658329999998,-0.03264970283,0.05604109365999999
08:29:29,0.4757664900000001,-0.166991085,0.03550124,-0.008586329999999996,-0.04914699,-0.173128395,-37.336788175,-33.420839985,4.48226948,117.84810877,0.2444510402,-0.17614644327,-0.3593861465,-0.15195163714999999,-0.033181001965,0.05580599292999999
08:29:29,0.4695926000000001,-0.1655599,0.03443360000000001,-0.007883199999999993,-0.0500046,-0.1737463,-37.340475500000004,-33.4259479,4.4919442,117.9011318,0.240893938,-0.1747141118,-0.35413571,-0.15207669099999999,-0.0337123011,0.05557089219999999
08:29:29,0.46341871000000007,-0.164128715,0.03336596,-0.007180069999999997,-0.050862210000000005,-0.174364205,-37.344162825,-33.431055815,4.50161892,117.95415483000001,0.2373368358,-0.17328178033,-0.3488852735,-0.15220174485,-0.034243600235,0.05533579146999999
08:29:29,0.45724482000000005,-0.16269753,0.032298320000000005,-0.0064769399999999935,-0.05171982,-0.17498211,-37.34785015,-33.43616373,4.51129364,118.00717786,0.23377973359999998,-0.17184944885999998,-0.343634837,-0.1523267987,-0.03477489937,0.05510069073999999
08:29:29,0.4510709300000001,-0.161266345,0.031230679999999997,-0.005773809999999997,-0.05257743,-0.175600015,-37.351537475,-33.441271645,4.52096836,118.06020089,0.2302226314,-0.17041711738999998,-0.3383844005,-0.15245185255,-0.035306198505,0.05486559000999999
