Timestamp,linacce_x,linacce_y,linacce_z,gyro_x,gyro_y,gyro_z,X-magnetometer,Y-magnetometer,Z-magnetometer,Yaw, worldXAccel,worldYAccel,worldZAccel,worldXgyro,worldYgyro,worldZgyro
03:45:39,0.34217,-0.02454,-0.689902,0.101806,0.063671,0.023254,-50.375015,-28.135517,6.728271,109.25371,-0.44060063,-0.05507935,-0.17939097,0.071562245,0.062485583,-0.1218572
03:45:39,0.34038132,-0.02449364,-0.68516336,0.10182730499999999,0.06416106,0.023429785,-50.375082295,-28.13398582,6.718122575000001,109.27219403,-0.4373732007,-0.054926003745,-0.17867254248,0.071716207425,0.062983207035,-0.12216884735
03:45:39,0.33859264,-0.02444728,-0.68042472,0.10184860999999999,0.06465112,0.02360557,-50.37514959,-28.13245464,6.70797415,109.29067806,-0.4341457714,-0.05477265749,-0.17795411496000002,0.07187016985,0.06348083107,-0.1224804947
03:45:39,0.33680395999999996,-0.02440092,-0.67568608,0.10186991499999999,0.06514118,0.023781355,-50.375216885,-28.13092346,6.697825725,109.30916209,-0.4309183421,-0.054619311235,-0.17723568744,0.072024132275,0.063978455105,-0.12279214205
03:45:39,0.33501527999999997,-0.02435456,-0.6709474400000001,0.10189121999999999,0.06563124000000001,0.023957140000000002,-50.375284179999994,-28.12939228,6.687677300000001,109.32764612,-0.4276909128,-0.054465964979999996,-0.17651725992,0.0721780947,0.06447607914,-0.1231037894
03:45:39,0.3332266,-0.0243082,-0.6662088,0.10191252499999999,0.06612130000000001,0.024132925,-50.375351474999995,-28.1278611,6.677528875,109.34613015,-0.4244634835,-0.054312618725,-0.17579883240000002,0.072332057125,0.064973703175,-0.12341543675
03:45:39,0.33143792,-0.02426184,-0.66147016,0.10193382999999999,0.06661136000000001,0.02430871,-50.375418769999996,-28.12632992,6.6673804500000005,109.36461418,-0.4212360542,-0.05415927247,-0.17508040488,0.07248601955,0.06547132721,-0.1237270841
03:45:39,0.32964923999999995,-0.02421548,-0.65673152,0.10195513499999999,0.06710142000000001,0.024484495000000002,-50.375486065,-28.12479874,6.657232025,109.38309821,-0.4180086249,-0.054005926215,-0.17436197736,0.07263998197499999,0.065968951245,-0.12403873145
03:45:39,0.32786055999999997,-0.02416912,-0.65199288,0.10197643999999999,0.06759148000000001,0.02466028,-50.37555336,-28.12326756,6.6470836,109.40158224,-0.4147811956,-0.05385257996,-0.17364354984000002,0.07279394439999999,0.06646657528,-0.1243503788
03:45:39,0.32607188,-0.02412276,-0.64725424,0.10199774499999999,0.06808154000000001,0.024836065,-50.375620655,-28.12173638,6.6369351750000005,109.42006626999999,-0.4115537663,-0.053699233705,-0.17292512232,0.07294790682499999,0.066964199315,-0.12466202615
03:45:39,0.3242832,-0.024076399999999998,-0.6425156000000001,0.10201905,0.06857160000000001,0.02501185,-50.37568795,-28.1202052,6.62678675,109.4385503,-0.408326337,-0.053545887449999996,-0.1722066948,0.07310186924999999,0.06746182335,-0.1249736735
03:45:39,0.32249451999999995,-0.02403004,-0.6377769600000001,0.102040355,0.06906166000000001,0.025187635,-50.375755245,-28.11867402,6.616638325,109.45703433,-0.4050989077,-0.053392541195,-0.17148826728,0.073255831675,0.067959447385,-0.12528532085
03:45:39,0.32070583999999996,-0.02398368,-0.63303832,0.10206166,0.06955172000000001,0.02536342,-50.37582254,-28.11714284,6.606489900000001,109.47551836,-0.4018714784,-0.05323919494,-0.17076983976000001,0.0734097941,0.06845707142,-0.1255969682
03:45:39,0.31891716,-0.023937319999999998,-0.62829968,0.102082965,0.07004178,0.025539205,-50.375889834999995,-28.11561166,6.596341475,109.49400238999999,-0.3986440491,-0.053085848685,-0.17005141224,0.073563756525,0.06895469545499999,-0.12590861555
03:45:39,0.31712848,-0.02389096,-0.62356104,0.10210427,0.07053184,0.02571499,-50.375957129999996,-28.114080480000002,6.58619305,109.51248642,-0.3954166198,-0.05293250243,-0.16933298472000002,0.07371771895,0.06945231949,-0.1262202629
03:45:39,0.31533979999999995,-0.0238446,-0.6188224,0.102125575,0.0710219,0.025890775,-50.376024425,-28.1125493,6.576044625000001,109.53097045,-0.3921891905,-0.052779156175,-0.16861455720000001,0.073871681375,0.069949943525,-0.12653191025
03:45:39,0.31355111999999996,-0.02379824,-0.61408376,0.10214688,0.07151196,0.02606656,-50.37609172,-28.11101812,6.5658962,109.54945448,-0.3889617612,-0.05262580992,-0.16789612968,0.0740256438,0.07044756756,-0.1268435576
03:45:39,0.31176244,-0.02375188,-0.60934512,0.102168185,0.07200202,0.026242345,-50.376159015,-28.10948694,6.555747775,109.56793851,-0.3857343319,-0.052472463664999996,-0.16717770216,0.074179606225,0.070945191595,-0.12715520495
03:45:39,0.30997376,-0.02370552,-0.6046064800000001,0.10218949,0.07249208,0.026418129999999998,-50.37622631,-28.10795576,6.545599350000001,109.58642254,-0.3825069026,-0.05231911741,-0.16645927464000002,0.07433356865,0.07144281563,-0.1274668523
03:45:39,0.30818508,-0.02365916,-0.59986784,0.102210795,0.07298214,0.026593915,-50.376293605,-28.10642458,6.535450925,109.60490657,-0.3792794733,-0.052165771155,-0.16574084712,0.074487531075,0.071940439665,-0.12777849965
03:45:39,0.30639639999999996,-0.0236128,-0.5951292,0.10223209999999999,0.0734722,0.0267697,-50.376360899999995,-28.1048934,6.5253025000000004,109.6233906,-0.37605204400000003,-0.0520124249,-0.1650224196,0.0746414935,0.0724380637,-0.128090147
03:45:39,0.30460771999999997,-0.02356644,-0.59039056,0.10225340499999999,0.07396226,0.026945484999999998,-50.376428194999995,-28.10336222,6.515154075,109.64187463,-0.3728246147,-0.051859078645,-0.16430399208000002,0.074795455925,0.072935687735,-0.12840179435
03:45:39,0.30281904,-0.02352008,-0.58565192,0.10227470999999999,0.07445232,0.02712127,-50.376495489999996,-28.10183104,6.50500565,109.66035866,-0.3695971854,-0.05170573239,-0.16358556456,0.07494941834999999,0.07343331177,-0.1287134417
03:45:39,0.30103036,-0.02347372,-0.58091328,0.10229601499999999,0.07494238,0.027297055,-50.376562785,-28.10029986,6.4948572250000005,109.67884269,-0.3663697561,-0.051552386135,-0.16286713704,0.07510338077499999,0.073930935805,-0.12902508904999999
03:45:39,0.29924167999999995,-0.02342736,-0.5761746400000001,0.10231731999999999,0.07543244,0.02747284,-50.37663008,-28.09876868,6.4847088,109.69732671999999,-0.3631423268,-0.05139903988,-0.16214870952000002,0.0752573432,0.07442855983999999,-0.12933673639999999
03:45:39,0.29745299999999997,-0.023381,-0.571436,0.10233862499999999,0.0759225,0.027648625,-50.376697375,-28.0972375,6.474560375,109.71581075,-0.3599148975,-0.051245693625,-0.161430282,0.075411305625,0.074926183875,-0.12964838374999998
03:45:39,0.29566432,-0.02333464,-0.56669736,0.10235992999999999,0.07641256,0.02782441,-50.37676467,-28.09570632,6.464411950000001,109.73429478,-0.35668746819999997,-0.05109234737,-0.16071185448,0.07556526805,0.07542380791,-0.12996003109999998
03:45:39,0.29387564,-0.023288279999999998,-0.56195872,0.10238123499999999,0.07690262,0.028000195,-50.376831965,-28.09417514,6.454263525,109.75277881,-0.3534600389,-0.050939001115,-0.15999342696000002,0.075719230475,0.075921431945,-0.13027167844999998
03:45:39,0.29208696,-0.02324192,-0.55722008,0.10240254,0.07739268,0.02817598,-50.37689926,-28.09264396,6.4441151,109.77126283999999,-0.3502326096,-0.05078565486,-0.15927499944,0.0758731929,0.07641905598,-0.1305833258
03:45:39,0.29029827999999996,-0.02319556,-0.55248144,0.102423845,0.07788274,0.028351765,-50.376966554999996,-28.09111278,6.433966675000001,109.78974687,-0.3470051803,-0.050632308605,-0.15855657192,0.076027155325,0.076916680015,-0.13089497315
03:45:39,0.2885096,-0.023149199999999998,-0.5477428,0.10244515,0.0783728,0.02852755,-50.37703385,-28.0895816,6.42381825,109.8082309,-0.343777751,-0.050478962349999996,-0.15783814440000002,0.07618111775,0.07741430405,-0.1312066205
03:45:39,0.28672092,-0.02310284,-0.54300416,0.102466455,0.07886286,0.028703335,-50.377101145,-28.088050420000002,6.413669825,109.82671493,-0.3405503217,-0.050325616095,-0.15711971688,0.076335080175,0.077911928085,-0.13151826785
03:45:39,0.28493223999999995,-0.02305648,-0.53826552,0.10248776,0.07935292000000001,0.02887912,-50.37716844,-28.08651924,6.403521400000001,109.84519895999999,-0.3373228924,-0.05017226984,-0.15640128936,0.0764890426,0.07840955212,-0.1318299152
03:45:39,0.28314355999999996,-0.02301012,-0.53352688,0.102509065,0.07984298000000001,0.029054905,-50.377235735,-28.08498806,6.393372975,109.86368299,-0.3340954631,-0.050018923585,-0.15568286184000002,0.076643005025,0.07890717615500001,-0.13214156255
03:45:39,0.28135488,-0.02296376,-0.52878824,0.10253037,0.08033304000000001,0.02923069,-50.37730303,-28.08345688,6.38322455,109.88216702,-0.3308680338,-0.04986557733,-0.15496443432,0.07679696745,0.07940480019,-0.1324532099
03:45:39,0.2795662,-0.0229174,-0.5240496,0.102551675,0.08082310000000001,0.029406475,-50.377370325,-28.0819257,6.373076125,109.90065105,-0.3276406045,-0.049712231075,-0.1542460068,0.076950929875,0.079902424225,-0.13276485725
03:45:39,0.27777752,-0.02287104,-0.51931096,0.10257298,0.08131316,0.02958226,-50.377437619999995,-28.08039452,6.3629277,109.91913508,-0.3244131752,-0.049558884819999996,-0.15352757928,0.0771048923,0.08040004826,-0.1330765046
03:45:39,0.27598883999999996,-0.02282468,-0.5145723200000001,0.102594285,0.08180322000000001,0.029758045,-50.377504914999996,-28.07886334,6.3527792750000005,109.93761911,-0.3211857459,-0.049405538565,-0.15280915176,0.07725885472499999,0.080897672295,-0.13338815195
03:45:39,0.27420015999999997,-0.022778319999999998,-0.5098336800000001,0.10261558999999999,0.08229328,0.029933829999999998,-50.37757221,-28.07733216,6.34263085,109.95610314,-0.3179583166,-0.04925219231,-0.15209072424,0.07741281715,0.08139529633,-0.1336997993
03:45:39,0.27241148,-0.02273196,-0.50509504,0.10263689499999999,0.08278334000000001,0.030109615,-50.377639505,-28.07580098,6.332482425,109.97458716999999,-0.3147308873,-0.049098846055,-0.15137229672000002,0.077566779575,0.081892920365,-0.13401144665
03:45:39,0.27062279999999994,-0.0226856,-0.5003564,0.10265819999999999,0.0832734,0.030285399999999997,-50.3777068,-28.0742698,6.322334000000001,109.9930712,-0.311503458,-0.0489454998,-0.1506538692,0.077720742,0.0823905444,-0.134323094
03:45:39,0.26883411999999995,-0.022639239999999998,-0.49561776,0.10267950499999999,0.08376346000000001,0.030461184999999998,-50.377774095,-28.07273862,6.312185575,110.01155523,-0.30827602870000004,-0.048792153545,-0.14993544168,0.077874704425,0.08288816843499999,-0.13463474135
03:45:39,0.26704543999999997,-0.02259288,-0.49087912,0.10270080999999999,0.08425352,0.03063697,-50.37784139,-28.071207440000002,6.30203715,110.03003926,-0.3050485994,-0.04863880729,-0.14921701416,0.07802866685,0.08338579247,-0.1349463887
03:45:39,0.26525676,-0.02254652,-0.48614048000000004,0.10272211499999999,0.08474358,0.030812754999999997,-50.377908685,-28.06967626,6.291888725000001,110.04852328999999,-0.3018211701,-0.048485461034999996,-0.14849858664,0.078182629275,0.083883416505,-0.13525803605
03:45:39,0.26346808,-0.022500159999999998,-0.48140184,0.10274341999999999,0.08523364,0.03098854,-50.37797598,-28.06814508,6.2817403,110.06700732,-0.2985937408,-0.04833211478,-0.14778015912,0.0783365917,0.08438104054000001,-0.1355696834
03:45:39,0.2616794,-0.0224538,-0.47666320000000006,0.10276472499999999,0.0857237,0.031164325,-50.378043274999996,-28.0666139,6.271591875,110.08549135,-0.29536631150000003,-0.048178768525,-0.14706173160000002,0.078490554125,0.084878664575,-0.13588133075
03:45:39,0.25989071999999996,-0.02240744,-0.47192456000000005,0.10278603,0.08621376,0.03134011,-50.37811057,-28.06508272,6.26144345,110.10397538,-0.2921388822,-0.04802542227,-0.14634330408000001,0.07864451655,0.08537628861,-0.1361929781
03:45:39,0.25810204,-0.02236108,-0.46718592000000003,0.102807335,0.08670382,0.031515895,-50.378177865,-28.06355154,6.251295025,110.12245940999999,-0.2889114529,-0.047872076015,-0.14562487656,0.078798478975,0.085873912645,-0.13650462545
03:45:39,0.25631336,-0.02231472,-0.46244728,0.10282864,0.08719388,0.03169168,-50.37824516,-28.06202036,6.2411466,110.14094344,-0.2856840236,-0.04771872976,-0.14490644904,0.0789524414,0.08637153668,-0.1368162728
03:45:39,0.25452467999999995,-0.02226836,-0.45770864,0.102849945,0.08768394,0.031867465,-50.378312455,-28.06048918,6.230998175,110.15942747,-0.28245659430000003,-0.047565383505,-0.14418802152000001,0.079106403825,0.086869160715,-0.13712792015
03:45:39,0.25273599999999996,-0.022222,-0.45297000000000004,0.10287125,0.088174,0.032043249999999995,-50.37837975,-28.058958,6.22084975,110.1779115,-0.279229165,-0.04741203725,-0.143469594,0.07926036624999999,0.08736678475000001,-0.1374395675
03:45:39,0.25094732,-0.02217564,-0.44823136,0.102892555,0.08866406,0.032219035,-50.378447045,-28.05742682,6.2107013250000005,110.19639553,-0.2760017357,-0.047258690995,-0.14275116648,0.07941432867499999,0.087864408785,-0.13775121485
03:45:39,0.24915864,-0.02212928,-0.44349272000000006,0.10291386,0.08915412,0.03239482,-50.378514339999995,-28.05589564,6.2005529,110.21487956,-0.2727743064,-0.04710534474,-0.14203273896000002,0.0795682911,0.08836203282,-0.1380628622
03:45:39,0.24736995999999997,-0.02208292,-0.43875408000000005,0.102935165,0.08964418,0.032570605,-50.378581634999996,-28.054364460000002,6.190404475,110.23336359,-0.2695468771,-0.046951998485,-0.14131431144,0.079722253525,0.088859656855,-0.13837450955
03:45:39,0.24558127999999996,-0.02203656,-0.43401544000000003,0.10295647,0.09013424,0.03274639,-50.37864893,-28.05283328,6.180256050000001,110.25184761999999,-0.26631944780000005,-0.04679865223,-0.14059588392,0.07987621595,0.08935728089,-0.1386861569
03:45:39,0.24379259999999997,-0.0219902,-0.4292768,0.102977775,0.0906243,0.032922175,-50.378716225,-28.0513021,6.170107625,110.27033165,-0.2630920185,-0.046645305974999995,-0.1398774564,0.080030178375,0.089854904925,-0.13899780425
03:45:39,0.24200391999999998,-0.02194384,-0.42453816000000005,0.10299907999999999,0.09111436,0.033097959999999996,-50.37878352,-28.04977092,6.1599592,110.28881568,-0.2598645892,-0.04649195972,-0.13915902888,0.0801841408,0.09035252896,-0.1393094516
03:45:39,0.24021524,-0.02189748,-0.41979952000000004,0.10302038499999999,0.09160442,0.033273745,-50.378850815,-28.04823974,6.149810775000001,110.30729971,-0.2566371599,-0.046338613465,-0.13844060136,0.080338103225,0.090850152995,-0.13962109895
03:45:39,0.23842655999999998,-0.021851119999999998,-0.41506088,0.10304168999999999,0.09209448,0.03344953,-50.37891811,-28.04670856,6.13966235,110.32578373999999,-0.25340973060000005,-0.04618526721,-0.13772217384000002,0.08049206565,0.09134777703,-0.1399327463
03:45:39,0.23663787999999997,-0.02180476,-0.41032224000000006,0.10306299499999999,0.09258454,0.033625315,-50.378985405,-28.045177380000002,6.129513925,110.34426777,-0.2501823013,-0.046031920955,-0.13700374632,0.080646028075,0.091845401065,-0.14024439365
03:45:39,0.23484919999999998,-0.0217584,-0.40558360000000004,0.10308429999999999,0.09307460000000001,0.0338011,-50.3790527,-28.0436462,6.119365500000001,110.3627518,-0.24695487200000002,-0.0458785747,-0.1362853188,0.0807999905,0.0923430251,-0.140556041
03:45:39,0.23306052,-0.02171204,-0.40084496000000003,0.10310560499999999,0.09356466,0.033976885,-50.379119994999996,-28.04211502,6.109217075,110.38123583,-0.24372744270000002,-0.045725228445,-0.13556689128,0.080953952925,0.09284064913500001,-0.14086768835
03:45:39,0.23127183999999998,-0.02166568,-0.39610632,0.10312690999999999,0.09405472000000001,0.034152669999999996,-50.37918729,-28.04058384,6.09906865,110.39971985999999,-0.24050001340000002,-0.045571882189999996,-0.13484846376,0.08110791535,0.09333827317,-0.1411793357
03:45:39,0.22948315999999996,-0.02161932,-0.39136768000000005,0.10314821499999999,0.09454478,0.034328455,-50.379254585,-28.03905266,6.088920225,110.41820389,-0.23727258410000002,-0.045418535935000004,-0.13413003624,0.081261877775,0.093835897205,-0.14149098305
03:45:39,0.22769447999999998,-0.02157296,-0.38662904000000003,0.10316952,0.09503484000000001,0.03450424,-50.37932188,-28.037521480000002,6.0787718,110.43668792,-0.23404515480000002,-0.04526518968,-0.13341160872000002,0.0814158402,0.09433352124,-0.1418026304
03:45:39,0.2259058,-0.0215266,-0.3818904,0.103190825,0.0955249,0.034680024999999996,-50.379389175,-28.0359903,6.0686233750000005,110.45517195,-0.23081772550000001,-0.045111843425,-0.1326931812,0.08156980262499999,0.094831145275,-0.14211427775
03:45:39,0.22411711999999998,-0.021480239999999998,-0.37715176000000006,0.10321213,0.09601496000000001,0.03485581,-50.37945647,-28.03445912,6.05847495,110.47365597999999,-0.22759029620000001,-0.04495849717,-0.13197475368,0.08172376505,0.09532876931,-0.1424259251
03:45:39,0.22232843999999996,-0.02143388,-0.37241312000000004,0.103233435,0.09650502,0.035031595,-50.379523765,-28.03292794,6.048326525,110.49214001,-0.2243628669,-0.044805150915,-0.13125632616,0.081877727475,0.09582639334500001,-0.14273757245
03:45:39,0.22053975999999997,-0.02138752,-0.36767448,0.10325474,0.09699508000000001,0.035207379999999996,-50.379591059999996,-28.03139676,6.0381781,110.51062404,-0.2211354376,-0.04465180466,-0.13053789864,0.0820316899,0.09632401738,-0.1430492198
03:45:39,0.21875108,-0.021341159999999998,-0.36293584,0.103276045,0.09748514,0.035383164999999994,-50.379658355,-28.02986558,6.028029675,110.52910806999999,-0.2179080083,-0.044498458404999996,-0.12981947112,0.082185652325,0.09682164141499999,-0.14336086715
03:45:39,0.21696239999999997,-0.0212948,-0.35819720000000005,0.10329735,0.09797520000000001,0.03555895,-50.37972565,-28.028334400000002,6.01788125,110.5475921,-0.214680579,-0.04434511215,-0.12910104360000002,0.08233961475,0.09731926545,-0.1436725145
03:45:39,0.21517371999999998,-0.02124844,-0.35345856000000003,0.103318655,0.09846526,0.035734735,-50.379792945,-28.02680322,6.007732825,110.56607613,-0.2114531497,-0.044191765895,-0.12838261608,0.082493577175,0.097816889485,-0.14398416185
03:45:39,0.21338503999999997,-0.021202079999999998,-0.34871992,0.10333996,0.09895532,0.03591052,-50.37986024,-28.02527204,5.9975844,110.58456016,-0.2082257204,-0.04403841964,-0.12766418856,0.0826475396,0.09831451352000001,-0.14429580919999999
03:45:39,0.21159635999999998,-0.02115572,-0.34398128000000006,0.103361265,0.09944538,0.036086305,-50.379927535,-28.02374086,5.987435975,110.60304418999999,-0.2049982911,-0.043885073385,-0.12694576104,0.082801502025,0.09881213755500001,-0.14460745654999999
03:45:39,0.20980767999999997,-0.02110936,-0.33924264000000004,0.10338257,0.09993544,0.03626209,-50.37999483,-28.02220968,5.97728755,110.62152822,-0.2017708618,-0.04373172713,-0.12622733352,0.08295546445,0.09930976159,-0.1449191039
03:45:39,0.20801899999999998,-0.021063,-0.334504,0.10340387499999999,0.1004255,0.036437874999999995,-50.380062125,-28.020678500000002,5.967139125,110.64001225,-0.19854343250000003,-0.043578380875,-0.125508906,0.083109426875,0.099807385625,-0.14523075125
03:45:39,0.20623031999999997,-0.02101664,-0.32976536000000006,0.10342517999999999,0.10091556,0.03661366,-50.38012942,-28.019147320000002,5.9569907,110.65849628,-0.19531600320000003,-0.04342503462,-0.12479047848,0.0832633893,0.10030500966,-0.1455423986
03:45:39,0.20444163999999998,-0.02097028,-0.32502672000000005,0.10344648499999999,0.10140562,0.036789445,-50.380196715,-28.01761614,5.946842275,110.67698030999999,-0.19208857390000003,-0.043271688365,-0.12407205096000001,0.083417351725,0.100802633695,-0.14585404595
03:45:39,0.20265295999999997,-0.02092392,-0.32028808000000003,0.10346778999999999,0.10189568,0.03696523,-50.38026401,-28.01608496,5.93669385,110.69546434,-0.18886114460000003,-0.04311834211,-0.12335362344,0.08357131414999999,0.10130025773000001,-0.1461656933
03:45:39,0.20086427999999998,-0.02087756,-0.31554944,0.10348909499999999,0.10238574,0.037141015,-50.380331305,-28.01455378,5.9265454250000005,110.71394837,-0.1856337153,-0.042964995855,-0.12263519592,0.08372527657500001,0.101797881765,-0.14647734065
03:45:39,0.19907559999999996,-0.0208312,-0.31081080000000005,0.10351039999999999,0.1028758,0.0373168,-50.3803986,-28.0130226,5.916397,110.7324324,-0.18240628600000003,-0.0428116496,-0.1219167684,0.083879239,0.1022955058,-0.146788988
03:45:39,0.19728691999999998,-0.02078484,-0.30607216000000004,0.10353170499999999,0.10336586,0.037492584999999995,-50.380465895,-28.011491420000002,5.906248575,110.75091642999999,-0.1791788567,-0.042658303345,-0.12119834088,0.084033201425,0.102793129835,-0.14710063535
03:45:39,0.19549824,-0.02073848,-0.30133352,0.10355301,0.10385592,0.03766837,-50.38053319,-28.00996024,5.8961001500000005,110.76940046,-0.17595142740000003,-0.04250495709,-0.12047991336,0.08418716385,0.10329075387,-0.1474122827
03:45:39,0.19370955999999998,-0.02069212,-0.29659488000000006,0.103574315,0.10434598,0.037844155,-50.380600485,-28.00842906,5.885951725,110.78788449,-0.1727239981,-0.042351610835,-0.11976148584,0.084341126275,0.103788377905,-0.14772393005
03:45:39,0.19192088,-0.02064576,-0.29185624000000004,0.10359562,0.10483603999999999,0.03801994,-50.380667779999996,-28.00689788,5.8758033,110.80636851999999,-0.16949656880000002,-0.04219826458,-0.11904305832,0.0844950887,0.10428600194000001,-0.1480355774
03:45:39,0.19013219999999997,-0.0205994,-0.28711760000000003,0.103616925,0.1053261,0.038195725,-50.380735075,-28.0053667,5.865654875000001,110.82485255,-0.1662691395,-0.042044918325,-0.1183246308,0.084649051125,0.104783625975,-0.14834722475
03:45:39,0.18834352,-0.02055304,-0.28237896000000007,0.10363823,0.10581615999999999,0.03837151,-50.38080237,-28.00383552,5.85550645,110.84333658,-0.16304171020000002,-0.04189157207,-0.11760620328,0.08480301355,0.10528125001000001,-0.1486588721
03:45:39,0.18655483999999997,-0.02050668,-0.27764032000000005,0.103659535,0.10630622,0.038547294999999995,-50.380869665,-28.002304340000002,5.845358025,110.86182061,-0.15981428090000005,-0.041738225815,-0.11688777576,0.084956975975,0.105778874045,-0.14897051945
03:45:39,0.18476615999999998,-0.02046032,-0.27290168000000004,0.10368084,0.10679628,0.03872308,-50.38093696,-28.00077316,5.8352096,110.88030463999999,-0.15658685160000002,-0.041584879559999996,-0.11616934824,0.0851109384,0.10627649808,-0.1492821668
03:45:39,0.18297747999999997,-0.02041396,-0.26816304,0.103702145,0.10728634000000001,0.038898865,-50.381004255,-27.99924198,5.825061175,110.89878867,-0.15335942230000005,-0.041431533305000004,-0.11545092072,0.085264900825,0.10677412211500001,-0.14959381415
03:45:39,0.18118879999999998,-0.0203676,-0.26342440000000006,0.10372345,0.1077764,0.03907465,-50.38107155,-27.9977108,5.81491275,110.9172727,-0.15013199300000002,-0.04127818705,-0.11473249320000001,0.08541886325,0.10727174615000001,-0.1499054615
03:45:39,0.17940011999999997,-0.02032124,-0.25868576000000004,0.103744755,0.10826646000000001,0.039250435,-50.381138845,-27.99617962,5.804764325,110.93575673,-0.14690456370000005,-0.041124840795,-0.11401406568,0.085572825675,0.107769370185,-0.15021710885
03:45:39,0.17761143999999998,-0.02027488,-0.25394712,0.10376606,0.10875652,0.03942622,-50.38120614,-27.994648440000002,5.7946159,110.95424075999999,-0.14367713440000002,-0.04097149454,-0.11329563816,0.0857267881,0.10826699422,-0.1505287562
03:45:39,0.17582275999999997,-0.02022852,-0.24920848000000007,0.10378736499999999,0.10924658000000001,0.039602004999999996,-50.381273435,-27.993117260000002,5.7844674750000005,110.97272479,-0.14044970510000004,-0.040818148285,-0.11257721064000001,0.085880750525,0.108764618255,-0.15084040355
03:45:39,0.17403407999999998,-0.020182159999999998,-0.24446984000000005,0.10380866999999999,0.10973664,0.03977778999999999,-50.38134073,-27.99158608,5.77431905,110.99120882,-0.13722227580000002,-0.04066480203,-0.11185878312,0.08603471295,0.10926224229,-0.1511520509
03:45:39,0.17224539999999997,-0.0201358,-0.23973120000000003,0.10382997499999999,0.11022670000000001,0.039953575,-50.381408025,-27.9900549,5.764170625,111.00969285,-0.13399484650000004,-0.040511455774999997,-0.1111403556,0.086188675375,0.10975986632500001,-0.15146369825
03:45:39,0.17045671999999998,-0.02008944,-0.23499256000000002,0.10385127999999999,0.11071676,0.04012936,-50.38147532,-27.98852372,5.7540222,111.02817687999999,-0.1307674172,-0.040358109520000005,-0.11042192808000001,0.0863426378,0.11025749036,-0.1517753456
03:45:39,0.16866804,-0.020043079999999998,-0.23025392000000006,0.10387258499999999,0.11120682,0.040305145,-50.381542615,-27.98699254,5.743873775,111.04666091,-0.12753998790000004,-0.040204763265,-0.10970350056,0.086496600225,0.110755114395,-0.15208699295
03:45:39,0.16687935999999998,-0.01999672,-0.22551528000000004,0.10389388999999999,0.11169688,0.04048093,-50.38160991,-27.985461360000002,5.73372535,111.06514494,-0.12431255860000001,-0.04005141701,-0.10898507304,0.08665056265,0.11125273843,-0.1523986403
03:45:39,0.16509068,-0.01995036,-0.22077664000000002,0.10391519499999999,0.11218694,0.040656714999999996,-50.381677205,-27.98393018,5.723576925,111.08362896999999,-0.12108512930000004,-0.039898070755,-0.10826664552,0.086804525075,0.111750362465,-0.15271028765
03:45:39,0.16330199999999997,-0.019903999999999998,-0.21603800000000006,0.10393649999999999,0.112677,0.040832499999999994,-50.381744499999996,-27.982399,5.7134285,111.10211299999999,-0.11785770000000001,-0.0397447245,-0.107548218,0.0869584875,0.11224798650000001,-0.153021935
03:45:39,0.16151332,-0.01985764,-0.21129936000000005,0.103957805,0.11316706,0.041008285,-50.381811795,-27.98086782,5.703280075,111.12059703,-0.11463027070000004,-0.039591378245,-0.10682979048,0.087112449925,0.11274561053500001,-0.15333358235
03:45:39,0.15972463999999997,-0.01981128,-0.20656072000000003,0.10397911,0.11365712,0.041184069999999996,-50.38187909,-27.97933664,5.69313165,111.13908106,-0.11140284140000001,-0.03943803199,-0.10611136296,0.08726641235,0.11324323457,-0.1536452297
03:45:39,0.15793596,-0.01976492,-0.20182208000000007,0.104000415,0.11414718,0.041359855,-50.381946385,-27.977805460000003,5.682983225,111.15756508999999,-0.10817541210000003,-0.039284685735000005,-0.10539293544,0.087420374775,0.11374085860500001,-0.15395687705
03:45:39,0.15614727999999997,-0.01971856,-0.19708344000000005,0.10402172,0.11463724,0.04153564,-50.38201368,-27.976274280000002,5.6728348,111.17604912,-0.1049479828,-0.03913133948,-0.10467450792,0.0875743372,0.11423848264,-0.1542685244
03:45:39,0.15435859999999998,-0.0196722,-0.19234480000000004,0.104043025,0.1151273,0.041711424999999996,-50.382080975,-27.9747431,5.662686375,111.19453315,-0.10172055350000003,-0.038977993225,-0.1039560804,0.087728299625,0.114736106675,-0.15458017175
03:45:39,0.15256991999999997,-0.01962584,-0.18760616000000008,0.10406433,0.11561736,0.041887209999999994,-50.38214827,-27.97321192,5.65253795,111.21301718,-0.0984931242,-0.03882464697,-0.10323765288,0.08788226204999999,0.11523373071000001,-0.1548918191
03:45:39,0.15078123999999998,-0.01957948,-0.18286752000000006,0.104085635,0.11610742,0.042062995,-50.382215565,-27.97168074,5.6423895250000005,111.23150120999999,-0.09526569490000003,-0.038671300714999995,-0.10251922536000001,0.08803622447500001,0.11573135474500001,-0.15520346645
03:45:39,0.14899255999999997,-0.01953312,-0.17812888000000004,0.10410694,0.11659748,0.04223878,-50.382282860000004,-27.97014956,5.6322411,111.24998524,-0.09203826560000006,-0.03851795446,-0.10180079784,0.0881901869,0.11622897878,-0.1555151138
03:45:39,0.14720387999999998,-0.01948676,-0.17339024000000003,0.104128245,0.11708753999999999,0.042414565,-50.382350155,-27.968618380000002,5.622092675,111.26846927,-0.08881083630000003,-0.038364608205,-0.10108237032,0.088344149325,0.116726602815,-0.15582676115
03:45:39,0.14541519999999997,-0.0194404,-0.1686516,0.10414955,0.1175776,0.04259035,-50.38241745,-27.9670872,5.6119442500000005,111.2869533,-0.08558340700000006,-0.03821126195,-0.1003639428,0.08849811175,0.11722422685,-0.1561384085
03:45:39,0.14362651999999998,-0.01939404,-0.16391296,0.10417085499999999,0.11806765999999999,0.042766135,-50.382484745,-27.96555602,5.601795825,111.30543732999999,-0.08235597770000003,-0.038057915695,-0.09964551528,0.088652074175,0.117721850885,-0.15645005585
03:45:39,0.14183784,-0.01934768,-0.1591743200000001,0.10419215999999999,0.11855772,0.042941919999999995,-50.38255204,-27.96402484,5.5916474,111.32392136,-0.07912854840000005,-0.03790456944,-0.09892708776,0.0888060366,0.11821947492000001,-0.1567617032
03:45:39,0.14004915999999998,-0.01930132,-0.15443568000000008,0.10421346499999999,0.11904777999999999,0.04311770499999999,-50.382619335,-27.96249366,5.581498975000001,111.34240539,-0.07590111910000003,-0.037751223185,-0.09820866024,0.088959999025,0.11871709895500002,-0.15707335055
03:45:39,0.13826048,-0.01925496,-0.14969704000000006,0.10423476999999999,0.11953784,0.04329349,-50.38268663,-27.960962480000003,5.57135055,111.36088941999999,-0.07267368980000005,-0.037597876929999996,-0.09749023272,0.08911396145,0.11921472299000001,-0.1573849979
03:45:39,0.13647179999999998,-0.0192086,-0.14495840000000004,0.10425607499999999,0.12002789999999999,0.043469275,-50.382753925,-27.959431300000002,5.561202125,111.37937344999999,-0.06944626050000002,-0.037444530675000004,-0.0967718052,0.089267923875,0.119712347025,-0.15769664525
03:45:39,0.13468312,-0.01916224,-0.14021976000000003,0.10427737999999999,0.12051796000000001,0.04364506,-50.38282122,-27.95790012,5.5510537,111.39785748,-0.06621883120000005,-0.03729118442,-0.09605337768,0.0894218863,0.12020997106,-0.1580082926
03:45:39,0.13289443999999997,-0.019115880000000002,-0.13548112,0.10429868499999999,0.12100802,0.043820845,-50.382888515,-27.95636894,5.540905275,111.41634151,-0.06299140190000002,-0.037137838165,-0.09533495016,0.089575848725,0.12070759509500001,-0.15831993995
03:45:39,0.13110576,-0.01906952,-0.1307424800000001,0.10431998999999999,0.12149808000000001,0.043996629999999995,-50.38295581,-27.95483776,5.5307568499999995,111.43482553999999,-0.05976397260000005,-0.03698449191,-0.09461652264,0.08972981115,0.12120521913000001,-0.1586315873
03:45:39,0.12931707999999997,-0.01902316,-0.1260038400000001,0.104341295,0.12198814,0.04417241499999999,-50.383023105,-27.95330658,5.520608425,111.45330957,-0.05653654330000002,-0.036831145655,-0.09389809512,0.089883773575,0.121702843165,-0.15894323465
03:45:39,0.1275284,-0.0189768,-0.12126520000000007,0.1043626,0.12247820000000001,0.0443482,-50.3830904,-27.951775400000002,5.51046,111.4717936,-0.053309114000000046,-0.0366777994,-0.0931796676,0.09003773600000001,0.12220046720000001,-0.159254882
03:45:39,0.12573971999999997,-0.01893044,-0.11652656000000006,0.104383905,0.12296826,0.044523985,-50.383157695,-27.950244220000002,5.500311575,111.49027763,-0.05008168470000002,-0.036524453144999997,-0.09246124008,0.090191698425,0.122698091235,-0.15956652934999999
03:45:39,0.12395103999999998,-0.01888408,-0.11178792000000004,0.10440521,0.12345832,0.04469977,-50.38322499,-27.94871304,5.49016315,111.50876165999999,-0.046854255400000044,-0.036371106890000005,-0.09174281256,0.09034566085000001,0.12319571527,-0.15987817669999999
03:45:39,0.12216235999999997,-0.01883772,-0.10704928000000002,0.104426515,0.12394838,0.044875555,-50.383292285,-27.94718186,5.480014725,111.52724569,-0.043626826100000016,-0.036217760635,-0.09102438504,0.090499623275,0.12369333930500001,-0.16018982404999998
03:45:39,0.12037367999999998,-0.01879136,-0.10231064000000001,0.10444782,0.12443844,0.045051339999999995,-50.383359580000004,-27.94565068,5.4698663,111.54572972,-0.04039939680000004,-0.03606441438,-0.09030595752,0.0906535857,0.12419096334000002,-0.16050147139999998
03:45:39,0.11858499999999997,-0.018744999999999998,-0.0975720000000001,0.104469125,0.1249285,0.04522712499999999,-50.383426875,-27.9441195,5.459717875,111.56421375,-0.037171967500000014,-0.035911068125,-0.08958753,0.090807548125,0.124688587375,-0.16081311874999998
03:45:39,0.11679631999999998,-0.01869864,-0.09283336000000009,0.10449043,0.12541856,0.04540291,-50.38349417,-27.942588320000002,5.44956945,111.58269777999999,-0.03394453820000004,-0.03575772187,-0.08886910248,0.09096151055,0.12518621141000003,-0.16112476609999998
03:45:39,0.11500763999999997,-0.01865228,-0.08809472000000007,0.104511735,0.12590862,0.045578694999999995,-50.383561465,-27.94105714,5.439421025,111.60118181,-0.030717108900000012,-0.035604375615,-0.08815067496,0.091115472975,0.125683835445,-0.16143641344999998
03:45:39,0.11321895999999998,-0.018605919999999998,-0.08335608000000005,0.10453304,0.12639867999999999,0.04575448,-50.38362876,-27.93952596,5.4292726,111.61966584,-0.02748967960000004,-0.03545102936,-0.08743224744,0.0912694354,0.12618145948,-0.16174806079999998
03:45:39,0.11143027999999999,-0.01855956,-0.07861744000000004,0.10455434499999999,0.12688874,0.045930265,-50.383696055,-27.93799478,5.419124175,111.63814986999999,-0.024262250300000066,-0.035297683105000005,-0.08671381992,0.091423397825,0.126679083515,-0.16205970814999998
03:45:39,0.10964159999999998,-0.0185132,-0.07387880000000002,0.10457564999999999,0.12737880000000001,0.046106049999999996,-50.38376335,-27.9364636,5.40897575,111.65663389999999,-0.021034821000000037,-0.03514433685,-0.0859953924,0.09157736025,0.12717670755,-0.16237135549999998
03:45:39,0.10785291999999999,-0.018466839999999998,-0.06914016,0.10459695499999999,0.12786886,0.04628183499999999,-50.383830645,-27.934932420000003,5.398827325,111.67511793,-0.017807391700000064,-0.034990990595,-0.08527696488,0.091731322675,0.12767433158500002,-0.16268300284999998
03:45:39,0.10606423999999998,-0.01842048,-0.0644015200000001,0.10461825999999999,0.12835892,0.04645762,-50.38389794,-27.933401240000002,5.3886789,111.69360196,-0.014579962400000035,-0.03483764434,-0.08455853736,0.0918852851,0.12817195562,-0.16299465019999998
03:45:39,0.10427555999999999,-0.01837412,-0.059662880000000085,0.10463956499999999,0.12884898,0.046633404999999996,-50.383965235,-27.93187006,5.378530475,111.71208598999999,-0.011352533100000062,-0.034684298084999995,-0.08384010984,0.092039247525,0.128669579655,-0.16330629754999998
03:45:39,0.10248687999999997,-0.01832776,-0.05492424000000007,0.10466086999999999,0.12933904000000002,0.04680919,-50.38403253,-27.93033888,5.36838205,111.73057001999999,-0.008125103800000033,-0.03453095183,-0.08312168232,0.09219320995,0.12916720369,-0.16361794489999998
03:45:39,0.10069819999999999,-0.0182814,-0.05018560000000005,0.10468217499999999,0.1298291,0.046984975,-50.384099825,-27.9288077,5.358233625,111.74905405,-0.00489767450000006,-0.034377605575,-0.08240325479999999,0.09234717237500001,0.12966482772500001,-0.16392959225
03:45:39,0.09890951999999997,-0.01823504,-0.045446960000000036,0.10470347999999999,0.13031916,0.047160759999999996,-50.38416712,-27.92727652,5.3480852,111.76753808,-0.0016702452000000312,-0.034224259320000006,-0.08168482728,0.0925011348,0.13016245176000002,-0.1642412396
03:45:39,0.09712083999999999,-0.01818868,-0.04070832000000002,0.104724785,0.13080922,0.047336544999999994,-50.384234415,-27.925745340000002,5.337936775,111.78602210999999,0.001557184099999942,-0.034070913065,-0.08096639976,0.092655097225,0.130660075795,-0.16455288695
03:45:39,0.09533215999999997,-0.01814232,-0.035969680000000004,0.10474609,0.13129928000000002,0.04751232999999999,-50.38430171,-27.924214160000002,5.3277883500000005,111.80450614,0.004784613399999971,-0.03391756681,-0.08024797223999999,0.09280905965,0.13115769983,-0.1648645343
03:45:39,0.09354347999999998,-0.01809596,-0.0312310400000001,0.104767395,0.13178934,0.047688114999999996,-50.384369005,-27.92268298,5.317639925,111.82299017,0.008012042699999944,-0.033764220555,-0.07952954472,0.092963022075,0.131655323865,-0.16517618165
03:45:39,0.09175479999999997,-0.0180496,-0.026492400000000083,0.1047887,0.1322794,0.0478639,-50.384436300000004,-27.9211518,5.3074915,111.8414742,0.011239471999999973,-0.033610874299999996,-0.0788111172,0.0931169845,0.1321529479,-0.165487829
03:45:39,0.08996611999999998,-0.01800324,-0.021753760000000066,0.104810005,0.13276946,0.048039685,-50.384503595,-27.91962062,5.297343075,111.85995822999999,0.014466901299999946,-0.033457528045000004,-0.07809268968,0.093270946925,0.13265057193500002,-0.16579947635
03:45:39,0.08817744,-0.01795688,-0.01701512000000005,0.10483131,0.13325952,0.048215469999999996,-50.38457089,-27.918089440000003,5.28719465,111.87844226,0.017694330599999974,-0.03330418179,-0.07737426216,0.09342490935,0.13314819597,-0.1661111237
03:45:39,0.08638875999999995,-0.01791052,-0.012276480000000034,0.104852615,0.13374957999999998,0.048391254999999994,-50.384638185,-27.916558260000002,5.277046224999999,111.89692629,0.020921759899999948,-0.033150835535,-0.07665583464,0.093578871775,0.13364582000500003,-0.16642277105
03:45:39,0.08460007999999997,-0.01786416,-0.007537840000000018,0.10487392,0.13423964,0.04856703999999999,-50.38470548,-27.91502708,5.2668978,111.91541031999999,0.024149189199999976,-0.03299748928,-0.07593740712,0.0937328342,0.13414344404,-0.1667344184
03:45:39,0.08281139999999998,-0.0178178,-0.0027992000000001127,0.104895225,0.1347297,0.048742825,-50.384772775,-27.9134959,5.256749375,111.93389434999999,0.02737661849999995,-0.032844143025,-0.0752189796,0.093886796625,0.134641068075,-0.16704606575
03:45:39,0.08102271999999999,-0.01777144,0.0019394399999999035,0.10491653,0.13521976,0.04891861,-50.38484007,-27.91196472,5.2466009499999995,111.95237838,0.030604047799999978,-0.03269079677,-0.07450055208,0.09404075905,0.13513869211,-0.1673577131
03:45:39,0.07923404,-0.01772508,0.00667807999999992,0.104937835,0.13570981999999998,0.049094395,-50.384907365000004,-27.91043354,5.236452525,111.97086241,0.03383147709999995,-0.032537450514999997,-0.07378212456,0.094194721475,0.135636316145,-0.16766936045
03:45:39,0.07744535999999996,-0.017678720000000002,0.011416719999999936,0.10495913999999999,0.13619988,0.04927018,-50.38497466,-27.908902360000003,5.2263041,111.98934643999999,0.03705890639999998,-0.032384104260000005,-0.07306369704,0.09434868390000001,0.13613394018000002,-0.1679810078
03:45:39,0.07565667999999998,-0.01763236,0.016155359999999952,0.10498044499999999,0.13668994,0.049445964999999995,-50.385041955,-27.907371180000002,5.2161556749999995,112.00783046999999,0.04028633569999995,-0.032230758005,-0.07234526951999999,0.094502646325,0.136631564215,-0.16829265515
03:45:39,0.07386799999999999,-0.017586,0.020893999999999968,0.10500174999999999,0.13718,0.04962174999999999,-50.38510925,-27.90584,5.20600725,112.0263145,0.043513764999999927,-0.03207741175,-0.071626842,0.09465660875000001,0.13712918825,-0.1686043025
03:45:39,0.07207932,-0.01753964,0.025632639999999984,0.10502305499999999,0.13767005999999998,0.049797535,-50.385176545,-27.90430882,5.195858825,112.04479853,0.046741194299999955,-0.031924065495,-0.07090841448,0.094810571175,0.137626812285,-0.16891594985
03:45:39,0.07029063999999996,-0.01749328,0.03037127999999989,0.10504435999999999,0.13816012,0.049973319999999995,-50.38524384,-27.90277764,5.1857104,112.06328255999999,0.04996862359999993,-0.03177071924,-0.07018998695999999,0.0949645336,0.13812443632000002,-0.1692275972
03:45:39,0.06850195999999997,-0.017446919999999998,0.035109919999999906,0.10506566499999999,0.13865018,0.050149105,-50.385311135,-27.901246460000003,5.175561975,112.08176659,0.05319605289999996,-0.031617372985,-0.06947155944,0.095118496025,0.13862206035500002,-0.16953924455
03:45:39,0.06671327999999999,-0.01740056,0.03984855999999992,0.10508696999999999,0.13914024,0.05032489,-50.38537843,-27.899715280000002,5.16541355,112.10025062,0.05642348219999993,-0.03146402673,-0.06875313192,0.09527245845,0.13911968439,-0.1698508919
03:45:39,0.0649246,-0.0173542,0.04458719999999994,0.105108275,0.13963029999999998,0.050500674999999995,-50.385445725000004,-27.8981841,5.155265125,112.11873465,0.05965091149999996,-0.031310680475000005,-0.06803470439999999,0.095426420875,0.13961730842500003,-0.17016253925
03:45:39,0.06313591999999996,-0.017307839999999998,0.049325839999999954,0.10512958,0.14012036,0.05067645999999999,-50.385513020000005,-27.89665292,5.1451167,112.13721867999999,0.06287834079999993,-0.03115733422,-0.06731627688,0.0955803833,0.14011493246,-0.1704741866
03:45:39,0.06134723999999997,-0.01726148,0.05406447999999997,0.105150885,0.14061042,0.050852245,-50.385580315,-27.89512174,5.134968275,112.15570271,0.0661057700999999,-0.031003987965,-0.06659784936,0.095734345725,0.140612556495,-0.17078583395
03:45:39,0.05955855999999998,-0.01721512,0.058803119999999987,0.10517219,0.14110048,0.051028029999999995,-50.38564761,-27.89359056,5.12481985,112.17418674,0.06933319939999999,-0.03085064171,-0.06587942184,0.09588830815,0.14111018053000002,-0.1710974813
03:45:39,0.057769879999999996,-0.017168759999999998,0.06354175999999989,0.105193495,0.14159054,0.051203815,-50.385714905,-27.892059380000003,5.114671425,112.19267076999999,0.07256062869999996,-0.030697295455000002,-0.06516099432,0.096042270575,0.141607804565,-0.17140912865
03:45:39,0.05598119999999995,-0.0171224,0.06828039999999991,0.1052148,0.1420806,0.0513796,-50.3857822,-27.890528200000002,5.104523,112.21115479999999,0.07578805799999994,-0.0305439492,-0.06444256679999999,0.096196233,0.14210542860000003,-0.171720776
03:45:39,0.054192519999999966,-0.01707604,0.07301903999999992,0.105236105,0.14257066000000002,0.051555384999999995,-50.385849495,-27.88899702,5.094374575,112.22963883,0.07901548729999991,-0.030390602945,-0.06372413928,0.09635019542500001,0.142603052635,-0.17203242335
03:45:39,0.05240383999999998,-0.01702968,0.07775767999999994,0.10525741,0.14306072,0.05173116999999999,-50.38591679,-27.88746584,5.08422615,112.24812286,0.0822429166,-0.030237256690000002,-0.06300571176,0.09650415785,0.14310067667,-0.1723440707
03:45:39,0.05061515999999999,-0.01698332,0.08249631999999996,0.105278715,0.14355078,0.05190695499999999,-50.385984085000004,-27.88593466,5.074077725,112.26660688999999,0.08547034589999997,-0.030083910435,-0.06228728423999999,0.09665812027500001,0.14359830070500001,-0.17265571805
03:45:39,0.048826480000000005,-0.01693696,0.08723495999999997,0.10530002,0.14404084,0.052082739999999995,-50.38605138,-27.884403480000003,5.0639293,112.28509091999999,0.08869777519999994,-0.02993056418,-0.061568856719999995,0.0968120827,0.14409592474,-0.1729673654
03:45:39,0.04703779999999996,-0.0168906,0.09197359999999999,0.105321325,0.14453090000000002,0.052258525,-50.386118675,-27.882872300000002,5.053780875,112.30357495,0.09192520449999991,-0.029777217925000002,-0.0608504292,0.09696604512500001,0.14459354877500002,-0.17327901275
03:45:39,0.045249119999999976,-0.01684424,0.0967122399999999,0.10534262999999999,0.14502096,0.05243431,-50.38618597,-27.881341120000002,5.04363245,112.32205898,0.0951526338,-0.02962387167,-0.06013200167999999,0.09712000755,0.14509117281,-0.1735906601
03:45:39,0.04346043999999999,-0.01679788,0.10145087999999991,0.10536393499999999,0.14551102,0.052610094999999996,-50.386253265,-27.87980994,5.033484025,112.34054300999999,0.09838006309999997,-0.029470525415,-0.059413574159999996,0.097273969975,0.145588796845,-0.17390230745
03:45:39,0.04167176,-0.01675152,0.10618951999999993,0.10538523999999999,0.14600108,0.05278587999999999,-50.38632056,-27.87827876,5.023335599999999,112.35902704,0.10160749239999994,-0.02931717916,-0.05869514664,0.0974279324,0.14608642088,-0.1742139548
03:45:39,0.03988307999999996,-0.01670516,0.11092815999999994,0.10540654499999999,0.14649114,0.05296166499999999,-50.386387855,-27.87674758,5.013187175,112.37751107,0.10483492169999992,-0.029163832905000003,-0.05797671911999999,0.097581894825,0.14658404491500002,-0.17452560215
03:45:39,0.03809439999999997,-0.0166588,0.11566679999999996,0.10542784999999999,0.14698119999999998,0.053137449999999996,-50.38645515,-27.875216400000003,5.00303875,112.3959951,0.108062351,-0.02901048665,-0.0572582916,0.09773585725,0.14708166895000002,-0.17483724949999999
03:45:39,0.036305719999999986,-0.01661244,0.12040543999999997,0.10544915499999999,0.14747126,0.053313235,-50.386522445000004,-27.873685220000002,4.992890324999999,112.41447912999999,0.11128978029999997,-0.028857140395,-0.05653986408,0.097889819675,0.147579292985,-0.17514889684999999
03:45:39,0.03451704,-0.01656608,0.12514407999999988,0.10547045999999999,0.14796132,0.05348902,-50.386589740000005,-27.87215404,4.9827419,112.43296316,0.11451720959999995,-0.028703794140000002,-0.05582143655999999,0.0980437821,0.14807691702000003,-0.17546054419999998
03:45:39,0.032728359999999956,-0.01651972,0.1298827199999999,0.10549176499999999,0.14845138,0.053664804999999996,-50.386657035,-27.87062286,4.972593475,112.45144719,0.11774463889999992,-0.028550447885,-0.05510300904,0.098197744525,0.148574541055,-0.17577219155
03:45:39,0.03093967999999997,-0.01647336,0.1346213599999999,0.10551307,0.14894143999999998,0.053840589999999994,-50.38672433,-27.86909168,4.9624450499999995,112.46993121999999,0.1209720681999999,-0.02839710163,-0.05438458152,0.09835170695,0.14907216509000001,-0.1760838389
03:45:39,0.029150999999999982,-0.016427,0.13935999999999993,0.105534375,0.1494315,0.05401637499999999,-50.386791625,-27.867560500000003,4.952296625,112.48841524999999,0.12419949749999998,-0.028243755375000002,-0.053666153999999994,0.09850566937500001,0.14956978912500002,-0.17639548625
03:45:39,0.027362319999999996,-0.016380640000000002,0.14409863999999994,0.10555568,0.14992156,0.054192159999999996,-50.38685892,-27.866029320000003,4.9421482,112.50689928,0.12742692679999995,-0.02809040912,-0.052947726479999985,0.09865963180000001,0.15006741316,-0.1767071336
03:45:39,0.02557364000000001,-0.01633428,0.14883727999999996,0.105576985,0.15041162,0.054367944999999994,-50.386926215,-27.864498140000002,4.9319997749999995,112.52538331,0.13065435609999992,-0.027937062865,-0.052229298960000003,0.098813594225,0.15056503719500003,-0.17701878095
03:45:39,0.023784959999999966,-0.016287919999999997,0.15357591999999998,0.10559829,0.15090167999999998,0.05454373,-50.38699351,-27.86296696,4.92185135,112.54386733999999,0.1338817853999999,-0.027783716610000002,-0.051510871439999995,0.09896755665000001,0.15106266123,-0.1773304283
03:45:39,0.02199627999999998,-0.016241560000000002,0.15831455999999988,0.105619595,0.15139174,0.054719514999999996,-50.387060805000004,-27.86143578,4.911702925,112.56235136999999,0.13710921469999998,-0.027630370355,-0.050792443919999986,0.099121519075,0.151560285265,-0.17764207565
03:45:39,0.020207599999999992,-0.0161952,0.1630531999999999,0.1056409,0.1518818,0.054895299999999994,-50.3871281,-27.8599046,4.9015545,112.5808354,0.14033664399999995,-0.0274770241,-0.050074016400000004,0.0992754815,0.15205790930000002,-0.177953723
03:45:39,0.018418920000000005,-0.016148839999999998,0.16779183999999991,0.105662205,0.15237186,0.05507108499999999,-50.387195395,-27.858373420000003,4.891406075,112.59931943,0.14356407329999993,-0.027323677845,-0.049355588879999995,0.099429443925,0.152555533335,-0.17826537035
03:45:39,0.016630239999999963,-0.016102480000000002,0.17253047999999993,0.10568351,0.15286191999999998,0.05524686999999999,-50.38726269,-27.856842240000002,4.88125765,112.61780345999999,0.1467915025999999,-0.027170331590000003,-0.048637161359999986,0.09958340635,0.15305315737000003,-0.1785770177
03:45:39,0.014841559999999976,-0.01605612,0.17726911999999995,0.105704815,0.15335198,0.055422655,-50.387329985,-27.855311060000002,4.871109225,112.63628748999999,0.15001893189999999,-0.027016985335,-0.047918733840000005,0.099737368775,0.153550781405,-0.17888866505
03:45:39,0.013052879999999989,-0.016009759999999998,0.18200775999999996,0.10572611999999999,0.15384204,0.05559844,-50.38739728,-27.85377988,4.8609608,112.65477152,0.15324636119999996,-0.02686363908,-0.047200306319999996,0.0998913312,0.15404840544,-0.1792003124
03:45:39,0.011264200000000002,-0.0159634,0.18674639999999998,0.10574742499999999,0.1543321,0.055774225,-50.387464575,-27.8522487,4.850812375,112.67325555,0.15647379049999993,-0.026710292825000002,-0.04648187879999999,0.100045293625,0.154546029475,-0.17951195975
03:45:39,0.00947551999999996,-0.01591704,0.19148503999999988,0.10576872999999999,0.15482216,0.055950009999999994,-50.387531870000004,-27.85071752,4.84066395,112.69173957999999,0.1597012197999999,-0.02655694657,-0.045763451280000006,0.10019925605,0.15504365351000002,-0.1798236071
03:45:39,0.007686839999999973,-0.015870679999999998,0.1962236799999999,0.10579003499999999,0.15531222,0.05612579499999999,-50.387599165000005,-27.849186340000003,4.830515525,112.71022361,0.1629286491,-0.026403600315,-0.04504502376,0.100353218475,0.15554127754500002,-0.18013525445
03:45:39,0.005898159999999986,-0.01582432,0.20096231999999992,0.10581133999999999,0.15580228000000002,0.05630157999999999,-50.387666460000005,-27.847655160000002,4.8203671,112.72870764,0.16615607839999996,-0.026250254060000002,-0.04432659623999999,0.1005071809,0.15603890158,-0.1804469018
03:45:39,0.004109479999999999,-0.01577796,0.20570095999999993,0.10583264499999999,0.15629234,0.056477365,-50.387733755,-27.84612398,4.810218675,112.74719166999999,0.16938350769999994,-0.026096907805,-0.04360816872000001,0.10066114332500001,0.15653652561500003,-0.18075854915
03:45:39,0.0023207999999999562,-0.0157316,0.21043959999999995,0.10585394999999999,0.1567824,0.05665315,-50.38780105,-27.8445928,4.80007025,112.76567569999999,0.1726109369999999,-0.02594356155,-0.0428897412,0.10081510575000001,0.15703414965,-0.1810701965
03:45:39,0.0005321199999999693,-0.01568524,0.21517823999999997,0.105875255,0.15727246,0.056828935,-50.387868345,-27.84306162,4.7899218249999995,112.78415973,0.1758383663,-0.025790215295000002,-0.04217131367999999,0.10096906817500001,0.15753177368500001,-0.18138184385
03:45:39,-0.0012565600000000177,-0.01563888,0.21991687999999998,0.10589656,0.15776252,0.057004719999999995,-50.38793564,-27.841530440000003,4.7797734,112.80264376,0.17906579559999997,-0.025636869040000003,-0.04145288616000001,0.1011230306,0.15802939772000002,-0.1816934912
03:45:39,-0.0030452400000000046,-0.01559252,0.2246555199999999,0.105917865,0.15825257999999998,0.05718050499999999,-50.388002935,-27.839999260000003,4.769624975,112.82112778999999,0.18229322489999994,-0.025483522785,-0.04073445864,0.10127699302500001,0.158527021755,-0.18200513855
03:45:39,-0.0048339199999999916,-0.01554616,0.2293941599999999,0.10593917,0.15874264,0.05735628999999999,-50.388070230000004,-27.838468080000002,4.75947655,112.83961181999999,0.1855206541999999,-0.02533017653,-0.04001603111999999,0.10143095545,0.15902464579000003,-0.1823167859
03:45:39,-0.006622600000000034,-0.0154998,0.23413279999999992,0.105960475,0.1592327,0.05753207499999999,-50.388137525000005,-27.8369369,4.749328125,112.85809585,0.18874808349999989,-0.025176830275000003,-0.03929760359999998,0.101584917875,0.159522269825,-0.18262843325
03:45:39,-0.008411280000000021,-0.01545344,0.23887143999999993,0.10598178,0.15972276,0.05770786,-50.38820482,-27.83540572,4.739179699999999,112.87657988,0.19197551279999997,-0.02502348402,-0.03857917608,0.1017388803,0.16001989386,-0.1829400806
03:45:39,-0.010199960000000008,-0.01540708,0.24361007999999995,0.106003085,0.16021281999999998,0.057883645,-50.388272115,-27.83387454,4.729031275,112.89506390999999,0.19520294209999994,-0.024870137765,-0.03786074855999999,0.101892842725,0.16051751789500002,-0.18325172795
03:45:39,-0.011988639999999995,-0.01536072,0.24834871999999997,0.10602439,0.16070288,0.058059429999999995,-50.38833941,-27.832343360000003,4.71888285,112.91354793999999,0.19843037139999992,-0.024716791510000002,-0.03714232103999998,0.10204680515,0.16101514193,-0.1835633753
03:45:39,-0.013777320000000037,-0.01531436,0.2530873599999999,0.106045695,0.16119294,0.05823521499999999,-50.388406705,-27.830812180000002,4.708734424999999,112.93203197,0.2016578006999999,-0.024563445255,-0.03642389352,0.102200767575,0.16151276596500003,-0.18387502265
03:45:40,-0.015566,-0.015268,0.257826,0.106067,0.161683,0.058411,-50.388474,-27.829281,4.698586,112.950516,0.20488523,-0.024410099,-0.035705466,0.10235473,0.16201039,-0.18418667
03:45:40,-0.01488726,-0.015542515,0.2571238,0.1053692,0.16099585,0.05816597,-50.388636580000004,-27.830309325,4.704680205,112.94943982,0.20468304225,-0.024646273805,-0.03599495799,0.101794181915,0.161316709125,-0.18318775163
03:45:40,-0.01420852,-0.01581703,0.2564216,0.1046714,0.1603087,0.05792094,-50.388799160000005,-27.831337650000002,4.71077441,112.94836364,0.2044808545,-0.02488244861,-0.03628444998,0.10123363383,0.16062302825,-0.18218883326
03:45:40,-0.01352978,-0.016091545,0.2557194,0.1039736,0.15962155,0.05767591,-50.38896174,-27.832365975000002,4.716868615,112.94728746,0.20427866675,-0.025118623415,-0.036573941969999996,0.100673085745,0.159929347375,-0.18118991489
03:45:40,-0.01285104,-0.01636606,0.2550172,0.1032758,0.1589344,0.05743088,-50.38912432,-27.833394300000002,4.722962819999999,112.94621128,0.204076479,-0.025354798220000002,-0.03686343396,0.10011253766,0.1592356665,-0.18019099652
03:45:40,-0.0121723,-0.016640575,0.254315,0.10257799999999999,0.15824725,0.057185849999999996,-50.3892869,-27.834422625000002,4.7290570249999995,112.94513509999999,0.20387429125,-0.025590973025,-0.03715292595,0.099551989575,0.158541985625,-0.17919207815
03:45:40,-0.01149356,-0.01691509,0.25361279999999997,0.10188019999999999,0.15756009999999998,0.056940819999999996,-50.38944948,-27.835450950000002,4.73515123,112.94405891999999,0.2036721035,-0.02582714783,-0.03744241794,0.09899144149,0.15784830475,-0.17819315978
03:45:40,-0.01081482,-0.017189605,0.2529106,0.10118239999999999,0.15687294999999998,0.056695789999999996,-50.389612060000005,-27.836479275000002,4.741245435,112.94298273999999,0.20346991575,-0.026063322635,-0.03773190993,0.09843089340500001,0.157154623875,-0.17719424141
03:45:40,-0.010136079999999999,-0.01746412,0.2522084,0.1004846,0.15618579999999999,0.056450759999999996,-50.38977464,-27.837507600000002,4.74733964,112.94190655999999,0.203267728,-0.02629949744,-0.038021401919999996,0.09787034532000001,0.156460943,-0.17619532304
03:45:40,-0.00945734,-0.017738635,0.2515062,0.0997868,0.15549865,0.056205729999999995,-50.38993722,-27.838535925000002,4.753433845,112.94083038,0.20306554025,-0.026535672245,-0.03831089391,0.09730979723500001,0.155767262125,-0.17519640467
03:45:40,-0.0087786,-0.01801315,0.250804,0.099089,0.1548115,0.055960699999999995,-50.3900998,-27.839564250000002,4.75952805,112.9397542,0.2028633525,-0.02677184705,-0.0386003859,0.09674924915000001,0.15507358125,-0.1741974863
03:45:40,-0.00809986,-0.018287665,0.2501018,0.0983912,0.15412435,0.055715669999999995,-50.39026238,-27.840592575000002,4.765622254999999,112.93867802,0.20266116475,-0.027008021855,-0.03888987789,0.096188701065,0.154379900375,-0.17319856793
03:45:40,-0.00742112,-0.01856218,0.2493996,0.0976934,0.1534372,0.05547064,-50.390424960000004,-27.841620900000002,4.7717164599999995,112.93760184,0.202458977,-0.02724419666,-0.039179369879999995,0.09562815298,0.1536862195,-0.17219964956
03:45:40,-0.006742379999999999,-0.018836695,0.2486974,0.0969956,0.15275005,0.055225609999999994,-50.390587540000006,-27.842649225000002,4.777810665,112.93652566,0.20225678925,-0.027480371465,-0.03946886187,0.095067604895,0.152992538625,-0.17120073119
03:45:40,-0.006063639999999999,-0.01911121,0.2479952,0.09629779999999999,0.1520629,0.05498058,-50.39075012,-27.843677550000002,4.78390487,112.93544947999999,0.20205460150000001,-0.02771654627,-0.03975835386,0.09450705681,0.15229885775000002,-0.17020181282
03:45:40,-0.0053849,-0.019385725,0.24729299999999999,0.09559999999999999,0.15137575,0.05473555,-50.3909127,-27.844705875000002,4.789999075,112.93437329999999,0.20185241375000001,-0.027952721075,-0.04004784585,0.093946508725,0.151605176875,-0.16920289445
03:45:40,-0.004706159999999999,-0.01966024,0.2465908,0.09490219999999999,0.1506886,0.05449052,-50.39107528,-27.845734200000003,4.79609328,112.93329711999999,0.20165022600000002,-0.028188895880000002,-0.04033733784,0.09338596064,0.150911496,-0.16820397607999998
03:45:40,-0.004027419999999999,-0.019934755,0.2458886,0.0942044,0.15000144999999998,0.05424549,-50.391237860000004,-27.846762525000003,4.802187485,112.93222094,0.20144803825,-0.028425070685,-0.040626829829999996,0.092825412555,0.15021781512500001,-0.16720505771
03:45:40,-0.0033486799999999997,-0.02020927,0.2451864,0.0935066,0.14931429999999998,0.05400046,-50.391400440000005,-27.847790850000003,4.808281689999999,112.93114476,0.2012458505,-0.02866124549,-0.04091632182,0.09226486447,0.14952413425,-0.16620613934
03:45:40,-0.002669939999999999,-0.020483785,0.24448419999999998,0.0928088,0.14862714999999999,0.05375543,-50.39156302,-27.848819175000003,4.8143758949999995,112.93006858,0.20104366275,-0.028897420295,-0.04120581381,0.09170431638500001,0.148830453375,-0.16520722097
03:45:40,-0.0019911999999999985,-0.0207583,0.243782,0.092111,0.14794,0.0535104,-50.3917256,-27.849847500000003,4.8204701,112.9289924,0.200841475,-0.0291335951,-0.0414953058,0.09114376830000001,0.1481367725,-0.1642083026
03:45:40,-0.0013124599999999997,-0.021032815,0.2430798,0.0914132,0.14725285,0.05326537,-50.39188818,-27.850875825000003,4.826564305,112.92791622,0.20063928725,-0.029369769905,-0.041784797789999994,0.09058322021500001,0.147443091625,-0.16320938423
03:45:40,-0.0006337199999999991,-0.02130733,0.2423776,0.0907154,0.1465657,0.05302034,-50.392050760000004,-27.851904150000003,4.83265851,112.92684003999999,0.2004370995,-0.02960594471,-0.042074289779999996,0.09002267213000001,0.14674941075,-0.16221046585999999
03:45:40,4.502000000000152e-05,-0.021581845,0.24167539999999998,0.0900176,0.14587855,0.05277531,-50.392213340000005,-27.852932475000003,4.838752715,112.92576385999999,0.20023491175,-0.029842119515,-0.04236378177,0.08946212404500001,0.146055729875,-0.16121154749
03:45:40,0.0007237600000000004,-0.02185636,0.2409732,0.0893198,0.1451914,0.05253028,-50.39237592,-27.853960800000003,4.84484692,112.92468767999999,0.200032724,-0.03007829432,-0.04265327376,0.08890157596,0.145362049,-0.16021262912
03:45:40,0.001402500000000001,-0.022130875,0.240271,0.08862199999999999,0.14450425,0.05228525,-50.3925385,-27.854989125000003,4.850941124999999,112.92361149999999,0.19983053625,-0.030314469125,-0.04294276575,0.088341027875,0.144668368125,-0.15921371075
03:45:40,0.0020812400000000016,-0.02240539,0.2395688,0.0879242,0.1438171,0.05204022,-50.39270108,-27.856017450000003,4.8570353299999995,112.92253532,0.1996283485,-0.03055064393,-0.043232257739999995,0.08778047979,0.14397468725,-0.15821479238
03:45:40,0.002759980000000002,-0.022679905,0.23886659999999998,0.0872264,0.14312995,0.05179519,-50.39286366,-27.857045775000003,4.863129535,112.92145914,0.19942616075,-0.030786818735,-0.043521749729999996,0.087219931705,0.143281006375,-0.15721587401
03:45:40,0.0034387200000000027,-0.02295442,0.2381644,0.0865286,0.14244279999999998,0.05155016,-50.393026240000005,-27.858074100000003,4.86922374,112.92038296,0.199223973,-0.031022993540000002,-0.04381124172,0.08665938362,0.1425873255,-0.15621695564
03:45:40,0.00411746,-0.023228935,0.2374622,0.0858308,0.14175564999999998,0.05130513,-50.39318882,-27.859102425000003,4.875317945,112.91930678,0.19902178525,-0.031259168345,-0.04410073371,0.086098835535,0.141893644625,-0.15521803727
03:45:40,0.0047962000000000005,-0.02350345,0.23676,0.085133,0.14106849999999999,0.0510601,-50.3933514,-27.860130750000003,4.88141215,112.9182306,0.1988195975,-0.03149534315,-0.044390225699999994,0.08553828745,0.14119996375,-0.1542191189
03:45:40,0.005474940000000001,-0.023777964999999998,0.23605779999999998,0.08443519999999999,0.14038135,0.05081507,-50.39351398,-27.861159075000003,4.887506355,112.91715441999999,0.19861740975,-0.031731517954999997,-0.044679717689999995,0.084977739365,0.140506282875,-0.15322020053
03:45:40,0.006153680000000002,-0.02405248,0.2353556,0.08373739999999999,0.1396942,0.05057004,-50.39367656,-27.862187400000003,4.893600559999999,112.91607823999999,0.198415222,-0.03196769276,-0.04496920968,0.08441719128,0.139812602,-0.15222128216
03:45:40,0.006832420000000002,-0.024326994999999997,0.2346534,0.08303959999999999,0.13900705,0.050325009999999996,-50.393839140000004,-27.863215725000003,4.899694765,112.91500205999999,0.19821303425,-0.032203867565,-0.04525870167,0.083856643195,0.139118921125,-0.15122236379
03:45:40,0.007511160000000003,-0.02460151,0.2339512,0.08234179999999999,0.1383199,0.050079979999999996,-50.394001720000006,-27.86424405,4.90578897,112.91392588,0.1980108465,-0.03244004237,-0.04554819366,0.08329609511000001,0.13842524025,-0.15022344542
03:45:40,0.008189900000000003,-0.024876025,0.23324899999999998,0.081644,0.13763275,0.049834949999999996,-50.3941643,-27.865272375,4.911883175,112.9128497,0.19780865875,-0.032676217175,-0.045837685649999994,0.08273554702500001,0.137731559375,-0.14922452705
03:45:40,0.00886864,-0.02515054,0.2325468,0.0809462,0.1369456,0.049589919999999996,-50.39432688,-27.8663007,4.91797738,112.91177352,0.197606471,-0.03291239198,-0.046127177639999996,0.08217499894000001,0.1370378785,-0.14822560868
03:45:40,0.009547380000000001,-0.025425055,0.2318446,0.0802484,0.13625845,0.04934489,-50.39448946,-27.867329025,4.924071585,112.91069734,0.19740428325,-0.033148566785,-0.04641666963,0.081614450855,0.136344197625,-0.14722669031
03:45:40,0.010226120000000002,-0.025699569999999998,0.2311424,0.0795506,0.1355713,0.049099859999999995,-50.394652040000004,-27.86835735,4.93016579,112.90962116,0.1972020955,-0.03338474159,-0.04670616162,0.08105390277,0.13565051675,-0.14622777194
03:45:40,0.010904860000000002,-0.025974085,0.23044019999999998,0.0788528,0.13488414999999998,0.04885483,-50.394814620000005,-27.869385675,4.9362599949999995,112.90854498,0.19699990775,-0.033620916395,-0.04699565360999999,0.080493354685,0.13495683587500001,-0.14522885356999998
03:45:40,0.011583600000000003,-0.026248599999999997,0.229738,0.078155,0.13419699999999998,0.048609799999999995,-50.3949772,-27.870414,4.9423542,112.90746879999999,0.19679772,-0.033857091199999995,-0.047285145599999995,0.0799328066,0.134263155,-0.1442299352
03:45:40,0.012262340000000004,-0.026523115,0.2290358,0.0774572,0.13350984999999999,0.04836477,-50.39513978,-27.871442325,4.948448405,112.90639261999999,0.19659553225,-0.034093266005,-0.047574637589999996,0.079372258515,0.133569474125,-0.14323101683
03:45:40,0.01294108,-0.02679763,0.2283336,0.0767594,0.1328227,0.04811974,-50.39530236,-27.87247065,4.95454261,112.90531644,0.1963933445,-0.03432944081,-0.04786412958,0.07881171043,0.13287579324999998,-0.14223209846
03:45:40,0.013619820000000001,-0.027072145,0.22763139999999998,0.0760616,0.13213555,0.04787471,-50.395464940000004,-27.873498975,4.960636815,112.90424026,0.19619115675,-0.034565615614999996,-0.04815362157,0.078251162345,0.132182112375,-0.14123318009
03:45:40,0.014298560000000002,-0.02734666,0.2269292,0.0753638,0.1314484,0.04762968,-50.395627520000005,-27.8745273,4.96673102,112.90316408,0.195988969,-0.03480179042,-0.04844311356,0.07769061426000001,0.1314884315,-0.14023426172
03:45:40,0.014977300000000002,-0.027621174999999998,0.226227,0.074666,0.13076125,0.04738465,-50.3957901,-27.875555625,4.972825224999999,112.9020879,0.19578678125,-0.035037965224999995,-0.048732605549999995,0.07713006617500001,0.130794750625,-0.13923534334999998
03:45:40,0.015656040000000003,-0.02789569,0.2255248,0.0739682,0.1300741,0.04713962,-50.39595268,-27.87658395,4.9789194299999995,112.90101172,0.19558459350000001,-0.03527414003,-0.04902209754,0.07656951809000001,0.13010106975,-0.13823642498
03:45:40,0.016334780000000004,-0.028170204999999997,0.22482259999999998,0.0732704,0.12938695,0.04689459,-50.39611526,-27.877612275,4.985013635,112.89993554,0.19538240575000002,-0.035510314835,-0.04931158953,0.07600897000500001,0.129407388875,-0.13723750661
03:45:40,0.01701352,-0.02844472,0.2241204,0.0725726,0.1286998,0.04664956,-50.39627784,-27.8786406,4.99110784,112.89885935999999,0.19518021800000002,-0.03574648964,-0.04960108151999999,0.07544842192000001,0.12871370799999998,-0.13623858824
03:45:40,0.017692260000000005,-0.028719235,0.2234182,0.07187479999999999,0.12801265,0.04640453,-50.396440420000005,-27.879668925,4.997202045,112.89778317999999,0.19497803025,-0.035982664445,-0.049890573509999994,0.07488787383500001,0.128020027125,-0.13523966987
03:45:40,0.018371000000000002,-0.02899375,0.222716,0.07117699999999999,0.12732549999999998,0.0461595,-50.396603,-27.88069725,5.00329625,112.89670699999999,0.19477584250000002,-0.036218839249999996,-0.050180065499999996,0.07432732575,0.12732634625,-0.1342407515
03:45:40,0.019049740000000006,-0.029268264999999998,0.22201379999999998,0.07047919999999999,0.12663835,0.04591447,-50.39676558,-27.881725575,5.009390455,112.89563082,0.19457365475,-0.036455014055,-0.05046955749,0.073766777665,0.126632665375,-0.13324183313
03:45:40,0.019728480000000003,-0.029542779999999998,0.2213116,0.0697814,0.12595119999999999,0.04566944,-50.39692816,-27.8827539,5.01548466,112.89455464,0.194371467,-0.03669118886,-0.05075904948,0.07320622958,0.1259389845,-0.13224291476
03:45:40,0.02040722,-0.029817295,0.2206094,0.0690836,0.12526405,0.04542441,-50.39709074,-27.883782225,5.0215788649999995,112.89347846,0.19416927925,-0.036927363665,-0.05104854147,0.072645681495,0.125245303625,-0.13124399639
03:45:40,0.021085960000000004,-0.030091809999999997,0.2199072,0.0683858,0.12457689999999999,0.04517938,-50.397253320000004,-27.88481055,5.02767307,112.89240228,0.1939670915,-0.03716353847,-0.051338033459999995,0.07208513341,0.12455162275000001,-0.13024507802000002
03:45:40,0.0217647,-0.030366325,0.21920499999999998,0.067688,0.12388974999999999,0.04493435,-50.397415900000006,-27.885838875,5.033767275,112.8913261,0.19376490375,-0.037399713274999996,-0.051627525449999996,0.071524585325,0.123857941875,-0.12924615965
03:45:40,0.022443440000000005,-0.03064084,0.2185028,0.0669902,0.1232026,0.04468932,-50.39757848,-27.8868672,5.03986148,112.89024992,0.193562716,-0.03763588808,-0.05191701744,0.07096403724,0.123164261,-0.12824724128
03:45:40,0.023122180000000003,-0.030915355,0.2178006,0.0662924,0.12251545,0.04444429,-50.39774106,-27.887895525,5.045955685,112.88917373999999,0.19336052825,-0.037872062885,-0.05220650942999999,0.070403489155,0.122470580125,-0.12724832291
03:45:40,0.02380092,-0.031189869999999998,0.2170984,0.0655946,0.1218283,0.04419926,-50.39790364,-27.88892385,5.05204989,112.88809755999999,0.1931583405,-0.03810823769,-0.052496001419999994,0.06984294107,0.12177689925,-0.12624940454
03:45:40,0.024479660000000004,-0.031464385,0.21639619999999998,0.0648968,0.12114115,0.04395423,-50.398066220000004,-27.889952175,5.058144094999999,112.88702138,0.19295615275,-0.038344412494999994,-0.052785493409999995,0.069282392985,0.121083218375,-0.12525048617
03:45:40,0.0251584,-0.0317389,0.215694,0.064199,0.12045399999999999,0.0437092,-50.398228800000005,-27.8909805,5.0642382999999995,112.8859452,0.192753965,-0.0385805873,-0.0530749854,0.0687218449,0.1203895375,-0.1242515678
03:45:40,0.025837140000000005,-0.032013415,0.2149918,0.06350120000000001,0.11976685,0.043464169999999996,-50.39839138,-27.892008825,5.070332505,112.88486902,0.19255177725,-0.038816762105,-0.05336447739,0.06816129681500001,0.119695856625,-0.12325264943
03:45:40,0.026515880000000002,-0.03228793,0.2142896,0.0628034,0.1190797,0.04321914,-50.39855396,-27.89303715,5.07642671,112.88379284,0.1923495895,-0.039052936909999995,-0.05365396938,0.06760074873000001,0.11900217575,-0.12225373106000001
03:45:40,0.027194620000000006,-0.032562444999999995,0.21358739999999998,0.0621056,0.11839254999999999,0.042974109999999996,-50.39871654,-27.894065475,5.082520915,112.88271666,0.19214740175,-0.039289111715,-0.053943461369999994,0.067040200645,0.118308494875,-0.12125481269
03:45:40,0.027873360000000003,-0.03283696,0.2128852,0.0614078,0.11770539999999999,0.04272908,-50.398879120000004,-27.8950938,5.08861512,112.88164048,0.191945214,-0.039525286519999994,-0.054232953359999996,0.06647965256,0.117614814,-0.12025589432
03:45:40,0.0285521,-0.033111475,0.212183,0.06071,0.11701824999999999,0.042484049999999995,-50.399041700000005,-27.896122125,5.094709325,112.8805643,0.19174302625,-0.039761461325,-0.05452244535,0.065919104475,0.11692113312499999,-0.11925697595
03:45:40,0.029230840000000004,-0.03338599,0.2114808,0.0600122,0.11633109999999999,0.04223902,-50.39920428,-27.89715045,5.100803529999999,112.87948811999999,0.1915408385,-0.03999763613,-0.05481193733999999,0.06535855639,0.11622745225,-0.11825805758
03:45:40,0.02990958,-0.03366050499999999,0.21077859999999998,0.059314399999999996,0.11564395,0.041993989999999995,-50.39936686,-27.898178775,5.1068977349999995,112.87841193999999,0.19133865075,-0.040233810934999996,-0.05510142932999999,0.064798008305,0.115533771375,-0.11725913921
03:45:40,0.030588320000000006,-0.033935019999999996,0.2100764,0.0586166,0.1149568,0.04174896,-50.39952944,-27.8992071,5.11299194,112.87733576,0.191136463,-0.04046998574,-0.055390921319999994,0.06423746022000001,0.11484009049999999,-0.11626022084
03:45:40,0.03126706,-0.034209535,0.2093742,0.0579188,0.11426965,0.041503929999999994,-50.39969202,-27.900235425,5.119086145,112.87625958,0.19093427525,-0.040706160544999995,-0.055680413309999996,0.06367691213500001,0.114146409625,-0.11526130247000001
03:45:40,0.03194580000000001,-0.03448405,0.208672,0.057221,0.1135825,0.0412589,-50.399854600000005,-27.901263750000002,5.12518035,112.8751834,0.1907320875,-0.04094233535,-0.0559699053,0.06311636405000001,0.11345272875,-0.1142623841
03:45:40,0.03262454000000001,-0.034758565,0.20796979999999998,0.056523199999999996,0.11289534999999999,0.04101387,-50.400017180000006,-27.902292075000002,5.131274555,112.87410722,0.19052989975,-0.041178510155,-0.05625939729,0.06255581596500001,0.11275904787499999,-0.11326346573
03:45:40,0.033303280000000005,-0.035033079999999994,0.2072676,0.0558254,0.1122082,0.04076884,-50.40017976,-27.903320400000002,5.13736876,112.87303104,0.190327712,-0.041414684959999996,-0.05654888927999999,0.06199526788,0.112065367,-0.11226454736
03:45:40,0.03398202,-0.035307595,0.2065654,0.0551276,0.11152105,0.04052381,-50.40034234,-27.904348725000002,5.143462964999999,112.87195486,0.19012552425,-0.04165085976499999,-0.056838381269999995,0.061434719795,0.111371686125,-0.11126562899
03:45:40,0.03466076,-0.03558211,0.2058632,0.0544298,0.11083389999999999,0.04027878,-50.40050492,-27.905377050000002,5.14955717,112.87087867999999,0.1899233365,-0.041887034569999995,-0.057127873259999996,0.06087417171000001,0.11067800524999999,-0.11026671062
03:45:40,0.03533950000000001,-0.035856625,0.20516099999999998,0.053732,0.11014674999999999,0.04003375,-50.400667500000004,-27.906405375000002,5.155651375,112.86980249999999,0.18972114875,-0.042123209375,-0.05741736524999999,0.06031362362500001,0.109984324375,-0.10926779225
03:45:40,0.03601824000000001,-0.03613114,0.2044588,0.0530342,0.10945959999999999,0.03978872,-50.400830080000006,-27.907433700000002,5.16174558,112.86872632,0.189518961,-0.04235938418,-0.05770685723999999,0.059753075540000006,0.1092906435,-0.10826887388
03:45:40,0.036696980000000004,-0.036405654999999995,0.2037566,0.0523364,0.10877244999999999,0.03954369,-50.40099266,-27.908462025000002,5.167839785,112.86765014,0.18931677325000001,-0.042595558985,-0.057996349229999994,0.059192527455000005,0.10859696262499999,-0.10726995551
03:45:40,0.03737572,-0.03668017,0.2030544,0.0516386,0.1080853,0.03929866,-50.40115524,-27.909490350000002,5.17393399,112.86657396,0.18911458550000002,-0.04283173378999999,-0.058285841219999995,0.058631979370000004,0.10790328175,-0.10627103714
03:45:40,0.03805446,-0.036954685,0.20235219999999998,0.0509408,0.10739815,0.03905363,-50.40131782,-27.910518675000002,5.180028195,112.86549778,0.18891239775000002,-0.043067908594999996,-0.05857533321,0.058071431285,0.107209600875,-0.10527211877
03:45:40,0.03873320000000001,-0.0372292,0.20165,0.050242999999999996,0.106711,0.0388086,-50.401480400000004,-27.911547000000002,5.1861223999999995,112.8644216,0.18871021000000002,-0.0433040834,-0.0588648252,0.0575108832,0.10651592,-0.1042732004
03:45:40,0.039411940000000006,-0.03750371499999999,0.2009478,0.0495452,0.10602385,0.03856357,-50.401642980000005,-27.912575325000002,5.192216605,112.86334542,0.18850802225000002,-0.043540258205,-0.05915431719,0.05695033511500001,0.105822239125,-0.10327428203
03:45:40,0.040090680000000004,-0.037778229999999996,0.2002456,0.0488474,0.1053367,0.03831854,-50.40180556,-27.913603650000002,5.19831081,112.86226924,0.1883058345,-0.04377643301,-0.059443809179999994,0.056389787030000006,0.10512855825,-0.10227536366000001
03:45:40,0.04076942,-0.038052745,0.19954339999999998,0.0481496,0.10464955,0.03807351,-50.40196814,-27.914631975000002,5.204405015,112.86119305999999,0.18810364675000002,-0.04401260781499999,-0.059733301169999996,0.055829238945000005,0.104434877375,-0.10127644529
03:45:40,0.04144816,-0.03832726,0.1988412,0.0474518,0.1039624,0.03782848,-50.40213072,-27.915660300000003,5.21049922,112.86011687999999,0.187901459,-0.044248782619999996,-0.06002279315999999,0.055268690860000004,0.1037411965,-0.10027752692
03:45:40,0.04212690000000001,-0.038601775,0.198139,0.046754,0.10327524999999999,0.037583450000000004,-50.402293300000004,-27.916688625000003,5.216593425,112.8590407,0.18769927125,-0.044484957425,-0.06031228514999999,0.054708142775,0.103047515625,-0.09927860855000001
03:45:40,0.042805640000000006,-0.038876289999999994,0.1974368,0.0460562,0.10258809999999999,0.03733842,-50.402455880000005,-27.917716950000003,5.22268763,112.85796452,0.1874970835,-0.044721132229999995,-0.06060177713999999,0.05414759469,0.10235383475,-0.09827969018
03:45:40,0.04348438,-0.039150805,0.19673459999999998,0.0453584,0.10190094999999999,0.037093390000000004,-50.40261846,-27.918745275000003,5.2287818349999995,112.85688834,0.18729489575,-0.044957307035,-0.060891269129999995,0.05358704660500001,0.10166015387499999,-0.09728077181
03:45:40,0.04416312,-0.03942532,0.1960324,0.0446606,0.10121379999999999,0.03684836,-50.40278104,-27.919773600000003,5.23487604,112.85581216,0.187092708,-0.045193481839999994,-0.061180761119999996,0.05302649852000001,0.100966473,-0.09628185344000001
03:45:40,0.04484186000000001,-0.039699835,0.1953302,0.0439628,0.10052665,0.03660333,-50.40294362,-27.920801925000003,5.240970245,112.85473598,0.18689052025,-0.045429656645,-0.06147025311,0.052465950435000006,0.100272792125,-0.09528293507
03:45:40,0.04552060000000001,-0.03997435,0.194628,0.043265,0.0998395,0.036358299999999996,-50.4031062,-27.921830250000003,5.24706445,112.8536598,0.1866883325,-0.04566583145,-0.0617597451,0.051905402350000004,0.09957911124999999,-0.0942840167
03:45:40,0.046199340000000005,-0.040248864999999995,0.19392579999999998,0.0425672,0.09915235,0.03611327,-50.403268780000005,-27.922858575000003,5.253158655,112.85258362,0.18648614475,-0.045902006254999995,-0.062049237089999994,0.051344854265,0.098885430375,-0.09328509833
03:45:40,0.04687808,-0.04052338,0.1932236,0.0418694,0.09846519999999999,0.035868239999999996,-50.403431360000006,-27.923886900000003,5.25925286,112.85150743999999,0.186283957,-0.04613818105999999,-0.062338729079999995,0.05078430618,0.0981917495,-0.09228617996
03:45:40,0.047556820000000014,-0.040797895,0.1925214,0.0411716,0.09777804999999999,0.03562321,-50.40359394,-27.924915225000003,5.265347065,112.85043126,0.18608176925,-0.046374355864999994,-0.06262822106999999,0.05022375809500001,0.09749806862499999,-0.09128726159
03:45:40,0.04823556000000001,-0.04107241,0.1918192,0.040473800000000004,0.0970909,0.035378179999999995,-50.40375652,-27.925943550000003,5.2714412699999995,112.84935508,0.1858795815,-0.04661053067,-0.06291771305999999,0.04966321001000001,0.09680438775,-0.09028834322
03:45:40,0.04891430000000001,-0.04134692499999999,0.19111699999999998,0.039776000000000006,0.09640375,0.03513315,-50.4039191,-27.926971875000003,5.277535475,112.8482789,0.18567739375,-0.046846705475,-0.06320720504999999,0.049102661925000006,0.096110706875,-0.08928942485000001
03:45:40,0.049593040000000005,-0.041621439999999996,0.1904148,0.03907820000000001,0.0957166,0.03488812,-50.404081680000004,-27.928000200000003,5.28362968,112.84720272,0.185475206,-0.047082880279999996,-0.06349669704,0.048542113840000005,0.09541702599999999,-0.08829050648
03:45:40,0.05027178,-0.041895955,0.1897126,0.038380399999999995,0.09502945,0.03464309,-50.404244260000006,-27.929028525000003,5.289723885,112.84612654,0.18527301825,-0.04731905508499999,-0.06378618903,0.047981565755000004,0.094723345125,-0.08729158811
03:45:40,0.05095052000000001,-0.04217047,0.1890104,0.0376826,0.09434229999999999,0.03439806,-50.40440684,-27.930056850000003,5.29581809,112.84505036,0.1850708305,-0.047555229889999995,-0.06407568102,0.04742101767,0.09402966424999999,-0.08629266974000001
03:45:40,0.05162926000000001,-0.042444985,0.18830819999999998,0.0369848,0.09365514999999999,0.03415303,-50.40456942,-27.931085175000003,5.301912295,112.84397418,0.18486864275,-0.047791404695,-0.06436517301,0.046860469585,0.093335983375,-0.08529375137
03:45:40,0.05230800000000001,-0.042719499999999994,0.187606,0.036287,0.092968,0.033908,-50.404732,-27.9321135,5.308006499999999,112.84289799999999,0.184666455,-0.0480275795,-0.064654665,0.04629992150000001,0.0926423025,-0.084294833
03:45:40,0.052986740000000004,-0.042994015,0.1869038,0.0355892,0.09228085,0.03366297,-50.404894580000004,-27.933141825,5.3141007049999995,112.84182181999999,0.18446426725,-0.048263754304999996,-0.06494415699,0.045739373415000006,0.09194862162499999,-0.08329591463000001
03:45:40,0.053665480000000015,-0.04326853,0.1862016,0.0348914,0.0915937,0.03341794,-50.405057160000005,-27.93417015,5.32019491,112.84074564,0.1842620795,-0.04849992910999999,-0.06523364897999999,0.045178825330000005,0.09125494075,-0.08229699626
03:45:40,0.05434422000000001,-0.043543044999999996,0.18549939999999998,0.034193600000000005,0.09090654999999999,0.03317291,-50.40521974,-27.935198475,5.326289115,112.83966946,0.18405989175,-0.048736103914999995,-0.06552314096999999,0.044618277245000004,0.090561259875,-0.08129807789
03:45:40,0.05502296000000001,-0.04381756,0.1847972,0.033495800000000006,0.09021939999999999,0.03292788,-50.40538232,-27.9362268,5.33238332,112.83859328,0.183857704,-0.04897227872,-0.06581263295999999,0.04405772916,0.08986757899999999,-0.08029915952
03:45:40,0.05570170000000001,-0.044092074999999994,0.184095,0.03279800000000001,0.08953225,0.03268285,-50.4055449,-27.937255125,5.338477525,112.8375171,0.18365551625,-0.049208453524999994,-0.06610212495,0.043497181075,0.089173898125,-0.07930024115
03:45:40,0.056380440000000004,-0.04436659,0.1833928,0.032100199999999995,0.0888451,0.03243782,-50.405707480000004,-27.93828345,5.34457173,112.83644092,0.1834533285,-0.04944462833,-0.06639161694,0.04293663299000001,0.08848021724999999,-0.07830132278
03:45:40,0.057059180000000015,-0.044641105,0.18269059999999998,0.0314024,0.08815795,0.03219279,-50.405870060000005,-27.939311775,5.350665935,112.83536474,0.18325114075,-0.04968080313499999,-0.06668110893,0.04237608490500001,0.08778653637499999,-0.07730240441
03:45:40,0.05773792000000001,-0.044915619999999996,0.1819884,0.0307046,0.0874708,0.03194776,-50.40603264,-27.9403401,5.35676014,112.83428856,0.18304895300000001,-0.049916977939999996,-0.06697060091999998,0.041815536820000006,0.0870928555,-0.07630348604000001
03:45:40,0.05841666000000001,-0.04519013499999999,0.1812862,0.0300068,0.08678364999999999,0.03170273,-50.40619522,-27.941368425,5.362854345,112.83321237999999,0.18284676525000002,-0.050153152745,-0.06726009290999999,0.041254988735000005,0.08639917462499999,-0.07530456767
03:45:40,0.059095400000000006,-0.045464649999999995,0.180584,0.029309,0.08609649999999999,0.031457700000000005,-50.4063578,-27.94239675,5.36894855,112.8321362,0.18264457750000002,-0.050389327549999995,-0.06754958489999999,0.040694440650000004,0.08570549375,-0.0743056493
03:45:40,0.05977414,-0.045739165,0.17988179999999998,0.028611200000000003,0.08540935,0.03121267,-50.40652038,-27.943425075,5.375042755,112.83106002,0.18244238975000002,-0.05062550235499999,-0.06783907688999999,0.040133892565,0.085011812875,-0.07330673093000001
03:45:40,0.060452880000000014,-0.04601368,0.1791796,0.027913400000000005,0.0847222,0.03096764,-50.406682960000005,-27.9444534,5.38113696,112.82998384,0.18224020200000002,-0.05086167715999999,-0.06812856887999999,0.03957334448000001,0.08431813199999999,-0.07230781256
03:45:40,0.06113162000000001,-0.046288195,0.1784774,0.027215600000000006,0.08403505,0.03072261,-50.406845540000006,-27.945481725,5.387231165,112.82890766,0.18203801425000002,-0.051097851964999996,-0.06841806086999999,0.03901279639500001,0.083624451125,-0.07130889419
03:45:40,0.06181036000000001,-0.04656270999999999,0.1777752,0.026517800000000008,0.0833479,0.03047758,-50.40700812,-27.94651005,5.3933253699999995,112.82783148,0.18183582650000002,-0.05133402677,-0.06870755285999999,0.038452248310000006,0.08293077025,-0.07030997582000001
03:45:40,0.062489100000000006,-0.046837224999999996,0.17707299999999998,0.025819999999999996,0.08266074999999999,0.03023255,-50.4071707,-27.947538375,5.399419575,112.8267553,0.18163363875,-0.051570201574999995,-0.06899704485,0.037891700225000005,0.08223708937499999,-0.06931105745
03:45:40,0.06316784,-0.04711174,0.1763708,0.025122199999999997,0.0819736,0.02998752,-50.40733328,-27.9485667,5.40551378,112.82567912,0.18143145100000002,-0.05180637637999999,-0.06928653684,0.037331152140000004,0.0815434085,-0.06831213908
03:45:40,0.06384658000000001,-0.047386255,0.1756686,0.0244244,0.08128645,0.02974249,-50.407495860000004,-27.949595025,5.411607985,112.82460294,0.18122926325,-0.052042551184999994,-0.06957602883,0.036770604055,0.08084972762499999,-0.06731322071000001
03:45:40,0.06452532000000001,-0.04766076999999999,0.1749664,0.0237266,0.0805993,0.02949746,-50.407658440000006,-27.95062335,5.41770219,112.82352676,0.1810270755,-0.05227872599,-0.06986552082,0.03621005597,0.08015604674999999,-0.06631430234
03:45:40,0.06520406000000001,-0.047935284999999994,0.17426419999999998,0.023028800000000002,0.07991215,0.02925243,-50.40782102,-27.951651675,5.423796395,112.82245058,0.18082488775,-0.052514900795,-0.07015501281,0.035649507885,0.079462365875,-0.06531538397
03:45:40,0.0658828,-0.0482098,0.173562,0.022331000000000004,0.07922499999999999,0.0290074,-50.4079836,-27.95268,5.4298906,112.8213744,0.1806227,-0.052751075599999996,-0.0704445048,0.0350889598,0.07876868499999999,-0.06431646560000001
03:45:40,0.06656154000000002,-0.048484315,0.1728598,0.021633200000000005,0.07853784999999999,0.02876237,-50.40814618,-27.953708325,5.435984805,112.82029822,0.18042051225,-0.05298725040499999,-0.07073399679,0.034528411715,0.07807500412499999,-0.06331754723000001
03:45:40,0.06724028000000001,-0.04875883,0.1721576,0.020935400000000007,0.0778507,0.028517340000000002,-50.408308760000004,-27.95473665,5.44207901,112.81922204,0.1802183245,-0.053223425209999994,-0.07102348877999999,0.03396786363000001,0.07738132325,-0.06231862886
03:45:40,0.06791902000000001,-0.04903334499999999,0.17145539999999998,0.02023760000000001,0.07716355,0.028272310000000002,-50.408471340000006,-27.955764975,5.448173215,112.81814586,0.18001613675,-0.053459600015,-0.07131298076999999,0.03340731554500001,0.07668764237499999,-0.06131971049
03:45:40,0.06859776000000001,-0.049307859999999995,0.1707532,0.019539799999999996,0.0764764,0.02802728,-50.40863392,-27.9567933,5.45426742,112.81706968,0.179813949,-0.05369577481999999,-0.07160247276,0.03284676746000001,0.0759939615,-0.06032079212000001
03:45:40,0.0692765,-0.049582375,0.170051,0.018841999999999998,0.07578925,0.02778225,-50.4087965,-27.957821625,5.460361625,112.8159935,0.17961176125,-0.053931949624999996,-0.07189196475,0.03228621937500001,0.075300280625,-0.059321873750000004
03:45:40,0.06995524000000002,-0.04985689,0.1693488,0.0181442,0.07510209999999999,0.02753722,-50.40895908,-27.95884995,5.46645583,112.81491732,0.1794095735,-0.05416812442999999,-0.07218145673999998,0.03172567129000001,0.07460659974999999,-0.05832295538000001
03:45:40,0.07063398000000001,-0.05013140499999999,0.16864659999999998,0.0174464,0.07441495,0.02729219,-50.409121660000004,-27.959878275,5.472550035,112.81384114,0.17920738575,-0.054404299234999995,-0.07247094872999998,0.031165123205000006,0.073912918875,-0.057324037009999995
03:45:40,0.07131272000000001,-0.05040591999999999,0.1679444,0.016748600000000002,0.0737278,0.02704716,-50.409284240000005,-27.9609066,5.4786442399999995,112.81276496,0.179005198,-0.05464047404,-0.07276044071999999,0.030604575120000005,0.07321923799999999,-0.056325118640000005
03:45:40,0.07199146000000001,-0.050680434999999996,0.1672422,0.016050800000000004,0.07304065,0.02680213,-50.40944682,-27.961934925,5.484738445,112.81168878,0.17880301025,-0.054876648844999994,-0.07304993270999999,0.030044027035000004,0.07252555712499999,-0.055326200270000014
03:45:40,0.0726702,-0.05095495,0.16654,0.015353000000000006,0.0723535,0.0265571,-50.4096094,-27.96296325,5.49083265,112.8106126,0.1786008225,-0.05511282364999999,-0.07333942469999999,0.029483478950000003,0.07183187625,-0.054327281899999996
03:45:40,0.07334894000000002,-0.051229465,0.16583779999999998,0.014655200000000007,0.07166634999999999,0.02631207,-50.40977198,-27.963991575,5.496926855,112.80953642,0.17839863475,-0.05534899845499999,-0.07362891668999999,0.028922930865,0.07113819537499999,-0.053328363530000006
03:45:40,0.07402768000000001,-0.05150397999999999,0.1651356,0.013957400000000009,0.07097919999999999,0.02606704,-50.40993456,-27.9650199,5.50302106,112.80846024,0.178196447,-0.055585173259999995,-0.07391840867999999,0.02836238278,0.07044451449999999,-0.052329445160000015
03:45:40,0.07470642000000001,-0.051778494999999994,0.1644334,0.013259599999999996,0.07029205,0.02582201,-50.410097140000005,-27.966048225,5.509115265,112.80738406,0.17799425925,-0.055821348065,-0.07420790067,0.027801834695,0.069750833625,-0.05133052679
03:45:40,0.07538516,-0.05205301,0.1637312,0.012561799999999998,0.0696049,0.02557698,-50.410259720000006,-27.96707655,5.51520947,112.80630788,0.1777920715,-0.05605752286999999,-0.07449739266,0.02724128661,0.06905715274999999,-0.05033160842000001
03:45:40,0.0760639,-0.052327525,0.16302899999999998,0.011864,0.06891775,0.02533195,-50.4104223,-27.968104875,5.521303675,112.8052317,0.17758988375,-0.05629369767499999,-0.07478688465,0.02668073852500001,0.068363471875,-0.049332690050000017
03:45:40,0.07674264000000001,-0.05260204,0.1623268,0.011166200000000001,0.0682306,0.02508692,-50.41058488,-27.9691332,5.52739788,112.80415552,0.177387696,-0.05652987247999999,-0.07507637664,0.02612019044000001,0.06766979099999999,-0.04833377168
03:45:40,0.07742138000000001,-0.05287655499999999,0.1616246,0.010468400000000003,0.06754344999999999,0.02484189,-50.41074746,-27.970161525,5.533492085,112.80307934,0.17718550825,-0.056766047284999996,-0.07536586863,0.02555964235500001,0.06697611012499999,-0.04733485331000001
03:45:40,0.07810012000000001,-0.053151069999999995,0.1609224,0.009770600000000004,0.0668563,0.024596859999999998,-50.410910040000005,-27.971189850000002,5.53958629,112.80200316,0.1769833205,-0.05700222209,-0.07565536062,0.024999094270000008,0.06628242925,-0.04633593494000002
03:45:40,0.07877886,-0.053425585,0.16022019999999998,0.009072800000000006,0.06616915,0.024351829999999998,-50.411072620000006,-27.972218175000002,5.545680495,112.80092698,0.17678113275000001,-0.05723839689499999,-0.07594485261,0.024438546185000007,0.06558874837499999,-0.04533701657
03:45:40,0.07945760000000002,-0.0537001,0.159518,0.008375000000000007,0.065482,0.024106799999999998,-50.4112352,-27.973246500000002,5.5517747,112.7998508,0.17657894500000001,-0.05747457169999999,-0.07623434459999999,0.023877998100000006,0.06489506749999999,-0.04433809820000001
03:45:40,0.08013634000000001,-0.05397461499999999,0.1588158,0.007677200000000009,0.06479485,0.023861770000000004,-50.41139778,-27.974274825000002,5.557868905,112.79877462,0.17637675725000002,-0.057710746504999993,-0.07652383658999999,0.023317450015000005,0.064201386625,-0.04333917983000002
03:45:40,0.08081508000000001,-0.05424912999999999,0.1581136,0.006979399999999997,0.06410769999999999,0.023616740000000004,-50.41156036,-27.975303150000002,5.5639631099999995,112.79769844,0.17617456950000002,-0.057946921309999996,-0.07681332857999999,0.022756901930000004,0.06350770574999999,-0.04234026146
03:45:40,0.08149382000000001,-0.054523644999999996,0.15741139999999998,0.006281599999999998,0.06342054999999999,0.023371710000000004,-50.411722940000004,-27.976331475000002,5.570057315,112.79662226,0.17597238175000002,-0.058183096115,-0.07710282057,0.022196353845000003,0.06281402487499999,-0.04134134309000001
03:45:40,0.08217256,-0.05479816,0.1567092,0.0055838,0.0627334,0.023126680000000004,-50.411885520000006,-27.977359800000002,5.57615152,112.79554608,0.17577019400000002,-0.05841927091999999,-0.07739231255999998,0.02163580576,0.062120343999999994,-0.04034242471999999
03:45:40,0.08285130000000002,-0.055072675,0.156007,0.0048860000000000015,0.06204625,0.022881650000000003,-50.4120481,-27.978388125000002,5.582245725,112.7944699,0.17556800625000002,-0.05865544572499999,-0.07768180454999998,0.021075257675,0.06142666312499999,-0.03934350635
03:45:40,0.08353004000000001,-0.05534718999999999,0.1553048,0.004188200000000003,0.0613591,0.022636620000000003,-50.41221068,-27.979416450000002,5.58833993,112.79339372,0.17536581850000002,-0.058891620529999994,-0.07797129653999998,0.02051470959,0.060732982249999984,-0.03834458798000001
03:45:40,0.08420878000000001,-0.055621704999999994,0.15460259999999998,0.0034904000000000046,0.06067195,0.022391590000000003,-50.41237326,-27.980444775000002,5.594434135,112.79231754,0.17516363075000002,-0.059127795335,-0.07826078852999999,0.019954161504999998,0.06003930137499999,-0.03734566960999999
03:45:40,0.08488752000000001,-0.055896219999999996,0.1539004,0.002792600000000006,0.05998479999999999,0.022146560000000003,-50.412535840000004,-27.981473100000002,5.60052834,112.79124136,0.174961443,-0.05936397014,-0.07855028051999999,0.01939361342000001,0.05934562049999999,-0.03634675124
03:45:40,0.08556626,-0.056170735,0.1531982,0.0020948000000000078,0.05929764999999999,0.021901530000000002,-50.412698420000005,-27.982501425000002,5.6066225450000005,112.79016518,0.17475925525000002,-0.05960014494499999,-0.07883977250999999,0.01883306533500001,0.058651939624999996,-0.03534783287000001
03:45:40,0.08624500000000002,-0.05644525,0.152496,0.0013970000000000093,0.058610499999999996,0.021656500000000002,-50.41286100000001,-27.983529750000002,5.61271675,112.789089,0.1745570675,-0.05983631974999999,-0.07912926449999999,0.01827251725000001,0.05795825874999999,-0.034348914499999994
03:45:40,0.08692374000000001,-0.05671976499999999,0.15179379999999998,0.000699199999999997,0.05792335,0.021411470000000002,-50.41302358,-27.984558075000002,5.618810955,112.78801282,0.17435487975,-0.060072494554999994,-0.07941875648999999,0.017711969165000008,0.057264577874999986,-0.033349996130000004
03:45:40,0.08760248000000001,-0.056994279999999994,0.1510916,1.3999999999986246e-06,0.0572362,0.02116644,-50.41318616,-27.985586400000003,5.62490516,112.78693664000001,0.174152692,-0.06030866936,-0.07970824848,0.017151421080000007,0.056570896999999995,-0.03235107776000001
03:45:40,0.08828122000000001,-0.057268795,0.1503894,-0.0006963999999999998,0.056549050000000003,0.02092141,-50.41334874,-27.986614725000003,5.630999365,112.78586046,0.17395050425,-0.060544844164999986,-0.07999774047,0.016590872995000006,0.05587721612499999,-0.031352159389999995
03:45:40,0.08895996,-0.05754331,0.1496872,-0.0013941999999999982,0.05586189999999999,0.02067638,-50.413511320000005,-27.987643050000003,5.63709357,112.78478428,0.1737483165,-0.06078101896999999,-0.08028723246,0.016030324910000004,0.055183535249999985,-0.030353241020000005
03:45:40,0.08963870000000002,-0.05781782499999999,0.14898499999999998,-0.0020919999999999966,0.055174749999999995,0.02043135,-50.413673900000006,-27.988671375000003,5.643187775,112.7837081,0.17354612875,-0.06101719377499999,-0.08057672445,0.015469776825000003,0.054489854374999994,-0.029354322650000014
03:45:40,0.09031744000000001,-0.05809233999999999,0.1482828,-0.002789799999999995,0.0544876,0.02018632,-50.41383648,-27.989699700000003,5.64928198,112.78263192,0.173343941,-0.061253368579999995,-0.08086621644,0.014909228740000002,0.05379617349999999,-0.028355404279999996
03:45:40,0.09099618000000001,-0.058366854999999995,0.1475806,-0.0034875999999999935,0.05380045,0.01994129,-50.41399906,-27.990728025000003,5.655376185,112.78155574,0.17314175325,-0.061489543385,-0.08115570843,0.014348680655000001,0.05310249262499998,-0.027356485910000006
03:45:40,0.09167492000000001,-0.05864137,0.1468784,-0.004185399999999992,0.0531133,0.01969626,-50.41416164,-27.991756350000003,5.66147039,112.78047956,0.1729395655,-0.06172571818999999,-0.08144520041999999,0.01378813257,0.05240881174999999,-0.026357567540000015
03:45:40,0.09235366000000002,-0.058915885,0.14617619999999998,-0.00488319999999999,0.05242614999999999,0.01945123,-50.414324220000005,-27.992784675000003,5.667564595,112.77940338,0.17273737775,-0.06196189299499999,-0.08173469240999999,0.013227584484999999,0.05171513087499999,-0.025358649169999997
03:45:40,0.09303240000000002,-0.05919039999999999,0.145474,-0.005581000000000003,0.05173899999999999,0.0192062,-50.414486800000006,-27.993813000000003,5.6736588,112.7783272,0.17253519,-0.06219806779999999,-0.08202418439999999,0.012667036399999998,0.051021449999999996,-0.024359730800000007
03:45:40,0.09371114000000001,-0.05946491499999999,0.1447718,-0.006278800000000001,0.051051849999999996,0.01896117,-50.41464938,-27.994841325000003,5.679753005,112.77725102,0.17233300225,-0.062434242604999995,-0.08231367638999999,0.01210648831500001,0.05032776912499999,-0.023360812430000016
03:45:40,0.09438988000000001,-0.059739429999999996,0.1440696,-0.0069765999999999995,0.0503647,0.01871614,-50.41481196,-27.995869650000003,5.68584721,112.77617484,0.1721308145,-0.06267041741,-0.08260316838,0.01154594023000001,0.049634088249999986,-0.022361894059999998
03:45:40,0.09506862,-0.060013945,0.14336739999999998,-0.007674399999999998,0.04967755,0.01847111,-50.41497454,-27.996897975000003,5.6919414150000005,112.77509866,0.17192862675,-0.06290659221499999,-0.08289266036999998,0.010985392145000009,0.048940407374999995,-0.021362975690000008
03:45:40,0.09574736000000002,-0.06028846,0.1426652,-0.008372199999999996,0.0489904,0.01822608,-50.415137120000004,-27.997926300000003,5.69803562,112.77402248,0.171726439,-0.06314276701999999,-0.08318215235999998,0.010424844060000008,0.04824672649999999,-0.020364057320000017
03:45:40,0.09642610000000001,-0.06056297499999999,0.141963,-0.009069999999999995,0.04830324999999999,0.01798105,-50.415299700000006,-27.998954625000003,5.704129825,112.7729463,0.17152425125,-0.063378941825,-0.08347164434999998,0.009864295975000006,0.047553045624999984,-0.01936513895
03:45:40,0.09710484000000001,-0.060837489999999994,0.1412608,-0.009767799999999993,0.047616099999999995,0.017736019999999998,-50.41546228,-27.999982950000003,5.71022403,112.77187012,0.1713220635,-0.06361511663,-0.08376113633999999,0.009303747890000005,0.04685936474999999,-0.01836622058000001
03:45:40,0.09778358000000001,-0.061112005,0.14055859999999998,-0.010465599999999992,0.04692895,0.017490990000000005,-50.41562486,-28.001011275,5.716318235,112.77079394,0.17111987575,-0.063851291435,-0.08405062832999999,0.008743199805000004,0.04616568387499999,-0.01736730221000002
03:45:40,0.09846232,-0.06138652,0.1398564,-0.01116339999999999,0.0462418,0.017245960000000005,-50.41578744,-28.0020396,5.72241244,112.76971776,0.170917688,-0.06408746623999999,-0.08434012031999999,0.008182651720000003,0.04547200299999998,-0.01636838384
03:45:40,0.09914106000000002,-0.06166103499999999,0.1391542,-0.011861199999999988,0.04555465,0.017000930000000004,-50.415950020000004,-28.003067925,5.7285066449999995,112.76864158000001,0.17071550025,-0.06432364104499999,-0.08462961230999999,0.007622103635000002,0.04477832212499999,-0.01536946547000001
03:45:40,0.09981980000000001,-0.06193554999999999,0.138452,-0.012559,0.04486749999999999,0.016755900000000004,-50.416112600000005,-28.00409625,5.73460085,112.7675654,0.1705133125,-0.06455981585,-0.08491910429999999,0.007061555550000001,0.04408464124999999,-0.01437054710000002
03:45:40,0.10049854000000001,-0.062210064999999995,0.13774979999999998,-0.0132568,0.04418034999999999,0.016510870000000004,-50.41627518000001,-28.005124575,5.740695055,112.76648922,0.17031112475000001,-0.064795990655,-0.08520859629,0.006501007465,0.04339096037499998,-0.013371628730000001
03:45:40,0.10117728000000001,-0.06248458,0.1370476,-0.013954599999999998,0.043493199999999996,0.016265840000000004,-50.41643776,-28.0061529,5.74678926,112.76541304,0.17010893700000002,-0.06503216545999999,-0.08549808828,0.005940459379999999,0.04269727949999999,-0.012372710360000011
03:45:40,0.10185602,-0.062759095,0.1363454,-0.014652399999999996,0.04280605,0.016020810000000003,-50.41660034,-28.007181225,5.752883465,112.76433686,0.16990674925000002,-0.06526834026499999,-0.08578758027,0.005379911295000012,0.042003598624999985,-0.01137379199000002
03:45:40,0.10253476000000002,-0.06303360999999999,0.1356432,-0.015350199999999994,0.0421189,0.015775780000000003,-50.416762920000004,-28.00820955,5.75897767,112.76326068,0.16970456150000002,-0.06550451506999999,-0.08607707226,0.0048193632100000106,0.041309917749999994,-0.010374873620000002
03:45:40,0.10321350000000001,-0.06330812499999999,0.13494099999999998,-0.016047999999999993,0.04143175,0.015530750000000003,-50.416925500000005,-28.009237875,5.765071875,112.7621845,0.16950237375000002,-0.065740689875,-0.08636656425,0.0042588151250000095,0.04061623687499999,-0.009375955250000012
03:45:40,0.10389224000000001,-0.06358264,0.1342388,-0.01674579999999999,0.04074459999999999,0.015285720000000003,-50.417088080000006,-28.0102662,5.77116608,112.76110832,0.16930018600000002,-0.06597686468,-0.08665605624,0.0036982670400000084,0.039922555999999984,-0.008377036880000022
03:45:40,0.10457098000000001,-0.063857155,0.1335366,-0.01744359999999999,0.040057449999999994,0.015040690000000002,-50.41725066,-28.011294525,5.7772602850000006,112.76003214,0.16909799825000002,-0.06621303948499999,-0.08694554822999999,0.0031377189550000073,0.03922887512499999,-0.0073781185100000035
03:45:40,0.10524972000000002,-0.06413167,0.1328344,-0.018141399999999988,0.0393703,0.014795660000000002,-50.41741324,-28.01232285,5.78335449,112.75895596000001,0.16889581050000002,-0.06644921428999999,-0.08723504021999999,0.0025771708700000062,0.03853519424999999,-0.006379200140000013
03:45:40,0.10592846000000002,-0.06440618499999999,0.13213219999999998,-0.0188392,0.03868315,0.014550630000000002,-50.41757582,-28.013351175,5.789448695,112.75787978,0.16869362275,-0.06668538909499999,-0.08752453220999999,0.002016622785000005,0.03784151337499998,-0.005380281769999995
03:45:40,0.10660720000000001,-0.0646807,0.13143,-0.019537,0.037996,0.014305600000000002,-50.417738400000005,-28.0143795,5.7955429,112.7568036,0.16849143500000002,-0.0669215639,-0.0878140242,0.001456074700000004,0.03714783249999999,-0.004381363400000005
03:45:40,0.10728594000000001,-0.064955215,0.1307278,-0.020234799999999997,0.03730884999999999,0.014060570000000001,-50.417900980000006,-28.015407825,5.801637105,112.75572742,0.16828924725,-0.067157738705,-0.08810351618999998,0.000895526615000003,0.036454151624999986,-0.003382445030000014
03:45:40,0.10796468000000001,-0.06522973,0.1300256,-0.020932599999999996,0.03662170000000001,0.013815540000000001,-50.41806356,-28.01643615,5.80773131,112.75465124,0.16808705950000002,-0.06739391350999999,-0.08839300817999998,0.0003349785300000019,0.035760470749999995,-0.002383526659999996
03:45:40,0.10864342000000002,-0.06550424499999999,0.12932339999999998,-0.021630399999999994,0.03593455000000001,0.013570510000000001,-50.41822614,-28.017464475,5.8138255149999996,112.75357506,0.16788487175,-0.06763008831499999,-0.08868250016999998,-0.0002255695549999992,0.035066789874999976,-0.0013846082900000056
03:45:40,0.10932216000000002,-0.06577875999999999,0.1286212,-0.022328199999999992,0.035247399999999984,0.01332548,-50.41838872,-28.0184928,5.81991972,112.75249888,0.16768268400000003,-0.06786626311999999,-0.08897199215999999,-0.0007861176400000003,0.034373108999999985,-0.00038568992000001523
03:45:40,0.11000090000000001,-0.066053275,0.127919,-0.02302599999999999,0.03456024999999999,0.01308045,-50.418551300000004,-28.019521125,5.826013925,112.7514227,0.16748049625,-0.068102437925,-0.08926148414999999,-0.0013466657250000014,0.033679428124999994,0.0006132284500000029
03:45:40,0.11067964000000002,-0.06632779,0.1272168,-0.02372379999999999,0.03387309999999999,0.01283542,-50.418713880000006,-28.02054945,5.83210813,112.75034652000001,0.1672783085,-0.06833861273,-0.08955097613999999,-0.0019072138099999886,0.032985747249999975,0.0016121468199999933
03:45:40,0.11135838,-0.066602305,0.12651459999999998,-0.024421599999999988,0.03318594999999999,0.01259039,-50.41887646,-28.021577775,5.838202335,112.74927034,0.16707612075,-0.06857478753499999,-0.08984046812999999,-0.0024677618949999897,0.032292066374999984,0.0026110651899999837
03:45:40,0.11203712000000002,-0.06687681999999999,0.1258124,-0.025119399999999986,0.032498799999999994,0.01234536,-50.41903904,-28.0226061,5.84429654,112.74819416,0.166873933,-0.06881096233999999,-0.09012996011999999,-0.0030283099799999907,0.03159838549999999,0.003609983560000002
03:45:40,0.11271586,-0.06715133499999999,0.1251102,-0.025817199999999985,0.03181165,0.01210033,-50.41920162,-28.023634425,5.850390745,112.74711798,0.16667174525,-0.06904713714499999,-0.09041945210999999,-0.003588858064999992,0.030904704624999974,0.004608901929999992
03:45:40,0.11339460000000001,-0.06742585,0.12440799999999999,-0.026514999999999983,0.0311245,0.0118553,-50.419364200000004,-28.02466275,5.8564849500000005,112.7460418,0.1664695575,-0.06928331195,-0.0907089441,-0.004149406149999993,0.030211023749999982,0.005607820299999983
03:45:40,0.11407334000000002,-0.067700365,0.12370579999999998,-0.02721279999999998,0.030437350000000002,0.011610269999999999,-50.419526780000005,-28.025691075,5.862579155000001,112.74496562,0.16626736975,-0.06951948675499998,-0.09099843609,-0.004709954234999994,0.02951734287499999,0.006606738670000001
03:45:40,0.11475208,-0.06797488,0.12300359999999999,-0.02791059999999998,0.029750200000000004,0.011365240000000006,-50.41968936000001,-28.0267194,5.86867336,112.74388944,0.166065182,-0.06975566155999999,-0.09128792808,-0.005270502319999995,0.028823661999999972,0.007605657039999991
03:45:40,0.11543082000000002,-0.06824939499999999,0.1223014,-0.028608400000000006,0.029063050000000007,0.011120210000000005,-50.41985194,-28.027747725,5.874767565,112.74281326,0.16586299425,-0.06999183636499999,-0.09157742007,-0.005831050404999996,0.02812998112499998,0.008604575409999982
03:45:40,0.11610956,-0.06852391,0.12159919999999999,-0.029306200000000004,0.02837590000000001,0.010875180000000005,-50.42001452,-28.02877605,5.88086177,112.74173708000001,0.1656608065,-0.07022801117,-0.09186691206,-0.006391598489999997,0.02743630024999999,0.00960349378
03:45:40,0.11678830000000001,-0.068798425,0.12089699999999998,-0.030004000000000003,0.027688749999999984,0.010630150000000005,-50.420177100000004,-28.029804375,5.886955975,112.74066090000001,0.16545861875,-0.070464185975,-0.09215640404999999,-0.006952146574999998,0.026742619375,0.01060241214999999
03:45:40,0.11746704000000002,-0.06907294,0.12019479999999999,-0.0307018,0.027001599999999987,0.010385120000000005,-50.420339680000005,-28.0308327,5.89305018,112.73958472,0.165256431,-0.07070036077999999,-0.09244589603999999,-0.007512694659999999,0.02604893849999998,0.01160133051999998
03:45:40,0.11814578,-0.06934745499999999,0.1194926,-0.0313996,0.02631444999999999,0.010140090000000004,-50.420502260000006,-28.031861025,5.899144385,112.73850854,0.16505424325,-0.07093653558499999,-0.09273538802999999,-0.008073242745,0.02535525762499999,0.012600248889999999
03:45:40,0.11882452000000002,-0.06962196999999999,0.11879039999999999,-0.0320974,0.025627299999999992,0.009895060000000004,-50.42066484,-28.03288935,5.90523859,112.73743236,0.1648520555,-0.07117271038999999,-0.09302488001999999,-0.008633790830000002,0.024661576749999997,0.013599167259999989
03:45:40,0.11950326,-0.069896485,0.11808819999999998,-0.0327952,0.024940149999999994,0.009650030000000004,-50.42082742,-28.033917675,5.911332795,112.73635618,0.16464986775,-0.071408885195,-0.09331437200999998,-0.009194338914999989,0.023967895874999978,0.01459808562999998
03:45:41,0.120182,-0.070171,0.117386,-0.033493,0.024253,0.009405,-50.42099,-28.034946,5.917427,112.73528,0.16444768,-0.07164506,-0.093603864,-0.009754887,0.023274215,0.015597004
03:45:41,0.11787133,-0.06954178,0.118844455,-0.033700745000000004,0.02381621,0.009426305,-50.420873500000006,-28.047428035000003,5.936998875,112.778898,0.16443107475000002,-0.071350623235,-0.09235974458,-0.009809699125,0.022812181325,0.01596093498
03:45:41,0.11556066,-0.06891256,0.12030291,-0.03390849,0.02337942,0.00944761,-50.420757,-28.05991007,5.95657075,112.82251600000001,0.16441446950000002,-0.07105618646999999,-0.09111562515999999,-0.009864511250000001,0.022350147650000003,0.01632486596
03:45:41,0.11324999,-0.06828334,0.12176136500000001,-0.034116235,0.02294263,0.009468915,-50.420640500000005,-28.072392105000002,5.976142625,112.866134,0.16439786425000003,-0.070761749705,-0.08987150574,-0.009919323375,0.021888113975,0.01668879694
03:45:41,0.11093932,-0.06765412,0.12321982000000001,-0.034323980000000004,0.02250584,0.00949022,-50.420524,-28.08487414,5.9957145,112.909752,0.164381259,-0.07046731294,-0.08862738632,-0.0099741355,0.0214260803,0.01705272792
03:45:41,0.10862865,-0.0670249,0.124678275,-0.034531725,0.02206905,0.009511525,-50.4204075,-28.097356175,6.015286375,112.95337,0.16436465375,-0.070172876175,-0.08738326689999999,-0.010028947625,0.020964046625,0.0174166589
03:45:41,0.10631797999999999,-0.06639568,0.12613673,-0.03473947,0.02163226,0.00953283,-50.420291000000006,-28.109838210000003,6.03485825,112.996988,0.1643480485,-0.06987843940999999,-0.08613914748,-0.01008375975,0.020502012950000002,0.01778058988
03:45:41,0.10400730999999999,-0.06576646,0.127595185,-0.034947215000000004,0.02119547,0.009554135,-50.4201745,-28.122320245,6.054430125,113.040606,0.16433144325000001,-0.06958400264499999,-0.08489502805999999,-0.010138571875,0.020039979275,0.01814452086
03:45:41,0.10169664,-0.06513724,0.12905364,-0.03515496,0.02075868,0.00957544,-50.420058000000004,-28.134802280000002,6.074002,113.084224,0.16431483800000002,-0.06928956588,-0.08365090864,-0.010193384,0.0195779456,0.01850845184
03:45:41,0.09938596999999999,-0.06450802,0.130512095,-0.035362705,0.020321890000000002,0.009596745,-50.4199415,-28.147284315,6.093573875,113.127842,0.16429823275000002,-0.068995129115,-0.08240678922,-0.010248196125000001,0.019115911925,0.01887238282
03:45:41,0.0970753,-0.0638788,0.13197055000000002,-0.03557045,0.019885100000000003,0.00961805,-50.419825,-28.15976635,6.11314575,113.17146,0.1642816275,-0.06870069235,-0.08116266979999999,-0.01030300825,0.018653878250000002,0.019236313799999998
03:45:41,0.09476463,-0.06324958,0.13342900500000002,-0.035778195,0.01944831,0.009639355,-50.419708500000006,-28.172248385,6.132717625,113.215078,0.16426502225,-0.06840625558499999,-0.07991855038,-0.010357820375,0.018191844575,0.019600244779999998
03:45:41,0.09245396,-0.06262036,0.13488746000000001,-0.03598594,0.01901152,0.00966066,-50.419592,-28.18473042,6.1522895,113.258696,0.164248417,-0.06811181882,-0.07867443096,-0.010412632500000001,0.0177298109,0.01996417576
03:45:41,0.09014329,-0.06199114,0.136345915,-0.036193685,0.01857473,0.009681965,-50.419475500000004,-28.197212455000003,6.171861375,113.302314,0.16423181175,-0.067817382055,-0.07743031153999999,-0.010467444625,0.017267777225000003,0.020328106739999997
03:45:41,0.08783262,-0.06136191999999999,0.13780437,-0.03640143,0.01813794,0.00970327,-50.419359,-28.20969449,6.19143325,113.345932,0.16421520650000002,-0.06752294529,-0.07618619212,-0.01052225675,0.016805743550000002,0.02069203772
03:45:41,0.08552195,-0.060732699999999994,0.139262825,-0.036609175,0.017701150000000002,0.009724575000000001,-50.4192425,-28.222176525000002,6.211005125,113.38955,0.16419860125000002,-0.067228508525,-0.0749420727,-0.010577068875,0.016343709875,0.0210559687
03:45:41,0.08321128,-0.060103479999999994,0.14072128,-0.03681692,0.01726436,0.00974588,-50.419126000000006,-28.23465856,6.230577,113.43316800000001,0.16418199600000002,-0.06693407175999999,-0.07369795327999999,-0.010631881000000001,0.0158816762,0.02141989968
03:45:41,0.08090061,-0.059474259999999994,0.142179735,-0.037024665,0.01682757,0.009767185,-50.4190095,-28.247140595,6.250148875,113.476786,0.16416539075,-0.066639634995,-0.07245383386,-0.010686693125,0.015419642525,0.02178383066
03:45:41,0.07858994,-0.058845039999999994,0.14363819,-0.03723241,0.01639078,0.00978849,-50.418893000000004,-28.259622630000003,6.26972075,113.520404,0.1641487855,-0.06634519823,-0.07120971443999999,-0.01074150525,0.014957608850000002,0.02214776164
03:45:41,0.07627927,-0.058215819999999995,0.145096645,-0.037440155,0.01595399,0.009809795,-50.4187765,-28.272104665,6.289292625,113.56402200000001,0.16413218025,-0.066050761465,-0.06996559502,-0.010796317375,0.014495575175,0.02251169262
03:45:41,0.0739686,-0.057586599999999995,0.1465551,-0.0376479,0.015517200000000002,0.0098311,-50.41866,-28.284586700000002,6.3088645,113.60764,0.164115575,-0.0657563247,-0.0687214756,-0.0108511295,0.014033541500000002,0.0228756236
03:45:41,0.07165793000000001,-0.056957379999999995,0.14801355500000002,-0.037855645,0.01508041,0.009852405,-50.418543500000006,-28.297068735,6.328436375,113.651258,0.16409896975000002,-0.06546188793499999,-0.06747735618,-0.010905941625,0.013571507825,0.02323955458
03:45:41,0.06934726,-0.056328159999999995,0.14947201000000002,-0.03806339,0.014643620000000001,0.00987371,-50.418427,-28.30955077,6.34800825,113.69487600000001,0.16408236450000002,-0.06516745117,-0.06623323676,-0.01096075375,0.013109474150000001,0.023603485559999998
03:45:41,0.06703659000000001,-0.055698939999999995,0.150930465,-0.038271135,0.014206830000000002,0.009895015,-50.418310500000004,-28.322032805000003,6.367580125,113.738494,0.16406575925,-0.064873014405,-0.06498911734,-0.011015565875000001,0.012647440475,0.02396741654
03:45:41,0.06472591999999999,-0.055069719999999996,0.15238892,-0.03847888,0.01377004,0.00991632,-50.418194,-28.33451484,6.387152,113.782112,0.164049154,-0.06457857764,-0.06374499791999999,-0.011070378,0.012185406800000001,0.024331347519999998
03:45:41,0.06241525,-0.054440499999999996,0.153847375,-0.038686625,0.013333250000000001,0.009937625,-50.4180775,-28.346996875000002,6.406723875,113.82573000000001,0.16403254875,-0.06428414087499999,-0.0625008785,-0.011125190125,0.011723373125,0.0246952785
03:45:41,0.06010458,-0.053811279999999996,0.15530583,-0.038894370000000004,0.012896460000000002,0.00995893,-50.417961000000005,-28.35947891,6.4262957499999995,113.869348,0.1640159435,-0.06398970410999999,-0.061256759079999994,-0.011180002250000001,0.011261339450000001,0.025059209479999997
03:45:41,0.05779391,-0.05318205999999999,0.156764285,-0.039102115,0.012459670000000003,0.009980235,-50.4178445,-28.371960945,6.445867625,113.912966,0.16399933825000002,-0.063695267345,-0.06001263966,-0.011234814375,0.010799305775,0.02542314046
03:45:41,0.05548324,-0.05255283999999999,0.15822274,-0.03930986,0.012022880000000001,0.01000154,-50.417728000000004,-28.384442980000003,6.4654395000000005,113.956584,0.16398273300000002,-0.06340083058,-0.05876852024,-0.0112896265,0.010337272100000001,0.025787071439999996
03:45:41,0.05317257,-0.05192361999999999,0.159681195,-0.039517605000000004,0.011586090000000002,0.010022845,-50.4176115,-28.396925015,6.485011375,114.000202,0.16396612775000002,-0.063106393815,-0.057524400819999995,-0.011344438625,0.009875238425,0.02615100242
03:45:41,0.0508619,-0.05129439999999999,0.16113965000000002,-0.03972535,0.011149300000000003,0.01004415,-50.417495,-28.409407050000002,6.50458325,114.04382,0.1639495225,-0.06281195704999999,-0.05628028139999999,-0.011399250750000001,0.009413204750000001,0.0265149334
03:45:41,0.04855123,-0.05066517999999999,0.16259810500000002,-0.039933095,0.010712510000000001,0.010065455000000001,-50.417378500000005,-28.421889085,6.524155125,114.087438,0.16393291725,-0.06251752028499999,-0.05503616198,-0.011454062875,0.008951171075,0.02687886438
03:45:41,0.04624056,-0.05003595999999999,0.16405656000000002,-0.040140840000000004,0.010275720000000002,0.01008676,-50.417262,-28.43437112,6.543727,114.131056,0.163916312,-0.06222308352,-0.053792042559999996,-0.011508875,0.008489137400000001,0.02724279536
03:45:41,0.04392989,-0.04940673999999999,0.16551501500000002,-0.040348585,0.009838930000000003,0.010108065,-50.417145500000004,-28.446853155,6.563298875,114.174674,0.16389970675,-0.061928646755,-0.052547923139999994,-0.011563687125,0.008027103725000002,0.02760672634
03:45:41,0.04161922,-0.04877751999999999,0.16697347,-0.04055633,0.009402140000000002,0.01012937,-50.417029,-28.45933519,6.58287075,114.218292,0.16388310150000002,-0.061634209989999994,-0.05130380372,-0.01161849925,0.007565070050000001,0.027970657319999998
03:45:41,0.03930855,-0.04814829999999999,0.168431925,-0.040764075000000004,0.008965350000000002,0.010150675,-50.4169125,-28.471817225000002,6.602442625,114.26191,0.16386649625000002,-0.061339773225,-0.0500596843,-0.011673311375,0.007103036375,0.028334588299999998
03:45:41,0.03699788,-0.04751907999999999,0.16989038,-0.04097182,0.008528560000000001,0.01017198,-50.416796000000005,-28.48429926,6.6220145,114.305528,0.163849891,-0.061045336459999995,-0.048815564879999995,-0.0117281235,0.006641002700000002,0.02869851928
03:45:41,0.034687209999999996,-0.04688985999999999,0.171348835,-0.041179565,0.008091770000000002,0.010193285,-50.4166795,-28.496781295,6.641586375,114.349146,0.16383328575,-0.060750899695,-0.04757144545999999,-0.011782935625000001,0.0061789690250000015,0.029062450259999997
03:45:41,0.032376539999999995,-0.04626063999999999,0.17280729,-0.041387310000000004,0.007654980000000002,0.01021459,-50.416563000000004,-28.50926333,6.66115825,114.392764,0.1638166805,-0.060456462929999996,-0.04632732604,-0.01183774775,0.005716935350000001,0.02942638124
03:45:41,0.030065869999999995,-0.04563141999999999,0.17426574500000003,-0.041595055,0.007218190000000003,0.010235895,-50.4164465,-28.521745365,6.680730125,114.436382,0.16380007525,-0.06016202616499999,-0.045083206619999996,-0.011892559875,0.005254901675,0.029790312219999997
03:45:41,0.027755199999999994,-0.04500219999999999,0.1757242,-0.0418028,0.006781400000000003,0.0102572,-50.41633,-28.534227400000002,6.700302,114.48,0.16378347000000001,-0.0598675894,-0.043839087199999995,-0.011947372000000001,0.004792868000000002,0.0301542432
03:45:41,0.025444530000000007,-0.04437297999999999,0.17718265500000002,-0.042010545,0.006344610000000004,0.010278505,-50.416213500000005,-28.546709435,6.719873875,114.523618,0.16376686475000002,-0.059573152634999994,-0.04259496778,-0.012002184125,0.004330834325000001,0.030518174179999996
03:45:41,0.023133860000000006,-0.04374375999999999,0.17864111000000002,-0.042218290000000006,0.005907820000000001,0.01029981,-50.416097,-28.559191470000002,6.73944575,114.56723600000001,0.1637502595,-0.05927871587,-0.04135084836,-0.01205699625,0.0038688006500000004,0.03088210516
03:45:41,0.020823190000000005,-0.04311453999999999,0.18009956500000002,-0.042426035,0.005471030000000002,0.010321115,-50.4159805,-28.571673505,6.759017625,114.610854,0.16373365425,-0.058984279104999995,-0.040106728939999996,-0.012111808375000001,0.0034067669749999994,0.031246036139999996
03:45:41,0.018512520000000005,-0.04248531999999999,0.18155802000000001,-0.04263378,0.005034240000000002,0.01034242,-50.415864,-28.58415554,6.7785895,114.654472,0.163717049,-0.05868984233999999,-0.038862609519999994,-0.012166620500000001,0.002944733300000002,0.03160996712
03:45:41,0.016201850000000004,-0.04185609999999999,0.183016475,-0.042841525000000005,0.004597450000000003,0.010363725,-50.4157475,-28.596637575000003,6.798161375,114.69809000000001,0.16370044375,-0.058395405574999996,-0.0376184901,-0.012221432625,0.002482699625000001,0.0319738981
03:45:41,0.013891180000000003,-0.041226879999999994,0.18447493,-0.04304927,0.0041606600000000035,0.01038503,-50.415631000000005,-28.60911961,6.81773325,114.741708,0.1636838385,-0.05810096881,-0.03637437068,-0.01227624475,0.00202066595,0.03233782908
03:45:41,0.011580510000000002,-0.040597659999999994,0.185933385,-0.043257015,0.003723870000000004,0.010406335,-50.4155145,-28.621601645000002,6.837305125,114.785326,0.16366723325000002,-0.057806532045,-0.035130251259999995,-0.012331056875,0.0015586322749999992,0.03270176006
03:45:41,0.009269840000000001,-0.039968439999999994,0.18739184000000003,-0.043464760000000005,0.0032870800000000013,0.01042764,-50.415398,-28.63408368,6.856877,114.828944,0.16365062800000002,-0.057512095279999995,-0.03388613184,-0.012385869,0.0010965986000000018,0.03306569104
03:45:41,0.006959170000000001,-0.039339219999999994,0.188850295,-0.043672505,0.002850290000000002,0.010448945,-50.4152815,-28.646565715,6.8764488749999995,114.872562,0.16363402275,-0.057217658515,-0.03264201242,-0.012440681125,0.0006345649250000009,0.03342962202
03:45:41,0.0046485,-0.038709999999999994,0.19030875000000003,-0.04388025,0.0024135000000000024,0.01047025,-50.415165,-28.65904775,6.89602075,114.91618,0.1636174175,-0.056923221749999996,-0.031397892999999996,-0.01249549325,0.00017253124999999994,0.033793553
03:45:41,0.002337829999999999,-0.038080779999999995,0.191767205,-0.044087995000000005,0.001976710000000003,0.010491555,-50.415048500000005,-28.671529785,6.915592625,114.959798,0.16360081225,-0.056628784985,-0.03015377358,-0.012550305375000001,-0.0002895024249999975,0.03415748398
03:45:41,2.7159999999998297e-05,-0.037451559999999995,0.19322566000000002,-0.04429574,0.0015399200000000036,0.01051286,-50.414932,-28.684011820000002,6.9351645,115.003416,0.163584207,-0.05633434822,-0.028909654159999992,-0.0126051175,-0.0007515360999999984,0.034521414959999996
03:45:41,-0.0022835100000000025,-0.036822339999999995,0.19468411500000002,-0.044503485,0.0011031300000000042,0.010534165,-50.4148155,-28.696493855,6.9547363749999995,115.047034,0.16356760175,-0.056039911454999994,-0.027665534739999997,-0.012659929625,-0.0012135697749999994,0.03488534594
03:45:41,-0.004594180000000003,-0.03619311999999999,0.19614257000000002,-0.044711230000000005,0.0006663400000000048,0.01055547,-50.414699,-28.70897589,6.97430825,115.090652,0.16355099650000002,-0.05574547469,-0.026421415320000002,-0.012714741750000001,-0.0016756034500000003,0.035249276919999996
03:45:41,-0.006904850000000004,-0.03556389999999999,0.197601025,-0.044918975,0.00022955000000000197,0.010576775,-50.4145825,-28.721457925,6.9938801250000004,115.13427,0.16353439125,-0.055451037924999995,-0.025177295899999994,-0.012769553875,-0.0021376371249999977,0.0356132079
03:45:41,-0.009215519999999991,-0.03493467999999999,0.19905948,-0.04512672,-0.00020723999999999743,0.01059808,-50.414466000000004,-28.73393996,7.013452,115.177888,0.163517786,-0.05515660116,-0.02393317648,-0.012824366,-0.0025996707999999986,0.035977138879999995
03:45:41,-0.011526190000000006,-0.03430545999999999,0.20051793500000004,-0.045334465000000004,-0.0006440299999999968,0.010619385,-50.4143495,-28.746421995000002,7.033023875,115.221506,0.16350118075,-0.054862164394999996,-0.022689057060000004,-0.012879178125000001,-0.0030617044749999996,0.03634106986
03:45:41,-0.013836859999999992,-0.03367623999999999,0.20197639,-0.04554221,-0.0010808199999999962,0.01064069,-50.414233,-28.75890403,7.05259575,115.265124,0.1634845755,-0.05456772762999999,-0.021444937639999995,-0.012933990250000001,-0.0035237381500000005,0.03670500084
03:45:41,-0.016147530000000007,-0.03304701999999999,0.20343484500000003,-0.045749955,-0.0015176099999999956,0.010661995,-50.4141165,-28.771386065,7.072167625,115.308742,0.16346797025,-0.054273290865,-0.02020081822,-0.012988802375,-0.003985771824999998,0.03706893182
03:45:41,-0.018458199999999994,-0.03241779999999999,0.2048933,-0.045957700000000004,-0.001954399999999995,0.0106833,-50.414,-28.7838681,7.0917395,115.35236,0.16345136500000002,-0.0539788541,-0.01895669879999999,-0.0130436145,-0.004447805499999999,0.0374328628
03:45:41,-0.02076887000000001,-0.03178857999999999,0.20635175500000003,-0.046165445,-0.002391189999999998,0.010704605,-50.413883500000004,-28.796350135,7.111311375,115.395978,0.16343475975000002,-0.053684417335,-0.017712579379999996,-0.013098426625000001,-0.004909839175,0.03779679378
