Timestamp,linacce_x,linacce_y,linacce_z,gyro_x,gyro_y,gyro_z,X-magnetometer,Y-magnetometer,Z-magnetometer,Yaw, worldXAccel,worldYAccel,worldZAccel,worldXgyro,worldYgyro,worldZgyro
10:04:40,-1.778915,-1.041927,-1.872353,0.514761,0.35443,-0.424328,30.689865,-25.408035,-29.391258,-57.7672,-2.2427115,-0.89718324,0.1324544,-0.058805794,0.54929906,-0.34380877
10:04:40,-1.77064455,-1.03593637,-1.87226235,0.5126303050000001,0.35439804,-0.42226654999999996,30.70242043,-25.402231550000003,-29.36404792,-57.81766985,-2.2402077805,-0.8915346684500001,0.1312032955,-0.058455596095,0.5483020669499999,-0.341829279875
10:04:40,-1.7623741,-1.02994574,-1.8721717,0.51049961,0.35436608,-0.4202051,30.714975860000003,-25.3964281,-29.33683784,-57.8681397,-2.237704061,-0.8858860969000001,0.129952191,-0.058105398190000004,0.5473050738999999,-0.33984978974999996
10:04:40,-1.75410365,-1.02395511,-1.87208105,0.508368915,0.35433412000000003,-0.41814365,30.72753129,-25.390624650000003,-29.30962776,-57.91860955,-2.2352003415,-0.8802375253500001,0.1287010865,-0.057755200285,0.5463080808499999,-0.337870299625
10:04:40,-1.7458332,-1.01796448,-1.8719903999999998,0.5062382200000001,0.35430216000000003,-0.41608219999999996,30.74008672,-25.3848212,-29.282417680000002,-57.969079400000005,-2.232696622,-0.8745889538,0.127449982,-0.05740500238,0.5453110877999999,-0.3358908095
10:04:40,-1.73756275,-1.01197385,-1.8718997499999999,0.504107525,0.35427020000000004,-0.41402075,30.75264215,-25.379017750000003,-29.255207600000002,-58.019549250000004,-2.2301929025,-0.86894038225,0.1261988775,-0.057054804475,0.5443140947499999,-0.33391131937499996
10:04:40,-1.7292923,-1.00598322,-1.8718091,0.50197683,0.35423824000000004,-0.4119593,30.765197580000002,-25.3732143,-29.22799752,-58.0700191,-2.227689183,-0.8632918107,0.124947773,-0.05670460657,0.5433171016999999,-0.33193182925
10:04:40,-1.72102185,-0.9999925900000001,-1.87171845,0.499846135,0.35420628000000004,-0.40989785,30.77775301,-25.367410850000002,-29.20078744,-58.12048895,-2.2251854635,-0.8576432391500001,0.1236966685,-0.056354408665,0.5423201086499999,-0.329952339125
10:04:40,-1.7127514,-0.9940019600000001,-1.8716278,0.49771544,0.35417432000000004,-0.4078364,30.79030844,-25.3616074,-29.17357736,-58.1709588,-2.222681744,-0.8519946676000001,0.122445564,-0.05600421076,0.5413231155999999,-0.327972849
10:04:40,-1.70448095,-0.9880113300000001,-1.87153715,0.49558474500000005,0.35414236000000004,-0.40577494999999997,30.80286387,-25.355803950000002,-29.14636728,-58.22142865,-2.2201780245,-0.84634609605,0.1211944595,-0.055654012855000004,0.5403261225499999,-0.32599335887499997
10:04:40,-1.6962105,-0.9820207000000001,-1.8714465,0.49345405000000003,0.35411040000000005,-0.4037135,30.815419300000002,-25.3500005,-29.1191572,-58.271898500000006,-2.217674305,-0.8406975245,0.119943355,-0.05530381495,0.5393291295,-0.32401386875
10:04:40,-1.68794005,-0.9760300700000001,-1.87135585,0.491323355,0.35407844000000005,-0.40165205,30.82797473,-25.344197050000002,-29.09194712,-58.322368350000005,-2.2151705855,-0.83504895295,0.1186922505,-0.054953617045,0.53833213645,-0.322034378625
10:04:40,-1.6796696,-0.9700394400000001,-1.8712651999999999,0.48919266,0.35404648,-0.39959059999999996,30.84053016,-25.3383936,-29.06473704,-58.372838200000004,-2.212666866,-0.8294003814,0.117441146,-0.05460341914,0.5373351434,-0.32005488849999997
10:04:40,-1.67139915,-0.9640488100000001,-1.8711745499999999,0.48706196500000004,0.35401452,-0.39752915,30.853085590000003,-25.33259015,-29.03752696,-58.42330805,-2.2101631465,-0.8237518098500001,0.11619004150000001,-0.054253221235,0.53633815035,-0.318075398375
10:04:40,-1.6631287000000001,-0.9580581800000001,-1.8710839,0.48493127,0.35398256,-0.3954677,30.86564102,-25.326786700000003,-29.01031688,-58.4737779,-2.207659427,-0.8181032383000001,0.114938937,-0.05390302333,0.5353411573,-0.31609590825
10:04:40,-1.65485825,-0.95206755,-1.87099325,0.482800575,0.3539506,-0.39340624999999996,30.87819645,-25.32098325,-28.9831068,-58.52424775,-2.2051557075,-0.81245466675,0.1136878325,-0.053552825425,0.53434416425,-0.31411641812499996
10:04:40,-1.6465878,-0.9460769200000001,-1.8709026,0.48066988,0.35391864,-0.3913448,30.89075188,-25.315179800000003,-28.955896720000002,-58.5747176,-2.202651988,-0.8068060952,0.112436728,-0.053202627520000004,0.5333471712,-0.312136928
10:04:40,-1.63831735,-0.94008629,-1.87081195,0.47853918500000003,0.35388668,-0.38928335,30.903307310000002,-25.30937635,-28.928686640000002,-58.625187450000006,-2.2001482685,-0.80115752365,0.1111856235,-0.052852429615,0.53235017815,-0.310157437875
10:04:40,-1.6300469,-0.9340956600000001,-1.8707213,0.47640849,0.35385472,-0.3872219,30.91586274,-25.303572900000002,-28.90147656,-58.675657300000005,-2.197644549,-0.7955089521,0.10993451900000001,-0.05250223171,0.5313531851,-0.30817794774999996
10:04:40,-1.62177645,-0.92810503,-1.8706306499999998,0.474277795,0.35382276,-0.38516045,30.92841817,-25.29776945,-28.87426648,-58.72612715,-2.1951408295,-0.7898603805500001,0.1086834145,-0.052152033805,0.53035619205,-0.306198457625
10:04:40,-1.613506,-0.9221144,-1.8705399999999999,0.47214710000000004,0.3537908,-0.38309899999999997,30.9409736,-25.291966000000002,-28.8470564,-58.776597,-2.19263711,-0.7842118090000001,0.10743231,-0.0518018359,0.529359199,-0.3042189675
10:04:40,-1.60523555,-0.91612377,-1.87044935,0.470016405,0.35375884,-0.38103755,30.953529030000002,-25.28616255,-28.81984632,-58.82706685,-2.1901333904999998,-0.77856323745,0.1061812055,-0.051451637995,0.5283622059499999,-0.302239477375
10:04:40,-1.5969651,-0.91013314,-1.8703587,0.46788571,0.35372688,-0.3789761,30.96608446,-25.280359100000002,-28.79263624,-58.8775367,-2.187629671,-0.7729146659,0.104930101,-0.05110144009,0.5273652128999999,-0.30025998724999997
10:04:40,-1.58869465,-0.90414251,-1.87026805,0.46575501500000005,0.35369492,-0.37691465,30.97863989,-25.27455565,-28.76542616,-58.92800655,-2.1851259515,-0.76726609435,0.10367899650000001,-0.050751242185,0.5263682198499999,-0.298280497125
10:04:40,-1.5804242,-0.89815188,-1.8701774,0.46362432000000003,0.35366296,-0.3748532,30.991195320000003,-25.2687522,-28.73821608,-58.978476400000005,-2.182622232,-0.7616175228000001,0.102427892,-0.05040104428,0.5253712267999999,-0.296301007
10:04:40,-1.57215375,-0.89216125,-1.87008675,0.461493625,0.35363100000000003,-0.37279175,31.003750750000002,-25.26294875,-28.711006,-59.028946250000004,-2.1801185125,-0.7559689512500001,0.1011767875,-0.050050846375,0.5243742337499999,-0.29432151687499997
10:04:40,-1.5638833,-0.88617062,-1.8699960999999998,0.45936293,0.35359904000000003,-0.37073029999999996,31.01630618,-25.2571453,-28.68379592,-59.0794161,-2.177614793,-0.7503203797,0.09992568300000002,-0.04970064847,0.5233772406999999,-0.29234202675
10:04:40,-1.55561285,-0.88017999,-1.8699054499999999,0.45723223500000004,0.35356708000000003,-0.36866885,31.02886161,-25.251341850000003,-28.65658584,-59.12988595,-2.1751110735,-0.74467180815,0.0986745785,-0.049350450565,0.5223802476499999,-0.290362536625
10:04:40,-1.5473424,-0.87418936,-1.8698147999999999,0.45510154,0.35353512000000004,-0.36660739999999997,31.041417040000002,-25.2455384,-28.629375760000002,-59.1803558,-2.172607354,-0.7390232366,0.09742347400000001,-0.04900025266,0.5213832545999999,-0.2883830465
10:04:40,-1.53907195,-0.86819873,-1.86972415,0.452970845,0.35350316000000004,-0.36454595,31.05397247,-25.239734950000003,-28.602165680000002,-59.23082565,-2.1701036344999998,-0.73337466505,0.09617236950000001,-0.048650054755000005,0.52038626155,-0.286403556375
10:04:40,-1.5308015,-0.8622081,-1.8696335,0.45084015,0.35347120000000004,-0.3624845,31.0665279,-25.2339315,-28.5749556,-59.2812955,-2.167599915,-0.7277260935000001,0.094921265,-0.04829985685,0.5193892685,-0.28442406625
10:04:40,-1.52253105,-0.85621747,-1.86954285,0.44870945500000003,0.35343924000000004,-0.36042304999999997,31.079083330000003,-25.228128050000002,-28.54774552,-59.331765350000005,-2.1650961955,-0.7220775219500001,0.09367016050000002,-0.047949658945,0.51839227545,-0.28244457612499996
10:04:40,-1.5142606,-0.85022684,-1.8694522,0.44657876,0.35340728000000005,-0.3583616,31.091638760000002,-25.2223246,-28.52053544,-59.382235200000004,-2.162592476,-0.7164289504000001,0.092419056,-0.04759946104,0.5173952824,-0.280465086
10:04:40,-1.5059901500000001,-0.84423621,-1.86936155,0.444448065,0.35337532000000005,-0.35630015,31.10419419,-25.216521150000002,-28.49332536,-59.43270505,-2.1600887565,-0.71078037885,0.09116795150000001,-0.047249263135,0.51639828935,-0.278485595875
10:04:40,-1.4977197,-0.83824558,-1.8692708999999998,0.44231737000000004,0.35334336,-0.3542387,31.11674962,-25.2107177,-28.46611528,-59.4831749,-2.157585037,-0.7051318073,0.08991684700000001,-0.04689906523,0.5154012963,-0.27650610575
10:04:40,-1.48944925,-0.83225495,-1.8691802499999999,0.440186675,0.3533114,-0.35217725,31.129305050000003,-25.20491425,-28.4389052,-59.53364475,-2.1550813175,-0.69948323575,0.0886657425,-0.046548867325,0.51440430325,-0.27452661562499997
10:04:40,-1.4811788,-0.82626432,-1.8690896,0.43805598,0.35327944,-0.3501158,31.141860480000002,-25.1991108,-28.41169512,-59.5841146,-2.152577598,-0.6938346642000001,0.08741463800000002,-0.046198669420000005,0.5134073102,-0.2725471255
10:04:40,-1.47290835,-0.82027369,-1.86899895,0.43592528500000005,0.35324748,-0.34805434999999996,31.15441591,-25.19330735,-28.38448504,-59.634584450000006,-2.1500738784999998,-0.6881860926500001,0.0861635335,-0.045848471515,0.51241031715,-0.270567635375
10:04:40,-1.4646379,-0.8142830600000001,-1.8689083,0.43379459000000004,0.35321552,-0.3459929,31.16697134,-25.187503900000003,-28.35727496,-59.685054300000004,-2.147570159,-0.6825375211,0.08491242900000001,-0.04549827361,0.5114133241,-0.26858814524999997
10:04:40,-1.4563674500000001,-0.8082924300000001,-1.86881765,0.431663895,0.35318356,-0.34393144999999997,31.179526770000003,-25.18170045,-28.330064880000002,-59.73552415,-2.1450664395,-0.67688894955,0.08366132450000001,-0.045148075705,0.51041633105,-0.266608655125
10:04:40,-1.448097,-0.8023018000000001,-1.868727,0.4295332,0.3531516,-0.34187,31.1920822,-25.175897000000003,-28.302854800000002,-59.785994,-2.14256272,-0.671240378,0.08241022,-0.0447978778,0.5094193379999999,-0.264629165
10:04:40,-1.43982655,-0.7963111700000001,-1.8686363499999998,0.427402505,0.35311964,-0.33980855,31.20463763,-25.17009355,-28.275644720000003,-59.83646385,-2.1400590005,-0.66559180645,0.08115911550000002,-0.044447679895,0.5084223449499999,-0.262649674875
10:04:40,-1.4315560999999999,-0.79032054,-1.8685456999999999,0.42527181000000003,0.35308768,-0.33774709999999997,31.217193060000003,-25.164290100000002,-28.24843464,-59.8869337,-2.137555281,-0.6599432349000001,0.079908011,-0.04409748199,0.5074253518999999,-0.26067018475
10:04:40,-1.42328565,-0.7843299100000001,-1.86845505,0.423141115,0.35305572,-0.33568565,31.229748490000002,-25.15848665,-28.22122456,-59.93740355,-2.1350515615,-0.65429466335,0.07865690650000001,-0.043747284085000004,0.5064283588499999,-0.258690694625
10:04:40,-1.4150152,-0.77833928,-1.8683644,0.42101042,0.35302376,-0.3336242,31.24230392,-25.152683200000002,-28.19401448,-59.987873400000005,-2.132547842,-0.6486460918000001,0.07740580200000001,-0.04339708618,0.5054313657999999,-0.25671120449999996
10:04:40,-1.40674475,-0.7723486500000001,-1.86827375,0.41887972500000004,0.3529918,-0.33156275,31.25485935,-25.14687975,-28.1668044,-60.038343250000004,-2.1300441225,-0.64299752025,0.07615469750000001,-0.043046888275,0.5044343727499999,-0.254731714375
10:04:40,-1.3984743,-0.76635802,-1.8681831,0.41674903,0.35295984,-0.3295013,31.267414780000003,-25.1410763,-28.13959432,-60.0888131,-2.127540403,-0.6373489487,0.07490359300000002,-0.04269669037,0.5034373796999999,-0.25275222425
10:04:40,-1.39020385,-0.7603673900000001,-1.86809245,0.414618335,0.35292788,-0.32743985,31.279970210000002,-25.13527285,-28.11238424,-60.13928295,-2.1250366835,-0.63170037715,0.0736524885,-0.042346492464999996,0.50244038665,-0.250772734125
10:04:40,-1.3819333999999999,-0.75437676,-1.8680018,0.41248764000000004,0.35289592000000003,-0.32537839999999996,31.29252564,-25.1294694,-28.08517416,-60.1897528,-2.122532964,-0.6260518056000001,0.07240138400000001,-0.04199629456,0.5014433936,-0.248793244
10:04:40,-1.37366295,-0.7483861300000001,-1.8679111499999999,0.41035694500000003,0.35286396000000003,-0.32331695,31.30508107,-25.12366595,-28.05796408,-60.24022265,-2.1200292445,-0.6204032340500001,0.07115027950000001,-0.041646096655,0.50044640055,-0.24681375387499999
10:04:40,-1.3653925,-0.7423955,-1.8678204999999999,0.40822625,0.35283200000000003,-0.32125549999999997,31.317636500000003,-25.1178625,-28.030754,-60.290692500000006,-2.117525525,-0.6147546625,0.06989917500000001,-0.041295898750000004,0.49944940749999994,-0.24483426375
10:04:40,-1.35712205,-0.7364048700000001,-1.86772985,0.406095555,0.35280004000000004,-0.31919405,31.33019193,-25.112059050000003,-28.003543920000002,-60.341162350000005,-2.1150218055,-0.60910609095,0.0686480705,-0.040945700845,0.49845241444999994,-0.242854773625
10:04:40,-1.3488516,-0.73041424,-1.8676392,0.40396486,0.35276808000000004,-0.3171326,31.34274736,-25.1062556,-27.976333840000002,-60.391632200000004,-2.112518086,-0.6034575194,0.06739696600000002,-0.04059550294,0.4974554214,-0.24087528349999998
10:04:40,-1.34058115,-0.7244236100000001,-1.86754855,0.401834165,0.35273612000000004,-0.31507114999999997,31.355302790000003,-25.100452150000002,-27.94912376,-60.44210205,-2.1100143664999997,-0.59780894785,0.06614586150000001,-0.040245305035,0.49645842835,-0.238895793375
10:04:40,-1.3323107,-0.71843298,-1.8674579,0.39970347,0.35270416000000004,-0.3130097,31.367858220000002,-25.0946487,-27.92191368,-60.4925719,-2.107510647,-0.5921603763000001,0.06489475700000001,-0.039895107129999996,0.4954614353,-0.23691630325
10:04:40,-1.32404025,-0.7124423500000001,-1.86736725,0.397572775,0.35267220000000005,-0.31094825,31.38041365,-25.088845250000002,-27.8947036,-60.54304175,-2.1050069275,-0.58651180475,0.06364365250000001,-0.039544909225,0.49446444224999997,-0.23493681312499998
10:04:40,-1.3157698,-0.70645172,-1.8672765999999998,0.39544208000000003,0.35264024,-0.3088868,31.39296908,-25.0830418,-27.86749352,-60.5935116,-2.102503208,-0.5808632332000001,0.062392548000000006,-0.03919471132,0.49346744919999996,-0.232957323
10:04:40,-1.30749935,-0.70046109,-1.8671859499999999,0.393311385,0.35260828,-0.30682535,31.405524510000003,-25.077238350000002,-27.84028344,-60.643981450000005,-2.0999994885,-0.57521466165,0.06114144350000002,-0.038844513415000004,0.49247045614999996,-0.230977832875
10:04:40,-1.2992289000000001,-0.69447046,-1.8670953,0.39118069,0.35257632,-0.3047639,31.418079940000002,-25.0714349,-27.81307336,-60.694451300000004,-2.097495769,-0.5695660901,0.059890339000000015,-0.03849431551,0.49147346309999995,-0.22899834274999997
10:04:40,-1.29095845,-0.68847983,-1.86700465,0.38904999500000004,0.35254436,-0.30270245,31.43063537,-25.06563145,-27.78586328,-60.74492115,-2.0949920495,-0.56391751855,0.05863923450000001,-0.038144117605,0.49047647004999995,-0.227018852625
10:04:40,-1.282688,-0.6824892,-1.866914,0.3869193,0.3525124,-0.300641,31.443190800000004,-25.059828,-27.7586532,-60.795391,-2.09248833,-0.558268947,0.05738813000000001,-0.0377939197,0.48947947699999994,-0.2250393625
10:04:40,-1.27441755,-0.67649857,-1.86682335,0.384788605,0.35248044,-0.29857955,31.455746230000003,-25.05402455,-27.73144312,-60.84586085,-2.0899846105,-0.5526203754500001,0.05613702550000001,-0.037443721794999996,0.48848248394999993,-0.223059872375
10:04:40,-1.2661471,-0.67050794,-1.8667327,0.38265791000000005,0.35244848,-0.2965181,31.46830166,-25.0482211,-27.704233040000002,-60.8963307,-2.087480891,-0.5469718039,0.05488592100000002,-0.03709352389,0.48748549089999993,-0.22108038224999998
10:04:40,-1.25787665,-0.66451731,-1.8666420499999998,0.380527215,0.35241652,-0.29445665,31.48085709,-25.04241765,-27.677022960000002,-60.946800550000006,-2.0849771715,-0.54132323235,0.053634816500000015,-0.036743325985,0.48648849785,-0.219100892125
10:04:40,-1.2496062000000001,-0.65852668,-1.8665513999999999,0.37839652,0.35238456,-0.29239519999999997,31.493412520000003,-25.036614200000002,-27.649812880000002,-60.997270400000005,-2.082473452,-0.5356746608,0.05238371200000001,-0.03639312808,0.4854915048,-0.217121402
10:04:40,-1.24133575,-0.65253605,-1.86646075,0.37626582500000005,0.3523526,-0.29033375,31.505967950000002,-25.03081075,-27.622602800000003,-61.047740250000004,-2.0799697325,-0.53002608925,0.05113260750000001,-0.036042930175,0.48449451174999997,-0.21514191187499998
10:04:40,-1.2330653,-0.64654542,-1.8663701,0.37413513,0.35232064,-0.2882723,31.51852338,-25.025007300000002,-27.59539272,-61.0982101,-2.077466013,-0.5243775177000001,0.04988150300000001,-0.03569273227,0.48349751869999996,-0.21316242175
10:04:40,-1.2247948499999999,-0.64055479,-1.86627945,0.372004435,0.35228868,-0.28621085,31.53107881,-25.01920385,-27.56818264,-61.14867995,-2.0749622935,-0.51872894615,0.04863039850000002,-0.035342534365,0.48250052564999996,-0.211182931625
10:04:40,-1.2165244,-0.63456416,-1.8661888,0.36987374,0.35225672,-0.2841494,31.543634240000003,-25.013400400000002,-27.54097256,-61.1991498,-2.072458574,-0.5130803746000001,0.047379294000000016,-0.034992336459999995,0.48150353259999995,-0.2092034415
10:04:40,-1.20825395,-0.62857353,-1.86609815,0.367743045,0.35222476,-0.28208795,31.556189670000002,-25.00759695,-27.51376248,-61.24961965,-2.0699548545,-0.50743180305,0.046128189500000014,-0.034642138555,0.48050653954999994,-0.207223951375
10:04:40,-1.1999835,-0.6225829,-1.8660075,0.36561235000000003,0.35219280000000003,-0.28002649999999996,31.5687451,-25.0017935,-27.4865524,-61.3000895,-2.0674511349999998,-0.5017832315,0.04487708500000001,-0.03429194065,0.4795095465,-0.20524446124999998
10:04:40,-1.1917130500000002,-0.61659227,-1.8659168499999998,0.363481655,0.35216084000000003,-0.27796505,31.581300530000004,-24.99599005,-27.45934232,-61.350559350000005,-2.0649474155,-0.49613465995000006,0.04362598050000001,-0.033941742745,0.47851255345,-0.203264971125
10:04:40,-1.1834426,-0.6106016400000001,-1.8658261999999999,0.36135096,0.35212888000000003,-0.2759036,31.593855960000003,-24.9901866,-27.43213224,-61.4010292,-2.062443696,-0.4904860884,0.04237487600000002,-0.03359154484,0.4775155604,-0.201285481
10:04:40,-1.1751721499999999,-0.60461101,-1.86573555,0.35922026500000004,0.35209692000000004,-0.27384215,31.60641139,-24.98438315,-27.40492216,-61.45149905,-2.0599399765,-0.48483751685000004,0.04112377150000002,-0.033241346935,0.47651856735,-0.199305990875
10:04:40,-1.1669017,-0.5986203800000001,-1.8656449,0.35708957,0.35206496000000004,-0.2717807,31.61896682,-24.9785797,-27.377712080000002,-61.5019689,-2.057436257,-0.47918894530000006,0.039872667000000014,-0.03289114903,0.47552157429999997,-0.19732650075
10:04:40,-1.15863125,-0.59262975,-1.86555425,0.354958875,0.35203300000000004,-0.26971924999999997,31.631522250000003,-24.972776250000003,-27.350502000000002,-61.55243875,-2.0549325375,-0.47354037375,0.03862156250000001,-0.032540951124999995,0.47452458124999997,-0.19534701062499998
10:04:40,-1.1503608,-0.5866391200000001,-1.8654636,0.35282818000000005,0.35200104000000004,-0.2676578,31.644077680000002,-24.9669728,-27.323291920000003,-61.6029086,-2.052428818,-0.46789180220000004,0.03737045800000001,-0.03219075322,0.47352758819999996,-0.1933675205
10:04:40,-1.1420903500000001,-0.58064849,-1.86537295,0.350697485,0.35196908000000005,-0.26559635000000004,31.65663311,-24.961169350000002,-27.29608184,-61.653378450000005,-2.0499250985,-0.46224323065000006,0.03611935350000002,-0.031840555315000005,0.47253059514999995,-0.191388030375
10:04:40,-1.1338199,-0.5746578600000001,-1.8652822999999998,0.34856679,0.35193712,-0.2635349,31.66918854,-24.9553659,-27.26887176,-61.703848300000004,-2.047421379,-0.4565946591,0.03486824900000002,-0.03149035741,0.47153360209999995,-0.18940854024999998
10:04:40,-1.1255494499999998,-0.56866723,-1.8651916499999999,0.346436095,0.35190516,-0.26147345,31.681743970000003,-24.949562450000002,-27.24166168,-61.75431815,-2.0449176595,-0.45094608755000004,0.033617144500000015,-0.031140159505,0.47053660904999994,-0.187429050125
10:04:40,-1.117279,-0.5626766000000001,-1.865101,0.3443054,0.3518732,-0.259412,31.694299400000002,-24.943759,-27.2144516,-61.804788,-2.04241394,-0.445297516,0.03236604000000001,-0.0307899616,0.46953961599999994,-0.18544955999999999
10:04:40,-1.10900855,-0.55668597,-1.86501035,0.342174705,0.35184124,-0.25735054999999996,31.70685483,-24.93795555,-27.18724152,-61.85525785,-2.0399102205,-0.43964894445,0.03111493550000001,-0.030439763695,0.46854262294999993,-0.183470069875
10:04:40,-1.1007381,-0.5506953400000001,-1.8649197,0.34004401,0.35180928,-0.2552891,31.719410260000004,-24.9321521,-27.16003144,-61.9057277,-2.037406501,-0.43400037290000004,0.02986383100000002,-0.030089565789999998,0.4675456299,-0.18149057975
10:04:40,-1.0924676500000001,-0.54470471,-1.86482905,0.337913315,0.35177732,-0.25322765,31.731965690000003,-24.92634865,-27.13282136,-61.95619755,-2.0349027815,-0.42835180135,0.02861272650000002,-0.029739367885,0.46654863685,-0.17951108962499998
10:04:40,-1.0841972,-0.53871408,-1.8647384,0.33578262000000003,0.35174536,-0.2511662,31.74452112,-24.9205452,-27.10561128,-62.006667400000005,-2.032399062,-0.4227032298,0.027361622000000016,-0.02938916998,0.46555164379999997,-0.1775315995
10:04:40,-1.07592675,-0.53272345,-1.86464775,0.333651925,0.3517134,-0.24910474999999999,31.75707655,-24.91474175,-27.078401200000002,-62.057137250000004,-2.0298953425,-0.41705465825000004,0.026110517500000013,-0.029038972075,0.46455465074999996,-0.175552109375
10:04:40,-1.0676563,-0.52673282,-1.8645570999999999,0.33152123,0.35168144,-0.2470433,31.769631980000003,-24.9089383,-27.051191120000002,-62.1076071,-2.0273916229999998,-0.4114060867,0.02485941300000001,-0.02868877417,0.46355765769999996,-0.17357261925
10:04:40,-1.05938585,-0.52074219,-1.8644664499999999,0.32939053500000004,0.35164948,-0.24498185,31.782187410000002,-24.90313485,-27.023981040000002,-62.15807695,-2.0248879035,-0.40575751515,0.023608308500000022,-0.028338576265,0.46256066464999995,-0.171593129125
10:04:40,-1.0511154,-0.51475156,-1.8643758,0.32725984,0.35161752,-0.2429204,31.79474284,-24.897331400000002,-26.99677096,-62.2085468,-2.022384184,-0.40010894360000004,0.02235720400000002,-0.02798837836,0.46156367159999995,-0.16961363899999998
10:04:40,-1.04284495,-0.50876093,-1.86428515,0.325129145,0.35158556,-0.24085895,31.80729827,-24.89152795,-26.969560880000003,-62.25901665,-2.0198804645,-0.39446037205000006,0.021106099500000017,-0.027638180454999998,0.46056667855,-0.167634148875
10:04:40,-1.0345745,-0.5027703,-1.8641945,0.32299845000000005,0.3515536,-0.2387975,31.819853700000003,-24.885724500000002,-26.9423508,-62.309486500000006,-2.017376745,-0.3888118005000001,0.019854995000000014,-0.02728798255,0.4595696855,-0.16565465875
10:04:40,-1.02630405,-0.49677967,-1.86410385,0.320867755,0.35152164,-0.23673605,31.832409130000002,-24.87992105,-26.91514072,-62.359956350000004,-2.0148730255,-0.38316322895,0.01860389050000001,-0.026937784644999997,0.45857269245,-0.163675168625
10:04:40,-1.0180335999999999,-0.49078904,-1.8640132,0.31873706,0.35148968,-0.2346746,31.84496456,-24.8741176,-26.88793064,-62.4104262,-2.012369306,-0.3775146574,0.017352786000000023,-0.026587586740000002,0.4575756994,-0.1616956785
10:04:40,-1.00976315,-0.48479841,-1.8639225499999998,0.316606365,0.35145772000000003,-0.23261315,31.857519990000004,-24.86831415,-26.86072056,-62.46089605,-2.0098655865,-0.37186608585,0.01610168150000002,-0.026237388835,0.45657870635,-0.15971618837499998
10:04:40,-1.0014927,-0.47880778,-1.8638318999999999,0.31447567,0.35142576000000003,-0.2305517,31.870075420000003,-24.8625107,-26.83351048,-62.5113659,-2.007361867,-0.36621751430000005,0.014850577000000018,-0.025887190929999998,0.45558171329999997,-0.15773669825
10:04:40,-0.99322225,-0.47281715,-1.86374125,0.312344975,0.35139380000000003,-0.22849025,31.88263085,-24.85670725,-26.8063004,-62.56183575,-2.0048581475,-0.36056894275000007,0.013599472500000015,-0.025536993024999996,0.45458472024999996,-0.155757208125
10:04:40,-0.9849517999999999,-0.46682652,-1.8636506,0.31021428,0.35136184000000004,-0.22642879999999999,31.89518628,-24.8509038,-26.77909032,-62.6123056,-2.002354428,-0.3549203712000001,0.012348368000000026,-0.02518679512,0.45358772719999996,-0.153777718
10:04:40,-0.97668135,-0.46083589,-1.86355995,0.308083585,0.35132988000000004,-0.22436735,31.907741710000003,-24.84510035,-26.751880240000002,-62.662775450000005,-1.9998507085,-0.34927179965,0.011097263500000024,-0.024836597215,0.45259073414999995,-0.151798227875
10:04:40,-0.9684109,-0.45484526000000003,-1.8634693,0.30595289000000003,0.35129792000000004,-0.2223059,31.920297140000002,-24.8392969,-26.724670160000002,-62.713245300000004,-1.997346989,-0.3436232281,0.009846159000000021,-0.024486399309999997,0.45159374109999995,-0.14981873775
10:04:40,-0.96014045,-0.44885463000000003,-1.86337865,0.303822195,0.35126596000000004,-0.22024445,31.93285257,-24.83349345,-26.697460080000003,-62.76371515,-1.9948432695,-0.33797465655000003,0.008595054500000018,-0.024136201405000002,0.45059674804999994,-0.147839247625
10:04:40,-0.95187,-0.44286400000000004,-1.8632879999999998,0.3016915,0.351234,-0.218183,31.945408,-24.82769,-26.670250000000003,-62.814185,-1.99233955,-0.33232608500000005,0.007343950000000016,-0.0237860035,0.44959975499999993,-0.1458597575
10:04:40,-0.94359955,-0.43687337000000004,-1.8631973499999999,0.29956080500000004,0.35120204,-0.21612155,31.957963430000003,-24.821886550000002,-26.64303992,-62.86465485,-1.9898358305,-0.32667751345000007,0.006092845500000027,-0.023435805594999998,0.44860276195,-0.14388026737499998
10:04:40,-0.9353291,-0.43088274000000004,-1.8631067,0.29743010999999997,0.35117008,-0.2140601,31.970518860000002,-24.8160831,-26.61582984,-62.9151247,-1.987332111,-0.3210289419,0.0048417410000000105,-0.023085607689999996,0.4476057689,-0.14190077725
10:04:40,-0.92705865,-0.42489211000000005,-1.86301605,0.295299415,0.35113812,-0.21199865,31.98307429,-24.810279650000002,-26.58861976,-62.965594550000006,-1.9848283915,-0.31538037035,0.0035906365000000218,-0.022735409785,0.44660877585,-0.139921287125
10:04:40,-0.9187881999999999,-0.41890148000000005,-1.8629254,0.29316872,0.35110616,-0.2099372,31.995629720000004,-24.8044762,-26.56140968,-63.016064400000005,-1.9823246719999998,-0.3097317988,0.002339532000000033,-0.02238521188,0.44561178279999997,-0.137941797
10:04:40,-0.91051775,-0.41291085000000005,-1.86283475,0.291038025,0.3510742,-0.20787575,32.00818515,-24.79867275,-26.5341996,-63.066534250000004,-1.9798209525,-0.30408322725000003,0.0010884275000000165,-0.022035013974999997,0.44461478974999996,-0.135962306875
10:04:40,-0.9022473,-0.40692022000000005,-1.8627441,0.28890733,0.35104224,-0.2058143,32.02074058,-24.7928693,-26.50698952,-63.1170041,-1.977317233,-0.29843465570000005,-0.0001626769999999722,-0.02168481607,0.44361779669999996,-0.13398281674999998
10:04:40,-0.8939768499999999,-0.40092959000000006,-1.86265345,0.286776635,0.35101028,-0.20375285,32.03329601,-24.78706585,-26.47977944,-63.16747395,-1.9748135135,-0.29278608415000007,-0.0014137814999999887,-0.021334618165,0.44262080364999995,-0.132003326625
10:04:40,-0.8857064,-0.39493896000000006,-1.8625627999999999,0.28464594,0.35097832,-0.2016914,32.04585144,-24.7812624,-26.452569360000002,-63.2179438,-1.972309794,-0.2871375126,-0.0026648859999999774,-0.020984420259999997,0.4416238106,-0.1300238365
10:04:40,-0.87743595,-0.38894833000000006,-1.8624721499999999,0.282515245,0.35094636,-0.19962995,32.05840687,-24.77545895,-26.425359280000002,-63.26841365,-1.9698060745000001,-0.28148894105,-0.003915990499999966,-0.020634222355000002,0.44062681755,-0.128044346375
10:04:40,-0.8691655,-0.38295770000000007,-1.8623815,0.28038455,0.3509144,-0.1975685,32.070962300000005,-24.7696555,-26.398149200000002,-63.3188835,-1.967302355,-0.2758403695,-0.005167094999999983,-0.02028402445,0.4396298245,-0.12606485625
10:04:40,-0.86089505,-0.37696707000000007,-1.86229085,0.278253855,0.35088244,-0.19550705000000002,32.083517730000004,-24.76385205,-26.370939120000003,-63.369353350000004,-1.9647986355,-0.27019179795000003,-0.006418199499999971,-0.019933826544999998,0.43863283145,-0.12408536612499999
10:04:40,-0.8526246,-0.37097643999999996,-1.8622002,0.27612316000000003,0.35085048,-0.1934456,32.09607316,-24.758048600000002,-26.34372904,-63.4198232,-1.962294916,-0.26454322640000005,-0.007669303999999988,-0.019583628639999996,0.4376358384,-0.122105876
10:04:40,-0.84435415,-0.36498580999999997,-1.86210955,0.273992465,0.35081852,-0.19138415,32.10862859,-24.75224515,-26.31651896,-63.47029305,-1.9597911964999999,-0.25889465485000007,-0.008920408499999977,-0.019233430735,0.43663884534999997,-0.12012638587499999
10:04:40,-0.8360837,-0.35899517999999997,-1.8620189,0.27186177,0.35078656,-0.1893227,32.12118402,-24.746441700000002,-26.28930888,-63.5207629,-1.957287477,-0.2532460833,-0.010171512999999965,-0.01888323283,0.43564185229999997,-0.11814689575000001
10:04:40,-0.82781325,-0.35300455,-1.8619282499999998,0.26973107500000004,0.3507546,-0.18726125,32.13373945,-24.74063825,-26.2620988,-63.57123275,-1.9547837575,-0.24759751175,-0.011422617499999982,-0.018533034924999997,0.43464485924999996,-0.116167405625
10:04:40,-0.8195428,-0.34701392,-1.8618375999999999,0.26760037999999997,0.35072264000000003,-0.1851998,32.14629488,-24.7348348,-26.23488872,-63.621702600000006,-1.952280038,-0.24194894020000002,-0.01267372199999997,-0.018182837020000002,0.43364786619999995,-0.11418791549999999
10:04:40,-0.81127235,-0.34102329,-1.86174695,0.265469685,0.35069068000000003,-0.18313835,32.158850310000005,-24.72903135,-26.20767864,-63.672172450000005,-1.9497763185,-0.23630036865000004,-0.013924826499999987,-0.017832639115,0.43265087314999995,-0.112208425375
10:04:40,-0.8030018999999999,-0.33503266,-1.8616563,0.26333899,0.35065872000000003,-0.1810769,32.171405740000004,-24.7232279,-26.18046856,-63.722642300000004,-1.947272599,-0.23065179710000006,-0.015175930999999976,-0.017482441209999998,0.43165388009999994,-0.11022893524999999
10:04:40,-0.79473145,-0.32904203,-1.86156565,0.261208295,0.35062676000000004,-0.17901545,32.18396117,-24.71742445,-26.15325848,-63.77311215,-1.9447688795,-0.22500322555000007,-0.016427035499999965,-0.017132243304999996,0.43065688704999994,-0.10824944512499998
10:04:40,-0.786461,-0.3230514,-1.861475,0.2590776,0.35059480000000004,-0.176954,32.1965166,-24.711621,-26.126048400000002,-63.823582,-1.94226516,-0.21935465399999998,-0.01767813999999998,-0.0167820454,0.429659894,-0.106269955
10:04:40,-0.7781905499999999,-0.31706077,-1.86138435,0.256946905,0.35056284000000004,-0.17489255,32.20907203,-24.70581755,-26.098838320000002,-63.87405185,-1.9397614404999999,-0.21370608245,-0.01892924449999997,-0.016431847495,0.42866290095,-0.10429046487499999
10:04:40,-0.7699201,-0.31107014,-1.8612937,0.25481621,0.35053088000000004,-0.17283110000000002,32.22162746,-24.7000141,-26.071628240000003,-63.9245217,-1.937257721,-0.20805751090000002,-0.020180348999999986,-0.016081649589999997,0.4276659079,-0.10231097475
10:04:40,-0.7616496500000001,-0.30507951,-1.8612030499999999,0.252685515,0.35049892,-0.17076965,32.23418289,-24.69421065,-26.04441816,-63.97499155,-1.9347540015,-0.20240893935000004,-0.021431453499999975,-0.015731451685,0.42666891484999997,-0.100331484625
10:04:40,-0.7533791999999999,-0.29908888,-1.8611124,0.25055482,0.35046696,-0.16870820000000003,32.246738320000006,-24.6884072,-26.017208080000003,-64.0254614,-1.932250282,-0.19676036780000006,-0.022682557999999964,-0.01538125378,0.42567192179999996,-0.09835199449999998
10:04:40,-0.74510875,-0.29309825,-1.86102175,0.248424125,0.350435,-0.16664675,32.259293750000005,-24.68260375,-25.989998,-64.07593125,-1.9297465625,-0.19111179625000008,-0.02393366249999998,-0.015031055874999998,0.42467492874999996,-0.096372504375
10:04:40,-0.7368383000000001,-0.28710762,-1.8609311,0.24629342999999998,0.35040304,-0.1645853,32.271849180000004,-24.6768003,-25.96278792,-64.12640110000001,-1.927242843,-0.18546322469999998,-0.02518476699999997,-0.014680857969999996,0.4236779357,-0.09439301424999999
10:04:40,-0.7285678499999999,-0.28111699,-1.86084045,0.24416273500000002,0.35037108,-0.16252385000000003,32.28440461,-24.67099685,-25.93557784,-64.17687095000001,-1.9247391235,-0.17981465315,-0.026435871499999986,-0.014330660065,0.42268094265,-0.09241352412499998
10:04:40,-0.7202974,-0.27512636,-1.8607498,0.24203204,0.35033912,-0.1604624,32.29696004,-24.6651934,-25.90836776,-64.22734080000001,-1.922235404,-0.17416608160000002,-0.027686975999999974,-0.013980462159999998,0.4216839496,-0.090434034
10:04:40,-0.71202695,-0.26913573,-1.86065915,0.239901345,0.35030716,-0.15840094999999998,32.30951547,-24.65938995,-25.88115768,-64.27781065,-1.9197316844999999,-0.16851751005000004,-0.028938080499999963,-0.013630264254999996,0.42068695655,-0.08845454387500001
10:04:40,-0.7037564999999999,-0.2631451,-1.8605684999999998,0.23777065000000003,0.3502752,-0.15633950000000002,32.3220709,-24.6535865,-25.8539476,-64.3282805,-1.917227965,-0.16286893850000006,-0.03018918499999998,-0.013280066350000001,0.4196899635,-0.08647505374999997
10:04:40,-0.69548605,-0.25715447,-1.8604778499999999,0.235639955,0.35024324,-0.15427805,32.334626330000006,-24.64778305,-25.826737520000002,-64.37875035,-1.9147242455,-0.15722036694999997,-0.03144028949999997,-0.012929868445,0.41869297045,-0.08449556362499999
10:04:40,-0.6872156,-0.25116384,-1.8603872,0.23350926,0.35021128,-0.15221659999999998,32.347181760000005,-24.6419796,-25.799527440000002,-64.4292202,-1.912220526,-0.1515717954,-0.032691393999999985,-0.012579670539999997,0.4176959774,-0.08251607350000001
10:04:40,-0.6789451499999999,-0.24517321000000003,-1.86029655,0.23137856499999998,0.35017932,-0.15015515000000001,32.359737190000004,-24.63617615,-25.772317360000002,-64.47969005,-1.9097168065,-0.14592322385,-0.033942498499999973,-0.012229472634999995,0.41669898434999997,-0.08053658337499997
10:04:40,-0.6706747,-0.23918258000000003,-1.8602059,0.22924787000000002,0.35014736,-0.1480937,32.37229262,-24.6303727,-25.745107280000003,-64.5301599,-1.907213087,-0.14027465230000002,-0.03519360299999996,-0.01187927473,0.41570199129999996,-0.07855709324999999
10:04:40,-0.66240425,-0.23319195000000004,-1.86011525,0.227117175,0.3501154,-0.14603225000000003,32.38484805,-24.62456925,-25.717897200000003,-64.58062975,-1.9047093675,-0.13462608075000004,-0.03644470749999998,-0.011529076824999998,0.41470499824999996,-0.076577603125
10:04:40,-0.6541337999999999,-0.22720132000000004,-1.8600246,0.22498648,0.35008344,-0.1439708,32.39740348,-24.6187658,-25.69068712,-64.6310996,-1.902205648,-0.12897750920000006,-0.03769581199999997,-0.011178878919999996,0.41370800519999995,-0.07459811300000002
10:04:40,-0.64586335,-0.22121069000000004,-1.8599339499999998,0.22285578500000003,0.35005148,-0.14190935,32.40995891,-24.61296235,-25.66347704,-64.68156945,-1.8997019284999999,-0.12332893764999997,-0.038946916499999984,-0.010828681015000001,0.41271101214999995,-0.07261862287499998
10:04:40,-0.6375929,-0.21522006000000005,-1.8598432999999999,0.22072509,0.35001952000000003,-0.13984790000000002,32.42251434,-24.6071589,-25.63626696,-64.7320393,-1.897198209,-0.11768036609999999,-0.04019802099999997,-0.010478483109999999,0.41171401909999994,-0.07063913275
10:04:40,-0.6293224499999999,-0.20922943000000005,-1.85975265,0.218594395,0.34998756000000003,-0.13778645,32.435069770000005,-24.60135545,-25.60905688,-64.78250915,-1.8946944895,-0.11203179455000001,-0.04144912549999996,-0.010128285204999997,0.41071702604999993,-0.06865964262500002
10:04:40,-0.6210519999999999,-0.20323880000000005,-1.859662,0.21646369999999998,0.34995560000000003,-0.13572499999999998,32.447625200000004,-24.595552,-25.5818468,-64.832979,-1.89219077,-0.10638322300000003,-0.04270022999999998,-0.009778087299999995,0.409720033,-0.06668015249999998
10:04:40,-0.61278155,-0.19724817000000006,-1.85957135,0.21433300500000002,0.34992364000000004,-0.13366355000000002,32.46018063,-24.58974855,-25.55463672,-64.88344885000001,-1.8896870505,-0.10073465145000005,-0.04395133449999997,-0.009427889395,0.40872303995,-0.064700662375
10:04:40,-0.6045111000000001,-0.19125754000000006,-1.8594807,0.21220231,0.34989168000000004,-0.1316021,32.47273606,-24.5839451,-25.52742664,-64.9339187,-1.887183331,-0.09508607990000006,-0.04520243899999998,-0.009077691489999998,0.40772604689999997,-0.06272117225000001
10:04:40,-0.5962406499999999,-0.18526691000000006,-1.85939005,0.210071615,0.34985972000000004,-0.12954065000000003,32.48529149,-24.57814165,-25.500216560000002,-64.98438855,-1.8846796115,-0.08943750834999997,-0.04645354349999997,-0.008727493584999996,0.40672905384999997,-0.060741682124999974
10:04:40,-0.5879702,-0.17927628000000007,-1.8592994,0.20794091999999997,0.34982776000000004,-0.12747920000000001,32.49784692,-24.5723382,-25.473006480000002,-65.0348584,-1.882175892,-0.08378893679999999,-0.04770464799999996,-0.00837729568,0.40573206079999996,-0.05876219199999999
10:04:40,-0.5796997500000001,-0.17328564999999996,-1.8592087499999999,0.205810225,0.3497958,-0.12541775,32.51040235,-24.56653475,-25.445796400000003,-65.08532825,-1.8796721724999998,-0.07814036525000001,-0.04895575249999998,-0.008027097774999999,0.40473506775,-0.05678270187500001
10:04:40,-0.5714292999999999,-0.16729501999999996,-1.8591180999999999,0.20367953,0.34976384,-0.12335630000000003,32.522957780000006,-24.5607313,-25.418586320000003,-65.1357981,-1.877168453,-0.07249179370000003,-0.050206856999999966,-0.007676899869999997,0.4037380747,-0.054803211750000025
10:04:40,-0.56315885,-0.16130438999999996,-1.85902745,0.20154883499999998,0.34973188,-0.12129485000000001,32.535513210000005,-24.55492785,-25.39137624,-65.18626795,-1.8746647335,-0.06684322215000005,-0.05145796149999998,-0.0073267019649999945,0.40274108165,-0.052823721624999986
10:04:40,-0.5548884000000001,-0.15531375999999997,-1.8589368,0.19941814000000002,0.34969992,-0.11923339999999999,32.548068640000004,-24.5491244,-25.364166160000003,-65.2367378,-1.872161014,-0.06119465060000007,-0.05270906599999997,-0.0069765040599999995,0.4017440886,-0.0508442315
10:04:40,-0.5466179499999999,-0.14932312999999997,-1.85884615,0.197287445,0.34966796,-0.11717195000000002,32.56062407,-24.54332095,-25.33695608,-65.28720765,-1.8696572945,-0.055546079049999975,-0.05396017049999996,-0.006626306154999997,0.40074709555,-0.04886474137500002
10:04:40,-0.5383475,-0.14333249999999997,-1.8587555,0.19515675,0.349636,-0.1151105,32.5731795,-24.5375175,-25.309746,-65.3376775,-1.8671535750000001,-0.04989750749999999,-0.055211274999999976,-0.006276108249999995,0.3997501025,-0.04688525124999998
10:04:40,-0.53007705,-0.13734186999999998,-1.85866485,0.19302605499999997,0.34960404,-0.11304904999999998,32.58573493,-24.53171405,-25.28253592,-65.38814735,-1.8646498555,-0.04424893595000001,-0.056462379499999965,-0.005925910345,0.39875310945,-0.044905761125
10:04:40,-0.5218065999999999,-0.13135123999999998,-1.8585741999999998,0.19089536000000001,0.34957208,-0.11098760000000002,32.59829036,-24.5259106,-25.25532584,-65.4386172,-1.862146136,-0.03860036440000003,-0.05771348399999998,-0.005575712439999998,0.39775611639999997,-0.042926271000000016
10:04:40,-0.51353615,-0.12536060999999998,-1.8584835499999999,0.188764665,0.34954012,-0.10892615,32.610845790000006,-24.52010715,-25.22811576,-65.48908705,-1.8596424165,-0.03295179285000005,-0.05896458849999997,-0.005225514534999996,0.39675912334999996,-0.04094678087499998
10:04:40,-0.5052657,-0.11936997999999999,-1.8583929,0.18663396999999998,0.34950816,-0.10686470000000003,32.623401220000005,-24.5143037,-25.20090568,-65.53955690000001,-1.857138697,-0.02730322130000007,-0.06021569299999996,-0.004875316630000001,0.39576213029999996,-0.038967290749999994
10:04:40,-0.4969952499999999,-0.11337934999999999,-1.85830225,0.18450327500000002,0.3494762,-0.10480325000000001,32.635956650000004,-24.50850025,-25.173695600000002,-65.59002675,-1.8546349775,-0.021654649749999977,-0.061466797499999976,-0.004525118724999999,0.39476513724999995,-0.03698780062500001
10:04:40,-0.48872479999999996,-0.10738872,-1.8582116,0.18237258,0.34944424,-0.1027418,32.64851208,-24.5026968,-25.146485520000002,-65.6404966,-1.852131258,-0.016006078199999996,-0.06271790199999996,-0.004174920819999997,0.39376814419999995,-0.03500831049999997
10:04:40,-0.48045435000000003,-0.10139809,-1.85812095,0.180241885,0.34941228,-0.10068035000000003,32.66106751,-24.49689335,-25.119275440000003,-65.69096645,-1.8496275385,-0.010357506650000015,-0.06396900649999998,-0.003824722914999995,0.39277115114999994,-0.03302882037499999
10:04:40,-0.4721838999999999,-0.09540746,-1.8580303,0.17811118999999997,0.34938032,-0.09861890000000001,32.67362294,-24.4910899,-25.09206536,-65.7414363,-1.8471238190000001,-0.0047089351000000335,-0.06522011099999997,-0.00347452501,0.39177415809999994,-0.031049330250000007
10:04:40,-0.46391344999999995,-0.08941683,-1.85793965,0.17598049500000001,0.34934836,-0.09655744999999999,32.68617837,-24.48528645,-25.064855280000003,-65.79190615,-1.8446200995,0.0009396364499999477,-0.06647121549999996,-0.003124327104999998,0.39077716505,-0.029069840125000024
10:04:40,-0.455643,-0.0834262,-1.8578489999999999,0.1738498,0.3493164,-0.09449600000000002,32.6987338,-24.479483,-25.0376452,-65.842376,-1.84211638,0.00658820800000004,-0.06772231999999997,-0.002774129199999996,0.389780172,-0.027090349999999985
10:04:40,-0.44737254999999987,-0.07743557000000001,-1.85775835,0.17171910499999998,0.34928444000000003,-0.09243455,32.711289230000006,-24.47367955,-25.01043512,-65.89284585,-1.8396126605,0.012236779550000021,-0.06897342449999996,-0.002423931295000001,0.38878317895,-0.025110859875000002
10:04:40,-0.43910209999999994,-0.07144494000000001,-1.8576677,0.16958841000000002,0.34925248000000003,-0.09037309999999998,32.723844660000005,-24.467876099999998,-24.98322504,-65.9433157,-1.8371089409999999,0.017885351100000002,-0.07022452899999998,-0.002073733389999999,0.38778618589999997,-0.02313136975000002
10:04:40,-0.43083165,-0.06545431000000002,-1.85757705,0.167457715,0.34922052000000003,-0.08831165000000002,32.736400090000004,-24.46207265,-24.95601496,-65.99378555,-1.8346052215,0.023533922649999983,-0.07147563349999997,-0.0017235354849999968,0.38678919284999996,-0.02115187962499998
10:04:40,-0.42256119999999986,-0.05946368000000002,-1.8574864,0.16532702,0.34918856000000004,-0.0862502,32.74895552,-24.4562692,-24.92880488,-66.0442554,-1.832101502,0.029182494199999964,-0.07272673799999996,-0.0013733375799999947,0.3857921998,-0.019172389499999998
10:04:40,-0.41429074999999993,-0.05347305000000002,-1.85739575,0.16319632499999998,0.34915660000000004,-0.08418875000000003,32.76151095,-24.45046575,-24.9015948,-66.09472525,-1.8295977825,0.034831065749999945,-0.07397784249999997,-0.0010231396749999996,0.38479520675,-0.017192899375000015
10:04:40,-0.4060203,-0.047482420000000025,-1.8573051,0.16106563000000002,0.34912464000000004,-0.08212730000000001,32.77406638,-24.4446623,-24.874384720000002,-66.1451951,-1.827094063,0.04047963730000004,-0.07522894699999996,-0.0006729417699999976,0.3837982137,-0.015213409249999976
10:04:40,-0.39774985000000007,-0.04149179000000003,-1.8572144499999999,0.158934935,0.34909268,-0.08006585,32.78662181,-24.43885885,-24.847174640000002,-66.19566495000001,-1.8245903435,0.04612820885000002,-0.07648005149999998,-0.0003227438649999956,0.38280122065,-0.013233919124999993
10:04:40,-0.3894793999999999,-0.03550115999999992,-1.8571237999999999,0.15680423999999998,0.34906072,-0.07800440000000003,32.799177240000006,-24.4330554,-24.819964560000003,-66.24613480000001,-1.822086624,0.0517767804,-0.07773115599999997,2.7454039999999513e-05,0.3818042276,-0.01125442900000001
10:04:40,-0.38120895,-0.029510530000000035,-1.85703315,0.15467354500000002,0.34902876,-0.07594295000000001,32.811732670000005,-24.42725195,-24.792754480000003,-66.29660465,-1.8195829045,0.05742535194999998,-0.07898226049999996,0.00037765194500000154,0.38080723455,-0.009274938875000027
10:04:40,-0.37293850000000006,-0.023519899999999927,-1.8569425,0.15254285,0.3489968,-0.07388149999999999,32.824288100000004,-24.4214485,-24.765544400000003,-66.3470745,-1.8170791849999999,0.06307392349999996,-0.08023336499999997,0.0007278498500000036,0.3798102415,-0.007295448749999989
10:04:40,-0.3646680499999999,-0.01752927000000004,-1.85685185,0.150412155,0.34896484,-0.07182005000000002,32.83684353,-24.41564505,-24.73833432,-66.39754435,-1.8145754655,0.06872249504999994,-0.08148446949999996,0.0010780477550000056,0.37881324845,-0.005315958625000006
10:04:40,-0.3563976,-0.011538639999999933,-1.8567612,0.14828145999999998,0.34893288,-0.0697586,32.84939896,-24.4098416,-24.711124240000004,-66.4480142,-1.812071746,0.07437106660000004,-0.08273557399999998,0.0014282456600000007,0.37781625539999997,-0.0033364685000000227
10:04:40,-0.34812715000000005,-0.005548010000000048,-1.85667055,0.14615076500000002,0.34890092,-0.06769715000000004,32.86195439,-24.404038149999998,-24.68391416,-66.49848405,-1.8095680265,0.08001963815000002,-0.08398667849999997,0.0017784435650000027,0.37681926234999996,-0.0013569783749999842
10:04:40,-0.3398566999999999,0.0004426200000000602,-1.8565799,0.14402007,0.34886896,-0.06563570000000002,32.87450982,-24.3982347,-24.65670408,-66.5489539,-1.807064307,0.0856682097,-0.08523778299999996,0.0021286414700000048,0.37582226929999996,0.0006225117499999988
10:04:40,-0.33158624999999997,0.006433249999999946,-1.8564892499999999,0.14188937499999998,0.348837,-0.06357425,32.887065250000006,-24.39243125,-24.629494,-66.59942375,-1.8045605875,0.09131678124999998,-0.08648888749999997,0.002478839375,0.37482527624999995,0.002602001874999982
10:04:40,-0.32331580000000004,0.012423880000000054,-1.8563986,0.13975868000000002,0.34880504,-0.061512800000000034,32.899620680000005,-24.3866278,-24.60228392,-66.6498936,-1.802056868,0.09696535279999996,-0.08773999199999996,0.002829037280000002,0.37382828319999994,0.00458149200000002
10:04:40,-0.3150453499999999,0.01841450999999994,-1.85630795,0.137627985,0.34877308,-0.059451350000000014,32.912176110000004,-24.38082435,-24.57507384,-66.70036345,-1.7995531485,0.10261392434999994,-0.08899109649999998,0.003179235185000004,0.37283129014999994,0.006560982125000003
10:04:40,-0.30677489999999996,0.024405140000000047,-1.8562173,0.13549729,0.34874112,-0.057389899999999994,32.92473154,-24.3750209,-24.547863760000002,-66.7508333,-1.7970494289999999,0.10826249589999992,-0.09024220099999997,0.003529433090000006,0.3718342971,0.008540472249999986
10:04:40,-0.29850445000000003,0.030395769999999933,-1.85612665,0.13336659499999998,0.34870916,-0.05532845000000003,32.93728697,-24.36921745,-24.520653680000002,-66.80130315,-1.7945457095,0.11391106745000001,-0.09149330549999996,0.003879630995000001,0.37083730405,0.010519962375000025
10:04:40,-0.2902339999999999,0.03638640000000004,-1.856036,0.13123590000000002,0.3486772,-0.05326700000000001,32.9498424,-24.363414,-24.493443600000003,-66.85177300000001,-1.79204199,0.11955963899999988,-0.09274440999999997,0.004229828900000003,0.369840311,0.012499452500000008
10:04:40,-0.28196354999999995,0.04237702999999993,-1.85594535,0.129105205,0.34864524,-0.05120554999999999,32.96239783,-24.35761055,-24.466233520000003,-66.90224285000001,-1.7895382705,0.12520821054999998,-0.09399551449999996,0.004580026805000005,0.36884331794999997,0.01447894262499999
10:04:40,-0.2736931,0.048367660000000035,-1.8558546999999999,0.12697450999999998,0.34861328,-0.049144100000000024,32.97495326000001,-24.3518071,-24.43902344,-66.9527127,-1.787034551,0.13085678210000007,-0.09524661899999998,0.004930224710000007,0.36784632489999997,0.016458432749999974
10:04:40,-0.26542264999999987,0.05435828999999992,-1.8557640499999999,0.12484381499999997,0.34858132000000003,-0.047082650000000004,32.987508690000006,-24.34600365,-24.411813360000004,-67.00318255,-1.7845308315,0.13650535364999994,-0.09649772349999997,0.005280422615000009,0.36684933185,0.018437922875000012
10:04:40,-0.25715219999999994,0.06034892000000003,-1.8556734,0.12271312000000001,0.34854936000000003,-0.04502120000000004,33.000064120000005,-24.340200199999998,-24.38460328,-67.0536524,-1.782027112,0.14215392520000003,-0.09774882799999995,0.005630620519999997,0.3658523388,0.020417412999999995
10:04:40,-0.24888175,0.06633954999999991,-1.85558275,0.120582425,0.34851740000000003,-0.04295975000000002,33.012619550000004,-24.33439675,-24.3573932,-67.10412225,-1.7795233925,0.1478024967499999,-0.09899993249999997,0.005980818424999999,0.36485534575,0.02239690312499998
10:04:40,-0.24061129999999986,0.07233018000000002,-1.8554921,0.11845172999999998,0.34848544000000004,-0.0408983,33.02517498,-24.328593299999998,-24.33018312,-67.1545921,-1.7770196729999999,0.1534510683,-0.10025103699999996,0.006331016330000001,0.3638583527,0.024376393250000017
10:04:40,-0.23234084999999993,0.07832080999999991,-1.85540145,0.11632103500000002,0.34845348000000004,-0.038836850000000034,33.03773041,-24.32278985,-24.30297304,-67.20506195,-1.7745159535,0.15909963985000009,-0.10150214149999998,0.006681214235000003,0.36286135965,0.026355883375
10:04:40,-0.2240704,0.08431144000000002,-1.8553108,0.11419034,0.34842152000000004,-0.036775400000000014,33.05028584,-24.316986399999998,-24.27576296,-67.2555318,-1.772012234,0.16474821139999996,-0.10275324599999996,0.007031412140000005,0.3618643666,0.028335373499999983
10:04:40,-0.21579994999999985,0.0903020699999999,-1.8552201499999998,0.11205964499999999,0.34838956,-0.03471394999999999,33.06284127000001,-24.31118295,-24.248552880000002,-67.30600165,-1.7695085145,0.17039678295000005,-0.10400435049999995,0.0073816100450000074,0.36086737355,0.03031486362500002
10:04:40,-0.20752949999999992,0.09629270000000001,-1.8551294999999999,0.10992894999999997,0.3483576,-0.03265250000000003,33.075396700000006,-24.3053795,-24.221342800000002,-67.3564715,-1.767004795,0.17604535449999992,-0.10525545499999997,0.0077318079500000095,0.3598703805,0.032294353750000004
10:04:40,-0.19925905,0.1022833299999999,-1.85503885,0.10779825500000001,0.34832564,-0.03059105000000001,33.087952130000005,-24.29957605,-24.194132720000002,-67.40694135,-1.7645010755,0.18169392605,-0.10650655949999996,0.008082005854999998,0.35887338744999997,0.03427384387499999
10:04:40,-0.19098859999999984,0.10827396,-1.8549482,0.10566756,0.34829368,-0.02852959999999999,33.100507560000004,-24.2937726,-24.166922640000003,-67.4574112,-1.761997356,0.18734249759999988,-0.10775766399999995,0.00843220376,0.35787639439999996,0.03625333399999997
10:04:40,-0.1827181499999999,0.11426459000000011,-1.85485755,0.10353686499999998,0.34826172,-0.026468150000000024,33.11306299,-24.28796915,-24.13971256,-67.50788105000001,-1.7594936365,0.19299106914999997,-0.10900876849999996,0.008782401665000002,0.35687940134999996,0.03823282412500001
10:04:40,-0.17444769999999998,0.12025522,-1.8547669,0.10140617000000002,0.34822976,-0.024406700000000003,33.12561842,-24.2821657,-24.112502480000003,-67.55835090000001,-1.756989917,0.19863964070000006,-0.11025987299999995,0.009132599570000004,0.35588240829999995,0.04021231424999999
10:04:40,-0.16617725000000005,0.1262458500000001,-1.85467625,0.099275475,0.3481978,-0.02234525000000004,33.13817385,-24.27636225,-24.0852924,-67.60882075,-1.7544861975,0.20428821224999993,-0.11151097749999997,0.009482797475000006,0.35488541524999995,0.042191804374999975
10:04:40,-0.1579067999999999,0.13223648,-1.8545856,0.09714477999999999,0.34816584,-0.02028380000000002,33.15072928,-24.2705588,-24.05808232,-67.6592906,-1.751982478,0.20993678380000003,-0.11276208199999996,0.009832995380000008,0.35388842219999994,0.04417129450000001
10:04:40,-0.14963634999999997,0.1382271100000001,-1.8544949499999999,0.09501408499999997,0.34813388,-0.01822235,33.163284710000006,-24.264755349999998,-24.03087224,-67.70976045,-1.7494787585,0.2155853553499999,-0.11401318649999995,0.01018319328500001,0.35289142915,0.046150784624999996
10:04:40,-0.14136590000000004,0.14421773999999998,-1.8544043,0.09288339000000001,0.34810192,-0.016160900000000034,33.175840140000005,-24.2589519,-24.00366216,-67.7602303,-1.746975039,0.2212339269,-0.11526429099999996,0.010533391189999998,0.3518944361,0.04813027474999998
10:04:40,-0.1330954499999999,0.1502083700000001,-1.85431365,0.090752695,0.34806996,-0.014099450000000013,33.188395570000004,-24.253148449999998,-23.97645208,-67.81070015,-1.7444713195000001,0.22688249845000008,-0.11651539549999995,0.010883589095,0.35089744305,0.05010976487500002
10:04:41,-0.124825,0.156199,-1.854223,0.088622,0.348038,-0.012038,33.200951,-24.247345,-23.949242,-67.86117,-1.7419676,0.23253107,-0.1177665,0.011233787,0.34990045,0.052089255
10:04:41,-0.12570375,0.1451272,-1.846470045,0.09141321000000001,0.34684481,-0.012080615,33.229512035000006,-24.22682128,-23.94828794,-67.86824,-1.734579191,0.22116029465,-0.1207020445,0.012591145665000001,0.34882708949999996,0.049212410975
10:04:41,-0.12658250000000001,0.1340554,-1.83871709,0.09420442000000001,0.34565162,-0.01212323,33.25807307,-24.20629756,-23.947333880000002,-67.87531,-1.7271907819999999,0.2097895193,-0.12363758899999999,0.01394850433,0.34775372899999996,0.046335566950000004
10:04:41,-0.12746125,0.1229836,-1.8309641349999999,0.09699563,0.34445843000000004,-0.012165845,33.286634105000005,-24.18577384,-23.94637982,-67.88238,-1.719802373,0.19841874395,-0.1265731335,0.015305862994999999,0.34668036849999995,0.043458722925
10:04:41,-0.12834,0.1119118,-1.82321118,0.09978684,0.34326524,-0.01220846,33.31519514,-24.16525012,-23.945425760000003,-67.88945,-1.712413964,0.1870479686,-0.129508678,0.016663221659999998,0.345607008,0.0405818789
10:04:41,-0.12921875,0.10084000000000001,-1.815458225,0.10257805,0.34207205,-0.012251075,33.343756175,-24.1447264,-23.9444717,-67.89652,-1.705025555,0.17567719325,-0.1324442225,0.018020580325,0.3445336475,0.037705034875
10:04:41,-0.1300975,0.0897682,-1.80770527,0.10536926,0.34087886,-0.01229369,33.372317210000006,-24.12420268,-23.943517640000003,-67.90359000000001,-1.697637146,0.1643064179,-0.13537976699999998,0.01937793899,0.343460287,0.034828190849999996
10:04:41,-0.13097625000000002,0.0786964,-1.7999523149999999,0.10816047000000001,0.33968567,-0.012336305,33.400878245,-24.10367896,-23.94256358,-67.91066000000001,-1.690248737,0.15293564255000003,-0.13831531149999998,0.020735297655,0.34238692649999997,0.031951346825
10:04:41,-0.131855,0.0676246,-1.79219936,0.11095168000000001,0.33849248000000004,-0.01237892,33.429439280000004,-24.08315524,-23.94160952,-67.91773,-1.6828603279999998,0.1415648672,-0.141250856,0.02209265632,0.34131356599999996,0.0290745028
10:04:41,-0.13273375,0.056552800000000014,-1.784446405,0.11374289000000001,0.33729929000000003,-0.012421535000000001,33.45800031500001,-24.06263152,-23.940655460000002,-67.9248,-1.675471919,0.13019409185000003,-0.1441864005,0.023450014984999996,0.34024020549999995,0.026197658775
10:04:41,-0.1336125,0.04548100000000001,-1.77669345,0.1165341,0.3361061,-0.01246415,33.48656135,-24.0421078,-23.9397014,-67.93187,-1.66808351,0.11882331650000001,-0.147121945,0.02480737365,0.339166845,0.02332081475
10:04:41,-0.13449125,0.0344092,-1.768940495,0.11932531,0.33491291,-0.012506765,33.515122385000005,-24.02158408,-23.938747340000003,-67.93894,-1.660695101,0.10745254115000002,-0.1500574895,0.026164732315,0.3380934845,0.020443970724999996
10:04:41,-0.13537,0.023337400000000008,-1.7611875399999999,0.12211652,0.33371972,-0.01254938,33.54368342,-24.00106036,-23.93779328,-67.94601,-1.653306692,0.09608176580000002,-0.152993034,0.027522090979999997,0.337020124,0.017567126699999998
10:04:41,-0.13624875,0.012265600000000015,-1.753434585,0.12490773000000001,0.33252653,-0.012591995,33.572244455,-23.98053664,-23.936839220000003,-67.95308,-1.6459182829999999,0.08471099045000002,-0.1559285785,0.028879449645,0.33594676349999997,0.014690282675
10:04:41,-0.1371275,0.0011937999999999949,-1.74568163,0.12769894,0.33133334000000003,-0.012634610000000001,33.600805490000006,-23.96001292,-23.93588516,-67.96015,-1.638529874,0.07334021510000002,-0.158864123,0.030236808310000002,0.33487340299999996,0.011813438649999994
10:04:41,-0.13800625,-0.009877999999999998,-1.737928675,0.13049015,0.33014015,-0.012677225,33.629366525,-23.9394892,-23.9349311,-67.96722,-1.631141465,0.06196943975000002,-0.1617996675,0.031594166975,0.33380004249999995,0.008936594624999995
10:04:41,-0.138885,-0.02094979999999999,-1.73017572,0.13328136000000002,0.32894696,-0.01271984,33.657927560000005,-23.91896548,-23.933977040000002,-67.97429,-1.623753056,0.05059866440000002,-0.164735212,0.03295152564,0.332726682,0.006059750599999997
10:04:41,-0.13976375,-0.03202159999999998,-1.722422765,0.13607257,0.32775377,-0.012762455,33.686488595,-23.89844176,-23.93302298,-67.98136,-1.616364647,0.03922788905000002,-0.1676707565,0.034308884304999995,0.3316533215,0.0031829065749999982
10:04:41,-0.1406425,-0.043093399999999976,-1.71466981,0.13886378,0.32656058,-0.01280507,33.71504963,-23.87791804,-23.932068920000003,-67.98843000000001,-1.608976238,0.02785711370000002,-0.17060630100000002,0.03566624297,0.330579961,0.0003060625499999997
10:04:41,-0.14152125,-0.0541652,-1.706916855,0.14165499,0.32536739000000003,-0.012847685,33.743610665000006,-23.85739432,-23.93111486,-67.9955,-1.6015878289999999,0.016486338350000018,-0.1735418455,0.037023601635,0.32950660049999997,-0.0025707814750000058
10:04:41,-0.1424,-0.06523699999999999,-1.6991639,0.14444620000000002,0.3241742,-0.0128903,33.7721717,-23.836870599999997,-23.930160800000003,-68.00257,-1.59419942,0.005115563000000017,-0.17647739,0.038380960299999996,0.32843323999999996,-0.005447625500000004
10:04:41,-0.14327875,-0.07630879999999998,-1.6914109449999999,0.14723741,0.32298101,-0.012932915,33.800732735000004,-23.816346879999998,-23.92920674,-68.00964,-1.586811011,-0.0062552123499999834,-0.1794129345,0.039738318965,0.32735987949999995,-0.008324469525000003
10:04:41,-0.1441575,-0.0873806,-1.68365799,0.15002862,0.32178782,-0.01297553,33.82929377000001,-23.795823159999998,-23.92825268,-68.01671,-1.579422602,-0.017625987699999957,-0.182348479,0.04109567763,0.326286519,-0.011201313550000008
10:04:41,-0.14503625,-0.09845239999999997,-1.675905035,0.15281983,0.32059463,-0.013018145,33.857854805,-23.775299439999998,-23.927298620000002,-68.02378,-1.572034193,-0.028996763049999985,-0.1852840235,0.042453036294999996,0.3252131585,-0.014078157575
10:04:41,-0.145915,-0.10952419999999999,-1.66815208,0.15561104,0.31940144000000004,-0.01306076,33.886415840000005,-23.754775719999998,-23.92634456,-68.03085,-1.5646457839999999,-0.04036753839999996,-0.188219568,0.04381039496,0.324139798,-0.016955001600000005
10:04:41,-0.14679375,-0.12059600000000001,-1.660399125,0.15840225000000002,0.31820825,-0.013103375,33.914976875,-23.734251999999998,-23.925390500000002,-68.03792,-1.5572573749999998,-0.05173831374999999,-0.1911551125,0.045167753625,0.32306643749999997,-0.01983184562500001
10:04:41,-0.14767249999999998,-0.13166779999999997,-1.65264617,0.16119346,0.31701506,-0.01314599,33.94353791,-23.713728279999998,-23.92443644,-68.04499,-1.549868966,-0.06310908909999996,-0.194090657,0.04652511229,0.32199307699999996,-0.022708689650000002
10:04:41,-0.14855125,-0.1427396,-1.644893215,0.16398467,0.31582187,-0.013188604999999999,33.972098945000006,-23.693204559999998,-23.923482380000003,-68.05206,-1.542480557,-0.07447986444999999,-0.1970262015,0.047882470955,0.32091971649999995,-0.025585533675000008
10:04:41,-0.14943,-0.15381140000000001,-1.63714026,0.16677588000000002,0.31462868,-0.01323122,34.00065998,-23.672680839999998,-23.92252832,-68.05913,-1.535092148,-0.08585063979999996,-0.199961746,0.04923982962,0.319846356,-0.028462377700000013
10:04:41,-0.15030875,-0.16488319999999998,-1.629387305,0.16956709,0.31343549000000004,-0.013273835,34.029221015000005,-23.65215712,-23.92157426,-68.0662,-1.527703739,-0.09722141514999999,-0.2028972905,0.050597188285,0.3187729955,-0.031339221725000005
10:04:41,-0.1511875,-0.175955,-1.62163435,0.17235830000000002,0.31224230000000003,-0.01331645,34.05778205,-23.6316334,-23.920620200000002,-68.07327000000001,-1.5203153299999999,-0.10859219049999996,-0.205832835,0.05195454695,0.317699635,-0.03421606575000001
10:04:41,-0.15206625,-0.18702679999999997,-1.613881395,0.17514951,0.31104911,-0.013359065,34.086343085,-23.61110968,-23.91966614,-68.08034,-1.512926921,-0.11996296584999999,-0.2087683795,0.053311905614999995,0.31662627449999997,-0.037092909775
10:04:41,-0.152945,-0.19809859999999999,-1.60612844,0.17794072,0.30985592,-0.01340168,34.114904120000006,-23.59058596,-23.918712080000002,-68.08741,-1.505538512,-0.13133374119999996,-0.211703924,0.05466926428,0.31555291399999996,-0.03996975380000001
10:04:41,-0.15382375,-0.2091704,-1.598375485,0.18073193,0.30866273,-0.013444295,34.143465155,-23.57006224,-23.91775802,-68.09448,-1.498150103,-0.14270451654999994,-0.21463946849999999,0.056026622945,0.31447955349999995,-0.04284659782500001
10:04:41,-0.1547025,-0.22024219999999997,-1.59062253,0.18352314000000003,0.30746954000000004,-0.01348691,34.172026190000004,-23.54953852,-23.916803960000003,-68.10155,-1.490761694,-0.15407529189999997,-0.21757501299999998,0.057383981609999996,0.313406193,-0.045723441850000004
10:04:41,-0.15558125,-0.231314,-1.582869575,0.18631435000000002,0.30627635000000003,-0.013529525,34.20058722500001,-23.5290148,-23.9158499,-68.10862,-1.4833732849999999,-0.16544606724999994,-0.22051055749999998,0.058741340275,0.3123328325,-0.04860028587500001
10:04:41,-0.15646,-0.24238579999999996,-1.57511662,0.18910556,0.30508316,-0.01357214,34.22914826,-23.50849108,-23.91489584,-68.11569,-1.475984876,-0.17681684259999997,-0.223446102,0.060098698939999994,0.311259472,-0.0514771299
10:04:41,-0.15733875,-0.25345759999999995,-1.567363665,0.19189677,0.30388997,-0.013614755,34.257709295000005,-23.48796736,-23.913941780000002,-68.12276,-1.468596467,-0.18818761794999994,-0.2263816465,0.061456057604999996,0.3101861115,-0.05435397392500001
10:04:41,-0.1582175,-0.2645294,-1.55961071,0.19468798,0.30269678,-0.01365737,34.28627033,-23.46744364,-23.91298772,-68.12983,-1.461208058,-0.19955839329999997,-0.229317191,0.06281341626999999,0.30911275099999996,-0.05723081795000001
10:04:41,-0.15909625,-0.2756012,-1.551857755,0.19747919000000003,0.30150359000000004,-0.013699985,34.314831365,-23.44691992,-23.912033660000002,-68.1369,-1.453819649,-0.21092916864999994,-0.2322527355,0.064170774935,0.30803939049999995,-0.060107661975000004
10:04:41,-0.15997499999999998,-0.28667299999999996,-1.5441048,0.20027040000000002,0.30031040000000003,-0.0137426,34.343392400000006,-23.4263962,-23.9110796,-68.14397,-1.44643124,-0.22229994399999997,-0.23518828,0.0655281336,0.30696603,-0.06298450600000001
10:04:41,-0.16085375,-0.29774480000000003,-1.536351845,0.20306161,0.29911721,-0.013785215,34.371953435,-23.40587248,-23.910125540000003,-68.15104,-1.4390428309999999,-0.23367071934999994,-0.2381238245,0.066885492265,0.3058926695,-0.06586135002500002
10:04:41,-0.1617325,-0.3088166,-1.52859889,0.20585282,0.29792402,-0.01382783,34.400514470000005,-23.38534876,-23.90917148,-68.15811000000001,-1.4316544219999998,-0.24504149469999997,-0.24105936900000002,0.06824285092999999,0.304819309,-0.06873819405
10:04:41,-0.16261124999999998,-0.31988839999999996,-1.520845935,0.20864403,0.29673083,-0.013870445,34.429075505,-23.36482504,-23.90821742,-68.16518,-1.424266013,-0.25641227004999995,-0.2439949135,0.06960020959499999,0.3037459485,-0.07161503807500001
10:04:41,-0.16349,-0.33096020000000004,-1.5130929800000001,0.21143524000000002,0.29553764,-0.01391306,34.45763654,-23.34430132,-23.90726336,-68.17225,-1.416877604,-0.2677830453999999,-0.246930458,0.07095756825999999,0.30267258799999996,-0.07449188210000002
10:04:41,-0.16436875,-0.342032,-1.505340025,0.21422645,0.29434445000000004,-0.013955675,34.486197575000006,-23.3237776,-23.9063093,-68.17932,-1.409489195,-0.27915382075,-0.24986600250000002,0.072314926925,0.30159922749999996,-0.07736872612500001
10:04:41,-0.1652475,-0.35310379999999997,-1.49758707,0.21701766,0.29315126,-0.01399829,34.51475861,-23.30325388,-23.905355240000002,-68.18639,-1.4021007859999999,-0.2905245961,-0.252801547,0.07367228559,0.30052586699999995,-0.08024557015
10:04:41,-0.16612625,-0.36417560000000004,-1.489834115,0.21980887000000002,0.29195807,-0.014040905,34.543319645000004,-23.28273016,-23.90440118,-68.19346,-1.3947123769999998,-0.30189537144999995,-0.2557370915,0.07502964425499999,0.2994525065,-0.08312241417500002
10:04:41,-0.167005,-0.3752474,-1.48208116,0.22260008,0.29076488,-0.01408352,34.57188068000001,-23.26220644,-23.903447120000003,-68.20053,-1.387323968,-0.3132661467999999,-0.258672636,0.07638700291999999,0.298379146,-0.08599925820000001
10:04:41,-0.16788375,-0.3863192,-1.474328205,0.22539129000000002,0.28957169,-0.014126135,34.600441715,-23.24168272,-23.90249306,-68.2076,-1.379935559,-0.3246369221499999,-0.2616081805,0.07774436158499999,0.2973057855,-0.088876102225
10:04:41,-0.16876249999999998,-0.39739100000000005,-1.46657525,0.2281825,0.28837850000000004,-0.01416875,34.629002750000005,-23.221159,-23.901539,-68.21467,-1.37254715,-0.3360076975,-0.264543725,0.07910172025,0.29623242499999997,-0.09175294625000002
10:04:41,-0.16964125,-0.4084628,-1.458822295,0.23097371000000003,0.28718531,-0.014211365,34.657563785,-23.20063528,-23.90058494,-68.22174,-1.365158741,-0.34737847284999995,-0.2674792695,0.08045907891499998,0.29515906449999996,-0.09462979027500001
10:04:41,-0.17052,-0.4195346,-1.45106934,0.23376492000000001,0.28599212,-0.01425398,34.68612482,-23.18011156,-23.89963088,-68.22881,-1.3577703319999999,-0.3587492481999999,-0.270414814,0.08181643757999998,0.294085704,-0.0975066343
10:04:41,-0.17139875,-0.43060640000000006,-1.4433163850000001,0.23655613,0.28479893,-0.014296595,34.714685855000006,-23.15958784,-23.898676820000002,-68.23588000000001,-1.350381923,-0.3701200235499999,-0.2733503585,0.08317379624499999,0.2930123435,-0.10038347832500003
10:04:41,-0.1722775,-0.4416782,-1.43556343,0.23934734000000002,0.28360574,-0.01433921,34.74324689,-23.13906412,-23.89772276,-68.24295000000001,-1.342993514,-0.3814907989,-0.276285903,0.08453115490999999,0.291938983,-0.10326032235000002
10:04:41,-0.17315624999999998,-0.45275,-1.427810475,0.24213855,0.28241255,-0.014381825,34.771807925000005,-23.1185404,-23.896768700000003,-68.25002,-1.335605105,-0.39286157424999996,-0.2792214475,0.08588851357499999,0.2908656225,-0.10613716637500001
10:04:41,-0.174035,-0.46382180000000006,-1.42005752,0.24492976000000002,0.28121936000000003,-0.01442444,34.80036896,-23.09801668,-23.89581464,-68.25709,-1.328216696,-0.40423234959999993,-0.282156992,0.08724587224,0.28979226199999997,-0.10901401040000003
10:04:41,-0.17491374999999998,-0.4748936,-1.412304565,0.24772097,0.28002617,-0.014467055,34.828929995,-23.07749296,-23.894860580000003,-68.26416,-1.3208282869999999,-0.4156031249499999,-0.2850925365,0.08860323090499998,0.28871890149999996,-0.11189085442500002
10:04:41,-0.1757925,-0.4859654,-1.40455161,0.25051218,0.27883298,-0.01450967,34.857491030000006,-23.05696924,-23.89390652,-68.27123,-1.313439878,-0.4269739003,-0.288028081,0.08996058956999999,0.28764554099999995,-0.11476769845000001
10:04:41,-0.17667125,-0.49703719999999996,-1.396798655,0.25330339,0.27763979,-0.014552285,34.886052065,-23.03644552,-23.89295246,-68.2783,-1.3060514689999998,-0.43834467564999996,-0.2909636255,0.09131794823499999,0.2865721805,-0.117644542475
10:04:41,-0.17754999999999999,-0.508109,-1.3890457,0.2560946,0.2764466,-0.014594900000000001,34.914613100000004,-23.0159218,-23.891998400000002,-68.28537,-1.29866306,-0.44971545099999993,-0.29389917,0.09267530689999999,0.28549882,-0.12052138650000002
10:04:41,-0.17842875,-0.5191808,-1.381292745,0.25888581,0.27525341000000003,-0.014637515,34.94317413500001,-22.995398079999998,-23.89104434,-68.29244,-1.291274651,-0.4610862263499999,-0.2968347145,0.09403266556499999,0.2844254595,-0.12339823052500001
10:04:41,-0.17930749999999998,-0.5302526,-1.3735397900000001,0.26167702000000004,0.27406022,-0.01468013,34.97173517,-22.974874359999998,-23.890090280000003,-68.29951,-1.283886242,-0.4724570017,-0.299770259,0.09539002422999998,0.28335209899999997,-0.12627507455
10:04:41,-0.18018625,-0.5413244,-1.365786835,0.26446823,0.27286703,-0.014722744999999999,35.000296205000005,-22.954350639999998,-23.88913622,-68.30658,-1.2764978329999999,-0.48382777704999996,-0.3027058035,0.09674738289499998,0.28227873849999996,-0.12915191857500002
10:04:41,-0.18106499999999998,-0.5523962,-1.35803388,0.26725944,0.27167384,-0.01476536,35.02885724,-22.933826919999998,-23.888182160000003,-68.31365,-1.2691094239999998,-0.49519855239999994,-0.305641348,0.09810474155999999,0.281205378,-0.13202876260000002
10:04:41,-0.18194375,-0.563468,-1.350280925,0.27005065,0.27048065,-0.014807975000000001,35.057418275,-22.913303199999998,-23.8872281,-68.32072000000001,-1.261721015,-0.5065693277499999,-0.3085768925,0.09946210022499999,0.2801320175,-0.134905606625
10:04:41,-0.1828225,-0.5745398,-1.34252797,0.27284186,0.26928746000000003,-0.01485059,35.085979310000006,-22.892779479999998,-23.88627404,-68.32779000000001,-1.254332606,-0.5179401030999999,-0.311512437,0.10081945888999999,0.279058657,-0.13778245065000003
10:04:41,-0.18370124999999998,-0.5856116,-1.334775015,0.27563307000000004,0.26809427,-0.014893205,35.114540345,-22.872255759999998,-23.885319980000002,-68.33486,-1.246944197,-0.52931087845,-0.3144479815,0.10217681755499998,0.2779852965,-0.14065929467500002
10:04:41,-0.18458,-0.5966834,-1.32702206,0.27842428,0.26690108,-0.014935819999999999,35.143101380000004,-22.851732039999998,-23.88436592,-68.34193,-1.2395557879999999,-0.5406816537999999,-0.31738352599999997,0.10353417621999998,0.27691193599999997,-0.1435361387
10:04:41,-0.18545875,-0.6077552,-1.319269105,0.28121549,0.26570789,-0.014978435,35.171662415,-22.83120832,-23.883411860000002,-68.349,-1.2321673789999998,-0.55205242915,-0.32031907049999997,0.10489153488499998,0.27583857549999996,-0.14641298272500003
10:04:41,-0.1863375,-0.618827,-1.31151615,0.28400670000000006,0.2645147,-0.01502105,35.20022345,-22.8106846,-23.8824578,-68.35607,-1.22477897,-0.5634232044999998,-0.32325461499999997,0.10624889354999999,0.27476521499999995,-0.14928982675000002
10:04:41,-0.18721624999999997,-0.6298988,-1.3037631950000002,0.28679791,0.26332151000000004,-0.015063665,35.228784485000006,-22.79016088,-23.881503740000003,-68.36314,-1.217390561,-0.5747939798499999,-0.3261901595,0.10760625221499999,0.2736918545,-0.152166670775
10:04:41,-0.18809499999999998,-0.6409706,-1.29601024,0.28958912000000003,0.26212832,-0.01510628,35.25734552,-22.76963716,-23.88054968,-68.37021,-1.210002152,-0.5861647552,-0.329125704,0.10896361087999998,0.272618494,-0.1550435148
10:04:41,-0.18897375,-0.6520424,-1.288257285,0.29238033,0.26093513,-0.015148894999999999,35.285906555000004,-22.74911344,-23.87959562,-68.37728,-1.202613743,-0.5975355305499999,-0.3320612485,0.11032096954499998,0.2715451335,-0.15792035882500002
10:04:41,-0.18985249999999998,-0.6631142,-1.28050433,0.29517154,0.25974194,-0.01519151,35.31446759000001,-22.72858972,-23.878641560000002,-68.38435,-1.1952253339999999,-0.6089063058999999,-0.334996793,0.11167832820999998,0.27047177299999997,-0.16079720285000002
10:04:41,-0.19073125,-0.674186,-1.272751375,0.29796275000000005,0.25854875,-0.015234125,35.343028625,-22.708066,-23.8776875,-68.39142,-1.187836925,-0.62027708125,-0.3379323375,0.11303568687499999,0.26939841249999996,-0.163674046875
10:04:41,-0.19161,-0.6852578,-1.26499842,0.30075396,0.25735556000000004,-0.01527674,35.371589660000005,-22.68754228,-23.876733440000002,-68.39849,-1.1804485159999998,-0.6316478565999999,-0.340867882,0.11439304553999999,0.268325052,-0.16655089090000003
10:04:41,-0.19248875,-0.6963296,-1.257245465,0.30354517000000003,0.25616237000000003,-0.015319355,35.400150695,-22.66701856,-23.87577938,-68.40556000000001,-1.173060107,-0.64301863195,-0.3438034265,0.11575040420499999,0.2672516915,-0.16942773492500002
10:04:41,-0.19336749999999997,-0.7074014,-1.24949251,0.30633638,0.25496918,-0.015361969999999999,35.42871173,-22.64649484,-23.874825320000003,-68.41263000000001,-1.165671698,-0.6543894072999998,-0.346738971,0.11710776286999998,0.266178331,-0.17230457895
10:04:41,-0.19424624999999998,-0.7184732,-1.241739555,0.30912759,0.25377599,-0.015404585,35.457272765000006,-22.62597112,-23.87387126,-68.4197,-1.1582832889999999,-0.6657601826499999,-0.3496745155,0.11846512153499998,0.2651049705,-0.17518142297500003
10:04:41,-0.195125,-0.729545,-1.2339866000000002,0.31191880000000005,0.2525828,-0.0154472,35.4858338,-22.6054474,-23.8729172,-68.42677,-1.15089488,-0.677130958,-0.35261006,0.11982248019999998,0.26403160999999997,-0.17805826700000002
10:04:41,-0.19600374999999998,-0.7406168,-1.2262336450000002,0.31471001,0.25138961000000004,-0.015489815,35.514394835000004,-22.58492368,-23.871963140000002,-68.43384,-1.1435064709999998,-0.6885017333499999,-0.3555456045,0.12117983886499999,0.26295824949999996,-0.180935111025
10:04:41,-0.1968825,-0.7516886,-1.21848069,0.31750122000000003,0.25019642000000003,-0.01553243,35.54295587,-22.56439996,-23.87100908,-68.44091,-1.136118062,-0.6998725087,-0.358481149,0.12253719752999999,0.26188488899999995,-0.18381195505000003
10:04:41,-0.19776125,-0.7627604,-1.210727735,0.32029243,0.24900323000000002,-0.015575045,35.571516905,-22.54387624,-23.870055020000002,-68.44798,-1.128729653,-0.7112432840499998,-0.3614166935,0.12389455619499998,0.2608115285,-0.18668879907500002
10:04:41,-0.19863999999999998,-0.7738322,-1.20297478,0.32308364,0.24781004,-0.01561766,35.600077940000006,-22.52335252,-23.86910096,-68.45505,-1.121341244,-0.7226140593999999,-0.36435223800000005,0.12525191485999998,0.259738168,-0.18956564310000001
10:04:41,-0.19951874999999997,-0.784904,-1.195221825,0.32587485000000005,0.24661685,-0.015660275,35.628638975,-22.5028288,-23.868146900000003,-68.46212,-1.113952835,-0.73398483475,-0.36728778250000005,0.12660927352499998,0.2586648075,-0.19244248712500003
10:04:41,-0.20039749999999998,-0.7959758,-1.18746887,0.32866606,0.24542366000000002,-0.01570289,35.657200010000004,-22.48230508,-23.86719284,-68.46919,-1.1065644259999998,-0.7453556100999998,-0.370223327,0.12796663218999998,0.257591447,-0.19531933115000003
10:04:41,-0.20127625,-0.8070476,-1.179715915,0.33145727,0.24423047000000003,-0.015745505,35.68576104500001,-22.46178136,-23.86623878,-68.47626,-1.099176017,-0.7567263854499999,-0.3731588715,0.129323990855,0.25651808649999996,-0.19819617517500004
10:04:41,-0.20215499999999997,-0.8181194,-1.17196296,0.33424848,0.24303728000000002,-0.01578812,35.71432208,-22.44125764,-23.865284720000002,-68.48333,-1.091787608,-0.7680971607999998,-0.376094416,0.13068134952,0.255444726,-0.20107301920000004
10:04:41,-0.20303374999999999,-0.8291912,-1.1642100050000002,0.33703969,0.24184409,-0.015830735,35.742883115000005,-22.42073392,-23.86433066,-68.49040000000001,-1.084399199,-0.7794679361499999,-0.3790299605,0.132038708185,0.25437136549999995,-0.20394986322500003
10:04:41,-0.2039125,-0.840263,-1.1564570500000002,0.33983090000000005,0.2406509,-0.01587335,35.77144415,-22.4002102,-23.863376600000002,-68.49747,-1.0770107899999999,-0.7908387115,-0.38196550500000004,0.13339606685,0.253298005,-0.20682670725000002
10:04:41,-0.20479124999999998,-0.8513348000000001,-1.148704095,0.34262211,0.23945771000000002,-0.015915965,35.800005185,-22.37968648,-23.86242254,-68.50454,-1.0696223809999998,-0.8022094868499998,-0.38490104950000004,0.134753425515,0.2522246445,-0.209703551275
10:04:41,-0.20566999999999996,-0.8624065999999999,-1.14095114,0.34541332,0.23826452,-0.01595858,35.828566220000006,-22.35916276,-23.861468480000003,-68.51161,-1.062233972,-0.8135802621999999,-0.38783659400000003,0.13611078418,0.251151284,-0.2125803953
10:04:41,-0.20654875,-0.8734784,-1.133198185,0.34820453000000007,0.23707133000000002,-0.016001195,35.857127255,-22.33863904,-23.86051442,-68.51868,-1.0548455629999998,-0.8249510375499998,-0.39077213850000003,0.13746814284499997,0.25007792349999997,-0.21545723932500005
10:04:41,-0.2074275,-0.8845502000000001,-1.12544523,0.35099574,0.23587814000000001,-0.01604381,35.885688290000004,-22.31811532,-23.85956036,-68.52575,-1.047457154,-0.8363218128999999,-0.39370768300000003,0.13882550150999998,0.24900456299999998,-0.21833408335000004
10:04:41,-0.20830624999999997,-0.8956219999999999,-1.117692275,0.35378695000000004,0.23468495,-0.016086425,35.914249325,-22.2975916,-23.8586063,-68.53282,-1.040068745,-0.8476925882499999,-0.39664322750000003,0.14018286017499998,0.24793120249999998,-0.22121092737500003
10:04:41,-0.20918499999999998,-0.9066938,-1.10993932,0.35657816,0.23349176000000002,-0.01612904,35.94281036,-22.27706788,-23.85765224,-68.53989,-1.0326803359999999,-0.8590633635999998,-0.399578772,0.14154021883999998,0.246857842,-0.22408777140000002
10:04:41,-0.21006375,-0.9177656000000001,-1.1021863650000001,0.35936937,0.23229857,-0.016171655,35.971371395000006,-22.25654416,-23.856698180000002,-68.54696,-1.025291927,-0.8704341389499999,-0.4025143165,0.14289757750499998,0.24578448149999998,-0.22696461542500002
10:04:41,-0.21094249999999998,-0.9288373999999999,-1.0944334100000002,0.36216058000000007,0.23110538000000003,-0.01621427,35.99993243,-22.236020439999997,-23.85574412,-68.55403,-1.0179035179999998,-0.8818049142999997,-0.405449861,0.14425493617,0.24471112099999998,-0.22984145945
10:04:41,-0.21182124999999996,-0.9399092,-1.0866804550000002,0.36495179,0.22991219000000002,-0.016256885,36.028493465000004,-22.215496719999997,-23.854790060000003,-68.5611,-1.010515109,-0.8931756896499998,-0.4083854055,0.145612294835,0.24363776049999997,-0.232718303475
10:04:41,-0.2127,-0.9509810000000001,-1.0789275,0.36774300000000004,0.228719,-0.0162995,36.05705450000001,-22.194972999999997,-23.853836,-68.56817000000001,-1.0031267,-0.9045464649999999,-0.41132095,0.1469696535,0.24256439999999999,-0.23559514750000005
10:04:41,-0.21357874999999998,-0.9620527999999999,-1.071174545,0.37053421,0.22752581,-0.016342115,36.085615535,-22.174449279999997,-23.85288194,-68.57524000000001,-0.9957382909999999,-0.9159172403499998,-0.4142564945,0.148327012165,0.24149103949999998,-0.23847199152500004
10:04:41,-0.21445749999999997,-0.9731246,-1.06342159,0.37332542,0.22633262,-0.01638473,36.114176570000005,-22.153925559999998,-23.85192788,-68.58231,-0.988349882,-0.9272880156999999,-0.417192039,0.14968437082999997,0.240417679,-0.24134883555000003
10:04:41,-0.21533624999999998,-0.9841964000000001,-1.055668635,0.37611663000000006,0.22513943000000003,-0.016427345,36.142737605,-22.133401839999998,-23.85097382,-68.58938,-0.9809614729999999,-0.9386587910499999,-0.4201275835,0.15104172949499997,0.2393443185,-0.24422567957500002
10:04:41,-0.216215,-0.9952681999999999,-1.04791568,0.37890784,0.22394624000000002,-0.01646996,36.17129864,-22.112878119999998,-23.850019760000002,-68.59645,-0.9735730639999999,-0.9500295663999998,-0.423063128,0.15239908815999997,0.23827095799999998,-0.2471025236
10:04:41,-0.21709374999999997,-1.00634,-1.040162725,0.38169905000000004,0.22275305,-0.016512575,36.199859675000006,-22.092354399999998,-23.8490657,-68.60352,-0.966184655,-0.9614003417499999,-0.4259986725,0.15375644682499998,0.23719759749999997,-0.249979367625
10:04:41,-0.21797249999999999,-1.0174118,-1.0324097700000001,0.38449026,0.22155986000000003,-0.01655519,36.22842071,-22.071830679999998,-23.848111640000003,-68.61059,-0.9587962459999999,-0.9727711170999997,-0.428934217,0.15511380548999998,0.236124237,-0.25285621165000005
10:04:41,-0.21885125,-1.0284836,-1.0246568150000002,0.38728147,0.22036667000000001,-0.016597805,36.256981745000004,-22.051306959999998,-23.84715758,-68.61766,-0.9514078369999999,-0.9841418924499998,-0.4318697615,0.15647116415499998,0.23505087649999998,-0.25573305567500004
10:04:41,-0.21972999999999998,-1.0395554,-1.0169038600000002,0.39007268000000006,0.21917348,-0.01664042,36.28554278,-22.030783239999998,-23.84620352,-68.62473,-0.9440194279999999,-0.9955126677999999,-0.434805306,0.15782852281999998,0.233977516,-0.25860989970000003
10:04:41,-0.22060874999999996,-1.0506272,-1.009150905,0.39286389,0.21798029000000002,-0.016683035,36.314103815,-22.010259519999998,-23.84524946,-68.6318,-0.9366310189999999,-1.0068834431499998,-0.4377408505,0.15918588148499999,0.2329041555,-0.261486743725
10:04:41,-0.22148749999999998,-1.061699,-1.00139795,0.39565510000000004,0.2167871,-0.01672565,36.342664850000006,-21.9897358,-23.8442954,-68.63887,-0.92924261,-1.0182542184999999,-0.440676395,0.16054324015,0.23183079499999998,-0.26436358775
10:04:41,-0.22236625,-1.0727708,-0.993644995,0.39844630999999997,0.21559391,-0.016768265,36.371225885,-21.96921208,-23.843341340000002,-68.64594,-0.9218542009999999,-1.02962499385,-0.4436119395,0.161900598815,0.23075743449999997,-0.267240431775
10:04:41,-0.22324499999999997,-1.0838426,-0.9858920400000001,0.40123752,0.21440072000000002,-0.01681088,36.399786920000004,-21.94868836,-23.84238728,-68.65301000000001,-0.9144657919999999,-1.0409957691999998,-0.446547484,0.16325795748,0.229684074,-0.27011727580000006
10:04:41,-0.22412374999999998,-1.0949144,-0.9781390850000001,0.40402873000000006,0.21320753,-0.016853495,36.42834795500001,-21.92816464,-23.841433220000003,-68.66008000000001,-0.907077383,-1.05236654455,-0.4494830285,0.16461531614499997,0.22861071349999998,-0.27299411982500005
10:04:41,-0.2250025,-1.1059862,-0.9703861300000001,0.40681994,0.21201434000000002,-0.01689611,36.45690899,-21.90764092,-23.84047916,-68.66715,-0.8996889739999999,-1.0637373198999998,-0.452418573,0.16597267480999997,0.227537353,-0.27587096385000004
10:04:41,-0.22588124999999998,-1.1170579999999999,-0.9626331750000001,0.40961115000000003,0.21082115,-0.016938725,36.485470025000005,-21.8871172,-23.8395251,-68.67422,-0.8923005649999999,-1.0751080952499998,-0.4553541175,0.16733003347499997,0.2264639925,-0.27874780787500003
10:04:41,-0.22675999999999996,-1.1281298,-0.9548802200000001,0.41240235999999997,0.20962796,-0.01698134,36.51403106,-21.86659348,-23.83857104,-68.68129,-0.884912156,-1.0864788706,-0.45828966200000004,0.16868739213999998,0.22539063199999998,-0.2816246519
10:04:41,-0.22763874999999997,-1.1392016,-0.9471272650000001,0.41519357,0.20843477000000002,-0.017023955,36.542592095,-21.84606976,-23.83761698,-68.68836,-0.8775237469999999,-1.0978496459499998,-0.46122520650000004,0.17004475080499998,0.22431727149999997,-0.284501495925
10:04:41,-0.22851749999999998,-1.1502734,-0.93937431,0.41798478000000006,0.20724158,-0.01706657,36.571153130000006,-21.82554604,-23.836662920000002,-68.69543,-0.8701353379999999,-1.1092204212999999,-0.46416075100000004,0.17140210946999998,0.223243911,-0.28737833995
10:04:41,-0.22939624999999997,-1.1613452,-0.9316213550000001,0.42077599,0.20604839000000003,-0.017109185,36.599714165,-21.80502232,-23.83570886,-68.7025,-0.8627469289999999,-1.1205911966499997,-0.46709629550000004,0.17275946813499998,0.22217055049999998,-0.29025518397500005
10:04:41,-0.23027499999999998,-1.172417,-0.9238684000000001,0.42356720000000003,0.20485520000000002,-0.017151800000000002,36.628275200000004,-21.7844986,-23.834754800000002,-68.70957,-0.8553585199999999,-1.1319619719999998,-0.47003184000000003,0.17411682679999999,0.22109718999999997,-0.29313202800000004
10:04:41,-0.23115375,-1.1834888,-0.9161154450000001,0.4263584100000001,0.20366201,-0.017194415,36.656836235,-21.76397488,-23.83380074,-68.71664,-0.8479701109999999,-1.14333274735,-0.47296738450000003,0.175474185465,0.2200238295,-0.29600887202500004
10:04:41,-0.23203249999999997,-1.1945606,-0.9083624900000001,0.42914962,0.20246882000000002,-0.01723703,36.68539727,-21.74345116,-23.83284668,-68.72371,-0.8405817019999999,-1.1547035226999998,-0.47590292900000003,0.17683154413,0.21895046899999998,-0.29888571605
10:04:41,-0.23291124999999996,-1.2056324,-0.9006095350000001,0.43194083000000005,0.20127563,-0.017279645,36.713958305000006,-21.72292744,-23.83189262,-68.73078,-0.8331932929999999,-1.1660742980499998,-0.47883847350000003,0.17818890279499996,0.21787710849999997,-0.301762560075
10:04:41,-0.23378999999999997,-1.2167042,-0.8928565800000001,0.43473204,0.20008244,-0.01732226,36.74251934,-21.70240372,-23.83093856,-68.73785000000001,-0.825804884,-1.1774450734,-0.481774018,0.17954626145999997,0.216803748,-0.3046394041
10:04:41,-0.23466874999999998,-1.227776,-0.8851036250000001,0.43752325000000003,0.19888925000000002,-0.017364875000000002,36.771080375000004,-21.68188,-23.829984500000002,-68.74492000000001,-0.8184164749999999,-1.1888158487499998,-0.4847095625,0.18090362012499997,0.21573038749999998,-0.30751624812500006
10:04:41,-0.23554749999999997,-1.2388478,-0.8773506700000001,0.4403144600000001,0.19769606,-0.017407489999999998,36.79964141000001,-21.66135628,-23.82903044,-68.75199,-0.8110280659999999,-1.2001866240999999,-0.487645107,0.18226097878999997,0.21465702699999997,-0.31039309215000005
10:04:41,-0.23642624999999998,-1.2499196,-0.869597715,0.44310567,0.19650287000000002,-0.017450105,36.828202445,-21.64083256,-23.828076380000002,-68.75906,-0.803639657,-1.2115573994499997,-0.4905806515,0.18361833745499997,0.2135836665,-0.31326993617500004
10:04:41,-0.237305,-1.2609914,-0.8618447600000001,0.44589688000000005,0.19530968,-0.01749272,36.856763480000005,-21.62030884,-23.82712232,-68.76613,-0.7962512479999999,-1.2229281747999998,-0.493516196,0.18497569611999998,0.21251030599999998,-0.31614678020000003
10:04:41,-0.23818374999999997,-1.2720632,-0.8540918050000001,0.44868809,0.19411649,-0.017535335,36.885324515,-21.59978512,-23.82616826,-68.7732,-0.7888628389999999,-1.23429895015,-0.4964517405,0.18633305478499998,0.21143694549999997,-0.319023624225
10:04:41,-0.23906249999999996,-1.283135,-0.8463388500000002,0.45147930000000003,0.19292330000000002,-0.017577950000000002,36.91388555,-21.5792614,-23.8252142,-68.78027,-0.7814744299999999,-1.2456697254999998,-0.499387285,0.18769041344999998,0.210363585,-0.32190046825
10:04:41,-0.23994124999999997,-1.2942068,-0.838585895,0.45427051000000007,0.19173011,-0.017620564999999998,36.942446585000006,-21.55873768,-23.82426014,-68.78734,-0.7740860209999999,-1.2570405008499999,-0.5023228295,0.18904777211499998,0.20929022449999998,-0.324777312275
10:04:41,-0.24081999999999998,-1.3052786,-0.8308329400000001,0.45706172,0.19053692000000003,-0.01766318,36.97100762,-21.53821396,-23.823306080000002,-68.79441,-0.7666976119999999,-1.2684112761999997,-0.5052583740000001,0.19040513078,0.20821686399999997,-0.32765415630000005
10:04:41,-0.24169874999999996,-1.3163504,-0.8230799850000001,0.45985293000000005,0.18934373000000002,-0.017705795,36.999568655000004,-21.51769024,-23.82235202,-68.80148,-0.7593092029999999,-1.2797820515499998,-0.5081939185,0.191762489445,0.2071435035,-0.33053100032500005
10:04:41,-0.24257749999999997,-1.3274222,-0.8153270300000002,0.46264414,0.18815054,-0.01774841,37.02812969,-21.49716652,-23.821397960000002,-68.80855,-0.7519207939999999,-1.2911528268999999,-0.5111294630000001,0.19311984810999996,0.20607014299999998,-0.33340784435000004
10:04:41,-0.24345624999999999,-1.338494,-0.807574075,0.46543535,0.18695735000000002,-0.017791025,37.056690725,-21.4766428,-23.8204439,-68.81562,-0.744532385,-1.3025236022499997,-0.5140650075,0.19447720677499997,0.20499678249999997,-0.33628468837500003
10:04:41,-0.24433499999999997,-1.3495658,-0.79982112,0.46822656000000007,0.18576416,-0.017833639999999998,37.085251760000006,-21.45611908,-23.81948984,-68.82269000000001,-0.7371439759999998,-1.3138943775999998,-0.5170005520000001,0.19583456543999997,0.203923422,-0.3391615324
10:04:41,-0.24521374999999995,-1.3606376,-0.7920681650000001,0.47101777,0.18457097,-0.017876255,37.113812795,-21.43559536,-23.81853578,-68.82976000000001,-0.729755567,-1.32526515295,-0.5199360965,0.19719192410499997,0.20285006149999998,-0.342038376425
10:04:41,-0.2460925,-1.3717094,-0.7843152100000002,0.47380898000000005,0.18337778000000002,-0.01791887,37.142373830000004,-21.41507164,-23.81758172,-68.83683,-0.722367158,-1.3366359282999998,-0.522871641,0.19854928276999997,0.20177670099999997,-0.34491522045000006
10:04:41,-0.24697124999999998,-1.3827812,-0.7765622550000002,0.47660019,0.18218459,-0.017961485,37.17093486500001,-21.39454792,-23.81662766,-68.8439,-0.7149787489999999,-1.3480067036499999,-0.5258071854999999,0.19990664143499998,0.2007033405,-0.34779206447500005
10:04:41,-0.24784999999999996,-1.393853,-0.7688093,0.4793914,0.18099140000000002,-0.0180041,37.1994959,-21.3740242,-23.8156736,-68.85097,-0.7075903399999999,-1.3593774789999997,-0.52874273,0.20126400009999998,0.19962997999999998,-0.35066890850000004
10:04:41,-0.24872874999999997,-1.4049248,-0.7610563450000001,0.48218261000000007,0.17979821,-0.018046714999999998,37.228056935000005,-21.353500479999997,-23.814719540000002,-68.85804,-0.7002019309999998,-1.3707482543499998,-0.5316782745,0.20262135876499998,0.19855661949999998,-0.35354575252500003
10:04:41,-0.24960749999999998,-1.4159966,-0.7533033900000001,0.48497382,0.17860502,-0.01808933,37.25661797,-21.332976759999998,-23.81376548,-68.86511,-0.692813522,-1.3821190297,-0.534613819,0.20397871742999998,0.197483259,-0.35642259655
10:04:41,-0.25048624999999997,-1.4270684,-0.7455504350000002,0.48776503000000004,0.17741183000000002,-0.018131945,37.285179005,-21.312453039999998,-23.81281142,-68.87218,-0.685425113,-1.3934898050499998,-0.5375493635,0.205336076095,0.19640989849999999,-0.359299440575
10:04:41,-0.25136499999999995,-1.4381401999999999,-0.73779748,0.49055624,0.17621864,-0.01817456,37.313740040000006,-21.291929319999998,-23.81185736,-68.87925,-0.6780367039999999,-1.4048605803999998,-0.540484908,0.20669343475999996,0.19533653799999998,-0.3621762846
10:04:41,-0.25224375,-1.449212,-0.730044525,0.49334745,0.17502545000000003,-0.018217175,37.342301075,-21.271405599999998,-23.8109033,-68.88632,-0.6706482949999999,-1.4162313557499997,-0.5434204525,0.20805079342499996,0.1942631775,-0.36505312862500006
10:04:41,-0.2531225,-1.4602838,-0.7222915700000001,0.49613866000000006,0.17383226000000002,-0.018259789999999998,37.370862110000004,-21.250881879999998,-23.80994924,-68.89339,-0.6632598859999999,-1.4276021310999998,-0.546355997,0.20940815208999997,0.19318981699999999,-0.36792997265000005
10:04:41,-0.25400124999999996,-1.4713555999999999,-0.7145386150000002,0.49892987,0.17263907,-0.018302405,37.399423145,-21.230358159999998,-23.80899518,-68.90046000000001,-0.6558714769999998,-1.4389729064499999,-0.5492915415,0.21076551075499997,0.19211645649999998,-0.37080681667500004
10:04:41,-0.25488,-1.4824274,-0.7067856600000002,0.50172108,0.17144588000000002,-0.01834502,37.42798418,-21.209834439999998,-23.808041120000002,-68.90753000000001,-0.648483068,-1.4503436817999997,-0.552227086,0.21212286941999997,0.191043096,-0.37368366070000003
10:04:41,-0.25575875,-1.4934992,-0.699032705,0.50451229,0.17025269,-0.018387635,37.456545215000006,-21.189310719999998,-23.80708706,-68.91460000000001,-0.641094659,-1.4617144571499998,-0.5551626305,0.21348022808499997,0.1899697355,-0.376560504725
10:04:41,-0.25663749999999996,-1.5045709999999999,-0.6912797500000001,0.5073035,0.1690595,-0.01843025,37.48510625,-21.168787,-23.806133000000003,-68.92167,-0.6337062499999999,-1.4730852325,-0.558098175,0.21483758674999998,0.18889637499999998,-0.37943734875
10:04:41,-0.25751624999999995,-1.5156428,-0.6835267950000001,0.5100947100000001,0.16786631000000002,-0.018472864999999998,37.513667285000004,-21.14826328,-23.80517894,-68.92874,-0.6263178409999999,-1.4844560078499998,-0.5610337195,0.21619494541499998,0.1878230145,-0.38231419277500006
10:04:41,-0.258395,-1.5267146,-0.6757738400000002,0.51288592,0.16667312,-0.01851548,37.54222832000001,-21.12773956,-23.80422488,-68.93581,-0.6189294319999998,-1.4958267831999998,-0.563969264,0.21755230407999998,0.186749654,-0.38519103680000005
10:04:41,-0.25927374999999997,-1.5377863999999999,-0.6680208850000002,0.51567713,0.16547993000000003,-0.018558095,37.570789355,-21.10721584,-23.80327082,-68.94288,-0.6115410229999998,-1.5071975585499997,-0.5669048085,0.21890966274499998,0.18567629349999998,-0.38806788082500004
10:04:41,-0.26015249999999995,-1.5488582,-0.6602679300000001,0.51846834,0.16428674000000001,-0.01860071,37.599350390000005,-21.08669212,-23.80231676,-68.94995,-0.604152614,-1.5185683338999998,-0.569840353,0.22026702140999999,0.184602933,-0.39094472485000004
10:04:41,-0.26103125,-1.55993,-0.6525149750000001,0.52125955,0.16309355,-0.018643325,37.627911425,-21.0661684,-23.801362700000002,-68.95702,-0.5967642049999999,-1.5299391092499999,-0.5727758975,0.22162438007499996,0.1835295725,-0.393821568875
10:04:41,-0.26191,-1.5710018,-0.6447620200000002,0.5240507600000001,0.16190036000000002,-0.018685939999999998,37.65647246,-21.04564468,-23.80040864,-68.96409,-0.5893757959999999,-1.5413098845999997,-0.575711442,0.22298173873999996,0.18245621199999998,-0.3966984129
10:04:41,-0.26278874999999996,-1.5820736,-0.6370090650000002,0.52684197,0.16070717,-0.018728555,37.685033495000006,-21.02512096,-23.799454580000003,-68.97116,-0.5819873869999999,-1.5526806599499998,-0.5786469865,0.22433909740499997,0.1813828515,-0.39957525692500007
10:04:41,-0.26366749999999994,-1.5931454,-0.62925611,0.52963318,0.15951398,-0.01877117,37.71359453,-21.00459724,-23.79850052,-68.97823,-0.5745989779999998,-1.5640514353,-0.581582531,0.22569645606999997,0.180309491,-0.40245210095000006
10:04:41,-0.26454625,-1.6042172,-0.6215031550000001,0.5324243900000001,0.15832079000000002,-0.018813785,37.742155565000004,-20.98407352,-23.79754646,-68.98530000000001,-0.567210569,-1.5754222106499998,-0.5845180755,0.22705381473499997,0.17923613049999998,-0.40532894497500005
10:04:41,-0.26542499999999997,-1.615289,-0.6137502000000001,0.5352156,0.1571276,-0.0188564,37.7707166,-20.9635498,-23.7965924,-68.99237000000001,-0.55982216,-1.5867929859999998,-0.58745362,0.22841117339999997,0.17816276999999997,-0.40820578900000004
10:04:41,-0.26630374999999995,-1.6263608,-0.6059972450000002,0.5380068100000001,0.15593441000000002,-0.018899014999999998,37.799277635,-20.94302608,-23.79563834,-68.99944,-0.5524337509999999,-1.5981637613499997,-0.5903891645,0.22976853206499998,0.1770894095,-0.41108263302500003
10:04:41,-0.2671825,-1.6374326,-0.5982442900000002,0.54079802,0.15474122,-0.01894163,37.827838670000006,-20.92250236,-23.794684280000002,-69.00651,-0.5450453419999999,-1.6095345366999998,-0.593324709,0.23112589072999998,0.17601604899999998,-0.41395947705
10:04:41,-0.26806125,-1.6485044,-0.5904913350000001,0.54358923,0.15354803,-0.018984245,37.856399705,-20.90197864,-23.79373022,-69.01358,-0.5376569329999998,-1.6209053120499999,-0.5962602535,0.23248324939499998,0.17494268849999997,-0.416836321075
10:04:41,-0.26893999999999996,-1.6595762,-0.5827383800000001,0.5463804400000001,0.15235484000000002,-0.01902686,37.884960740000004,-20.88145492,-23.792776160000003,-69.02065,-0.5302685239999998,-1.6322760873999997,-0.599195798,0.23384060805999998,0.173869328,-0.41971316510000006
10:04:41,-0.26981874999999994,-1.670648,-0.5749854250000002,0.54917165,0.15116165,-0.019069475,37.91352177500001,-20.8609312,-23.7918221,-69.02772,-0.522880115,-1.6436468627499998,-0.6021313425,0.23519796672499999,0.17279596749999998,-0.42259000912500005
10:04:41,-0.2706975,-1.6817198,-0.5672324700000002,0.55196286,0.14996846000000003,-0.019112089999999998,37.94208281,-20.84040748,-23.79086804,-69.03479,-0.5154917059999999,-1.6550176380999997,-0.605066887,0.23655532538999996,0.17172260699999997,-0.42546685315000005
10:04:41,-0.27157624999999996,-1.6927916,-0.559479515,0.55475407,0.14877527000000002,-0.019154705,37.970643845000005,-20.81988376,-23.78991398,-69.04186,-0.5081032969999999,-1.6663884134499998,-0.6080024315000001,0.23791268405499996,0.1706492465,-0.42834369717500004
10:04:41,-0.27245499999999995,-1.7038634,-0.5517265600000001,0.55754528,0.14758208,-0.01919732,37.99920488,-20.79936004,-23.78895992,-69.04893,-0.5007148879999999,-1.6777591887999999,-0.610937976,0.23927004271999996,0.16957588599999998,-0.43122054120000003
10:04:41,-0.27333375,-1.7149352,-0.5439736050000001,0.5603364900000001,0.14638889000000002,-0.019239935,38.027765915,-20.77883632,-23.788005860000002,-69.056,-0.4933264789999998,-1.6891299641499997,-0.6138735205000001,0.24062740138499997,0.16850252549999997,-0.434097385225
10:04:41,-0.27421249999999997,-1.726007,-0.5362206500000002,0.5631277,0.1451957,-0.01928255,38.056326950000006,-20.7583126,-23.7870518,-69.06307,-0.48593807,-1.7005007394999998,-0.616809065,0.24198476004999997,0.167429165,-0.43697422925000007
10:04:41,-0.27509124999999995,-1.7370788,-0.5284676950000002,0.56591891,0.14400251,-0.019325165,38.084887985,-20.73778888,-23.786097740000002,-69.07014000000001,-0.47854966099999996,-1.7118715148499999,-0.6197446095,0.24334211871499997,0.16635580449999998,-0.43985107327500006
10:04:41,-0.27596999999999994,-1.7481506,-0.5207147400000001,0.56871012,0.14280932000000002,-0.01936778,38.113449020000004,-20.71726516,-23.78514368,-69.07721000000001,-0.4711612519999999,-1.7232422901999997,-0.622680154,0.24469947737999997,0.16528244399999997,-0.44272791730000005
10:04:41,-0.27684875,-1.7592224,-0.5129617850000001,0.57150133,0.14161613,-0.019410395,38.142010055,-20.69674144,-23.78418962,-69.08428,-0.4637728429999999,-1.7346130655499998,-0.6256156985,0.24605683604499998,0.1642090835,-0.44560476132500004
10:04:41,-0.27772749999999996,-1.7702942,-0.5052088300000002,0.5742925400000001,0.14042294000000002,-0.01945301,38.17057109,-20.67621772,-23.78323556,-69.09135,-0.45638443399999984,-1.7459838408999997,-0.628551243,0.24741419470999998,0.16313572299999998,-0.4484816053500001
10:04:41,-0.27860624999999994,-1.781366,-0.4974558750000002,0.57708375,0.13922975,-0.019495625,38.199132125000006,-20.655693999999997,-23.7822815,-69.09842,-0.4489960249999998,-1.7573546162499998,-0.6314867875,0.24877155337499998,0.16206236249999997,-0.4513584493750001
10:04:41,-0.279485,-1.7924378,-0.48970292000000026,0.57987496,0.13803656,-0.01953824,38.22769316,-20.635170279999997,-23.781327440000002,-69.10549,-0.441607616,-1.7687253915999996,-0.634422332,0.25012891204,0.160989002,-0.4542352934000001
10:04:41,-0.28036374999999997,-1.8035096,-0.4819499650000001,0.58266617,0.13684337000000002,-0.019580855,38.256254195000004,-20.614646559999997,-23.78037338,-69.11256,-0.43421920699999994,-1.7800961669499997,-0.6373578765,0.25148627070499996,0.15991564149999998,-0.45711213742500006
10:04:41,-0.28124249999999995,-1.8145814,-0.47419701000000014,0.58545738,0.13565018,-0.01962347,38.28481523000001,-20.594122839999997,-23.779419320000002,-69.11963,-0.4268307979999999,-1.7914669422999998,-0.640293421,0.25284362937,0.15884228099999997,-0.45998898145000006
10:04:41,-0.28212124999999993,-1.8256531999999999,-0.4664440550000002,0.5882485900000001,0.13445699000000003,-0.019666085,38.313376265,-20.573599119999997,-23.77846526,-69.1267,-0.41944238899999986,-1.80283771765,-0.6432289655,0.25420098803499996,0.1577689205,-0.46286582547500005
10:04:41,-0.283,-1.836725,-0.45869110000000024,0.5910398,0.13326380000000002,-0.0197087,38.341937300000005,-20.553075399999997,-23.7775112,-69.13377,-0.4120539799999998,-1.814208493,-0.6461645100000001,0.2555583467,0.15669555999999998,-0.46574266950000004
10:04:41,-0.28387874999999996,-1.8477967999999998,-0.45093814500000007,0.59383101,0.13207061,-0.019751315,38.370498335,-20.532551679999997,-23.77655714,-69.14084,-0.404665571,-1.8255792683499996,-0.6491000545000001,0.25691570536499997,0.15562219949999997,-0.46861951352500003
10:04:41,-0.28475749999999994,-1.8588686,-0.4431851900000001,0.59662222,0.13087742000000002,-0.01979393,38.39905937,-20.512027959999998,-23.77560308,-69.14791,-0.39727716199999996,-1.8369500436999997,-0.6520355990000001,0.25827306403,0.154548839,-0.47149635755
10:04:41,-0.28563625,-1.8699404,-0.43543223500000017,0.59941343,0.12968423,-0.019836545,38.427620405000006,-20.491504239999998,-23.774649020000002,-69.15498000000001,-0.3898887529999999,-1.8483208190499998,-0.6549711435000001,0.259630422695,0.15347547849999998,-0.474373201575
10:04:41,-0.28651499999999996,-1.8810121999999998,-0.4276792800000002,0.60220464,0.12849104,-0.01987916,38.45618144,-20.470980519999998,-23.77369496,-69.16205000000001,-0.3825003439999999,-1.8596915943999999,-0.6579066880000001,0.26098778136,0.15240211799999998,-0.4772500456
10:04:41,-0.28739374999999995,-1.892084,-0.41992632500000027,0.60499585,0.12729785000000002,-0.019921775,38.484742475000004,-20.450456799999998,-23.772740900000002,-69.16912,-0.37511193499999984,-1.87106236975,-0.6608422325000001,0.262345140025,0.1513287575,-0.480126889625
10:04:41,-0.2882725,-1.9031558,-0.4121733700000001,0.60778706,0.12610466,-0.01996439,38.51330351,-20.429933079999998,-23.77178684,-69.17619,-0.3677235259999998,-1.8824331450999996,-0.6637777770000001,0.26370249868999995,0.15025539699999998,-0.4830037336500001
10:04:41,-0.28915124999999997,-1.9142275999999998,-0.40442041500000014,0.61057827,0.12491147000000002,-0.020007005,38.541864545,-20.409409359999998,-23.77083278,-69.18326,-0.360335117,-1.8938039204499997,-0.6667133215000001,0.265059857355,0.14918203649999998,-0.4858805776750001
10:04:41,-0.29002999999999995,-1.9252994,-0.3966674600000002,0.61336948,0.12371828000000001,-0.020049619999999997,38.570425580000006,-20.388885639999998,-23.76987872,-69.19033,-0.35294670799999994,-1.9051746957999998,-0.6696488660000001,0.26641721601999996,0.148108676,-0.4887574217000001
10:04:41,-0.29090874999999994,-1.9363712,-0.38891450500000024,0.61616069,0.12252509,-0.020092235,38.598986615,-20.368361919999998,-23.76892466,-69.1974,-0.3455582989999999,-1.9165454711499998,-0.6725844105000001,0.267774574685,0.14703531549999999,-0.4916342657250001
10:04:41,-0.2917875,-1.9474429999999998,-0.38116155000000007,0.6189519,0.12133190000000002,-0.02013485,38.627547650000004,-20.347838199999998,-23.7679706,-69.20447,-0.33816988999999986,-1.9279162465,-0.6755199550000001,0.26913193334999996,0.14596195499999998,-0.49451110975000007
10:04:41,-0.29266624999999996,-1.9585148000000001,-0.3734085950000001,0.62174311,0.12013871000000001,-0.020177465,38.65610868500001,-20.32731448,-23.76701654,-69.21154,-0.3307814809999998,-1.9392870218499996,-0.6784554995000001,0.270489292015,0.1448885945,-0.49738795377500006
10:04:41,-0.29354499999999994,-1.9695866,-0.36565564000000017,0.62453432,0.11894552000000003,-0.02022008,38.68466972,-20.30679076,-23.766062480000002,-69.21861,-0.3233930719999998,-1.9506577971999997,-0.6813910440000001,0.27184665067999997,0.143815234,-0.5002647978000001
10:04:41,-0.29442375,-1.9806583999999998,-0.3579026850000002,0.62732553,0.11775233000000002,-0.020262694999999997,38.713230755000005,-20.28626704,-23.76510842,-69.22568,-0.31600466299999996,-1.9620285725499997,-0.6843265885,0.27320400934499994,0.14274187349999998,-0.5031416418250001
10:04:41,-0.29530249999999997,-1.9917302000000001,-0.35014973000000027,0.63011674,0.11655914,-0.02030531,38.74179179,-20.26574332,-23.76415436,-69.23275000000001,-0.3086162539999999,-1.9733993478999998,-0.687262133,0.27456136801,0.141668513,-0.5060184858500001
10:04:41,-0.29618124999999995,-2.002802,-0.3423967750000001,0.63290795,0.11536595000000002,-0.020347925,38.770352825,-20.2452196,-23.7632003,-69.23982000000001,-0.3012278449999999,-1.98477012325,-0.6901976775,0.27591872667499995,0.1405951525,-0.5088953298750001
10:04:41,-0.29705999999999994,-2.0138738,-0.33464382000000015,0.63569916,0.11417276000000001,-0.02039054,38.798913860000006,-20.22469588,-23.76224624,-69.24689000000001,-0.29383943599999984,-1.9961408985999995,-0.693133222,0.27727608534,0.13952179199999998,-0.5117721739000001
10:04:41,-0.29793875,-2.0249456,-0.3268908650000002,0.63849037,0.11297957,-0.020433155,38.827474895,-20.20417216,-23.76129218,-69.25396,-0.2864510269999998,-2.00751167395,-0.6960687665,0.27863344400499995,0.1384484315,-0.5146490179250001
10:04:41,-0.29881749999999996,-2.0360174,-0.31913791000000025,0.64128158,0.11178638000000002,-0.020475769999999997,38.856035930000004,-20.18364844,-23.76033812,-69.26103,-0.279062618,-2.0188824493,-0.699004311,0.27999080267,0.137375071,-0.51752586195
10:04:41,-0.29969624999999994,-2.0470892,-0.3113849550000001,0.64407279,0.11059319000000001,-0.020518385,38.884596965,-20.16312472,-23.759384060000002,-69.2681,-0.27167420899999994,-2.03025322465,-0.7019398555,0.28134816133499996,0.13630171049999998,-0.520402705975
10:04:42,-0.300575,-2.058161,-0.303632,0.646864,0.1094,-0.020561,38.913158,-20.142601,-23.75843,-69.27517,-0.2642858,-2.041624,-0.7048754,0.28270552,0.13522835,-0.52327955
10:04:42,-0.30425457,-2.0373745000000003,-0.30037368000000003,0.647950655,0.10746639,-0.0228515,38.942838045,-20.141821465,-23.75483633,-69.18208753,-0.267147132,-2.023049997,-0.6929268740000001,0.28145124885,0.134730373015,-0.52565782475
10:04:42,-0.30793413999999997,-2.016588,-0.29711536,0.64903731,0.10553277999999999,-0.025141999999999998,38.97251809,-20.14104193,-23.75124266,-69.08900506,-0.270008464,-2.0044759940000003,-0.680978348,0.28019697769999996,0.13423239603,-0.5280360995000001
10:04:42,-0.31161371,-1.9958015000000002,-0.29385704,0.650123965,0.10359916999999999,-0.0274325,39.002198135,-20.140262395,-23.747648990000002,-68.99592259,-0.272869796,-1.9859019910000002,-0.669029822,0.27894270655,0.133734419045,-0.53041437425
10:04:42,-0.31529327999999995,-1.9750150000000002,-0.29059872000000003,0.65121062,0.10166556,-0.029723,39.03187818,-20.139482859999998,-23.74405532,-68.90284012000001,-0.275731128,-1.967327988,-0.6570812960000001,0.2776884354,0.13323644206,-0.532792649
10:04:42,-0.31897285,-1.9542285000000001,-0.2873404,0.652297275,0.09973195,-0.0320135,39.061558225000006,-20.138703324999998,-23.74046165,-68.80975765000001,-0.27859246000000004,-1.9487539850000002,-0.64513277,0.27643416425,0.132738465075,-0.5351709237500001
10:04:42,-0.32265242,-1.933442,-0.28408208,0.65338393,0.09779834,-0.034304,39.091238270000005,-20.13792379,-23.73686798,-68.71667518,-0.28145379200000004,-1.930179982,-0.6331842440000001,0.27517989309999996,0.13224048809,-0.5375491985
10:04:42,-0.32633198999999996,-1.9126555,-0.28082376000000003,0.654470585,0.09586473,-0.0365945,39.120918315000004,-20.137144255,-23.733274310000002,-68.62359271,-0.28431512400000003,-1.9116059790000002,-0.6212357180000001,0.27392562195,0.131742511105,-0.53992747325
10:04:42,-0.33001156,-1.8918690000000002,-0.27756544,0.65555724,0.09393111999999999,-0.038885,39.150598360000004,-20.13636472,-23.72968064,-68.53051024,-0.287176456,-1.893031976,-0.609287192,0.2726713508,0.13124453412,-0.5423057480000001
10:04:42,-0.33369112999999995,-1.8710825000000002,-0.27430712,0.656643895,0.09199751,-0.041175500000000004,39.180278405,-20.135585185,-23.72608697,-68.43742777,-0.290037788,-1.8744579730000002,-0.5973386660000001,0.27141707965,0.130746557135,-0.54468402275
10:04:42,-0.33737069999999997,-1.8502960000000002,-0.2710488,0.65773055,0.0900639,-0.043466000000000005,39.20995845,-20.13480565,-23.7224933,-68.3443453,-0.29289912,-1.85588397,-0.58539014,0.27016280849999996,0.13024858015,-0.5470622975
10:04:42,-0.34105027,-1.8295095000000001,-0.26779048,0.658817205,0.08813029,-0.0457565,39.239638495,-20.134026114999998,-23.71889963,-68.25126283,-0.295760452,-1.8373099670000002,-0.573441614,0.26890853735,0.129750603165,-0.54944057225
10:04:42,-0.34472983999999995,-1.808723,-0.26453216,0.65990386,0.08619668,-0.048047,39.26931854,-20.133246579999998,-23.715305960000002,-68.15818036,-0.298621784,-1.818735964,-0.5614930880000001,0.2676542662,0.12925262618,-0.5518188470000001
10:04:42,-0.34840941,-1.7879365000000003,-0.26127384,0.660990515,0.08426307,-0.0503375,39.298998585,-20.132467045,-23.71171229,-68.06509789,-0.301483116,-1.8001619610000001,-0.549544562,0.26639999505,0.128754649195,-0.55419712175
10:04:42,-0.35208898,-1.76715,-0.25801552,0.66207717,0.08232946,-0.052627999999999994,39.328678630000006,-20.13168751,-23.70811862,-67.97201542,-0.304344448,-1.781587958,-0.537596036,0.26514572389999996,0.12825667221,-0.5565753965
10:04:42,-0.35576854999999996,-1.7463635000000002,-0.2547572,0.663163825,0.08039584999999999,-0.054918499999999995,39.358358675000005,-20.130907975,-23.70452495,-67.87893295,-0.30720578,-1.7630139550000001,-0.52564751,0.26389145275,0.127758695225,-0.5589536712500001
10:04:42,-0.35944812,-1.7255770000000001,-0.25149888,0.66425048,0.07846223999999999,-0.057208999999999996,39.388038720000004,-20.13012844,-23.70093128,-67.78585048000001,-0.31006711200000003,-1.744439952,-0.513698984,0.2626371816,0.12726071824,-0.561331946
10:04:42,-0.36312769,-1.7047905,-0.24824056,0.665337135,0.07652862999999999,-0.0594995,39.417718765000004,-20.129348905,-23.69733761,-67.69276801000001,-0.31292844400000003,-1.7258659490000001,-0.5017504580000001,0.26138291045,0.126762741255,-0.56371022075
10:04:42,-0.36680725999999997,-1.6840040000000003,-0.24498224000000002,0.66642379,0.07459502,-0.06179,39.44739881,-20.128569369999997,-23.69374394,-67.59968554,-0.315789776,-1.707291946,-0.48980193200000005,0.26012863929999996,0.12626476427,-0.5660884955000001
10:04:42,-0.37048683,-1.6632175,-0.24172392,0.667510445,0.07266141,-0.0640805,39.477078855,-20.127789834999998,-23.69015027,-67.50660307,-0.318651108,-1.688717943,-0.47785340600000004,0.25887436815,0.125766787285,-0.56846677025
10:04:42,-0.37416639999999995,-1.6424310000000002,-0.2384656,0.6685970999999999,0.0707278,-0.066371,39.5067589,-20.1270103,-23.6865566,-67.4135206,-0.32151244,-1.67014394,-0.4659048800000001,0.257620097,0.1252688103,-0.570845045
10:04:42,-0.37784597,-1.6216445000000002,-0.23520728000000002,0.669683755,0.06879419,-0.0686615,39.536438945,-20.126230765,-23.682962930000002,-67.32043813,-0.324373772,-1.651569937,-0.45395635400000006,0.25636582585,0.124770833315,-0.5732233197500001
10:04:42,-0.38152553999999994,-1.6008580000000001,-0.23194896,0.67077041,0.06686058,-0.070952,39.56611899,-20.12545123,-23.67936926,-67.22735566,-0.327235104,-1.632995934,-0.44200782800000005,0.25511155469999997,0.12427285633,-0.5756015945
10:04:42,-0.38520510999999996,-1.5800715,-0.22869064,0.671857065,0.06492697,-0.0732425,39.595799035000006,-20.124671695,-23.67577559,-67.13427319,-0.330096436,-1.614421931,-0.43005930200000003,0.25385728355,0.123774879345,-0.57797986925
10:04:42,-0.38888468,-1.559285,-0.22543232000000002,0.67294372,0.06299336,-0.075533,39.625479080000005,-20.12389216,-23.67218192,-67.04119072,-0.332957768,-1.595847928,-0.4181107760000001,0.2526030124,0.12327690236,-0.5803581440000001
10:04:42,-0.39256424999999995,-1.5384985000000002,-0.222174,0.674030375,0.061059749999999996,-0.0778235,39.655159125000004,-20.123112624999997,-23.66858825,-66.94810825,-0.33581910000000004,-1.577273925,-0.40616225000000006,0.25134874125,0.122778925375,-0.58273641875
10:04:42,-0.39624381999999997,-1.5177120000000002,-0.21891568,0.67511703,0.059126139999999994,-0.080114,39.684839170000004,-20.122333089999998,-23.664994580000002,-66.85502578,-0.33868043200000003,-1.5586999220000002,-0.39421372400000004,0.25009447009999997,0.12228094839,-0.5851146935
10:04:42,-0.39992339,-1.4969255000000001,-0.21565736000000002,0.6762036849999999,0.05719252999999999,-0.0824045,39.714519215,-20.121553555,-23.66140091,-66.76194331,-0.341541764,-1.540125919,-0.3822651980000001,0.24884019894999998,0.121782971405,-0.5874929682500001
10:04:42,-0.40360295999999996,-1.476139,-0.21239904,0.67729034,0.055258919999999996,-0.08469499999999999,39.74419926,-20.12077402,-23.65780724,-66.66886084000001,-0.344403096,-1.521551916,-0.37031667200000007,0.2475859278,0.12128499442,-0.589871243
10:04:42,-0.40728253,-1.4553525,-0.20914072,0.678376995,0.053325309999999994,-0.0869855,39.773879305,-20.119994485,-23.65421357,-66.57577837000001,-0.347264428,-1.502977913,-0.35836814600000005,0.24633165664999998,0.120787017435,-0.59224951775
10:04:42,-0.4109621,-1.4345660000000002,-0.20588240000000002,0.67946365,0.05139169999999999,-0.089276,39.80355935,-20.11921495,-23.6506199,-66.4826959,-0.35012576,-1.4844039100000002,-0.34641962000000004,0.2450773855,0.12028904045,-0.5946277925000001
10:04:42,-0.41464166999999996,-1.4137795000000002,-0.20262407999999998,0.680550305,0.049458089999999996,-0.0915665,39.833239395,-20.118435415,-23.64702623,-66.38961343,-0.352987092,-1.465829907,-0.3344710940000001,0.24382311434999998,0.119791063465,-0.59700606725
10:04:42,-0.41832124,-1.3929930000000001,-0.19936576,0.68163696,0.047524479999999994,-0.093857,39.862919440000006,-20.11765588,-23.64343256,-66.29653096,-0.355848424,-1.447255904,-0.32252256800000006,0.2425688432,0.11929308648,-0.599384342
10:04:42,-0.42200080999999995,-1.3722065,-0.19610744000000002,0.682723615,0.04559086999999999,-0.0961475,39.892599485000005,-20.116876344999998,-23.63983889,-66.20344849,-0.358709756,-1.428681901,-0.31057404200000005,0.24131457204999998,0.118795109495,-0.6017626167500001
10:04:42,-0.42568037999999997,-1.35142,-0.19284911999999998,0.6838102699999999,0.04365725999999999,-0.098438,39.922279530000004,-20.11609681,-23.63624522,-66.11036602,-0.36157108800000004,-1.4101078980000001,-0.2986255160000001,0.2400603009,0.11829713251,-0.6041408915
10:04:42,-0.42935994999999993,-1.3306335000000002,-0.1895908,0.684896925,0.04172364999999999,-0.1007285,39.951959575000004,-20.115317275,-23.632651550000002,-66.01728355,-0.36443242,-1.391533895,-0.2866769900000001,0.23880602974999998,0.117799155525,-0.60651916625
10:04:42,-0.43303951999999996,-1.3098470000000002,-0.18633248,0.68598358,0.03979004,-0.103019,39.98163962,-20.11453774,-23.62905788,-65.92420108,-0.36729375200000003,-1.372959892,-0.27472846400000006,0.2375517586,0.11730117854,-0.608897441
10:04:42,-0.43671909,-1.2890605000000002,-0.18307415999999999,0.687070235,0.037856429999999996,-0.1053095,40.011319665,-20.113758205,-23.62546421,-65.83111861,-0.370155084,-1.354385889,-0.26277993800000005,0.23629748744999998,0.116803201555,-0.6112757157500001
10:04:42,-0.44039865999999994,-1.2682740000000001,-0.17981584,0.68815689,0.035922819999999994,-0.1076,40.04099971,-20.11297867,-23.62187054,-65.73803614,-0.373016416,-1.3358118860000001,-0.2508314120000001,0.2350432163,0.11630522457,-0.6136539905
10:04:42,-0.44407822999999996,-1.2474875,-0.17655752,0.689243545,0.03398920999999999,-0.1098905,40.070679755,-20.112199135,-23.61827687,-65.64495367,-0.375877748,-1.317237883,-0.23888288600000007,0.23378894514999998,0.115807247585,-0.61603226525
10:04:42,-0.4477578,-1.2267010000000003,-0.1732992,0.6903302,0.03205559999999999,-0.112181,40.1003598,-20.111419599999998,-23.6146832,-65.55187120000001,-0.37873908,-1.2986638799999999,-0.22693436000000006,0.232534674,0.1153092706,-0.6184105400000001
10:04:42,-0.45143736999999995,-1.2059145,-0.17004088,0.691416855,0.030121989999999987,-0.11447149999999999,40.130039845,-20.110640065,-23.61108953,-65.45878873000001,-0.381600412,-1.280089877,-0.2149858340000001,0.23128040284999998,0.114811293615,-0.62078881475
10:04:42,-0.45511693999999997,-1.1851280000000002,-0.16678256,0.69250351,0.02818838,-0.11676199999999999,40.159719890000005,-20.10986053,-23.60749586,-65.36570626,-0.384461744,-1.261515874,-0.20303730800000008,0.2300261317,0.11431331663,-0.6231670895
10:04:42,-0.45879651,-1.1643415000000001,-0.16352424,0.693590165,0.026254769999999997,-0.11905249999999999,40.189399935000004,-20.109080995,-23.60390219,-65.27262379,-0.387323076,-1.242941871,-0.19108878200000012,0.22877186054999998,0.113815339645,-0.6255453642500001
10:04:42,-0.46247607999999996,-1.143555,-0.16026592,0.69467682,0.024321159999999994,-0.12134299999999999,40.219079980000004,-20.10830146,-23.60030852,-65.17954132,-0.390184408,-1.2243678679999999,-0.17914025600000005,0.2275175894,0.11331736266,-0.627923639
10:04:42,-0.46615565,-1.1227685000000003,-0.1570076,0.695763475,0.022387549999999992,-0.1236335,40.248760025,-20.107521925,-23.59671485,-65.08645885,-0.39304574000000003,-1.205793865,-0.1671917300000001,0.22626331824999998,0.112819385675,-0.63030191375
10:04:42,-0.46983522,-1.101982,-0.15374928,0.69685013,0.02045393999999999,-0.125924,40.27844007,-20.10674239,-23.59312118,-64.99337638,-0.39590707199999997,-1.187219862,-0.15524320400000002,0.2250090471,0.11232140869,-0.6326801885
10:04:42,-0.47351478999999996,-1.0811955000000002,-0.15049096,0.697936785,0.018520329999999988,-0.1282145,40.308120115,-20.105962854999998,-23.58952751,-64.90029391,-0.398768404,-1.168645859,-0.14329467800000006,0.22375477594999998,0.111823431705,-0.63505846325
10:04:42,-0.47719435999999993,-1.0604090000000002,-0.14723264,0.69902344,0.01658672,-0.130505,40.33780016,-20.10518332,-23.58593384,-64.80721144,-0.401629736,-1.150071856,-0.1313461520000001,0.2225005048,0.11132545472,-0.637436738
10:04:42,-0.48087392999999995,-1.0396225000000001,-0.14397432,0.700110095,0.014653109999999997,-0.1327955,40.367480205,-20.104403785,-23.582340170000002,-64.71412897,-0.404491068,-1.131497853,-0.11939762600000003,0.22124623364999998,0.110827477735,-0.63981501275
10:04:42,-0.48455349999999997,-1.018836,-0.140716,0.70119675,0.012719499999999995,-0.135086,40.39716025,-20.10362425,-23.5787465,-64.6210465,-0.4073524,-1.11292385,-0.10744910000000008,0.21999196249999997,0.11032950075,-0.6421932875
10:04:42,-0.48823306999999994,-0.9980495000000003,-0.13745768,0.702283405,0.010785889999999992,-0.1373765,40.426840295000005,-20.102844715,-23.57515283,-64.52796403,-0.410213732,-1.0943498470000002,-0.09550057400000012,0.21873769134999999,0.109831523765,-0.64457156225
10:04:42,-0.49191263999999996,-0.9772630000000002,-0.13419936,0.70337006,0.00885227999999999,-0.139667,40.456520340000004,-20.10206518,-23.57155916,-64.43488156000001,-0.41307506400000005,-1.075775844,-0.08355204800000005,0.2174834202,0.10933354678,-0.646949837
10:04:42,-0.49559221,-0.9564765000000002,-0.13094104,0.704456715,0.006918669999999988,-0.14195750000000001,40.486200385000004,-20.101285645,-23.56796549,-64.34179909,-0.415936396,-1.057201841,-0.07160352200000009,0.21622914904999999,0.108835569795,-0.64932811175
10:04:42,-0.49927177999999994,-0.9356900000000001,-0.12768272,0.70554337,0.004985059999999986,-0.14424800000000002,40.51588043,-20.100506109999998,-23.56437182,-64.24871662,-0.41879772800000004,-1.038627838,-0.05965499600000013,0.21497487789999997,0.10833759281,-0.6517063865
10:04:42,-0.50295135,-0.9149035000000001,-0.12442439999999999,0.706630025,0.0030514499999999972,-0.1465385,40.545560475,-20.099726575,-23.56077815,-64.15563415,-0.42165906,-1.020053835,-0.047706470000000056,0.21372060675,0.107839615825,-0.65408466125
10:04:42,-0.50663092,-0.894117,-0.12116608000000001,0.70771668,0.001117839999999995,-0.148829,40.57524052,-20.09894704,-23.55718448,-64.06255168,-0.424520392,-1.001479832,-0.0357579440000001,0.2124663356,0.10734163884,-0.656462936
10:04:42,-0.51031049,-0.8733305000000002,-0.11790776,0.708803335,-0.0008157700000000073,-0.1511195,40.604920565,-20.098167505,-23.55359081,-63.96946921,-0.427381724,-0.9829058289999999,-0.023809418000000138,0.21121206445,0.106843661855,-0.65884121075
10:04:42,-0.51399006,-0.8525440000000002,-0.11464943999999999,0.70988999,-0.0027493800000000096,-0.15341,40.63460061,-20.09738797,-23.54999714,-63.87638674,-0.430243056,-0.964331826,-0.011860892000000067,0.20995779329999997,0.10634568487,-0.6612194855
10:04:42,-0.51766963,-0.8317575000000001,-0.11139111999999998,0.710976645,-0.004682990000000012,-0.1557005,40.664280655,-20.096608435,-23.54640347,-63.78330427,-0.433104388,-0.9457578229999999,8.763399999989208e-05,0.20870352215,0.105847707885,-0.6635977602500001
10:04:42,-0.5213492,-0.8109710000000001,-0.1081328,0.7120633000000001,-0.006616600000000014,-0.157991,40.693960700000005,-20.0958289,-23.5428098,-63.6902218,-0.43596572,-0.92718382,0.012036159999999962,0.207449251,0.1053497309,-0.665976035
10:04:42,-0.5250287699999999,-0.7901845000000001,-0.10487447999999999,0.713149955,-0.008550210000000003,-0.1602815,40.723640745000004,-20.095049364999998,-23.53921613,-63.597139330000005,-0.438827052,-0.9086098169999999,0.023984685999999922,0.20619497985,0.104851753915,-0.66835430975
10:04:42,-0.52870834,-0.7693980000000002,-0.10161615999999998,0.71423661,-0.010483820000000005,-0.162572,40.753320790000004,-20.094269829999998,-23.53562246,-63.504056860000006,-0.441688384,-0.890035814,0.03593321199999988,0.20494070869999997,0.10435377693,-0.6707325845000001
