Timestamp,linacce_x,linacce_y,linacce_z,gyro_x,gyro_y,gyro_z,X-magnetometer,Y-magnetometer,Z-magnetometer,Yaw, worldXAccel,worldYAccel,worldZAccel,worldXgyro,worldYgyro,worldZgyro
10:07:03,-0.992745,-0.517666,-1.137857,0.258012,0.204216,-0.226173,-27.442226,1.21796,-13.085716,73.86177,-1.4650497,-0.49738383,0.8536221,-0.0068990886,0.2387985,-0.36524564
10:07:03,-0.9884183049999999,-0.498748565,-1.13870682,0.25209932,0.20198942,-0.22763253,-27.442885755000002,1.1905504299999998,-13.083933394999999,73.84986190000001,-1.4634961575,-0.47864368735,0.8410539210000001,-0.011445990356999999,0.23640041365,-0.3592653888
10:07:03,-0.98409161,-0.47983112999999994,-1.13955664,0.24618664,0.19976284,-0.22909206000000001,-27.44354551,1.16314086,-13.08215079,73.83795380000001,-1.4619426150000001,-0.45990354470000006,0.828485742,-0.015992892114,0.2340023273,-0.35328513759999997
10:07:03,-0.979764915,-0.46091369499999996,-1.14040646,0.24027396,0.19753626000000002,-0.23055159,-27.444205265,1.1357312899999998,-13.080368185,73.82604570000001,-1.4603890725,-0.44116340205000004,0.8159175630000001,-0.020539793871,0.23160424094999998,-0.3473048864
10:07:03,-0.97543822,-0.44199626,-1.14125628,0.23436128,0.19530968,-0.23201112000000002,-27.44486502,1.10832172,-13.07858558,73.81413760000001,-1.45883553,-0.42242325940000003,0.8033493840000001,-0.025086695628,0.2292061546,-0.3413246352
10:07:03,-0.971111525,-0.42307882499999994,-1.1421061,0.22844860000000003,0.1930831,-0.23347065,-27.445524775000003,1.0809121499999998,-13.076802975,73.80222950000001,-1.4572819875,-0.40368311675,0.790781205,-0.029633597384999998,0.22680806825,-0.335344384
10:07:03,-0.96678483,-0.40416138999999995,-1.14295592,0.22253592000000003,0.19085652,-0.23493018000000002,-27.44618453,1.05350258,-13.075020369999999,73.79032140000001,-1.455728445,-0.3849429741,0.7782130260000001,-0.034180499142,0.2244099819,-0.3293641328
10:07:03,-0.962458135,-0.38524395499999997,-1.14380574,0.21662324000000002,0.18862994,-0.23638971,-27.446844285,1.0260930099999999,-13.073237765,73.77841330000001,-1.4541749025,-0.36620283145000004,0.765644847,-0.038727400899,0.22201189555,-0.3233838816
10:07:03,-0.95813144,-0.36632652,-1.14465556,0.21071056000000002,0.18640336000000002,-0.23784924000000002,-27.447504040000002,0.99868344,-13.07145516,73.76650520000001,-1.45262136,-0.34746268880000003,0.7530766680000001,-0.043274302656,0.2196138092,-0.31740363039999997
10:07:03,-0.953804745,-0.34740908499999995,-1.14550538,0.20479788000000002,0.18417678,-0.23930877,-27.448163795000003,0.97127387,-13.069672555,73.75459710000001,-1.4510678175,-0.32872254615,0.7405084890000001,-0.047821204412999994,0.21721572285,-0.31142337919999996
10:07:03,-0.94947805,-0.32849164999999997,-1.1463552,0.1988852,0.1819502,-0.24076830000000002,-27.44882355,0.9438643,-13.06788995,73.74268900000001,-1.449514275,-0.30998240350000006,0.72794031,-0.05236810617,0.2148176365,-0.30544312799999995
10:07:03,-0.945151355,-0.30957421499999993,-1.14720502,0.19297252000000004,0.17972362,-0.24222783,-27.449483305,0.9164547299999999,-13.066107344999999,73.73078090000001,-1.4479607325,-0.29124226085000005,0.7153721310000001,-0.056915007927,0.21241955015,-0.2994628768
10:07:03,-0.94082466,-0.29065677999999995,-1.14805484,0.18705984000000003,0.17749704,-0.24368736000000002,-27.450143060000002,0.88904516,-13.06432474,73.7188728,-1.44640719,-0.27250211820000003,0.702803952,-0.061461909684,0.2100214638,-0.2934826256
10:07:03,-0.936497965,-0.27173934499999997,-1.14890466,0.18114716000000003,0.17527046000000002,-0.24514689,-27.450802815000003,0.8616355899999999,-13.062542135,73.7069647,-1.4448536475,-0.25376197555,0.690235773,-0.066008811441,0.20762337744999998,-0.2875023744
10:07:03,-0.93217127,-0.25282191,-1.14975448,0.17523448000000003,0.17304388,-0.24660642,-27.45146257,0.83422602,-13.06075953,73.6950566,-1.443300105,-0.23502183290000006,0.6776675940000001,-0.07055571319800001,0.20522529109999998,-0.2815221232
10:07:03,-0.927844575,-0.23390447499999995,-1.1506043,0.16932180000000002,0.1708173,-0.24806595,-27.452122325,0.8068164499999999,-13.058976925,73.6831485,-1.4417465625,-0.21628169025000005,0.665099415,-0.07510261495500001,0.20282720475,-0.27554187199999997
10:07:03,-0.92351788,-0.21498703999999996,-1.15145412,0.16340912000000002,0.16859072,-0.24952548000000002,-27.452782080000002,0.77940688,-13.057194319999999,73.6712404,-1.44019302,-0.19754154760000003,0.6525312360000001,-0.079649516712,0.2004291184,-0.2695616208
10:07:03,-0.919191185,-0.19606960499999998,-1.15230394,0.15749644000000002,0.16636414,-0.25098501,-27.453441835,0.7519973099999999,-13.055411715,73.6593323,-1.4386394775,-0.17880140495000002,0.6399630570000001,-0.084196418469,0.19803103205,-0.2635813696
10:07:03,-0.91486449,-0.17715216999999994,-1.15315376,0.15158376,0.16413756000000002,-0.25244454,-27.45410159,0.72458774,-13.05362911,73.6474242,-1.437085935,-0.1600612623,0.627394878,-0.088743320226,0.1956329457,-0.2576011184
10:07:03,-0.910537795,-0.15823473499999996,-1.15400358,0.14567108,0.16191098,-0.25390407,-27.454761345,0.6971781699999999,-13.051846505,73.6355161,-1.4355323925,-0.14132111965000005,0.6148266990000001,-0.09329022198300001,0.19323485935,-0.2516208672
10:07:03,-0.9062110999999999,-0.13931729999999998,-1.1548534,0.1397584,0.1596844,-0.2553636,-27.455421100000002,0.6697685999999999,-13.0500639,73.623608,-1.43397885,-0.12258097700000004,0.6022585200000001,-0.09783712374,0.190836773,-0.24564061599999998
10:07:03,-0.901884405,-0.12039986499999994,-1.15570322,0.13384572,0.15745782,-0.25682313,-27.456080855,0.6423590299999999,-13.048281295,73.6116999,-1.4324253075,-0.10384083435000002,0.5896903410000001,-0.102384025497,0.18843868665,-0.2396603648
10:07:03,-0.89755771,-0.10148242999999996,-1.15655304,0.12793304000000003,0.15523124,-0.25828266,-27.45674061,0.61494946,-13.04649869,73.5997918,-1.430871765,-0.08510069170000006,0.5771221620000001,-0.10693092725400001,0.1860406003,-0.2336801136
10:07:03,-0.893231015,-0.08256499499999997,-1.15740286,0.12202036000000002,0.15300466000000001,-0.25974219,-27.457400365,0.58753989,-13.044716085,73.5878837,-1.4293182225,-0.06636054905000005,0.5645539830000001,-0.11147782901100001,0.18364251395,-0.22769986239999998
10:07:03,-0.88890432,-0.06364755999999994,-1.15825268,0.11610768000000002,0.15077808,-0.26120172,-27.458060120000003,0.56013032,-13.04293348,73.5759756,-1.42776468,-0.04762040640000004,0.5519858040000001,-0.116024730768,0.18124442759999998,-0.2217196112
10:07:03,-0.8845776249999999,-0.044730124999999954,-1.1591025,0.11019500000000002,0.1485515,-0.26266125,-27.458719875,0.53272075,-13.041150875,73.56406750000001,-1.4262111375,-0.028880263750000024,0.539417625,-0.120571632525,0.17884634124999998,-0.21573936
10:07:03,-0.88025093,-0.02581268999999997,-1.15995232,0.10428232000000001,0.14632492,-0.26412078,-27.45937963,0.50531118,-13.03936827,73.55215940000001,-1.424657595,-0.01014012110000001,0.526849446,-0.12511853428199998,0.1764482549,-0.20975910879999998
10:07:03,-0.8759242349999999,-0.006895254999999989,-1.16080214,0.09836964000000001,0.14409834,-0.26558031,-27.460039385,0.47790161,-13.037585665,73.54025130000001,-1.4231040525,0.008600021550000003,0.5142812670000001,-0.129665436039,0.17405016855,-0.20377885759999997
10:07:03,-0.87159754,0.012022179999999993,-1.16165196,0.09245696000000003,0.14187176,-0.26703984000000003,-27.460699140000003,0.45049204,-13.03580306,73.52834320000001,-1.42155051,0.027340164199999906,0.501713088,-0.134212337796,0.1716520822,-0.1977986064
10:07:03,-0.867270845,0.030939615000000087,-1.16250178,0.08654428000000003,0.13964518,-0.26849937,-27.461358895,0.42308247,-13.034020455,73.51643510000001,-1.4199969675,0.04608030684999992,0.48914490900000007,-0.13875923955299999,0.16925399585,-0.19181835519999998
10:07:03,-0.86294415,0.04985705000000007,-1.1633516,0.08063160000000003,0.1374186,-0.2699589,-27.46201865,0.3956729,-13.03223785,73.50452700000001,-1.418443425,0.06482044949999993,0.4765767300000001,-0.14330614131,0.1668559095,-0.18583810399999998
10:07:03,-0.858617455,0.06877448500000005,-1.16420142,0.07471892000000002,0.13519202000000002,-0.27141843,-27.462678405000002,0.36826333,-13.030455245,73.49261890000001,-1.4168898825,0.08356059214999995,0.4640085510000001,-0.14785304306699998,0.16445782315,-0.1798578528
10:07:03,-0.85429076,0.08769192000000003,-1.16505124,0.06880624000000002,0.13296544,-0.27287796,-27.463338160000003,0.34085376,-13.02867264,73.48071080000001,-1.41533634,0.10230073479999996,0.4514403720000001,-0.152399944824,0.1620597368,-0.1738776016
10:07:03,-0.849964065,0.10660935500000002,-1.16590106,0.06289356000000002,0.13073886,-0.27433749,-27.463997915,0.31344419,-13.026890035,73.46880270000001,-1.4137827975,0.12104087744999997,0.4388721930000001,-0.156946846581,0.15966165045,-0.16789735039999998
10:07:03,-0.8456373699999999,0.12552679,-1.16675088,0.05698088000000001,0.12851228,-0.27579702,-27.46465767,0.28603462,-13.02510743,73.4568946,-1.412229255,0.1397810201,0.42630401400000006,-0.16149374833799998,0.15726356409999998,-0.1619170992
10:07:03,-0.841310675,0.14444422499999998,-1.1676007,0.05106820000000001,0.1262857,-0.27725655,-27.465317425000002,0.25862505,-13.023324825,73.4449865,-1.4106757125,0.15852116275,0.4137358350000001,-0.166040650095,0.15486547774999998,-0.155936848
10:07:03,-0.83698398,0.16336166000000008,-1.16845052,0.045155520000000005,0.12405912000000001,-0.27871608000000003,-27.46597718,0.23121548000000003,-13.02154222,73.4330784,-1.40912217,0.1772613054,0.4011676560000001,-0.17058755185199997,0.15246739139999999,-0.14995659679999998
10:07:03,-0.832657285,0.18227909500000006,-1.16930034,0.03924284000000003,0.12183254,-0.28017561,-27.466636935,0.20380591000000003,-13.019759615,73.4211703,-1.4075686275,0.19600144804999992,0.3885994770000001,-0.17513445360899998,0.15006930505,-0.1439763456
10:07:03,-0.82833059,0.20119653000000004,-1.17015016,0.033330160000000025,0.11960596,-0.28163514,-27.46729669,0.17639633999999993,-13.01797701,73.4092622,-1.406015085,0.21474159069999993,0.3760312980000001,-0.179681355366,0.1476712187,-0.1379960944
10:07:03,-0.8240038949999999,0.22011396500000002,-1.17099998,0.027417480000000022,0.11737938,-0.28309467,-27.467956445000002,0.14898677000000005,-13.016194405,73.3973541,-1.4044615425,0.23348173334999994,0.3634631190000001,-0.18422825712299998,0.14527313235,-0.13201584319999998
10:07:03,-0.8196772,0.2390314,-1.1718498,0.02150480000000002,0.1151528,-0.2845542,-27.4686162,0.12157719999999994,-13.0144118,73.385446,-1.402908,0.25222187599999996,0.3508949400000001,-0.18877515888,0.142875046,-0.12603559199999997
10:07:03,-0.815350505,0.257948835,-1.17269962,0.015592120000000015,0.11292622000000001,-0.28601373,-27.469275955,0.09416763000000006,-13.012629195,73.3735379,-1.4013544575,0.27096201864999997,0.33832676100000014,-0.193322060637,0.14047695965,-0.1200553408
10:07:03,-0.81102381,0.2768662700000001,-1.17354944,0.009679440000000011,0.11069964,-0.28747326,-27.46993571,0.06675805999999995,-13.01084659,73.3616298,-1.399800915,0.2897021613,0.3257585820000001,-0.19786896239399998,0.1380788733,-0.11407508960000001
10:07:03,-0.806697115,0.29578370500000006,-1.17439926,0.0037667600000000356,0.10847306,-0.28893279,-27.470595465000002,0.03934849000000007,-13.009063985,73.3497217,-1.3982473725,0.30844230395,0.3131904030000001,-0.202415864151,0.13568078695,-0.1080948384
10:07:03,-0.8023704199999999,0.31470114000000005,-1.17524908,-0.002145919999999968,0.10624648,-0.29039232,-27.47125522,0.011938919999999964,-13.00728138,73.3378136,-1.39669383,0.3271824465999999,0.30062222400000016,-0.206962765908,0.1332827006,-0.1021145872
10:07:03,-0.798043725,0.33361857500000003,-1.1760989,-0.008058599999999971,0.1040199,-0.29185185,-27.471914975,-0.01547064999999992,-13.005498775,73.3259055,-1.3951402875,0.3459225892499999,0.2880540450000001,-0.21150966766499998,0.13088461424999998,-0.09613433599999999
10:07:03,-0.79371703,0.35253601,-1.17694872,-0.013971279999999975,0.10179332,-0.29331138,-27.47257473,-0.042880220000000024,-13.00371617,73.3139974,-1.393586745,0.3646627318999999,0.27548586600000013,-0.216056569422,0.12848652789999998,-0.09015408479999998
10:07:03,-0.789390335,0.371453445,-1.17779854,-0.01988395999999998,0.09956674,-0.29477091,-27.473234485000003,-0.07028978999999991,-13.001933565,73.3020893,-1.3920332025,0.38340287454999994,0.26291768700000007,-0.22060347117899998,0.12608844154999999,-0.08417383359999997
10:07:03,-0.78506364,0.3903708800000001,-1.17864836,-0.025796639999999982,0.09734016000000001,-0.29623044,-27.47389424,-0.09769936000000001,-13.00015096,73.2901812,-1.39047966,0.40214301719999995,0.2503495080000001,-0.225150372936,0.12369035519999999,-0.07819358240000002
10:07:03,-0.780736945,0.40928831500000007,-1.17949818,-0.031709319999999985,0.09511358,-0.29768996999999997,-27.474553995,-0.1251089299999999,-12.998368355,73.2782731,-1.3889261175,0.42088315984999997,0.23778132900000015,-0.229697274693,0.12129226885,-0.07221333120000001
10:07:03,-0.77641025,0.42820575000000005,-1.180348,-0.03762199999999999,0.092887,-0.2991495,-27.47521375,-0.1525185,-12.99658575,73.26636500000001,-1.387372575,0.4396233025,0.22521315000000008,-0.23424417644999998,0.11889418249999999,-0.06623308
10:07:03,-0.772083555,0.44712318500000003,-1.18119782,-0.04353467999999999,0.09066042,-0.30060903,-27.475873505,-0.17992806999999988,-12.994803145,73.25445690000001,-1.3858190325,0.45836344515,0.21264497100000013,-0.238791078207,0.11649609614999999,-0.06025282879999999
10:07:03,-0.76775686,0.46604062,-1.18204764,-0.049447359999999996,0.08843384,-0.30206856,-27.47653326,-0.20733764,-12.99302054,73.24254880000001,-1.38426549,0.4771035878,0.20007679200000006,-0.24333797996399997,0.11409800979999998,-0.05427257759999998
10:07:03,-0.7634301649999999,0.4849580550000001,-1.18289746,-0.05536004,0.08620726000000001,-0.30352809000000003,-27.477193015,-0.23474720999999987,-12.991237935,73.23064070000001,-1.3827119475,0.4958437304499999,0.1875086130000001,-0.24788488172099998,0.11169992344999999,-0.048292326399999974
10:07:03,-0.75910347,0.50387549,-1.18374728,-0.06127272,0.08398068,-0.30498762,-27.477852770000002,-0.26215678,-12.98945533,73.21873260000001,-1.381158405,0.5145838731000001,0.17494043400000014,-0.252431783478,0.1093018371,-0.042312075199999966
10:07:03,-0.754776775,0.5227929250000001,-1.1845971,-0.0671854,0.0817541,-0.30644715,-27.478512525,-0.28956634999999986,-12.987672725,73.20682450000001,-1.3796048625,0.5333240157500001,0.16237225500000008,-0.256978685235,0.10690375075,-0.03633182400000001
10:07:03,-0.75045008,0.54171036,-1.18544692,-0.07309807999999995,0.07952752,-0.30790668,-27.47917228,-0.31697591999999997,-12.98589012,73.1949164,-1.37805132,0.5520641583999999,0.14980407600000012,-0.261525586992,0.1045056644,-0.030351572800000004
10:07:03,-0.746123385,0.560627795,-1.18629674,-0.07901075999999996,0.07730094000000001,-0.30936621,-27.479832035,-0.34438548999999985,-12.984107515,73.1830083,-1.3764977775,0.5708043010499999,0.13723589700000016,-0.26607248874899997,0.10210757804999998,-0.024371321599999995
10:07:03,-0.7417966899999999,0.5795452300000001,-1.18714656,-0.08492343999999996,0.07507436,-0.31082573999999996,-27.480491790000002,-0.37179505999999996,-12.982324909999999,73.1711002,-1.374944235,0.5895444436999999,0.1246677180000001,-0.270619390506,0.09970949169999999,-0.018391070399999987
10:07:03,-0.737469995,0.598462665,-1.18799638,-0.09083611999999996,0.07284778,-0.31228527,-27.481151545,-0.39920462999999984,-12.980542305,73.1591921,-1.3733906925,0.6082845863499999,0.11209953900000014,-0.275166292263,0.09731140534999999,-0.012410819199999978
10:07:03,-0.7331433,0.6173801000000001,-1.1888462,-0.09674879999999997,0.0706212,-0.3137448,-27.4818113,-0.42661419999999994,-12.9787597,73.147284,-1.37183715,0.627024729,0.09953136000000018,-0.27971319402,0.094913319,-0.00643056799999997
10:07:03,-0.728816605,0.636297535,-1.18969602,-0.10266147999999997,0.06839461999999999,-0.31520433,-27.482471055,-0.4540237699999998,-12.976977095,73.1353759,-1.3702836075,0.64576487165,0.08696318100000011,-0.284260095777,0.09251523265,-0.00045031680000001684
10:07:03,-0.72448991,0.6552149700000001,-1.19054584,-0.10857415999999998,0.06616804000000001,-0.31666386,-27.483130810000002,-0.48143333999999993,-12.97519449,73.1234678,-1.368730065,0.6645050143,0.07439500200000015,-0.28880699753399997,0.09011714629999998,0.005529934399999992
10:07:03,-0.7201632149999999,0.6741324049999999,-1.19139566,-0.11448683999999998,0.06394146,-0.31812339,-27.483790565,-0.5088429099999998,-12.973411885,73.1115597,-1.3671765224999999,0.68324515695,0.061826823000000086,-0.293353899291,0.08771905994999998,0.0115101856
10:07:03,-0.71583652,0.69304984,-1.19224548,-0.12039951999999998,0.06171488,-0.31958292,-27.48445032,-0.5362524799999999,-12.97162928,73.0996516,-1.36562298,0.7019852996,0.04925864400000013,-0.297900801048,0.08532097359999999,0.01749043680000001
10:07:03,-0.711509825,0.7119672750000001,-1.1930953,-0.12631219999999999,0.059488299999999994,-0.32104245,-27.485110075,-0.56366205,-12.969846675,73.0877435,-1.3640694375,0.72072544225,0.03669046500000017,-0.302447702805,0.08292288725,0.023470688000000017
10:07:03,-0.70718313,0.73088471,-1.19394512,-0.13222488,0.05726171999999999,-0.32250197999999997,-27.485769830000002,-0.5910716199999999,-12.96806407,73.0758354,-1.362515895,0.7394655849,0.024122286000000104,-0.306994604562,0.0805248009,0.029450939200000026
10:07:03,-0.702856435,0.7498021450000001,-1.19479494,-0.13813756,0.05503514000000001,-0.32396151,-27.486429585,-0.61848119,-12.966281465,73.0639273,-1.3609623525,0.75820572755,0.011554107000000147,-0.31154150631899996,0.07812671454999998,0.035431190400000034
10:07:03,-0.6985297399999999,0.76871958,-1.19564476,-0.14405024,0.052808560000000004,-0.32542104,-27.48708934,-0.6458907599999999,-12.96449886,73.0520192,-1.35940881,0.7769458702,-0.0010140719999999215,-0.31608840807599997,0.07572862819999998,0.04141144159999999
10:07:03,-0.694203045,0.787637015,-1.19649458,-0.14996292,0.05058198,-0.32688057,-27.487749095,-0.67330033,-12.962716255,73.0401111,-1.3578552675,0.7956860128500001,-0.013582250999999879,-0.320635309833,0.07333054184999999,0.047391692799999996
10:07:03,-0.68987635,0.8065544499999999,-1.1973444,-0.1558756,0.04835539999999999,-0.3283401,-27.48840885,-0.7007098999999999,-12.96093365,73.028203,-1.356301725,0.8144261555000001,-0.026150429999999836,-0.32518221159,0.07093245549999999,0.053371944000000004
10:07:03,-0.685549655,0.825471885,-1.19819422,-0.16178828,0.04612881999999999,-0.32979963,-27.489068605,-0.72811947,-12.959151045,73.0162949,-1.3547481825,0.8331662981500001,-0.038718608999999904,-0.329729113347,0.06853436915,0.05935219520000001
10:07:03,-0.6812229599999999,0.8443893200000001,-1.19904404,-0.16770096,0.04390224000000001,-0.33125916,-27.48972836,-0.7555290399999999,-12.95736844,73.0043868,-1.35319464,0.8519064408000001,-0.05128678799999986,-0.33427601510399996,0.06613628279999997,0.06533244640000002
10:07:03,-0.676896265,0.863306755,-1.19989386,-0.17361363999999996,0.04167566,-0.33271869,-27.490388115000002,-0.7829386099999998,-12.955585835,72.9924787,-1.3516410975,0.8706465834499999,-0.06385496699999982,-0.33882291686099997,0.06373819644999998,0.07131269760000003
10:07:03,-0.67256957,0.8822241900000001,-1.20074368,-0.17952631999999996,0.03944908,-0.33417821999999997,-27.49104787,-0.8103481799999999,-12.95380323,72.98057060000001,-1.350087555,0.8893867260999999,-0.07642314599999989,-0.343369818618,0.061340110099999984,0.07729294879999998
10:07:03,-0.668242875,0.901141625,-1.2015935,-0.18543899999999996,0.03722249999999999,-0.33563774999999996,-27.491707625,-0.83775775,-12.952020625,72.96866250000001,-1.3485340125,0.9081268687499999,-0.08899132499999984,-0.347916720375,0.05894202374999999,0.08327319999999999
10:07:03,-0.66391618,0.92005906,-1.20244332,-0.19135167999999997,0.034995919999999986,-0.33709728,-27.49236738,-0.8651673200000001,-12.95023802,72.95675440000001,-1.34698047,0.9268670113999999,-0.1015595039999998,-0.352463622132,0.056543937399999994,0.0892534512
10:07:03,-0.6595894849999999,0.9389764950000001,-1.20329314,-0.19726435999999997,0.03276934000000001,-0.33855681,-27.493027135000002,-0.8925768899999997,-12.948455415,72.94484630000001,-1.3454269275,0.94560715405,-0.11412768299999987,-0.357010523889,0.05414585105,0.09523370240000001
10:07:03,-0.65526279,0.95789393,-1.20414296,-0.20317703999999998,0.030542760000000002,-0.34001634,-27.49368689,-0.9199864599999998,-12.94667281,72.9329382,-1.343873385,0.9643472967,-0.12669586199999983,-0.36155742564599996,0.051747764699999976,0.10121395360000002
10:07:03,-0.650936095,0.9768113650000001,-1.20499278,-0.20908971999999998,0.028316179999999996,-0.34147587,-27.494346645,-0.94739603,-12.944890205,72.9210301,-1.3423198425,0.98308743935,-0.1392640409999999,-0.366104327403,0.04934967834999998,0.10719420480000003
10:07:03,-0.6466094,0.9957288,-1.2058426,-0.21500239999999998,0.02608959999999999,-0.3429354,-27.4950064,-0.9748056,-12.9431076,72.909122,-1.3407663,1.001827582,-0.15183221999999985,-0.37065122916,0.046951591999999986,0.11317445600000003
10:07:03,-0.642282705,1.014646235,-1.20669242,-0.22091507999999999,0.023863019999999985,-0.34439493,-27.495666155000002,-1.0022151699999997,-12.941324995,72.8972139,-1.3392127575,1.02056772465,-0.16440039899999992,-0.375198130917,0.04455350564999999,0.11915470719999999
10:07:03,-0.6379560099999999,1.03356367,-1.20754224,-0.22682776,0.021636440000000007,-0.34585446,-27.49632591,-1.0296247399999998,-12.93954239,72.8853058,-1.337659215,1.0393078673,-0.17696857799999977,-0.379745032674,0.0421554193,0.1251349584
10:07:03,-0.633629315,1.052481105,-1.20839206,-0.23274044,0.01940986,-0.34731398999999996,-27.496985665,-1.05703431,-12.937759785,72.8733977,-1.3361056725,1.05804800995,-0.18953675699999983,-0.38429193443099996,0.039757332949999974,0.1311152096
10:07:03,-0.62930262,1.0713985400000001,-1.20924188,-0.23865312,0.017183279999999995,-0.34877352,-27.49764542,-1.08444388,-12.93597718,72.8614896,-1.33455213,1.0767881526,-0.2021049359999999,-0.38883883618799997,0.03735924659999998,0.13709546079999996
10:07:03,-0.624975925,1.090315975,-1.2100917,-0.24456579999999994,0.01495669999999999,-0.35023305,-27.498305175,-1.1118534499999997,-12.934194575,72.8495815,-1.3329985874999999,1.09552829525,-0.21467311499999975,-0.393385737945,0.034961160249999984,0.14307571199999997
10:07:03,-0.6206492299999999,1.10923341,-1.21094152,-0.25047847999999995,0.012730119999999984,-0.35169258,-27.49896493,-1.1392630199999998,-12.93241197,72.8376734,-1.331445045,1.1142684379,-0.22724129399999982,-0.397932639702,0.03256307389999999,0.14905596319999997
10:07:03,-0.6163225349999999,1.128150845,-1.21179134,-0.25639115999999995,0.010503540000000006,-0.35315211,-27.499624685,-1.16667259,-12.930629365,72.8257653,-1.3298915025,1.13300858055,-0.23980947299999988,-0.402479541459,0.030164987549999994,0.15503621439999998
10:07:03,-0.61199584,1.14706828,-1.21264116,-0.26230383999999995,0.00827696,-0.35461164,-27.50028444,-1.19408216,-12.92884676,72.8138572,-1.32833796,1.1517487231999999,-0.25237765199999973,-0.407026443216,0.0277669012,0.1610164656
10:07:03,-0.607669145,1.165985715,-1.21349098,-0.26821651999999996,0.006050379999999994,-0.35607117,-27.500944195,-1.2214917299999997,-12.927064155,72.8019491,-1.3267844174999999,1.17048886585,-0.2649458309999998,-0.41157334497299997,0.025368814849999977,0.1669967168
10:07:03,-0.60334245,1.18490315,-1.2143408,-0.27412919999999996,0.0038237999999999883,-0.3575307,-27.50160395,-1.2489012999999998,-12.92528155,72.790041,-1.325230875,1.1892290085,-0.27751400999999987,-0.41612024673,0.02297072849999998,0.172976968
10:07:03,-0.5990157549999999,1.203820585,-1.21519062,-0.28004187999999997,0.0015972199999999825,-0.35899022999999997,-27.502263705,-1.2763108699999999,-12.923498945,72.7781329,-1.3236773325,1.20796915115,-0.29008218899999993,-0.420667148487,0.020572642149999987,0.17895721920000002
10:07:03,-0.59468906,1.22273802,-1.21604044,-0.28595455999999997,-0.0006293599999999955,-0.36044975999999995,-27.50292346,-1.30372044,-12.92171634,72.7662248,-1.32212379,1.2267092938,-0.3026503679999998,-0.425214050244,0.018174555799999992,0.18493747040000003
10:07:03,-0.590362365,1.241655455,-1.21689026,-0.29186724,-0.0028559400000000013,-0.36190929,-27.503583215,-1.3311300099999996,-12.919933735,72.7543167,-1.3205702475,1.24544943645,-0.31521854699999985,-0.429760952001,0.015776469449999997,0.19091772160000003
10:07:03,-0.58603567,1.26057289,-1.21774008,-0.29777992,-0.005082520000000007,-0.36336882,-27.50424297,-1.3585395799999997,-12.91815113,72.7424086,-1.319016705,1.2641895791,-0.3277867259999999,-0.43430785375799996,0.013378383099999974,0.19689797280000004
10:07:03,-0.581708975,1.279490325,-1.2185899,-0.3036926,-0.007309100000000013,-0.36482835,-27.504902725,-1.3859491499999999,-12.916368525,72.7305005,-1.3174631625,1.28292972175,-0.34035490499999976,-0.438854755515,0.01098029674999998,0.20287822400000005
10:07:03,-0.5773822799999999,1.2984077600000001,-1.21943972,-0.30960528,-0.00953567999999999,-0.36628788,-27.505562480000002,-1.41335872,-12.91458592,72.7185924,-1.31590962,1.3016698644,-0.35292308399999983,-0.443401657272,0.008582210399999984,0.20885847519999995
10:07:03,-0.573055585,1.317325195,-1.22028954,-0.31551796,-0.011762259999999997,-0.36774741,-27.506222235,-1.44076829,-12.912803315,72.7066843,-1.3143560775,1.32041000705,-0.3654912629999999,-0.447948559029,0.0061841240499999894,0.21483872639999996
10:07:03,-0.56872889,1.33624263,-1.22113936,-0.32143064,-0.013988840000000002,-0.36920694,-27.50688199,-1.4681778599999997,-12.91102071,72.6947762,-1.3128025349999999,1.3391501497,-0.37805944199999975,-0.452495460786,0.0037860376999999945,0.22081897759999997
10:07:03,-0.564402195,1.355160065,-1.22198918,-0.32734332,-0.016215420000000008,-0.37066646999999997,-27.507541745,-1.4955874299999998,-12.909238105,72.68286810000001,-1.3112489925,1.35789029235,-0.3906276209999998,-0.45704236254299996,0.0013879513499999718,0.22679922879999997
10:07:03,-0.5600755,1.3740775,-1.222839,-0.333256,-0.018442000000000014,-0.37212599999999996,-27.5082015,-1.522997,-12.907455500000001,72.67096000000001,-1.30969545,1.376630435,-0.4031957999999999,-0.46158926429999997,-0.001010135000000023,0.23277947999999998
10:07:03,-0.5557488049999999,1.392994935,-1.22368882,-0.33916868,-0.020668579999999992,-0.37358552999999994,-27.508861255,-1.55040657,-12.905672895,72.6590519,-1.3081419075,1.39537057765,-0.41576397899999973,-0.466136166057,-0.003408221350000018,0.2387597312
10:07:03,-0.55142211,1.41191237,-1.22453864,-0.34508136,-0.022895159999999998,-0.37504506,-27.50952101,-1.5778161399999997,-12.90389029,72.6471438,-1.306588365,1.4141107203,-0.4283321579999998,-0.470683067814,-0.005806307700000013,0.2447399824
10:07:03,-0.547095415,1.4308298050000001,-1.22538846,-0.35099404,-0.025121740000000004,-0.37650459,-27.510180765,-1.6052257099999998,-12.902107685,72.6352357,-1.3050348225,1.43285086295,-0.44090033699999986,-0.475229969571,-0.008204394050000008,0.2507202336
10:07:03,-0.54276872,1.44974724,-1.22623828,-0.35690672,-0.02734832000000001,-0.37796412,-27.51084052,-1.63263528,-12.90032508,72.6233276,-1.30348128,1.4515910056,-0.45346851599999993,-0.47977687132799995,-0.01060248040000003,0.2567004848
10:07:03,-0.5384420249999999,1.468664675,-1.2270881,-0.3628194,-0.029574900000000015,-0.37942365,-27.511500275,-1.66004485,-12.898542475000001,72.6114195,-1.3019277375,1.4703311482499999,-0.4660366949999998,-0.48432377308499996,-0.013000566750000025,0.262680736
10:07:03,-0.5341153299999999,1.4875821100000002,-1.22793792,-0.36873208,-0.03180147999999999,-0.38088318,-27.51216003,-1.6874544199999997,-12.89675987,72.5995114,-1.300374195,1.4890712909,-0.47860487399999985,-0.488870674842,-0.01539865310000002,0.26866098720000003
10:07:03,-0.529788635,1.5064995449999998,-1.22878774,-0.37464476,-0.03402806,-0.38234271,-27.512819785,-1.7148639899999998,-12.894977265,72.5876033,-1.2988206525,1.5078114335500001,-0.4911730529999999,-0.493417576599,-0.017796739450000015,0.27464123840000004
10:07:03,-0.52546194,1.52541698,-1.22963756,-0.38055744,-0.036254640000000005,-0.38380223999999996,-27.51347954,-1.7422735599999999,-12.89319466,72.5756952,-1.29726711,1.5265515762000001,-0.5037412319999998,-0.497964478356,-0.02019482580000001,0.28062148960000005
10:07:03,-0.521135245,1.544334415,-1.2304873799999998,-0.38647012000000003,-0.03848122000000001,-0.38526176999999995,-27.514139295,-1.76968313,-12.891412055,72.5637871,-1.2957135675,1.5452917188500002,-0.5163094109999998,-0.502511380113,-0.022592912150000005,0.28660174079999995
10:07:03,-0.5168085499999999,1.56325185,-1.2313371999999998,-0.39238280000000003,-0.040707800000000016,-0.3867213,-27.51479905,-1.7970926999999997,-12.889629450000001,72.551879,-1.294160025,1.5640318615000002,-0.5288775899999999,-0.50705828187,-0.0249909985,0.29258199199999996
10:07:03,-0.512481855,1.5821692850000002,-1.2321870199999998,-0.39829548000000004,-0.042934379999999994,-0.38818083,-27.515458805,-1.8245022699999998,-12.887846845,72.5399709,-1.2926064824999999,1.5827720041500002,-0.5414457689999997,-0.511605183627,-0.027389084849999995,0.29856224319999997
10:07:03,-0.5081551599999999,1.6010867199999999,-1.2330368399999998,-0.4042081599999999,-0.04516096,-0.38964035999999996,-27.51611856,-1.8519118399999999,-12.88606424,72.5280628,-1.29105294,1.6015121467999998,-0.5540139479999998,-0.516152085384,-0.02978717119999999,0.3045424944
10:07:03,-0.503828465,1.620004155,-1.2338866599999998,-0.41012083999999993,-0.047387540000000006,-0.39109989,-27.516778315,-1.87932141,-12.884281635,72.5161547,-1.2894993975,1.6202522894499998,-0.5665821269999999,-0.5206989871409999,-0.03218525755000004,0.3105227456
10:07:03,-0.49950176999999996,1.63892159,-1.2347364799999998,-0.41603351999999993,-0.049614119999999984,-0.39255942,-27.51743807,-1.9067309799999996,-12.88249903,72.5042466,-1.287945855,1.6389924320999998,-0.5791503059999997,-0.525245888898,-0.034583343900000035,0.3165029968
10:07:03,-0.49517507499999996,1.6578390250000001,-1.2355862999999998,-0.42194619999999994,-0.05184070000000002,-0.39401895,-27.518097825,-1.9341405499999997,-12.880716425000001,72.4923385,-1.2863923124999999,1.6577325747499998,-0.5917184849999998,-0.529792790655,-0.03698143025000003,0.322483248
10:07:03,-0.49084838,1.6767564600000002,-1.2364361199999998,-0.42785887999999994,-0.054067279999999995,-0.39547847999999997,-27.51875758,-1.9615501199999998,-12.87893382,72.4804304,-1.28483877,1.6764727173999998,-0.6042866639999999,-0.534339692412,-0.039379516600000025,0.3284634992
10:07:03,-0.4865216849999999,1.6956738949999999,-1.2372859399999998,-0.43377155999999994,-0.05629386000000003,-0.39693800999999995,-27.519417335,-1.98895969,-12.877151215,72.4685223,-1.2832852275,1.6952128600499998,-0.6168548429999997,-0.538886594169,-0.04177760295000002,0.3344437504
10:07:03,-0.48219499,1.71459133,-1.2381357599999998,-0.43968423999999995,-0.05852044000000001,-0.39839753999999994,-27.52007709,-2.0163692599999994,-12.87536861,72.4566142,-1.281731685,1.7139530026999998,-0.6294230219999998,-0.543433495926,-0.044175689300000015,0.3404240016
10:07:03,-0.47786829499999994,1.733508765,-1.2389855799999998,-0.44559691999999995,-0.060747019999999985,-0.39985707,-27.520736845,-2.04377883,-12.873586005,72.4447061,-1.2801781425,1.7326931453499999,-0.6419912009999998,-0.547980397683,-0.04657377565000001,0.34640425280000003
10:07:03,-0.4735416,1.7524262000000002,-1.2398353999999998,-0.45150959999999996,-0.06297360000000002,-0.40131659999999997,-27.5213966,-2.0711883999999996,-12.871803400000001,72.432798,-1.2786246,1.7514332879999999,-0.6545593799999997,-0.55252729944,-0.048971862000000005,0.35238450400000004
10:07:03,-0.46921490499999996,1.7713436349999998,-1.2406852199999998,-0.45742227999999996,-0.06520018,-0.40277613,-27.522056355,-2.09859797,-12.870020795,72.4208899,-1.2770710575,1.7701734306499999,-0.6671275589999998,-0.557074201197,-0.05136994835,0.35836475520000005
10:07:03,-0.4648882099999999,1.79026107,-1.2415350399999998,-0.46333495999999996,-0.06742676000000003,-0.40423566,-27.52271611,-2.12600754,-12.86823819,72.40898179999999,-1.275517515,1.7889135733,-0.6796957379999998,-0.561621102954,-0.053768034699999995,0.36434500639999995
10:07:03,-0.460561515,1.809178505,-1.2423848599999998,-0.46924763999999997,-0.06965334000000001,-0.40569519,-27.523375865,-2.1534171099999995,-12.866455585,72.39707369999999,-1.2739639725,1.80765371595,-0.6922639169999999,-0.5661680047109999,-0.056166121050000045,0.37032525759999996
10:07:03,-0.45623481999999993,1.82809594,-1.2432346799999998,-0.47516031999999997,-0.07187991999999999,-0.40715471999999997,-27.52403562,-2.18082668,-12.86467298,72.3851656,-1.2724104299999999,1.8263938586,-0.7048320959999997,-0.5707149064679999,-0.05856420740000004,0.37630550879999997
10:07:03,-0.451908125,1.8470133750000002,-1.2440844999999998,-0.481073,-0.07410650000000002,-0.40861424999999996,-27.524695375,-2.2082362499999997,-12.862890375000001,72.3732575,-1.2708568875,1.84513400125,-0.7174002749999998,-0.575261808225,-0.060962293750000035,0.38228576
10:07:03,-0.44758142999999995,1.8659308099999998,-1.2449343199999998,-0.48698568,-0.07633308,-0.41007377999999994,-27.52535513,-2.2356458199999993,-12.86110777,72.3613494,-1.269303345,1.8638741439,-0.7299684539999999,-0.579808709982,-0.06336038010000003,0.3882660112
10:07:03,-0.443254735,1.884848245,-1.2457841399999998,-0.49289836,-0.07855966000000003,-0.41153331,-27.526014885,-2.26305539,-12.859325165,72.3494413,-1.2677498025,1.88261428655,-0.7425366329999997,-0.584355611739,-0.06575846645000002,0.3942462624
10:07:03,-0.43892803999999996,1.90376568,-1.2466339599999998,-0.49881104,-0.08078624000000001,-0.41299283999999997,-27.52667464,-2.2904649599999996,-12.85754256,72.3375332,-1.26619626,1.9013544292,-0.7551048119999998,-0.588902513496,-0.06815655280000002,0.4002265136
10:07:03,-0.4346013449999999,1.922683115,-1.2474837799999998,-0.50472372,-0.08301281999999999,-0.41445236999999996,-27.527334395,-2.31787453,-12.855759955,72.3256251,-1.2646427175,1.92009457185,-0.7676729909999999,-0.593449415253,-0.07055463915000001,0.4062067648
10:07:03,-0.43027465,1.9416005500000002,-1.2483335999999998,-0.5106364,-0.08523940000000002,-0.4159119,-27.52799415,-2.3452840999999998,-12.853977350000001,72.313717,-1.263089175,1.9388347145,-0.7802411699999997,-0.59799631701,-0.07295272550000001,0.412187016
10:07:03,-0.42594795499999993,1.9605179849999999,-1.2491834199999998,-0.51654908,-0.08746598,-0.41737143,-27.528653905,-2.3726936699999994,-12.852194745,72.3018089,-1.2615356325,1.95757485715,-0.7928093489999998,-0.602543218767,-0.07535081185,0.4181672672
10:07:03,-0.42162126,1.97943542,-1.2500332399999998,-0.52246176,-0.08969256000000003,-0.41883096,-27.52931366,-2.40010324,-12.85041214,72.2899008,-1.25998209,1.9763149998,-0.8053775279999998,-0.607090120524,-0.0777488982,0.42414751840000003
10:07:03,-0.41729456499999995,1.998352855,-1.2508830599999998,-0.52837444,-0.09191914000000001,-0.42029048999999996,-27.529973415,-2.4275128099999996,-12.848629535,72.2779927,-1.2584285474999999,1.99505514245,-0.8179457069999997,-0.611637022281,-0.08014698455,0.43012776960000004
10:07:03,-0.41296787,2.01727029,-1.2517328799999998,-0.53428712,-0.09414571999999999,-0.42175001999999995,-27.530633169999998,-2.45492238,-12.84684693,72.2660846,-1.256875005,2.0137952851,-0.8305138859999998,-0.6161839240379999,-0.08254507090000004,0.43610802080000005
10:07:03,-0.40864117499999997,2.0361877250000004,-1.2525826999999998,-0.5401998,-0.09637230000000002,-0.42320954999999993,-27.531292925,-2.48233195,-12.845064325000001,72.2541765,-1.2553214625,2.03253542775,-0.8430820649999998,-0.6207308257949999,-0.08494315725000004,0.44208827199999995
10:07:03,-0.4043144799999999,2.05510516,-1.2534325199999998,-0.54611248,-0.09859888,-0.42466908,-27.53195268,-2.5097415199999995,-12.84328172,72.2422684,-1.25376792,2.0512755704,-0.8556502439999999,-0.625277727552,-0.08734124360000003,0.44806852319999996
10:07:03,-0.399987785,2.0740225949999997,-1.2542823399999998,-0.55202516,-0.10082546000000003,-0.42612860999999996,-27.532612435,-2.53715109,-12.841499115,72.2303603,-1.2522143774999999,2.07001571305,-0.8682184229999997,-0.629824629309,-0.08973932995000003,0.45404877439999997
10:07:03,-0.39566108999999994,2.0929400300000003,-1.2551321599999998,-0.55793784,-0.10305204000000001,-0.42758814,-27.533272189999998,-2.5645606599999997,-12.83971651,72.2184522,-1.250660835,2.0887558557,-0.8807866019999998,-0.634371531066,-0.09213741630000002,0.4600290256
10:07:03,-0.391334395,2.111857465,-1.2559819799999998,-0.56385052,-0.10527861999999999,-0.42904767,-27.533931945,-2.5919702299999994,-12.837933905,72.2065441,-1.2491072925,2.10749599835,-0.8933547809999999,-0.638918432823,-0.09453550265000002,0.4660092768
10:07:03,-0.38700769999999995,2.1307748999999996,-1.2568317999999998,-0.5697632,-0.10750520000000002,-0.4305072,-27.5345917,-2.6193798,-12.836151300000001,72.194636,-1.24755375,2.126236141,-0.9059229599999997,-0.64346533458,-0.09693358900000001,0.471989528
10:07:03,-0.3826810049999999,2.149692335,-1.2576816199999998,-0.57567588,-0.10973178,-0.43196672999999997,-27.535251455,-2.6467893699999996,-12.834368695,72.1827279,-1.2460002074999998,2.14497628365,-0.9184911389999998,-0.648012236337,-0.09933167535000001,0.4779697792
10:07:03,-0.37835430999999997,2.1686097699999998,-1.2585314399999998,-0.58158856,-0.11195836000000003,-0.43342625999999995,-27.53591121,-2.67419894,-12.83258609,72.1708198,-1.244446665,2.1637164263,-0.9310593179999999,-0.652559138094,-0.1017297617,0.4839500304
10:07:03,-0.3740276149999999,2.1875272050000003,-1.2593812599999998,-0.58750124,-0.11418494000000001,-0.43488578999999994,-27.536570965,-2.70160851,-12.830803485,72.1589117,-1.2428931225,2.18245656895,-0.9436274969999997,-0.657106039851,-0.10412784805,0.4899302816
10:07:03,-0.36970092,2.20644464,-1.2602310799999998,-0.59341392,-0.11641151999999999,-0.43634532,-27.53723072,-2.7290180799999995,-12.82902088,72.1470036,-1.24133958,2.2011967116,-0.9561956759999998,-0.6616529416079999,-0.10652593440000005,0.4959105328
10:07:03,-0.36537422499999994,2.2253620749999996,-1.2610808999999998,-0.5993265999999999,-0.11863810000000002,-0.43780484999999997,-27.537890475,-2.75642765,-12.827238275000001,72.13509549999999,-1.2397860375,2.2199368542499998,-0.9687638549999998,-0.6661998433649999,-0.10892402075000004,0.501890784
10:07:03,-0.36104753,2.24427951,-1.2619307199999998,-0.6052392799999999,-0.12086468,-0.43926437999999995,-27.53855023,-2.7838372199999997,-12.82545567,72.12318739999999,-1.2382324949999999,2.2386769968999998,-0.9813320339999997,-0.6707467451219999,-0.11132210710000004,0.5078710352
10:07:03,-0.35672083499999996,2.263196945,-1.2627805399999998,-0.6111519599999999,-0.12309126000000004,-0.44072391,-27.539209985,-2.81124679,-12.823673065000001,72.11127929999999,-1.2366789525,2.25741713955,-0.9939002129999998,-0.675293646879,-0.11372019345000003,0.5138512864
10:07:03,-0.3523941399999999,2.2821143800000003,-1.2636303599999998,-0.6170646399999999,-0.12531784,-0.44218344,-27.53986974,-2.83865636,-12.82189046,72.0993712,-1.23512541,2.2761572822,-1.006468392,-0.679840548636,-0.11611827980000003,0.5198315376
10:07:03,-0.348067445,2.301031815,-1.2644801799999998,-0.62297732,-0.12754442,-0.44364296999999997,-27.540529495,-2.8660659299999995,-12.820107855,72.0874631,-1.2335718675,2.29489742485,-1.0190365709999996,-0.684387450393,-0.11851636615000002,0.5258117888
10:07:03,-0.34374074999999993,2.3199492499999996,-1.2653299999999998,-0.62889,-0.12977100000000003,-0.44510249999999996,-27.54118925,-2.8934755,-12.818325250000001,72.075555,-1.2320183249999999,2.3136375675,-1.0316047499999996,-0.68893435215,-0.12091445250000002,0.53179204
10:07:03,-0.339414055,2.338866685,-1.2661798199999998,-0.63480268,-0.13199758,-0.44656202999999994,-27.541849005,-2.9208850699999998,-12.816542645,72.0636469,-1.2304647825,2.33237771015,-1.0441729289999997,-0.693481253907,-0.12331253885000001,0.5377722912
10:07:03,-0.33508735999999995,2.35778412,-1.2670296399999998,-0.64071536,-0.13422416000000004,-0.44802155999999993,-27.54250876,-2.9482946400000003,-12.814760040000001,72.0517388,-1.22891124,2.3511178528,-1.0567411079999998,-0.698028155664,-0.1257106252,0.5437525424
10:07:03,-0.330760665,2.3767015550000004,-1.2678794599999998,-0.64662804,-0.13645074000000001,-0.44948108999999997,-27.543168514999998,-2.97570421,-12.812977435,72.0398307,-1.2273576975,2.36985799545,-1.0693092869999998,-0.702575057421,-0.12810871155,0.5497327936
10:07:03,-0.32643396999999996,2.39561899,-1.2687292799999998,-0.65254072,-0.13867732,-0.45094061999999996,-27.54382827,-3.0031137799999996,-12.81119483,72.0279226,-1.225804155,2.3885981381,-1.081877466,-0.707121959178,-0.1305067979,0.5557130448000001
10:07:03,-0.3221072749999999,2.4145364249999997,-1.2695790999999998,-0.6584534,-0.14090390000000003,-0.45240015,-27.544488025,-3.03052335,-12.809412225,72.0160145,-1.2242506125,2.40733828075,-1.094445645,-0.7116688609349999,-0.13290488425000005,0.5616932960000001
10:07:03,-0.31778058,2.43345386,-1.2704289199999999,-0.66436608,-0.14313048,-0.45385968,-27.54514778,-3.05793292,-12.80762962,72.0041064,-1.22269707,2.4260784234,-1.1070138239999996,-0.7162157626919999,-0.13530297060000004,0.5676735472000001
10:07:03,-0.31345388499999993,2.452371295,-1.2712787399999999,-0.67027876,-0.14535706000000004,-0.45531921,-27.545807534999998,-3.0853424899999995,-12.805847015000001,71.9921983,-1.2211435275,2.44481856605,-1.1195820029999997,-0.720762664449,-0.13770105695000004,0.5736537984000001
10:07:03,-0.30912719,2.4712887300000004,-1.2721285599999999,-0.67619144,-0.14758364000000002,-0.45677873999999996,-27.54646729,-3.11275206,-12.80406441,71.9802902,-1.219589985,2.4635587087,-1.1321501819999997,-0.725309566206,-0.14009914330000003,0.5796340496000001
10:07:03,-0.30480049499999995,2.490206165,-1.2729783799999999,-0.68210412,-0.14981022,-0.45823826999999995,-27.547127045,-3.1401616299999997,-12.802281805,71.9683821,-1.2180364424999999,2.48229885135,-1.1447183609999998,-0.729856467963,-0.14249722965000003,0.5856143008000001
10:07:03,-0.3004738,2.5091235999999997,-1.2738281999999999,-0.6880168,-0.15203680000000003,-0.45969779999999993,-27.5477868,-3.1675712000000003,-12.8004992,71.956474,-1.2164829,2.501038994,-1.1572865399999999,-0.73440336972,-0.14489531600000002,0.5915945520000001
10:07:03,-0.29614710499999997,2.528041035,-1.2746780199999999,-0.69392948,-0.15426338,-0.4611573299999999,-27.548446554999998,-3.19498077,-12.798716595,71.9445659,-1.2149293575,2.51977913665,-1.169854719,-0.738950271477,-0.14729340235000002,0.5975748031999999
10:07:03,-0.2918204099999999,2.54695847,-1.2755278399999999,-0.69984216,-0.15648996000000004,-0.46261685999999996,-27.54910631,-3.2223903399999996,-12.796933990000001,71.9326578,-1.213375815,2.5385192793,-1.182422898,-0.743497173234,-0.1496914887,0.6035550543999999
10:07:03,-0.287493715,2.5658759050000004,-1.2763776599999999,-0.70575484,-0.15871654000000002,-0.46407638999999995,-27.549766065,-3.24979991,-12.795151385,71.9207497,-1.2118222725,2.55725942195,-1.194991077,-0.748044074991,-0.15208957505,0.6095353055999999
10:07:03,-0.28316701999999994,2.58479334,-1.2772274799999999,-0.71166752,-0.16094312,-0.46553592,-27.55042582,-3.27720948,-12.79336878,71.9088416,-1.21026873,2.5759995646,-1.2075592559999997,-0.752590976748,-0.1544876614,0.6155155567999999
10:07:03,-0.278840325,2.6037107749999997,-1.2780772999999999,-0.7175802,-0.16316970000000003,-0.46699545,-27.551085575,-3.3046190500000003,-12.791586175,71.8969335,-1.2087151875,2.59473970725,-1.2201274349999998,-0.757137878505,-0.15688574775,0.6214958079999999
10:07:03,-0.27451362999999995,2.6226282100000002,-1.2789271199999999,-0.72349288,-0.16539628,-0.46845497999999997,-27.55174533,-3.33202862,-12.78980357,71.8850254,-1.207161645,2.6134798499,-1.2326956139999998,-0.7616847802619999,-0.15928383410000005,0.6274760591999999
10:07:03,-0.2701869349999999,2.641545645,-1.2797769399999999,-0.72940556,-0.16762286000000004,-0.46991450999999995,-27.552405085,-3.3594381899999997,-12.788020965000001,71.87311729999999,-1.2056081024999998,2.63221999255,-1.245263793,-0.7662316820189999,-0.16168192045000004,0.6334563104
10:07:03,-0.26586023999999997,2.6604630800000004,-1.2806267599999999,-0.73531824,-0.16984944000000002,-0.47137403999999994,-27.553064839999998,-3.38684776,-12.78623836,71.86120919999999,-1.2040545599999999,2.6509601352,-1.257831972,-0.770778583776,-0.16408000680000004,0.6394365616
10:07:03,-0.2615335449999999,2.679380515,-1.2814765799999999,-0.74123092,-0.17207602,-0.4728335699999999,-27.553724595,-3.41425733,-12.784455755,71.84930109999999,-1.2025010175,2.66970027785,-1.270400151,-0.775325485533,-0.16647809315000003,0.6454168128
10:07:03,-0.25720685,2.6982979499999997,-1.2823263999999999,-0.7471435999999999,-0.17430260000000003,-0.47429309999999997,-27.55438435,-3.4416668999999995,-12.78267315,71.83739299999999,-1.200947475,2.6884404205,-1.2829683299999997,-0.77987238729,-0.16887617950000003,0.651397064
10:07:03,-0.25288015499999994,2.7172153850000003,-1.2831762199999999,-0.7530562799999999,-0.17652918,-0.47575262999999995,-27.555044105,-3.46907647,-12.780890545,71.82548489999999,-1.1993939325,2.70718056315,-1.2955365089999997,-0.784419289047,-0.17127426585000002,0.6573773152
10:07:03,-0.24855346,2.73613282,-1.2840260399999999,-0.7589689599999999,-0.17875576000000004,-0.47721215999999994,-27.555703859999998,-3.4964860399999997,-12.779107940000001,71.81357679999999,-1.1978403899999999,2.7259207058,-1.3081046879999998,-0.788966190804,-0.17367235220000002,0.6633575664
10:07:03,-0.24422676499999996,2.7550502550000004,-1.2848758599999999,-0.7648816399999999,-0.18098234000000002,-0.47867169,-27.556363615,-3.5238956100000003,-12.777325335,71.8016687,-1.1962868475,2.74466084845,-1.3206728669999999,-0.793513092561,-0.17607043855,0.6693378176
10:07:03,-0.2399000699999999,2.77396769,-1.2857256799999999,-0.7707943199999999,-0.18320892,-0.48013121999999997,-27.55702337,-3.55130518,-12.77554273,71.7897606,-1.194733305,2.7634009911,-1.333241046,-0.798059994318,-0.1784685249,0.6753180688
10:07:03,-0.23557337499999997,2.7928851249999997,-1.2865754999999999,-0.7767069999999999,-0.18543550000000003,-0.48159074999999996,-27.557683125,-3.5787147499999996,-12.773760125,71.7778525,-1.1931797625,2.78214113375,-1.345809225,-0.802606896075,-0.18086661125,0.68129832
10:07:03,-0.23124667999999993,2.8118025600000003,-1.2874253199999999,-0.7826196799999999,-0.18766208,-0.48305027999999994,-27.558342879999998,-3.60612432,-12.77197752,71.7659444,-1.1916262199999998,2.8008812763999997,-1.3583774039999996,-0.807153797832,-0.1832646976,0.6872785712
10:07:03,-0.226919985,2.830719995,-1.2882751399999999,-0.7885323599999999,-0.18988866000000004,-0.48450980999999993,-27.559002635,-3.63353389,-12.770194915000001,71.7540363,-1.1900726775,2.8196214190499997,-1.3709455829999997,-0.8117006995889999,-0.18566278395000005,0.6932588224
10:07:03,-0.22259328999999994,2.8496374299999996,-1.2891249599999999,-0.7944450399999999,-0.19211524000000002,-0.48596933999999997,-27.55966239,-3.6609434599999995,-12.76841231,71.7421282,-1.188519135,2.8383615616999998,-1.3835137619999998,-0.8162476013459999,-0.18806087030000004,0.6992390736
10:07:03,-0.218266595,2.868554865,-1.2899747799999999,-0.8003577199999999,-0.19434182,-0.48742886999999996,-27.560322145,-3.68835303,-12.766629705,71.7302201,-1.1869655925,2.8571017043499998,-1.3960819409999998,-0.820794503103,-0.19045895665000004,0.7052193248
10:07:03,-0.21393989999999996,2.8874722999999998,-1.2908245999999999,-0.8062703999999999,-0.19656840000000003,-0.48888839999999995,-27.560981899999998,-3.7157625999999997,-12.7648471,71.718312,-1.18541205,2.875841847,-1.40865012,-0.82534140486,-0.19285704300000003,0.711199576
10:07:03,-0.2096132049999999,2.9063897350000003,-1.2916744199999999,-0.81218308,-0.19879498,-0.49034792999999993,-27.561641655,-3.7431721700000002,-12.763064495,71.7064039,-1.1838585074999999,2.89458198965,-1.421218299,-0.829888306617,-0.19525512935000003,0.7171798272000001
10:07:03,-0.20528650999999998,2.92530717,-1.2925242399999999,-0.81809576,-0.20102156000000004,-0.49180746,-27.56230141,-3.77058174,-12.761281890000001,71.6944958,-1.182304965,2.9133221323,-1.433786478,-0.834435208374,-0.19765321570000002,0.7231600784000001
10:07:03,-0.20095981499999993,2.9442246049999996,-1.2933740599999999,-0.82400844,-0.20324814000000002,-0.49326698999999996,-27.562961165,-3.7979913099999996,-12.759499285,71.6825877,-1.1807514225,2.93206227495,-1.4463546569999997,-0.838982110131,-0.20005130205000002,0.7291403296000001
10:07:03,-0.19663312,2.96314204,-1.2942238799999999,-0.82992112,-0.20547472,-0.49472651999999995,-27.563620919999998,-3.82540088,-12.757716680000001,71.6706796,-1.1791978799999998,2.9508024176,-1.4589228359999997,-0.843529011888,-0.2024493884,0.7351205808000001
10:07:03,-0.19230642499999995,2.982059475,-1.2950736999999999,-0.8358338,-0.20770130000000003,-0.49618604999999993,-27.564280675,-3.8528104499999998,-12.755934075,71.6587715,-1.1776443374999999,2.96954256025,-1.4714910149999998,-0.848075913645,-0.20484747475,0.7411008320000001
10:07:03,-0.1879797299999999,3.0009769100000003,-1.2959235199999999,-0.84174648,-0.20992788,-0.49764558,-27.56494043,-3.8802200199999994,-12.75415147,71.6468634,-1.176090795,2.9882827029,-1.4840591939999999,-0.852622815402,-0.2072455611,0.7470810832000001
10:07:03,-0.18365303499999996,3.019894345,-1.2967733399999999,-0.84765916,-0.21215446000000004,-0.49910510999999996,-27.565600184999997,-3.90762959,-12.752368865000001,71.6349553,-1.1745372525,3.00702284555,-1.496627373,-0.8571697171589999,-0.20964364745000005,0.7530613344000001
10:07:03,-0.17932633999999992,3.0388117799999996,-1.2976231599999999,-0.85357184,-0.21438104000000002,-0.5005646399999999,-27.56625994,-3.9350391599999996,-12.75058626,71.6230472,-1.17298371,3.0257629882,-1.509195552,-0.8617166189159999,-0.21204173380000005,0.7590415856000001
10:07:03,-0.17499964499999998,3.057729215,-1.2984729799999999,-0.85948452,-0.21660762,-0.5020241699999999,-27.566919695,-3.96244873,-12.748803655000001,71.6111391,-1.1714301675,3.04450313085,-1.5217637309999996,-0.8662635206729999,-0.21443982015000004,0.7650218368000001
10:07:03,-0.17067294999999993,3.07664665,-1.2993227999999999,-0.8653972,-0.21883420000000003,-0.5034837,-27.56757945,-3.9898583,-12.74702105,71.59923099999999,-1.169876625,3.0632432735,-1.5343319099999997,-0.87081042243,-0.21683790650000004,0.7710020880000001
10:07:03,-0.166346255,3.0955640850000004,-1.30017262,-0.87130988,-0.22106078,-0.50494323,-27.568239204999998,-4.0172678699999995,-12.745238445,71.58732289999999,-1.1683230825,3.08198341615,-1.5469000889999998,-0.875357324187,-0.21923599285000003,0.7769823392000001
10:07:03,-0.16201955999999995,3.11448152,-1.30102244,-0.87722256,-0.22328736,-0.50640276,-27.56889896,-4.04467744,-12.743455840000001,71.57541479999999,-1.16676954,3.1007235588,-1.5594682679999998,-0.879904225944,-0.22163407920000003,0.7829625903999999
10:07:03,-0.1576928649999999,3.1333989549999997,-1.30187226,-0.88313524,-0.22551394000000002,-0.5078622899999999,-27.569558715,-4.07208701,-12.741673235,71.56350669999999,-1.1652159974999998,3.11946370145,-1.572036447,-0.884451127701,-0.22403216555000002,0.7889428415999999
10:07:03,-0.15336616999999997,3.15231639,-1.30272208,-0.88904792,-0.22774052,-0.5093218199999999,-27.57021847,-4.09949658,-12.739890630000001,71.55159859999999,-1.1636624549999999,3.1382038441,-1.584604626,-0.888998029458,-0.22643025190000002,0.7949230928
10:07:03,-0.14903947499999992,3.171233825,-1.3035719,-0.8949606,-0.22996710000000004,-0.51078135,-27.570878224999998,-4.12690615,-12.738108025,71.53969049999999,-1.1621089125,3.15694398675,-1.597172805,-0.893544931215,-0.22882833825,0.800903344
10:07:03,-0.14471277999999999,3.1901512600000004,-1.30442172,-0.90087328,-0.23219368,-0.51224088,-27.57153798,-4.15431572,-12.73632542,71.52778239999999,-1.16055537,3.1756841294,-1.6097409839999997,-0.898091832972,-0.2312264246,0.8068835952
10:07:03,-0.14038608499999994,3.209068695,-1.30527154,-0.90678596,-0.23442026,-0.51370041,-27.572197735,-4.18172529,-12.734542815000001,71.5158743,-1.1590018275,3.19442427205,-1.6223091629999997,-0.902638734729,-0.23362451095,0.8128638464
10:07:03,-0.13605939,3.2279861299999997,-1.30612136,-0.91269864,-0.23664684000000002,-0.51515994,-27.57285749,-4.20913486,-12.73276021,71.5039662,-1.1574482849999999,3.2131644147,-1.6348773419999998,-0.9071856364859999,-0.23602259730000005,0.8188440976
10:07:03,-0.13173269499999996,3.246903565,-1.30697118,-0.91861132,-0.23887342,-0.51661947,-27.573517244999998,-4.2365444299999995,-12.730977605000001,71.4920581,-1.1558947425,3.23190455735,-1.6474455209999999,-0.9117325382429999,-0.23842068365000005,0.8248243488
10:07:04,-0.127406,3.265821,-1.307821,-0.924524,-0.2411,-0.518079,-27.574177,-4.263954,-12.729195,71.48015,-1.1543412,3.2506447,-1.6600137,-0.91627944,-0.24081877,0.8308046
10:07:04,-0.134591685,3.274141995,-1.2984951299999998,-0.92029457,-0.23626332,-0.5167686199999999,-27.52627621,-4.285404635,-12.72262914,71.6010282,-1.1593340429999999,3.2540422995,-1.6580311815,-0.9141935551499999,-0.23594776615,0.8251602779
10:07:04,-0.14177736999999999,3.28246299,-1.28916926,-0.91606514,-0.23142664000000002,-0.51545824,-27.47837542,-4.30685527,-12.71606328,71.7219064,-1.164326886,3.257439899,-1.656048663,-0.9121076703,-0.2310767623,0.8195159558
10:07:04,-0.14896305499999998,3.290783985,-1.27984339,-0.91183571,-0.22658996,-0.51414786,-27.43047463,-4.328305905,-12.70949742,71.8427846,-1.169319729,3.2608374985,-1.6540661445,-0.9100217854499999,-0.22620575845,0.8138716337
10:07:04,-0.15614874,3.29910498,-1.2705175199999998,-0.90760628,-0.22175328,-0.51283748,-27.38257384,-4.3497565400000004,-12.702931560000001,71.9636628,-1.174312572,3.264235098,-1.652083626,-0.9079359006,-0.2213347546,0.8082273116
10:07:04,-0.163334425,3.3074259749999997,-1.26119165,-0.90337685,-0.21691660000000001,-0.5115270999999999,-27.33467305,-4.371207175,-12.696365700000001,72.084541,-1.179305415,3.2676326975,-1.6501011074999998,-0.9058500157499999,-0.21646375075,0.8025829895
10:07:04,-0.17052011,3.3157469699999997,-1.25186578,-0.89914742,-0.21207992,-0.51021672,-27.28677226,-4.39265781,-12.689799840000001,72.2054192,-1.1842982579999999,3.2710302970000003,-1.6481185889999999,-0.9037641309,-0.2115927469,0.7969386674
10:07:04,-0.177705795,3.324067965,-1.2425399099999999,-0.89491799,-0.20724324,-0.50890634,-27.23887147,-4.414108445,-12.68323398,72.3262974,-1.189291101,3.2744278965,-1.6461360704999999,-0.9016782460499999,-0.20672174305,0.7912943453
10:07:04,-0.18489148,3.33238896,-1.23321404,-0.89068856,-0.20240656,-0.50759596,-27.19097068,-4.43555908,-12.67666812,72.4471756,-1.194283944,3.277825496,-1.644153552,-0.8995923612,-0.2018507392,0.7856500232
10:07:04,-0.192077165,3.340709955,-1.22388817,-0.88645913,-0.19756988000000003,-0.5062855799999999,-27.14306989,-4.457009715,-12.67010226,72.5680538,-1.199276787,3.2812230955,-1.6421710335,-0.8975064763499999,-0.19697973535,0.7800057011
10:07:04,-0.19926285,3.34903095,-1.2145622999999999,-0.8822297,-0.19273320000000002,-0.5049752,-27.0951691,-4.47846035,-12.6635364,72.688932,-1.20426963,3.284620695,-1.640188515,-0.8954205915,-0.1921087315,0.774361379
10:07:04,-0.206448535,3.357351945,-1.2052364299999998,-0.87800027,-0.18789652,-0.50366482,-27.04726831,-4.499910985,-12.656970540000001,72.8098102,-1.209262473,3.2880182945,-1.6382059965,-0.8933347066499999,-0.18723772765,0.7687170569
10:07:04,-0.21363421999999999,3.36567294,-1.19591056,-0.87377084,-0.18305984000000003,-0.50235444,-26.99936752,-4.52136162,-12.650404680000001,72.9306884,-1.214255316,3.291415894,-1.636223478,-0.8912488218,-0.1823667238,0.7630727348
10:07:04,-0.22081990499999998,3.3739939349999997,-1.1865846899999999,-0.86954141,-0.17822316000000002,-0.5010440599999999,-26.95146673,-4.542812255,-12.643838820000001,73.0515666,-1.219248159,3.2948134935,-1.6342409595,-0.8891629369499999,-0.17749571995,0.7574284127
10:07:04,-0.22800559,3.3823149299999997,-1.1772588199999998,-0.86531198,-0.17338648,-0.49973367999999996,-26.90356594,-4.56426289,-12.63727296,73.1724448,-1.2242410019999999,3.298211093,-1.6322584409999998,-0.8870770521,-0.1726247161,0.7517840906
10:07:04,-0.235191275,3.3906359249999998,-1.16793295,-0.86108255,-0.16854980000000003,-0.49842329999999996,-26.85566515,-4.585713525,-12.6307071,73.293323,-1.229233845,3.3016086925,-1.6302759224999999,-0.8849911672499999,-0.16775371225,0.7461397685
10:07:04,-0.24237696,3.39895692,-1.15860708,-0.85685312,-0.16371312000000002,-0.49711291999999996,-26.80776436,-4.60716416,-12.62414124,73.4142012,-1.234226688,3.305006292,-1.6282934039999999,-0.8829052824,-0.1628827084,0.7404954464
10:07:04,-0.249562645,3.407277915,-1.1492812099999998,-0.85262369,-0.15887644,-0.49580253999999996,-26.75986357,-4.628614795,-12.61757538,73.5350794,-1.239219531,3.3084038915000002,-1.6263108855,-0.8808193975499999,-0.15801170455,0.7348511243
10:07:04,-0.25674832999999997,3.41559891,-1.13995534,-0.8483942600000001,-0.15403976000000003,-0.49449215999999996,-26.71196278,-4.65006543,-12.611009520000001,73.6559576,-1.244212374,3.311801491,-1.624328367,-0.8787335127,-0.1531407007,0.7292068022
10:07:04,-0.263934015,3.423919905,-1.13062947,-0.84416483,-0.14920308000000002,-0.49318177999999996,-26.66406199,-4.671516065,-12.604443660000001,73.7768358,-1.249205217,3.3151990905,-1.6223458485,-0.8766476278499999,-0.14826969685,0.7235624801
10:07:04,-0.27111969999999996,3.4322409,-1.1213035999999998,-0.8399354,-0.1443664,-0.49187139999999996,-26.6161612,-4.6929667,-12.597877800000001,73.897714,-1.25419806,3.31859669,-1.62036333,-0.8745617429999999,-0.143398693,0.717918158
10:07:04,-0.278305385,3.4405618949999996,-1.11197773,-0.83570597,-0.13952972000000002,-0.49056101999999996,-26.56826041,-4.714417335,-12.59131194,74.0185922,-1.259190903,3.3219942895,-1.6183808115,-0.87247585815,-0.13852768915,0.7122738359
10:07:04,-0.28549107,3.4488828899999997,-1.10265186,-0.83147654,-0.13469304,-0.48925063999999996,-26.52035962,-4.73586797,-12.58474608,74.1394704,-1.264183746,3.325391889,-1.6163982929999998,-0.8703899733,-0.1336566853,0.7066295138
10:07:04,-0.292676755,3.4572038849999998,-1.0933259899999999,-0.8272471100000001,-0.12985636,-0.48794025999999996,-26.47245883,-4.757318605,-12.57818022,74.2603486,-1.269176589,3.3287894885,-1.6144157744999998,-0.86830408845,-0.12878568145,0.7009851917000001
10:07:04,-0.29986244,3.46552488,-1.0840001199999998,-0.82301768,-0.12501968000000002,-0.48662987999999996,-26.42455804,-4.77876924,-12.57161436,74.3812268,-1.2741694319999999,3.332187088,-1.6124332559999999,-0.8662182035999999,-0.1239146776,0.6953408696000001
10:07:04,-0.307048125,3.473845875,-1.07467425,-0.81878825,-0.12018300000000003,-0.48531949999999996,-26.37665725,-4.800219875,-12.5650485,74.502105,-1.279162275,3.3355846875,-1.6104507375,-0.86413231875,-0.11904367375,0.6896965475
10:07:04,-0.31423381,3.48216687,-1.0653483799999999,-0.81455882,-0.11534632000000003,-0.48400911999999996,-26.32875646,-4.82167051,-12.558482640000001,74.6229832,-1.284155118,3.338982287,-1.608468219,-0.8620464338999999,-0.1141726699,0.6840522254
10:07:04,-0.321419495,3.490487865,-1.05602251,-0.81032939,-0.11050964000000002,-0.48269873999999996,-26.28085567,-4.843121145,-12.55191678,74.7438614,-1.289147961,3.3423798865,-1.6064857005,-0.85996054905,-0.10930166605,0.6784079033
10:07:04,-0.32860518000000005,3.49880886,-1.04669664,-0.8060999600000001,-0.10567296000000001,-0.48138835999999996,-26.232954879999998,-4.86457178,-12.54535092,74.8647396,-1.294140804,3.3457774860000002,-1.604503182,-0.8578746641999999,-0.1044306622,0.6727635812
10:07:04,-0.335790865,3.5071298549999996,-1.0373707699999999,-0.80187053,-0.10083628000000003,-0.48007797999999996,-26.185054089999998,-4.886022415,-12.53878506,74.9856178,-1.2991336470000001,3.3491750855,-1.6025206635,-0.85578877935,-0.09955965835,0.6671192591
10:07:04,-0.34297655000000005,3.5154508499999997,-1.0280448999999998,-0.7976411,-0.09599960000000002,-0.47876759999999996,-26.137153299999998,-4.90747305,-12.5322192,75.10649599999999,-1.30412649,3.352572685,-1.600538145,-0.8537028944999999,-0.0946886545,0.661474937
10:07:04,-0.350162235,3.5237718449999997,-1.01871903,-0.79341167,-0.09116292000000004,-0.47745721999999996,-26.089252509999998,-4.928923685,-12.52565334,75.2273742,-1.309119333,3.3559702845,-1.5985556264999998,-0.85161700965,-0.08981765065,0.6558306148999999
10:07:04,-0.35734792000000004,3.53209284,-1.00939316,-0.78918224,-0.08632624000000003,-0.47614683999999996,-26.041351719999998,-4.95037432,-12.51908748,75.34825239999999,-1.314112176,3.359367884,-1.5965731079999999,-0.8495311247999999,-0.0849466468,0.6501862928
10:07:04,-0.364533605,3.540413835,-1.0000672899999998,-0.7849528100000001,-0.08148956000000002,-0.47483645999999996,-25.993450929999998,-4.971824955,-12.512521620000001,75.4691306,-1.319105019,3.3627654835,-1.5945905894999999,-0.84744523995,-0.08007564295,0.6445419707
10:07:04,-0.37171929000000004,3.54873483,-0.9907414199999999,-0.78072338,-0.07665288000000003,-0.47352607999999996,-25.945550139999998,-4.99327559,-12.50595576,75.59000879999999,-1.324097862,3.366163083,-1.592608071,-0.8453593550999999,-0.0752046391,0.6388976486
10:07:04,-0.378904975,3.557055825,-0.9814155499999999,-0.77649395,-0.07181620000000002,-0.47221569999999996,-25.89764935,-5.014726225,-12.4993899,75.710887,-1.329090705,3.3695606825,-1.5906255525,-0.84327347025,-0.07033363525,0.6332533265
10:07:04,-0.38609066000000003,3.56537682,-0.9720896799999998,-0.77226452,-0.06697952000000004,-0.47090531999999996,-25.84974856,-5.03617686,-12.49282404,75.83176519999999,-1.334083548,3.372958282,-1.588643034,-0.8411875853999999,-0.0654626314,0.6276090044
10:07:04,-0.39327634499999997,3.573697815,-0.9627638099999999,-0.76803509,-0.06214284000000003,-0.46959493999999996,-25.80184777,-5.057627495,-12.48625818,75.9526434,-1.339076391,3.3763558815,-1.5866605155,-0.83910170055,-0.06059162755,0.6219646823
10:07:04,-0.40046203,3.5820188099999997,-0.9534379399999999,-0.76380566,-0.05730616000000002,-0.46828455999999996,-25.75394698,-5.07907813,-12.47969232,76.07352159999999,-1.344069234,3.379753481,-1.584677997,-0.8370158156999999,-0.0557206237,0.6163203602
10:07:04,-0.40764771499999997,3.5903398049999997,-0.9441120699999999,-0.75957623,-0.05246948000000004,-0.46697417999999996,-25.70604619,-5.100528765,-12.47312646,76.1943998,-1.349062077,3.3831510805000002,-1.5826954784999998,-0.83492993085,-0.05084961985,0.6106760381
10:07:04,-0.4148334,3.5986607999999998,-0.9347861999999999,-0.7553468,-0.04763280000000003,-0.46566379999999996,-25.6581454,-5.1219794,-12.466560600000001,76.31527799999999,-1.35405492,3.38654868,-1.5807129599999998,-0.832844046,-0.045978616,0.605031716
10:07:04,-0.42201908500000007,3.606981795,-0.9254603299999999,-0.75111737,-0.04279612000000002,-0.46435341999999996,-25.61024461,-5.143430035,-12.45999474,76.4361562,-1.359047763,3.3899462795,-1.5787304414999999,-0.8307581611499999,-0.04110761215,0.5993873939000001
10:07:04,-0.42920477,3.61530279,-0.9161344599999999,-0.74688794,-0.03795944000000004,-0.46304303999999996,-25.56234382,-5.16488067,-12.45342888,76.55703439999999,-1.364040606,3.393343879,-1.5767479229999999,-0.8286722763,-0.0362366083,0.5937430718000001
10:07:04,-0.43639045500000007,3.623623785,-0.9068085899999999,-0.74265851,-0.03312276000000003,-0.46173265999999996,-25.51444303,-5.1863313049999995,-12.44686302,76.6779126,-1.369033449,3.3967414785,-1.5747654045,-0.82658639145,-0.03136560445,0.5880987497
10:07:04,-0.44357614,3.63194478,-0.89748272,-0.73842908,-0.02828608000000002,-0.46042227999999996,-25.46654224,-5.20778194,-12.44029716,76.79879079999999,-1.374026292,3.400139078,-1.572782886,-0.8245005066,-0.0264946006,0.5824544276
10:07:04,-0.45076182500000006,3.6402657749999996,-0.8881568499999999,-0.73419965,-0.023449400000000037,-0.45911189999999996,-25.41864145,-5.229232575,-12.4337313,76.919669,-1.379019135,3.4035366775,-1.5708003675,-0.8224146217499999,-0.02162359675,0.5768101055
10:07:04,-0.45794751,3.6485867699999996,-0.8788309799999999,-0.72997022,-0.018612720000000027,-0.45780151999999996,-25.37074066,-5.25068321,-12.42716544,77.04054719999999,-1.384011978,3.406934277,-1.568817849,-0.8203287369,-0.016752592900000002,0.5711657834
10:07:04,-0.46513319500000005,3.6569077649999997,-0.86950511,-0.72574079,-0.013776040000000045,-0.45649113999999996,-25.32283987,-5.272133845,-12.420599580000001,77.1614254,-1.389004821,3.4103318765,-1.5668353305,-0.8182428520499999,-0.011881589050000002,0.5655214613
10:07:04,-0.47231888,3.6652287599999998,-0.8601792399999999,-0.72151136,-0.008939360000000035,-0.45518075999999996,-25.27493908,-5.29358448,-12.41403372,77.28230359999999,-1.393997664,3.413729476,-1.5648528119999998,-0.8161569672,-0.007010585200000002,0.5598771392
10:07:04,-0.47950456500000005,3.673549755,-0.8508533699999998,-0.71728193,-0.004102680000000025,-0.45387037999999996,-25.22703829,-5.315035115,-12.40746786,77.4031818,-1.398990507,3.4171270755,-1.5628702934999998,-0.8140710823499999,-0.0021395813500000027,0.5542328170999999
10:07:04,-0.48669025,3.68187075,-0.8415274999999999,-0.7130525,0.0007339999999999569,-0.45255999999999996,-25.1791375,-5.33648575,-12.400902,77.52405999999999,-1.40398335,3.4205246750000002,-1.5608877749999999,-0.8119851975,0.002731422499999997,0.548588495
10:07:04,-0.49387593500000004,3.690191745,-0.8322016299999999,-0.70882307,0.005570679999999967,-0.45124961999999996,-25.13123671,-5.357936385,-12.39433614,77.6449382,-1.408976193,3.4239222745,-1.5589052565,-0.8098993126499999,0.007602426349999997,0.5429441729
10:07:04,-0.50106162,3.69851274,-0.8228757599999998,-0.70459364,0.010407359999999949,-0.44993923999999996,-25.08333592,-5.37938702,-12.38777028,77.76581639999999,-1.4139690360000001,3.427319874,-1.556922738,-0.8078134278,0.012473430199999996,0.5372998508
10:07:04,-0.508247305,3.706833735,-0.8135498899999999,-0.70036421,0.015244039999999986,-0.44862885999999996,-25.03543513,-5.400837655,-12.38120442,77.8866946,-1.418961879,3.4307174735,-1.5549402195,-0.8057275429499999,0.017344434049999996,0.5316555287
10:07:04,-0.51543299,3.71515473,-0.8042240199999999,-0.69613478,0.02008071999999997,-0.44731847999999996,-24.98753434,-5.42228829,-12.374638560000001,78.00757279999999,-1.423954722,3.434115073,-1.552957701,-0.8036416581,0.022215437899999996,0.5260112066
10:07:04,-0.522618675,3.7234757249999997,-0.7948981499999999,-0.69190535,0.02491739999999995,-0.44600809999999996,-24.93963355,-5.443738925,-12.3680727,78.128451,-1.428947565,3.4375126725,-1.5509751825,-0.8015557732499999,0.027086441749999995,0.5203668845
10:07:04,-0.5298043600000001,3.7317967199999997,-0.7855722799999999,-0.68767592,0.02975407999999999,-0.44469771999999996,-24.89173276,-5.46518956,-12.36150684,78.24932919999999,-1.433940408,3.440910272,-1.548992664,-0.7994698884,0.031957445599999995,0.5147225624
10:07:04,-0.536990045,3.740117715,-0.7762464099999999,-0.68344649,0.03459075999999997,-0.44338733999999996,-24.84383197,-5.486640195,-12.35494098,78.3702074,-1.438933251,3.4443078715,-1.5470101454999998,-0.7973840035499999,0.036828449449999995,0.5090782403
10:07:04,-0.5441757300000001,3.74843871,-0.7669205399999999,-0.67921706,0.03942743999999995,-0.44207695999999996,-24.79593118,-5.50809083,-12.34837512,78.49108559999999,-1.443926094,3.447705471,-1.5450276269999998,-0.7952981187,0.041699453299999995,0.5034339182
10:07:04,-0.551361415,3.756759705,-0.7575946699999999,-0.67498763,0.044264119999999935,-0.44076657999999996,-24.74803039,-5.529541464999999,-12.34180926,78.6119638,-1.448918937,3.4511030705,-1.5430451084999999,-0.79321223385,0.046570457149999994,0.4977895961
10:07:04,-0.5585471000000001,3.7650807,-0.7482688,-0.6707582000000001,0.04910079999999997,-0.43945619999999996,-24.7001296,-5.5509921,-12.3352434,78.73284199999999,-1.45391178,3.45450067,-1.54106259,-0.791126349,0.051441460999999994,0.492145274
10:07:04,-0.565732785,3.7734016949999996,-0.7389429299999999,-0.66652877,0.053937479999999954,-0.43814581999999996,-24.65222881,-5.572442735,-12.328677540000001,78.8537202,-1.458904623,3.4578982695000002,-1.5390800715,-0.78904046415,0.056312464849999994,0.48650095190000003
10:07:04,-0.5729184700000001,3.7817226899999996,-0.7296170599999999,-0.66229934,0.058774159999999936,-0.43683543999999996,-24.60432802,-5.59389337,-12.32211168,78.97459839999999,-1.4638974660000001,3.461295869,-1.537097553,-0.7869545792999999,0.06118346869999999,0.4808566298
10:07:04,-0.580104155,3.7900436849999997,-0.7202911899999999,-0.65806991,0.06361083999999997,-0.43552505999999996,-24.55642723,-5.615344005,-12.31554582,79.0954766,-1.468890309,3.4646934685,-1.5351150345,-0.78486869445,0.06605447254999999,0.4752123077
10:07:04,-0.5872898400000001,3.7983646799999997,-0.7109653199999999,-0.65384048,0.06844751999999996,-0.43421467999999996,-24.50852644,-5.63679464,-12.30897996,79.21635479999999,-1.473883152,3.468091068,-1.533132516,-0.7827828096,0.07092547639999999,0.4695679856
10:07:04,-0.594475525,3.8066856749999998,-0.7016394499999999,-0.6496110500000001,0.07328419999999994,-0.43290429999999996,-24.46062565,-5.6582452750000005,-12.3024141,79.337233,-1.478875995,3.4714886675,-1.5311499975,-0.78069692475,0.07579648024999999,0.4639236635
10:07:04,-0.6016612100000001,3.81500667,-0.6923135799999999,-0.64538162,0.07812087999999998,-0.43159391999999996,-24.41272486,-5.6796959099999995,-12.29584824,79.45811119999999,-1.483868838,3.474886267,-1.5291674789999998,-0.7786110398999999,0.08066748409999999,0.45827934140000004
10:07:04,-0.608846895,3.823327665,-0.6829877099999999,-0.64115219,0.08295755999999996,-0.43028353999999996,-24.36482407,-5.701146545,-12.28928238,79.5789894,-1.488861681,3.4782838665,-1.5271849604999999,-0.77652515505,0.08553848794999999,0.4526350193
10:07:04,-0.61603258,3.83164866,-0.6736618399999998,-0.63692276,0.08779423999999994,-0.42897315999999996,-24.31692328,-5.72259718,-12.282716520000001,79.69986759999999,-1.493854524,3.481681466,-1.5252024419999999,-0.7744392702,0.09040949179999999,0.4469906972
10:07:04,-0.623218265,3.839969655,-0.6643359699999999,-0.6326933299999999,0.09263091999999998,-0.42766277999999996,-24.26902249,-5.744047815,-12.27615066,79.8207458,-1.498847367,3.4850790655,-1.5232199235,-0.77235338535,0.09528049564999999,0.4413463751
10:07:04,-0.63040395,3.84829065,-0.6550100999999999,-0.6284639000000001,0.09746759999999996,-0.42635239999999996,-24.2211217,-5.76549845,-12.2695848,79.94162399999999,-1.50384021,3.488476665,-1.521237405,-0.7702675004999999,0.10015149949999999,0.43570205300000003
10:07:04,-0.6375896350000001,3.856611645,-0.6456842299999999,-0.62423447,0.10230427999999994,-0.42504201999999996,-24.17322091,-5.786949085,-12.26301894,80.0625022,-1.508833053,3.4918742645,-1.5192548865,-0.76818161565,0.10502250334999999,0.4300577309
10:07:04,-0.64477532,3.8649326399999997,-0.6363583599999999,-0.62000504,0.10714095999999992,-0.42373163999999996,-24.12532012,-5.80839972,-12.25645308,80.18338039999999,-1.5138258960000002,3.4952718640000002,-1.517272368,-0.7660957307999999,0.10989350719999999,0.4244134088
10:07:04,-0.6519610050000001,3.8732536349999998,-0.6270324899999999,-0.61577561,0.11197763999999996,-0.42242125999999997,-24.07741933,-5.829850355,-12.24988722,80.3042586,-1.518818739,3.4986694635,-1.5152898495,-0.76400984595,0.11476451104999999,0.4187690867
10:07:04,-0.65914669,3.88157463,-0.6177066199999999,-0.6115461799999999,0.11681431999999994,-0.42111087999999997,-24.029518539999998,-5.85130099,-12.24332136,80.42513679999999,-1.523811582,3.502067063,-1.513307331,-0.7619239610999999,0.11963551489999999,0.4131247646
10:07:04,-0.6663323750000001,3.889895625,-0.6083807499999999,-0.6073167500000001,0.12165099999999993,-0.41980049999999997,-23.981617749999998,-5.872751625,-12.236755500000001,80.546015,-1.5288044250000001,3.5054646625,-1.5113248124999998,-0.75983807625,0.12450651874999999,0.40748044250000004
10:07:04,-0.67351806,3.89821662,-0.59905488,-0.60308732,0.12648767999999996,-0.41849011999999997,-23.933716959999998,-5.89420226,-12.23018964,80.66689319999999,-1.533797268,3.508862262,-1.5093422939999999,-0.7577521913999999,0.1293775226,0.4018361204
10:07:04,-0.6807037450000001,3.906537615,-0.5897290099999999,-0.59885789,0.13132435999999995,-0.41717973999999997,-23.88581617,-5.915652895,-12.22362378,80.7877714,-1.538790111,3.5122598615,-1.5073597754999999,-0.75566630655,0.13424852645,0.3961917983
10:07:04,-0.68788943,3.9148586099999996,-0.5804031399999999,-0.59462846,0.13616103999999993,-0.41586935999999997,-23.83791538,-5.93710353,-12.21705792,80.90864959999999,-1.543782954,3.515657461,-1.505377257,-0.7535804217,0.1391195303,0.3905474762
10:07:04,-0.6950751150000001,3.9231796049999996,-0.5710772699999999,-0.5903990299999999,0.14099771999999997,-0.41455897999999997,-23.79001459,-5.958554165,-12.21049206,81.0295278,-1.548775797,3.5190550605,-1.5033947385,-0.75149453685,0.14399053415,0.38490315410000003
10:07:04,-0.7022608,3.9315005999999997,-0.5617513999999999,-0.5861696000000001,0.14583439999999995,-0.41324859999999997,-23.7421138,-5.9800048,-12.2039262,81.15040599999999,-1.55376864,3.52245266,-1.50141222,-0.749408652,0.148861538,0.379258832
10:07:04,-0.7094464850000001,3.9398215949999997,-0.5524255299999999,-0.58194017,0.15067107999999993,-0.41193821999999997,-23.69421301,-6.0014554350000004,-12.19736034,81.2712842,-1.558761483,3.5258502595,-1.4994297015,-0.74732276715,0.15373254185,0.3736145099
10:07:04,-0.7166321700000001,3.94814259,-0.5430996599999999,-0.57771074,0.15550775999999997,-0.41062783999999997,-23.64631222,-6.0229060699999994,-12.190794480000001,81.39216239999999,-1.563754326,3.529247859,-1.4974471829999998,-0.7452368823,0.1586035457,0.3679701878
10:07:04,-0.7238178550000001,3.956463585,-0.5337737899999999,-0.57348131,0.16034443999999995,-0.40931745999999997,-23.59841143,-6.044356705,-12.18422862,81.5130406,-1.568747169,3.5326454585000002,-1.4954646644999998,-0.7431509974499999,0.16347454955,0.3623258657
10:07:04,-0.7310035400000001,3.96478458,-0.5244479199999998,-0.5692518799999999,0.16518111999999993,-0.40800707999999997,-23.55051064,-6.06580734,-12.17766276,81.63391879999999,-1.573740012,3.5360430579999997,-1.4934821459999998,-0.7410651126,0.1683455534,0.35668154360000004
10:07:04,-0.7381892250000001,3.973105575,-0.5151220499999999,-0.5650224500000001,0.17001779999999997,-0.40669669999999997,-23.50260985,-6.087257975,-12.1710969,81.754797,-1.5787328550000002,3.5394406575,-1.4914996274999999,-0.73897922775,0.17321655725,0.3510372215
10:07:04,-0.7453749100000001,3.98142657,-0.5057961799999999,-0.56079302,0.17485447999999995,-0.40538631999999997,-23.45470906,-6.10870861,-12.16453104,81.87567519999999,-1.583725698,3.542838257,-1.489517109,-0.7368933429,0.17808756109999999,0.3453928994
10:07:04,-0.752560595,3.989747565,-0.49647030999999986,-0.55656359,0.17969115999999993,-0.40407593999999997,-23.40680827,-6.130159245,-12.15796518,81.9965534,-1.588718541,3.5462358565,-1.4875345905,-0.7348074580499999,0.18295856494999999,0.3397485773
10:07:04,-0.7597462800000001,3.9980685599999997,-0.4871444399999999,-0.55233416,0.18452783999999997,-0.40276555999999997,-23.35890748,-6.15160988,-12.15139932,82.11743159999999,-1.5937113840000001,3.549633456,-1.485552072,-0.7327215732,0.18782956879999999,0.33410425520000003
10:07:04,-0.766931965,4.006389555,-0.47781856999999994,-0.5481047299999999,0.18936451999999995,-0.40145517999999997,-23.31100669,-6.1730605149999995,-12.144833460000001,82.2383098,-1.598704227,3.5530310555,-1.4835695535,-0.73063568835,0.19270057264999998,0.3284599331
10:07:04,-0.7741176500000001,4.01471055,-0.4684926999999999,-0.5438753000000001,0.19420119999999993,-0.40014479999999997,-23.2631059,-6.19451115,-12.1382676,82.35918799999999,-1.60369707,3.556428655,-1.481587035,-0.7285498035,0.19757157649999998,0.322815611
10:07:04,-0.781303335,4.023031545,-0.4591668299999999,-0.53964587,0.19903787999999992,-0.39883441999999997,-23.21520511,-6.215961785,-12.13170174,82.4800662,-1.608689913,3.5598262545,-1.4796045164999998,-0.7264639186499999,0.20244258034999998,0.3171712889
10:07:04,-0.7884890200000001,4.031352539999999,-0.44984095999999996,-0.53541644,0.20387455999999995,-0.39752403999999997,-23.16730432,-6.23741242,-12.12513588,82.6009444,-1.613682756,3.563223854,-1.4776219979999998,-0.7243780338,0.20731358419999998,0.3115269668
10:07:04,-0.795674705,4.0396735349999995,-0.4405150899999999,-0.53118701,0.20871123999999994,-0.39621365999999997,-23.11940353,-6.258863055,-12.11857002,82.7218226,-1.6186755990000001,3.5666214535,-1.4756394794999999,-0.7222921489499999,0.21218458804999998,0.30588264470000004
10:07:04,-0.8028603900000001,4.0479945299999995,-0.43118921999999993,-0.5269575799999999,0.21354791999999992,-0.39490327999999997,-23.07150274,-6.28031369,-12.11200416,82.84270079999999,-1.623668442,3.570019053,-1.4736569609999999,-0.7202062641,0.21705559189999998,0.30023832260000005
10:07:04,-0.810046075,4.056315525,-0.42186334999999986,-0.5227281500000001,0.21838459999999996,-0.39359289999999997,-23.02360195,-6.301764325,-12.1054383,82.963579,-1.6286612850000002,3.5734166524999997,-1.4716744425,-0.7181203792499999,0.22192659574999998,0.29459400050000006
10:07:04,-0.8172317600000001,4.06463652,-0.4125374799999999,-0.51849872,0.22322127999999994,-0.39228251999999997,-22.97570116,-6.32321496,-12.09887244,83.0844572,-1.633654128,3.576814252,-1.469691924,-0.7160344944,0.22679759959999998,0.2889496784000001
10:07:04,-0.8244174450000001,4.072957515,-0.40321160999999994,-0.51426929,0.22805795999999992,-0.39097213999999997,-22.92780037,-6.344665595,-12.09230658,83.2053354,-1.638646971,3.5802118515,-1.4677094055,-0.71394860955,0.23166860344999998,0.2833053563
10:07:04,-0.8316031300000001,4.08127851,-0.3938857399999999,-0.51003986,0.23289463999999996,-0.38966175999999997,-22.87989958,-6.366116229999999,-12.08574072,83.32621359999999,-1.6436398140000001,3.583609451,-1.465726887,-0.7118627247,0.23653960729999998,0.2776610342
10:07:04,-0.8387888150000001,4.089599505,-0.3845598699999999,-0.5058104299999999,0.23773131999999994,-0.38835137999999997,-22.83199879,-6.387566865,-12.07917486,83.4470918,-1.648632657,3.5870070505,-1.4637443685,-0.70977683985,0.24141061114999998,0.2720167121
10:07:04,-0.8459745000000001,4.0979205,-0.37523399999999985,-0.501581,0.24256799999999992,-0.38704099999999997,-22.784098,-6.4090175,-12.072609,83.56797,-1.6536255,3.59040465,-1.4617618499999998,-0.707690955,0.24628161499999998,0.26637239
10:07:04,-0.8531601850000001,4.106241495,-0.3659081299999999,-0.49735157,0.24740467999999996,-0.38573061999999997,-22.73619721,-6.430468135,-12.06604314,83.6888482,-1.658618343,3.5938022495,-1.4597793314999998,-0.70560507015,0.25115261884999995,0.2607280679
10:07:04,-0.8603458700000001,4.11456249,-0.35658225999999993,-0.49312214,0.25224135999999997,-0.38442023999999997,-22.68829642,-6.45191877,-12.05947728,83.80972639999999,-1.663611186,3.597199849,-1.4577968129999999,-0.7035191853,0.2560236227,0.25508374580000004
10:07:04,-0.8675315550000001,4.122883485,-0.34725638999999986,-0.48889271,0.2570780399999999,-0.38310985999999997,-22.64039563,-6.473369405,-12.05291142,83.9306046,-1.668604029,3.6005974485,-1.4558142944999999,-0.70143330045,0.26089462655000006,0.24943942370000005
10:07:04,-0.8747172400000001,4.13120448,-0.3379305199999999,-0.48466328,0.26191471999999993,-0.38179947999999997,-22.59249484,-6.4948200400000005,-12.04634556,84.0514828,-1.673596872,3.603995048,-1.453831776,-0.6993474155999999,0.2657656304,0.24379510160000006
10:07:04,-0.8819029250000001,4.139525475,-0.32860464999999994,-0.48043385,0.26675139999999997,-0.38048909999999997,-22.54459405,-6.5162706749999995,-12.0397797,84.172361,-1.6785897150000002,3.6073926474999998,-1.4518492575,-0.69726153075,0.27063663424999995,0.23815077950000008
10:07:04,-0.8890886100000001,4.14784647,-0.3192787799999999,-0.47620442,0.27158808,-0.37917871999999997,-22.49669326,-6.53772131,-12.03321384,84.29323919999999,-1.6835825580000001,3.6107902469999997,-1.449866739,-0.6951756459,0.2755076381,0.23250645739999998
10:07:04,-0.8962742950000001,4.156167464999999,-0.3099529099999999,-0.47197499,0.27642475999999994,-0.37786833999999997,-22.44879247,-6.559171945,-12.02664798,84.4141174,-1.688575401,3.6141878465,-1.4478842205,-0.69308976105,0.28037864195000006,0.2268621353
10:07:04,-0.90345998,4.164488459999999,-0.30062703999999996,-0.46774556,0.28126144,-0.37655795999999997,-22.40089168,-6.58062258,-12.02008212,84.5349956,-1.6935682440000002,3.617585446,-1.445901702,-0.6910038761999999,0.2852496458,0.2212178132
10:07:04,-0.9106456650000001,4.1728094549999994,-0.2913011699999999,-0.46351612999999997,0.28609812,-0.37524757999999997,-22.35299089,-6.602073215,-12.01351626,84.6558738,-1.698561087,3.6209830455,-1.4439191834999998,-0.68891799135,0.29012064964999995,0.21557349110000001
10:07:04,-0.91783135,4.1811304499999995,-0.2819752999999998,-0.4592867,0.29093479999999994,-0.37393719999999997,-22.3050901,-6.62352385,-12.0069504,84.77675199999999,-1.70355393,3.624380645,-1.4419366649999998,-0.6868321065,0.2949916535,0.20992916900000003
10:07:04,-0.9250170350000001,4.1894514449999996,-0.27264942999999997,-0.45505727,0.29577148,-0.37262681999999997,-22.25718931,-6.6449744850000005,-12.00038454,84.8976302,-1.7085467730000001,3.6277782445,-1.4399541464999999,-0.68474622165,0.29986265735000006,0.20428484690000004
10:07:04,-0.9322027200000002,4.19777244,-0.2633235599999999,-0.45082784,0.30060816,-0.37131643999999997,-22.20928852,-6.6664251199999995,-11.99381868,85.0185084,-1.713539616,3.631175844,-1.437971628,-0.6826603367999999,0.3047336612,0.19864052480000005
10:07:04,-0.9393884050000001,4.206093435,-0.25399768999999983,-0.44659841,0.30544483999999994,-0.37000605999999997,-22.16138773,-6.687875755,-11.98725282,85.1393866,-1.718532459,3.6345734435,-1.4359891095,-0.68057445195,0.30960466504999995,0.19299620270000006
10:07:04,-0.9465740900000001,4.21441443,-0.24467181999999998,-0.44236897999999997,0.31028152,-0.36869567999999997,-22.11348694,-6.709326389999999,-11.98068696,85.26026479999999,-1.723525302,3.637971043,-1.434006591,-0.6784885670999999,0.3144756689,0.18735188060000008
10:07:04,-0.9537597750000001,4.222735425,-0.23534594999999991,-0.43813955,0.3151181999999999,-0.36738529999999997,-22.06558615,-6.730777025,-11.9741211,85.381143,-1.7285181450000002,3.6413686425,-1.4320240725,-0.67640268225,0.31934667275000006,0.18170755849999998
10:07:04,-0.9609454600000001,4.23105642,-0.22602007999999985,-0.43391012,0.31995487999999994,-0.36607491999999997,-22.01768536,-6.75222766,-11.96755524,85.5020212,-1.7335109880000001,3.6447662419999998,-1.430041554,-0.6743167974,0.3242176766,0.1760632364
10:07:04,-0.9681311450000001,4.239377415,-0.21669421,-0.42968069,0.32479156,-0.36476453999999997,-21.96978457,-6.773678295,-11.96098938,85.6228994,-1.738503831,3.6481638414999997,-1.4280590355,-0.67223091255,0.32908868044999995,0.1704189143
10:07:04,-0.9753168300000001,4.24769841,-0.20736833999999993,-0.42545126,0.3296282399999999,-0.36345415999999997,-21.92188378,-6.79512893,-11.95442352,85.7437776,-1.7434966740000002,3.651561441,-1.4260765169999998,-0.6701450277,0.3339596843,0.16477459220000001
10:07:04,-0.9825025150000001,4.256019405,-0.19804246999999986,-0.42122183,0.33446491999999994,-0.36214377999999997,-21.873982990000002,-6.816579565,-11.94785766,85.8646558,-1.748489517,3.6549590405,-1.4240939984999998,-0.66805914285,0.33883068815000006,0.15913027010000003
10:07:04,-0.9896882000000001,4.2643404,-0.1887166,-0.41699240000000004,0.3393016,-0.36083339999999997,-21.826082200000002,-6.8380302,-11.9412918,85.985534,-1.75348236,3.65835664,-1.4221114799999999,-0.665973258,0.343701692,0.15348594800000004
10:07:04,-0.9968738850000001,4.272661395,-0.17939072999999994,-0.41276296999999995,0.3441382799999999,-0.35952301999999997,-21.778181410000002,-6.859480834999999,-11.93472594,86.1064122,-1.7584752030000002,3.6617542395,-1.4201289615,-0.6638873731499999,0.34857269584999995,0.14784162590000005
10:07:04,-1.0040595700000001,4.28098239,-0.17006485999999987,-0.40853354,0.34897495999999995,-0.35821263999999997,-21.730280620000002,-6.88093147,-11.92816008,86.2272904,-1.763468046,3.665151839,-1.418146443,-0.6618014883,0.3534436997,0.14219730380000006
10:07:04,-1.011245255,4.289303385,-0.1607389899999998,-0.40430411,0.35381164,-0.35690225999999997,-21.682379830000002,-6.902382105,-11.92159422,86.3481686,-1.768460889,3.6685494385,-1.4161639245,-0.65971560345,0.35831470355000006,0.13655298170000008
10:07:04,-1.01843094,4.29762438,-0.15141311999999996,-0.40007468,0.3586483199999999,-0.35559187999999997,-21.634479040000002,-6.92383274,-11.915028359999999,86.4690468,-1.7734537320000001,3.671947038,-1.414181406,-0.6576297186,0.3631857074,0.13090865959999998
10:07:04,-1.025616625,4.305945375,-0.1420872499999999,-0.39584525000000004,0.36348499999999995,-0.35428149999999997,-21.586578250000002,-6.945283375,-11.908462499999999,86.589925,-1.7784465750000003,3.6753446375,-1.4121988875,-0.6555438337499999,0.36805671124999995,0.1252643375
10:07:04,-1.0328023100000001,4.3142663699999995,-0.13276137999999982,-0.39161581999999995,0.36832168,-0.35297111999999997,-21.538677460000002,-6.96673401,-11.90189664,86.7108032,-1.783439418,3.678742237,-1.410216369,-0.6534579489,0.3729277151,0.1196200154
10:07:04,-1.039987995,4.3225873649999995,-0.12343550999999997,-0.38738638999999997,0.3731583599999999,-0.35166073999999997,-21.490776670000002,-6.9881846450000005,-11.89533078,86.8316814,-1.788432261,3.6821398364999998,-1.4082338504999998,-0.65137206405,0.37779871895000006,0.11397569330000001
10:07:04,-1.04717368,4.33090836,-0.1141096399999999,-0.38315696,0.37799503999999995,-0.35035035999999997,-21.442875880000003,-7.0096352799999995,-11.88876492,86.9525596,-1.7934251040000002,3.6855374359999997,-1.4062513319999999,-0.6492861792,0.3826697228,0.10833137120000003
10:07:04,-1.054359365,4.339229355,-0.10478376999999983,-0.37892753,0.38283172,-0.34903997999999997,-21.394975090000003,-7.031085915,-11.88219906,87.0734378,-1.7984179470000001,3.6889350355,-1.4042688134999999,-0.6472002943499999,0.38754072664999994,0.10268704910000004
10:07:04,-1.06154505,4.34755035,-0.09545789999999998,-0.37469810000000003,0.3876683999999999,-0.34772959999999997,-21.347074300000003,-7.05253655,-11.8756332,87.194316,-1.80341079,3.692332635,-1.402286295,-0.6451144095,0.3924117305,0.09704272700000005
10:07:04,-1.0687307350000002,4.355871345,-0.08613202999999992,-0.37046866999999994,0.39250507999999995,-0.34641921999999997,-21.299173510000003,-7.073987185,-11.869067339999999,87.3151942,-1.8084036330000002,3.6957302345,-1.4003037765,-0.64302852465,0.39728273435000006,0.09139840490000006
10:07:04,-1.07591642,4.36419234,-0.07680615999999985,-0.36623923999999997,0.39734176,-0.34510884,-21.251272720000003,-7.09543782,-11.862501479999999,87.4360724,-1.813396476,3.699127834,-1.398321258,-0.6409426398,0.4021537382,0.08575408280000008
10:07:04,-1.083102105,4.372513335,-0.06748029,-0.36200981,0.4021784399999999,-0.34379846,-21.203371930000003,-7.116888455,-11.85593562,87.5569506,-1.818389319,3.7025254335,-1.3963387395,-0.6388567549499999,0.40702474204999994,0.08010976069999998
10:07:04,-1.09028779,4.38083433,-0.05815441999999993,-0.35778038,0.40701511999999995,-0.34248808,-21.155471140000003,-7.1383390900000006,-11.84936976,87.6778288,-1.8233821620000001,3.705923033,-1.3943562209999998,-0.6367708701,0.4118957459,0.07446543859999999
10:07:04,-1.0974734750000001,4.389155325,-0.04882854999999986,-0.35355095000000003,0.4118518,-0.3411777,-21.10757035,-7.1597897249999995,-11.8428039,87.798707,-1.8283750050000003,3.7093206325,-1.3923737025,-0.63468498525,0.41676674975000005,0.0688211165
10:07:04,-1.10465916,4.39747632,-0.03950267999999979,-0.34932151999999994,0.4166884799999999,-0.33986732,-21.05966956,-7.18124036,-11.83623804,87.9195852,-1.833367848,3.712718232,-1.3903911839999998,-0.6325991004,0.4216377536,0.06317679440000001
10:07:04,-1.111844845,4.405797315,-0.030176809999999943,-0.34509208999999996,0.42152515999999995,-0.33855694,-21.01176877,-7.202690994999999,-11.82967218,88.0404634,-1.838360691,3.7161158315,-1.3884086654999999,-0.63051321555,0.42650875744999994,0.057532472300000026
10:07:04,-1.11903053,4.41411831,-0.020850939999999873,-0.34086266,0.42636184,-0.33724656,-20.96386798,-7.22414163,-11.823106319999999,88.1613416,-1.8433535340000002,3.7195134309999998,-1.3864261469999999,-0.6284273307,0.4313797613,0.05188815020000004
10:07:04,-1.1262162150000001,4.422439304999999,-0.011525069999999804,-0.33663323,0.4311985199999999,-0.33593618,-20.91596719,-7.245592265,-11.816540459999999,88.2822198,-1.8483463770000002,3.7229110304999997,-1.3844436285,-0.62634144585,0.43625076515000005,0.04624382810000005
10:07:04,-1.1334019,4.430760299999999,-0.0021991999999999567,-0.3324038,0.43603519999999996,-0.3346258,-20.8680664,-7.2670429,-11.8099746,88.403098,-1.85333922,3.72630863,-1.38246111,-0.624255561,0.441121769,0.04059950600000006
10:07:04,-1.140587585,4.439081294999999,0.007126670000000113,-0.32817436999999994,0.44087188,-0.33331542,-20.82016561,-7.288493535,-11.80340874,88.52397619999999,-1.8583320630000002,3.7297062295,-1.3804785915,-0.62216967615,0.44599277284999994,0.034955183900000075
10:07:04,-1.14777327,4.447402289999999,0.016452540000000182,-0.32394493999999996,0.4457085599999999,-0.33200504,-20.77226482,-7.30994417,-11.79684288,88.6448544,-1.8633249060000001,3.733103829,-1.378496073,-0.6200837912999999,0.4508637767,0.029310861799999977
10:07:04,-1.154958955,4.4557232849999995,0.02577841000000003,-0.31971551,0.45054523999999996,-0.33069466,-20.72436403,-7.331394805,-11.79027702,88.76573259999999,-1.868317749,3.7365014285,-1.3765135544999998,-0.61799790645,0.45573478055000005,0.02366653969999999
10:07:04,-1.16214464,4.4640442799999995,0.0351042800000001,-0.31548608,0.4553819199999999,-0.32938428,-20.67646324,-7.352845439999999,-11.78371116,88.8866108,-1.8733105920000002,3.739899028,-1.374531036,-0.6159120216,0.4606057844,0.0180222176
10:07:04,-1.169330325,4.472365275,0.04443015000000017,-0.31125665,0.4602185999999999,-0.3280739,-20.62856245,-7.374296075,-11.777145299999999,89.00748899999999,-1.878303435,3.7432966275,-1.3725485174999998,-0.61382613675,0.46547678824999994,0.012377895500000013
10:07:04,-1.17651601,4.48068627,0.053756020000000015,-0.30702721999999993,0.46505527999999996,-0.32676352,-20.58066166,-7.39574671,-11.770579439999999,89.1283672,-1.883296278,3.746694227,-1.3705659989999999,-0.6117402518999999,0.4703477921,0.006733573400000026
10:07:04,-1.183701695,4.489007265,0.06308189000000008,-0.30279778999999996,0.4698919599999999,-0.32545314,-20.53276087,-7.417197345,-11.76401358,89.24924539999999,-1.8882891210000001,3.7500918265,-1.3685834805,-0.60965436705,0.47521879595000005,0.0010892513000000381
10:07:04,-1.19088738,4.49732826,0.07240776000000015,-0.29856836,0.4747286399999999,-0.32414276,-20.48486008,-7.43864798,-11.75744772,89.3701236,-1.8932819640000003,3.753489426,-1.366600962,-0.6075684822,0.4800897998,-0.00455507079999995
10:07:04,-1.198073065,4.505649255,0.08173363,-0.29433893,0.47956531999999996,-0.32283238,-20.43695929,-7.460098615,-11.75088186,89.49100179999999,-1.8982748070000002,3.7568870255,-1.3646184435,-0.60548259735,0.48496080364999994,-0.010199392899999937
10:07:04,-1.20525875,4.51397025,0.09105950000000007,-0.2901095,0.4844019999999999,-0.321522,-20.3890585,-7.4815492500000005,-11.744316,89.61188,-1.90326765,3.7602846249999997,-1.362635925,-0.6033967124999999,0.4898318075,-0.015843714999999925
10:07:04,-1.212444435,4.522291245,0.10038537000000014,-0.28588007000000004,0.4892386799999999,-0.32021162,-20.34115771,-7.5029998849999995,-11.73775014,89.73275819999999,-1.9082604930000002,3.7636822245,-1.3606534065,-0.60131082765,0.49470281135000005,-0.021488037100000024
10:07:04,-1.21963012,4.53061224,0.10971123999999999,-0.28165063999999995,0.49407535999999996,-0.31890124,-20.29325692,-7.52445052,-11.731184279999999,89.8536364,-1.9132533360000001,3.767079824,-1.3586708879999998,-0.5992249428,0.4995738152,-0.02713235920000001
10:07:04,-1.226815805,4.538933235,0.11903711000000006,-0.27742121,0.4989120399999999,-0.31759086,-20.24535613,-7.545901154999999,-11.724618419999999,89.97451459999999,-1.918246179,3.7704774235,-1.3566883694999998,-0.59713905795,0.5044448190499999,-0.0327766813
10:07:04,-1.23400149,4.54725423,0.12836298000000013,-0.27319178,0.5037487199999999,-0.31628048,-20.19745534,-7.56735179,-11.71805256,90.0953928,-1.9232390220000002,3.773875023,-1.3547058509999998,-0.5950531730999999,0.5093158229,-0.03842100339999999
10:07:04,-1.241187175,4.555575225,0.1376888500000002,-0.26896235,0.5085854,-0.3149701,-20.14955455,-7.588802425,-11.7114867,90.21627099999999,-1.928231865,3.7772726225,-1.3527233324999999,-0.59296728825,0.51418682675,-0.044065325499999974
10:07:04,-1.24837286,4.56389622,0.14701472000000004,-0.26473292000000004,0.5134220799999999,-0.31365972,-20.10165376,-7.61025306,-11.70492084,90.3371492,-1.933224708,3.780670222,-1.350740814,-0.5908814034000001,0.5190578306,-0.04970964759999996
10:07:04,-1.255558545,4.572217215,0.1563405900000001,-0.26050348999999995,0.5182587599999999,-0.31234934,-20.05375297,-7.631703695,-11.69835498,90.45802739999999,-1.9382175510000001,3.7840678215,-1.3487582955,-0.58879551855,0.5239288344499999,-0.05535396969999995
10:07:04,-1.26274423,4.58053821,0.16566646000000018,-0.25627405999999997,0.52309544,-0.31103896,-20.00585218,-7.65315433,-11.69178912,90.5789056,-1.9432103940000003,3.787465421,-1.346775777,-0.5867096337,0.5287998383,-0.06099829179999994
10:07:04,-1.269929915,4.588859204999999,0.17499233000000003,-0.25204463,0.5279321199999999,-0.30972858,-19.95795139,-7.674604965,-11.685223259999999,90.69978379999999,-1.948203237,3.7908630205,-1.3447932585,-0.58462374885,0.53367084215,-0.06664261389999993
10:07:04,-1.2771156,4.5971801999999995,0.1843182000000001,-0.2478152,0.5327687999999999,-0.3084182,-19.9100506,-7.696055599999999,-11.678657399999999,90.820662,-1.9531960800000001,3.79426062,-1.34281074,-0.582537864,0.538541846,-0.07228693600000002
10:07:04,-1.284301285,4.6055011949999995,0.19364407000000017,-0.24358577000000003,0.53760548,-0.30710782,-19.862149810000002,-7.717506235,-11.67209154,90.94154019999999,-1.9581889230000002,3.7976582194999997,-1.3408282214999998,-0.58045197915,0.5434128498499999,-0.07793125810000001
10:07:04,-1.29148697,4.61382219,0.20296994000000002,-0.23935633999999995,0.5424421599999999,-0.30579744,-19.814249020000002,-7.73895687,-11.66552568,91.0624184,-1.9631817660000002,3.801055819,-1.3388457029999998,-0.5783660943,0.5482838537,-0.0835755802
10:07:04,-1.298672655,4.622143185,0.21229581000000008,-0.23512690999999997,0.5472788399999999,-0.30448706,-19.766348230000002,-7.760407505,-11.65895982,91.18329659999999,-1.968174609,3.8044534185,-1.3368631844999999,-0.5762802094499999,0.55315485755,-0.08921990229999999
10:07:04,-1.3058583400000001,4.63046418,0.22162168000000015,-0.23089748,0.55211552,-0.30317668,-19.718447440000002,-7.78185814,-11.65239396,91.3041748,-1.9731674520000002,3.807851018,-1.3348806659999999,-0.5741943246,0.5580258614,-0.09486422439999997
10:07:04,-1.313044025,4.638785175,0.23094755,-0.22666805,0.5569521999999999,-0.3018663,-19.670546650000002,-7.803308775,-11.6458281,91.42505299999999,-1.9781602950000001,3.8112486175,-1.3328981475,-0.57210843975,0.5628968652499999,-0.10050854649999996
10:07:04,-1.32022971,4.64710617,0.24027342000000007,-0.22243862000000003,0.5617888799999999,-0.30055592,-19.622645860000002,-7.82475941,-11.639262239999999,91.5459312,-1.983153138,3.814646217,-1.330915629,-0.5700225549,0.5677678691,-0.10615286859999995
10:07:04,-1.327415395,4.655427165,0.24959929000000014,-0.21820918999999994,0.56662556,-0.29924554,-19.574745070000002,-7.846210044999999,-11.632696379999999,91.66680939999999,-1.9881459810000002,3.8180438165,-1.3289331105,-0.5679366700499999,0.57263887295,-0.11179719069999994
10:07:04,-1.33460108,4.66374816,0.2589251600000002,-0.21397975999999996,0.5714622399999999,-0.29793516,-19.52684428,-7.86766068,-11.62613052,91.7876876,-1.9931388240000003,3.821441416,-1.326950592,-0.5658507852,0.5775098768,-0.11744151279999993
10:07:04,-1.341786765,4.672069155,0.26825103000000006,-0.20975032999999998,0.5762989199999999,-0.29662478,-19.47894349,-7.889111315,-11.61956466,91.90856579999999,-1.998131667,3.8248390155,-1.3249680735,-0.56376490035,0.5823808806499999,-0.12308583489999991
10:07:04,-1.34897245,4.68039015,0.2775769000000001,-0.2055209,0.5811356,-0.2953144,-19.4310427,-7.91056195,-11.6129988,92.029444,-2.00312451,3.828236615,-1.3229855549999998,-0.5616790155,0.5872518845,-0.128730157
10:07:04,-1.356158135,4.688711145,0.2869027700000002,-0.20129147000000003,0.5859722799999999,-0.29400402,-19.38314191,-7.932012585,-11.60643294,92.15032219999999,-2.0081173530000003,3.8316342144999997,-1.3210030364999998,-0.5595931306499999,0.59212288835,-0.1343744791
10:07:04,-1.36334382,4.697032139999999,0.29622864000000004,-0.19706203999999994,0.5908089599999999,-0.29269364,-19.33524112,-7.95346322,-11.59986708,92.2712004,-2.0131101960000004,3.8350318139999997,-1.3190205179999999,-0.5575072458,0.5969938922,-0.1400188012
10:07:04,-1.370529505,4.705353134999999,0.3055545100000001,-0.19283260999999996,0.59564564,-0.29138326,-19.28734033,-7.9749138550000005,-11.593301219999999,92.39207859999999,-2.018103039,3.8384294135,-1.3170379995,-0.55542136095,0.6018648960499999,-0.14566312329999997
10:07:04,-1.37771519,4.713674129999999,0.3148803800000002,-0.18860317999999998,0.6004823199999999,-0.29007288,-19.23943954,-7.9963644899999995,-11.586735359999999,92.5129568,-2.0230958820000002,3.841827013,-1.315055481,-0.5533354761,0.6067358999,-0.15130744539999996
10:07:04,-1.384900875,4.721995124999999,0.32420625000000003,-0.18437375,0.6053189999999999,-0.2887625,-19.19153875,-8.017815125,-11.5801695,92.63383499999999,-2.028088725,3.8452246125,-1.3130729625,-0.55124959125,0.61160690375,-0.15695176749999995
10:07:04,-1.39208656,4.7303161199999995,0.3335321200000001,-0.18014432000000002,0.61015568,-0.28745212,-19.14363796,-8.03926576,-11.57360364,92.7547132,-2.033081568,3.848622212,-1.311090444,-0.5491637064,0.6164779076,-0.16259608959999994
10:07:04,-1.3992722450000001,4.7386371149999995,0.34285799000000017,-0.17591488999999993,0.6149923599999999,-0.28614174,-19.09573717,-8.060716395,-11.56703778,92.87559139999999,-2.038074411,3.8520198115,-1.3091079254999998,-0.5470778215500001,0.6213489114499999,-0.16824041169999993
10:07:04,-1.40645793,4.74695811,0.35218386,-0.17168545999999996,0.6198290399999999,-0.28483136,-19.04783638,-8.08216703,-11.56047192,92.9964696,-2.0430672540000003,3.855417411,-1.307125407,-0.5449919367,0.6262199153,-0.17388473380000002
10:07:04,-1.413643615,4.755279105,0.3615097300000001,-0.16745602999999998,0.6246657199999999,-0.28352098,-18.99993559,-8.103617665,-11.55390606,93.11734779999999,-2.048060097,3.8588150105,-1.3051428884999998,-0.54290605185,0.63109091915,-0.1795290559
10:07:04,-1.4208293,4.7636001,0.37083560000000015,-0.1632266,0.6295023999999999,-0.2822106,-18.9520348,-8.125068299999999,-11.547340199999999,93.238226,-2.05305294,3.86221261,-1.3031603699999998,-0.540820167,0.635961923,-0.185173378
10:07:04,-1.4280149850000001,4.771921095,0.38016147,-0.15899717000000002,0.6343390799999999,-0.28090022,-18.90413401,-8.146518935,-11.540774339999999,93.35910419999999,-2.0580457830000003,3.8656102095,-1.3011778514999999,-0.5387342821500001,0.6408329268499999,-0.1908177001
10:07:04,-1.43520067,4.78024209,0.38948734000000007,-0.15476773999999993,0.6391757599999999,-0.27958984,-18.85623322,-8.16796957,-11.53420848,93.4799824,-2.063038626,3.8690078089999997,-1.299195333,-0.5366483973,0.6457039307,-0.19646202219999997
10:07:04,-1.442386355,4.788563085,0.39881321000000014,-0.15053830999999995,0.6440124399999999,-0.27827946,-18.80833243,-8.189420205,-11.52764262,93.6008606,-2.068031469,3.8724054084999997,-1.2972128145,-0.53456251245,0.65057493455,-0.20210634429999996
10:07:04,-1.44957204,4.79688408,0.40813908,-0.14630887999999997,0.64884912,-0.27696908,-18.76043164,-8.21087084,-11.52107676,93.7217388,-2.0730243120000003,3.875803008,-1.295230296,-0.5324766275999999,0.6554459384,-0.20775066639999995
10:07:04,-1.4567577250000001,4.805205075,0.41746495000000006,-0.14207945,0.6536857999999999,-0.2756587,-18.71253085,-8.232321474999999,-11.5145109,93.84261699999999,-2.0780171550000004,3.8792006074999996,-1.2932477775,-0.53039074275,0.6603169422499999,-0.21339498849999994
10:07:04,-1.46394341,4.81352607,0.4267908200000001,-0.13785002000000002,0.6585224799999999,-0.27434832,-18.66463006,-8.25377211,-11.50794504,93.9634952,-2.083009998,3.882598207,-1.2912652589999998,-0.5283048579,0.6651879461,-0.21903931059999993
10:07:04,-1.471129095,4.821847065,0.4361166900000002,-0.13362058999999993,0.66335916,-0.27303794,-18.61672927,-8.275222745,-11.501379179999999,94.0843734,-2.088002841,3.8859958065,-1.2892827405,-0.52621897305,0.67005894995,-0.2246836326999999
10:07:04,-1.47831478,4.83016806,0.44544256000000004,-0.12939115999999995,0.6681958399999999,-0.27172756,-18.56882848,-8.29667338,-11.494813319999999,94.2052516,-2.092995684,3.889393406,-1.2873002219999998,-0.5241330881999999,0.6749299538,-0.2303279547999999
10:07:04,-1.485500465,4.838489055,0.4547684300000001,-0.12516172999999997,0.6730325199999999,-0.27041718,-18.52092769,-8.318124014999999,-11.48824746,94.32612979999999,-2.097988527,3.8927910055,-1.2853177034999999,-0.52204720335,0.6798009576499999,-0.2359722768999999
10:07:04,-1.49268615,4.84681005,0.4640943000000002,-0.12093229999999999,0.6778692,-0.2691068,-18.4730269,-8.33957465,-11.4816816,94.447008,-2.10298137,3.896188605,-1.2833351849999999,-0.5199613185,0.6846719615,-0.24161659899999988
10:07:04,-1.499871835,4.855131045,0.47342017000000003,-0.11670287000000001,0.6827058799999999,-0.26779642,-18.42512611,-8.361025285,-11.47511574,94.5678862,-2.1079742130000003,3.8995862045,-1.2813526665,-0.51787543365,0.68954296535,-0.24726092109999986
10:07:04,-1.50705752,4.86345204,0.4827460400000001,-0.11247343999999992,0.6875425599999999,-0.26648604,-18.37722532,-8.382475920000001,-11.46854988,94.6887644,-2.1129670560000005,3.902983804,-1.279370148,-0.5157895487999999,0.6944139692,-0.25290524319999985
10:07:04,-1.514243205,4.8717730349999995,0.49207191000000017,-0.10824400999999995,0.69237924,-0.26517566,-18.32932453,-8.403926555,-11.46198402,94.80964259999999,-2.117959899,3.9063814034999997,-1.2773876295,-0.51370366395,0.6992849730499999,-0.25854956530000006
10:07:04,-1.5214288900000001,4.8800940299999995,0.50139778,-0.10401457999999997,0.6972159199999999,-0.26386528,-18.28142374,-8.425377189999999,-11.455418159999999,94.9305208,-2.1229527420000003,3.9097790029999997,-1.275405111,-0.5116177791000001,0.7041559769,-0.26419388740000005
10:07:04,-1.528614575,4.888415025,0.5107236500000001,-0.09978514999999999,0.7020525999999999,-0.2625549,-18.23352295,-8.446827825,-11.448852299999999,95.051399,-2.127945585,3.9131766025,-1.2734225924999998,-0.50953189425,0.70902698075,-0.26983820950000004
10:07:04,-1.53580026,4.89673602,0.5200495200000002,-0.09555572000000001,0.70688928,-0.26124452,-18.18562216,-8.46827846,-11.44228644,95.1722772,-2.132938428,3.9165742019999996,-1.271440074,-0.5074460094,0.7138979846,-0.2754825316
10:07:04,-1.542985945,4.905057015,0.52937539,-0.09132629000000003,0.7117259599999999,-0.25993414,-18.13772137,-8.489729095,-11.43572058,95.29315539999999,-2.1379312710000002,3.9199718015,-1.2694575554999998,-0.50536012455,0.7187689884499999,-0.2811268537
10:07:04,-1.5501716300000001,4.91337801,0.5387012600000001,-0.08709685999999994,0.7165626399999999,-0.25862376,-18.08982058,-8.51117973,-11.42915472,95.4140336,-2.1429241140000004,3.923369401,-1.2674750369999999,-0.5032742397000001,0.7236399923,-0.2867711758
10:07:04,-1.557357315,4.921699005,0.5480271300000001,-0.08286742999999996,0.72139932,-0.25731338,-18.04191979,-8.532630365,-11.42258886,95.5349118,-2.147916957,3.9267670005,-1.2654925184999999,-0.50118835485,0.72851099615,-0.2924154979
10:07:05,-1.564543,4.93002,0.557353,-0.078638,0.726236,-0.256003,-17.994019,-8.554081,-11.416023,95.65579,-2.1529098,3.9301646,-1.26351,-0.49910247,0.733382,-0.29805982
10:07:05,-1.55533563,4.90503971,0.55182306,-0.079708675,0.72221431,-0.254346385,-17.97065203,-8.563453465,-11.39173383,95.62899734999999,-2.1435832140000004,3.9099945264,-1.2581182636,-0.49717275980000003,0.72939768415,-0.29515285189999996
10:07:05,-1.54612826,4.88005942,0.54629312,-0.08077935,0.71819262,-0.25268977,-17.947285060000002,-8.57282593,-11.367444659999999,95.6022047,-2.134256628,3.8898244528,-1.2527265271999999,-0.49524304960000004,0.7254133683,-0.2922458838
10:07:05,-1.53692089,4.85507913,0.54076318,-0.08185002499999999,0.71417093,-0.251033155,-17.92391809,-8.582198395,-11.34315549,95.57541205,-2.1249300420000004,3.8696543792,-1.2473347907999999,-0.4933133394,0.72142905245,-0.2893389157
10:07:05,-1.52771352,4.83009884,0.5352332399999999,-0.0829207,0.71014924,-0.24937653999999998,-17.900551120000003,-8.591570860000001,-11.31886632,95.54861939999999,-2.115603456,3.8494843056,-1.2419430543999999,-0.4913836292,0.7174447366,-0.28643194759999996
10:07:05,-1.51850615,4.8051185499999995,0.5297033,-0.08399137500000001,0.7061275499999999,-0.24771992499999998,-17.87718415,-8.600943325,-11.294577149999999,95.52182675,-2.1062768700000003,3.8293142319999998,-1.2365513179999998,-0.489453919,0.7134604207499999,-0.2835249795
10:07:05,-1.50929878,4.78013826,0.52417336,-0.08506205,0.70210586,-0.24606330999999998,-17.85381718,-8.61031579,-11.270287979999999,95.4950341,-2.096950284,3.8091441584,-1.2311595815999998,-0.4875242088,0.7094761049,-0.2806180114
10:07:05,-1.50009141,4.75515797,0.51864342,-0.086132725,0.69808417,-0.24440669499999998,-17.830450210000002,-8.619688255,-11.24599881,95.46824145,-2.0876236980000002,3.7889740848,-1.2257678451999998,-0.48559449860000004,0.70549178905,-0.27771104329999996
10:07:05,-1.49088404,4.73017768,0.51311348,-0.0872034,0.69406248,-0.24275007999999998,-17.80708324,-8.62906072,-11.221709639999998,95.44144879999999,-2.078297112,3.7688040112,-1.2203761087999998,-0.48366478840000005,0.7015074732,-0.2748040752
10:07:05,-1.4816766700000001,4.7051973899999995,0.5075835399999999,-0.08827407500000001,0.69004079,-0.24109346499999998,-17.783716270000003,-8.638433185,-11.197420469999999,95.41465615,-2.068970526,3.7486339375999997,-1.2149843724,-0.4817350782,0.69752315735,-0.2718971071
10:07:05,-1.4724693,4.6802171,0.5020536,-0.08934475,0.6860191,-0.23943684999999998,-17.7603493,-8.64780565,-11.1731313,95.3878635,-2.0596439400000004,3.728463864,-1.209592636,-0.479805368,0.6935388415,-0.26899013899999996
10:07:05,-1.46326193,4.65523681,0.49652366,-0.090415425,0.68199741,-0.23778023499999998,-17.73698233,-8.657178115,-11.148842129999998,95.36107084999999,-2.050317354,3.7082937904,-1.2042008996,-0.4778756578,0.68955452565,-0.2660831709
10:07:05,-1.45405456,4.63025652,0.49099371999999997,-0.0914861,0.67797572,-0.23612361999999998,-17.713615360000002,-8.66655058,-11.124552959999999,95.3342782,-2.0409907680000003,3.6881237168,-1.1988091632,-0.47594594760000003,0.6855702097999999,-0.2631762028
10:07:05,-1.44484719,4.605276229999999,0.48546378,-0.09255677500000001,0.67395403,-0.23446700499999998,-17.69024839,-8.675923045,-11.10026379,95.30748555,-2.031664182,3.6679536431999997,-1.1934174268,-0.47401623740000004,0.68158589395,-0.26026923469999996
10:07:05,-1.43563982,4.58029594,0.47993384,-0.09362745,0.66993234,-0.23281038999999998,-17.666881420000003,-8.68529551,-11.075974619999998,95.28069289999999,-2.0223375960000003,3.6477835696,-1.1880256904,-0.4720865272,0.6776015781,-0.25736226659999994
10:07:05,-1.42643245,4.55531565,0.4744039,-0.094698125,0.66591065,-0.23115377499999998,-17.64351445,-8.694667975,-11.051685449999999,95.25390025,-2.01301101,3.627613496,-1.182633954,-0.470156817,0.67361726225,-0.2544552985
10:07:05,-1.4172250800000001,4.53033536,0.46887396,-0.0957688,0.66188896,-0.22949715999999998,-17.62014748,-8.70404044,-11.02739628,95.2271076,-2.0036844240000002,3.6074434224,-1.1772422176,-0.4682271068,0.6696329463999999,-0.25154833039999996
10:07:05,-1.40801771,4.50535507,0.46334401999999997,-0.09683947500000001,0.65786727,-0.22784054499999998,-17.596780510000002,-8.713412905,-11.003107109999998,95.20031494999999,-1.9943578380000002,3.5872733487999997,-1.1718504812,-0.4662973966,0.66564863055,-0.24864136229999997
10:07:05,-1.39881034,4.48037478,0.45781408,-0.09791015,0.65384558,-0.22618392999999998,-17.57341354,-8.72278537,-10.978817939999999,95.1735223,-1.9850312520000002,3.5671032752,-1.1664587448,-0.46436768640000003,0.6616643147,-0.24573439419999998
10:07:05,-1.38960297,4.45539449,0.45228414,-0.098980825,0.64982389,-0.22452731499999998,-17.550046570000003,-8.732157835,-10.95452877,95.14672965,-1.9757046660000002,3.5469332016,-1.1610670083999999,-0.46243797620000004,0.65767999885,-0.24282742609999997
10:07:05,-1.3803956,4.4304141999999995,0.4467542,-0.1000515,0.6458022,-0.22287069999999998,-17.5266796,-8.7415303,-10.930239599999998,95.119937,-1.9663780800000001,3.526763128,-1.1556752719999999,-0.460508266,0.653695683,-0.23992045799999998
10:07:05,-1.37118823,4.40543391,0.44122426,-0.10112217500000001,0.64178051,-0.22121408499999998,-17.50331263,-8.750902765,-10.905950429999999,95.09314435,-1.9570514940000001,3.5065930543999997,-1.1502835355999999,-0.4585785558,0.64971136715,-0.23701348989999999
10:07:05,-1.36198086,4.38045362,0.43569431999999997,-0.10219285,0.63775882,-0.21955746999999998,-17.479945660000002,-8.76027523,-10.88166126,95.0663517,-1.947724908,3.4864229808,-1.1448917991999998,-0.4566488456,0.6457270513,-0.23410652179999997
10:07:05,-1.3527734900000001,4.35547333,0.43016438,-0.103263525,0.63373713,-0.21790085499999998,-17.45657869,-8.769647695,-10.857372089999998,95.03955905,-1.9383983220000003,3.4662529072,-1.1395000627999998,-0.45471913540000003,0.64174273545,-0.23119955369999995
10:07:05,-1.34356612,4.33049304,0.42463444,-0.1043342,0.62971544,-0.21624423999999998,-17.433211720000003,-8.77902016,-10.833082919999999,95.01276639999999,-1.9290717360000003,3.4460828336,-1.1341083263999998,-0.45278942520000004,0.6377584196,-0.2282925856
10:07:05,-1.33435875,4.30551275,0.4191045,-0.10540487500000001,0.62569375,-0.21458762499999998,-17.40984475,-8.788392625,-10.80879375,94.98597375,-1.9197451500000002,3.42591276,-1.1287165899999998,-0.450859715,0.63377410375,-0.22538561749999997
10:07:05,-1.32515138,4.28053246,0.41357456000000004,-0.10647555,0.62167206,-0.21293100999999998,-17.38647778,-8.79776509,-10.78450458,94.9591811,-1.9104185640000002,3.4057426864,-1.1233248535999998,-0.4489300048,0.6297897879,-0.22247864939999995
10:07:05,-1.31594401,4.25555217,0.40804461999999997,-0.107546225,0.61765037,-0.21127439499999998,-17.363110810000002,-8.807137555,-10.760215409999999,94.93238844999999,-1.9010919780000002,3.3855726128,-1.1179331172,-0.4470002946,0.62580547205,-0.2195716813
10:07:05,-1.30673664,4.230571879999999,0.40251468,-0.1086169,0.61362868,-0.20961777999999998,-17.33974384,-8.816510019999999,-10.73592624,94.9055958,-1.8917653920000002,3.3654025391999998,-1.1125413808,-0.4450705844,0.6218211562,-0.21666471319999997
10:07:05,-1.29752927,4.20559159,0.39698474,-0.10968757500000001,0.60960699,-0.20796116499999998,-17.316376870000003,-8.825882485,-10.711637069999998,94.87880315,-1.8824388060000001,3.3452324655999996,-1.1071496444,-0.44314087420000003,0.61783684035,-0.21375774509999995
10:07:05,-1.2883219000000001,4.1806113,0.3914548,-0.11075825,0.6055853,-0.20630454999999998,-17.2930099,-8.83525495,-10.687347899999999,94.85201049999999,-1.87311222,3.325062392,-1.101757908,-0.44121116400000004,0.6138525244999999,-0.21085077699999996
10:07:05,-1.27911453,4.15563101,0.38592486000000004,-0.111828925,0.60156361,-0.20464793499999998,-17.26964293,-8.844627415,-10.66305873,94.82521785,-1.863785634,3.3048923184,-1.0963661716,-0.4392814538,0.60986820865,-0.20794380889999997
10:07:05,-1.26990716,4.13065072,0.38039491999999997,-0.1128996,0.5975419200000001,-0.20299131999999998,-17.246275960000002,-8.85399988,-10.63876956,94.7984252,-1.8544590480000003,3.2847222447999997,-1.0909744352,-0.4373517436,0.6058838928,-0.20503684079999995
10:07:05,-1.26069979,4.10567043,0.37486498,-0.11397027500000001,0.59352023,-0.20133470499999997,-17.22290899,-8.863372345,-10.614480389999999,94.77163254999999,-1.845132462,3.2645521712,-1.0855826988,-0.4354220334,0.60189957695,-0.20212987269999996
10:07:05,-1.25149242,4.08069014,0.36933504,-0.11504095,0.58949854,-0.19967808999999997,-17.199542020000003,-8.87274481,-10.59019122,94.7448399,-1.8358058760000002,3.2443820976,-1.0801909624,-0.43349232320000003,0.5979152611,-0.19922290459999997
10:07:05,-1.24228505,4.0557098499999995,0.3638051,-0.116111625,0.58547685,-0.19802147499999997,-17.17617505,-8.882117275,-10.565902049999998,94.71804725,-1.8264792900000002,3.224212024,-1.0747992259999999,-0.43156261300000004,0.59393094525,-0.19631593649999995
10:07:05,-1.23307768,4.03072956,0.35827516000000004,-0.1171823,0.58145516,-0.19636485999999997,-17.15280808,-8.89148974,-10.541612879999999,94.6912546,-1.8171527040000002,3.2040419503999997,-1.0694074895999999,-0.4296329028,0.5899466294,-0.19340896839999996
10:07:05,-1.2238703100000001,4.00574927,0.35274521999999997,-0.11825297500000001,0.57743347,-0.19470824499999997,-17.129441110000002,-8.900862205,-10.51732371,94.66446194999999,-1.8078261180000001,3.1838718767999996,-1.0640157531999999,-0.4277031926,0.5859623135500001,-0.19050200029999997
10:07:05,-1.21466294,3.9807689799999997,0.34721528,-0.11932365,0.57341178,-0.19305162999999997,-17.10607414,-8.91023467,-10.49303454,94.6376693,-1.7984995320000001,3.1637018032,-1.0586240167999998,-0.4257734824,0.5819779977,-0.18759503219999996
10:07:05,-1.20545557,3.95578869,0.34168534,-0.120394325,0.56939009,-0.191395015,-17.082707170000003,-8.919607135,-10.468745369999999,94.61087665,-1.789172946,3.1435317296,-1.0532322803999998,-0.4238437722,0.57799368185,-0.18468806409999997
10:07:05,-1.1962482,3.9308084,0.3361554,-0.121465,0.5653684,-0.18973839999999997,-17.0593402,-8.9289796,-10.4444562,94.58408399999999,-1.77984636,3.1233616559999997,-1.0478405439999998,-0.42191406200000003,0.574009366,-0.18178109599999998
10:07:05,-1.18704083,3.90582811,0.33062546000000004,-0.12253567500000001,0.56134671,-0.188081785,-17.03597323,-8.938352065,-10.42016703,94.55729135,-1.7705197740000003,3.1031915824,-1.0424488075999998,-0.41998435180000004,0.5700250501499999,-0.17887412789999996
10:07:05,-1.17783346,3.8808478199999996,0.32509551999999997,-0.12360635,0.55732502,-0.18642516999999997,-17.012606260000002,-8.94772453,-10.395877859999999,94.5304987,-1.761193188,3.0830215088,-1.0370570712,-0.41805464160000005,0.5660407343,-0.17596715979999997
10:07:05,-1.16862609,3.85586753,0.31956558,-0.124677025,0.55330333,-0.184768555,-16.98923929,-8.957096995,-10.37158869,94.50370604999999,-1.7518666020000002,3.0628514352,-1.0316653348,-0.4161249314,0.56205641845,-0.17306019169999998
10:07:05,-1.1594187200000001,3.83088724,0.31403564,-0.12574770000000002,0.54928164,-0.18311193999999997,-16.965872320000003,-8.966469459999999,-10.34729952,94.4769134,-1.7425400160000002,3.0426813615999997,-1.0262735984,-0.4141952212,0.5580721026,-0.17015322359999996
10:07:05,-1.15021135,3.80590695,0.3085057,-0.126818375,0.54525995,-0.181455325,-16.94250535,-8.975841925,-10.323010349999999,94.45012075,-1.7332134300000002,3.0225112879999996,-1.020881862,-0.41226551100000003,0.55408778675,-0.16724625549999997
10:07:05,-1.14100398,3.78092666,0.30297576,-0.12788905,0.54123826,-0.17979870999999997,-16.91913838,-8.98521439,-10.29872118,94.42332809999999,-1.7238868440000001,3.0023412144,-1.0154901256,-0.41033580080000004,0.5501034709,-0.16433928739999995
10:07:05,-1.13179661,3.75594637,0.29744582,-0.128959725,0.53721657,-0.178142095,-16.895771410000002,-8.994586855,-10.27443201,94.39653545,-1.7145602580000001,2.9821711408,-1.0100983892,-0.4084060906,0.54611915505,-0.16143231929999996
10:07:05,-1.12258924,3.73096608,0.29191588,-0.1300304,0.53319488,-0.17648547999999997,-16.87240444,-9.00395932,-10.250142839999999,94.3697428,-1.705233672,2.9620010672,-1.0047066528,-0.4064763804,0.5421348392,-0.15852535119999997
10:07:05,-1.11338187,3.7059857899999997,0.28638594,-0.131101075,0.5291731900000001,-0.174828865,-16.849037470000003,-9.013331785,-10.22585367,94.34295015,-1.695907086,2.9418309936,-0.9993149163999999,-0.4045466702,0.53815052335,-0.15561838309999995
10:07:05,-1.1041745,3.6810055,0.280856,-0.13217175,0.5251515,-0.17317224999999997,-16.8256705,-9.02270425,-10.2015645,94.3161575,-1.6865805000000003,2.92166092,-0.9939231799999999,-0.40261696,0.5341662075,-0.15271141499999996
10:07:05,-1.0949671300000001,3.65602521,0.27532606,-0.133242425,0.52112981,-0.171515635,-16.80230353,-9.032076715,-10.177275329999999,94.28936485,-1.677253914,2.9014908463999998,-0.9885314435999999,-0.40068724980000003,0.53018189165,-0.14980444689999997
10:07:05,-1.0857597600000002,3.63104492,0.26979612000000003,-0.13431310000000002,0.5171081200000001,-0.16985901999999997,-16.778936560000002,-9.04144918,-10.15298616,94.2625722,-1.6679273280000002,2.8813207727999997,-0.9831397071999999,-0.39875753960000004,0.5261975757999999,-0.14689747879999995
10:07:05,-1.07655239,3.6060646299999997,0.26426618,-0.135383775,0.51308643,-0.168202405,-16.75556959,-9.050821645,-10.12869699,94.23577954999999,-1.6586007420000002,2.8611506991999995,-0.9777479707999999,-0.39682782940000005,0.52221325995,-0.14399051069999996
10:07:05,-1.06734502,3.58108434,0.25873624,-0.13645445,0.50906474,-0.16654578999999997,-16.732202620000002,-9.06019411,-10.104407819999999,94.2089869,-1.6492741560000002,2.8409806256,-0.9723562343999999,-0.3948981192,0.5182289441,-0.14108354259999997
10:07:05,-1.05813765,3.55610405,0.2532063,-0.137525125,0.50504305,-0.164889175,-16.70883565,-9.069566575,-10.08011865,94.18219425,-1.6399475700000001,2.8208105519999997,-0.9669644979999998,-0.392968409,0.51424462825,-0.13817657449999995
10:07:05,-1.04893028,3.53112376,0.24767635999999998,-0.1385958,0.50102136,-0.16323255999999997,-16.68546868,-9.07893904,-10.05582948,94.15540159999999,-1.630620984,2.8006404784,-0.9615727615999998,-0.39103869880000003,0.5102603124,-0.13526960639999996
10:07:05,-1.03972291,3.5061434699999996,0.24214642000000003,-0.139666475,0.49699967,-0.161575945,-16.66210171,-9.088311505,-10.031540309999999,94.12860895,-1.621294398,2.7804704048,-0.9561810251999998,-0.38910898860000004,0.50627599655,-0.13236263829999997
10:07:05,-1.0305155400000001,3.4811631800000002,0.23661648000000002,-0.14073715,0.49297798000000004,-0.15991932999999997,-16.63873474,-9.09768397,-10.00725114,94.1018163,-1.611967812,2.7603003312,-0.9507892887999999,-0.3871792784,0.5022916807,-0.12945567019999996
10:07:05,-1.0213081700000002,3.45618289,0.23108654,-0.141807825,0.48895629,-0.158262715,-16.615367770000002,-9.107056435,-9.98296197,94.07502364999999,-1.6026412260000003,2.7401302575999997,-0.9453975523999999,-0.3852495682,0.49830736485,-0.12654870209999997
10:07:05,-1.0121008,3.4312025999999998,0.2255566,-0.14287850000000002,0.4849346,-0.15660609999999997,-16.5920008,-9.116428899999999,-9.958672799999999,94.048231,-1.59331464,2.7199601839999996,-0.9400058159999999,-0.383319858,0.494323049,-0.12364173399999995
10:07:05,-1.00289343,3.40622231,0.22002665999999999,-0.14394917499999998,0.48091291,-0.154949485,-16.56863383,-9.125801365,-9.93438363,94.02143835,-1.5839880540000002,2.6997901103999995,-0.9346140795999999,-0.3813901478,0.49033873315,-0.12073476589999996
10:07:05,-0.99368606,3.38124202,0.21449672000000003,-0.14501985,0.47689122,-0.15329286999999997,-16.54526686,-9.13517383,-9.91009446,93.99464569999999,-1.5746614680000002,2.6796200368,-0.9292223432,-0.37946043760000003,0.4863544173,-0.11782779779999997
10:07:05,-0.9844786900000001,3.35626173,0.20896678000000002,-0.14609052500000003,0.47286953000000004,-0.151636255,-16.52189989,-9.144546295,-9.885805289999999,93.96785305,-1.5653348820000001,2.6594499631999997,-0.9238306068,-0.37753072740000004,0.48237010145,-0.11492082969999995
