Timestamp,linacce_x,linacce_y,linacce_z,gyro_x,gyro_y,gyro_z,X-magnetometer,Y-magnetometer,Z-magnetometer,Yaw, worldXAccel,worldYAccel,worldZAccel,worldXgyro,worldYgyro,worldZgyro
09:49:03,0.690649,-0.086318,-1.484456,-0.048307,0.093258,-0.299593,32.851685,-28.063488,-23.008522,-94.26839,-0.69119215,-0.2132796,-0.5122379,-0.25368333,0.07701927,0.11125771
09:49:03,0.679243325,-0.09048724000000001,-1.481651725,-0.047609195,0.09364152499999999,-0.299955215,32.85675538,-28.058828384999998,-23.011455044999998,-94.2211634,-0.69557465525,-0.2174635845,-0.50803341625,-0.25344433234999997,0.07794782545,0.11089717989999999
09:49:03,0.66783765,-0.09465648,-1.47884745,-0.046911390000000004,0.09402505,-0.30031743,32.86182576,-28.05416877,-23.01438809,-94.17393679999999,-0.6999571605,-0.22164756900000002,-0.5038289325,-0.2532053347,0.0788763809,0.1105366498
09:49:03,0.656431975,-0.09882572,-1.476043175,-0.046213585,0.094408575,-0.300679645,32.86689614,-28.049509155,-23.017321135,-94.12671019999999,-0.70433966575,-0.2258315535,-0.49962444875,-0.25296633705,0.07980493635,0.11017611969999999
09:49:03,0.6450262999999999,-0.10299496000000001,-1.4732389,-0.045515780000000006,0.09479209999999999,-0.30104186,32.87196652,-28.04484954,-23.02025418,-94.0794836,-0.708722171,-0.23001553800000002,-0.495419965,-0.2527273394,0.0807334918,0.1098155896
09:49:03,0.6336206249999999,-0.10716420000000002,-1.470434625,-0.044817975,0.095175625,-0.301404075,32.8770369,-28.040189925,-23.023187225,-94.032257,-0.71310467625,-0.2341995225,-0.49121548125000003,-0.25248834175,0.08166204725,0.1094550595
09:49:03,0.6222149499999999,-0.11133344,-1.46763035,-0.04412017,0.09555915,-0.30176629,32.88210728000001,-28.03553031,-23.02612027,-93.9850304,-0.7174871815,-0.23838350700000002,-0.48701099750000004,-0.2522493441,0.0825906027,0.1090945294
09:49:03,0.6108092749999999,-0.11550268000000001,-1.464826075,-0.043422365000000004,0.09594267499999999,-0.302128505,32.887177660000006,-28.030870695,-23.029053315,-93.9378038,-0.72186968675,-0.2425674915,-0.48280651375000005,-0.25201034645,0.08351915815,0.1087339993
09:49:03,0.5994035999999999,-0.11967192000000001,-1.4620218,-0.04272456,0.0963262,-0.30249072,32.892248040000005,-28.02621108,-23.031986359999998,-93.8905772,-0.726252192,-0.24675147600000003,-0.47860203,-0.25177134879999996,0.0844477136,0.1083734692
09:49:03,0.5879979249999999,-0.12384116,-1.459217525,-0.042026755000000006,0.096709725,-0.302852935,32.897318420000005,-28.021551464999998,-23.034919405,-93.8433506,-0.73063469725,-0.25093546050000004,-0.47439754625,-0.25153235115,0.08537626905,0.1080129391
09:49:03,0.57659225,-0.12801040000000002,-1.45641325,-0.04132895,0.09709324999999999,-0.30321515,32.902388800000004,-28.01689185,-23.03785245,-93.79612399999999,-0.7350172025,-0.255119445,-0.47019306250000004,-0.2512933535,0.0863048245,0.10765240899999999
09:49:03,0.565186575,-0.13217964000000001,-1.453608975,-0.04063114500000001,0.09747677499999999,-0.303577365,32.907459180000004,-28.012232235,-23.040785494999998,-93.74889739999999,-0.73939970775,-0.2593034295,-0.46598857875000005,-0.25105435584999997,0.08723337995,0.1072918789
09:49:03,0.5537809,-0.13634888,-1.4508047,-0.039933340000000005,0.0978603,-0.30393958,32.91252956,-28.007572619999998,-23.04371854,-93.7016708,-0.743782213,-0.26348741400000003,-0.461784095,-0.2508153582,0.0881619354,0.10693134879999999
09:49:03,0.542375225,-0.14051812000000002,-1.448000425,-0.039235535,0.09824382499999999,-0.304301795,32.91759994,-28.002913005,-23.046651585,-93.6544442,-0.74816471825,-0.2676713985,-0.45757961125,-0.25057636055,0.08909049085,0.1065708187
09:49:03,0.53096955,-0.14468736000000001,-1.44519615,-0.038537730000000006,0.09862734999999999,-0.30466401,32.92267032,-27.99825339,-23.04958463,-93.6072176,-0.7525472235,-0.271855383,-0.45337512750000003,-0.25033736289999997,0.0900190463,0.1062102886
09:49:03,0.519563875,-0.1488566,-1.442391875,-0.037839925,0.099010875,-0.305026225,32.9277407,-27.993593775,-23.052517675,-93.559991,-0.75692972875,-0.2760393675,-0.44917064375000004,-0.25009836525,0.09094760175,0.1058497585
09:49:03,0.5081582,-0.15302584000000002,-1.4395876,-0.03714212,0.0993944,-0.30538844,32.93281108,-27.98893416,-23.05545072,-93.5127644,-0.761312234,-0.28022335200000004,-0.44496616,-0.2498593676,0.0918761572,0.1054892284
09:49:03,0.496752525,-0.15719508000000001,-1.436783325,-0.036444315000000005,0.09977792499999999,-0.305750655,32.93788146,-27.984274544999998,-23.058383765,-93.46553779999999,-0.76569473925,-0.28440733650000005,-0.44076167625,-0.24962036994999998,0.09280471265,0.10512869829999999
09:49:03,0.48534685,-0.16136432,-1.43397905,-0.03574651,0.10016145,-0.30611287,32.942951840000006,-27.97961493,-23.061316809999997,-93.41831119999999,-0.7700772445,-0.288591321,-0.4365571925,-0.2493813723,0.0937332681,0.1047681682
09:49:03,0.473941175,-0.16553356000000002,-1.431174775,-0.035048705000000006,0.100544975,-0.306475085,32.948022220000006,-27.974955315,-23.064249855,-93.3710846,-0.77445974975,-0.2927753055,-0.43235270875000004,-0.24914237465,0.09466182355,0.10440763809999999
09:49:03,0.4625355,-0.16970280000000001,-1.4283705,-0.034350900000000004,0.10092849999999999,-0.3068373,32.953092600000005,-27.9702957,-23.0671829,-93.323858,-0.778842255,-0.29695929000000004,-0.42814822500000005,-0.24890337699999998,0.095590379,0.104047108
09:49:03,0.451129825,-0.17387204,-1.425566225,-0.03365309500000001,0.101312025,-0.307199515,32.958162980000004,-27.965636085,-23.070115944999998,-93.2766314,-0.78322476025,-0.3011432745,-0.42394374125,-0.24866437935,0.09651893445,0.1036865779
09:49:03,0.43972415,-0.17804128000000002,-1.42276195,-0.032955290000000005,0.10169555,-0.30756173,32.963233360000004,-27.96097647,-23.07304899,-93.2294048,-0.7876072654999999,-0.305327259,-0.4197392575,-0.24842538169999998,0.0974474899,0.1033260478
09:49:03,0.428318475,-0.18221052000000001,-1.419957675,-0.032257485,0.10207907499999999,-0.307923945,32.96830374,-27.956316855,-23.075982035,-93.1821782,-0.79198977075,-0.30951124350000003,-0.41553477375000003,-0.24818638405,0.09837604535,0.1029655177
09:49:03,0.4169128,-0.18637976,-1.4171534,-0.03155968000000001,0.1024626,-0.30828616,32.97337412,-27.95165724,-23.078915079999998,-93.1349516,-0.796372276,-0.31369522800000005,-0.41133029000000004,-0.2479473864,0.0993046008,0.1026049876
09:49:03,0.40550712499999997,-0.19054900000000002,-1.414349125,-0.030861875000000004,0.102846125,-0.308648375,32.9784445,-27.946997624999998,-23.081848125,-93.08772499999999,-0.80075478125,-0.3178792125,-0.40712580625000006,-0.24770838874999998,0.10023315625,0.1022444575
09:49:03,0.39410144999999996,-0.19471824000000001,-1.41154485,-0.030164070000000005,0.10322964999999999,-0.30901059,32.98351488,-27.94233801,-23.08478117,-93.04049839999999,-0.8051372864999999,-0.322063197,-0.4029213225,-0.2474693911,0.1011617117,0.10188392739999999
09:49:03,0.382695775,-0.19888748,-1.408740575,-0.029466265000000005,0.103613175,-0.309372805,32.98858526,-27.937678395,-23.087714215,-92.9932718,-0.80951979175,-0.32624718150000004,-0.39871683875,-0.24723039344999997,0.10209026715,0.1015233973
09:49:03,0.3712901,-0.20305672000000002,-1.4059363,-0.028768460000000006,0.1039967,-0.30973501999999997,32.99365564,-27.933018779999998,-23.09064726,-92.9460452,-0.8139022969999999,-0.330431166,-0.39451235500000004,-0.24699139579999999,0.1030188226,0.10116286719999999
09:49:03,0.359884425,-0.20722596000000001,-1.403132025,-0.028070655000000007,0.104380225,-0.31009723499999997,32.99872602,-27.928359165,-23.093580305,-92.8988186,-0.81828480225,-0.3346151505,-0.39030787125000005,-0.24675239815,0.10394737805,0.1008023371
09:49:03,0.34847875,-0.2113952,-1.40032775,-0.027372850000000004,0.10476374999999999,-0.31045944999999997,33.003796400000006,-27.92369955,-23.09651335,-92.851592,-0.8226673075,-0.33879913500000003,-0.38610338750000006,-0.24651340049999998,0.1048759335,0.100441807
09:49:03,0.337073075,-0.21556444000000002,-1.397523475,-0.026675045000000005,0.105147275,-0.31082166499999997,33.008866780000005,-27.919039935,-23.099446394999998,-92.8043654,-0.82704981275,-0.34298311950000004,-0.38189890375,-0.24627440285,0.10580448895,0.1000812769
09:49:03,0.3256674,-0.21973368000000001,-1.3947192,-0.025977240000000006,0.1055308,-0.31118387999999997,33.013937160000005,-27.91438032,-23.10237944,-92.75713879999999,-0.831432318,-0.34716710400000006,-0.37769442000000003,-0.2460354052,0.1067330444,0.0997207468
09:49:03,0.314261725,-0.22390292,-1.391914925,-0.025279435000000006,0.105914325,-0.31154609499999997,33.019007540000004,-27.909720704999998,-23.105312485,-92.70991219999999,-0.83581482325,-0.3513510885,-0.37348993625000004,-0.24579640754999998,0.10766159985,0.0993602167
09:49:03,0.30285605,-0.22807216000000002,-1.38911065,-0.024581630000000007,0.10629785,-0.31190830999999997,33.02407792,-27.90506109,-23.108245529999998,-92.6626856,-0.8401973285,-0.35553507300000003,-0.3692854525,-0.2455574099,0.10859015529999999,0.0989996866
09:49:03,0.291450375,-0.23224140000000001,-1.386306375,-0.023883825000000004,0.106681375,-0.31227052499999997,33.0291483,-27.900401475,-23.111178575,-92.615459,-0.84457983375,-0.3597190575,-0.36508096875000007,-0.24531841224999998,0.10951871075,0.09863915649999999
09:49:03,0.2800447,-0.23641064,-1.3835021,-0.023186020000000005,0.10706489999999999,-0.31263274,33.03421868,-27.89574186,-23.11411162,-92.5682324,-0.848962339,-0.363903042,-0.360876485,-0.2450794146,0.1104472662,0.0982786264
09:49:03,0.268639025,-0.24057988000000002,-1.380697825,-0.022488215000000006,0.107448425,-0.312994955,33.03928906,-27.891082245,-23.117044664999998,-92.5210058,-0.85334484425,-0.3680870265,-0.35667200125000004,-0.24484041695,0.11137582165,0.0979180963
09:49:03,0.25723335,-0.24474912000000001,-1.37789355,-0.021790410000000007,0.10783195,-0.31335717,33.04435944,-27.88642263,-23.11997771,-92.4737792,-0.8577273495,-0.37227101100000004,-0.35246751750000005,-0.24460141929999998,0.11230437709999999,0.0975575662
09:49:03,0.24582767500000002,-0.24891836,-1.3750892749999999,-0.021092605000000007,0.10821547499999999,-0.313719385,33.04942982,-27.881763015,-23.122910755,-92.4265526,-0.8621098547499999,-0.37645499550000006,-0.34826303375,-0.24436242165,0.11323293255,0.0971970361
09:49:03,0.23442200000000002,-0.2530876,-1.372285,-0.020394800000000005,0.108599,-0.3140816,33.0545002,-27.8771034,-23.1258438,-92.37932599999999,-0.86649236,-0.38063898000000007,-0.34405855,-0.24412342399999998,0.114161488,0.096836506
09:49:03,0.22301632500000002,-0.25725684000000004,-1.369480725,-0.019696995000000005,0.108982525,-0.314443815,33.05957058,-27.872443784999998,-23.128776845,-92.3320994,-0.87087486525,-0.38482296450000003,-0.33985406625000003,-0.24388442635,0.11509004345,0.0964759759
09:49:03,0.21161065,-0.26142608,-1.36667645,-0.018999190000000006,0.10936604999999999,-0.31480603,33.064640960000006,-27.86778417,-23.13170989,-92.2848728,-0.8752573705,-0.38900694900000005,-0.33564958250000004,-0.2436454287,0.11601859889999999,0.0961154458
09:49:03,0.200204975,-0.26559532,-1.363872175,-0.018301385000000007,0.10974957499999999,-0.315168245,33.069711340000005,-27.863124555,-23.134642935,-92.2376462,-0.8796398757499999,-0.3931909335,-0.33144509875000006,-0.24340643104999998,0.11694715435,0.0957549157
09:49:03,0.1887993,-0.26976456000000004,-1.3610679,-0.017603580000000008,0.1101331,-0.31553046,33.074781720000004,-27.858464939999998,-23.137575979999998,-92.1904196,-0.884022381,-0.397374918,-0.327240615,-0.2431674334,0.1178757098,0.09539438559999999
09:49:03,0.177393625,-0.2739338,-1.358263625,-0.016905775000000005,0.110516625,-0.315892675,33.079852100000004,-27.853805325,-23.140509025,-92.143193,-0.88840488625,-0.40155890250000004,-0.32303613125,-0.24292843574999998,0.11880426525,0.0950338555
09:49:03,0.16598795,-0.27810304,-1.35545935,-0.01620797000000001,0.11090015,-0.31625489,33.08492248,-27.84914571,-23.14344207,-92.0959664,-0.8927873915,-0.40574288700000005,-0.31883164750000004,-0.2426894381,0.11973282069999999,0.0946733254
09:49:03,0.154582275,-0.28227228000000004,-1.352655075,-0.015510165000000006,0.111283675,-0.316617105,33.08999286,-27.844486095,-23.146375114999998,-92.04873979999999,-0.8971698967499999,-0.40992687150000007,-0.31462716375,-0.24245044045,0.12066137615,0.0943127953
09:49:03,0.1431766,-0.28644152,-1.3498508,-0.01481236000000001,0.1116672,-0.31697932,33.09506324,-27.83982648,-23.14930816,-92.00151319999999,-0.901552402,-0.414110856,-0.31042268000000006,-0.24221144279999998,0.1215899316,0.0939522652
09:49:03,0.13177092499999998,-0.29061076,-1.347046525,-0.014114555000000008,0.11205072499999999,-0.317341535,33.10013362,-27.835166864999998,-23.152241205,-91.9542866,-0.9059349072499999,-0.41829484050000004,-0.30621819625,-0.24197244515,0.12251848705,0.0935917351
09:49:03,0.12036524999999998,-0.29478000000000004,-1.34424225,-0.013416750000000005,0.11243425,-0.31770375,33.105204,-27.83050725,-23.155174249999998,-91.90706,-0.9103174125,-0.422478825,-0.30201371250000003,-0.24173344749999998,0.12344704249999999,0.093231205
09:49:03,0.10895957499999998,-0.29894924,-1.341437975,-0.01271894500000001,0.112817775,-0.318065965,33.11027438,-27.825847635,-23.158107295,-91.8598334,-0.9146999177499999,-0.4266628095,-0.29780922875000004,-0.24149444985,0.12437559795,0.0928706749
09:49:03,0.09755389999999997,-0.30311848,-1.3386337,-0.012021140000000007,0.1132013,-0.31842818,33.11534476,-27.82118802,-23.16104034,-91.8126068,-0.919082423,-0.43084679400000003,-0.293604745,-0.2412554522,0.1253041534,0.0925101448
09:49:03,0.08614822499999997,-0.30728772000000004,-1.335829425,-0.01132333500000001,0.113584825,-0.318790395,33.120415140000006,-27.816528405,-23.163973385,-91.7653802,-0.9234649282499999,-0.43503077850000005,-0.28940026125000007,-0.24101645454999998,0.12623270884999999,0.0921496147
09:49:03,0.07474255000000007,-0.31145696,-1.33302515,-0.010625530000000008,0.11396835,-0.31915261,33.125485520000005,-27.81186879,-23.166906429999997,-91.7181536,-0.9278474335,-0.43921476300000006,-0.2851957775,-0.2407774569,0.1271612643,0.0917890846
09:49:03,0.06333687500000007,-0.3156262,-1.330220875,-0.009927725000000005,0.11435187499999999,-0.319514825,33.130555900000004,-27.807209175,-23.169839475,-91.67092699999999,-0.9322299387499999,-0.4433987475000001,-0.28099129375000004,-0.24053845925,0.12808981975,0.0914285545
09:49:03,0.051931200000000066,-0.31979544000000004,-1.3274166,-0.00922992000000001,0.1147354,-0.31987704,33.135626280000004,-27.80254956,-23.17277252,-91.6237004,-0.936612444,-0.44758273200000004,-0.27678681000000005,-0.24029946159999999,0.1290183752,0.0910680244
09:49:03,0.04052552500000006,-0.32396468,-1.324612325,-0.008532115000000007,0.115118925,-0.320239255,33.14069666,-27.797889944999998,-23.175705564999998,-91.5764738,-0.9409949492499999,-0.45176671650000005,-0.27258232625,-0.24006046395,0.12994693065000001,0.0907074943
09:49:03,0.029119850000000058,-0.32813392,-1.32180805,-0.007834310000000011,0.11550244999999999,-0.32060147,33.14576704,-27.79323033,-23.17863861,-91.5292472,-0.9453774545,-0.455950701,-0.2683778425000001,-0.23982146629999998,0.1308754861,0.09034696419999999
09:49:03,0.017714175000000054,-0.33230316000000004,-1.319003775,-0.007136505000000008,0.115885975,-0.320963685,33.15083742,-27.788570715,-23.181571655,-91.4820206,-0.9497599597499999,-0.46013468550000003,-0.26417335875000003,-0.23958246865,0.13180404155,0.0899864341
09:49:03,0.00630850000000005,-0.3364724,-1.3161995,-0.0064387000000000055,0.1162695,-0.3213259,33.1559078,-27.783911099999997,-23.184504699999998,-91.434794,-0.9541424649999999,-0.46431867000000004,-0.25996887500000004,-0.239343471,0.132732597,0.089625904
09:49:03,-0.005097174999999954,-0.34064164,-1.313395225,-0.00574089500000001,0.116653025,-0.321688115,33.16097818,-27.779251485,-23.187437745,-91.3875674,-0.9585249702499999,-0.46850265450000006,-0.25576439125000006,-0.23910447334999999,0.13366115245,0.0892653739
09:49:03,-0.016502849999999958,-0.34481088000000004,-1.31059095,-0.005043090000000007,0.11703654999999999,-0.32205033,33.16604856,-27.77459187,-23.19037079,-91.34034079999999,-0.9629074755,-0.4726866390000001,-0.2515599075,-0.2388654757,0.1345897079,0.0889048438
09:49:03,-0.027908524999999962,-0.34898012,-1.307786675,-0.004345285000000011,0.117420075,-0.322412545,33.17111894,-27.769932255,-23.193303835,-91.29311419999999,-0.96728998075,-0.47687062350000003,-0.24735542375000003,-0.23862647804999998,0.13551826335,0.0885443137
09:49:03,-0.039314199999999966,-0.35314936,-1.3049824,-0.0036474800000000085,0.1178036,-0.32277476,33.17618932,-27.76527264,-23.19623688,-91.2458876,-0.9716724859999999,-0.48105460800000005,-0.24315094000000004,-0.2383874804,0.1364468188,0.0881837836
09:49:03,-0.05071987499999997,-0.35731860000000004,-1.302178125,-0.0029496750000000058,0.118187125,-0.323136975,33.181259700000005,-27.760613024999998,-23.199169925,-91.198661,-0.97605499125,-0.48523859250000007,-0.23894645625000005,-0.23814848275,0.13737537425000002,0.0878232535
09:49:03,-0.062125549999999974,-0.36148784,-1.29937385,-0.00225187000000001,0.11857065,-0.32349919,33.186330080000005,-27.75595341,-23.20210297,-91.1514344,-0.9804374965,-0.489422577,-0.23474197250000006,-0.23790948509999998,0.1383039297,0.0874627234
09:49:03,-0.07353122499999998,-0.36565708,-1.296569575,-0.0015540650000000072,0.118954175,-0.323861405,33.191400460000004,-27.751293795,-23.205036014999997,-91.1042078,-0.98482000175,-0.49360656150000004,-0.23053748875000002,-0.23767048745,0.13923248515,0.08710219329999999
09:49:03,-0.08493689999999998,-0.36982632000000004,-1.2937653,-0.0008562600000000115,0.11933769999999999,-0.32422362,33.19647084,-27.74663418,-23.20796906,-91.0569812,-0.9892025069999999,-0.49779054600000006,-0.22633300500000003,-0.2374314898,0.1401610406,0.0867416632
09:49:03,-0.09634257499999999,-0.37399556,-1.290961025,-0.00015845500000000873,0.119721225,-0.324585835,33.20154122,-27.741974565,-23.210902105,-91.0097546,-0.99358501225,-0.5019745305000001,-0.22212852125000004,-0.23719249215,0.14108959605,0.08638113310000001
09:49:03,-0.10774824999999999,-0.3781648,-1.28815675,0.000539349999999994,0.12010475,-0.32494805,33.2066116,-27.73731495,-23.213835149999998,-90.96252799999999,-0.9979675175,-0.5061585150000001,-0.21792403750000006,-0.2369534945,0.1420181515,0.086020603
09:49:03,-0.119153925,-0.38233404000000004,-1.285352475,0.0012371549999999898,0.120488275,-0.325310265,33.21168198,-27.732655335,-23.216768195,-90.9153014,-1.00235002275,-0.5103424995000001,-0.21371955375,-0.23671449684999998,0.14294670695,0.0856600729
09:49:03,-0.1305596,-0.38650328,-1.2825482,0.0019349599999999925,0.1208718,-0.32567248,33.21675236,-27.72799572,-23.21970124,-90.8680748,-1.006732528,-0.5145264840000001,-0.20951507000000003,-0.2364754992,0.14387526239999998,0.0852995428
09:49:03,-0.141965275,-0.39067252,-1.279743925,0.0026327649999999883,0.121255325,-0.326034695,33.22182274,-27.723336104999998,-23.222634284999998,-90.8208482,-1.0111150332499999,-0.5187104685000001,-0.20531058625000004,-0.23623650154999998,0.14480381785000002,0.0849390127
09:49:03,-0.15337095,-0.39484176000000004,-1.27693965,0.003330569999999991,0.12163884999999999,-0.32639691,33.22689312,-27.71867649,-23.22556733,-90.7736216,-1.0154975385,-0.522894453,-0.20110610250000005,-0.2359975039,0.1457323733,0.0845784826
09:49:03,-0.1647766249999999,-0.399011,-1.274135375,0.004028374999999994,0.122022375,-0.326759125,33.2319635,-27.714016875,-23.228500375,-90.726395,-1.01988004375,-0.5270784375,-0.19690161875000006,-0.23575850625,0.14666092875,0.0842179525
09:49:03,-0.1761822999999999,-0.40318024,-1.2713311,0.0047261799999999896,0.1224059,-0.32712134,33.23703388,-27.709357259999997,-23.23143342,-90.6791684,-1.024262549,-0.5312624220000001,-0.19269713500000002,-0.23551950859999998,0.1475894842,0.08385742239999999
09:49:03,-0.1875879749999999,-0.40734948000000004,-1.268526825,0.005423984999999992,0.122789425,-0.327483555,33.242104260000005,-27.704697645,-23.234366464999997,-90.63194179999999,-1.0286450542499999,-0.5354464065000001,-0.18849265125000003,-0.23528051095,0.14851803965,0.0834968923
09:49:03,-0.1989936499999999,-0.41151872,-1.26572255,0.006121789999999988,0.12317295,-0.32784577,33.247174640000004,-27.700038029999998,-23.23729951,-90.5847152,-1.0330275594999998,-0.539630391,-0.18428816750000004,-0.2350415133,0.1494465951,0.08313636220000001
09:49:03,-0.21039932499999991,-0.41568796,-1.262918275,0.006819594999999991,0.123556475,-0.328207985,33.252245020000004,-27.695378415,-23.240232555,-90.5374886,-1.03741006475,-0.5438143755,-0.18008368375000006,-0.23480251565,0.15037515055,0.0827758321
09:49:03,-0.22180499999999992,-0.41985720000000004,-1.260114,0.0075173999999999935,0.12394,-0.3285702,33.2573154,-27.6907188,-23.243165599999998,-90.490262,-1.04179257,-0.54799836,-0.1758792,-0.234563518,0.15130370599999998,0.082415302
09:49:03,-0.23321067499999992,-0.42402644,-1.257309725,0.00821520499999999,0.124323525,-0.328932415,33.26238578,-27.686059184999998,-23.246098645,-90.4430354,-1.0461750752499999,-0.5521823445,-0.17167471625000003,-0.23432452035,0.15223226145000002,0.0820547719
09:49:03,-0.24461634999999993,-0.42819568,-1.25450545,0.008913009999999992,0.12470705,-0.32929463,33.26745616,-27.68139957,-23.24903169,-90.3958088,-1.0505575805,-0.556366329,-0.16747023250000004,-0.2340855227,0.1531608169,0.0816942418
09:49:03,-0.25602202499999993,-0.43236492000000004,-1.251701175,0.009610814999999988,0.125090575,-0.329656845,33.27252654,-27.676739955,-23.251964734999998,-90.3485822,-1.05494008575,-0.5605503135000001,-0.16326574875000005,-0.23384652505,0.15408937235,0.0813337117
09:49:03,-0.26742769999999993,-0.43653416,-1.2488969,0.01030861999999999,0.1254741,-0.33001906,33.27759692,-27.67208034,-23.25489778,-90.3013556,-1.059322591,-0.5647342980000001,-0.15906126500000006,-0.2336075274,0.1550179278,0.0809731816
09:49:03,-0.27883337499999994,-0.4407034,-1.246092625,0.011006424999999986,0.125857625,-0.330381275,33.2826673,-27.667420725,-23.257830825,-90.25412899999999,-1.0637050962499999,-0.5689182825000001,-0.15485678125000002,-0.23336852975,0.15594648325,0.0806126515
09:49:03,-0.29023904999999994,-0.44487264000000004,-1.24328835,0.011704229999999989,0.12624115,-0.33074349,33.28773768,-27.662761109999998,-23.260763869999998,-90.2069024,-1.0680876014999998,-0.5731022670000001,-0.15065229750000003,-0.23312953209999998,0.1568750387,0.0802521214
09:49:03,-0.30164472499999995,-0.44904188,-1.240484075,0.012402034999999992,0.126624675,-0.331105705,33.29280806,-27.658101495,-23.263696915,-90.1596758,-1.07247010675,-0.5772862515000001,-0.14644781375000004,-0.23289053445,0.15780359415,0.07989159130000001
09:49:03,-0.31305039999999995,-0.45321112,-1.2376798,0.013099839999999988,0.12700820000000002,-0.33146791999999997,33.29787844,-27.65344188,-23.26662996,-90.1124492,-1.076852612,-0.5814702360000001,-0.14224333000000006,-0.2326515368,0.15873214959999998,0.0795310612
09:49:03,-0.32445607499999995,-0.45738036000000004,-1.234875525,0.01379764499999999,0.127391725,-0.33183013499999997,33.302948820000005,-27.648782264999998,-23.269563005,-90.0652226,-1.0812351172499999,-0.5856542205,-0.13803884625000007,-0.23241253914999999,0.15966070505000002,0.0791705311
09:49:03,-0.33586174999999996,-0.4615496,-1.23207125,0.014495449999999993,0.12777525,-0.33219234999999997,33.308019200000004,-27.64412265,-23.272496049999997,-90.017996,-1.0856176225,-0.5898382050000001,-0.13383436250000003,-0.2321735415,0.1605892605,0.07881000099999999
09:49:03,-0.34726742499999996,-0.46571884,-1.229266975,0.015193254999999989,0.128158775,-0.33255456499999997,33.31308958,-27.639463035,-23.275429095,-89.9707694,-1.09000012775,-0.5940221895000001,-0.12962987875000004,-0.23193454385,0.16151781595,0.0784494709
09:49:03,-0.35867309999999997,-0.46988808000000004,-1.2264627,0.015891059999999985,0.1285423,-0.33291677999999997,33.31815996,-27.634803419999997,-23.27836214,-89.92354279999999,-1.094382633,-0.5982061740000001,-0.12542539500000005,-0.2316955462,0.1624463714,0.0780889408
09:49:03,-0.37007877499999997,-0.47405732,-1.223658425,0.016588864999999994,0.128925825,-0.33327899499999997,33.32323034,-27.630143805,-23.281295184999998,-89.8763162,-1.0987651382499999,-0.6023901585,-0.12122091125000006,-0.23145654855,0.16337492685,0.0777284107
09:49:03,-0.38148445,-0.47822656,-1.22085415,0.01728666999999999,0.12930935,-0.33364120999999997,33.32830072,-27.625484189999998,-23.28422823,-89.8290896,-1.1031476434999998,-0.606574143,-0.11701642750000002,-0.23121755089999999,0.1643034823,0.0773678806
09:49:03,-0.392890125,-0.48239580000000004,-1.218049875,0.017984474999999986,0.12969287499999999,-0.33400342499999996,33.3333711,-27.620824575,-23.287161275,-89.781863,-1.10753014875,-0.6107581275,-0.11281194375000003,-0.23097855325,0.16523203775,0.0770073505
09:49:03,-0.4042958,-0.48656504,-1.2152456,0.01868227999999998,0.1300764,-0.33436563999999996,33.33844148,-27.61616496,-23.290094319999998,-89.7346364,-1.111912654,-0.614942112,-0.10860746000000004,-0.2307395556,0.16616059319999998,0.07664682040000001
09:49:03,-0.415701475,-0.49073428,-1.212441325,0.01938008499999999,0.130459925,-0.33472785499999996,33.34351186,-27.611505344999998,-23.293027365,-89.6874098,-1.11629515925,-0.6191260965000001,-0.10440297625000006,-0.23050055795,0.16708914865000002,0.0762862903
09:49:03,-0.42710715,-0.49490352000000004,-1.20963705,0.020077889999999987,0.13084345,-0.33509006999999996,33.34858224,-27.60684573,-23.29596041,-89.6401832,-1.1206776644999998,-0.6233100810000001,-0.10019849250000007,-0.2302615603,0.1680177041,0.0759257602
09:49:03,-0.438512825,-0.49907276000000006,-1.206832775,0.020775694999999983,0.131226975,-0.335452285,33.35365262,-27.602186115,-23.298893454999998,-89.5929566,-1.1250601697499998,-0.6274940655000001,-0.09599400875000003,-0.23002256264999998,0.16894625955,0.07556523009999999
09:49:03,-0.4499185,-0.503242,-1.2040285,0.021473499999999993,0.1316105,-0.3358145,33.358723,-27.5975265,-23.301826499999997,-89.54572999999999,-1.129442675,-0.6316780500000001,-0.09178952500000004,-0.229783565,0.169874815,0.0752047
09:49:03,-0.461324175,-0.50741124,-1.201224225,0.02217130499999999,0.13199402500000001,-0.336176715,33.363793380000004,-27.592866885,-23.304759545,-89.4985034,-1.13382518025,-0.6358620345000001,-0.08758504125000005,-0.22954456735,0.17080337045,0.07484416990000001
09:49:03,-0.47272985,-0.5115804800000001,-1.19841995,0.022869109999999984,0.13237755,-0.33653893,33.36886376,-27.588207269999998,-23.30769259,-89.4512768,-1.1382076854999998,-0.6400460190000001,-0.08338055750000006,-0.2293055697,0.1717319259,0.0744836398
09:49:03,-0.484135525,-0.5157497200000001,-1.195615675,0.023566914999999994,0.132761075,-0.336901145,33.37393414,-27.583547655,-23.310625634999997,-89.4040502,-1.14259019075,-0.6442300035000001,-0.07917607375000002,-0.22906657205,0.17266048135,0.0741231097
09:49:03,-0.4955412,-0.51991896,-1.1928114,0.02426471999999999,0.1331446,-0.33726336,33.37900452,-27.57888804,-23.31355868,-89.3568236,-1.146972696,-0.648413988,-0.07497159000000003,-0.2288275744,0.17358903679999999,0.0737625796
09:49:03,-0.506946875,-0.5240882,-1.190007125,0.024962524999999985,0.133528125,-0.337625575,33.3840749,-27.574228424999998,-23.316491725,-89.309597,-1.15135520125,-0.6525979725000001,-0.07076710625000004,-0.22858857675,0.17451759225000002,0.07340204950000001
09:49:03,-0.51835255,-0.52825744,-1.18720285,0.02566032999999998,0.13391165,-0.33798779,33.38914528,-27.56956881,-23.319424769999998,-89.2623704,-1.1557377064999999,-0.6567819570000001,-0.06656262250000006,-0.2283495791,0.1754461477,0.0730415194
09:49:03,-0.5297582249999998,-0.53242668,-1.184398575,0.02635813499999999,0.134295175,-0.338350005,33.39421566,-27.564909195,-23.322357815,-89.21514379999999,-1.1601202117499998,-0.6609659415000001,-0.06235813875000007,-0.22811058145,0.17637470315,0.0726809893
09:49:03,-0.5411638999999998,-0.5365959200000001,-1.1815943,0.027055939999999987,0.13467869999999998,-0.33871222,33.39928604,-27.560249579999997,-23.32529086,-89.1679172,-1.164502717,-0.665149926,-0.058153655000000026,-0.2278715838,0.1773032586,0.07232045919999999
09:49:03,-0.5525695749999998,-0.5407651600000001,-1.178790025,0.027753744999999982,0.135062225,-0.339074435,33.40435642,-27.555589965,-23.328223904999998,-89.1206906,-1.16888522225,-0.6693339105,-0.05394917125000004,-0.22763258614999998,0.17823181405,0.0719599291
09:49:03,-0.5639752499999998,-0.5449344,-1.17598575,0.028451549999999992,0.13544575,-0.33943665,33.4094268,-27.550930349999998,-23.33115695,-89.073464,-1.1732677274999999,-0.673517895,-0.04974468750000005,-0.2273935885,0.1791603695,0.07159939900000001
09:49:03,-0.5753809249999998,-0.54910364,-1.173181475,0.029149354999999988,0.135829275,-0.339798865,33.41449718,-27.546270735,-23.334089995,-89.0262374,-1.17765023275,-0.6777018795,-0.04554020375000006,-0.22715459085,0.18008892495,0.0712388689
09:49:03,-0.5867865999999998,-0.55327288,-1.1703772,0.029847159999999984,0.1362128,-0.34016108,33.419567560000004,-27.54161112,-23.33702304,-88.9790108,-1.182032738,-0.6818858640000001,-0.041335720000000076,-0.2269155932,0.18101748039999999,0.0708783388
09:49:03,-0.5981922749999998,-0.55744212,-1.167572925,0.030544964999999993,0.13659632500000002,-0.340523295,33.424637940000004,-27.536951504999998,-23.339956084999997,-88.9317842,-1.18641524325,-0.6860698485000001,-0.03713123625000003,-0.22667659555,0.18194603585000002,0.0705178087
09:49:03,-0.6095979499999998,-0.5616113600000001,-1.16476865,0.03124276999999999,0.13697985000000001,-0.34088551,33.42970832,-27.53229189,-23.34288913,-88.8845576,-1.1907977484999999,-0.6902538330000001,-0.032926752500000045,-0.2264375979,0.1828745913,0.07015727860000001
09:49:03,-0.6210036249999998,-0.5657806000000001,-1.161964375,0.031940574999999985,0.137363375,-0.341247725,33.4347787,-27.527632275,-23.345822175,-88.837331,-1.1951802537499998,-0.6944378175000001,-0.028722268750000057,-0.22619860025,0.18380314675,0.0697967485
09:49:03,-0.6324092999999998,-0.56994984,-1.1591601,0.03263837999999998,0.1377469,-0.34160994,33.43984908,-27.52297266,-23.348755219999997,-88.7901044,-1.199562759,-0.6986218020000001,-0.02451778500000007,-0.2259596026,0.18473170220000001,0.0694362184
09:49:03,-0.6438149749999998,-0.57411908,-1.156355825,0.03333618499999999,0.138130425,-0.341972155,33.44491946,-27.518313045,-23.351688265,-88.7428778,-1.20394526425,-0.7028057865000001,-0.020313301250000027,-0.22572060495,0.18566025765,0.0690756883
09:49:03,-0.6552206499999998,-0.57828832,-1.15355155,0.034033989999999986,0.13851395,-0.34233437,33.44998984,-27.513653429999998,-23.35462131,-88.6956512,-1.2083277694999999,-0.7069897710000002,-0.01610881750000004,-0.2254816073,0.1865888131,0.0687151582
09:49:03,-0.6666263249999999,-0.58245756,-1.150747275,0.03473179499999998,0.138897475,-0.342696585,33.45506022,-27.508993815,-23.357554354999998,-88.6484246,-1.21271027475,-0.7111737555000001,-0.011904333749999996,-0.22524260965,0.18751736855,0.06835462810000001
09:49:03,-0.6780319999999999,-0.5866268,-1.147943,0.03542959999999999,0.139281,-0.3430588,33.4601306,-27.5043342,-23.3604874,-88.601198,-1.2170927799999998,-0.7153577400000001,-0.007699850000000064,-0.225003612,0.188445924,0.067994098
09:49:03,-0.6894376749999999,-0.5907960400000001,-1.145138725,0.03612740499999999,0.139664525,-0.343421015,33.46520098,-27.499674584999998,-23.363420445,-88.5539714,-1.22147528525,-0.7195417245000001,-0.0034953662500000204,-0.22476461435,0.18937447945000002,0.0676335679
09:49:03,-0.7008433499999999,-0.59496528,-1.14233445,0.03682520999999998,0.14004805,-0.34378323,33.47027136,-27.49501497,-23.366353489999998,-88.50674479999999,-1.2258577904999999,-0.7237257090000001,0.0007091174999999117,-0.22452561669999999,0.1903030349,0.0672730378
09:49:03,-0.7122490249999999,-0.59913452,-1.139530175,0.03752301499999999,0.140431575,-0.344145445,33.47534174,-27.490355355,-23.369286535,-88.4595182,-1.2302402957499998,-0.7279096935000001,0.004913601249999955,-0.22428661905,0.19123159035,0.06691250770000001
09:49:03,-0.7236546999999999,-0.6033037600000001,-1.1367259,0.03822081999999999,0.1408151,-0.34450766,33.480412120000004,-27.485695739999997,-23.37221958,-88.4122916,-1.234622801,-0.7320936780000001,0.009118084999999998,-0.2240476214,0.19216014580000002,0.0665519776
09:49:03,-0.7350603749999999,-0.607473,-1.133921625,0.038918624999999984,0.141198625,-0.344869875,33.4854825,-27.481036125,-23.375152625,-88.365065,-1.23900530625,-0.7362776625,0.01332256874999993,-0.22380862375,0.19308870125,0.0661914475
09:49:03,-0.7464660499999999,-0.61164224,-1.13111735,0.03961642999999998,0.14158215000000002,-0.34523209,33.49055288,-27.476376509999998,-23.378085669999997,-88.3178384,-1.2433878114999999,-0.7404616470000001,0.017527052499999973,-0.2235696261,0.1940172567,0.0658309174
09:49:03,-0.7578717249999999,-0.6158114800000001,-1.1283130749999999,0.04031423499999999,0.141965675,-0.345594305,33.49562326,-27.471716895,-23.381018715,-88.2706118,-1.24777031675,-0.7446456315000001,0.021731536249999905,-0.22333062845,0.19494581215,0.0654703873
09:49:03,-0.7692773999999999,-0.61998072,-1.1255088,0.041012039999999986,0.1423492,-0.34595652,33.50069364,-27.46705728,-23.38395176,-88.2233852,-1.2521528219999998,-0.7488296160000001,0.02593601999999995,-0.2230916308,0.1958743676,0.06510985720000001
09:49:03,-0.7806830749999999,-0.62414996,-1.122704525,0.04170984499999998,0.142732725,-0.346318735,33.50576402,-27.462397664999997,-23.386884804999998,-88.1761586,-1.25653532725,-0.7530136005000001,0.03014050374999999,-0.22285263315,0.19680292305,0.0647493271
09:49:03,-0.7920887499999999,-0.6283192000000001,-1.11990025,0.04240764999999999,0.14311625,-0.34668095,33.5108344,-27.45773805,-23.38981785,-88.12893199999999,-1.2609178325,-0.7571975850000001,0.034344987499999924,-0.2226136355,0.1977314785,0.064388797
09:49:03,-0.8034944249999999,-0.63248844,-1.117095975,0.04310545499999999,0.143499775,-0.347043165,33.51590478,-27.453078435,-23.392750895,-88.0817054,-1.2653003377499998,-0.7613815695000001,0.03854947124999997,-0.22237463785,0.19866003394999998,0.0640282669
09:49:03,-0.8149000999999999,-0.63665768,-1.1142916999999999,0.04380325999999998,0.1438833,-0.34740538,33.52097516,-27.44841882,-23.395683939999998,-88.0344788,-1.269682843,-0.765565554,0.0427539549999999,-0.22213564019999998,0.19958858940000002,0.06366773680000001
09:49:03,-0.8263057749999999,-0.6408269200000001,-1.111487425,0.04450106499999998,0.144266825,-0.347767595,33.52604554,-27.443759205,-23.398616985,-87.9872522,-1.2740653482499997,-0.7697495385,0.04695843874999994,-0.22189664255,0.20051714485,0.06330720670000001
09:49:03,-0.8377114499999999,-0.64499616,-1.10868315,0.04519886999999999,0.14465035,-0.34812981,33.53111592,-27.439099589999998,-23.40155003,-87.9400256,-1.2784478535,-0.7739335230000001,0.051162922499999985,-0.2216576449,0.2014457003,0.0629466766
09:49:03,-0.8491171249999999,-0.6491654,-1.105878875,0.045896674999999984,0.145033875,-0.348492025,33.5361863,-27.434439975,-23.404483074999998,-87.892799,-1.2828303587499998,-0.7781175075000001,0.05536740624999992,-0.22141864725,0.20237425575,0.0625861465
09:49:03,-0.8605227999999999,-0.6533346400000001,-1.1030746,0.04659447999999998,0.1454174,-0.34885424,33.541256680000004,-27.42978036,-23.407416119999997,-87.8455724,-1.2872128639999998,-0.7823014920000001,0.05957188999999996,-0.2211796496,0.2033028112,0.0622256164
09:49:03,-0.8719284749999999,-0.65750388,-1.1002703249999999,0.04729228499999999,0.145800925,-0.349216455,33.54632706,-27.425120744999997,-23.410349165,-87.79834579999999,-1.29159536925,-0.7864854765000001,0.06377637374999989,-0.22094065195,0.20423136665,0.061865086300000004
09:49:03,-0.8833341499999999,-0.66167312,-1.09746605,0.047990089999999985,0.14618445,-0.34957867,33.55139744,-27.42046113,-23.41328221,-87.7511192,-1.2959778745,-0.7906694610000001,0.06798085749999994,-0.2207016543,0.2051599221,0.061504556200000005
09:49:03,-0.8947398249999999,-0.6658423600000001,-1.094661775,0.04868789499999998,0.14656797500000002,-0.349940885,33.55646782,-27.415801515,-23.416215254999997,-87.7038926,-1.3003603797499999,-0.7948534455000001,0.07218534124999998,-0.22046265665,0.20608847755,0.061144026100000005
09:49:03,-0.9061454999999999,-0.6700116,-1.0918575,0.04938569999999999,0.1469515,-0.3503031,33.5615382,-27.411141899999997,-23.4191483,-87.656666,-1.304742885,-0.79903743,0.07638982499999991,-0.22022365900000002,0.207017033,0.060783496000000006
09:49:03,-0.9175511749999999,-0.67418084,-1.089053225,0.050083504999999987,0.147335025,-0.350665315,33.56660858,-27.406482285,-23.422081345,-87.6094394,-1.3091253902499997,-0.8032214145000001,0.08059430874999995,-0.21998466135,0.20794558845,0.0604229659
09:49:03,-0.92895685,-0.6783500800000001,-1.0862489499999999,0.05078130999999998,0.14771855,-0.35102753,33.57167896,-27.401822669999998,-23.425014389999998,-87.5622128,-1.3135078955,-0.8074053990000001,0.0847987925,-0.2197456637,0.2088741439,0.0600624358
09:49:03,-0.940362525,-0.68251932,-1.083444675,0.05147911499999998,0.148102075,-0.351389745,33.57674934,-27.397163055,-23.427947435,-87.5149862,-1.3178904007499999,-0.8115893835000001,0.08900327624999993,-0.21950666605,0.20980269935,0.0597019057
09:49:03,-0.9517682,-0.68668856,-1.0806404,0.05217691999999999,0.1484856,-0.35175196,33.58181972,-27.39250344,-23.43088048,-87.4677596,-1.3222729059999998,-0.8157733680000001,0.09320775999999997,-0.2192676684,0.2107312548,0.0593413756
09:49:03,-0.963173875,-0.6908578000000001,-1.077836125,0.052874724999999984,0.148869125,-0.352114175,33.5868901,-27.387843824999997,-23.433813524999998,-87.420533,-1.32665541125,-0.8199573525000001,0.0974122437499999,-0.21902867075,0.21165981025,0.058980845500000004
09:49:03,-0.97457955,-0.69502704,-1.07503185,0.05357252999999998,0.14925265,-0.35247639,33.59196048,-27.38318421,-23.43674657,-87.3733064,-1.3310379165,-0.8241413370000001,0.10161672749999995,-0.2187896731,0.2125883657,0.058620315400000005
09:49:03,-0.985985225,-0.69919628,-1.0722275749999999,0.05427033499999999,0.149636175,-0.35283860499999997,33.59703086,-27.378524595,-23.439679615,-87.3260798,-1.3354204217499999,-0.8283253215,0.10582121124999999,-0.21855067545,0.21351692115,0.058259785300000005
09:49:03,-0.9973909,-0.7033655200000001,-1.0694233,0.054968139999999985,0.1500197,-0.35320081999999997,33.60210124,-27.37386498,-23.442612659999998,-87.2788532,-1.339802927,-0.8325093060000001,0.11002569499999992,-0.2183116778,0.2144454766,0.057899255200000006
09:49:03,-1.0087965749999999,-0.70753476,-1.066619025,0.05566594499999998,0.150403225,-0.35356303499999997,33.60717162,-27.369205365,-23.445545704999997,-87.2316266,-1.3441854322499998,-0.8366932905000001,0.11423017874999997,-0.21807268015,0.21537403205,0.05753872510000001
09:49:03,-1.0202022499999996,-0.711704,-1.06381475,0.05636374999999999,0.15078675,-0.35392524999999997,33.612242,-27.364545749999998,-23.44847875,-87.1844,-1.3485679375,-0.8408772750000001,0.1184346624999999,-0.21783368250000001,0.2163025875,0.057178195
09:49:03,-1.0316079249999999,-0.7158732400000001,-1.061010475,0.057061554999999986,0.15117027500000002,-0.35428746499999997,33.61731238,-27.359886135,-23.451411795,-87.1371734,-1.3529504427499999,-0.8450612595000001,0.12263914624999994,-0.21759468485,0.21723114295,0.0568176649
09:49:03,-1.0430135999999997,-0.72004248,-1.0582061999999999,0.05775935999999998,0.15155380000000002,-0.35464967999999997,33.62238276,-27.35522652,-23.454344839999997,-87.0899468,-1.3573329479999998,-0.8492452440000001,0.12684362999999999,-0.2173556872,0.2181596984,0.0564571348
09:49:03,-1.0544192749999999,-0.72421172,-1.055401925,0.05845716499999998,0.151937325,-0.35501189499999997,33.62745314,-27.350566904999997,-23.457277885,-87.0427202,-1.36171545325,-0.8534292285000001,0.13104811374999992,-0.21711668955000002,0.21908825385,0.056096604700000004
09:49:03,-1.0658249499999997,-0.7283809600000001,-1.05259765,0.05915496999999999,0.15232085,-0.35537410999999997,33.63252352,-27.34590729,-23.46021093,-86.9954936,-1.3660979584999997,-0.8576132130000002,0.13525259749999996,-0.2168776919,0.2200168093,0.055736074600000005
09:49:03,-1.0772306249999999,-0.7325502,-1.049793375,0.05985277499999998,0.152704375,-0.35573632499999996,33.6375939,-27.341247674999998,-23.463143974999998,-86.948267,-1.3704804637499999,-0.8617971975000001,0.1394570812499999,-0.21663869424999999,0.22094536475,0.055375544500000005
09:49:03,-1.0886362999999997,-0.73671944,-1.0469891,0.06055057999999998,0.1530879,-0.35609853999999996,33.64266428,-27.336588059999997,-23.46607702,-86.9010404,-1.3748629689999998,-0.8659811820000001,0.14366156499999994,-0.2163996966,0.2218739202,0.055015014400000006
09:49:03,-1.100041975,-0.7408886800000001,-1.0441848249999999,0.06124838499999999,0.153471425,-0.35646075499999996,33.64773466,-27.331928445,-23.469010065,-86.8538138,-1.3792454742499998,-0.8701651665000001,0.14786604874999998,-0.21616069895,0.22280247565,0.05465448430000001
09:49:03,-1.1114476499999997,-0.74505792,-1.04138055,0.061946189999999984,0.15385495,-0.35682296999999996,33.65280504,-27.327268829999998,-23.471943109999998,-86.8065872,-1.3836279795,-0.8743491510000001,0.1520705324999999,-0.2159217013,0.2237310311,0.0542939542
09:49:03,-1.122853325,-0.74922716,-1.038576275,0.06264399499999998,0.154238475,-0.35718518499999996,33.65787542,-27.322609215,-23.474876154999997,-86.7593606,-1.3880104847499999,-0.8785331355000001,0.15627501624999995,-0.21568270365,0.22465958655,0.0539334241
09:49:03,-1.1342589999999997,-0.7533964000000001,-1.035772,0.06334179999999999,0.154622,-0.35754739999999996,33.6629458,-27.3179496,-23.4778092,-86.712134,-1.3923929899999998,-0.8827171200000001,0.1604795,-0.215443706,0.225588142,0.053572894
09:49:03,-1.145664675,-0.75756564,-1.032967725,0.06403960499999999,0.155005525,-0.35790961499999996,33.66801618,-27.313289984999997,-23.480742245,-86.6649074,-1.39677549525,-0.8869011045000001,0.16468398374999993,-0.21520470835,0.22651669745,0.053212363900000004
09:49:03,-1.1570703499999997,-0.76173488,-1.0301634499999999,0.06473740999999998,0.15538905,-0.35827182999999996,33.67308656,-27.30863037,-23.483675289999997,-86.6176808,-1.4011580004999997,-0.891085089,0.16888846749999997,-0.2149657107,0.2274452529,0.052851833800000005
09:49:03,-1.168476025,-0.7659041200000001,-1.027359175,0.06543521499999998,0.15577257500000002,-0.35863404499999996,33.67815694,-27.303970754999998,-23.486608335,-86.5704542,-1.40554050575,-0.8952690735000001,0.1730929512499999,-0.21472671305000002,0.22837380835,0.052491303700000005
09:49:03,-1.1798816999999997,-0.77007336,-1.0245549,0.06613301999999999,0.15615610000000002,-0.35899625999999996,33.68322732,-27.29931114,-23.48954138,-86.5232276,-1.4099230109999998,-0.8994530580000001,0.17729743499999995,-0.2144877154,0.2293023638,0.052130773600000006
09:49:03,-1.191287375,-0.7742426,-1.021750625,0.06683082499999998,0.15653962500000002,-0.35935847499999996,33.6882977,-27.294651525,-23.492474424999997,-86.476001,-1.4143055162499998,-0.9036370425000001,0.18150191875,-0.21424871775,0.23023091925,0.05177024350000001
09:49:03,-1.2026930499999997,-0.7784118400000001,-1.01894635,0.06752862999999998,0.15692315,-0.35972068999999995,33.69336808,-27.289991909999998,-23.49540747,-86.4287744,-1.4186880215,-0.9078210270000001,0.18570640249999992,-0.2140097201,0.2311594747,0.05140971340000001
09:49:03,-1.214098725,-0.78258108,-1.0161420749999999,0.06822643499999999,0.157306675,-0.36008290499999995,33.69843846,-27.285332295,-23.498340515,-86.38154779999999,-1.42307052675,-0.9120050115000001,0.18991088624999997,-0.21377072245,0.23208803015,0.0510491833
09:49:03,-1.2255043999999997,-0.78675032,-1.0133378,0.06892423999999998,0.1576902,-0.36044511999999995,33.70350884,-27.28067268,-23.501273559999998,-86.3343212,-1.4274530319999998,-0.9161889960000001,0.1941153699999999,-0.2135317248,0.2330165856,0.0506886532
09:49:03,-1.236910075,-0.7909195600000001,-1.010533525,0.06962204499999998,0.158073725,-0.36080733499999995,33.70857922,-27.276013064999997,-23.504206605,-86.2870946,-1.43183553725,-0.9203729805000002,0.19831985374999994,-0.21329272715,0.23394514105,0.050328123100000004
09:49:03,-1.2483157499999997,-0.7950888,-1.00772925,0.07031984999999998,0.15845725,-0.36116954999999995,33.7136496,-27.27135345,-23.50713965,-86.239868,-1.4362180424999997,-0.9245569650000001,0.20252433749999998,-0.2130537295,0.2348736965,0.049967593000000005
09:49:03,-1.259721425,-0.79925804,-1.004924975,0.07101765499999999,0.158840775,-0.36153176499999995,33.71871998,-27.266693834999998,-23.510072694999998,-86.1926414,-1.44060054775,-0.9287409495000001,0.20672882124999992,-0.21281473185,0.23580225195,0.049607062900000005
09:49:03,-1.2711270999999997,-0.8034272800000001,-1.0021206999999999,0.07171545999999998,0.15922429999999999,-0.36189397999999995,33.72379036,-27.262034219999997,-23.513005739999997,-86.1454148,-1.4449830529999999,-0.9329249340000001,0.21093330499999996,-0.2125757342,0.2367308074,0.049246532800000006
09:49:03,-1.282532775,-0.80759652,-0.999316425,0.07241326499999998,0.159607825,-0.36225619499999995,33.72886074,-27.257374605,-23.515938785,-86.0981882,-1.4493655582499998,-0.9371089185000001,0.2151377887499999,-0.21233673655000002,0.23765936285,0.04888600270000001
09:49:03,-1.2939384499999997,-0.81176576,-0.99651215,0.07311106999999999,0.15999135,-0.36261840999999995,33.73393112,-27.252714989999998,-23.51887183,-86.0509616,-1.4537480635,-0.9412929030000001,0.21934227249999994,-0.2120977389,0.2385879183,0.04852547260000001
09:49:03,-1.305344125,-0.8159350000000001,-0.9937078749999999,0.07380887499999998,0.160374875,-0.36298062499999995,33.7390015,-27.248055375,-23.521804874999997,-86.003735,-1.4581305687499997,-0.9454768875000001,0.22354675624999998,-0.21185874125,0.23951647375000001,0.0481649425
09:49:03,-1.3167497999999997,-0.82010424,-0.9909036,0.07450667999999998,0.16075840000000002,-0.36334283999999994,33.74407188,-27.24339576,-23.52473792,-85.9565084,-1.4625130739999999,-0.9496608720000002,0.2277512399999999,-0.21161974360000002,0.2404450292,0.04780441240000001
09:49:03,-1.3281554749999995,-0.82427348,-0.988099325,0.07520448499999999,0.16114192500000002,-0.36370505499999994,33.74914226,-27.238736144999997,-23.527670965,-85.9092818,-1.4668955792499998,-0.9538448565000001,0.23195572374999995,-0.21138074595,0.24137358465,0.047443882300000004
09:49:03,-1.3395611499999998,-0.8284427200000001,-0.98529505,0.07590228999999998,0.16152545000000001,-0.36406726999999994,33.75421264,-27.23407653,-23.530604009999998,-85.8620552,-1.4712780844999997,-0.9580288410000001,0.23616020749999989,-0.21114174830000002,0.2423021401,0.04708335220000001
09:49:03,-1.3509668249999995,-0.83261196,-0.9824907749999999,0.07660009499999998,0.161908975,-0.36442948499999994,33.75928302,-27.229416914999998,-23.533537055,-85.8148286,-1.47566058975,-0.9622128255000001,0.24036469124999993,-0.21090275065,0.24323069555000001,0.046722822100000005
09:49:03,-1.3623724999999998,-0.8367812,-0.9796865,0.07729789999999999,0.1622925,-0.3647917,33.7643534,-27.2247573,-23.5364701,-85.767602,-1.4800430949999999,-0.9663968100000001,0.24456917499999997,-0.210663753,0.244159251,0.046362292
09:49:03,-1.3737781749999995,-0.8409504400000001,-0.976882225,0.07799570499999998,0.162676025,-0.365153915,33.76942378,-27.220097685,-23.539403144999998,-85.7203754,-1.4844256002499998,-0.9705807945000001,0.2487736587499999,-0.21042475535,0.24508780645,0.04600176190000001
09:49:03,-1.3851838499999998,-0.84511968,-0.97407795,0.07869350999999998,0.16305955,-0.36551613,33.774494159999996,-27.215438069999998,-23.54233619,-85.6731488,-1.4888081055,-0.9747647790000001,0.25297814249999995,-0.2101857577,0.2460163619,0.0456412318
09:49:03,-1.3965895249999996,-0.84928892,-0.971273675,0.07939131499999998,0.163443075,-0.365878345,33.77956454,-27.210778455,-23.545269235,-85.6259222,-1.4931906107499997,-0.9789487635000002,0.25718262625,-0.20994676005000001,0.24694491735000001,0.04528070170000001
09:49:03,-1.4079951999999998,-0.8534581600000001,-0.9684693999999999,0.08008911999999997,0.1638266,-0.36624056,33.78463492,-27.20611884,-23.548202279999998,-85.5786956,-1.4975731159999999,-0.9831327480000002,0.2613871099999999,-0.2097077624,0.2478734728,0.0449201716
09:49:03,-1.4194008749999996,-0.8576274,-0.965665125,0.08078692499999997,0.164210125,-0.366602775,33.7897053,-27.201459224999997,-23.551135324999997,-85.531469,-1.5019556212499998,-0.9873167325000001,0.26559159374999997,-0.20946876475,0.24880202825,0.04455964150000001
09:49:03,-1.4308065499999998,-0.86179664,-0.96286085,0.08148472999999999,0.16459365,-0.36696499,33.79477568,-27.19679961,-23.55406837,-85.4842424,-1.5063381264999998,-0.9915007170000001,0.2697960774999999,-0.20922976710000002,0.2497305837,0.044199111400000005
09:49:03,-1.4422122249999996,-0.8659658800000001,-0.960056575,0.08218253499999999,0.164977175,-0.367327205,33.79984606,-27.192139994999998,-23.557001415,-85.4370158,-1.51072063175,-0.9956847015000001,0.27400056124999994,-0.20899076945,0.25065913915000004,0.04383858130000001
09:49:03,-1.4536178999999998,-0.87013512,-0.9572523,0.08288033999999998,0.1653607,-0.36768942,33.80491644,-27.187480379999997,-23.559934459999997,-85.3897892,-1.5151031369999999,-0.9998686860000001,0.278205045,-0.2087517718,0.25158769459999997,0.043478051200000006
09:49:03,-1.4650235749999996,-0.87430436,-0.9544480249999999,0.08357814499999998,0.16574422500000002,-0.368051635,33.80998682,-27.182820765,-23.562867505,-85.34256260000001,-1.5194856422499998,-1.0040526705000001,0.2824095287499999,-0.20851277415,0.25251625005,0.0431175211
09:49:03,-1.4764292499999998,-0.8784736000000001,-0.95164375,0.08427594999999997,0.16612775000000002,-0.36841385,33.8150572,-27.178161149999998,-23.56580055,-85.295336,-1.5238681475,-1.0082366550000001,0.28661401249999996,-0.2082737765,0.25344480550000004,0.04275699100000001
09:49:03,-1.4878349249999996,-0.88264284,-0.948839475,0.08497375499999997,0.16651127500000001,-0.368776065,33.82012758,-27.173501535,-23.568733594999998,-85.2481094,-1.5282506527499997,-1.0124206395000002,0.2908184962499999,-0.20803477885,0.25437336095,0.0423964609
09:49:03,-1.4992405999999998,-0.88681208,-0.9460352,0.08567155999999997,0.1668948,-0.36913828,33.82519796,-27.16884192,-23.57166664,-85.2008828,-1.5326331579999999,-1.0166046240000002,0.29502297999999993,-0.2077957812,0.2553019164,0.04203593080000001
09:49:03,-1.5106462749999996,-0.8909813200000001,-0.9432309249999999,0.08636936499999999,0.167278325,-0.369500495,33.830268339999996,-27.164182304999997,-23.574599685,-85.1536562,-1.5370156632499998,-1.0207886085000002,0.29922746375,-0.20755678355,0.25623047185000003,0.041675400700000004
09:49:03,-1.5220519499999998,-0.89515056,-0.9404266499999999,0.08706716999999999,0.16766185,-0.36986271,33.835338719999996,-27.15952269,-23.577532729999998,-85.1064296,-1.5413981684999998,-1.0249725930000002,0.3034319474999999,-0.2073177859,0.2571590273,0.04131487060000001
09:49:03,-1.5334576249999996,-0.8993198000000001,-0.937622375,0.08776497499999998,0.168045375,-0.370224925,33.8404091,-27.154863074999998,-23.580465775,-85.059203,-1.54578067375,-1.0291565775000002,0.30763643124999995,-0.20707878825,0.25808758275,0.040954340500000005
09:49:03,-1.5448632999999998,-0.9034890400000001,-0.9348181,0.08846277999999998,0.1684289,-0.37058714,33.84547948,-27.15020346,-23.58339882,-85.0119764,-1.5501631789999997,-1.0333405620000002,0.3118409149999999,-0.20683979060000002,0.2590161382,0.04059381040000001
09:49:03,-1.5562689749999996,-0.90765828,-0.932013825,0.08916058499999997,0.168812425,-0.370949355,33.85054986,-27.145543845,-23.586331865,-84.96474979999999,-1.5545456842499998,-1.0375245465000003,0.31604539874999993,-0.20660079295,0.25994469365,0.04023328030000001
09:49:03,-1.5676746499999998,-0.9118275200000001,-0.9292095499999999,0.08985838999999997,0.16919595,-0.37131157,33.85562024,-27.140884229999998,-23.589264909999997,-84.9175232,-1.5589281894999998,-1.0417085310000003,0.32024988249999997,-0.2063617953,0.2608732491,0.0398727502
09:49:03,-1.5790803249999996,-0.9159967600000001,-0.9264052749999999,0.09055619499999999,0.169579475,-0.371673785,33.86069062,-27.136224615,-23.592197955,-84.8702966,-1.5633106947499997,-1.0458925155000003,0.3244543662499999,-0.20612279765000002,0.26180180455,0.03951222010000001
09:49:04,-1.590486,-0.920166,-0.923601,0.091254,0.169963,-0.372036,33.865761,-27.131565,-23.595131,-84.82307,-1.5676932,-1.0500765,0.32865885,-0.2058838,0.26273036,0.03915169
09:49:04,-1.5798116800000002,-0.9154970250000001,-0.92649454,0.09076394,0.17180605000000002,-0.36976681,33.86742642,-27.135878814999998,-23.578756334999998,-84.8726747,-1.5643071949999998,-1.0455840358000001,0.325213166,-0.2043100263,0.2641317327,0.040535460450000005
09:49:04,-1.56913736,-0.91082805,-0.92938808,0.09027388,0.1736491,-0.36749761999999997,33.869091839999996,-27.140192629999998,-23.562381669999997,-84.92227940000001,-1.56092119,-1.0410915716,0.321767482,-0.2027362526,0.26553310539999997,0.0419192309
09:49:04,-1.5584630400000001,-0.906159075,-0.93228162,0.08978382,0.17549215,-0.36522843,33.87075726,-27.144506444999998,-23.546007005,-84.9718841,-1.5575351849999999,-1.0365991074,0.318321798,-0.2011624789,0.2669344781,0.04330300135
09:49:04,-1.54778872,-0.9014901000000001,-0.93517516,0.08929376,0.1773352,-0.36295923999999996,33.87242268,-27.148820259999997,-23.52963234,-85.0214888,-1.5541491799999998,-1.0321066432000001,0.314876114,-0.1995887052,0.2683358508,0.044686771800000004
09:49:04,-1.5371144,-0.896821125,-0.9380687,0.0888037,0.17917825,-0.36069005,33.8740881,-27.153134074999997,-23.513257675,-85.0710935,-1.550763175,-1.0276141790000002,0.31143043,-0.1980149315,0.2697372235,0.046070542250000006
09:49:04,-1.52644008,-0.89215215,-0.94096224,0.08831364,0.1810213,-0.35842085999999995,33.875753519999996,-27.157447889999997,-23.496883009999998,-85.1206982,-1.5473771699999999,-1.0231217148,0.30798474600000003,-0.19644115780000002,0.27113859619999997,0.0474543127
09:49:04,-1.51576576,-0.8874831750000001,-0.94385578,0.08782358,0.18286435,-0.35615167,33.87741894,-27.161761705,-23.480508344999997,-85.1703029,-1.543991165,-1.0186292506,0.304539062,-0.1948673841,0.2725399689,0.04883808315
09:49:04,-1.5050914400000002,-0.8828142,-0.94674932,0.08733352,0.1847074,-0.35388248,33.87908436,-27.16607552,-23.46413368,-85.2199076,-1.54060516,-1.0141367864000002,0.301093378,-0.1932936104,0.2739413416,0.050221853600000005
09:49:04,-1.49441712,-0.878145225,-0.94964286,0.08684346,0.18655045,-0.35161328999999997,33.88074978,-27.170389335,-23.447759015,-85.2695123,-1.5372191549999998,-1.0096443222,0.297647694,-0.1917198367,0.2753427143,0.05160562405000001
09:49:04,-1.4837428000000001,-0.8734762500000001,-0.9525364,0.0863534,0.1883935,-0.3493441,33.8824152,-27.17470315,-23.43138435,-85.319117,-1.53383315,-1.005151858,0.29420201,-0.190146063,0.27674408699999997,0.0529893945
09:49:04,-1.47306848,-0.868807275,-0.95542994,0.08586334,0.19023655,-0.34707490999999996,33.88408062,-27.179016965,-23.415009684999998,-85.3687217,-1.530447145,-1.0006593938000001,0.290756326,-0.1885722893,0.2781454597,0.054373164950000004
09:49:04,-1.46239416,-0.8641383,-0.95832348,0.08537328,0.19207960000000002,-0.34480572,33.88574604,-27.18333078,-23.39863502,-85.4183264,-1.5270611399999998,-0.9961669296000001,0.287310642,-0.1869985156,0.2795468324,0.0557569354
09:49:04,-1.45171984,-0.8594693250000001,-0.96121702,0.08488322,0.19392265,-0.34253652999999995,33.887411459999996,-27.187644595,-23.382260355,-85.4679311,-1.523675135,-0.9916744654,0.283864958,-0.1854247419,0.2809482051,0.05714070585
09:49:04,-1.44104552,-0.85480035,-0.96411056,0.08439316,0.1957657,-0.34026734,33.88907688,-27.191958409999998,-23.36588569,-85.5175358,-1.5202891299999999,-0.9871820012000001,0.280419274,-0.1838509682,0.2823495778,0.0585244763
09:49:04,-1.4303712000000002,-0.850131375,-0.9670041,0.08390310000000001,0.19760875,-0.33799815,33.8907423,-27.196272224999998,-23.349511024999998,-85.56714050000001,-1.5169031249999998,-0.9826895370000001,0.27697359,-0.18227719450000002,0.2837509505,0.059908246750000005
09:49:04,-1.41969688,-0.8454624000000001,-0.96989764,0.08341304,0.1994518,-0.33572895999999997,33.89240772,-27.200586039999997,-23.333136359999997,-85.6167452,-1.51351712,-0.9781970728,0.273527906,-0.18070342080000001,0.2851523232,0.06129201720000001
09:49:04,-1.40902256,-0.840793425,-0.97279118,0.08292298000000001,0.20129485,-0.33345977,33.894073139999996,-27.204899854999997,-23.316761695,-85.6663499,-1.5101311149999999,-0.9737046086000001,0.270082222,-0.1791296471,0.2865536959,0.06267578765000001
09:49:04,-1.39834824,-0.83612445,-0.97568472,0.08243291999999999,0.2031379,-0.33119057999999996,33.89573856,-27.209213669999997,-23.30038703,-85.7159546,-1.50674511,-0.9692121444,0.266636538,-0.1775558734,0.2879550686,0.0640595581
09:49:04,-1.3876739200000001,-0.831455475,-0.97857826,0.08194286,0.20498095,-0.32892139,33.89740398,-27.213527485,-23.284012365,-85.7655593,-1.503359105,-0.9647196802000001,0.263190854,-0.1759820997,0.2893564413,0.06544332855
09:49:04,-1.3769996,-0.8267865000000001,-0.9814718,0.0814528,0.206824,-0.32665219999999995,33.8990694,-27.2178413,-23.267637699999998,-85.815164,-1.4999730999999998,-0.960227216,0.25974516999999997,-0.174408326,0.290757814,0.066827099
09:49:04,-1.36632528,-0.822117525,-0.98436534,0.08096274,0.20866705,-0.32438300999999997,33.90073482,-27.222155115,-23.251263034999997,-85.8647687,-1.496587095,-0.9557347518000001,0.256299486,-0.1728345523,0.2921591867,0.06821086945
09:49:04,-1.35565096,-0.81744855,-0.98725888,0.08047268,0.2105101,-0.32211382,33.90240024,-27.22646893,-23.23488837,-85.9143734,-1.49320109,-0.9512422876000001,0.252853802,-0.1712607786,0.2935605594,0.0695946399
09:49:04,-1.34497664,-0.812779575,-0.99015242,0.07998262,0.21235315,-0.31984462999999996,33.90406566,-27.230782745,-23.218513705,-85.9639781,-1.4898150849999998,-0.9467498234,0.249408118,-0.1696870049,0.2949619321,0.07097841035
09:49:04,-1.33430232,-0.8081106,-0.99304596,0.07949256,0.2141962,-0.31757544,33.90573108,-27.23509656,-23.20213904,-86.0135828,-1.48642908,-0.9422573592000001,0.245962434,-0.1681132312,0.2963633048,0.07236218080000001
09:49:04,-1.323628,-0.803441625,-0.9959395,0.0790025,0.21603925000000002,-0.31530625,33.9073965,-27.239410375,-23.185764374999998,-86.0631875,-1.4830430749999999,-0.937764895,0.24251675,-0.1665394575,0.2977646775,0.07374595125
09:49:04,-1.3129536800000001,-0.7987726500000001,-0.99883304,0.07851244,0.2178823,-0.31303706,33.90906192,-27.24372419,-23.169389709999997,-86.1127922,-1.47965707,-0.9332724308,0.239071066,-0.1649656838,0.2991660502,0.07512972170000001
09:49:04,-1.30227936,-0.794103675,-1.00172658,0.07802238,0.21972534999999999,-0.31076787,33.91072734,-27.248038004999998,-23.153015045,-86.1623969,-1.476271065,-0.9287799666000001,0.235625382,-0.1633919101,0.3005674229,0.07651349215
09:49:04,-1.29160504,-0.7894347,-1.00462012,0.07753232,0.2215684,-0.30849867999999997,33.912392759999996,-27.252351819999998,-23.13664038,-86.21200160000001,-1.4728850599999999,-0.9242875024000001,0.232179698,-0.1618181364,0.3019687956,0.0778972626
09:49:04,-1.28093072,-0.784765725,-1.00751366,0.07704226,0.22341145,-0.30622949,33.91405818,-27.256665634999997,-23.120265715,-86.2616063,-1.469499055,-0.9197950382000001,0.22873401399999999,-0.1602443627,0.3033701683,0.07928103305
09:49:04,-1.2702564,-0.78009675,-1.0104072,0.0765522,0.2252545,-0.30396029999999996,33.9157236,-27.260979449999997,-23.103891049999998,-86.311211,-1.46611305,-0.915302574,0.22528832999999998,-0.158670589,0.304771541,0.0806648035
09:49:04,-1.25958208,-0.775427775,-1.01330074,0.07606214,0.22709755,-0.30169111,33.91738902,-27.265293264999997,-23.087516385,-86.3608157,-1.4627270449999998,-0.9108101098000001,0.221842646,-0.1570968153,0.3061729137,0.08204857395000001
09:49:04,-1.24890776,-0.7707588000000001,-1.01619428,0.07557208,0.2289406,-0.29942192,33.91905444,-27.26960708,-23.07114172,-86.4104204,-1.45934104,-0.9063176456,0.218396962,-0.1555230416,0.3075742864,0.0834323444
09:49:04,-1.2382334400000001,-0.766089825,-1.01908782,0.07508202,0.23078365,-0.29715273,33.92071986,-27.273920895,-23.054767055,-86.4600251,-1.455955035,-0.9018251814,0.214951278,-0.1539492679,0.3089756591,0.08481611485000001
09:49:04,-1.22755912,-0.76142085,-1.02198136,0.07459196,0.23262670000000002,-0.29488354,33.92238528,-27.27823471,-23.03839239,-86.5096298,-1.4525690299999998,-0.8973327172000001,0.21150559400000002,-0.15237549420000002,0.3103770318,0.0861998853
09:49:04,-1.2168848,-0.756751875,-1.0248749,0.0741019,0.23446975,-0.29261434999999997,33.9240507,-27.282548525,-23.022017724999998,-86.5592345,-1.449183025,-0.892840253,0.20805991000000001,-0.1508017205,0.3117784045,0.08758365575
09:49:04,-1.20621048,-0.7520829,-1.02776844,0.07361184,0.2363128,-0.29034516,33.92571612,-27.28686234,-23.00564306,-86.6088392,-1.4457970199999999,-0.8883477888,0.204614226,-0.1492279468,0.3131797772,0.0889674262
09:49:04,-1.19553616,-0.747413925,-1.03066198,0.07312178,0.23815585,-0.28807596999999996,33.92738154,-27.291176155,-22.989268395,-86.6584439,-1.4424110149999998,-0.8838553246,0.201168542,-0.1476541731,0.3145811499,0.09035119665
09:49:04,-1.18486184,-0.7427449500000001,-1.03355552,0.07263172,0.23999890000000001,-0.28580678,33.92904696,-27.29548997,-22.97289373,-86.7080486,-1.43902501,-0.8793628604000001,0.197722858,-0.1460803994,0.3159825226,0.09173496710000001
09:49:04,-1.17418752,-0.738075975,-1.03644906,0.07214166,0.24184195,-0.28353759,33.930712379999996,-27.299803784999998,-22.956519065,-86.7576533,-1.4356390049999999,-0.8748703962000001,0.194277174,-0.1445066257,0.3173838953,0.09311873755
09:49:04,-1.1635132000000001,-0.733407,-1.0393426,0.0716516,0.24368499999999998,-0.2812684,33.9323778,-27.304117599999998,-22.940144399999998,-86.807258,-1.432253,-0.870377932,0.19083149,-0.142932852,0.318785268,0.09450250800000001
09:49:04,-1.15283888,-0.728738025,-1.04223614,0.07116154,0.24552805,-0.27899921,33.93404322,-27.308431414999998,-22.923769735,-86.85686270000001,-1.428866995,-0.8658854678000001,0.187385806,-0.1413590783,0.3201866407,0.09588627845
09:49:04,-1.1421645599999999,-0.72406905,-1.04512968,0.07067148,0.2473711,-0.27673001999999997,33.93570864,-27.312745229999997,-22.90739507,-86.9064674,-1.4254809899999998,-0.8613930036,0.183940122,-0.1397853046,0.3215880134,0.0972700489
09:49:04,-1.13149024,-0.719400075,-1.04802322,0.07018142,0.24921415,-0.27446083,33.937374059999996,-27.317059044999997,-22.891020405,-86.9560721,-1.422094985,-0.8569005394,0.180494438,-0.1382115309,0.3229893861,0.09865381935
09:49:04,-1.12081592,-0.7147311000000001,-1.05091676,0.06969136000000001,0.2510572,-0.27219163999999996,33.93903948,-27.32137286,-22.87464574,-87.0056768,-1.41870898,-0.8524080752000001,0.177048754,-0.1366377572,0.3243907588,0.1000375898
09:49:04,-1.1101416,-0.710062125,-1.0538102999999999,0.0692013,0.25290025,-0.26992245,33.9407049,-27.325686675,-22.858271074999998,-87.0552815,-1.4153229749999998,-0.847915611,0.17360307,-0.13506398349999998,0.32579213149999997,0.10142136025000001
09:49:04,-1.09946728,-0.70539315,-1.05670384,0.06871124,0.2547433,-0.26765326,33.94237032,-27.33000049,-22.84189641,-87.1048862,-1.41193697,-0.8434231468000001,0.170157386,-0.13349020979999998,0.3271935042,0.10280513070000001
09:49:04,-1.0887929600000001,-0.700724175,-1.05959738,0.06822117999999999,0.25658635,-0.26538406999999997,33.94403574,-27.334314305,-22.825521745,-87.1544909,-1.4085509649999999,-0.8389306826,0.166711702,-0.1319164361,0.3285948769,0.10418890115
09:49:04,-1.07811864,-0.6960552,-1.06249092,0.06773112,0.25842940000000003,-0.26311488,33.94570116,-27.33862812,-22.80914708,-87.2040956,-1.40516496,-0.8344382184000001,0.163266018,-0.1303426624,0.3299962496,0.1055726716
09:49:04,-1.06744432,-0.691386225,-1.06538446,0.06724105999999999,0.26027245,-0.26084568999999996,33.94736658,-27.342941935,-22.792772414999998,-87.2537003,-1.401778955,-0.8299457542,0.159820334,-0.1287688887,0.3313976223,0.10695644205
09:49:04,-1.05677,-0.6867172500000001,-1.068278,0.066751,0.2621155,-0.2585765,33.949032,-27.34725575,-22.77639775,-87.303305,-1.3983929499999999,-0.82545329,0.15637465,-0.127195115,0.332798995,0.1083402125
09:49:04,-1.04609568,-0.682048275,-1.07117154,0.06626093999999999,0.26395855,-0.25630730999999995,33.95069742,-27.351569565,-22.760023085,-87.3529097,-1.395006945,-0.8209608258000001,0.152928966,-0.1256213413,0.3342003677,0.10972398295
09:49:04,-1.03542136,-0.6773793,-1.07406508,0.06577088,0.26580159999999997,-0.25403812,33.95236284,-27.355883379999998,-22.74364842,-87.4025144,-1.39162094,-0.8164683616,0.149483282,-0.1240475676,0.3356017404,0.11110775340000001
09:49:04,-1.02474704,-0.6727103249999999,-1.07695862,0.06528082,0.26764465,-0.25176893,33.95402826,-27.360197194999998,-22.727273755,-87.4521191,-1.3882349349999998,-0.8119758974,0.146037598,-0.1224737939,0.3370031131,0.11249152385000001
09:49:04,-1.0140727200000001,-0.66804135,-1.07985216,0.06479076,0.2694877,-0.24949973999999997,33.955693679999996,-27.364511009999998,-22.710899089999998,-87.50172380000001,-1.38484893,-0.8074834332,0.142591914,-0.1209000202,0.3384044858,0.1138752943
09:49:04,-1.0033984,-0.663372375,-1.0827457,0.0643007,0.27133075,-0.24723055,33.9573591,-27.368824824999997,-22.694524425,-87.5513285,-1.381462925,-0.802990969,0.13914623,-0.1193262465,0.3398058585,0.11525906475
09:49:04,-0.99272408,-0.6587034,-1.08563924,0.06381064,0.2731738,-0.24496136,33.95902452,-27.373138639999997,-22.67814976,-87.6009332,-1.3780769199999998,-0.7984985048000001,0.135700546,-0.1177524728,0.3412072312,0.1166428352
09:49:04,-0.98204976,-0.6540344250000001,-1.08853278,0.06332058,0.27501685,-0.24269216999999998,33.96068994,-27.377452455,-22.661775095,-87.6505379,-1.374690915,-0.7940060406,0.132254862,-0.1161786991,0.34260860390000003,0.11802660565
09:49:04,-0.97137544,-0.64936545,-1.09142632,0.06283052,0.2768599,-0.24042297999999998,33.96235536,-27.38176627,-22.64540043,-87.7001426,-1.3713049099999999,-0.7895135764000001,0.128809178,-0.1146049254,0.3440099766,0.1194103761
09:49:04,-0.96070112,-0.6446964749999999,-1.09431986,0.06234046,0.27870295,-0.23815378999999998,33.96402078,-27.386080085,-22.629025764999998,-87.7497473,-1.3679189049999998,-0.7850211122,0.125363494,-0.1130311517,0.3454113493,0.12079414655000001
09:49:04,-0.9500268000000001,-0.6400275,-1.0972134,0.0618504,0.280546,-0.23588459999999997,33.9656862,-27.3903939,-22.6126511,-87.799352,-1.3645329,-0.780528648,0.12191780999999999,-0.111457378,0.346812722,0.12217791700000001
09:49:04,-0.93935248,-0.635358525,-1.1001069399999999,0.06136034,0.28238905000000003,-0.23361541,33.96735162,-27.394707715,-22.596276435,-87.8489567,-1.3611468949999999,-0.7760361838000001,0.11847212600000001,-0.10988360429999999,0.3482140947,0.12356168745
09:49:04,-0.92867816,-0.63068955,-1.10300048,0.06087028,0.2842321,-0.23134622,33.96901704,-27.39902153,-22.57990177,-87.8985614,-1.35776089,-0.7715437196,0.115026442,-0.1083098306,0.3496154674,0.1249454579
09:49:04,-0.91800384,-0.6260205750000001,-1.10589402,0.06038022,0.28607515,-0.22907703,33.97068246,-27.403335345,-22.563527105,-87.94816610000001,-1.354374885,-0.7670512554,0.111580758,-0.1067360569,0.3510168401,0.12632922835
09:49:04,-0.90732952,-0.6213516,-1.10878756,0.05989016,0.2879182,-0.22680783999999998,33.97234788,-27.40764916,-22.547152439999998,-87.9977708,-1.3509888799999998,-0.7625587912,0.108135074,-0.1051622832,0.3524182128,0.1277129988
09:49:04,-0.8966552,-0.6166826249999999,-1.1116811,0.0594001,0.28976124999999997,-0.22453864999999998,33.974013299999996,-27.411962974999998,-22.530777775,-88.0473755,-1.347602875,-0.7580663270000001,0.10468939,-0.1035885095,0.35381958550000003,0.12909676925000002
09:49:04,-0.88598088,-0.61201365,-1.11457464,0.05891004,0.2916043,-0.22226945999999997,33.97567872,-27.416276789999998,-22.51440311,-88.0969802,-1.34421687,-0.7535738628,0.10124370599999999,-0.10201473579999999,0.3552209582,0.1304805397
09:49:04,-0.87530656,-0.607344675,-1.11746818,0.058419979999999996,0.29344735,-0.22000026999999997,33.97734414,-27.420590604999997,-22.498028445,-88.14658490000001,-1.340830865,-0.7490813986,0.09779802199999998,-0.1004409621,0.3566223309,0.13186431015
09:49:04,-0.8646322399999999,-0.6026757,-1.12036172,0.057929919999999996,0.2952904,-0.21773108,33.97900956,-27.424904419999997,-22.48165378,-88.1961896,-1.33744486,-0.7445889344000001,0.09435233800000001,-0.0988671884,0.3580237036,0.13324808059999999
09:49:04,-0.85395792,-0.5980067250000001,-1.12325526,0.057439859999999995,0.29713345,-0.21546189,33.980674979999996,-27.429218235,-22.465279115,-88.2457943,-1.3340588549999999,-0.7400964702,0.090906654,-0.0972934147,0.3594250763,0.13463185105
09:49:04,-0.8432836,-0.59333775,-1.1261488,0.056949799999999995,0.2989765,-0.21319269999999998,33.9823404,-27.43353205,-22.44890445,-88.295399,-1.33067285,-0.735604006,0.08746097,-0.095719641,0.360826449,0.13601562150000002
09:49:04,-0.83260928,-0.5886687749999999,-1.12904234,0.056459739999999994,0.30081955,-0.21092350999999998,33.98400582,-27.437845865,-22.432529785,-88.3450037,-1.327286845,-0.7311115418,0.084015286,-0.09414586729999999,0.3622278217,0.13739939195
09:49:04,-0.82193496,-0.5839998,-1.13193588,0.055969679999999994,0.3026626,-0.20865431999999998,33.98567124,-27.44215968,-22.41615512,-88.3946084,-1.3239008399999999,-0.7266190776,0.08056960199999999,-0.0925720936,0.3636291944,0.1387831624
09:49:04,-0.81126064,-0.579330825,-1.13482942,0.05547962,0.30450564999999996,-0.20638512999999997,33.98733666,-27.446473495,-22.399780455,-88.4442131,-1.320514835,-0.7221266134,0.07712391800000001,-0.0909983199,0.36503056710000004,0.14016693285
09:49:04,-0.80058632,-0.57466185,-1.13772296,0.05498956,0.30634870000000003,-0.20411594,33.98900208,-27.45078731,-22.38340579,-88.4938178,-1.31712883,-0.7176341492,0.07367823400000001,-0.0894245462,0.3664319398,0.14155070330000002
09:49:04,-0.789912,-0.5699928750000001,-1.1406165,0.0544995,0.30819175,-0.20184675,33.9906675,-27.455101125,-22.367031125,-88.5434225,-1.3137428249999998,-0.7131416850000001,0.07023255,-0.0878507725,0.3678333125,0.14293447375
09:49:04,-0.77923768,-0.5653239,-1.14351004,0.05400944,0.3100348,-0.19957756,33.992332919999996,-27.45941494,-22.35065646,-88.59302720000001,-1.31035682,-0.7086492208,0.066786866,-0.08627699879999999,0.3692346852,0.1443182442
09:49:04,-0.76856336,-0.5606549249999999,-1.1464035799999999,0.05351938,0.31187785,-0.19730836999999998,33.99399834,-27.463728754999998,-22.334281795,-88.6426319,-1.306970815,-0.7041567566,0.063341182,-0.0847032251,0.3706360579,0.14570201465
09:49:04,-0.75788904,-0.55598595,-1.14929712,0.05302932,0.31372089999999997,-0.19503917999999998,33.99566376,-27.468042569999998,-22.31790713,-88.6922366,-1.3035848099999998,-0.6996642924,0.05989549799999999,-0.0831294514,0.3720374306,0.1470857851
09:49:04,-0.74721472,-0.551316975,-1.15219066,0.05253926,0.31556395000000004,-0.19276998999999997,33.99732918,-27.472356384999998,-22.301532465,-88.7418413,-1.300198805,-0.6951718282,0.05644981399999999,-0.0815556777,0.3734388033,0.14846955555000002
09:49:04,-0.7365404,-0.546648,-1.1550842,0.0520492,0.317407,-0.19050079999999997,33.998994599999996,-27.476670199999997,-22.2851578,-88.79144600000001,-1.2968127999999999,-0.690679364,0.05300412999999998,-0.07998190399999999,0.374840176,0.149853326
09:49:04,-0.72586608,-0.5419790250000001,-1.15797774,0.051559139999999996,0.31925005,-0.18823161,34.00066002,-27.480984014999997,-22.268783135,-88.8410507,-1.2934267949999998,-0.6861868998,0.04955844599999998,-0.07840813029999999,0.37624154870000004,0.15123709645
09:49:04,-0.71519176,-0.53731005,-1.16087128,0.051069079999999996,0.3210931,-0.18596242,34.00232544,-27.48529783,-22.25240847,-88.8906554,-1.29004079,-0.6816944356000001,0.046112761999999974,-0.07683435659999999,0.3776429214,0.15262086689999999
09:49:04,-0.7045174399999999,-0.532641075,-1.16376482,0.050579019999999995,0.32293615,-0.18369322999999999,34.00399086,-27.489611645,-22.236033804999998,-88.9402601,-1.2866547849999999,-0.6772019713999999,0.04266707799999997,-0.07526058289999998,0.3790442941,0.15400463735
09:49:04,-0.6938431199999999,-0.5279720999999999,-1.16665836,0.050088959999999995,0.3247792,-0.18142403999999998,34.00565628,-27.49392546,-22.21965914,-88.9898648,-1.28326878,-0.6727095072,0.03922139400000002,-0.07368680920000001,0.3804456668,0.15538840780000002
09:49:04,-0.6831688,-0.523303125,-1.1695519,0.049598899999999994,0.32662225,-0.17915484999999998,34.0073217,-27.498239275,-22.203284475,-89.0394695,-1.279882775,-0.6682170430000001,0.035775710000000016,-0.0721130355,0.3818470395,0.15677217825
09:49:04,-0.67249448,-0.51863415,-1.17244544,0.049108839999999994,0.32846529999999996,-0.17688565999999997,34.00898712,-27.50255309,-22.18690981,-89.0890742,-1.27649677,-0.6637245788,0.03233002600000001,-0.0705392618,0.3832484122,0.1581559487
09:49:04,-0.66182016,-0.513965175,-1.17533898,0.04861877999999999,0.33030835000000003,-0.17461647,34.01065254,-27.506866905,-22.170535145,-89.1386789,-1.273110765,-0.6592321146,0.028884342000000007,-0.0689654881,0.3846497849,0.15953971915
09:49:04,-0.65114584,-0.5092962,-1.17823252,0.04812872,0.3321514,-0.17234728,34.01231796,-27.51118072,-22.15416048,-89.1882836,-1.26972476,-0.6547396504,0.025438658000000003,-0.0673917144,0.38605115760000003,0.16092348960000002
09:49:04,-0.64047152,-0.504627225,-1.18112606,0.04763866,0.33399445,-0.17007809,34.01398338,-27.515494535,-22.137785815,-89.23788830000001,-1.266338755,-0.6502471862,0.021992974,-0.0658179407,0.38745253030000004,0.16230726005
09:49:04,-0.6297972,-0.49995825,-1.1840196,0.0471486,0.3358375,-0.16780889999999998,34.0156488,-27.519808349999998,-22.12141115,-89.287493,-1.26295275,-0.645754722,0.018547289999999994,-0.06424416699999999,0.388853903,0.1636910305
09:49:04,-0.6191228799999999,-0.495289275,-1.18691314,0.04665854,0.33768054999999997,-0.16553970999999998,34.017314219999996,-27.524122164999998,-22.105036485,-89.3370977,-1.2595667449999999,-0.6412622578,0.01510160599999999,-0.06267039329999999,0.3902552757,0.16507480095
09:49:04,-0.60844856,-0.4906203,-1.18980668,0.04616848,0.33952360000000004,-0.16327051999999997,34.01897964,-27.528435979999998,-22.08866182,-89.3867024,-1.25618074,-0.6367697936000001,0.011655921999999985,-0.061096619599999985,0.39165664840000003,0.16645857140000003
09:49:04,-0.59777424,-0.485951325,-1.1927002199999999,0.04567842,0.34136665,-0.16100133,34.02064506,-27.532749794999997,-22.072287154999998,-89.43630710000001,-1.252794735,-0.6322773294,0.00821023799999998,-0.05952284589999998,0.3930580211,0.16784234185000002
09:49:04,-0.58709992,-0.48128234999999997,-1.19559376,0.04518836,0.3432097,-0.15873214,34.02231048,-27.53706361,-22.05591249,-89.4859118,-1.2494087299999999,-0.6277848652,0.004764553999999976,-0.05794907220000001,0.3944593938,0.1692261123
09:49:04,-0.5764255999999999,-0.476613375,-1.1984873,0.044698299999999996,0.34505275,-0.15646295,34.023975899999996,-27.541377425,-22.039537825,-89.5355165,-1.246022725,-0.623292401,0.001318869999999972,-0.056375298500000004,0.3958607665,0.17060988275
09:49:04,-0.56575128,-0.4719444,-1.20138084,0.044208239999999996,0.3468958,-0.15419375999999999,34.02564132,-27.54569124,-22.02316316,-89.5851212,-1.24263672,-0.6187999368,-0.002126813999999977,-0.0548015248,0.3972621392,0.17199365319999999
09:49:04,-0.5550769600000001,-0.46727542499999997,-1.20427438,0.043718179999999995,0.34873885,-0.15192456999999998,34.02730674,-27.550005055,-22.006788495,-89.6347259,-1.2392507149999998,-0.6143074726,-0.005572497999999981,-0.0532277511,0.39866351190000004,0.17337742365000003
09:49:04,-0.5444026399999999,-0.46260645,-1.2071679199999998,0.043228119999999995,0.3505819,-0.14965537999999998,34.02897216,-27.55431887,-21.99041383,-89.6843306,-1.23586471,-0.6098150084,-0.009018181999999986,-0.051653977399999995,0.4000648846,0.17476119410000002
09:49:04,-0.53372832,-0.457937475,-1.21006146,0.042738059999999994,0.35242494999999996,-0.14738618999999997,34.03063758,-27.558632685,-21.974039165,-89.7339353,-1.232478705,-0.6053225442,-0.01246386599999999,-0.05008020369999999,0.4014662573,0.17614496455
09:49:04,-0.5230539999999999,-0.45326849999999996,-1.212955,0.042247999999999994,0.354268,-0.145117,34.032303,-27.5629465,-21.9576645,-89.78354,-1.2290926999999998,-0.6008300799999999,-0.015909549999999995,-0.04850642999999999,0.40286763000000003,0.177528735
09:49:04,-0.51237968,-0.448599525,-1.21584854,0.04175793999999999,0.35611105,-0.14284781,34.03396842,-27.567260315,-21.941289835,-89.8331447,-1.225706695,-0.5963376158,-0.019355234,-0.046932656299999986,0.4042690027,0.17891250544999998
09:49:04,-0.5017053599999999,-0.44393055,-1.21874208,0.04126787999999999,0.3579541,-0.14057862,34.035633839999996,-27.57157413,-21.92491517,-89.88274940000001,-1.2223206899999999,-0.5918451516000001,-0.022800918000000003,-0.04535888259999998,0.4056703754,0.18029627590000002
09:49:04,-0.49103104,-0.43926157499999996,-1.22163562,0.04077781999999999,0.35979715,-0.13830942999999998,34.03729926,-27.575887944999998,-21.908540505,-89.9323541,-1.2189346849999998,-0.5873526874,-0.026246602000000008,-0.04378510889999998,0.4070717481,0.18168004635
09:49:04,-0.48035671999999985,-0.4345926,-1.22452916,0.04028775999999999,0.36164019999999997,-0.13604023999999998,34.03896468,-27.580201759999998,-21.89216584,-89.9819588,-1.21554868,-0.5828602232,-0.029692286000000012,-0.042211335200000005,0.4084731208,0.1830638168
09:49:04,-0.46968239999999994,-0.429923625,-1.2274227,0.0397977,0.36348325000000004,-0.13377104999999997,34.0406301,-27.584515574999998,-21.875791175,-90.0315635,-1.2121626749999999,-0.578367759,-0.03313797000000002,-0.0406375615,0.40987449350000005,0.18444758725
09:49:04,-0.45900808000000004,-0.42525464999999996,-1.23031624,0.03930764,0.3653263,-0.13150186,34.042295519999996,-27.588829389999997,-21.85941651,-90.08116820000001,-1.20877667,-0.5738752948,-0.03658365400000002,-0.0390637878,0.4112758662,0.18583135770000003
09:49:04,-0.4483337599999999,-0.420585675,-1.23320978,0.03881758,0.36716935,-0.12923267,34.04396094,-27.593143205,-21.843041845,-90.1307729,-1.205390665,-0.5693828306,-0.040029338000000025,-0.037490014099999996,0.4126772389,0.18721512815000002
09:49:04,-0.43765944,-0.41591670000000003,-1.23610332,0.03832752,0.3690124,-0.12696348,34.04562636,-27.59745702,-21.82666718,-90.1803776,-1.20200466,-0.5648903664,-0.04347502200000003,-0.035916240399999994,0.41407861160000003,0.1885988986
09:49:04,-0.4269851199999999,-0.41124772499999995,-1.2389968599999999,0.037837459999999996,0.37085545,-0.12469428999999999,34.04729178,-27.601770835,-21.810292515,-90.2299823,-1.198618655,-0.5603979022000001,-0.04692070599999998,-0.03434246669999999,0.4154799843,0.18998266905
09:49:04,-0.4163108,-0.40657875,-1.2418904,0.037347399999999996,0.3726985,-0.12242509999999998,34.0489572,-27.60608465,-21.79391785,-90.279587,-1.19523265,-0.5559054379999999,-0.05036638999999998,-0.03276869299999999,0.416881357,0.19136643949999999
09:49:04,-0.40563647999999985,-0.401909775,-1.24478394,0.036857339999999995,0.37454155,-0.12015590999999998,34.05062262,-27.610398465,-21.777543185,-90.3291917,-1.191846645,-0.5514129738,-0.05381207399999999,-0.031194919299999985,0.4182827297,0.19275020995000003
09:49:04,-0.39496215999999995,-0.39724079999999995,-1.24767748,0.036367279999999995,0.37638459999999996,-0.11788672,34.05228804,-27.61471228,-21.76116852,-90.3787964,-1.18846064,-0.5469205096,-0.05725775799999999,-0.029621145599999982,0.4196841024,0.19413398040000002
09:49:04,-0.38428784000000005,-0.392571825,-1.25057102,0.035877219999999994,0.37822765,-0.11561752999999997,34.053953459999995,-27.619026095,-21.744793855,-90.4284011,-1.1850746349999999,-0.5424280454,-0.060703441999999996,-0.02804737189999998,0.42108547510000005,0.19551775085
09:49:04,-0.3736135199999999,-0.38790285,-1.2534645599999998,0.035387159999999994,0.3800707,-0.11334833999999999,34.05561888,-27.62333991,-21.72841919,-90.4780058,-1.18168863,-0.5379355812,-0.064149126,-0.026473598200000004,0.4224868478,0.1969015213
09:49:04,-0.3629392,-0.38323387499999995,-1.2563581,0.03489709999999999,0.38191375,-0.11107914999999996,34.0572843,-27.627653725,-21.712044525,-90.52761050000001,-1.178302625,-0.533443117,-0.06759481,-0.0248998245,0.4238882205,0.19828529174999998
09:49:04,-0.3522648799999999,-0.3785649,-1.25925164,0.03440703999999999,0.3837568,-0.10880995999999998,34.05894972,-27.631967539999998,-21.69566986,-90.5772152,-1.1749166199999999,-0.5289506528,-0.07104049400000001,-0.023326050799999998,0.42528959320000004,0.19966906220000002
09:49:04,-0.34159056,-0.373895925,-1.26214518,0.03391697999999999,0.38559984999999997,-0.10654077,34.060615139999996,-27.636281354999998,-21.679295195,-90.6268199,-1.171530615,-0.5244581886,-0.07448617800000001,-0.021752277099999995,0.4266909659,0.20105283265
09:49:04,-0.33091623999999986,-0.36922694999999994,-1.26503872,0.03342691999999999,0.38744290000000003,-0.10427157999999997,34.06228056,-27.640595169999997,-21.66292053,-90.6764246,-1.16814461,-0.5199657244,-0.07793186200000002,-0.020178503399999992,0.4280923386,0.2024366031
09:49:04,-0.32024191999999996,-0.364557975,-1.26793226,0.03293685999999999,0.38928595,-0.10200239,34.06394598,-27.644908985,-21.646545865,-90.72602930000001,-1.1647586049999998,-0.5154732602,-0.08137754600000002,-0.01860472969999999,0.4294937113,0.20382037355
09:49:04,-0.30956760000000005,-0.359889,-1.2708258,0.0324468,0.391129,-0.09973319999999997,34.0656114,-27.6492228,-21.6301712,-90.775634,-1.1613726,-0.510980796,-0.08482323000000003,-0.017030955999999986,0.430895084,0.20520414400000003
09:49:04,-0.29889327999999993,-0.35522002499999994,-1.27371934,0.03195674,0.39297205,-0.09746400999999999,34.06727682,-27.653536615,-21.613796535,-90.8252387,-1.157986595,-0.5064883318,-0.08826891400000003,-0.015457182299999983,0.43229645670000005,0.20658791445000002
09:49:04,-0.28821896,-0.35055105,-1.27661288,0.03146668,0.3948151,-0.09519482000000001,34.06894224,-27.65785043,-21.59742187,-90.8748434,-1.1546005899999998,-0.5019958676,-0.09171459799999998,-0.01388340859999998,0.4336978294,0.2079716849
09:49:04,-0.2775446399999999,-0.345882075,-1.27950642,0.030976619999999996,0.39665815,-0.09292562999999998,34.07060766,-27.662164245,-21.581047205,-90.9244481,-1.151214585,-0.4975034034,-0.09516028199999998,-0.012309634899999977,0.4350992021,0.20935545535
09:49:04,-0.26687032,-0.34121309999999994,-1.28239996,0.030486559999999996,0.3985012,-0.09065644,34.07227308,-27.66647806,-21.56467254,-90.97405280000001,-1.1478285799999999,-0.49301093919999994,-0.09860596599999999,-0.010735861200000002,0.43650057480000004,0.21073922579999999
09:49:04,-0.25619599999999987,-0.33654412499999997,-1.2852934999999999,0.029996499999999995,0.40034424999999996,-0.08838724999999997,34.0739385,-27.670791875,-21.548297875,-91.0236575,-1.144442575,-0.488518475,-0.10205165,-0.009162087499999999,0.4379019475,0.21212299625000003
09:49:04,-0.24552167999999996,-0.33187515,-1.28818704,0.029506439999999995,0.4021873,-0.08611806,34.07560392,-27.67510569,-21.531923210000002,-91.0732622,-1.14105657,-0.48402601079999996,-0.105497334,-0.007588313799999996,0.4393033202,0.21350676670000002
09:49:04,-0.23484735999999984,-0.32720617499999993,-1.29108058,0.029016379999999994,0.40403035,-0.08384886999999996,34.07726934,-27.679419505,-21.515548545,-91.1228669,-1.137670565,-0.4795335466,-0.108943018,-0.006014540099999993,0.44070469290000003,0.21489053715
09:49:04,-0.22417303999999993,-0.32253719999999997,-1.29397412,0.028526319999999994,0.4058734,-0.08157967999999999,34.078934759999996,-27.683733319999998,-21.49917388,-91.17247160000001,-1.13428456,-0.4750410824,-0.11238870200000001,-0.00444076639999999,0.4421060656,0.2162743076
09:49:04,-0.21349872000000003,-0.317868225,-1.29686766,0.028036259999999993,0.40771645,-0.07931049000000001,34.08060018,-27.688047134999998,-21.482799215,-91.2220763,-1.130898555,-0.47054861819999994,-0.11583438600000001,-0.0028669926999999873,0.4435074383,0.21765807804999998
09:49:04,-0.2028243999999999,-0.31319924999999993,-1.2997611999999998,0.027546199999999993,0.40955949999999997,-0.07704129999999998,34.0822656,-27.692360949999998,-21.46642455,-91.271681,-1.12751255,-0.466056154,-0.11928007000000002,-0.0012932189999999844,0.444908811,0.21904184850000002
09:49:04,-0.19215008,-0.30853027499999996,-1.30265474,0.027056139999999992,0.41140255000000003,-0.07477211,34.08393102,-27.696674764999997,-21.450049885,-91.3212857,-1.124126545,-0.46156368979999995,-0.12272575400000002,0.0002805547000000186,0.4463101837,0.22042561895
09:49:04,-0.18147575999999987,-0.3038613,-1.30554828,0.026566079999999992,0.4132456,-0.07250291999999997,34.085596439999996,-27.70098858,-21.43367522,-91.37089040000001,-1.12074054,-0.4570712256,-0.12617143800000002,0.0018543284000000215,0.44771155640000004,0.2218093894
09:49:04,-0.17080143999999997,-0.2991923249999999,-1.3084418199999999,0.02607601999999999,0.41508865,-0.07023373,34.08726186,-27.705302395,-21.417300555,-91.4204951,-1.117354535,-0.4525787614,-0.12961712200000003,0.0034281020999999967,0.4491129291,0.22319315985
09:49:04,-0.16012711999999985,-0.29452334999999996,-1.31133536,0.02558595999999999,0.4169317,-0.06796453999999996,34.08892728,-27.70961621,-21.40092589,-91.4700998,-1.11396853,-0.44808629719999993,-0.13306280600000003,0.0050018758,0.4505143018,0.22457693030000003
09:49:04,-0.14945279999999994,-0.289854375,-1.3142288999999998,0.02509589999999999,0.41877475,-0.06569534999999999,34.0905927,-27.713930025,-21.384551225,-91.5197045,-1.1105825249999999,-0.443593833,-0.13650848999999998,0.006575649500000003,0.45191567450000003,0.22596070075000002
09:49:04,-0.13877847999999982,-0.2851853999999999,-1.31712244,0.02460583999999999,0.42061780000000004,-0.06342616000000001,34.09225812,-27.71824384,-21.368176560000002,-91.5693092,-1.10719652,-0.43910136879999995,-0.139954174,0.008149423200000006,0.4533170472,0.2273444712
09:49:04,-0.1281041599999999,-0.28051642499999996,-1.32001598,0.02411577999999999,0.42246085,-0.06115696999999998,34.09392354,-27.722557655,-21.351801895,-91.6189139,-1.103810515,-0.4346089046,-0.143399858,0.009723196900000008,0.4547184199,0.22872824165
09:49:04,-0.11742984000000001,-0.27584745,-1.32290952,0.02362571999999999,0.42430389999999996,-0.05888778,34.09558896,-27.72687147,-21.33542723,-91.6685186,-1.1004245099999999,-0.43011644039999997,-0.146845542,0.011296970600000011,0.4561197926,0.23011201209999999
09:49:04,-0.10675551999999988,-0.2711784749999999,-1.32580306,0.02313565999999999,0.42614695,-0.05661858999999997,34.097254379999995,-27.731185285,-21.319052565,-91.7181233,-1.097038505,-0.4256239761999999,-0.150291226,0.012870744300000014,0.4575211653,0.23149578255000003
09:49:04,-0.09608119999999998,-0.26650949999999995,-1.3286966,0.022645599999999988,0.42799,-0.05434939999999999,34.0989198,-27.7354991,-21.3026779,-91.767728,-1.0936525,-0.421131512,-0.15373691,0.014444518000000017,0.45892253800000005,0.23287955300000002
09:49:04,-0.08540687999999985,-0.261840525,-1.3315901399999999,0.022155539999999987,0.42983305000000005,-0.052080210000000016,34.10058522,-27.739812914999998,-21.286303235000002,-91.81733270000001,-1.0902664949999998,-0.41663904779999994,-0.157182594,0.01601829170000002,0.4603239107,0.23426332345
09:49:04,-0.07473255999999995,-0.2571715499999999,-1.33448368,0.021665479999999987,0.4316761,-0.049811019999999984,34.10225064,-27.744126729999998,-21.26992857,-91.8669374,-1.08688049,-0.4121465836,-0.160628278,0.017592065400000023,0.4617252834,0.2356470939
09:49:04,-0.06405823999999982,-0.25250257499999995,-1.33737722,0.021175419999999986,0.43351914999999996,-0.04754183000000001,34.103916059999996,-27.748440544999998,-21.253553905,-91.9165421,-1.083494485,-0.40765411939999996,-0.16407396200000002,0.0191658391,0.46312665610000003,0.23703086434999998
09:49:04,-0.05338391999999992,-0.2478336,-1.34027076,0.020685359999999986,0.43536220000000003,-0.045272639999999975,34.10558148,-27.75275436,-21.23717924,-91.9661468,-1.0801084799999998,-0.4031616551999999,-0.16751964600000002,0.0207396128,0.4645280288,0.23841463480000002
09:49:04,-0.042709600000000014,-0.2431646249999999,-1.3431643,0.0201953,0.43720525,-0.04300345,34.1072469,-27.757068175,-21.220804575000003,-92.01575150000001,-1.076722475,-0.398669191,-0.17096533000000003,0.022313386500000004,0.4659294015,0.23979840525
09:49:04,-0.03203527999999989,-0.23849564999999995,-1.3460578399999998,0.01970524,0.43904829999999995,-0.04073425999999997,34.10891232,-27.76138199,-21.20442991,-92.0653562,-1.0733364699999999,-0.39417672679999993,-0.17441101399999998,0.023887160200000007,0.4673307742,0.2411821757
09:49:04,-0.021360959999999984,-0.23382667499999998,-1.34895138,0.01921518,0.44089135,-0.03846506999999999,34.11057774,-27.765695805,-21.188055245,-92.1149609,-1.069950465,-0.3896842626,-0.17785669799999998,0.02546093390000001,0.4687321469,0.24256594615
09:49:04,-0.010686639999999858,-0.2291576999999999,-1.35184492,0.018725119999999998,0.4427344,-0.036195880000000014,34.11224316,-27.77000962,-21.17168058,-92.1645656,-1.06656446,-0.38519179839999995,-0.18130238199999998,0.027034707600000013,0.47013351960000005,0.24394971660000003
09:49:04,-1.231999999995459e-05,-0.22448872499999994,-1.3547384599999999,0.018235059999999997,0.44457745000000004,-0.03392668999999998,34.11390858,-27.774323435,-21.155305915,-92.2141703,-1.063178455,-0.3806993342,-0.184748066,0.028608481300000016,0.4715348923,0.24533348705000002
09:49:04,0.010662000000000171,-0.21981974999999998,-1.357632,0.017744999999999997,0.4464205,-0.031657500000000005,34.115573999999995,-27.77863725,-21.13893125,-92.26377500000001,-1.05979245,-0.37620686999999997,-0.18819375,0.03018225500000002,0.472936265,0.2467172575
09:49:04,0.021336320000000075,-0.2151507749999999,-1.3605255399999998,0.017254939999999996,0.44826354999999996,-0.029388309999999973,34.11723942,-27.782951065,-21.122556585,-92.3133797,-1.056406445,-0.3717144057999999,-0.191639434,0.03175602870000002,0.47433763770000004,0.24810102795
09:49:04,0.03201063999999998,-0.21048179999999994,-1.36341908,0.016764879999999996,0.4501066,-0.027119119999999997,34.11890484,-27.78726488,-21.10618192,-92.3629844,-1.05302044,-0.3672219416,-0.195085118,0.033329802400000025,0.4757390104,0.24948479839999999
09:49:04,0.042684960000000105,-0.20581282499999998,-1.36631262,0.016274819999999995,0.45194965,-0.024849929999999965,34.12057026,-27.791578695,-21.089807255,-92.4125891,-1.049634435,-0.36272947739999994,-0.198530802,0.0349035761,0.4771403831,0.25086856885000003
09:49:04,0.05335928000000001,-0.2011438499999999,-1.36920616,0.015784759999999995,0.45379270000000005,-0.022580739999999988,34.122235679999996,-27.795892509999998,-21.07343259,-92.46219380000001,-1.04624843,-0.3582370132,-0.201976486,0.0364773498,0.4785417558,0.2522523393
09:49:04,0.06403360000000013,-0.19647487499999994,-1.3720997,0.015294699999999994,0.45563575,-0.02031155000000001,34.1239011,-27.800206324999998,-21.057057925000002,-92.5117985,-1.042862425,-0.35374454899999996,-0.20542217000000002,0.038051123500000006,0.4799431285,0.25363610975
09:49:04,0.07470792000000004,-0.19180589999999997,-1.37499324,0.014804639999999994,0.45747879999999996,-0.01804235999999998,34.12556652,-27.80452014,-21.04068326,-92.5614032,-1.03947642,-0.3492520847999999,-0.20886785400000002,0.03962489720000001,0.48134450120000005,0.2550198802
09:49:04,0.08538224000000016,-0.1871369249999999,-1.3778867799999999,0.014314579999999993,0.45932185000000003,-0.015773170000000003,34.12723194,-27.808833955,-21.024308595,-92.6110079,-1.0360904149999999,-0.3447596206,-0.21231353800000002,0.04119867090000001,0.4827458739,0.25640365065
09:49:04,0.09605656000000007,-0.18246794999999993,-1.38078032,0.013824519999999993,0.4611649,-0.013503979999999971,34.128897359999996,-27.81314777,-21.00793393,-92.66061260000001,-1.03270441,-0.34026715639999994,-0.21575922200000003,0.042772444600000015,0.4841472466,0.2577874211
09:49:04,0.1067308800000002,-0.17779897499999997,-1.38367386,0.013334459999999992,0.46300794999999995,-0.011234789999999995,34.13056278,-27.817461585,-20.991559265,-92.7102173,-1.029318405,-0.3357746922,-0.21920490600000003,0.04434621830000002,0.48554861930000004,0.25917119155
09:49:04,0.1174052000000001,-0.17313,-1.3865674,0.012844399999999992,0.464851,-0.008965599999999962,34.1322282,-27.8217754,-20.975184600000002,-92.759822,-1.0259323999999999,-0.33128222799999996,-0.22265059000000004,0.04591999200000002,0.486949992,0.260554962
09:49:04,0.12807952,-0.16846102499999993,-1.38946094,0.012354339999999991,0.46669404999999997,-0.006696409999999986,34.13389362,-27.826089215,-20.958809935,-92.8094267,-1.022546395,-0.3267897637999999,-0.22609627400000004,0.047493765700000024,0.4883513647,0.26193873245
09:49:04,0.13875384000000013,-0.16379204999999997,-1.3923544799999998,0.011864279999999991,0.46853710000000004,-0.0044272200000000095,34.13555904,-27.83040303,-20.94243527,-92.8590314,-1.01916039,-0.3222972996,-0.22954195800000005,0.049067539400000026,0.4897527374,0.26332250290000003
09:49:04,0.14942816000000003,-0.159123075,-1.39524802,0.01137421999999999,0.47038015,-0.0021580299999999775,34.13722446,-27.834716845,-20.926060605,-92.9086361,-1.0157743849999998,-0.31780483539999993,-0.23298764200000005,0.05064131310000003,0.4911541101,0.26470627335
09:49:04,0.16010248000000016,-0.15445409999999993,-1.39814156,0.01088415999999999,0.47222319999999995,0.00011115999999999904,34.13888988,-27.83903066,-20.90968594,-92.9582408,-1.01238838,-0.3133123712,-0.23643332600000005,0.05221508680000003,0.49255548280000006,0.2660900438
09:49:04,0.17077680000000006,-0.14978512499999996,-1.4010350999999999,0.01039409999999999,0.47406625,0.002380350000000031,34.140555299999995,-27.843344475,-20.893311275000002,-93.0078455,-1.0090023750000001,-0.30881990699999995,-0.23987901000000006,0.053788860500000035,0.4939568555,0.26747381425
09:49:04,0.1814511200000002,-0.14511615,-1.40392864,0.009904039999999989,0.4759093,0.0046495400000000076,34.14222072,-27.84765829,-20.87693661,-93.0574502,-1.0056163699999998,-0.3043274427999999,-0.24332469400000006,0.05536263420000004,0.49535822820000003,0.2688575847
09:49:04,0.1921254400000001,-0.14044717499999992,-1.4068221799999998,0.009413979999999988,0.47775235000000005,0.006918729999999984,34.14388614,-27.851972104999998,-20.860561945,-93.10705490000001,-1.002230365,-0.29983497859999997,-0.24677037799999996,0.05693640790000004,0.49675960090000004,0.27024135515000003
09:49:04,0.20279976000000022,-0.13577819999999996,-1.40971572,0.008923919999999988,0.4795954,0.009187920000000016,34.14555156,-27.856285919999998,-20.84418728,-93.1566596,-0.99884436,-0.2953425143999999,-0.25021606199999996,0.05851018159999999,0.4981609736,0.2716251256
09:49:04,0.21347408000000012,-0.131109225,-1.41260926,0.008433859999999987,0.48143844999999996,0.011457109999999993,34.147216979999996,-27.860599735,-20.827812615,-93.2062643,-0.9954583549999999,-0.2908500502,-0.25366174599999997,0.06008395529999999,0.4995623463,0.27300889605
09:49:04,0.22414840000000003,-0.12644024999999992,-1.4155028,0.007943799999999987,0.48328150000000003,0.013726300000000025,34.1488824,-27.86491355,-20.811437950000002,-93.255869,-0.9920723499999999,-0.28635758599999994,-0.25710742999999997,0.061657728999999994,0.500963719,0.2743926665
09:49:04,0.23482272000000015,-0.12177127499999996,-1.41839634,0.0074537399999999865,0.48512455,0.01599549,34.15054782,-27.869227365,-20.795063285,-93.30547370000001,-0.988686345,-0.2818651217999999,-0.260553114,0.0632315027,0.5023650917,0.27577643695
09:49:04,0.24549704000000006,-0.11710229999999999,-1.42128988,0.006963679999999986,0.48696759999999994,0.018264680000000033,34.15221324,-27.87354118,-20.77868862,-93.3550784,-0.98530034,-0.27737265759999996,-0.263998798,0.0648052764,0.5037664644000001,0.2771602074
09:49:04,0.2561713600000002,-0.11243332499999992,-1.4241834199999999,0.0064736199999999855,0.48881065,0.02053387000000001,34.15387866,-27.877854995,-20.762313955,-93.4046831,-0.9819143349999999,-0.2728801933999999,-0.267444482,0.0663790501,0.5051678371,0.27854397785
09:49:04,0.2668456800000001,-0.10776434999999995,-1.42707696,0.005983559999999985,0.49065369999999997,0.022803059999999986,34.15554408,-27.88216881,-20.745939290000003,-93.4542878,-0.97852833,-0.2683877292,-0.270890166,0.0679528238,0.5065692098000001,0.2799277483
09:49:04,0.2775200000000002,-0.10309537499999999,-1.4299705,0.0054934999999999845,0.49249675000000004,0.025072250000000018,34.1572095,-27.886482625,-20.729564625000002,-93.5038925,-0.975142325,-0.26389526499999993,-0.27433585,0.06952659750000001,0.5079705825,0.28131151875
09:49:04,0.2881943200000001,-0.09842639999999991,-1.43286404,0.005003439999999998,0.4943398,0.027341439999999995,34.158874919999995,-27.89079644,-20.71318996,-93.55349720000001,-0.97175632,-0.2594028008,-0.277781534,0.07110037120000001,0.5093719552,0.28269528920000003
09:49:04,0.29886864,-0.09375742499999995,-1.43575758,0.004513379999999997,0.49618284999999995,0.029610630000000027,34.16054034,-27.895110255,-20.696815295,-93.6031019,-0.9683703149999999,-0.25491033659999995,-0.281227218,0.07267414490000002,0.5107733279,0.28407905965
09:49:04,0.30954296000000014,-0.08908844999999999,-1.4386511199999998,0.004023319999999997,0.4980259,0.03187982,34.16220576,-27.89942407,-20.68044063,-93.6527066,-0.96498431,-0.2504178723999999,-0.284672902,0.07424791860000002,0.5121747006,0.2854628301
09:49:04,0.32021728000000005,-0.08441947499999991,-1.44154466,0.0035332599999999964,0.49986895,0.034149010000000035,34.16387118,-27.903737884999998,-20.664065965000002,-93.7023113,-0.961598305,-0.24592540819999997,-0.288118586,0.07582169230000002,0.5135760733000001,0.28684660055
09:49:04,0.3308916000000002,-0.07975049999999995,-1.4444382,0.003043199999999996,0.501712,0.03641820000000001,34.165536599999996,-27.908051699999998,-20.6476913,-93.75191600000001,-0.9582122999999999,-0.24143294399999993,-0.29156427,0.07739546600000002,0.5149774460000001,0.288230371
09:49:04,0.3415659200000001,-0.07508152499999998,-1.44733174,0.0025531399999999954,0.50355505,0.03868738999999999,34.16720202,-27.912365514999998,-20.631316635,-93.8015207,-0.9548262949999999,-0.2369404798,-0.295009954,0.07896923970000003,0.5163788187,0.28961414145000003
09:49:04,0.3522402400000002,-0.07041254999999991,-1.45022528,0.002063079999999995,0.5053981,0.04095658000000002,34.16886744,-27.91667933,-20.61494197,-93.8511254,-0.95144029,-0.23244801559999995,-0.298455638,0.08054301340000003,0.5177801914,0.2909979119
09:49:04,0.3629145600000001,-0.06574357499999994,-1.4531188199999998,0.0015730199999999944,0.50724115,0.04322577,34.17053286,-27.920993145,-20.598567305,-93.9007301,-0.948054285,-0.2279555513999999,-0.301901322,0.08211678710000003,0.5191815641,0.29238168235
09:49:04,0.37358888,-0.06107459999999998,-1.45601236,0.001082959999999994,0.5090842,0.04549496000000003,34.172198279999996,-27.92530696,-20.582192640000002,-93.95033480000001,-0.9446682799999999,-0.22346308719999997,-0.30534700600000003,0.08369056080000004,0.5205829368,0.29376545280000005
09:49:04,0.38426320000000014,-0.056405624999999904,-1.4589059,0.0005928999999999934,0.5109272499999999,0.047764150000000005,34.1738637,-27.929620775,-20.565817975,-93.99993950000001,-0.941282275,-0.21897062299999992,-0.30879269000000004,0.08526433450000004,0.5219843095000001,0.29514922325000004
09:49:04,0.39493752000000004,-0.05173664999999994,-1.46179944,0.00010283999999999294,0.5127703,0.05003333999999998,34.17552912,-27.93393459,-20.54944331,-94.0495442,-0.93789627,-0.21447815879999999,-0.31223837400000004,0.08683810820000004,0.5233856822,0.2965329937
09:49:04,0.40561184000000017,-0.047067674999999976,-1.46469298,-0.00038722000000000756,0.51461335,0.052302530000000014,34.17719454,-27.938248405,-20.533068645,-94.0991489,-0.934510265,-0.20998569459999994,-0.31568405800000005,0.08841188190000004,0.5247870549,0.29791676415
09:49:04,0.41628616000000007,-0.0423986999999999,-1.4675865199999998,-0.000877280000000008,0.5164564,0.05457171999999999,34.17885996,-27.94256222,-20.51669398,-94.1487536,-0.9311242599999999,-0.2054932303999999,-0.31912974200000005,0.08998565559999999,0.5261884276,0.2993005346
09:49:04,0.4269604800000002,-0.037729724999999936,-1.4704800599999999,-0.0013673400000000085,0.51829945,0.05684091000000002,34.18052538,-27.946876035,-20.500319315000002,-94.1983583,-0.927738255,-0.20100076619999996,-0.32257542600000005,0.0915594293,0.5275898003,0.30068430505000004
09:49:04,0.4376348000000003,-0.03306074999999997,-1.4733736,-0.001857400000000009,0.5201425,0.0591101,34.1821908,-27.95118985,-20.48394465,-94.247963,-0.92435225,-0.1965083019999999,-0.32602111000000006,0.093133203,0.5289911730000001,0.30206807550000003
09:49:04,0.44830912,-0.028391774999999897,-1.47626714,-0.0023474600000000095,0.52198555,0.06137929000000003,34.183856219999996,-27.955503665,-20.467569985,-94.2975677,-0.920966245,-0.19201583779999998,-0.32946679400000006,0.0947069767,0.5303925457,0.30345184595
09:49:04,0.45898344000000013,-0.023722799999999933,-1.47916068,-0.00283752000000001,0.5238286,0.06364848000000001,34.18552164,-27.959817479999998,-20.45119532,-94.3471724,-0.9175802399999999,-0.18752337359999993,-0.33291247799999996,0.0962807504,0.5317939184,0.3048356164
09:49:04,0.46965776000000026,-0.01905382499999997,-1.4820542199999998,-0.0033275800000000105,0.52567165,0.06591766999999998,34.18718706,-27.964131294999998,-20.434820655000003,-94.39677710000001,-0.914194235,-0.18303090939999989,-0.33635816199999996,0.0978545241,0.5331952911,0.30621938685
09:49:04,0.48033207999999994,-0.014384849999999894,-1.4849477599999998,-0.003817640000000011,0.5275147,0.06818686000000002,34.18885248,-27.96844511,-20.418445990000002,-94.4463818,-0.91080823,-0.17853844519999995,-0.33980384599999996,0.09942829780000001,0.5345966638,0.30760315730000004
09:49:04,0.49100640000000007,-0.00971587499999993,-1.4878413,-0.0043077000000000115,0.52935775,0.07045604999999999,34.190517899999996,-27.972758925,-20.402071325,-94.4959865,-0.9074222249999999,-0.1740459809999999,-0.34324952999999997,0.10100207150000001,0.5359980365,0.30898692775000003
09:49:04,0.5016807200000002,-0.005046899999999965,-1.49073484,-0.004797760000000012,0.5312008,0.07272524000000002,34.19218332,-27.97707274,-20.38569666,-94.5455912,-0.90403622,-0.16955351679999997,-0.346695214,0.10257584520000002,0.5373994092000001,0.3103706982
09:49:04,0.5123550400000003,-0.00037792499999989015,-1.4936283799999999,-0.0052878200000000125,0.53304385,0.07499443,34.19384874,-27.981386555,-20.369321995,-94.59519590000001,-0.900650215,-0.16506105259999992,-0.350140898,0.10414961890000002,0.5388007819,0.31175446865
09:49:04,0.52302936,0.004291050000000074,-1.49652192,-0.005777880000000013,0.5348868999999999,0.07726362000000003,34.19551416,-27.98570037,-20.352947330000003,-94.6448006,-0.89726421,-0.16056858839999988,-0.353586582,0.10572339260000002,0.5402021546,0.31313823910000005
09:49:04,0.5337036800000001,0.008960025000000038,-1.4994154599999998,-0.0062679400000000135,0.53672995,0.07953281000000001,34.19717958,-27.990014185,-20.336572665000002,-94.6944053,-0.8938782049999999,-0.15607612419999994,-0.357032266,0.10729716630000002,0.5416035272999999,0.31452200955000004
09:49:05,0.544378,0.013629,-1.502309,-0.006758,0.538573,0.081802,34.198845,-27.994328,-20.320198,-94.74401,-0.8904922,-0.15158366,-0.36047795,0.10887094,0.5430049,0.31590578
09:49:05,0.53053112,0.024292535,-1.4854538899999998,-0.0066621200000000005,0.5349082049999999,0.07931974,34.21937471,-27.943698705,-20.32530817,-94.63151665000001,-0.8905338869999999,-0.1454524312,-0.34153153575,0.10725123675,0.53985213057,0.31314690155
09:49:05,0.51668424,0.03495607,-1.46859878,-0.00656624,0.53124341,0.07683748,34.23990442,-27.89306941,-20.33041834,-94.5190233,-0.890575574,-0.1393212024,-0.3225851215,0.1056315335,0.53669936114,0.3103880231
09:49:05,0.50283736,0.045619605,-1.45174367,-0.0064703600000000005,0.5275786149999999,0.07435522,34.26043413,-27.842440115,-20.33552851,-94.40652995,-0.8906172609999999,-0.1331899736,-0.30363870725,0.10401183024999999,0.53354659171,0.30762914465
09:49:05,0.48899048,0.05628314,-1.4348885599999999,-0.00637448,0.52391382,0.07187296,34.28096384,-27.79181082,-20.34063868,-94.2940366,-0.890658948,-0.1270587448,-0.284692293,0.102392127,0.53039382228,0.3048702662
09:49:05,0.4751436,0.066946675,-1.4180334499999998,-0.0062786000000000005,0.5202490249999999,0.0693907,34.301493549999996,-27.741181525,-20.34574885,-94.18154325,-0.890700635,-0.12092751600000001,-0.26574587875,0.10077242375,0.52724105285,0.30211138775
09:49:05,0.46129672000000005,0.07761021,-1.40117834,-0.00618272,0.51658423,0.06690844,34.32202326,-27.690552229999998,-20.35085902,-94.0690499,-0.8907423219999999,-0.11479628720000001,-0.2467994645,0.0991527205,0.52408828342,0.2993525093
09:49:05,0.44744984000000004,0.088273745,-1.38432323,-0.0060868400000000005,0.5129194349999999,0.06442618,34.34255297,-27.639922935,-20.35596919,-93.95655655,-0.890784009,-0.10866505840000001,-0.22785305025,0.09753301724999999,0.52093551399,0.29659363085
09:49:05,0.43360296000000004,0.09893728,-1.3674681199999998,-0.00599096,0.50925464,0.06194392,34.36308268,-27.58929364,-20.36107936,-93.84406320000001,-0.890825696,-0.10253382960000001,-0.208906636,0.095913314,0.5177827445600001,0.2938347524
09:49:05,0.41975608000000003,0.109600815,-1.35061301,-0.0058950800000000005,0.5055898449999999,0.05946166,34.383612389999996,-27.538664345,-20.36618953,-93.73156985,-0.890867383,-0.09640260080000002,-0.18996022175000002,0.09429361075,0.51462997513,0.29107587395
09:49:05,0.4059092,0.12026435,-1.3337579,-0.0057992,0.50192505,0.0569794,34.4041421,-27.48803505,-20.3712997,-93.6190765,-0.89090907,-0.09027137200000002,-0.1710138075,0.0926739075,0.5114772057,0.2883169955
09:49:05,0.3920623200000001,0.130927885,-1.3169027899999999,-0.0057033200000000004,0.498260255,0.05449714,34.42467181,-27.437405755,-20.37640987,-93.50658315,-0.8909507569999999,-0.0841401432,-0.15206739325000002,0.09105420424999999,0.50832443627,0.28555811705
09:49:05,0.37821544000000007,0.14159142,-1.3000476799999998,-0.00560744,0.49459546,0.05201488,34.44520152,-27.38677646,-20.38152004,-93.3940898,-0.890992444,-0.0780089144,-0.13312097900000003,0.089434501,0.50517166684,0.2827992386
09:49:05,0.36436856000000006,0.152254955,-1.28319257,-0.00551156,0.490930665,0.04953262,34.465731229999996,-27.336147165,-20.38663021,-93.28159645000001,-0.891034131,-0.0718776856,-0.11417456475000001,0.08781479775,0.50201889741,0.28004036015
09:49:05,0.35052168000000006,0.16291849,-1.26633746,-0.00541568,0.48726587,0.04705036,34.48626094,-27.28551787,-20.39174038,-93.1691031,-0.8910758179999999,-0.0657464568,-0.0952281505,0.0861950945,0.49886612798,0.2772814817
09:49:05,0.33667480000000005,0.173582025,-1.2494823499999999,-0.0053198,0.483601075,0.0445681,34.50679065,-27.234888575,-20.39685055,-93.05660975,-0.891117505,-0.059615228000000006,-0.07628173625000001,0.08457539124999999,0.49571335855000004,0.27452260325
09:49:05,0.32282792000000005,0.18424556,-1.2326272399999998,-0.00522392,0.47993628,0.04208584,34.52732036,-27.18425928,-20.40196072,-92.9441164,-0.8911591919999999,-0.05348399920000001,-0.05733532200000002,0.082955688,0.49256058912,0.2717637248
09:49:05,0.30898104000000004,0.194909095,-1.21577213,-0.00512804,0.476271485,0.03960358,34.547850069999996,-27.133629985,-20.40707089,-92.83162305,-0.891200879,-0.04735277040000001,-0.038388907750000034,0.08133598475,0.48940781969,0.26900484635
09:49:05,0.29513416000000003,0.20557263,-1.1989170199999999,-0.00503216,0.47260669,0.03712132,34.56837978,-27.08300069,-20.41218106,-92.7191297,-0.891242566,-0.04122154160000001,-0.019442493500000047,0.0797162815,0.48625505026000004,0.2662459679
09:49:05,0.28128728000000003,0.216236165,-1.1820619099999998,-0.00493628,0.46894189499999994,0.03463906,34.58890949,-27.032371395,-20.41729123,-92.60663635,-0.8912842529999999,-0.03509031280000001,-0.0004960792500000033,0.07809657824999999,0.48310228083,0.26348708945000004
09:49:05,0.2674404,0.2268997,-1.1652068,-0.0048404,0.4652771,0.0321568,34.6094392,-26.981742099999998,-20.422401400000002,-92.49414300000001,-0.89132594,-0.02895908400000001,0.018450334999999984,0.076476875,0.47994951140000003,0.26072821100000004
09:49:05,0.25359352000000007,0.237563235,-1.14835169,-0.00474452,0.46161230499999995,0.02967454,34.629968909999995,-26.931112804999998,-20.42751157,-92.38164965,-0.8913676269999999,-0.022827855199999997,0.03739674924999997,0.07485717175,0.47679674197,0.25796933255000004
09:49:05,0.23974664000000007,0.24822677,-1.1314965799999999,-0.004648640000000001,0.45794751,0.02719228,34.65049862,-26.88048351,-20.432621740000002,-92.2691563,-0.891409314,-0.016696626399999998,0.05634316349999996,0.0732374685,0.47364397254,0.25521045410000004
09:49:05,0.22589976000000006,0.258890305,-1.11464147,-0.00455276,0.45428271499999995,0.02471002,34.67102833,-26.829854215,-20.43773191,-92.15666295,-0.891451001,-0.010565397599999998,0.07528957774999995,0.07161776524999999,0.47049120311000003,0.25245157565000004
09:49:05,0.21205288000000005,0.26955384,-1.09778636,-0.00445688,0.45061792,0.02222776,34.69155804,-26.77922492,-20.442842080000002,-92.0441696,-0.8914926879999999,-0.004434168799999999,0.09423599199999994,0.069998062,0.46733843368000005,0.24969269720000004
09:49:05,0.19820600000000005,0.280217375,-1.08093125,-0.004361,0.44695312499999995,0.0197455,34.712087749999995,-26.728595625,-20.44795225,-91.93167625000001,-0.891534375,0.0016970600000000002,0.11318240624999998,0.06837835875,0.46418566425,0.24693381875000003
09:49:05,0.18435912000000004,0.29088091,-1.0640761399999998,-0.004265120000000001,0.44328833,0.01726324,34.73261746,-26.67796633,-20.453062420000002,-91.8191829,-0.891576062,0.0078282888,0.13212882049999997,0.0667586555,0.46103289482000004,0.24417494030000003
09:49:05,0.17051224000000004,0.301544445,-1.0472210299999998,-0.00416924,0.43962353499999995,0.014780979999999999,34.75314717,-26.627337035,-20.45817259,-91.70668955000001,-0.891617749,0.013959517599999999,0.15107523475,0.06513895224999999,0.45788012539,0.24141606185000003
09:49:05,0.1566653600000001,0.31220798,-1.03036592,-0.00407336,0.43595873999999996,0.012298719999999999,34.77367688,-26.57670774,-20.463282760000002,-91.5941962,-0.891659436,0.020090746399999998,0.170021649,0.063519249,0.45472735596,0.23865718340000003
09:49:05,0.14281848000000008,0.322871515,-1.0135108099999999,-0.00397748,0.43229394499999996,0.009816459999999999,34.79420659,-26.526078445,-20.46839293,-91.48170285,-0.8917011229999999,0.026221975199999997,0.18896806324999998,0.06189954575,0.45157458653000004,0.23589830495000003
09:49:05,0.12897160000000008,0.33353505,-0.9966556999999999,-0.0038816000000000002,0.42862914999999996,0.007334199999999999,34.8147363,-26.47544915,-20.473503100000002,-91.3692095,-0.89174281,0.032353203999999997,0.20791447749999997,0.0602798425,0.4484218171,0.23313942650000002
09:49:05,0.11512472000000007,0.344198585,-0.9798005899999999,-0.0037857200000000002,0.42496435499999996,0.004851939999999999,34.83526601,-26.424819855,-20.47861327,-91.25671615,-0.891784497,0.038484432799999996,0.22686089174999996,0.05866013925,0.44526904767000003,0.23038054805000002
09:49:05,0.10127784000000006,0.35486212,-0.9629454799999999,-0.0036898400000000002,0.42129955999999996,0.002369679999999999,34.855795719999996,-26.37419056,-20.483723440000002,-91.14422280000001,-0.8918261839999999,0.044615661599999995,0.24580730599999995,0.057040436,0.44211627824,0.22762166960000002
09:49:05,0.08743096000000006,0.365525655,-0.94609037,-0.00359396,0.41763476499999996,-0.00011258000000000101,34.87632543,-26.323561265,-20.48883361,-91.03172945,-0.891867871,0.050746890399999994,0.26475372024999994,0.05542073275,0.43896350881,0.22486279115000002
09:49:05,0.07358408000000005,0.37618919,-0.9292352599999999,-0.00349808,0.41396996999999996,-0.002594840000000001,34.89685514,-26.27293197,-20.493943780000002,-90.9192361,-0.8919095579999999,0.056878119199999994,0.2837001344999999,0.0538010295,0.43581073938000003,0.22210391270000002
09:49:05,0.059737200000000046,0.386852725,-0.91238015,-0.0034022,0.41030517499999997,-0.005077100000000001,34.91738485,-26.222302674999998,-20.49905395,-90.80674275,-0.891951245,0.06300934799999999,0.3026465487499999,0.05218132625,0.43265796995000005,0.21934503425000001
09:49:05,0.04589032000000004,0.39751626,-0.8955250399999999,-0.00330632,0.40664037999999997,-0.007559360000000001,34.937914559999996,-26.17167338,-20.504164120000002,-90.6942494,-0.891992932,0.06914057679999999,0.3215929629999999,0.050561623,0.42950520052,0.2165861558
09:49:05,0.032043440000000034,0.408179795,-0.8786699299999999,-0.00321044,0.40297558499999997,-0.010041620000000001,34.95844427,-26.121044085,-20.50927429,-90.58175605,-0.8920346189999999,0.07527180559999999,0.3405393772499999,0.04894191975,0.42635243109000004,0.21382727735
09:49:05,0.01819656000000003,0.41884333,-0.8618148199999999,-0.00311456,0.39931078999999997,-0.012523880000000001,34.97897398,-26.07041479,-20.514384460000002,-90.4692627,-0.892076306,0.08140303439999999,0.3594857915,0.0473222165,0.42319966166,0.2110683989
09:49:05,0.004349680000000022,0.429506865,-0.8449597099999999,-0.00301868,0.395645995,-0.015006140000000001,34.99950369,-26.019785495,-20.51949463,-90.35676935000001,-0.8921179929999999,0.08753426319999999,0.37843220575,0.04570251324999999,0.42004689223,0.20830952045
09:49:05,-0.009497199999999983,0.4401704,-0.8281045999999999,-0.0029228,0.3919812,-0.0174884,35.020033399999996,-25.9691562,-20.524604800000002,-90.244276,-0.89215968,0.09366549199999999,0.39737861999999996,0.04408281,0.41689412280000004,0.205550642
09:49:05,-0.023344079999999878,0.450833935,-0.8112494899999999,-0.00282692,0.388316405,-0.01997066,35.04056311,-25.918526905,-20.52971497,-90.13178265,-0.892201367,0.09979672080000002,0.41632503424999995,0.04246310675000001,0.41374135337000006,0.20279176355
09:49:05,-0.037190959999999884,0.46149747,-0.79439438,-0.0027310400000000006,0.38465161,-0.02245292,35.06109282,-25.86789761,-20.534825140000002,-90.0192893,-0.8922430539999999,0.10592794960000002,0.43527144849999994,0.0408434035,0.41058858394000003,0.2000328851
09:49:05,-0.05103783999999989,0.472161005,-0.7775392699999999,-0.00263516,0.380986815,-0.02493518,35.08162253,-25.817268315,-20.53993531,-89.90679595,-0.892284741,0.11205917840000001,0.4542178627499999,0.03922370024999999,0.40743581451,0.19727400665
09:49:05,-0.0648847199999999,0.48282454,-0.7606841599999999,-0.0025392800000000005,0.37732202,-0.02741744,35.102152239999995,-25.76663902,-20.545045480000002,-89.79430260000001,-0.892326428,0.11819040720000001,0.4731642769999999,0.037603997,0.40428304508,0.19451512820000003
09:49:05,-0.0787315999999999,0.493488075,-0.7438290499999999,-0.0024434,0.373657225,-0.0298997,35.12268195,-25.716009725,-20.55015565,-89.68180925,-0.892368115,0.12432163600000001,0.4921106912499999,0.03598429375000001,0.40113027565000003,0.19175624975000002
09:49:05,-0.09257847999999991,0.50415161,-0.7269739399999999,-0.0023475200000000005,0.36999243,-0.03238196,35.14321166,-25.66538043,-20.555265820000002,-89.5693159,-0.892409802,0.1304528648,0.5110571054999999,0.0343645905,0.39797750622000005,0.18899737130000002
09:49:05,-0.10642535999999991,0.514815145,-0.7101188299999999,-0.00225164,0.366327635,-0.03486422,35.16374137,-25.614751135,-20.56037599,-89.45682255,-0.8924514889999999,0.1365840936,0.5300035197499999,0.03274488724999999,0.39482473679,0.18623849285000002
09:49:05,-0.12027223999999992,0.52547868,-0.6932637199999999,-0.0021557600000000005,0.36266284,-0.03734648,35.184271079999995,-25.56412184,-20.565486160000003,-89.3443292,-0.892493176,0.1427153224,0.5489499339999999,0.031125184,0.39167196736000004,0.18347961440000002
09:49:05,-0.13411911999999993,0.536142215,-0.67640861,-0.00205988,0.358998045,-0.03982874,35.20480079,-25.513492545,-20.57059633,-89.23183585,-0.892534863,0.1488465512,0.5678963482499999,0.029505480750000007,0.38851919793,0.18072073595000002
09:49:05,-0.14796599999999993,0.54680575,-0.6595534999999999,-0.0019640000000000005,0.35533325,-0.042311,35.2253305,-25.462863249999998,-20.575706500000003,-89.1193425,-0.89257655,0.15497778,0.5868427624999999,0.0278857775,0.3853664285,0.17796185750000001
09:49:05,-0.16181287999999994,0.557469285,-0.64269839,-0.00186812,0.351668455,-0.04479325999999999,35.24586021,-25.412233955,-20.58081667,-89.00684915000001,-0.892618237,0.1611090088,0.6057891767499999,0.026266074249999993,0.38221365907000004,0.17520297905
09:49:05,-0.17565975999999994,0.56813282,-0.6258432799999999,-0.0017722400000000004,0.34800366,-0.04727552,35.266389919999995,-25.36160466,-20.58592684,-88.8943558,-0.8926599239999999,0.1672402376,0.6247355909999999,0.024646371,0.37906088964000006,0.1724441006
09:49:05,-0.18950663999999995,0.578796355,-0.6089881699999999,-0.00167636,0.344338865,-0.049757780000000015,35.28691963,-25.310975365,-20.59103701,-88.78186245,-0.892701611,0.1733714664,0.6436820052499999,0.023026667750000007,0.37590812021000003,0.16968522215
09:49:05,-0.20335351999999995,0.58945989,-0.5921330599999999,-0.0015804800000000004,0.34067406999999994,-0.05224004,35.30744934,-25.26034607,-20.59614718,-88.6693691,-0.892743298,0.1795026952,0.6626284195000001,0.0214069645,0.37275535078,0.1669263437
09:49:05,-0.21720039999999996,0.600123425,-0.5752779499999999,-0.0014846,0.337009275,-0.05472229999999999,35.327979049999996,-25.209716775,-20.60125735,-88.55687575,-0.8927849849999999,0.185633924,0.68157483375,0.019787261249999993,0.36960258135,0.16416746525
09:49:05,-0.23104727999999985,0.61078696,-0.55842284,-0.0013887200000000004,0.33334447999999994,-0.05720456,35.34850876,-25.15908748,-20.60636752,-88.4443824,-0.892826672,0.1917651528,0.700521248,0.018167558,0.36644981192000003,0.16140858680000003
09:49:05,-0.24489415999999986,0.621450495,-0.5415677299999999,-0.00129284,0.329679685,-0.059686820000000015,35.36903847,-25.108458185,-20.61147769,-88.33188905,-0.892868359,0.1978963816,0.71946766225,0.016547854750000007,0.36329704249000006,0.15864970835000003
09:49:05,-0.25874103999999987,0.63211403,-0.52471262,-0.0011969600000000004,0.32601488999999995,-0.06216908,35.38956818,-25.05782889,-20.61658786,-88.2193957,-0.892910046,0.2040276104,0.7384140765,0.0149281515,0.36014427306,0.15589082990000003
09:49:05,-0.2725879199999999,0.642777565,-0.5078575099999999,-0.00110108,0.322350095,-0.06465133999999999,35.410097889999996,-25.007199595,-20.62169803,-88.10690235,-0.892951733,0.2101588392,0.75736049075,0.013308448249999993,0.35699150363000004,0.15313195145000003
09:49:05,-0.2864347999999999,0.6534411,-0.49100239999999995,-0.0010052000000000004,0.31868529999999995,-0.0671336,35.4306276,-24.9565703,-20.6268082,-87.994409,-0.8929934199999999,0.216290068,0.776306905,0.011688745,0.3538387342,0.15037307300000002
09:49:05,-0.3002816799999999,0.664104635,-0.4741472899999999,-0.0009093199999999999,0.315020505,-0.06961586000000002,35.45115731,-24.905941005,-20.63191837,-87.88191565,-0.893035107,0.2224212968,0.79525331925,0.010069041750000007,0.35068596477,0.14761419455000002
09:49:05,-0.3141285599999999,0.67476817,-0.4572921799999998,-0.0008134400000000003,0.31135570999999995,-0.07209812,35.47168702,-24.85531171,-20.63702854,-87.7694223,-0.893076794,0.2285525256,0.8141997335,0.0084493385,0.34753319534000005,0.14485531610000002
09:49:05,-0.3279754399999999,0.6854317050000001,-0.44043707,-0.0007175599999999999,0.307690915,-0.07458037999999999,35.492216729999996,-24.804682415,-20.64213871,-87.65692895000001,-0.893118481,0.2346837544,0.83314614775,0.0068296352499999935,0.34438042591000007,0.14209643765000002
09:49:05,-0.3418223199999999,0.69609524,-0.4235819599999999,-0.0006216800000000003,0.30402611999999996,-0.07706264,35.51274644,-24.754053120000002,-20.64724888,-87.5444356,-0.893160168,0.2408149832,0.8520925619999999,0.0052099320000000005,0.34122765648000003,0.13933755920000002
09:49:05,-0.3556691999999999,0.706758775,-0.40672684999999986,-0.0005258000000000007,0.300361325,-0.07954490000000002,35.53327615,-24.703423825,-20.65235905,-87.43194225,-0.8932018549999999,0.246946212,0.8710389762499999,0.0035902287500000074,0.33807488705,0.13657868075000001
