Timestamp,linacce_x,linacce_y,linacce_z,gyro_x,gyro_y,gyro_z,X-magnetometer,Y-magnetometer,Z-magnetometer,Yaw, worldXAccel,worldYAccel,worldZAccel,worldXgyro,worldYgyro,worldZgyro
20231225 09:48:09,-0.745445,-0.398646,-0.482581,-0.076006,0.130545,-0.259109,-27.303368,-7.803638,-7.379295,95.95507,-0.8332474,-0.42075288,0.83943176,-0.24495913,0.14544615,-0.021055162
20231225 09:48:09,-0.641149,-0.914509,-0.540645,-0.031261,0.083670,-0.247390,-27.373283,-7.621830,-7.257896,95.71508,-0.76679057,-0.9207438,1.1436603,-0.19551772,0.09921405,-0.022069167
20231225 09:48:09,-0.536766,-1.255167,-0.667417,0.050771,0.079408,-0.278286,-26.817780,-8.054951,-6.956139,97.24763,-0.7436443,-1.2410957,1.3481684,-0.15287368,0.10512638,-0.06640276
20231225 09:48:09,-0.649186,-1.423150,-0.904365,0.143456,0.098585,-0.327292,-27.488022,-7.915119,-7.105904,98.286644,-0.9240992,-1.3817555,1.5713427,-0.12427862,0.15083712,-0.1342729
20231225 09:48:09,-0.893862,-1.314561,-1.208583,0.206311,0.103911,-0.367775,-26.935593,-6.813126,-9.047951,95.43841,-1.2615244,-1.2303312,1.6345978,-0.12808919,0.1907832,-0.19534191
20231225 09:48:09,-1.143624,-0.801132,-1.513614,0.205246,0.062363,-0.389082,-26.867477,-7.936905,-9.241844,97.749504,-1.6776295,-0.64281225,1.5166944,-0.17535678,0.17937613,-0.16554049
20231225 09:48:09,-1.227862,0.130773,-1.984194,0.128541,-0.016473,-0.396539,-26.731590,-5.377758,-9.541527,95.8422,-2.272709,0.46333864,1.0733942,-0.24078852,0.12022379,-0.07776357
20231225 09:48:09,-1.357469,1.248820,-2.539385,-0.034457,-0.074002,-0.388016,-26.866066,-6.803051,-9.449821,99.27844,-3.1342509,1.800058,0.8467573,-0.30910963,0.06143654,0.09140572
20231225 09:48:09,-1.426183,2.439056,-2.912625,-0.293337,-0.075067,-0.353925,-27.207977,-8.834244,-7.311073,106.645035,-3.9446654,3.108479,0.7083487,-0.37979966,0.022144899,0.33811972
20231225 09:48:09,-1.568594,3.432407,-2.797312,-0.612941,-0.032453,-0.297462,-26.762192,-6.542866,-6.920326,104.06181,-4.243944,3.9065475,0.330179,-0.48937887,-0.022821039,0.60086846
20231225 09:48:09,-1.577603,3.926311,-1.809854,-0.911239,0.022945,-0.226084,-26.668602,-8.515438,-6.924599,102.0673,-3.3579154,3.97544,-0.33526877,-0.64232624,-0.058757253,0.8048786
20231225 09:48:09,-1.487538,3.680347,-0.305362,-1.100871,0.081539,-0.157901,-27.119751,-9.017902,-7.164238,99.86878,-1.806874,3.4320729,-1.0138566,-0.8106612,-0.045406215,0.83740366
20231225 09:48:09,-1.177663,2.745119,1.580882,-1.090217,0.155048,-0.128071,-26.768753,-8.793098,-7.979256,97.54484,-0.06487727,2.4432697,-1.34923,-0.901048,0.052604057,0.64019144
20231225 09:48:09,-0.790350,1.760531,3.379527,-0.860102,0.229622,-0.149378,-26.968765,-8.536427,-7.060188,99.20245,1.1866059,1.500154,-1.4109776,-0.80228937,0.16833329,0.32806855
20231225 09:48:09,-0.550252,0.857745,4.647836,-0.462727,0.244537,-0.212234,-26.635315,-8.693546,-7.582512,100.10623,1.8497312,0.5971388,-1.1466808,-0.5170758,0.21736975,0.06116775
20231225 09:48:09,-0.633808,0.338802,4.750751,0.017745,0.224296,-0.268697,-26.820351,-8.613140,-7.589592,100.71661,1.7973061,0.0028918087,-0.7349646,-0.13121843,0.23992461,-0.15637015
20231225 09:48:09,-0.949768,0.054387,3.769033,0.502478,0.215773,-0.284678,-26.538887,-8.398411,-8.002724,100.362366,1.2201623,-0.3932591,-0.09810752,0.2507045,0.30366847,-0.40819162
20231225 09:48:09,-1.192791,0.083745,2.201991,0.922225,0.237080,-0.265501,-26.601257,-9.255436,-7.679451,103.01878,0.3819552,-0.44433329,0.2866231,0.52954227,0.43374246,-0.7062316
20231225 09:48:09,-1.559280,0.231168,0.273683,1.217327,0.279694,-0.215430,-26.602028,-8.871658,-8.240395,104.39549,-0.96343356,-0.2205112,0.9096721,0.6390795,0.60527766,-1.021755
20231225 09:48:09,-1.789661,0.336843,-1.294370,1.348364,0.294609,-0.137660,-26.628922,-9.156715,-8.222054,108.5572,-2.1247776,0.2761743,1.4796724,0.6140368,0.67964184,-1.2152411
20231225 09:48:09,-1.716149,0.121161,-2.724319,1.312143,0.282890,-0.054562,-26.055870,-9.207909,-8.213005,112.0092,-2.9225967,0.84626985,1.936933,0.52835655,0.632845,-1.2411209
20231225 09:48:09,-1.337257,-0.209908,-3.528465,1.137426,0.208315,0.016816,-26.252563,-7.879299,-10.177299,105.69789,-3.2106752,1.1078522,1.7198033,0.44214433,0.43960568,-1.1040206
20231225 09:48:09,-0.683078,-0.492864,-3.951746,0.905180,0.083670,0.050907,-25.983505,-6.930122,-9.030830,98.57399,-3.4555666,0.8231576,1.0522387,0.37096903,0.19536996,-0.86744493
20231225 09:48:09,0.021306,-0.792217,-4.221138,0.662280,-0.045237,0.040254,-25.914742,-6.536266,-9.993660,84.87606,-3.7498014,-0.03909391,0.121373236,0.27229938,-0.0091909,-0.6053808
20231225 09:48:10,0.556687,-1.063999,-4.568045,0.385290,-0.149641,-0.002360,-26.063301,-10.070480,-7.085014,80.8072,-4.2165422,-1.1364808,-0.43741724,0.10905969,-0.15147994,-0.32471398
20231225 09:48:10,0.904533,-1.117785,-4.702484,0.109365,-0.195451,-0.069477,-26.241951,-10.453243,-7.731651,73.68911,-4.3233905,-1.6970335,-0.93740076,-0.056648947,-0.20613962,-0.05487553
20231225 09:48:10,0.926500,-1.000165,-4.528740,-0.140992,-0.200778,-0.137660,-26.187622,-6.464081,-9.867119,71.28808,-4.0057836,-1.2832731,-1.0424197,-0.18851216,-0.20551859,0.18180536
20231225 09:48:10,0.669198,-0.861825,-4.025937,-0.345539,-0.160295,-0.202646,-26.400864,-9.703995,-8.318047,86.74794,-3.3056345,-0.5364961,-0.34538853,-0.31553477,-0.15644762,0.37601173
20231225 09:48:10,0.250097,-0.639404,-3.205099,-0.472315,-0.126204,-0.254848,-26.136177,-10.254974,-7.877525,95.673706,-2.503292,-0.07198739,0.2546973,-0.43026638,-0.12626235,0.4850062
20231225 09:48:10,-0.289437,-0.140036,-2.510692,-0.520256,-0.093178,-0.288939,-25.781456,-10.047642,-7.217674,102.79958,-2.134308,0.4416929,0.6201596,-0.49183956,-0.10118291,0.5206368
20231225 09:48:10,-0.655098,0.105577,-2.153113,-0.505341,-0.075067,-0.288939,-26.030396,-10.056702,-8.023384,106.97812,-2.0285113,0.654816,0.8391421,-0.48120788,-0.08932859,0.50404376
20231225 09:48:10,-1.741172,0.999375,-1.556510,-0.471250,-0.083590,-0.244194,-25.906693,-9.668396,-8.181465,109.83882,-2.5122685,1.0015113,1.1769813,-0.41754082,-0.10919929,0.47729027
20231225 09:48:10,-2.298462,1.614960,-1.344116,-0.428636,-0.101701,-0.148313,-25.836777,-9.850208,-8.302879,112.05508,-2.9492037,1.2615783,1.2928891,-0.31040886,-0.15327528,0.43590367
20231225 09:48:10,-2.540013,2.026858,-1.183990,-0.378565,-0.124073,-0.026863,-25.836006,-10.233982,-7.741936,113.078804,-3.1446776,1.4842958,1.2442206,-0.18890771,-0.20782045,0.3801226
20231225 09:48:10,-2.461528,2.185072,-1.042650,-0.334886,-0.164556,0.086063,-25.818466,-9.852055,-8.034630,110.570984,-3.0240207,1.6432025,1.0188785,-0.07048045,-0.27078208,0.34420824
20231225 09:48:10,-2.347373,2.186115,-0.974646,-0.309317,-0.219954,0.185141,-25.897346,-9.765266,-7.907112,107.3915,-2.8220482,1.7534127,0.8295311,0.02519723,-0.3358152,0.34079552
20231225 09:48:10,-1.567395,1.726655,-0.701976,-0.279487,-0.277483,0.262911,-25.870834,-9.288319,-8.205925,101.07723,-1.8811193,1.5397104,0.292548,0.09254634,-0.37450275,0.3567594
20231225 09:48:10,-0.727143,1.305780,-0.507932,-0.224089,-0.315836,0.295937,-25.861488,-9.385189,-7.931572,95.93438,-0.99717116,1.2821296,-0.22276208,0.12149562,-0.366812,0.3527884
20231225 09:48:10,0.119820,0.774307,-0.291117,-0.138861,-0.327555,0.260781,-25.615494,-9.742424,-8.039772,91.80561,-0.15353629,0.780978,-0.5938342,0.11041462,-0.33410737,0.31470293
20231225 09:48:10,0.749987,0.622921,-0.237814,-0.006758,-0.306248,0.165965,-26.019249,-9.211609,-7.676521,88.32146,0.33381367,0.58911467,-0.9791371,0.109589,-0.299465,0.20841739
20231225 09:48:10,0.968073,0.706475,-0.255429,0.181808,-0.202909,0.029600,-25.507149,-8.985970,-7.552193,88.38294,0.46494144,0.6678536,-1.1988686,0.1342876,-0.20712136,-0.0042300597
20231225 09:48:10,0.660226,0.954144,-0.323287,0.392747,-0.126204,-0.142986,-25.613312,-8.992352,-7.686806,90.069855,0.118516296,0.97559184,-1.1035491,0.12811586,-0.1143682,-0.23546189
20231225 09:48:10,-0.041894,1.554752,-0.847925,0.520589,-0.084655,-0.288939,-25.574013,-9.441742,-9.264732,93.68333,-0.973978,1.659104,-0.7825123,0.060793027,0.019825477,-0.37981945
20231225 09:48:10,-1.063091,2.221957,-1.354303,0.550419,-0.076132,-0.352860,-25.648781,-9.564316,-7.381874,106.06049,-2.3584716,2.2875404,0.011128023,0.028229237,0.1574601,-0.38522795
20231225 09:48:10,-1.987711,2.497590,-1.633598,0.509935,-0.094243,-0.321965,-25.199821,-9.811928,-7.495216,112.27998,-3.3156848,2.3431995,0.83043754,0.06604339,0.19164361,-0.32895184
20231225 09:48:10,-2.547127,2.780637,-1.614502,0.444949,-0.142184,-0.223953,-25.199059,-10.195705,-6.934273,116.2536,-3.7892408,2.337709,1.2287056,0.14198707,0.11539523,-0.25901634
20231225 09:48:10,-2.824140,2.667301,-1.365750,0.401270,-0.193321,-0.096111,-24.839867,-9.492100,-8.316338,112.44733,-3.7126627,2.0267158,1.2854013,0.24006869,-0.0013471432,-0.21614528
20231225 09:48:10,-2.515143,2.204650,-1.283016,0.382094,-0.241261,0.007228,-25.181625,-7.912369,-8.556831,106.60299,-3.1873302,1.8085612,1.1492212,0.30870718,-0.11861379,-0.1943617
20231225 09:48:10,-1.807064,2.002230,-1.103851,0.363983,-0.245523,0.056234,-25.190475,-9.908798,-7.220863,105.34645,-2.444078,1.8468395,0.5917524,0.31716335,-0.17601207,-0.17930958
20231225 09:48:10,-1.296815,1.918013,-0.507569,0.374636,-0.257242,0.037057,-25.384102,-10.115295,-6.941353,102.569145,-1.5621797,1.7603282,0.0035978556,0.30408192,-0.19893974,-0.15831986
20231225 09:48:10,-0.741746,1.402854,-0.217861,0.385290,-0.359515,-0.046040,-25.299210,-10.473362,-7.988914,91.58317,-0.6763764,1.3829205,-0.16382627,0.19796291,-0.34076527,-0.11841407
20231225 09:48:10,-0.034432,1.925654,-0.686932,0.352264,-0.218889,-0.246325,-24.917206,-10.172863,-7.066933,98.106155,-0.82731247,1.9878796,-1.0335046,0.039255038,-0.14856154,-0.13782382
20231225 09:48:10,-0.888988,2.611145,1.044485,0.431100,-0.174144,-0.365644,-25.022598,-10.563023,-6.640602,104.10027,-0.27940255,2.160715,-0.9750918,0.015616715,-0.023361526,-0.18771243
20231225 09:48:10,-2.118681,2.879333,0.712378,0.481171,-0.186929,-0.389082,-24.450325,-10.230438,-7.192497,110.07725,-1.7344865,1.830209,-0.09525773,0.07278848,0.08411813,-0.19637232
20231225 09:48:10,-2.985377,3.146402,0.451208,0.533373,-0.197582,-0.303854,-24.625244,-10.630676,-6.364281,116.34685,-2.7326381,1.6148171,0.7013202,0.17797779,0.11791435,-0.25639114
20231225 09:48:10,-3.562087,3.401995,-0.287836,0.575987,-0.138988,-0.198384,-24.177818,-10.110729,-7.599510,118.48899,-3.9079664,1.6181586,1.3436558,0.26384342,0.18765113,-0.35465243
20231225 09:48:10,-4.132411,3.704932,-0.546751,0.541896,-0.142184,-0.076935,-23.957962,-11.136806,-7.128441,122.85318,-4.6405315,1.6162028,1.9081497,0.32663283,0.12922299,-0.36444542
20231225 09:48:10,-4.161983,4.127368,-0.610811,0.425773,-0.196517,0.050907,-24.158737,-10.496353,-6.770317,121.750786,-4.8472214,2.090627,1.8014504,0.3671227,-0.033543095,-0.28400472
20231225 09:48:10,-4.142143,4.629573,-0.227147,0.317107,-0.227412,0.187272,-23.903786,-10.758579,-6.884636,120.07448,-4.744178,2.4474509,1.4248706,0.4119254,-0.17389703,-0.21319665
20231225 09:48:10,-4.004929,5.176779,0.286544,0.221226,-0.199713,0.360923,-24.361320,-10.797874,-6.484703,116.49863,-4.2534113,3.1299758,0.8249592,0.46632272,-0.26778114,-0.17718479
20231225 09:48:10,-3.203504,5.163661,1.250562,0.088058,-0.219954,0.535640,-24.563911,-11.099392,-6.199120,109.58899,-2.4133615,3.7642395,-0.35535836,0.5269226,-0.34791866,-0.056885853
20231225 09:48:10,-1.848218,4.793080,2.313433,-0.082398,-0.333947,0.678397,-24.209572,-10.700172,-5.819725,102.09439,0.019784808,4.1889668,-1.6449347,0.5302131,-0.43387282,0.17694038
20231225 09:48:10,-0.182340,3.999295,3.093942,-0.302925,-0.483095,0.795585,-24.060394,-11.160660,-5.788185,95.88202,2.294188,4.097502,-2.7474353,0.37091243,-0.44926435,0.492362
20231225 09:48:10,1.794586,2.153027,3.934199,-0.510668,-0.623721,0.817958,-24.015564,-10.685562,-5.818748,94.38527,4.06863,2.3213615,-3.0334392,0.006939769,-0.41245502,0.7552403
20231225 09:48:10,3.539539,-0.197031,4.600809,-0.600157,-0.662074,0.696508,-24.270142,-10.615234,-5.423973,98.74326,5.1223297,-0.51514584,-2.0956388,-0.3278835,-0.33907276,0.76495796
20231225 09:48:10,4.511088,-2.230887,5.206067,-0.487230,-0.519317,0.422713,-23.522171,-10.266190,-6.243141,104.43005,5.6163607,-2.9691339,-0.66385186,-0.38816285,-0.28356266,0.5353837
20231225 09:48:10,4.210049,-3.659738,5.852166,-0.149515,-0.290267,0.110566,-23.482971,-9.711700,-5.073204,106.95726,5.2572346,-4.22409,0.64782083,-0.13772878,-0.23122033,0.27564943
20231225 09:48:10,2.865855,-4.162035,5.719543,0.073143,-0.176275,-0.010883,-23.651886,-10.383213,-5.165016,108.52058,4.0926456,-4.3076115,1.2719958,0.059243605,-0.18627894,0.1443495
20231225 09:48:10,1.423720,-3.951632,4.706398,0.536569,0.012291,-0.133398,-23.606674,-10.100006,-4.915123,107.23968,2.8691843,-3.9213786,1.737377,0.45734552,-0.025922853,-0.16012588
20231225 09:48:10,0.364331,-3.148759,3.343962,0.949924,0.004834,-0.040713,-23.651505,-10.575104,-4.884544,105.97128,1.9178336,-3.1325555,1.6678236,0.8116838,-0.005626886,-0.45384157
20231225 09:48:10,0.289462,-2.214645,1.572088,0.941402,-0.183733,0.120155,-23.405510,-10.932343,-4.992744,100.443016,1.1309873,-2.1581626,1.2719162,0.79326016,-0.22614828,-0.4788782
20231225 09:48:10,0.909801,-1.514706,-0.197556,0.705960,-0.405325,0.256519,-23.521400,-10.649967,-5.682182,84.36759,0.13393514,-1.6556805,0.26244086,0.5619761,-0.45923412,-0.2640095
20231225 09:48:10,2.034243,-1.039742,-1.613575,0.291539,-0.586434,0.304460,-23.405899,-10.740456,-5.273232,65.90415,-0.3679207,-2.221504,-1.4805543,0.122385696,-0.45292377,0.14914793
20231225 09:48:10,3.089955,-0.584004,-2.210407,0.053967,-0.638636,0.282088,-23.193962,-10.535805,-5.284477,57.057728,0.19096291,-2.8077118,-2.9060235,-0.13216755,-0.35571468,0.36726812
20231225 09:48:10,3.456174,-0.552220,-1.703132,-0.599092,-0.569389,0.063691,-23.684402,-10.588882,-3.946175,74.01646,1.0265405,-2.426278,-2.5289383,-0.5935144,-0.22980222,0.82319796
20231225 09:48:10,2.906018,-0.753098,-0.128187,-0.824946,-0.444743,-0.133398,-23.790565,-10.595261,-4.080788,89.98673,1.9182713,-1.4700714,-1.3732742,-0.799102,-0.24069095,0.8811018
20231225 09:48:10,1.693557,-1.234410,1.449203,-0.833468,-0.295594,-0.290004,-23.330452,-9.997776,-3.847267,100.10943,2.1079972,-1.3001024,-0.19415379,-0.870715,-0.21857184,0.7606011
20231225 09:48:10,1.051943,-1.434048,2.167388,-0.772744,-0.227412,-0.343272,-23.278084,-10.561512,-3.675987,107.47951,2.0180178,-1.4361731,0.0803138,-0.8384867,-0.23281288,0.6692868
20231225 09:48:10,-0.919296,-1.791686,3.557124,-0.367911,-0.046303,-0.358187,-23.253372,-11.026531,-4.047295,111.36069,0.9987348,-2.1080787,0.7683072,-0.49021143,-0.06584249,0.3288233
20231225 09:48:10,-1.892817,-1.815403,3.778733,0.007091,0.029337,-0.238868,-22.925934,-10.912369,-3.649574,113.27647,0.30315256,-2.457877,1.0668607,-0.109705284,0.05241562,0.055632137
20231225 09:48:10,-2.093337,-1.867823,2.975660,0.362918,0.060232,-0.068412,-23.147980,-10.636375,-4.473625,111.37125,-0.028617144,-2.517615,1.6647398,0.26573688,0.1297354,-0.21873102
20231225 09:48:10,-1.574780,-1.900717,1.491942,0.614340,0.084735,0.086063,-23.235443,-10.836491,-4.059517,108.975555,-0.17747408,-2.185104,2.0017068,0.53064746,0.14473535,-0.46157363
20231225 09:48:10,-0.679985,-1.968242,-0.282951,0.701698,0.092193,0.183010,-22.856400,-10.902294,-4.051460,101.82071,-0.6499543,-1.9720938,1.8564502,0.6135921,0.09765086,-0.59803843
20231225 09:48:10,-0.187903,-1.930614,-1.088773,0.687849,0.100715,0.202186,-22.423187,-10.589867,-3.799599,88.72713,-1.2790445,-2.0422843,1.2281616,0.5665862,0.059315667,-0.62267554
20231225 09:48:10,0.587785,-1.831190,-2.468307,0.450276,0.143329,0.193664,-23.014160,-10.728714,-3.796410,71.69274,-2.390923,-2.6746104,-0.07738426,0.4163791,0.11633563,-0.43423802
20231225 09:48:10,1.229270,-1.719481,-3.878535,0.156240,0.188074,0.155311,-22.108047,-10.745136,-4.590141,57.84659,-3.3405583,-3.6328068,-1.3702178,0.2756039,0.20098747,-0.17385276
20231225 09:48:10,1.198725,-1.578493,-3.968719,-0.178279,0.225361,0.121220,-21.656635,-8.533150,-5.399910,60.92246,-3.3647265,-3.2254858,-1.3185515,0.11428413,0.2836926,0.104071096
20231225 09:48:10,1.084823,-1.601994,-3.748195,-0.334886,0.234949,0.108436,-22.334572,-10.965412,-3.372276,75.82046,-3.1180272,-2.8828483,-0.6709684,0.011388123,0.30985194,0.20473723
20231225 09:48:10,0.690035,-1.798275,-2.270213,-0.686450,0.218969,0.092456,-22.265427,-10.763443,-4.054634,93.70161,-1.495939,-2.0709248,0.6872661,-0.3390653,0.28321093,0.39159033
20231225 09:48:10,0.340370,-1.796428,-1.202150,-0.777005,0.172094,0.103109,-22.065796,-10.828228,-5.254158,97.8748,-0.68648076,-1.8483593,1.1120214,-0.46203405,0.20220743,0.42809454
20231225 09:48:10,0.088719,-1.649291,-0.482739,-0.754633,0.174224,0.127612,-21.643299,-6.937977,-4.700081,94.16913,-0.28468627,-1.654739,1.1554786,-0.45680904,0.18317385,0.3878364
20231225 09:48:10,-0.141421,-1.404484,0.021002,-0.658751,0.232819,0.163834,-22.304962,-6.511234,-5.136421,94.3823,-0.071864784,-1.4066373,1.1349456,-0.38370138,0.22044992,0.2583259
20231225 09:48:10,-0.247422,-1.324023,0.250171,-0.600157,0.266910,0.184076,-21.884697,-7.985870,-5.303917,97.39327,-0.00483644,-1.3310374,1.1294531,-0.33623862,0.2549085,0.17562534
20231225 09:48:10,-0.204174,-1.226449,0.748000,-0.460597,0.326569,0.208579,-22.090118,-10.555099,-4.602379,103.33914,0.31386417,-1.2253305,0.9196135,-0.22429392,0.32743317,0.008157257
20231225 09:48:10,0.158088,-0.933909,1.322937,-0.282683,0.420320,0.173422,-21.860641,-9.968521,-4.906334,101.105865,0.9337894,-0.9111842,0.41625988,-0.10322154,0.4304779,-0.17007472
20231225 09:48:10,0.247764,-1.049684,1.308154,-0.114358,0.336157,0.180879,-22.400398,-10.095440,-5.573265,99.91079,0.97191924,-1.0202934,0.4832285,0.03120099,0.34510103,-0.21433319
20231225 09:48:10,0.366308,-1.032474,0.966499,-0.052568,0.342549,0.171291,-21.674831,-10.432709,-4.338280,99.363365,0.8595161,-0.9951419,0.3879624,0.096660614,0.3547231,-0.23431894
20231225 09:48:10,0.560166,-0.669483,0.581803,0.044378,0.359595,0.154246,-21.587376,-10.232590,-4.752388,96.13919,0.7599186,-0.6638733,0.018891253,0.16563822,0.36555678,-0.29251578
20231225 09:48:10,0.556619,-0.346812,-0.306214,0.113626,0.388359,0.137200,-21.641163,-10.802708,-4.715706,95.00676,0.10535814,-0.40430325,-0.17971954,0.2069171,0.38942114,-0.34607595
20231225 09:48:10,0.558899,-0.230469,-0.555361,0.143456,0.429908,0.112697,-21.402718,-10.121113,-5.025780,92.34151,-0.12216404,-0.28357595,-0.29641366,0.19963384,0.42919424,-0.3747338
20231225 09:48:10,0.348970,-0.014004,-1.144310,0.155175,0.462934,0.105240,-21.341766,-10.397942,-5.141060,93.47077,-0.73631155,-0.045197405,-0.23786397,0.18563694,0.46267807,-0.39607346
20231225 09:48:10,-0.089595,-0.064941,-1.617711,0.155175,0.535377,0.120155,-21.475590,-10.305599,-5.818291,94.89194,-1.3784583,-0.007895395,0.18886997,0.16733536,0.53437006,-0.43658623
20231225 09:48:10,-0.203265,-0.649171,-1.510406,0.080600,0.486371,0.138266,-20.954144,-10.176834,-5.419594,96.7276,-1.3059045,-0.60368115,0.65692616,0.1427289,0.4833873,-0.36488274
20231225 09:48:10,-0.058678,-0.658853,-1.583186,0.008157,0.384098,0.137200,-21.033405,-9.898155,-5.572533,94.450005,-1.2991877,-0.6431236,0.51198435,0.11109053,0.38273183,-0.24121228
20231225 09:48:10,-0.018384,-0.835847,-1.759034,-0.064287,0.305262,0.124416,-20.760521,-9.970337,-5.699074,94.14837,-1.4277546,-0.80517083,0.5730089,0.058597296,0.30221888,-0.12970734
20231225 09:48:10,-0.020154,-0.780136,-1.859526,-0.098378,0.282890,0.123351,-20.636433,-9.773914,-5.576698,93.91715,-1.5286299,-0.73039645,0.5248468,0.03925357,0.27766243,-0.081724815
20231225 09:48:10,-0.130744,-0.584507,-2.161704,-0.161234,0.293543,0.158507,-21.051338,-10.088196,-5.560310,95.22234,-1.857048,-0.4606195,0.5273315,0.029964402,0.27747187,-0.028006414
20231225 09:48:10,-0.187818,-0.535618,-2.298159,-0.241135,0.341484,0.238408,-20.593029,-10.432674,-5.399300,95.1731,-2.0250618,-0.42938685,0.54894567,0.05934167,0.32223228,0.01519009
20231225 09:48:10,0.008126,-0.397889,-2.186748,-0.364715,0.386229,0.347074,-20.532078,-10.709503,-5.514595,90.627594,-1.8289912,-0.52376956,0.22855364,0.10626012,0.4195556,0.08514599
20231225 09:48:10,0.422587,-0.338733,-1.926296,-0.399872,0.396882,0.353466,-20.196823,-9.924660,-5.964394,86.46801,-1.3647237,-0.55358374,-0.2224321,0.09964381,0.45578527,0.115532674
20231225 09:48:10,0.665444,-0.322013,-1.837040,-0.402002,0.410732,0.340682,-20.249695,-7.267624,-7.746010,77.914795,-1.1269746,-0.5567972,-0.58157665,0.08276865,0.47194013,0.13445199
20231225 09:48:10,0.805982,-0.529582,-1.638352,-0.394545,0.423516,0.298068,-19.999981,-7.642342,-6.379372,82.58719,-0.8199431,-0.7884075,-0.43196103,0.03183596,0.4900316,0.06874507
20231225 09:48:10,0.995308,-0.846891,-1.265033,-0.386022,0.388359,0.241604,-20.013439,-7.336105,-8.409065,79.4031,-0.3372931,-1.0933228,-0.32119954,-0.042261094,0.4538802,0.053348407
20231225 09:48:10,1.030033,-0.949038,-0.659706,-0.303990,0.267975,0.158507,-19.631710,-8.745129,-6.437675,89.189705,0.1714347,-1.1047081,-0.066455595,-0.07716973,0.3104972,0.027799381
20231225 09:48:10,0.859324,-0.767181,-0.631978,-0.232612,0.216838,0.131873,-20.012554,-9.621288,-6.518242,90.0609,0.05247739,-0.88325876,-0.11453964,-0.042121142,0.24485041,0.024837395
20231225 09:48:10,0.810583,-0.557613,-0.744531,-0.203848,0.210446,0.134004,-19.079758,-6.447369,-5.912315,83.281105,-0.120293885,-0.6695416,-0.34332854,-0.0053427517,0.23379399,0.03901782
20231225 09:48:10,0.724492,0.097212,-1.018978,-0.166561,0.230688,0.164899,-20.084656,-10.189556,-6.749809,87.30107,-0.36636817,-0.033226352,-0.66620755,0.05011405,0.253543,-7.330561E-4
20231225 09:48:10,0.762022,0.724289,-1.125534,-0.154842,0.247733,0.209644,-19.534897,-8.641876,-6.577431,82.248405,-0.4075697,0.5428404,-1.1213295,0.10918241,0.27927837,0.0037913993
20231225 09:48:10,0.992700,1.184792,-1.186362,-0.194260,0.210446,0.252258,-19.615196,-9.688942,-6.241951,81.05954,-0.2182883,0.8617869,-1.5803787,0.13063058,0.26840466,0.06680023
20231225 09:48:10,1.534761,1.317749,-1.162350,-0.283749,0.123088,0.271434,-19.817780,-9.990459,-5.956337,77.84563,0.32077444,0.6964389,-2.140724,0.074987665,0.23456857,0.19366099
20231225 09:48:10,2.304659,1.058027,-0.923234,-0.411591,-0.014342,0.245866,-19.103104,-9.463303,-6.117592,74.603195,1.1721022,0.07222214,-2.5771897,-0.09841345,0.17177153,0.365542
20231225 09:48:10,3.219229,0.785742,-0.446952,-0.486165,-0.148576,0.141462,-18.857880,-9.436768,-6.786751,72.73337,2.183433,-0.47022742,-2.947908,-0.2920113,0.06926079,0.4798501
20231225 09:48:10,3.434003,0.749826,-0.283890,-0.477642,-0.196517,-0.015145,-19.278790,-9.479763,-5.850334,77.29511,2.3369095,-0.33884495,-3.0799034,-0.38992563,-0.05360258,0.48065883
20231225 09:48:10,2.954800,1.042686,-0.250931,-0.399872,-0.115550,-0.218626,-18.876961,-9.051140,-7.615944,73.2374,2.0290296,0.2310691,-2.9371207,-0.4468804,-0.07459976,0.3339363
20231225 09:48:11,2.042955,1.706679,-0.003928,-0.376434,-0.082525,-0.265501,-19.048275,-7.567444,-6.642723,84.086975,1.3774954,1.585565,-2.655329,-0.44609946,-0.08011556,0.3301818
20231225 09:48:11,0.711728,2.688279,0.576210,-0.285880,0.010161,-0.296396,-18.733788,-9.240349,-6.664375,91.43197,0.879146,2.6881201,-2.216421,-0.40940827,0.010499643,0.22440454
20231225 09:48:11,-0.661447,3.456528,1.145753,-0.130339,0.127349,-0.233541,-19.007713,-10.493908,-6.049370,101.55623,0.08426076,3.2337956,-1.7483478,-0.27604234,0.1404204,0.05279985
20231225 09:48:11,-1.395350,3.838823,1.773035,0.055032,0.207250,-0.113157,-18.698582,-10.377903,-5.919899,103.48114,-0.06296885,3.3961613,-1.5983537,-0.077138014,0.22508135,-0.15479623
20231225 09:48:11,-1.454722,4.000986,2.106126,0.277690,0.234949,-0.002360,-18.780418,-10.657410,-6.706306,101.30667,0.19984198,3.5515447,-1.626987,0.14592032,0.25995508,-0.36052102
20231225 09:48:11,-0.957452,3.821990,1.567173,0.503543,0.278628,0.064757,-18.709351,-11.414883,-5.986290,100.32565,0.3927982,3.646009,-1.6888872,0.33707803,0.29992658,-0.5736651
20231225 09:48:11,-0.303545,3.513877,0.774829,0.679326,0.343615,0.051972,-18.312763,-11.098759,-6.270927,95.22774,0.36942273,3.4863179,-1.7947483,0.4225089,0.35447225,-0.7555986
20231225 09:48:11,0.038726,3.347196,0.038404,0.687849,0.293543,-0.041778,-18.145271,-11.561096,-5.971138,94.08814,0.0052031055,3.346517,-1.7994157,0.32399788,0.30022538,-0.73708135
20231225 09:48:11,0.006868,3.422462,-0.681009,0.612209,0.244537,-0.056693,-18.233498,-11.377438,-6.117973,91.8872,-0.7321339,3.4458344,-1.5905453,0.22581376,0.25909466,-0.65467405
20231225 09:48:11,-0.109852,3.670441,-1.413631,0.376767,0.211512,-0.047105,-17.952030,-11.162712,-6.531105,90.08272,-1.5357184,3.74296,-1.491093,0.108453564,0.22454989,-0.4311843
20231225 09:48:11,-0.154233,3.817616,-1.337306,0.113626,0.258387,-0.026863,-17.678379,-11.618668,-6.096703,93.841125,-1.5197678,3.893467,-1.5827923,0.010758616,0.2635929,-0.21910946
20231225 09:48:11,-0.329457,3.804176,-0.391874,-0.089855,0.345745,-0.017275,-17.758026,-11.148102,-6.530128,96.39707,-0.82874304,3.8001342,-1.7396736,-0.09229902,0.34056357,-0.1087793
20231225 09:48:11,-0.643386,3.641006,1.116140,-0.265638,0.374510,0.028535,-17.695007,-8.773445,-7.622307,94.04293,0.1313982,3.4789815,-1.8837061,-0.18012133,0.35105914,-0.036726102
20231225 09:48:11,-0.447129,2.805776,2.971525,-0.421179,0.257322,0.122285,-17.314430,-9.606800,-6.492348,100.71219,1.5570093,2.757092,-2.2198982,-0.2435152,0.24882899,0.065205015
20231225 09:48:11,0.772094,0.954382,4.598614,-0.524518,0.026141,0.170226,-17.115833,-10.997326,-7.203438,107.118774,3.0145118,1.1217387,-2.347052,-0.36720392,0.08269328,0.19845437
20231225 09:48:11,2.219506,-1.175731,5.694000,-0.542628,-0.194386,0.100978,-16.712685,-8.430965,-6.429146,109.74831,3.6083162,-1.2656387,-1.4011503,-0.5052782,-0.074415386,0.2935631
20231225 09:48:11,3.140163,-3.087695,6.555068,-0.454204,-0.331816,-0.073739,-17.096367,-11.574841,-6.093773,120.9937,4.2974024,-3.3769498,-1.3886836,-0.47486588,-0.22891651,0.4127757
20231225 09:48:11,3.368196,-4.621807,6.936636,-0.263507,-0.373365,-0.307050,-17.419552,-8.287434,-7.115410,113.76797,4.091318,-5.0278807,0.9882183,-0.30996385,-0.3194234,0.49551907
20231225 09:48:11,2.722403,-5.439626,6.969313,0.033725,-0.290267,-0.547819,-17.333397,-11.122581,-5.991676,121.88727,3.3623555,-5.6558647,0.642637,-0.028311282,-0.30001846,0.5292316
20231225 09:48:11,1.314517,-5.289415,6.749252,0.376767,-0.197582,-0.743843,-16.893784,-11.273319,-6.379372,121.175766,2.291943,-5.2936883,0.82426786,0.26121968,-0.20586161,0.4917746
20231225 09:48:11,-0.450355,-4.452093,5.749882,0.660150,-0.169883,-0.834397,-16.947189,-12.035328,-6.062233,121.20943,1.2024353,-4.6769395,0.9168296,0.42942333,-0.04930428,0.38669515
20231225 09:48:11,-2.252941,-2.945393,4.343170,0.822082,-0.186929,-0.792849,-16.832451,-11.742039,-6.214211,120.73594,0.58369064,-4.320809,1.3834832,0.39126155,0.2628111,0.086284846
20231225 09:48:11,-3.617895,-1.302284,2.523265,0.812494,-0.257242,-0.631981,-17.186016,-12.525036,-6.032646,123.321144,-1.324475,-3.2251902,1.8386502,0.4131997,0.2569965,-0.007946879
20231225 09:48:11,-4.261243,0.228467,0.560078,0.593033,-0.356319,-0.390147,-16.840649,-12.220833,-5.647148,126.13944,-2.8150678,-1.8179629,2.618454,0.3468517,0.11715977,-0.046052754
20231225 09:48:11,-4.078036,1.012394,-0.857593,0.230814,-0.421305,-0.140856,-16.647026,-12.014339,-5.926643,124.98631,-3.6082208,-0.37426367,2.9132085,0.25704604,-0.18120044,0.09592667
20231225 09:48:11,-3.385211,1.091867,-1.351831,-0.138861,-0.418109,0.070083,-17.061546,-12.520504,-5.629784,122.32194,-3.4597392,0.37543833,2.5198264,0.13120598,-0.43018365,0.30565384
20231225 09:48:11,-2.431598,0.350253,-1.097707,-0.422244,-0.317966,0.223493,-16.647026,-12.014339,-5.926643,115.667915,-2.4982967,0.022273123,1.8894534,-0.051417485,-0.458334,0.43844593
20231225 09:48:11,-1.644524,-0.554638,0.047043,-0.554347,-0.152837,0.310852,-16.750614,-11.462528,-5.427803,114.67001,-1.1874793,-0.8363732,1.3974339,-0.22725311,-0.28949115,0.34990686
20231225 09:48:11,-1.226725,-1.310316,1.635130,-0.508537,-0.022865,0.350270,-16.497463,-12.666714,-5.614632,118.607056,-0.13965261,-1.5766064,0.9382821,-0.26125312,-0.11434237,0.13034147
20231225 09:48:11,-0.966706,-1.892825,2.690233,-0.324232,0.053840,0.358793,-16.252625,-12.448288,-6.564247,118.052086,0.45588857,-2.1302795,0.8002703,-0.12996416,-0.0010477006,-0.04532869
20231225 09:48:11,-0.805420,-2.203150,2.990039,-0.080267,0.127349,0.372642,-16.295380,-10.271900,-7.510567,111.5697,0.637203,-2.3730674,1.2036474,0.08223647,0.106198154,-0.19611171
20231225 09:48:11,-0.365591,-2.458045,2.728215,0.167959,0.181682,0.365185,-16.451870,-12.575397,-5.084267,119.64024,0.89602923,-2.526234,0.8678585,0.3052322,0.18119541,-0.3778497
20231225 09:48:11,0.022597,-2.590064,1.977265,0.371440,0.220034,0.331094,-16.143127,-12.267498,-5.235252,117.269226,0.9697716,-2.5957248,1.2167654,0.48368216,0.221075,-0.48232016
20231225 09:48:11,0.278692,-2.576801,0.866277,0.507805,0.253060,0.281022,-16.038506,-11.493565,-6.222527,111.67821,0.67474306,-2.5732791,1.6131313,0.58153945,0.24890101,-0.556277
20231225 09:48:11,0.386807,-2.606807,-0.250408,0.550419,0.260518,0.219232,-16.132359,-11.230511,-5.168877,109.4615,0.121004164,-2.6173637,1.8023801,0.5758099,0.25280392,-0.58499753
20231225 09:48:11,0.372008,-2.554350,-1.223896,0.517393,0.243472,0.167030,-16.214962,-11.126247,-6.516212,103.374435,-0.55582625,-2.5652266,1.8151432,0.49861035,0.24069858,-0.5502904
20231225 09:48:11,0.265684,-2.538837,-1.973720,0.412989,0.198727,0.139331,-15.830296,-11.271439,-7.708641,98.50501,-1.2182242,-2.520163,1.7499833,0.3849177,0.2008509,-0.44827187
20231225 09:48:11,0.183775,-2.493662,-2.462452,0.261709,0.131610,0.137200,-16.847538,-9.664371,-6.617928,95.372635,-1.7006209,-2.4558628,1.6430969,0.2734355,0.13287842,-0.2918572
20231225 09:48:11,0.032815,-2.353532,-2.862587,-0.032327,-0.044172,0.123351,-16.029808,-13.108063,-5.179253,105.53098,-2.151667,-2.225593,1.8135598,0.08024931,-0.050486933,0.03148538
20231225 09:48:11,0.036437,-2.280288,-2.955907,-0.130339,-0.088917,0.115893,-15.712097,-12.705147,-5.336372,104.24078,-2.241711,-2.1689262,1.7533605,0.016183428,-0.09668792,0.13859834
20231225 09:48:11,-0.130187,-2.001093,-2.603632,-0.399872,-0.165622,0.079671,-16.129688,-11.676201,-7.283287,100.95734,-1.9072917,-1.7955151,1.6851305,-0.18425171,-0.19736306,0.40074527
20231225 09:48:11,-0.243673,-1.899155,-2.320602,-0.471250,-0.176275,0.072214,-16.229668,-9.240467,-6.639442,99.32972,-1.7007642,-1.7063518,1.7001691,-0.250444,-0.21832742,0.45701066
20231225 09:48:11,-0.463369,-1.760688,-1.523366,-0.556478,-0.193321,0.062626,-15.860508,-12.628437,-4.806969,113.90404,-1.226345,-1.6596283,1.9360721,-0.34511203,-0.24700575,0.49241143
20231225 09:48:11,-0.549193,-1.723077,-0.780499,-0.576720,-0.210366,0.055168,-15.958088,-12.347908,-5.228172,114.899925,-0.7821059,-1.7037326,1.8230069,-0.4018513,-0.2676709,0.48979512
20231225 09:48:11,-0.659654,-1.646403,-0.114000,-0.553282,-0.242327,0.053038,-15.851929,-12.341530,-5.093559,115.213135,-0.4834388,-1.6850055,1.619537,-0.38897443,-0.29081762,0.49457937
20231225 09:48:11,-0.504290,-1.564836,0.170803,-0.495753,-0.270026,0.047711,-15.825035,-12.056473,-5.111900,114.01343,-0.22321653,-1.5989673,1.385919,-0.35175073,-0.30170894,0.48204508
20231225 09:48:11,-0.342852,-1.499506,0.139207,-0.421179,-0.249784,0.034927,-15.754734,-12.430168,-4.952827,114.37053,-0.13474077,-1.5163116,1.2411596,-0.30168378,-0.26821625,0.4276124
20231225 09:48:11,-0.164504,-1.453917,0.051217,-0.340212,-0.205040,0.013620,-16.036968,-12.261116,-5.100655,112.43,-0.085743174,-1.455983,1.1443679,-0.2578069,-0.20879743,0.35483113
20231225 09:48:11,0.142345,-1.458854,-0.088593,-0.288010,-0.167752,-0.027929,-15.887787,-12.721607,-5.069099,112.40474,0.02996355,-1.4629954,0.9907403,-0.24533296,-0.1617906,0.30932143
20231225 09:48:11,0.306036,-1.387898,-0.162635,-0.258180,-0.124073,-0.085458,-16.336361,-12.665882,-4.675301,112.09383,0.106239446,-1.3986188,0.8551284,-0.25710332,-0.119025625,0.2767218
20231225 09:48:11,0.275418,-1.201840,-0.095834,-0.232612,-0.079328,-0.131268,-15.930424,-12.446625,-4.685570,112.47014,0.1472989,-1.2034539,0.7111707,-0.26334125,-0.07875146,0.24311538
20231225 09:48:11,0.014172,-0.843393,0.149472,-0.201717,-0.051629,-0.170685,-15.454189,-12.601067,-4.536766,114.1519,0.12725571,-0.8459294,0.5296036,-0.2629748,-0.05311366,0.21991059
20231225 09:48:11,-0.424146,-0.435873,0.217440,-0.148450,-0.029257,-0.189862,-16.054131,-12.834934,-4.527473,114.92296,-0.1372954,-0.4829253,0.5098918,-0.23465842,-0.027185965,0.17865467
20231225 09:48:11,-0.930584,-0.038086,0.112215,-0.080267,0.005899,-0.172816,-15.173992,-9.909264,-7.121162,104.14275,-0.585873,-0.16839491,0.6552244,-0.17683995,0.016838314,0.08211267
20231225 09:48:11,-1.317585,0.320246,-0.116938,0.001764,0.060232,-0.122745,-14.740776,-9.596840,-6.869301,104.95376,-1.0485646,0.12348294,0.7550803,-0.09470516,0.07900195,-0.01967104
20231225 09:48:11,-1.492773,0.408770,-0.514178,0.088058,0.126284,-0.060955,-15.226360,-9.345528,-7.292458,103.317604,-1.4447525,0.23591277,0.92567855,-0.009498708,0.1489682,-0.13821276
20231225 09:48:11,-1.495082,0.416946,-1.000304,0.154109,0.183813,0.001901,-15.394505,-10.400822,-6.823326,106.224686,-1.7860711,0.34798038,1.0650978,0.06291196,0.2033782,-0.23192944
20231225 09:48:11,-1.273489,0.034282,-1.505490,0.148783,0.191270,0.046646,-15.707455,-9.495472,-5.679802,104.93075,-1.9499683,0.10826726,1.2065138,0.09816368,0.19953837,-0.2401941
20231225 09:48:11,-0.754496,-0.388967,-1.671439,0.088058,0.117761,0.046646,-15.304626,-13.253445,-4.224754,113.41755,-1.7168167,-0.28558397,1.2348008,0.08070937,0.119471185,-0.14888766
20231225 09:48:11,-0.256449,-0.653417,-1.858461,0.009222,0.026141,0.020012,-15.164795,-13.617065,-4.467567,111.064865,-1.5653259,-0.5627893,1.0047729,0.019898437,0.025402138,-0.02707599
20231225 09:48:11,-0.148425,-0.619875,-2.048240,-0.076006,-0.019669,-0.001295,-15.093075,-12.856911,-4.516472,108.362335,-1.6699425,-0.5353091,0.88114077,-0.047278356,-0.022183118,0.07146563
20231225 09:48:11,-0.058406,-0.480100,-1.930111,-0.153776,-0.024996,-0.020471,-15.226128,-13.148342,-4.632759,108.65106,-1.5233563,-0.4007578,0.7140503,-0.110805154,-0.029225195,0.13908277
20231225 09:48:11,-0.194514,-0.079794,-1.637954,-0.202782,-0.011146,-0.034321,-15.174141,-13.520195,-4.741936,110.608536,-1.3931885,0.035177723,0.5564396,-0.15168658,-0.02081804,0.17304233
20231225 09:48:11,-0.550451,0.477484,-1.231830,-0.201717,0.016553,-0.035386,-15.216393,-13.437103,-4.077919,114.67856,-1.3487397,0.5662348,0.47761884,-0.15648122,7.945611E-4,0.15624222
20231225 09:48:11,-0.918031,0.784063,-0.890545,-0.166561,0.032533,-0.043909,-15.015995,-13.885666,-4.716499,115.844185,-1.3758862,0.78782815,0.5019606,-0.14458483,0.01773921,0.121454634
20231225 09:48:11,-1.130440,1.029648,-0.616641,-0.121816,0.014422,-0.054562,-15.040321,-13.612534,-4.064705,117.80903,-1.3578815,0.9505546,0.46164566,-0.12167579,0.006191193,0.10126011
20231225 09:48:11,-1.235873,1.161645,-0.431374,-0.081333,-0.034584,-0.064151,-14.891525,-13.881134,-4.313637,117.76984,-1.3057212,1.0388964,0.40233558,-0.09514642,-0.034680862,0.10112883
20231225 09:48:11,-1.083797,1.078098,-0.409267,-0.068548,-0.116616,-0.067347,-15.155830,-13.522045,-4.473686,115.64479,-1.1566179,0.99192876,0.29539353,-0.0797964,-0.11385092,0.13987574
20231225 09:48:11,-0.720617,0.843806,-0.339191,-0.087725,-0.230608,-0.072673,-15.137516,-13.523895,-4.205452,114.84481,-0.79765916,0.8160525,0.10969382,-0.095703155,-0.2300382,0.22675522
20231225 09:48:11,-0.137080,0.483051,-0.173403,-0.134600,-0.374430,-0.086523,-14.318863,-13.740437,-4.585075,114.18339,-0.22304043,0.48329225,-0.16107284,-0.15349461,-0.37472174,0.36014658
20231225 09:48:11,0.330478,0.262925,-0.085690,-0.186802,-0.523579,-0.118483,-14.502598,-10.624760,-6.129997,100.922325,0.18357626,0.24814834,-0.4044603,-0.23404913,-0.52053356,0.5126077
20231225 09:48:11,0.615159,0.281251,-0.001634,-0.223024,-0.616264,-0.166424,-14.512333,-10.336002,-6.684822,97.29022,0.449276,0.24609992,-0.6322128,-0.3092809,-0.6112184,0.60474306
20231225 09:48:11,0.653213,0.418658,-0.031978,-0.234743,-0.645028,-0.237802,-14.827469,-10.180733,-5.894264,98.725494,0.45509988,0.38485616,-0.75268966,-0.36521652,-0.6438866,0.6393223
20231225 09:48:11,0.375065,0.630429,0.069079,-0.223024,-0.613068,-0.329422,-14.439846,-9.959625,-6.172783,99.70563,0.3175737,0.62782466,-0.7112574,-0.3964877,-0.61396503,0.621603
20231225 09:48:11,-0.132614,0.869050,0.338621,-0.181475,-0.560866,-0.419977,-14.442032,-10.709702,-6.525764,105.047005,0.08593954,0.8353906,-0.5699323,-0.38664618,-0.54367745,0.5919796
20231225 09:48:11,-0.665342,1.046022,0.737836,-0.099444,-0.494814,-0.475375,-14.036633,-13.909485,-4.437248,119.057236,-0.04954326,0.9324108,-0.45585138,-0.3621139,-0.4639332,0.54701984
20231225 09:48:11,-0.993463,1.211385,1.036849,0.006026,-0.463919,-0.499878,-14.772797,-11.895802,-4.040138,115.4413,-0.12090379,0.99818987,-0.4190816,-0.2939492,-0.4100815,0.4521124
20231225 09:48:11,-1.225058,1.345174,0.892460,0.091254,-0.474573,-0.498813,-14.641811,-14.255852,-2.946999,123.09769,-0.39743745,1.0615536,-0.2528048,-0.22763719,-0.39329368,0.4031781
20231225 09:48:11,-1.332628,1.494549,0.440595,0.151979,-0.470311,-0.484963,-14.395439,-14.804981,-2.774712,124.078804,-0.7812208,1.242561,-0.013838157,-0.18583229,-0.37692887,0.33271095
20231225 09:48:11,-1.351579,1.532141,0.007858,0.193527,-0.446874,-0.488159,-14.388660,-15.460037,-3.133797,123.98919,-1.1090192,1.3192637,0.2026314,-0.16874652,-0.33572355,0.26978624
20231225 09:48:11,-1.508730,1.726990,-0.279984,0.236141,-0.388279,-0.508401,-14.324753,-15.370564,-2.335182,126.22934,-1.4846663,1.4990475,0.40075412,-0.16203818,-0.24534902,0.20242
20231225 09:48:11,-1.715913,1.965936,-0.322478,0.295801,-0.282810,-0.553145,-14.209633,-15.269169,-2.206688,127.58751,-1.7428287,1.6574554,0.4950656,-0.16902117,-0.09807109,0.11819336
20231225 09:48:11,-2.212379,2.493854,-0.030384,0.385290,-0.161360,-0.609609,-14.148300,-15.737885,-2.041512,131.28807,-2.0935166,1.853389,0.5629719,-0.15891102,0.101626106,0.027660027
20231225 09:48:11,-3.092355,3.174003,0.377718,0.507805,-0.053760,-0.625589,-13.495987,-16.067757,-1.879509,136.3808,-2.7957816,1.8290846,0.84031016,-0.09378496,0.31334603,-0.083957046
20231225 09:48:11,-4.125610,3.770039,0.640517,0.633516,0.043187,-0.541427,-13.858906,-16.753876,-1.972313,139.47287,-3.7379384,1.5650345,1.3039776,0.031896323,0.46826756,-0.24327302
20231225 09:48:11,-4.697185,4.173948,0.706626,0.797579,0.164636,-0.378428,-14.271233,-16.509968,-1.322472,141.21953,-4.2914305,1.5227351,1.6948996,0.18056336,0.579054,-0.5034464
20231225 09:48:11,-4.695870,4.431119,0.312003,0.971231,0.347876,-0.182404,-13.876064,-17.327698,-1.399147,142.23898,-4.6206264,1.9051297,2.0017147,0.30031663,0.6992756,-0.82042235
20231225 09:48:11,-3.961888,3.807348,-0.146271,1.010649,0.468260,-0.006622,-13.884644,-17.614605,-1.112556,139.4283,-3.8935912,2.3009152,1.8241221,0.40708208,0.6961832,-0.9944429
20231225 09:48:11,-2.519600,3.216848,0.152804,0.882807,0.367052,0.106305,-14.016663,-16.580299,-1.717262,130.48059,-2.1496165,2.5811405,0.5433292,0.51077276,0.48069304,-0.9189705
20231225 09:48:11,-1.193730,2.595883,0.415899,0.630320,0.146525,0.196860,-13.743393,-16.844364,-1.563347,126.770386,-0.6290976,2.468465,-0.50121886,0.5313456,0.17059104,-0.640845
20231225 09:48:11,0.484442,1.844025,1.100584,0.322434,-0.128334,0.253323,-13.670525,-16.659878,-0.770836,125.17362,1.3053634,1.8904027,-1.8133135,0.39121968,-0.1317022,-0.26400262
20231225 09:48:11,2.934281,0.780565,2.144860,-0.050438,-0.384018,0.162769,-13.901154,-16.670788,-1.308296,127.18462,3.7171168,0.41877347,-3.3150191,-0.020690843,-0.3190432,0.19485581
20231225 09:48:11,3.407132,0.285845,2.551189,-0.135665,-0.401064,0.105240,-13.901154,-16.670788,-1.308296,129.55975,4.2237554,-0.18956727,-3.4441683,-0.13149461,-0.3210071,0.27651656
20231225 09:48:11,3.911334,-0.703041,3.726735,-0.259246,-0.401064,0.010424,-13.679874,-16.563007,-1.045204,134.55751,4.969831,-1.2639465,-3.6355693,-0.2858839,-0.3021293,0.3648223
20231225 09:48:11,4.219134,-2.028666,5.149862,-0.305056,-0.435155,-0.057759,-13.715733,-16.943085,-1.020744,138.27597,5.3887644,-2.6406236,-3.7485204,-0.35113716,-0.328979,0.4148881
20231225 09:48:11,4.370488,-3.172556,6.231050,-0.241135,-0.484161,-0.128071,-13.941605,-15.645733,-0.571785,136.85286,5.4613194,-3.8421469,-3.3795888,-0.29990023,-0.40010658,0.47085193
20231225 09:48:11,4.387162,-4.044637,6.534539,-0.071745,-0.498010,-0.212234,-13.652596,-16.469837,-0.783058,139.86075,5.3071995,-4.7612047,-3.231073,-0.1425484,-0.46548632,0.48777613
20231225 09:48:11,4.307783,-4.389318,6.040611,0.170089,-0.444743,-0.339010,-13.538891,-17.502293,-0.446587,141.5413,5.17749,-5.0522933,-2.8993356,0.0651981,-0.4966473,0.4913396
20231225 09:48:11,3.520888,-3.841515,4.942198,0.439623,-0.317966,-0.473244,-13.387524,-17.212700,-0.062080,139.48392,4.588488,-4.142625,-2.3447251,0.2397046,-0.44771084,0.39119172
20231225 09:48:11,2.154282,-2.493152,3.493042,0.676130,-0.164556,-0.556341,-13.486523,-18.066029,-0.275307,137.68211,3.4358876,-2.4881842,-1.8591571,0.29978114,-0.27432784,0.1148282
20231225 09:48:12,0.583348,-0.963221,1.950271,0.759227,-0.069740,-0.551015,-13.714581,-17.518753,-0.179321,134.29558,1.7518373,-0.99619997,-0.8902745,0.20694506,-0.03274216,-0.17625487
20231225 09:48:12,-0.734912,0.511212,0.672075,0.618601,-0.121942,-0.461525,-13.247311,-17.768211,-0.024422,135.81477,-0.037574828,0.2970266,0.03847146,0.0613288,0.035086043,-0.21569017
20231225 09:48:12,-1.474670,1.392370,-0.456613,0.302193,-0.263634,-0.327292,-13.525719,-18.620518,-1.445244,133.62492,-1.5366958,1.1911055,0.8300611,-0.02233012,-0.1183167,-0.015687913
20231225 09:48:12,-1.717350,1.545313,-1.090922,-0.061091,-0.352058,-0.197319,-12.649021,-14.865383,-2.485466,127.77911,-2.2442722,1.4389402,1.1284711,-0.08735433,-0.2856099,0.27089196
20231225 09:48:12,-1.714221,1.129992,-1.000785,-0.323167,-0.295594,-0.080131,-12.807816,-16.017548,-1.741982,131.68192,-2.0626802,1.0095091,1.2467682,-0.19170627,-0.321647,0.42329377
20231225 09:48:12,-1.464593,0.282949,-0.137789,-0.406264,-0.141119,-0.005556,-12.831104,-14.418671,-1.578636,131.0891,-1.1789997,0.06063791,0.9452501,-0.26931745,-0.2022473,0.36438623
20231225 09:48:12,-1.439495,-0.635557,0.765532,-0.347670,0.008030,0.035992,-12.833675,-14.976860,-2.212074,132.85709,-0.5869913,-0.9538411,0.846952,-0.2525075,-0.053288896,0.19109212
20231225 09:48:12,-1.412393,-1.363779,1.362508,-0.192129,0.133741,0.069018,-12.682308,-14.687275,-1.827568,134.35371,-0.2849095,-1.7006376,0.8058704,-0.13566808,0.09440732,-0.012403015
20231225 09:48:12,-1.277269,-1.862578,1.535550,0.013483,0.230688,0.120155,-12.703075,-17.145020,-1.399406,139.39093,-0.11953932,-2.1437943,0.7171391,0.054636203,0.21925305,-0.21175447
20231225 09:48:12,-0.860915,-2.242571,1.238014,0.200985,0.280759,0.177683,-12.743256,-14.410439,-1.712273,132.82288,0.039140522,-2.3607416,1.1386702,0.2506081,0.2864897,-0.38355148
20231225 09:48:12,-0.064528,-2.513664,0.461243,0.319238,0.285021,0.212840,-13.139614,-18.529392,1.232071,140.07375,0.18880872,-2.5079541,1.0663477,0.38629463,0.282659,-0.4668799
20231225 09:48:12,0.758698,-2.699745,-0.574262,0.339480,0.267975,0.219232,-12.714611,-17.798225,-2.026726,133.34218,-0.007171631,-2.8130066,1.3859288,0.42598593,0.2448429,-0.48127872
20231225 09:48:12,1.482763,-2.887212,-1.478498,0.262775,0.217904,0.188337,-13.393650,-15.040016,-0.471901,123.279366,-0.40639263,-3.3970666,1.4491415,0.36054683,0.18380609,-0.3879134
20231225 09:48:12,2.039126,-2.869139,-2.186860,0.107234,0.168898,0.132939,-12.549252,-14.395832,-1.711296,117.85105,-0.74331355,-3.8578525,1.1491969,0.21012756,0.15955669,-0.22669289
20231225 09:48:12,2.241697,-2.770649,-2.484876,-0.078137,0.136937,0.064757,-12.489071,-14.288883,-2.387520,115.086105,-0.84007406,-3.9575975,0.94873416,0.027952932,0.16742925,-0.05243385
20231225 09:48:12,2.193353,-2.578870,-2.329419,-0.244331,0.107107,-0.011949,-12.734676,-14.123535,-1.998848,115.791954,-0.64842474,-3.5975027,0.82375306,-0.15271328,0.16162656,0.10727231
20231225 09:48:12,1.773528,-2.298290,-1.922684,-0.361519,0.081539,-0.087588,-12.743641,-14.218555,-1.992729,118.4276,-0.47442716,-2.863801,0.8050918,-0.3006432,0.12569427,0.23583913
20231225 09:48:12,1.126569,-1.836684,-1.359603,-0.429702,0.080474,-0.130202,-12.567566,-14.393986,-1.979530,123.56543,-0.24556851,-1.9757878,0.8473942,-0.39358157,0.098148204,0.3035261
20231225 09:48:12,0.397795,-1.393962,-0.581779,-0.443551,0.081539,-0.133398,-12.671925,-13.458397,-2.041634,124.26857,-0.08368334,-1.378872,0.8139479,-0.41703802,0.0764841,0.3073763
20231225 09:48:12,-0.141011,-1.052326,-0.035613,-0.428636,0.078343,-0.090784,-12.638020,-17.631214,0.240639,137.94673,-0.078480385,-1.0554888,0.6405773,-0.3844603,0.05929209,0.29568315
20231225 09:48:12,-0.280609,-0.930440,0.405619,-0.384957,0.087931,-0.018341,-12.827377,-14.436150,-0.103775,131.98262,0.084195,-0.9593501,0.5023387,-0.31025502,0.06937992,0.20687428
20231225 09:48:12,-0.067903,-1.049113,0.696582,-0.312513,0.106042,0.037057,-12.850719,-17.452084,-0.309052,136.86026,0.38945407,-1.0590297,0.20648119,-0.22460018,0.10036711,0.114271715
20231225 09:48:12,0.244928,-1.136922,0.822807,-0.224089,0.122022,0.057299,-13.044342,-17.658585,-0.029564,136.65227,0.69615245,-1.1348398,-0.008040786,-0.14038602,0.12340076,0.039721984
20231225 09:48:12,0.389826,-1.182690,0.651450,-0.139927,0.143329,0.060495,-12.956108,-17.842243,0.117279,136.93463,0.702765,-1.1812469,0.013638437,-0.06984848,0.14519753,-0.022822063
20231225 09:48:12,0.385028,-1.004403,0.498322,-0.061091,0.156113,0.060495,-12.480106,-14.193867,-2.393639,126.04364,0.61118793,-1.00401,0.13909185,-0.0054490417,0.15692641,-0.08206575
20231225 09:48:12,0.264012,-0.666925,0.069008,0.013483,0.176355,0.058364,-12.275986,-14.659904,-1.557381,127.71637,0.24925539,-0.6626269,0.15682818,0.047141448,0.17535788,-0.13349439
20231225 09:48:12,-0.060370,-0.074624,-0.502198,0.082731,0.237080,0.071149,-12.409809,-14.567566,-2.234581,124.314,-0.41709548,-0.03775046,0.26642054,0.08814958,0.23556603,-0.21422142
20231225 09:48:12,-0.609968,0.535520,-1.043125,0.127476,0.335092,0.119089,-12.400845,-14.472546,-2.240685,125.07646,-1.2742498,0.6250136,0.5880047,0.11248334,0.32322568,-0.30473763
20231225 09:48:12,-1.005082,0.962227,-1.285807,0.134933,0.422450,0.201121,-12.391880,-14.377525,-2.246803,125.65261,-1.7935467,1.0508363,0.80454826,0.15027636,0.38714302,-0.37474695
20231225 09:48:12,-1.055483,0.916594,-1.250224,0.115757,0.477849,0.288480,-12.602158,-17.251133,0.216187,136.0094,-1.7740692,0.9806011,1.0073664,0.20733023,0.42785197,-0.41166103
20231225 09:48:12,-0.697802,0.640684,-1.010707,0.071012,0.470391,0.352400,-13.176628,-18.333797,0.415108,135.27995,-1.2896835,0.68616503,0.7141379,0.2655837,0.43231007,-0.41452447
20231225 09:48:12,-0.241297,0.313571,-0.784979,0.016679,0.417124,0.381165,-12.874660,-17.370842,0.623207,133.75697,-0.7704306,0.34116232,0.38822317,0.28192842,0.3985022,-0.3758679
20231225 09:48:12,0.225503,-0.195854,-0.706976,-0.017412,0.365987,0.379034,-12.497269,-14.767681,-1.820473,124.08817,-0.3754457,-0.20262969,0.20651406,0.2725394,0.36891085,-0.33232033
20231225 09:48:12,0.545633,-0.367712,-0.664399,0.002830,0.356399,0.338551,-12.771305,-14.119835,-2.535347,119.750145,-0.13772294,-0.3956997,0.02836506,0.26214427,0.36440486,-0.3214045
20231225 09:48:12,0.509788,-0.388363,-0.805906,0.074208,0.402209,0.297002,-12.647598,-13.731529,-2.693428,118.35085,-0.28296775,-0.39481652,0.083615914,0.27600828,0.40341446,-0.3781861
20231225 09:48:12,0.243591,-0.327791,-1.084997,0.146652,0.471456,0.273565,-12.431343,-16.641533,-2.367363,125.74852,-0.6801113,-0.2858847,0.37547696,0.2894989,0.4660036,-0.45474598
20231225 09:48:12,0.131973,-0.183342,-1.310595,0.186070,0.508744,0.263977,-12.498421,-14.192017,-2.661888,119.38302,-0.9471842,-0.122302055,0.38624376,0.30046034,0.5028169,-0.49738967
20231225 09:48:12,0.135211,-0.280151,-1.490383,0.177547,0.503417,0.258650,-12.480492,-14.001976,-2.674110,118.31162,-1.0953826,-0.2199532,0.46722537,0.29423505,0.4981796,-0.48291257
20231225 09:48:12,0.300068,-0.477912,-1.647480,0.111495,0.449084,0.253323,-12.552208,-14.762131,-2.625206,118.50716,-1.1323012,-0.47826874,0.4890281,0.26934573,0.4491163,-0.4001245
20231225 09:48:12,0.503921,-0.553156,-1.608757,0.030529,0.377706,0.236278,-12.276756,-14.276123,-2.118309,118.58483,-0.9816855,-0.6242304,0.370495,0.21882592,0.38493747,-0.29648575
20231225 09:48:12,0.763491,-0.723266,-1.635863,-0.044045,0.305262,0.208579,-12.367554,-14.650658,-2.898598,115.9382,-0.8679016,-0.86948967,0.23431084,0.1575678,0.32038125,-0.18944518
20231225 09:48:12,0.922318,-0.646710,-1.696815,-0.089855,0.279694,0.173422,-12.998215,-14.148224,-1.597954,115.901695,-0.8469866,-0.8311671,0.05710289,0.1059812,0.29725423,-0.124758534
20231225 09:48:12,0.826649,-0.560762,-1.865330,-0.098378,0.309524,0.143592,-12.258442,-14.277973,-1.850060,117.16364,-1.0530303,-0.69364196,0.12259123,0.075185224,0.32051995,-0.12029402
20231225 09:48:12,0.762082,-0.491197,-1.906900,-0.105836,0.343615,0.113763,-12.444401,-17.424721,-0.038857,126.91539,-1.1429081,-0.6240393,0.2633018,0.050626133,0.35316485,-0.111153275
20231225 09:48:12,0.708638,-0.220095,-1.867814,-0.133535,0.334027,0.078606,-12.758617,-14.042294,-1.066597,118.06679,-1.1531031,-0.2556124,0.014265418,-0.0046633333,0.33652973,-0.07526528
20231225 09:48:12,0.388639,0.131564,-1.946008,-0.176149,0.295674,0.059430,-12.767849,-15.846832,-0.011101,125.31791,-1.441008,0.23044166,0.21513295,-0.057302464,0.28753272,0.0016640071
20231225 09:48:12,0.111016,0.526051,-1.953096,-0.230481,0.259452,0.063691,-12.832790,-17.262043,-0.321281,127.34807,-1.6447128,0.6892257,0.3046311,-0.08721581,0.24150729,0.0691587
20231225 09:48:12,0.017369,0.904212,-1.868832,-0.301860,0.217904,0.081802,-12.762875,-17.443859,-0.442680,127.64533,-1.6539086,1.060596,0.20743594,-0.10693755,0.1939609,0.14117937
20231225 09:48:12,0.015212,1.272088,-1.510542,-0.384957,0.166767,0.122285,-12.666069,-17.340607,-0.582436,128.03854,-1.343961,1.3775,-0.051611662,-0.12052386,0.13906625,0.20934294
20231225 09:48:12,0.161512,1.336037,-1.034952,-0.460597,0.097519,0.176618,-12.720623,-17.526951,-1.106697,126.87946,-0.7702364,1.3565785,-0.39234763,-0.12715468,0.08828915,0.26666966
20231225 09:48:12,0.703584,1.172338,-0.546367,-0.498949,0.039991,0.198990,-12.662189,-13.747154,-1.486809,118.34449,0.08638835,1.1043967,-1.032692,-0.15690039,0.074810855,0.30660826
20231225 09:48:12,1.268590,0.992014,-0.030055,-0.497884,-0.019669,0.164899,-12.384216,-17.317772,-0.715096,128.52533,0.92882806,0.85715574,-1.450768,-0.21187264,0.045834407,0.31331974
20231225 09:48:12,1.745294,0.924083,0.282440,-0.453139,-0.064414,0.091390,-12.730740,-17.046303,-1.942009,124.91501,1.5221865,0.7197483,-1.903228,-0.2525667,0.008356109,0.33161482
20231225 09:48:12,1.925205,1.015882,0.351517,-0.382826,-0.061218,0.004032,-12.439659,-15.218922,-3.130150,118.32267,1.7001616,0.7953173,-2.1359994,-0.26456818,-0.009483177,0.3172613
20231225 09:48:12,1.774237,1.346832,0.428048,-0.315709,-0.035649,-0.064151,-11.923187,-13.493130,-2.299873,116.9739,1.6426454,1.2014135,-2.253378,-0.25992626,-0.010788975,0.27749276
20231225 09:48:12,1.356766,1.821291,0.413077,-0.276291,-0.009016,-0.085458,-12.406467,-14.393154,-1.040184,121.5453,1.3159258,1.7614517,-2.174282,-0.24287862,0.0014729546,0.24580187
20231225 09:48:12,0.988770,2.349760,0.606274,-0.243266,0.031468,-0.079065,-11.936794,-16.797825,-1.950325,126.292015,1.1715815,2.3410695,-2.1888654,-0.21377787,0.03536887,0.20221221
20231225 09:48:12,0.552477,2.790295,0.928892,-0.166561,0.094323,-0.069477,-12.058811,-14.342754,-3.049583,119.55669,1.0282104,2.7827976,-2.2505221,-0.16042407,0.093339056,0.0989747
20231225 09:48:12,0.073333,3.288039,1.304924,-0.034457,0.166767,-0.056693,-12.939720,-16.884647,-1.016838,129.35927,0.84556067,3.196005,-2.1720753,-0.076405585,0.16806117,-0.031536013
20231225 09:48:12,-0.515082,3.843546,1.537486,0.156240,0.250929,-0.039648,-12.472443,-17.134109,-0.861931,132.3604,0.42552233,3.570763,-1.9831665,0.035774216,0.26722014,-0.22084942
20231225 09:48:12,-1.080415,4.285471,1.341599,0.384224,0.355334,-0.017275,-12.912437,-16.791477,-0.754707,132.75494,-0.4070791,3.7516043,-1.5083623,0.14348552,0.40222487,-0.45732418
20231225 09:48:12,-1.719735,4.543327,0.770441,0.573856,0.462934,0.025339,-12.693344,-17.433777,-0.844566,135.70479,-1.5812073,3.7812746,-0.6930616,0.22184086,0.53633755,-0.66630787
20231225 09:48:12,-2.060877,4.382801,0.461530,0.645235,0.476783,0.094586,-12.666069,-17.340607,-0.582436,136.87166,-2.0448644,3.588362,-0.17921834,0.30254474,0.545916,-0.7555741
20231225 09:48:12,-1.874716,3.966461,0.290266,0.591967,0.378771,0.180879,-12.973122,-14.805126,-1.688789,128.27892,-1.7992275,3.4026806,-0.29819244,0.38212776,0.4159756,-0.719712
20231225 09:48:12,-1.179321,3.486512,0.080509,0.477975,0.271171,0.262911,-12.781189,-17.442009,-0.710930,131.60976,-1.1709431,3.2709417,-0.49882886,0.43466806,0.27513218,-0.6070833
20231225 09:48:12,-0.281938,2.757403,-0.127754,0.346937,0.256256,0.315113,-12.938950,-17.268429,-0.455894,128.40564,-0.40760246,2.7483563,-0.97166836,0.44402254,0.25219607,-0.51224154
20231225 09:48:12,0.650864,1.986503,0.291002,0.207377,0.267975,0.303394,-12.393181,-17.412788,-0.708977,129.70221,0.7101583,1.975615,-1.6024114,0.3746298,0.2721337,-0.41633332
20231225 09:48:12,1.162372,1.241290,1.179378,0.077404,0.234949,0.247996,-13.308258,-17.491383,0.090874,132.17773,1.7271198,1.2325553,-2.0439599,0.23967467,0.24410173,-0.30153802
20231225 09:48:12,1.518510,0.274896,2.309587,-0.028065,0.150787,0.165965,-12.948299,-17.171555,-0.730247,134.63254,2.5933151,0.28721666,-2.363168,0.084046304,0.1636316,-0.16500324
20231225 09:48:12,1.864654,-0.753967,3.324502,-0.077071,0.067690,0.057299,-12.323116,-13.983669,-3.209618,130.0526,3.181275,-0.7505065,-2.2697449,-0.03571164,0.07933028,-0.04027006
20231225 09:48:12,1.966721,-1.865706,4.212074,-0.076006,0.005899,-0.067347,-12.798965,-14.021114,-3.077950,132.23807,3.3384686,-1.8769509,-2.0923398,-0.09557555,0.010853728,0.066875085
20231225 09:48:12,1.729277,-2.991333,5.007020,-0.034457,-0.031388,-0.178143,-12.621624,-16.673622,-0.893471,140.94025,3.026413,-2.9985967,-2.4167764,-0.08496069,-0.03276842,0.1613218
20231225 09:48:12,1.421056,-3.868615,5.861030,0.067816,-0.064414,-0.269763,-13.349762,-16.894543,-2.761894,139.99957,2.633111,-3.86887,-2.2665129,0.006230753,-0.07031322,0.22707018
20231225 09:48:12,1.000710,-4.548225,6.252799,0.237206,-0.107028,-0.365644,-12.683075,-14.303493,-2.388496,137.01868,2.1431572,-4.547246,-1.6341608,0.16487506,-0.108556725,0.29034185
20231225 09:48:12,0.319788,-4.658590,5.943277,0.411923,-0.163491,-0.458329,-12.905277,-17.638428,-0.833321,143.12921,1.603792,-4.705677,-1.9830377,0.30991915,-0.13318476,0.36902156
20231225 09:48:12,-0.512668,-4.241397,4.998263,0.540831,-0.235935,-0.516924,-12.929985,-17.173405,-0.461998,142.65047,1.099576,-4.4732895,-1.1947548,0.3813681,-0.13794404,0.37597978
20231225 09:48:12,-1.294499,-3.282064,3.548723,0.570660,-0.321163,-0.519054,-12.586800,-17.619282,-0.429482,144.19763,0.6347512,-3.8365445,-0.31573224,0.335274,-0.13190332,0.3078897
20231225 09:48:12,-1.913222,-2.028658,1.722331,0.482237,-0.370169,-0.451937,-12.523277,-17.337925,0.088661,145.02814,-0.20637035,-2.7981641,0.9091331,0.22229365,-0.11634495,0.19398426
20231225 09:48:12,-2.248889,-1.005326,0.100190,0.296866,-0.344600,-0.341141,-12.762489,-17.635742,-0.162216,145.02953,-1.2315314,-1.6445942,1.926782,0.10503538,-0.108924165,0.13301139
20231225 09:48:12,-2.395456,-0.136988,-1.032329,0.066751,-0.249784,-0.217561,-12.596149,-17.522415,-0.703850,144.72047,-2.1586237,-0.5002997,2.430116,-0.0011966228,-0.10545047,0.15487657
20231225 09:48:12,-2.528992,0.440293,-1.403554,-0.163364,-0.102766,-0.080131,-12.974808,-17.648502,-0.431435,144.63217,-2.701586,0.122124225,2.5264983,-0.11499937,-0.108860835,0.20552142
20231225 09:48:12,-2.449708,0.623356,-0.837298,-0.343408,0.014422,0.046646,-12.577450,-17.716156,-0.155128,144.56589,-2.3993263,0.10568991,2.039597,-0.20269579,-0.10513981,0.22501493
20231225 09:48:12,-2.303341,0.445385,-0.087553,-0.449943,0.073016,0.143592,-12.683613,-17.722530,-0.289742,143.18481,-1.8149275,-0.18887465,1.4784703,-0.24638438,-0.09283028,0.20323846
20231225 09:48:12,-1.945048,0.046177,0.611521,-0.477642,0.117761,0.217101,-12.684879,-15.245461,-2.461006,134.19531,-1.1017885,-0.5142099,0.9212767,-0.2495737,-0.037711855,0.1330716
20231225 09:48:12,-1.460243,-0.440461,1.306561,-0.413721,0.164636,0.259715,-13.196476,-17.564396,-0.975029,139.60431,-0.33947235,-0.8903575,0.31208378,-0.20202218,0.044680405,0.0058101714
20231225 09:48:12,-1.133668,-0.903159,1.760273,-0.265638,0.225361,0.290610,-12.842522,-16.973293,-0.876106,139.51123,0.13029975,-1.2590995,0.014334679,-0.08413923,0.14694087,-0.15471649
20231225 09:48:12,-0.772190,-1.330370,1.940354,-0.083463,0.280759,0.312983,-12.966995,-16.977818,-1.278969,138.53978,0.47410357,-1.5675817,-0.07398093,0.07182055,0.24213019,-0.31140786
20231225 09:48:12,-0.354523,-1.706680,1.786507,0.088058,0.301001,0.308721,-12.743526,-16.119965,-0.662895,137.72281,0.7274869,-1.8229246,0.03957379,0.22097307,0.29063293,-0.41247576
20231225 09:48:12,0.097359,-1.963860,1.180874,0.212703,0.311654,0.271434,-13.140118,-16.436089,-0.378258,136.626,0.8103756,-1.9974802,0.35242474,0.31631565,0.31261575,-0.46000698
20231225 09:48:12,0.264996,-2.019608,0.412611,0.276624,0.321242,0.223493,-13.373318,-17.005188,-1.549171,134.6885,0.538868,-2.0171278,0.76442164,0.3420665,0.3265887,-0.4744829
20231225 09:48:12,0.289837,-2.171341,-0.221133,0.276624,0.304197,0.190468,-12.718052,-16.968761,-0.473244,136.9738,0.17644571,-2.1447897,1.1248064,0.3237296,0.30995187,-0.4435512
20231225 09:48:12,0.408226,-2.362257,-0.622379,0.242533,0.247733,0.151050,-12.851337,-13.457378,-3.249229,124.20985,-0.0043011606,-2.3281355,1.5414294,0.2766567,0.2517302,-0.377812
20231225 09:48:12,0.517788,-2.447132,-1.099754,0.205246,0.177420,0.105240,-12.990936,-16.896576,-0.346718,134.79398,-0.2579608,-2.3936374,1.5529546,0.21846251,0.18115036,-0.28566715
20231225 09:48:12,0.468073,-2.507325,-1.598246,0.155175,0.103911,0.055168,-13.045876,-16.891029,-1.151451,132.15584,-0.6723639,-2.416625,1.7757881,0.14534628,0.108060315,-0.18994424
20231225 09:48:12,0.421457,-2.355207,-2.102492,0.081666,0.022945,0.016816,-13.073154,-16.984200,-1.413582,129.69562,-1.159643,-2.2039516,1.7651935,0.06514639,0.026076455,-0.08010015
20231225 09:48:12,0.384182,-2.260219,-2.669026,-0.015281,-0.032453,0.004032,-13.389561,-14.351852,-2.794289,119.192795,-1.6978189,-2.0391872,1.7121193,-0.003921989,-0.03345831,0.028267682
20231225 09:48:12,0.406545,-2.191777,-2.916887,-0.142057,-0.064414,0.001901,-13.141651,-15.668537,-1.500145,125.34501,-1.8842124,-1.9281104,1.7921691,-0.07989864,-0.07278295,0.14403057
20231225 09:48:12,0.341067,-2.093471,-2.726439,-0.261377,-0.074002,0.009358,-13.036911,-16.796009,-1.157555,129.41238,-1.7256577,-1.8837736,1.884774,-0.15544629,-0.08897004,0.23344658
20231225 09:48:12,0.379595,-2.014157,-2.169294,-0.355127,-0.096374,0.012554,-13.212986,-16.620583,-1.170769,130.24168,-1.2125878,-1.8873948,1.7459671,-0.23052253,-0.11303994,0.30279225
20231225 09:48:12,0.344578,-1.905325,-1.550448,-0.417983,-0.135792,0.001901,-13.485870,-16.548401,-1.044228,131.19035,-0.73122233,-1.7979963,1.5162933,-0.29056808,-0.15838866,0.36416206
20231225 09:48:12,0.228588,-1.668565,-1.080674,-0.451008,-0.192255,-0.011949,-13.398140,-14.638763,-2.507713,126.20112,-0.4522975,-1.5731889,1.3022633,-0.3265921,-0.2227074,0.42524895
20231225 09:48:13,0.073904,-1.380186,-0.585547,-0.459531,-0.265764,-0.023667,-13.221031,-13.488449,-2.982948,123.54975,-0.24589026,-1.3315911,1.049644,-0.3414813,-0.2956379,0.48112768
20231225 09:48:13,0.087240,-1.163660,-0.262047,-0.457401,-0.350992,-0.047105,-13.089783,-14.138977,-2.939186,125.01629,-0.04836735,-1.1416527,0.7673908,-0.35525644,-0.37400246,0.5388206
20231225 09:48:13,0.213723,-0.976350,-0.113907,-0.447812,-0.431959,-0.082262,-13.986546,-14.219421,-1.871071,124.98883,0.11761727,-0.9626889,0.50264305,-0.37354645,-0.44598076,0.5974511
20231225 09:48:13,0.368301,-0.837578,-0.125858,-0.432898,-0.477769,-0.124875,-13.681026,-15.987343,-1.886604,128.16159,0.2002761,-0.8300357,0.2989516,-0.39817876,-0.4825541,0.6262138
20231225 09:48:13,0.475285,-0.695351,-0.083791,-0.404133,-0.474573,-0.172816,-13.965832,-16.376480,-2.667854,126.90759,0.3077266,-0.68261373,0.12500949,-0.4046809,-0.4798673,0.6292835
20231225 09:48:13,0.296469,-0.457159,0.008387,-0.368977,-0.439416,-0.206907,-13.366104,-13.237324,-1.259163,125.057365,0.24134666,-0.44474944,0.072392315,-0.39536613,-0.4460401,0.60213196
20231225 09:48:13,0.091629,-0.198169,0.266000,-0.312513,-0.390410,-0.225018,-13.608921,-15.419071,-1.655052,128.85054,0.25865278,-0.2072973,-0.07127616,-0.3585344,-0.39570656,0.53920174
20231225 09:48:13,-0.282338,0.096583,0.424935,-0.223024,-0.308378,-0.238868,-13.422733,-16.075153,-0.806541,133.05576,0.068593755,0.027840637,-0.073974386,-0.2957505,-0.3057748,0.43677375
20231225 09:48:13,-0.636258,0.132707,0.516734,-0.097313,-0.198647,-0.248456,-13.632977,-13.436424,-2.052635,126.72654,-0.15213585,-0.013365168,0.113181084,-0.21212742,-0.17925835,0.29453492
20231225 09:48:13,-0.866560,-0.033835,0.667802,0.023071,-0.126204,-0.261240,-13.599190,-15.707832,-1.100227,133.74443,-0.24416903,-0.23312093,0.21638203,-0.13143149,-0.09035383,0.19452915
20231225 09:48:13,-0.778495,-0.473104,0.843215,0.111495,-0.149641,-0.292135,-13.750942,-15.805531,-1.765205,132.65155,-0.06406623,-0.64324975,0.2977955,-0.073453076,-0.10637677,0.17607963
20231225 09:48:13,-0.497722,-0.875909,0.741171,0.166893,-0.247653,-0.348599,-13.812542,-17.046337,-0.880989,135.3523,0.12219471,-0.97337544,0.3743191,-0.061034873,-0.20334454,0.23172325
20231225 09:48:13,-0.242284,-1.003354,0.166234,0.192462,-0.342469,-0.415715,-13.670525,-16.659878,-0.770836,133.75334,-0.0057951435,-1.0289165,0.62037396,-0.099472895,-0.29572248,0.28018272
20231225 09:48:13,-0.139079,-0.837248,-0.657415,0.190331,-0.370169,-0.476440,-14.101284,-14.512707,-1.719109,125.6872,-0.48643652,-0.78142333,0.8406856,-0.17178544,-0.30535263,0.2665287
20231225 09:48:13,-0.338797,-0.491488,-1.393453,0.169024,-0.330751,-0.515858,-13.987850,-17.254681,-0.333252,133.3125,-1.1885096,-0.30475545,1.0987539,-0.22860698,-0.21982314,0.24905401
20231225 09:48:13,-0.764543,-0.118026,-1.875947,0.123214,-0.278549,-0.523316,-13.926899,-17.531513,-0.448540,135.71169,-1.8530631,0.20849755,1.4709266,-0.25258988,-0.11201066,0.24611229
20231225 09:48:13,-1.231027,0.344014,-2.006421,0.078470,-0.235935,-0.499878,-13.556049,-18.076115,0.126572,140.24136,-2.3270547,0.67737484,1.7700565,-0.2532754,-0.039185584,0.24680018
20231225 09:48:13,-1.736135,0.781243,-2.110394,0.049705,-0.197582,-0.451937,-13.795265,-18.373928,-0.124306,142.63028,-2.8198113,1.0332091,2.11214,-0.21763343,0.018034011,0.2354611
20231225 09:48:13,-2.066435,0.955880,-2.141483,0.033725,-0.161360,-0.378428,-13.311600,-17.665798,-1.103523,140.80118,-3.0972133,1.1080701,2.297161,-0.18288955,0.024173602,0.20006606
20231225 09:48:13,-1.942201,0.944294,-2.132806,0.008157,-0.152837,-0.313442,-13.573830,-14.655220,-2.240440,132.06348,-3.0220814,1.1274915,2.0078862,-0.16706957,-0.017501272,0.17912717
20231225 09:48:13,-1.483026,0.772406,-2.019066,-0.062156,-0.203974,-0.282547,-13.371780,-17.772739,-0.427269,137.88727,-2.6208353,0.997684,1.7759895,-0.19070247,-0.120993674,0.25302652
20231225 09:48:13,-0.919100,0.494017,-1.758655,-0.163364,-0.315836,-0.277220,-13.741859,-17.611927,-0.441460,134.0036,-2.0123603,0.6910343,1.2551606,-0.25002936,-0.27517936,0.38261953
20231225 09:48:13,-0.477133,0.376362,-1.465950,-0.262442,-0.446874,-0.292135,-13.450665,-17.685947,-0.299759,133.85863,-1.4781456,0.5273566,0.837223,-0.3231904,-0.42709103,0.5323663
20231225 09:48:13,-0.219058,0.528914,-1.140976,-0.357258,-0.585369,-0.305985,-13.575134,-17.690483,-0.702614,131.24344,-1.071398,0.6198739,0.39288005,-0.40264857,-0.5788165,0.6806803
20231225 09:48:13,-0.051828,0.814391,-0.898056,-0.446747,-0.715341,-0.325161,-13.671947,-17.793732,-0.562874,131.45253,-0.8033709,0.8896823,0.030341536,-0.4637667,-0.7133729,0.81968844
20231225 09:48:13,-0.169641,1.074357,-0.836672,-0.514929,-0.789916,-0.343272,-13.327839,-15.012459,-2.348640,123.536674,-0.86787236,1.1389215,-0.13770214,-0.5030488,-0.7897749,0.9314962
20231225 09:48:13,-0.294794,1.280525,-0.587971,-0.549021,-0.784589,-0.363513,-13.416073,-14.828800,-2.495491,123.56741,-0.75842285,1.3026099,-0.2575842,-0.55508184,-0.78841114,0.972563
20231225 09:48:13,-0.297940,1.201413,0.000730,-0.546890,-0.755825,-0.405062,-13.958118,-14.701916,-0.767540,127.7281,-0.30457118,1.1700627,-0.44526562,-0.60743165,-0.76091886,0.98063916
20231225 09:48:13,-0.226942,0.937848,0.625260,-0.503210,-0.716407,-0.462591,-13.686920,-17.617474,0.363274,136.10324,0.19241515,0.8779812,-0.6598428,-0.63648444,-0.7188371,0.95227534
20231225 09:48:13,-0.321614,0.788700,1.242850,-0.410525,-0.661009,-0.529708,-13.546322,-18.364872,0.681412,139.31349,0.48834464,0.65272397,-0.903825,-0.6000428,-0.65232545,0.9006947
20231225 09:48:13,-0.859668,0.950546,1.775728,-0.258180,-0.574715,-0.558472,-13.960838,-18.871037,0.978264,141.17854,0.32729864,0.60974777,-0.9915893,-0.48105514,-0.5374143,0.7797253
20231225 09:48:13,-1.482432,1.272249,2.132246,-0.057895,-0.495880,-0.546753,-13.618423,-18.933132,0.449837,142.3197,-0.012660503,0.6192728,-0.94180214,-0.3062774,-0.40569776,0.6018727
20231225 09:48:13,-2.173811,1.676517,1.925354,0.138129,-0.422371,-0.495617,-13.564636,-18.363018,0.413155,142.80928,-0.75586355,0.67932993,-0.4535275,-0.12182999,-0.26494372,0.39316747
20231225 09:48:13,-2.416520,1.850171,1.711044,0.305389,-0.353123,-0.425304,-13.327610,-18.815281,0.311073,143.78313,-1.062222,0.72001827,-0.09001899,0.026447386,-0.15232725,0.1829034
20231225 09:48:13,-2.496973,2.115101,0.789849,0.420446,-0.299856,-0.360317,-13.239998,-15.004230,-2.482277,132.40727,-1.7337897,1.1440349,0.38053071,0.1229049,-0.08029995,0.01256755
20231225 09:48:13,-2.225234,1.962985,0.079006,0.490759,-0.229543,-0.323030,-13.124489,-15.094719,-2.073311,132.73476,-1.9373121,1.2884372,0.6911703,0.1576348,-0.011960253,-0.11425866
20231225 09:48:13,-2.002398,1.854210,-0.450365,0.564268,-0.101701,-0.325161,-13.037029,-14.894600,-2.487419,130.84526,-2.1115289,1.3980392,0.8414895,0.15260977,0.1241362,-0.2515378
20231225 09:48:13,-2.020183,1.852561,-0.646807,0.676130,0.073016,-0.360317,-13.521080,-15.410847,-1.788673,134.08379,-2.313266,1.3838457,1.0110533,0.14814427,0.3514128,-0.39932477
20231225 09:48:13,-2.564899,1.986138,-0.550890,0.836997,0.265844,-0.398670,-13.266891,-15.289288,-2.463936,135.79268,-2.7591224,1.1345923,1.3319695,0.1706675,0.643951,-0.57752025
20231225 09:48:13,-3.547276,2.555568,-0.325006,1.011714,0.411797,-0.394409,-13.088013,-18.709347,0.842422,151.25612,-3.630686,0.878533,2.108012,0.22159451,0.8921722,-0.6793762
20231225 09:48:13,-4.749839,3.361232,-0.213474,1.106530,0.432039,-0.290004,-13.742512,-19.129551,0.327461,153.22896,-4.921138,0.51406646,2.7758896,0.32725236,0.9508536,-0.80405647
20231225 09:48:13,-5.522996,4.065536,-0.274417,1.040479,0.274367,-0.064151,-13.706268,-18.941364,0.583473,154.57266,-5.8190136,0.6349035,3.4089947,0.45699307,0.6837136,-0.8540331
20231225 09:48:13,-5.040343,4.333958,-0.749349,0.834867,0.055971,0.216036,-13.715233,-19.036381,0.589584,152.46182,-5.7119374,1.7081382,3.3921344,0.5743697,0.23982957,-0.8109594
20231225 09:48:13,-3.449914,3.834445,-1.228957,0.509935,-0.103831,0.454674,-13.600109,-18.934986,0.718086,144.71477,-4.3350625,2.9562838,2.3338745,0.64444125,-0.15364233,-0.59736127
20231225 09:48:13,-1.279219,3.085357,-0.790723,0.128541,-0.208236,0.608084,-13.740326,-18.379482,0.680435,133.14297,-1.775635,3.0361226,0.11689454,0.59884,-0.27613378,-0.2532344
20231225 09:48:13,0.661642,2.226168,0.491456,-0.195325,-0.306248,0.667744,-13.855061,-18.672764,0.832397,130.90326,0.98830044,2.2037852,-1.8355283,0.33594647,-0.23526984,0.006755322
20231225 09:48:13,2.428729,1.047359,1.994680,-0.410525,-0.386149,0.622999,-14.285324,-18.618893,1.494453,133.04688,3.2675369,0.8364272,-3.1729546,-0.012759179,-0.18993929,0.14111242
20231225 09:48:13,3.768646,-0.095960,3.445011,-0.502145,-0.408521,0.486634,-14.185291,-16.439823,1.219246,132.63432,4.868325,-0.60106856,-3.810667,-0.27672344,-0.17445189,0.21896327
20231225 09:48:13,4.455524,-1.209508,4.993081,-0.454204,-0.392541,0.302329,-13.865181,-18.192120,-0.002899,139.02155,5.794661,-1.8226805,-4.4515295,-0.3552175,-0.21207137,0.20030929
20231225 09:48:13,4.282705,-2.056733,6.156345,-0.138861,-0.286006,0.090325,-14.532463,-17.685993,0.761246,138.2823,5.751937,-2.515156,-4.3735847,-0.12584883,-0.2410221,0.15923193
20231225 09:48:13,3.675839,-2.618994,6.729857,0.010287,-0.232739,0.060495,-14.816887,-18.267017,0.260468,138.83449,5.2758603,-2.8877182,-4.2713137,0.012673892,-0.22576374,0.09993974
20231225 09:48:13,3.137221,-2.757323,6.608397,0.313911,-0.138988,0.040254,-14.716736,-17.989357,1.315102,138.42474,4.883756,-2.8692856,-3.9539595,0.30172116,-0.18988007,-0.041584194
20231225 09:48:13,2.634658,-2.372222,5.656704,0.518458,-0.113420,0.061560,-15.193356,-17.643024,0.885841,135.91534,4.4049883,-2.382043,-3.2379596,0.4944331,-0.19230957,-0.16652364
20231225 09:48:13,2.538177,-1.744034,4.389758,0.587706,-0.180537,0.078606,-14.577290,-18.161091,0.791817,135.992,4.091585,-1.7394665,-2.9138649,0.5363934,-0.2774837,-0.21690823
20231225 09:48:13,2.622343,-1.038297,2.784153,0.516328,-0.293463,0.050907,-14.068535,-18.109859,-0.278236,132.5758,3.5543137,-1.1276051,-2.4446623,0.40427572,-0.38077208,-0.15578528
20231225 09:48:13,2.424217,-0.262413,1.091421,0.328826,-0.361646,-0.007687,-14.559208,-14.360119,-1.599663,115.76877,2.426387,-0.5162707,-1.8544846,0.16451614,-0.4131079,0.008505998
20231225 09:48:13,2.056254,0.231393,0.005323,0.094450,-0.336077,-0.092915,-14.698040,-18.183102,1.863815,126.82905,1.4182338,-0.085270874,-1.6545529,-0.060684796,-0.35729736,0.14698142
20231225 09:48:13,1.435318,0.405665,-0.124385,-0.135665,-0.272156,-0.182404,-15.042488,-15.260143,-0.339966,120.593956,0.9152866,0.28071225,-1.2497865,-0.24822319,-0.27522227,0.32132348
20231225 09:48:13,0.644438,0.128049,0.479078,-0.295468,-0.201844,-0.232476,-14.683949,-16.074169,-0.953117,127.316505,0.79767406,0.12899427,-0.72591865,-0.37381804,-0.20221744,0.42195472
20231225 09:48:13,-0.324946,-0.407265,1.229441,-0.335951,-0.054825,-0.216495,-14.946217,-18.575932,1.619049,139.44472,0.497554,-0.5358838,-0.34380397,-0.39329937,-0.073069744,0.36092564
20231225 09:48:13,-1.281222,-0.931641,2.430099,-0.216632,0.116696,-0.114222,-15.210133,-18.408726,1.739487,141.19484,0.20280254,-1.3554528,-0.47439718,-0.25475037,0.0904823,0.12403382
20231225 09:48:13,-1.797575,-1.496493,3.211120,0.024137,0.224296,0.025339,-15.250874,-18.195667,-0.552345,139.09581,-0.017725348,-2.0941586,-0.4629717,0.011740877,0.22154656,-0.15863459
20231225 09:48:13,-1.644557,-2.121057,2.981002,0.313911,0.281825,0.156376,-14.997818,-18.395969,2.008705,142.01756,0.023673892,-2.5747914,-0.18923676,0.32767636,0.3137512,-0.40646672
20231225 09:48:13,-0.947026,-2.627645,1.646122,0.564268,0.331896,0.224559,-15.467278,-18.896587,1.500824,139.79976,0.13478392,-2.7930286,0.8510711,0.58235985,0.3717464,-0.6150103
20231225 09:48:13,-0.117551,-2.888299,-0.026884,0.736855,0.406470,0.241604,-15.042645,-18.871067,2.039268,137.94276,-0.0839927,-2.8892024,1.6536859,0.735026,0.41371417,-0.7975218
20231225 09:48:13,0.546793,-2.964289,-1.631972,0.796514,0.467195,0.219232,-15.155312,-16.512867,1.214363,126.43594,-1.0144322,-3.1274195,1.9775448,0.7556023,0.41529417,-0.9216261
20231225 09:48:13,1.078495,-2.797497,-3.079904,0.719809,0.498090,0.180879,-15.112942,-18.497372,1.880203,118.26626,-2.5377438,-3.5893178,1.2625957,0.6608719,0.40632272,-0.8896182
20231225 09:48:13,1.395192,-2.565765,-4.144611,0.512066,0.494894,0.147854,-15.264305,-18.786961,1.495689,101.82837,-3.7537684,-4.313659,0.22759831,0.55293864,0.391857,-0.6864102
20231225 09:48:13,1.630995,-2.256682,-4.685607,0.221226,0.469326,0.120155,-14.913696,-18.370266,0.400208,86.193756,-4.0780025,-4.7670116,-0.75355643,0.43287724,0.39154702,-0.3820339
20231225 09:48:13,1.687241,-2.062272,-4.568356,-0.098378,0.452280,0.097782,-15.283005,-18.593220,0.946976,102.17474,-3.7011619,-4.0193815,-0.15557668,0.21488559,0.46315163,-0.121775076
20231225 09:48:13,1.477907,-1.993701,-3.601784,-0.363650,0.411797,0.088194,-15.565620,-18.232281,0.518692,116.62634,-2.465468,-2.7995133,0.66240466,-0.054151043,0.46318442,0.07525293
20231225 09:48:13,1.046815,-1.749678,-2.413712,-0.514929,0.370248,0.099913,-15.256496,-18.116276,0.648163,125.1342,-1.3392935,-2.0021203,0.9707935,-0.21872222,0.40991673,0.17138869
20231225 09:48:13,0.785288,-1.645960,-1.558329,-0.593765,0.338288,0.128677,-15.563049,-17.674095,1.152130,129.255,-0.6078884,-1.7177106,1.0293782,-0.3150418,0.36043015,0.1812968
20231225 09:48:13,0.678004,-1.662354,-0.657143,-0.618268,0.293543,0.154246,-15.760010,-18.055004,0.237244,130.59772,0.049864948,-1.6936547,0.8410468,-0.36231568,0.31287998,0.15723932
20231225 09:48:13,0.733968,-1.651700,0.303378,-0.576720,0.239211,0.160638,-15.046982,-14.858887,-2.375771,124.099144,0.7255332,-1.6683726,0.52319026,-0.3606559,0.2640855,0.112863764
20231225 09:48:13,0.807358,-1.714048,0.990683,-0.476577,0.177420,0.147854,-15.459312,-14.614971,-1.725945,124.686264,1.1696935,-1.7174784,0.24407113,-0.30502462,0.20407423,0.07832976
20231225 09:48:13,1.016775,-1.656707,1.347046,-0.332755,0.134806,0.118024,-15.319096,-15.170479,-1.688286,125.86074,1.519764,-1.6584517,-0.1105926,-0.20379475,0.16180536,0.03848178
20231225 09:48:13,1.216341,-1.501781,1.364113,-0.174018,0.136937,0.079671,-15.997036,-17.602741,0.339333,130.6606,1.6904299,-1.5154226,-0.4933294,-0.089221835,0.15479444,-0.027644526
20231225 09:48:13,1.242246,-1.288409,1.172560,-0.023804,0.179551,0.029600,-15.849007,-17.487568,-0.470543,129.2743,1.6273088,-1.3087711,-0.5414955,0.008048349,0.18207544,-0.11187975
20231225 09:48:13,1.021380,-0.998962,1.044450,0.099776,0.229622,-0.011949,-15.812378,-17.491268,0.065948,129.81557,1.4174678,-1.0049219,-0.5630355,0.0776738,0.22494817,-0.19401932
20231225 09:48:13,0.696733,-0.600859,0.877346,0.197789,0.247733,-0.039648,-15.831078,-17.297527,-0.482765,128.43216,1.1037241,-0.6007851,-0.52004683,0.121209174,0.2475385,-0.2581273
20231225 09:48:13,0.329676,-0.173993,0.454257,0.270232,0.249864,-0.037517,-15.972713,-17.875874,-0.312454,128.54346,0.56208646,-0.1788616,-0.33978623,0.15060729,0.26041615,-0.31418708
20231225 09:48:13,0.003988,0.321439,-0.146999,0.314977,0.274367,-0.002360,-16.206898,-15.155907,-0.626305,122.91368,-0.13426663,0.33133408,-0.12486213,0.17917205,0.2933038,-0.3885703
20231225 09:48:13,-0.118849,0.648257,-0.693885,0.317107,0.291413,0.043450,-15.955170,-17.493942,-0.605156,125.47291,-0.6896395,0.70221543,0.022473246,0.19325972,0.3073761,-0.4108693
20231225 09:48:13,-0.160144,0.905053,-1.222840,0.288343,0.302066,0.088194,-15.811996,-17.683155,0.346420,126.942535,-1.2074627,1.0255063,0.14062566,0.19545175,0.31061852,-0.40217638
20231225 09:48:13,-0.101242,0.874373,-1.714816,0.214834,0.312720,0.136135,-16.051590,-17.789085,-0.184929,123.66332,-1.5943964,1.029945,0.20210803,0.19654956,0.3101099,-0.35780656
20231225 09:48:13,0.217782,0.626891,-1.898270,0.106169,0.307393,0.167030,-16.165562,-18.466145,0.527985,123.805374,-1.5158712,0.69863045,0.09866452,0.18686122,0.30354223,-0.27451697
20231225 09:48:13,0.516580,0.262981,-1.809667,-0.005693,0.272236,0.168095,-15.884098,-18.251423,0.114853,122.44032,-1.2160479,0.24499239,-0.013909817,0.13891074,0.27365685,-0.1728882
20231225 09:48:13,0.700110,-0.025790,-1.676826,-0.109032,0.234949,0.148919,-16.396194,-18.477062,-0.009483,122.4791,-0.9534402,-0.070878714,-0.030532837,0.062150806,0.23957443,-0.0737484
20231225 09:48:13,0.772695,-0.309565,-1.448695,-0.183606,0.221100,0.119089,-16.405544,-18.380192,-0.283836,123.00773,-0.67662776,-0.36084488,0.03370443,-0.013175376,0.22755949,-0.008670971
20231225 09:48:13,0.677231,-0.399375,-1.235361,-0.212370,0.248799,0.086063,-16.379417,-17.711357,-0.863121,122.83312,-0.5223515,-0.40441316,0.11806378,-0.068182066,0.2495314,9.0271793E-4
20231225 09:48:13,0.496118,-0.368097,-0.894358,-0.197456,0.303131,0.059430,-16.351757,-17.810078,-0.320518,126.396774,-0.33781624,-0.3135364,0.16381834,-0.09629372,0.2933088,-0.032649137
20231225 09:48:13,0.133912,-0.307275,-0.676457,-0.152711,0.340419,0.057299,-16.237015,-17.516788,-0.472496,128.12633,-0.38516343,-0.23896527,0.3408111,-0.0880052,0.32208216,-0.08887969
20231225 09:48:13,-0.170707,-0.151894,-0.493562,-0.084529,0.345745,0.082867,-16.609280,-18.106037,-0.839638,128.60411,-0.46196342,-0.111460686,0.41001603,-0.03332365,0.32409295,-0.1492041
20231225 09:48:13,-0.297476,0.007636,-0.638263,-0.015281,0.331896,0.123351,-15.813534,-16.915600,-0.775459,127.55202,-0.6772456,0.058297813,0.47230583,0.04237699,0.30999294,-0.20132983
20231225 09:48:13,-0.217488,0.102563,-1.153518,0.015614,0.313785,0.162769,-16.256096,-17.131157,-1.301674,125.33428,-1.047437,0.22731142,0.52850056,0.09660862,0.29038584,-0.22614957
20231225 09:48:13,0.085642,0.026258,-1.661584,-0.006758,0.289282,0.179814,-16.370838,-17.424450,-1.149712,121.20926,-1.3250589,0.14416221,0.3991072,0.124757275,0.27563447,-0.1853205
20231225 09:48:13,0.509737,0.004703,-2.001082,-0.065352,0.250929,0.168095,-16.537560,-17.345886,-0.888542,117.299866,-1.4126348,-0.0020717273,0.061777562,0.1072745,0.25153893,-0.106334746
20231225 09:48:13,0.907232,-0.191402,-2.234957,-0.165495,0.202989,0.138266,-16.635906,-16.681583,-1.870689,110.978676,-1.391309,-0.39367157,-0.23050249,0.040450856,0.21988559,0.009219561
20231225 09:48:14,1.240621,-0.296045,-2.198796,-0.278422,0.152917,0.099913,-16.299118,-16.664291,-1.198616,111.56893,-1.1647327,-0.6448434,-0.43603203,-0.05343905,0.18452285,0.13333169
20231225 09:48:14,1.322066,-0.130080,-2.096527,-0.355127,0.152917,0.069018,-16.891895,-17.745102,-1.267921,113.67778,-1.0247759,-0.37519735,-0.5747526,-0.12547547,0.17726408,0.20414612
20231225 09:48:14,0.973903,0.106892,-1.972517,-0.390284,0.220034,0.063691,-16.777157,-17.451813,-1.419914,115.89535,-1.0894542,0.037261933,-0.38095304,-0.15918547,0.22856009,0.19783317
20231225 09:48:14,0.659707,0.527217,-1.577900,-0.404133,0.257322,0.063691,-16.555874,-17.344036,-1.156792,120.06345,-0.95769584,0.62557894,-0.35776025,-0.18720207,0.24028929,0.19111198
20231225 09:48:14,0.111264,1.116450,-1.279958,-0.386022,0.257322,0.087129,-17.341240,-17.305611,-1.435066,121.36268,-1.1242814,1.2689722,-0.25256112,-0.17510894,0.21244626,0.1724512
20231225 09:48:14,-0.106235,1.411425,-1.194376,-0.392414,0.199793,0.131873,-16.707626,-17.441738,-1.821770,120.92731,-1.203925,1.5258391,-0.24250811,-0.13152352,0.15325442,0.19399384
20231225 09:48:14,0.139875,1.608307,-1.036286,-0.426505,0.083670,0.167030,-17.138271,-17.195976,-1.440208,118.60846,-0.8689719,1.667829,-0.62790036,-0.10491915,0.058077335,0.26786938
20231225 09:48:14,0.565724,1.687954,-1.016294,-0.491492,-0.058022,0.194729,-17.192829,-17.382317,-1.964470,114.453804,-0.5103551,1.670604,-1.0899997,-0.11162135,-0.05157747,0.39336702
20231225 09:48:14,0.802653,1.656450,-1.084947,-0.569262,-0.141119,0.194729,-17.244812,-17.010468,-1.855278,112.324196,-0.368214,1.569117,-1.28983,-0.1621175,-0.11100466,0.5046958
20231225 09:48:14,1.635168,1.644195,-0.696480,-0.615072,-0.175210,0.148919,-17.351357,-16.824959,-2.270363,109.981,0.67509705,1.3519733,-2.0930133,-0.2815134,-0.08748444,0.5575286
20231225 09:48:14,1.864009,1.665109,-0.252971,-0.606549,-0.120877,0.069018,-17.165936,-17.097256,-1.982811,113.44686,1.2287154,1.3965862,-2.345256,-0.35348532,-0.04175313,0.51861256
20231225 09:48:14,1.853988,1.730561,0.492965,-0.541563,-0.037780,-0.016210,-17.007141,-15.945095,-2.726280,113.71751,1.7894621,1.595465,-2.5717015,-0.38470766,0.009946205,0.42415634
20231225 09:48:14,1.486671,1.604776,1.199894,-0.435028,0.013357,-0.082262,-17.615276,-16.657761,-2.149925,118.48716,1.9850997,1.5831828,-2.4564369,-0.36720392,0.032677148,0.32435235
20231225 09:48:14,1.094022,1.591224,1.645652,-0.283749,0.047448,-0.124875,-17.509884,-16.267601,-2.576256,118.92653,1.9605258,1.6010306,-2.3391666,-0.29051137,0.051092923,0.20941986
20231225 09:48:14,0.678794,1.648001,1.596979,-0.102640,0.093258,-0.150444,-17.836945,-16.573647,-2.693504,119.335,1.5833079,1.6313165,-2.0435443,-0.18072537,0.09408416,0.06760125
20231225 09:48:14,0.205092,1.892837,1.104525,0.071012,0.166767,-0.153640,-16.981663,-16.793892,-2.536659,121.712685,0.81536573,1.815871,-1.6169256,-0.07851686,0.1819445,-0.093661785
20231225 09:48:14,-0.376415,2.335474,0.577512,0.235076,0.275432,-0.141921,-17.767414,-16.563572,-3.095390,120.27402,-0.12983382,2.167584,-1.1447983,-0.00242161,0.31843492,-0.28749007
20231225 09:48:14,-0.973294,2.827463,0.001746,0.393813,0.422450,-0.103568,-17.448166,-16.928211,-2.130608,125.055214,-1.2106279,2.554311,-0.5553869,0.051756047,0.49343893,-0.48688757
20231225 09:48:14,-1.439212,3.149586,-0.520338,0.517393,0.564142,-0.053497,-17.448551,-16.736320,-2.411095,126.53212,-2.1579502,2.7999768,-0.026475742,0.07232301,0.6458175,-0.66408217
20231225 09:48:14,-1.848091,3.398583,-0.881510,0.575987,0.657892,-0.000230,-18.067574,-16.584557,-3.230980,125.85604,-2.8777204,2.9789538,0.37515143,0.07015991,0.7257638,-0.7712627
20231225 09:48:14,-1.846396,3.427057,-1.119069,0.502478,0.644043,0.065822,-17.617847,-17.215950,-2.783379,126.65878,-3.0066159,3.1356304,0.47895354,0.096422315,0.6734534,-0.71953267
20231225 09:48:14,-1.649523,3.366872,-1.059165,0.316042,0.525789,0.128677,-17.786110,-16.369835,-3.644112,120.89158,-2.6580625,3.1854978,0.1364665,0.12688401,0.5167346,-0.5439626
20231225 09:48:14,-0.916493,2.925543,-0.577700,0.124280,0.439496,0.175553,-17.945671,-17.138218,-3.461555,119.9067,-1.551514,2.8312392,-0.5303559,0.12574783,0.4097579,-0.36943227
20231225 09:48:14,-0.474119,2.451406,0.136950,0.002830,0.422450,0.183010,-17.627968,-16.735302,-3.618675,119.63046,-0.53043824,2.3413343,-1.022915,0.08360052,0.39112437,-0.2916035
20231225 09:48:14,-0.322797,2.000101,1.093350,-0.077071,0.417124,0.178749,-17.664207,-16.923492,-3.874687,121.31484,0.3400702,1.8380386,-1.374751,0.029431544,0.3873011,-0.2617464
20231225 09:48:14,-0.020182,1.232466,2.381193,-0.158038,0.327635,0.191533,-17.646664,-16.541561,-4.167397,122.2944,1.3818837,1.1286908,-1.8210092,-0.02234307,0.31023863,-0.20406428
20231225 09:48:14,0.719725,0.087259,3.670835,-0.215567,0.136937,0.175553,-17.998810,-16.190701,-4.193794,122.96286,2.4966974,0.105907865,-2.1472569,-0.094394326,0.1409969,-0.070523314
20231225 09:48:14,1.463859,-1.013701,4.266610,-0.194260,0.013357,0.116959,-18.007011,-16.669498,-3.626747,126.19631,3.1169395,-0.974838,-2.1650605,-0.12502058,0.029435176,0.011207674
20231225 09:48:14,1.993881,-2.137794,4.597419,-0.123947,-0.005819,0.032796,-17.928898,-16.372513,-4.315208,127.50105,3.3379874,-2.1609504,-1.7097111,-0.10594699,0.008092023,0.027277531
20231225 09:48:14,2.413541,-3.301363,4.982542,-0.086659,-0.007950,-0.022602,-18.441761,-16.214375,-5.000496,128.19894,3.4634118,-3.4112456,-1.0691478,-0.0897552,0.0016426258,0.04105091
20231225 09:48:14,2.373591,-4.169178,5.223153,0.030529,-0.056956,-0.237802,-17.619766,-16.256504,-4.185738,130.6441,3.30732,-4.2685385,-0.7193229,-0.019654505,-0.06407717,0.18767287
20231225 09:48:14,1.655285,-4.470769,5.055608,0.083796,-0.072936,-0.310246,-18.405903,-15.834297,-5.024940,127.946556,2.7069488,-4.4773827,0.0447762,0.013726123,-0.074994884,0.2239677
20231225 09:48:14,0.568925,-4.024642,4.450706,0.205246,-0.150707,-0.434892,-18.035053,-16.378891,-4.449821,128.97833,1.9421768,-4.0766854,0.14920974,0.07432863,-0.120365344,0.31404537
20231225 09:48:14,-0.531281,-3.027359,3.693856,0.170089,-0.296659,-0.425304,-17.734894,-16.357906,-4.314232,128.95027,1.1668956,-3.3478515,0.23835278,0.015304819,-0.22777905,0.39120856
20231225 09:48:14,-1.340173,-1.873364,2.608236,0.052901,-0.462854,-0.357121,-18.389389,-16.778111,-4.829201,127.54149,0.44342732,-2.506814,0.6123221,-0.06542106,-0.37817737,0.4706289
20231225 09:48:14,-1.795034,-0.577369,1.347076,-0.130339,-0.562997,-0.259109,-17.982685,-16.942631,-4.278526,128.35036,-0.45238078,-1.3242583,0.84734136,-0.12984896,-0.5050036,0.54745317
20231225 09:48:14,-2.024762,0.557990,0.557989,-0.352996,-0.600284,-0.154705,-18.132248,-16.290253,-4.590538,126.05815,-1.2195885,-0.1897975,0.88096136,-0.18667847,-0.60786885,0.6571058
20231225 09:48:14,-2.080930,1.036849,0.317300,-0.592700,-0.592826,-0.042844,-18.582626,-17.176495,-4.269234,127.61397,-1.514177,0.27043158,0.8359922,-0.25339973,-0.6930273,0.77169317
20231225 09:48:14,-2.299581,1.750010,0.307319,-0.784462,-0.461788,0.082867,-18.458923,-16.788189,-4.427330,126.07687,-1.8728933,0.95851713,0.5014855,-0.3801934,-0.6533077,0.78452414
20231225 09:48:14,-1.969515,1.287959,1.385718,-0.848383,-0.266830,0.174487,-18.626030,-16.517742,-4.446648,125.41264,-0.95079786,0.55627674,-0.23810565,-0.5166279,-0.47476786,0.61605513
20231225 09:48:14,-1.751571,0.472534,2.899445,-0.817488,-0.175210,0.198990,-18.246986,-16.583538,-4.438576,126.84967,-0.06888342,-0.23936117,-0.88316643,-0.57303953,-0.35613778,0.44668353
20231225 09:48:14,-1.697450,0.105236,3.523767,-0.463793,0.088997,0.252258,-18.563663,-15.660713,-4.769890,125.318535,0.03865826,-0.5319221,-1.1243662,-0.3099464,-0.020659344,0.01522024
20231225 09:48:14,-1.610345,-0.529784,4.559776,-0.096248,0.187009,0.279957,-18.855511,-17.104313,-4.142693,128.42705,0.44040298,-1.1412637,-1.5298808,0.012563594,0.1461314,-0.2514199
20231225 09:48:14,-1.215626,-1.316572,4.427270,0.283016,0.227492,0.300198,-18.820034,-16.532349,-4.447624,126.818665,0.79576504,-1.7605144,-0.9499066,0.3658362,0.24544457,-0.4468627
20231225 09:48:14,-0.895272,-1.553773,3.769527,0.578118,0.271171,0.282088,-18.680206,-16.895969,-4.690422,126.20374,0.9213242,-1.7999085,-0.4780084,0.63026077,0.31040734,-0.6009361
20231225 09:48:14,0.179950,-2.241694,1.510592,0.758162,0.314850,0.221363,-18.722843,-16.620987,-4.306877,124.62766,0.9344178,-2.269346,0.7821881,0.76378167,0.34560734,-0.6989575
20231225 09:48:14,0.621161,-2.571452,0.170883,0.823148,0.303131,0.145723,-19.059631,-16.638279,-4.978966,121.475365,0.63245094,-2.5669374,1.4710853,0.77674806,0.3093488,-0.714821
20231225 09:48:14,0.803317,-2.756251,-0.534437,0.814625,0.290347,0.103109,-18.743343,-17.369221,-4.928108,121.86645,0.34836158,-2.773422,1.7466447,0.7396003,0.27891263,-0.69997066
20231225 09:48:14,1.097990,-3.022108,-1.764604,0.659084,0.250929,-0.040713,-18.688786,-17.182877,-4.403847,118.03948,-0.3510778,-3.03694,1.9078846,0.47032937,0.247001,-0.5863731
20231225 09:48:14,0.930299,-3.120795,-2.726098,0.479040,0.226426,-0.114222,-19.131351,-17.398441,-4.930061,118.24757,-0.9853128,-2.817953,2.241922,0.2461851,0.27171808,-0.43858266
20231225 09:48:14,0.247497,-3.040743,-3.107168,0.295801,0.191270,-0.148313,-18.706329,-17.564800,-4.111137,123.47785,-1.4634594,-2.411419,2.8350673,0.07639629,0.25865883,-0.26389512
20231225 09:48:14,-0.194050,-2.915399,-3.008466,0.128541,0.146525,-0.142986,-18.804291,-17.092384,-4.812813,123.85227,-1.5338023,-2.2162662,3.0968182,-0.03120941,0.19644652,-0.11917926
20231225 09:48:14,-0.468800,-2.800851,-2.660892,-0.007824,0.090062,-0.121679,-18.754494,-18.214314,-5.274971,126.71513,-1.3879615,-2.155115,3.172338,-0.102436915,0.110193096,0.005623594
20231225 09:48:14,-0.722361,-2.594366,-2.256694,-0.107966,0.029337,-0.083327,-18.824028,-18.224392,-4.873085,127.62263,-1.3671669,-2.1334214,3.071423,-0.13945535,0.018460426,0.091424815
20231225 09:48:14,-0.724733,-2.503248,-2.099589,-0.152711,0.002703,-0.064151,-19.246475,-17.499832,-5.058556,124.95175,-1.3838707,-2.1743813,2.968486,-0.15729824,-0.019374916,0.12402519
20231225 09:48:14,-0.373832,-2.424829,-1.584803,-0.293337,-0.099570,-0.006622,-18.797131,-17.939335,-4.891426,124.76959,-0.9526923,-2.2372646,2.5060844,-0.22206977,-0.14303325,0.24872582
20231225 09:48:14,0.109024,-2.418400,-1.290524,-0.376434,-0.184798,-0.000230,-18.733994,-17.466084,-4.653740,122.90703,-0.51758754,-2.2956963,2.097921,-0.28485942,-0.21933323,0.35266405
20231225 09:48:14,0.450880,-2.382349,-1.180137,-0.449943,-0.271091,-0.028994,-19.078979,-17.962177,-4.758781,121.881775,-0.27012247,-2.3052223,1.8113787,-0.3617722,-0.2929167,0.4700964
20231225 09:48:14,0.578172,-2.282161,-1.197713,-0.504276,-0.317966,-0.079065,-18.612473,-17.827858,-5.164803,121.02584,-0.21808952,-2.2160776,1.6526737,-0.43327108,-0.33565828,0.55915666
20231225 09:48:14,0.717222,-1.882530,-1.135589,-0.524518,-0.303052,-0.134464,-18.795712,-16.805477,-5.099388,118.117096,-0.11713922,-1.7948083,1.1937126,-0.4718739,-0.32255954,0.5930043
20231225 09:48:14,0.382642,-1.118272,-0.631491,-0.522387,-0.293463,-0.167489,-18.567268,-17.544643,-4.914909,120.772446,-0.047775894,-1.041478,0.72043747,-0.48462325,-0.32082412,0.59730446
20231225 09:48:14,0.087533,-0.539070,-0.155774,-0.510668,-0.312640,-0.172816,-18.858467,-17.470619,-5.056602,120.8029,0.01471772,-0.5092,0.34834647,-0.46590075,-0.34788764,0.6058436
20231225 09:48:14,-0.135659,-0.208416,0.050854,-0.478707,-0.338208,-0.147248,-19.300648,-17.878063,-5.302345,121.45089,-0.04076152,-0.23006375,0.20318262,-0.40927806,-0.38042378,0.5920808
20231225 09:48:14,-0.552845,0.351987,0.378710,-0.448878,-0.333947,-0.122745,-18.937729,-17.191940,-5.209541,121.10032,-0.20609933,0.21192443,0.005137667,-0.36768666,-0.37705976,0.560577
20231225 09:48:14,-0.708540,0.662658,0.571290,-0.364715,-0.280679,-0.066281,-19.308960,-16.455452,-6.065147,118.00228,-0.23493212,0.47713178,-0.15870956,-0.27846336,-0.31870115,0.45143512
20231225 09:48:14,-0.550160,0.578306,0.969007,-0.148450,-0.148576,-0.018341,-18.566235,-16.218903,-5.403343,119.994446,0.12101841,0.40070143,-0.41288212,-0.1108635,-0.1634271,0.20072529
20231225 09:48:14,-0.456832,0.266751,1.204747,0.023071,-0.095309,-0.015145,-19.130699,-15.880802,-5.698967,118.404564,0.35768417,0.10208728,-0.34949815,0.01743864,-0.090262935,0.057037137
20231225 09:48:14,-0.389855,0.193882,1.153354,0.189266,-0.077198,-0.027929,-19.351982,-15.988586,-5.962074,117.58424,0.40140256,0.039802626,-0.30025023,0.13633138,-0.05215216,-0.056678493
20231225 09:48:14,-0.343014,0.060831,0.760283,0.324565,-0.063348,-0.048170,-18.619755,-15.079502,-6.416054,115.23572,0.23140255,-0.06436512,-0.05804263,0.2191135,-0.01739746,-0.15598054
20231225 09:48:14,-0.380054,0.035055,0.174611,0.375702,-0.059087,-0.059889,-19.457104,-14.669224,-6.585121,0.0,-0.3800537,0.03505516,0.17461109,0.37570167,-0.059086867,-0.059889212
20231225 09:48:14,-0.491197,0.202987,-0.471996,0.450276,-0.035649,-0.085458,-18.964741,-15.575588,-6.521065,114.39534,-0.7050092,0.2016758,0.36995652,0.24784192,0.050366875,-0.28728482
20231225 09:48:14,-0.647203,0.172294,-1.343909,0.407662,-0.026061,-0.097176,-19.289993,-14.939671,-6.565804,113.571785,-1.4387921,0.32707655,0.73827374,0.1998561,0.06630924,-0.26844892
20231225 09:48:14,-0.894458,0.383886,-1.431861,0.339480,-0.031388,-0.097176,-19.264137,-15.980354,-6.095711,117.664185,-1.7080684,0.53087175,0.8938408,0.15554841,0.064214624,-0.21307844
20231225 09:48:14,-1.049088,0.421962,-1.461916,0.305389,-0.033519,-0.090784,-18.797245,-16.037926,-6.221291,118.722786,-1.8357544,0.54351705,1.0137105,0.14212508,0.059728697,-0.18481088
20231225 09:48:14,-1.186434,0.168348,-1.224424,0.191396,-0.058022,-0.070543,-19.274635,-15.307819,-7.211479,115.81815,-1.6975381,0.18526106,1.1262729,0.09564476,0.0028699227,-0.08277296
20231225 09:48:14,-1.160713,0.118609,-0.987073,0.160501,-0.081459,-0.070543,-18.717983,-16.316605,-6.068321,119.83217,-1.5076525,0.08476539,1.1062648,0.08076293,-0.027682206,-0.042594638
20231225 09:48:14,-1.107025,0.055739,-0.736297,0.128541,-0.123008,-0.071608,-18.991249,-16.052536,-6.222267,118.788574,-1.2924392,-0.021402806,0.9997332,0.067220956,-0.07718854,0.009464052
20231225 09:48:14,-1.024805,-0.007728,-0.564464,0.134933,-0.135792,-0.071608,-19.123920,-16.535862,-6.058052,119.28023,-1.1067064,-0.09580052,0.92532045,0.07272643,-0.09083074,0.012832765
20231225 09:48:14,-0.871520,0.037901,-0.640714,0.165828,-0.130465,-0.079065,-19.177711,-17.105976,-6.021370,118.75541,-1.0536511,0.0046164095,0.82582474,0.081649765,-0.0817232,-0.017840067
20231225 09:48:14,-0.791653,0.152966,-0.834130,0.192462,-0.121942,-0.085458,-19.398994,-17.213753,-6.284477,116.49176,-1.1580012,0.17618813,0.75331676,0.08490743,-0.0727081,-0.049731277
20231225 09:48:14,-0.498234,0.171597,-1.431828,0.189266,-0.123008,-0.103568,-18.807247,-17.458687,-5.726723,117.426895,-1.4266537,0.36179274,0.7061817,0.06379483,-0.070782304,-0.04900094
20231225 09:48:14,-0.463938,0.155522,-1.726171,0.135998,-0.128334,-0.136594,-19.432281,-17.035648,-5.626579,115.90935,-1.637255,0.40933228,0.74334526,0.0030538738,-0.07874945,1.1360273E-4
20231225 09:48:14,-0.408186,0.081795,-1.798889,0.100842,-0.145380,-0.145117,-19.150433,-17.012810,-5.759254,115.17132,-1.6521163,0.34734654,0.74489355,-0.024320312,-0.1014255,0.03791975
20231225 09:48:14,-0.243175,0.098790,-1.828515,0.014549,-0.203974,-0.155771,-19.083088,-17.752804,-6.514107,113.59397,-1.5868096,0.35710782,0.5826946,-0.08010514,-0.17342788,0.13983208
20231225 09:48:14,-0.037032,-0.047611,-1.936534,-0.094117,-0.271091,-0.154705,-19.513729,-17.507046,-6.132515,111.49081,-1.5404205,0.16024578,0.48764843,-0.14942785,-0.25955638,0.26253507
20231225 09:48:14,0.434336,-0.192875,-1.782341,-0.211305,-0.331816,-0.169620,-19.275940,-18.343090,-5.673668,111.78514,-1.09988,-0.12741005,0.19458738,-0.2547451,-0.33163965,0.39826044
20231225 09:48:14,0.798871,-0.315359,-1.541039,-0.301860,-0.385083,-0.216495,-19.355972,-17.680626,-6.387550,108.99838,-0.6327849,-0.34653893,-0.07095033,-0.36730108,-0.3843309,0.5137507
20231225 09:48:14,0.938014,-0.223528,-1.279728,-0.343408,-0.411717,-0.296396,-19.372097,-16.928699,-6.302818,108.424644,-0.33791852,-0.22835086,-0.2943495,-0.45045817,-0.4116987,0.57805496
20231225 09:48:14,0.682040,0.050137,-1.004283,-0.340212,-0.401064,-0.389082,-19.179512,-18.047947,-6.093880,113.01379,-0.29886594,0.12131356,-0.27986184,-0.4985674,-0.396513,0.6005152
20231225 09:48:14,0.180186,0.404437,-0.742896,-0.310383,-0.384018,-0.464721,-19.723476,-16.961617,-5.768288,114.66266,-0.4681053,0.5003377,-0.17216222,-0.5063356,-0.3593634,0.59456336
20231225 09:48:14,-0.480054,0.741777,-0.453434,-0.266703,-0.382953,-0.505205,-19.010601,-17.376431,-6.002052,118.353806,-0.77609324,0.7233659,0.056206882,-0.47679964,-0.3283654,0.58723676
20231225 09:48:14,-1.125218,1.092084,-0.185551,-0.213436,-0.404260,-0.503074,-19.683029,-17.986675,-6.504799,120.41468,-1.1418669,0.84603786,0.24139677,-0.4052996,-0.3173049,0.56825477
20231225 09:48:14,-1.618460,1.399480,-0.106279,-0.169757,-0.435155,-0.463656,-19.364552,-17.967533,-6.100975,122.428246,-1.5254036,0.9582185,0.4370976,-0.3232426,-0.32830027,0.54067624
20231225 09:48:14,-1.934213,1.681488,-0.130093,-0.145254,-0.461788,-0.399735,-18.906246,-18.312016,-5.939949,124.44038,-1.8606346,1.0955802,0.562327,-0.24021113,-0.34980774,0.5134851
20231225 09:48:14,-2.023539,1.822164,-0.291358,-0.134600,-0.473507,-0.323030,-19.630657,-18.550404,-6.333504,123.04813,-2.0534654,1.2670025,0.6207937,-0.17927904,-0.3802373,0.47879586
20231225 09:48:14,-1.799684,1.776863,-0.393931,-0.107966,-0.444743,-0.276155,-19.127529,-18.419796,-6.203056,121.89359,-1.9109044,1.3761046,0.512056,-0.15367211,-0.37190092,0.42387962
20231225 09:48:14,-1.619671,1.776958,-0.364833,-0.068548,-0.410652,-0.262305,-19.684834,-18.928638,-6.577309,120.55362,-1.7410156,1.441837,0.36260414,-0.13504806,-0.3404343,0.36770493
20231225 09:48:14,-1.433383,1.762141,-0.435624,-0.030196,-0.375495,-0.283612,-19.533852,-18.447163,-6.473259,119.85192,-1.6555862,1.4947193,0.2431926,-0.13760641,-0.29719555,0.32528317
20231225 09:48:14,-1.353168,1.799775,-0.364672,0.013483,-0.335012,-0.318769,-19.189899,-19.276821,-5.879784,122.4978,-1.5613773,1.5297341,0.15787297,-0.14393464,-0.24337006,0.2868181
20231225 09:48:14,-1.454183,1.781600,-0.204391,0.076339,-0.282810,-0.351795,-19.578289,-19.114147,-6.162224,122.39325,-1.5378582,1.4262562,0.1632728,-0.13066448,-0.16690487,0.22623312
20231225 09:48:15,-2.022433,2.062967,0.024871,0.220161,-0.154968,-0.375232,-19.375320,-19.004520,-6.167351,125.047104,-1.9424542,1.348914,0.3745141,-0.064151645,0.027640894,0.06374219
20231225 09:48:15,-2.302474,2.211930,0.069764,0.281951,-0.089982,-0.368840,-19.650394,-19.682415,-6.393791,126.59526,-2.205494,1.301337,0.5038585,-0.030321106,0.12030033,-0.015308276
20231225 09:48:15,-2.969758,2.619425,0.197817,0.434296,0.069820,-0.320899,-19.350227,-19.661427,-6.258186,128.9209,-2.8077424,1.2461628,0.7614341,0.056917116,0.3189863,-0.22433634
20231225 09:48:15,-3.486748,2.904298,0.330393,0.596229,0.205119,-0.234606,-19.007813,-19.723530,-6.786629,129.565,-3.2569008,1.122274,0.945107,0.1717143,0.47517008,-0.4482302
20231225 09:48:15,-3.662673,2.901923,0.307182,0.733659,0.283955,-0.146182,-19.466122,-19.379047,-6.947639,128.83376,-3.3983967,1.0394698,1.089575,0.28525352,0.5584484,-0.6327279
20231225 09:48:15,-3.533312,2.949715,0.162480,0.843389,0.314850,-0.070543,-18.910236,-20.004055,-6.365425,130.41382,-3.3802805,1.2152343,1.1631885,0.37443048,0.58598804,-0.76763844
20231225 09:48:15,-3.188258,2.782711,-0.123030,0.866827,0.273302,-0.013014,-19.361382,-20.506527,-6.605049,128.84293,-3.1873665,1.4242944,1.1678808,0.42750263,0.51758325,-0.80306506
20231225 09:48:15,-2.670284,2.795299,-0.467383,0.815690,0.205119,0.046646,-18.918819,-20.290966,-6.078835,127.299095,-2.978671,1.8896942,1.032124,0.4304963,0.39009342,-0.7737021
20231225 09:48:15,-2.013973,2.807354,-0.839270,0.701698,0.184878,0.129743,-18.621223,-20.828167,-6.576698,123.37951,-2.7263887,2.379713,0.65372753,0.41797277,0.28358343,-0.71072483
20231225 09:48:15,-1.201769,2.701344,-0.966004,0.481171,0.165702,0.233082,-19.045860,-20.853687,-7.115150,116.25887,-2.032713,2.6431258,-0.102714345,0.41725954,0.17881012,-0.5400898
20231225 09:48:15,0.040960,1.992966,-0.166136,0.149848,0.045317,0.302329,-18.506100,-20.726765,-6.448204,115.53663,-0.17611538,1.9980989,-1.1346877,0.3263427,0.038602516,-0.22466983
20231225 09:48:15,1.919250,0.724801,1.715000,-0.163364,-0.169883,0.330028,-18.912041,-20.946018,-6.437920,120.20709,2.6309252,0.65149385,-2.3679879,0.06264149,-0.11396259,0.08857338
20231225 09:48:15,2.434324,0.315518,2.158464,-0.365781,-0.328620,0.317244,-18.840706,-19.993977,-6.767311,120.03193,3.2524118,0.17510995,-2.5360005,-0.14805362,-0.22582889,0.31864905
20231225 09:48:15,3.100403,-0.426295,2.860518,-0.477642,-0.378691,0.266107,-18.542728,-20.723064,-6.984688,126.24097,4.0407047,-0.68782836,-2.7531676,-0.32086718,-0.2420917,0.37321603
20231225 09:48:15,3.540891,-1.148594,3.773065,-0.562870,-0.445808,0.176618,-19.247028,-20.021343,-7.037498,127.32384,4.6664724,-1.4839443,-2.7902129,-0.47790015,-0.29092225,0.46956196
20231225 09:48:15,3.534865,-1.683775,4.453459,-0.576720,-0.501206,0.076475,-19.264572,-20.403278,-6.744804,130.09409,4.8061996,-1.9742653,-2.8322177,-0.54455394,-0.36721498,0.5324086
20231225 09:48:15,3.236173,-2.235960,4.809992,-0.519191,-0.475638,0.014685,-19.522099,-20.699245,-7.263939,131.45793,4.5143604,-2.4609845,-2.5308287,-0.5141446,-0.3714512,0.50430334
20231225 09:48:15,2.997792,-2.576230,5.128756,-0.374303,-0.401064,-0.064151,-19.158794,-20.205006,-6.890663,131.73105,4.3441153,-2.7357316,-2.3928602,-0.39703968,-0.33761886,0.44593802
20231225 09:48:15,2.524979,-2.431355,5.033268,-0.175083,-0.323293,-0.176012,-18.815998,-20.458996,-7.138618,131.10829,4.0885077,-2.4715197,-2.3058076,-0.24123651,-0.30967772,0.39858162
20231225 09:48:15,1.466273,-1.702403,4.256696,0.002830,-0.254046,-0.278286,-19.233471,-21.331463,-7.755669,128.45609,3.2736864,-1.7000625,-1.8450334,-0.12721647,-0.25449607,0.32808805
20231225 09:48:15,0.074309,-0.656244,3.261837,0.105103,-0.203974,-0.309181,-18.940086,-20.655415,-7.261009,126.21686,1.9063492,-0.8589741,-1.2029793,-0.069980435,-0.1718609,0.23012403
20231225 09:48:15,-0.942136,0.149937,2.310970,0.112561,-0.192255,-0.277220,-19.434254,-20.691013,-7.397560,124.912506,0.6424641,-0.32806692,-0.54749227,-0.053801864,-0.13079302,0.17794345
20231225 09:48:15,-1.559485,0.593704,1.416636,0.049705,-0.181602,-0.195188,-18.984528,-21.322399,-6.949959,126.91318,-0.37874502,-0.039980352,0.04500127,-0.052136675,-0.12569359,0.16315657
20231225 09:48:15,-1.773623,0.655896,0.835401,-0.035523,-0.129400,-0.079065,-18.842506,-20.935940,-6.839806,126.64919,-0.9089973,0.06540182,0.4335396,-0.05101055,-0.11545249,0.13568006
20231225 09:48:15,-1.563260,0.357252,0.704461,-0.103705,-0.058022,0.031731,-19.629292,-22.031368,-6.910103,126.92923,-0.7996365,-0.07166625,0.4823255,-0.048988223,-0.08131868,0.08834724
20231225 09:48:15,-1.111584,-0.205150,0.694829,-0.117555,0.026141,0.120155,-18.772209,-21.309650,-6.680748,127.16647,-0.42079958,-0.46324247,0.49118882,-0.022044137,-0.007982859,3.6280602E-5
20231225 09:48:15,-0.679949,-0.859889,0.645107,-0.090921,0.102846,0.189402,-19.172138,-21.800182,-7.590492,126.47077,-0.09904593,-0.98665804,0.6495795,0.028100602,0.07465412,-0.10418336
20231225 09:48:15,-0.167420,-1.439200,0.452430,-0.042980,0.153983,0.239474,-19.506355,-21.259281,-7.629128,125.05664,0.18977253,-1.4678794,0.85001594,0.09306163,0.1386335,-0.19214377
20231225 09:48:15,0.348745,-1.915756,0.108552,0.008157,0.183813,0.271434,-18.975948,-21.035496,-7.236549,125.362564,0.35999715,-1.9135222,1.0495263,0.15729934,0.18244487,-0.25927562
20231225 09:48:15,0.899328,-2.279814,-0.345877,0.037986,0.194466,0.286349,-19.575890,-21.269360,-7.227257,123.9431,0.46545815,-2.3371496,1.2201811,0.19908187,0.2026311,-0.28715333
20231225 09:48:15,1.378773,-2.417663,-0.802264,0.040117,0.181682,0.290610,-18.844696,-21.686024,-7.192787,123.92217,0.447528,-2.6250336,1.1860883,0.21611047,0.1999009,-0.27741876
20231225 09:48:15,1.764905,-2.394356,-1.387302,-0.005693,0.167832,0.286349,-18.844696,-21.686024,-7.192787,120.90577,0.21106273,-2.8370883,1.0738993,0.19212222,0.20444244,-0.22468376
20231225 09:48:15,2.075475,-2.275977,-1.695294,-0.099444,0.152917,0.274630,-19.267143,-20.961460,-7.378242,116.3643,0.15191388,-2.9218674,0.8160128,0.119506165,0.21604474,-0.13526592
20231225 09:48:15,2.234527,-2.062103,-1.684410,-0.216632,0.122022,0.243735,-18.915379,-21.120434,-7.632317,117.1662,0.32636118,-2.743261,0.57608074,0.0043073744,0.2049242,-0.030784741
20231225 09:48:15,2.180120,-1.861722,-1.332773,-0.326363,0.074082,0.203252,-19.948917,-21.474834,-8.155342,116.57718,0.59955263,-2.420671,0.3889937,-0.118666984,0.16443719,0.0828163
20231225 09:48:15,1.993669,-1.625484,-0.747819,-0.400937,0.018684,0.160638,-18.845848,-21.110355,-8.034203,119.728546,0.9468965,-1.9599781,0.18532857,-0.21772161,0.09193961,0.17012858
20231225 09:48:15,1.665600,-1.330259,-0.216512,-0.416917,-0.022865,0.134004,-19.594200,-21.267506,-7.495506,120.77677,1.1006832,-1.4999932,-0.0036105812,-0.25420773,0.02826275,0.21226525
20231225 09:48:15,1.340042,-1.197674,0.294012,-0.389218,-0.034584,0.116959,-19.294037,-21.246517,-7.359901,123.06263,1.2097971,-1.2605557,-0.09532836,-0.24981482,-0.0068544443,0.19846651
20231225 09:48:15,0.910670,-0.998989,0.794241,-0.290141,-0.020734,0.104174,-18.960968,-21.211750,-8.162682,123.75565,1.1951686,-1.0020555,-0.20168829,-0.17851317,-0.01755612,0.1326396
20231225 09:48:15,0.403675,-0.938196,1.095702,-0.123947,0.049579,0.114828,-19.640179,-21.166943,-8.306343,123.785515,0.9682168,-0.9487567,-0.08438906,-0.039741464,0.04272472,-0.017800018
20231225 09:48:15,0.036630,-0.983892,1.286918,0.085927,0.145460,0.137200,-18.827919,-20.920315,-8.046425,125.614006,0.76606613,-1.0259082,0.02233535,0.14145097,0.14496294,-0.21295725
20231225 09:48:15,0.012882,-1.133408,1.234149,0.289408,0.220034,0.156376,-19.419277,-20.867275,-8.323692,124.44378,0.7204135,-1.173079,0.19152069,0.32012203,0.22959764,-0.38395014
20231225 09:48:15,0.188651,-1.322735,0.881458,0.441753,0.244537,0.160638,-19.533634,-21.352459,-7.891273,124.46677,0.6845678,-1.3359045,0.38157117,0.449376,0.25577483,-0.4909625
20231225 09:48:15,0.343234,-1.342209,0.247465,0.532308,0.234949,0.155311,-18.909370,-21.391720,-8.552345,122.1952,0.44210243,-1.3389858,0.5872075,0.51338905,0.24257626,-0.547536
20231225 09:48:15,0.496641,-1.349902,-0.662046,0.551484,0.214708,0.151050,-19.508541,-22.009357,-7.982109,119.45432,-0.069726765,-1.3439212,0.77903545,0.50908166,0.2169504,-0.5638442
20231225 09:48:15,0.600812,-1.240343,-1.487777,0.502478,0.199793,0.135070,-18.872742,-21.395412,-8.015862,114.889435,-0.67880124,-1.2567805,0.76591706,0.44484717,0.19705182,-0.5287578
20231225 09:48:15,0.640211,-1.109677,-2.071620,0.416185,0.190205,0.115893,-19.015530,-21.398090,-8.686943,109.3866,-1.2096081,-1.0958419,0.58566225,0.34977058,0.19136399,-0.4609923
20231225 09:48:15,0.491374,-0.814820,-2.557365,0.309650,0.201923,0.109501,-19.207996,-22.180256,-7.566048,110.50064,-1.7776619,-0.69331235,0.54795086,0.25868773,0.20610847,-0.38412476
20231225 09:48:15,0.234247,-0.555703,-2.793586,0.181808,0.233884,0.119089,-18.681309,-21.938992,-8.648308,109.47972,-2.1195736,-0.25583932,0.61415625,0.17587197,0.23242226,-0.29575875
20231225 09:48:15,0.022155,-0.484087,-2.621987,0.045444,0.257322,0.141462,-19.457325,-21.997433,-8.652214,112.261024,-2.021978,-0.16604903,0.8336682,0.10923397,0.24170202,-0.20902582
20231225 09:48:15,-0.127842,-0.546951,-2.098893,-0.071745,0.254125,0.169161,-18.741875,-21.854053,-8.252541,116.72939,-1.6078738,-0.33020407,1.0255322,0.05411561,0.22719103,-0.14170222
20231225 09:48:15,-0.072026,-0.745609,-1.443628,-0.156972,0.225361,0.192598,-19.290600,-22.075993,-8.913383,117.53851,-1.022981,-0.63673085,0.97742355,0.010812774,0.19779328,-0.08869828
20231225 09:48:15,0.089869,-0.914829,-0.948339,-0.202782,0.185943,0.210709,-18.874928,-22.145489,-8.368828,120.16442,-0.5404861,-0.86363333,0.8607729,-0.012140647,0.16549309,-0.054973826
20231225 09:48:15,0.312136,-1.044910,-0.705925,-0.236873,0.155048,0.221363,-18.487305,-21.924381,-8.647331,120.358345,-0.21691793,-1.0249795,0.73213506,-0.03258428,0.14598008,-0.025911368
20231225 09:48:15,0.560166,-1.138952,-0.487953,-0.254984,0.127349,0.206448,-19.387413,-22.179234,-8.773643,119.59801,0.10323921,-1.1396279,0.5639424,-0.05748388,0.12764767,0.0061810836
20231225 09:48:15,0.675747,-1.081023,-0.522658,-0.259246,0.120957,0.180879,-19.026680,-22.243198,-9.033806,118.777306,0.1466212,-1.0899904,0.44174838,-0.07143449,0.12427493,0.029283576
20231225 09:48:15,0.623518,-0.903327,-0.605043,-0.253919,0.159309,0.151050,-18.691425,-21.458347,-9.483620,116.7999,0.05376312,-0.89831054,0.37338287,-0.08555276,0.15764135,0.016762272
20231225 09:48:15,0.483279,-0.717052,-0.607308,-0.224089,0.210446,0.119089,-19.018101,-21.956287,-9.320396,117.045006,-0.054349005,-0.69276303,0.32773554,-0.084363975,0.20273753,-0.019926917
20231225 09:48:15,0.277582,-0.478430,-0.728883,-0.183606,0.265844,0.090325,-18.657372,-22.020237,-9.580574,116.17518,-0.30150023,-0.41699874,0.3213879,-0.078593604,0.24888471,-0.061090373
20231225 09:48:15,-0.103276,-0.045069,-1.011620,-0.117555,0.356399,0.086063,-19.308914,-22.074139,-9.181633,116.28548,-0.81251526,0.07064104,0.3996446,-0.05822078,0.3278117,-0.14740902
20231225 09:48:15,-0.538524,0.181279,-1.288156,-0.047242,0.454411,0.109501,-18.446205,-21.431812,-10.152763,114.92617,-1.3396869,0.32704082,0.6560403,-0.02998554,0.41511583,-0.25688344
20231225 09:48:15,-0.810796,0.323681,-1.618926,-0.011020,0.515136,0.159573,-18.737019,-21.549664,-10.014000,115.13349,-1.7985289,0.5431695,0.8842807,-0.005212441,0.453448,-0.3144035
20231225 09:48:15,-1.038962,0.484351,-2.158937,0.002830,0.574795,0.244800,-18.472717,-21.908756,-9.853951,117.505684,-2.3826778,0.8994199,1.1769717,0.0063361824,0.45445675,-0.3579563
20231225 09:48:15,-1.042092,0.161396,-2.771345,-0.068548,0.595037,0.369446,-18.385254,-21.708645,-10.268059,113.12367,-2.8030577,0.7414228,1.3857558,0.08737907,0.44419765,-0.31919396
20231225 09:48:15,-0.394192,-0.018739,-3.032429,-0.224089,0.513005,0.472785,-18.897732,-21.742390,-10.672874,104.70124,-2.74887,0.45579398,0.7431646,0.19522089,0.39991096,-0.12471516
20231225 09:48:15,0.291499,-0.089360,-3.350169,-0.411591,0.392621,0.532444,-18.343002,-21.791729,-10.932076,92.94775,-2.8268085,0.0073999465,-0.13652362,0.26902968,0.37176433,0.16942683
20231225 09:48:15,0.967079,0.094818,-3.728354,-0.612941,0.320177,0.536706,-18.704113,-21.535892,-10.952370,80.96161,-2.883045,-0.44007066,-1.1668851,0.25009018,0.4231482,0.4495813
20231225 09:48:15,1.315035,0.788015,-3.514420,-0.790855,0.296739,0.487700,-18.977379,-21.271816,-11.106285,81.03732,-2.426191,0.25591952,-1.7689214,0.11588049,0.40474397,0.6104803
20231225 09:48:15,1.081549,1.787925,-2.931574,-0.915500,0.280759,0.419517,-18.193169,-20.734592,-11.669441,86.501465,-2.0373225,1.6951534,-1.8742574,-0.050139636,0.30436495,0.69012326
20231225 09:48:15,0.672306,2.317769,-2.107459,-1.089152,0.185943,0.355597,-18.976349,-19.946079,-11.594734,93.433525,-1.4581845,2.356822,-1.73687,-0.28418583,0.16965057,0.8101808
20231225 09:48:15,0.525017,2.860176,-0.795302,-1.254281,0.022945,0.316179,-18.317261,-20.931004,-11.791832,101.954124,-0.3361016,2.875087,-2.04169,-0.5278971,0.0064572543,0.9310267
20231225 09:48:15,0.768247,2.365975,0.589988,-1.329921,-0.115550,0.291676,-18.757637,-20.396481,-11.965065,108.38989,1.0433676,2.3554227,-2.2972054,-0.77291906,-0.05771566,0.92413074
20231225 09:48:15,1.402727,1.679135,2.177600,-1.238301,-0.180537,0.254388,-18.712429,-20.113277,-11.715157,115.27006,2.5084238,1.6863967,-2.80365,-0.859159,-0.0691453,0.7763129
20231225 09:48:15,1.679206,1.161517,3.328788,-0.947461,-0.133661,0.202186,-18.361050,-20.080364,-12.249702,119.182945,3.246316,1.1900373,-3.1263924,-0.7011496,-0.04603115,0.5203871
20231225 09:48:15,1.670035,0.822535,3.917778,-0.530910,0.002703,0.136135,-18.864178,-20.210979,-12.380150,120.04294,3.4649405,0.86857074,-3.1513972,-0.3871816,0.048566755,0.21039034
20231225 09:48:15,1.449274,0.911215,3.894678,-0.071745,0.159309,0.046646,-18.555431,-19.903072,-12.531151,117.88136,3.3475776,0.9585358,-2.9933975,-0.030472549,0.16377963,-0.09809424
20231225 09:48:15,0.931129,1.391666,3.070446,0.316042,0.320177,-0.028994,-18.564400,-19.998096,-12.525032,114.1354,2.600781,1.3899592,-2.572915,0.233455,0.3205858,-0.4145461
20231225 09:48:15,0.231097,1.963463,2.185162,0.587706,0.405405,-0.063085,-18.325954,-19.316502,-12.835106,109.14204,1.5409697,1.874154,-2.0688772,0.3776836,0.4362164,-0.66208065
20231225 09:48:15,-0.123750,2.472372,1.217449,0.754966,0.414993,-0.070543,-18.107246,-19.766911,-13.205437,105.33044,0.5948901,2.3442101,-1.7497413,0.42720267,0.47700095,-0.81299776
20231225 09:48:15,-0.456547,2.965033,0.048580,0.818887,0.390490,-0.053497,-18.628307,-20.087566,-13.323662,101.3218,-0.67734134,2.8553154,-1.3613348,0.38445315,0.48216504,-0.8802495
20231225 09:48:15,-0.755593,3.546542,-1.269326,0.816756,0.409666,-0.008752,-17.675831,-20.396450,-13.026085,100.199745,-2.3304765,3.6053205,-0.95453084,0.29163232,0.51184237,-0.9085792
20231225 09:48:15,-1.195643,3.960572,-2.545667,0.752835,0.499156,0.061560,-18.310600,-19.684658,-13.480782,102.29251,-4.183276,4.3480506,-0.3210423,0.16363928,0.56367886,-0.89388853
20231225 09:48:15,-1.498732,4.083208,-3.363789,0.595163,0.595037,0.159573,-17.948334,-20.516155,-12.619072,105.97036,-5.1549225,4.7952485,0.21520433,0.08214407,0.55647874,-0.78774536
20231225 09:48:15,-1.280830,3.841199,-3.349294,0.312846,0.580122,0.236278,-17.536385,-20.568180,-13.549370,99.647545,-4.7286696,4.5299315,-0.17009288,0.11383392,0.4966043,-0.5380193
20231225 09:48:15,-0.773788,3.497546,-2.606840,-0.044045,0.409666,0.283153,-17.941555,-21.171215,-12.978157,98.311874,-3.3230767,3.852693,-0.8168722,0.13313511,0.3331275,-0.17764577
20231225 09:48:15,-0.040811,2.912622,-1.346040,-0.372173,0.169963,0.297002,-17.714260,-21.334721,-13.635063,97.57617,-1.2764556,2.9798505,-1.5545341,0.012458444,0.13760352,0.17995194
20231225 09:48:15,0.830715,2.386919,-0.078980,-0.567131,-0.026061,0.254388,-17.784565,-20.961018,-13.794136,100.419495,0.5700915,2.359069,-2.1754472,-0.1898361,-0.0021907203,0.40888116
20231225 09:48:15,1.160112,2.185945,0.447934,-0.601223,-0.066544,0.208579,-18.030170,-20.795666,-13.405464,103.229744,1.2203441,2.1535544,-2.3836577,-0.27051568,-0.032877643,0.44445103
20231225 09:48:15,1.195675,2.289857,2.074523,-0.575654,-0.002623,0.058364,-17.723228,-21.429737,-13.628960,111.686745,2.3030927,2.3011284,-2.9677634,-0.39576024,0.0097234,0.3637118
20231225 09:48:15,0.936961,2.437456,3.379810,-0.553282,0.016553,0.013620,-18.542648,-20.829418,-13.810280,113.68913,2.8080044,2.4486377,-3.422275,-0.4314773,0.020420946,0.31926882
20231225 09:48:15,0.962968,2.255544,4.614445,-0.542628,-0.050564,-0.001295,-18.156830,-21.550266,-14.161293,119.00616,3.3843753,2.2964106,-4.039724,-0.45336017,-0.039856575,0.33762226
20231225 09:48:15,1.240285,1.658819,5.395552,-0.502145,-0.120877,-0.039648,-18.030552,-20.603771,-13.685921,121.711266,3.779417,1.7278049,-4.305093,-0.4587223,-0.10223355,0.35575557
20231225 09:48:15,1.443925,0.669640,5.949158,-0.386022,-0.132596,-0.108895,-18.339294,-20.911686,-13.534935,126.32686,3.8085818,0.72848845,-4.295311,-0.3989702,-0.11689805,0.3169527
20231225 09:48:15,1.417351,-0.649915,6.237932,-0.167626,-0.111289,-0.213299,-18.192688,-21.930347,-14.136833,131.57584,3.4251862,-0.62166715,-3.9172733,-0.23096062,-0.10808781,0.26810873
20231225 09:48:15,1.048296,-1.901585,5.945588,0.138129,-0.051629,-0.344337,-18.226360,-21.560352,-13.759407,132.21863,2.7367625,-1.9116838,-2.7798302,0.032448463,-0.048318803,0.21791065
20231225 09:48:15,0.107385,-2.510277,5.047354,0.467322,0.031468,-0.444480,-17.873825,-22.103107,-13.452538,132.95074,1.6188654,-2.6412036,-1.5653309,0.32011285,0.09366166,0.1341589
20231225 09:48:15,-1.030318,-2.738678,3.616977,0.718744,0.099650,-0.455133,-17.874210,-21.911213,-13.733009,130.92091,0.34440482,-3.137009,0.045743942,0.5318122,0.2769432,-0.018943638
20231225 09:48:15,-1.745831,-2.593582,2.166621,0.822082,0.069820,-0.364579,-17.697754,-22.278538,-13.439323,130.22528,-0.52795625,-3.1953995,1.2055253,0.61799,0.33014303,-0.1466947
20231225 09:48:15,-1.733443,-2.480643,0.406233,0.727267,-0.032453,-0.229280,-17.523479,-23.395924,-13.498619,129.36278,-0.97078145,-2.8962574,2.2842243,0.5416258,0.205605,-0.19525027
20231225 09:48:15,-1.020428,-2.363689,-1.126855,0.474779,-0.132596,-0.103568,-17.963089,-23.245190,-13.110924,125.34252,-1.146728,-2.3488543,2.7111235,0.3557272,-0.022177843,-0.12479733
20231225 09:48:15,-0.015270,-2.451980,-1.749258,0.165828,-0.217824,-0.043909,-17.778053,-23.325596,-13.103828,123.14353,-0.89205116,-2.3475568,2.457347,0.121314324,-0.20190477,0.07150197
20231225 09:48:16,0.624282,-2.390403,-1.814942,-0.111162,-0.278549,-0.040713,-18.175793,-23.066059,-13.660622,120.76507,-0.5337994,-2.372299,2.0604405,-0.11220761,-0.27929455,0.27622744
20231225 09:48:16,0.888475,-2.256531,-1.563410,-0.316775,-0.284941,-0.069477,-17.830040,-22.953747,-12.994652,122.247765,-0.1766904,-2.256849,1.7273979,-0.29884398,-0.2848979,0.40988314
20231225 09:48:16,0.666908,-1.933688,-0.975742,-0.468054,-0.251915,-0.102503,-17.850155,-23.893864,-13.335396,125.62801,0.09341055,-1.8614707,1.4291673,-0.43939894,-0.27249596,0.47707883
20231225 09:48:16,0.101655,-1.678180,0.090330,-0.537302,-0.219954,-0.116353,-18.235592,-23.364895,-12.703911,127.29631,0.23878756,-1.659654,1.0550205,-0.50848794,-0.26903993,0.482601
20231225 09:48:16,-0.566886,-1.429527,1.151596,-0.511733,-0.166687,-0.100372,-18.069252,-23.251568,-13.245537,128.57454,0.14893422,-1.6009368,0.61698586,-0.48427188,-0.24117538,0.4083461
20231225 09:48:16,-1.338168,-1.274325,2.346143,-0.373238,-0.086786,-0.046040,-18.450096,-24.127735,-13.326103,130.90054,-0.1281066,-1.7486384,0.044045925,-0.34893116,-0.15817599,0.24405143
20231225 09:48:16,-1.902739,-1.285365,3.333498,-0.144188,-0.034584,0.045580,-18.314854,-23.086216,-12.856865,130.98102,-0.37208223,-1.9956961,-0.37933552,-0.11231339,-0.070532225,0.052635096
20231225 09:48:16,-2.016601,-1.468121,3.719223,0.125345,-0.011146,0.135070,-18.044544,-23.716587,-13.616859,131.91603,-0.38529158,-2.2070496,-0.53530395,0.16634336,0.0048975237,-0.12292721
20231225 09:48:16,-1.842169,-1.623560,3.379735,0.387421,0.008030,0.198990,-18.466225,-23.375805,-13.241386,130.88719,-0.27666748,-2.2784123,-0.19328332,0.43143532,0.07286858,-0.27591506
20231225 09:48:16,-1.526756,-1.802759,2.547813,0.596229,0.028272,0.236278,-17.847969,-23.143787,-12.982430,130.93118,-0.22488368,-2.2773492,0.3411169,0.63614315,0.12267624,-0.40368265
20231225 09:48:16,-1.002447,-2.001271,1.625549,0.746443,0.039991,0.236278,-18.256092,-24.113125,-13.325127,130.49542,-0.04854244,-2.2516325,0.85785824,0.7699555,0.13831598,-0.4918936
20231225 09:48:16,-0.528837,-2.140312,0.590659,0.842324,0.035729,0.208579,-17.953976,-19.539242,-15.496269,118.59266,-0.028124958,-2.2263246,1.6526438,0.83412576,0.12749895,-0.52347666
20231225 09:48:16,-0.085975,-2.255859,-0.524260,0.863631,0.027206,0.163834,-18.081673,-21.619587,-15.763664,118.51471,-0.2215856,-2.2191377,1.9204797,0.8117738,0.09645226,-0.55522865
20231225 09:48:16,0.228842,-2.291831,-1.473003,0.814625,0.009095,0.110566,-18.606937,-20.727001,-14.889351,112.797516,-0.5933591,-2.188869,1.984561,0.71169835,0.059383348,-0.5382862
20231225 09:48:16,0.344094,-2.224020,-2.212823,0.712352,-0.001558,0.059430,-17.928501,-20.388035,-15.306648,106.909225,-1.0939727,-2.0492182,1.8096539,0.5650182,0.044140033,-0.4932006
20231225 09:48:16,0.253787,-2.056304,-2.747648,0.569595,0.008030,0.024273,-18.000217,-21.148190,-15.257744,104.50926,-1.6131167,-1.7386411,1.6403316,0.40501904,0.05857776,-0.42623898
20231225 09:48:16,0.028003,-1.901123,-2.987415,0.394878,0.027206,0.016816,-18.280800,-23.648098,-12.953819,114.72987,-1.8474953,-1.4157557,2.0005186,0.2761859,0.07824719,-0.311449
20231225 09:48:16,-0.258138,-1.859738,-2.753128,0.222292,0.029337,0.030665,-17.876282,-24.562695,-12.756126,119.01362,-1.7887926,-1.4011534,2.2590313,0.1722278,0.05924713,-0.18701836
20231225 09:48:16,-0.396824,-1.808802,-2.346533,0.072077,0.001638,0.050907,-18.616051,-24.432949,-12.504005,120.30352,-1.5842254,-1.4709573,2.2690258,0.086241126,0.0054674214,-0.069183886
20231225 09:48:16,-0.354498,-1.829115,-1.967467,-0.042980,-0.032453,0.058364,-18.227661,-24.595615,-12.221581,122.34554,-1.313401,-1.5989078,2.1830497,0.0097404905,-0.045329254,0.02556946
20231225 09:48:16,-0.267228,-1.763102,-1.539132,-0.105836,-0.068675,0.050907,-17.885479,-20.854908,-15.409706,111.5426,-1.0025086,-1.6132059,1.8556561,-0.04118301,-0.0860438,0.10287001
20231225 09:48:16,-0.155567,-1.655346,-1.309064,-0.133535,-0.098505,0.034927,-18.641529,-23.584156,-12.693626,120.00409,-0.7940802,-1.5288309,1.6970106,-0.0703943,-0.115981385,0.13792525
20231225 09:48:16,-0.081013,-1.545914,-1.198569,-0.155907,-0.120877,0.020012,-18.167328,-20.877743,-15.277061,111.044464,-0.70287365,-1.444386,1.4847882,-0.096655555,-0.13652503,0.18123205
20231225 09:48:16,0.042925,-1.329867,-0.982361,-0.170822,-0.151772,-0.004491,-18.630493,-20.837643,-13.676628,112.383,-0.5131415,-1.2521341,1.1888139,-0.12216004,-0.16420276,0.21905148
20231225 09:48:16,0.036796,-1.029589,-0.851414,-0.182541,-0.178406,-0.026863,-18.440212,-20.805561,-15.150520,109.46681,-0.45484775,-0.95807165,0.91927594,-0.14187114,-0.19054978,0.25354427
20231225 09:48:16,-0.051165,-0.862402,-0.741219,-0.215567,-0.213562,-0.051366,-19.038616,-21.806980,-14.019325,112.46385,-0.46142453,-0.80392617,0.8406856,-0.1784616,-0.2268136,0.30540687
20231225 09:48:16,-0.178253,-0.549410,-0.602890,-0.252854,-0.248719,-0.071608,-18.520897,-21.660740,-15.095497,111.32638,-0.47600168,-0.5034248,0.6637396,-0.2110868,-0.26684305,0.36066905
20231225 09:48:16,-0.440044,-0.454506,-0.498353,-0.275226,-0.254046,-0.068412,-18.264141,-20.980991,-15.137321,111.61508,-0.60373294,-0.44916388,0.74634373,-0.22422148,-0.2780832,0.37771618
